sender,sender_type,sender_id,timestamp,meta,,blockNo,condition,duration,ended_on,img_left,img_reveal,img_right,loser,practice,response,response_action,selection_duration,time_commit,time_end,time_render,time_run,time_show,time_switch,total_blocks,total_trials,trialNo,url,winner
informed_consent,html.Screen,0,2023-09-16T20:39:03.797Z,"{""labjs_version"":""20.2.4"",""labjs_build"":{""flavor"":""production"",""commit"":""f5b4a49f956347addd546a832a3327688c2c0fef""},""location"":""https://run.pavlovia.org/MurrayBennett/melanoma-2afc/?participant=67690&platform=sona"",""userAgent"":""Mozilla/5.0 (Macintosh; Intel Mac OS X 10_15_7) AppleWebKit/537.36 (KHTML, like Gecko) Chrome/116.0.0.0 Safari/537.36"",""platform"":""MacIntel"",""language"":""en-US"",""locale"":""en-US"",""timeZone"":""America/Chicago"",""timezoneOffset"":300,""screen_width"":1440,""screen_height"":900,""scroll_width"":1435,""scroll_height"":657,""window_innerWidth"":1435,""window_innerHeight"":705,""devicePixelRatio"":2}",,,,50275.60800000037,response,,,,,,consent,click button,,54848.40000000037,54825.90000000037,4533.626,4538.5,4550.292,54861.21,,,,"{""participant"":""67690"",""platform"":""sona""}",
Welcome,html.Screen,1,2023-09-16T20:39:44.608Z,,,,irregular,40774.99000000019,response,,,,,,continue,click button,,95658.20000000019,95636.20000000019,54844.544,54848.60000000056,54861.21,95667.91,,,,,
trial,html.Screen,2_0_0,2023-09-16T20:39:54.505Z,,0,0,,9886.589999999997,response,ISIC_4679428.JPG,,ISIC_0061792.JPG,ISIC_4679428.JPG,true,1,keypress(m),500,105554.90000000037,105554.5,95651.244,95658.40000000037,95667.91,105571.67,1,6,1,,ISIC_0061792.JPG
sequence,flow.Sequence,2_0,2023-09-16T20:39:54.505Z,,0,,,9886.589999999997,completion,,,,,true,,,,105555.60000000056,105554.5,95651.244,95658.40000000037,95667.91,105571.67,1,6,,,
trial,html.Screen,2_1_0,2023-09-16T20:40:06.006Z,,0,0,,11514.650000000009,timeout,ISIC_0776486.JPG,,ISIC_5199497.JPG,,true,,,500,117055.70000000019,117055.5,105555.004,105555.70000000019,105571.67,117086.32,1,6,2,,
sequence,flow.Sequence,2_1,2023-09-16T20:40:06.006Z,,0,,,11483.830000000002,completion,,,,,true,,,,117055.79999999981,117055.5,105555.004,105555.70000000019,105571.67,117086.32,1,6,,,
trial,html.Screen,2_2_0,2023-09-16T20:40:10.304Z,,0,0,,4267.0800000003655,response,ISIC_2556187.JPG,,ISIC_8575776.JPG,ISIC_8575776.JPG,true,0,keypress(z),500,121353.70000000019,121353.40000000037,117069.654,117056,117086.32,121369.482,1,6,3,,ISIC_2556187.JPG
sequence,flow.Sequence,2_2,2023-09-16T20:40:10.304Z,,0,,,4267.0800000003655,completion,,,,,true,,,,121354,121353.40000000037,117069.654,117056,117086.32,121369.482,1,6,,,
trial,html.Screen,2_3_0,2023-09-16T20:40:17.841Z,,0,0,,7521.218000000183,response,ISIC_9238366.JPG,,ISIC_8141769.JPG,ISIC_9238366.JPG,true,1,keypress(m),500,128890.90000000037,128890.70000000019,121352.816,121354.20000000019,121369.482,128905.111,1,6,4,,ISIC_8141769.JPG
sequence,flow.Sequence,2_3,2023-09-16T20:40:17.841Z,,0,,,7521.218000000183,completion,,,,,true,,,,128891.10000000056,128890.70000000019,121352.816,121354.20000000019,121369.482,128905.111,1,6,,,
trial,html.Screen,2_4_0,2023-09-16T20:40:23.415Z,,0,0,,5558.589000000182,response,ISIC_8949026.JPG,,ISIC_9959593.JPG,ISIC_8949026.JPG,true,1,keypress(m),500,134464.10000000056,134463.7000000002,128888.445,128891.20000000019,128905.111,134471.555,1,6,5,,ISIC_9959593.JPG
sequence,flow.Sequence,2_4,2023-09-16T20:40:23.415Z,,0,,,5558.589000000182,completion,,,,,true,,,,134464.60000000056,134463.7000000002,128888.445,128891.20000000019,128905.111,134471.555,1,6,,,
trial,html.Screen,2_5_0,2023-09-16T20:40:29.276Z,,0,0,,5853.645000000193,response,ISIC_0010479.JPG,,ISIC_0460240.JPG,ISIC_0460240.JPG,true,0,keypress(z),500,140325.60000000056,140325.2000000002,134454.889,134464.7999999998,134471.555,140334.178,1,6,6,,ISIC_0010479.JPG
sequence,flow.Sequence,2_5,2023-09-16T20:40:29.277Z,,0,,,5853.645000000193,completion,,,,,true,,,,140326.10000000056,140325.2000000002,134454.889,134464.7000000002,134471.555,140334.178,1,6,,,
loop,flow.Loop,2,2023-09-16T20:40:29.277Z,,,,,44657.29000000018,completion,,,,,true,,,,140326.40000000037,140325.2000000002,95651.244,95658.29999999981,95667.91,140334.178,1,6,,,
exp_instructions,html.Screen,3,2023-09-16T20:40:41.914Z,,,,,12619.422000000544,response,,,,,,continue,keypress(Space),,152962.90000000037,152953.60000000056,140317.512,140326.5,140334.178,152967.006,,,,,
trial,html.Screen,4_0_0,2023-09-16T20:40:46.331Z,,0,1,,4412.594000000565,response,ISIC_2528656.JPG,9,ISIC_0056409.JPG,ISIC_2528656.JPG,false,1,keypress(m),500,157379.90000000037,157379.60000000056,152950.34,152963.2999999998,152967.006,157388.269,8,400,1,,ISIC_0056409.JPG
break,html.Screen,4_0_1,2023-09-16T20:40:46.332Z,,0,,,NaN,,,,,,false,,,,157381.2999999998,157380.90000000037,,157380.2000000002,,157388.269,8,400,,,
break_continue,html.Screen,4_0_2,2023-09-16T20:40:46.333Z,,0,,,NaN,,,,,,false,,,,157381.7999999998,157381.7000000002,,157381.40000000037,,157388.269,8,400,,,
sequence,flow.Sequence,4_0,2023-09-16T20:40:46.333Z,,0,,,4414.694000000192,completion,,,,,false,,,,157382,157381.7000000002,152950.34,152963.2000000002,152967.006,157388.269,8,400,,,
trial,html.Screen,4_1_0,2023-09-16T20:40:50.210Z,,0,1,,3870.2309999999998,response,ISIC_4462773.JPG,8,ISIC_0054206.JPG,ISIC_0054206.JPG,false,0,keypress(z),500,161258.90000000037,161258.5,157371.603,157382.2000000002,157388.269,161271.447,8,400,2,,ISIC_4462773.JPG
break,html.Screen,4_1_1,2023-09-16T20:40:50.211Z,,0,,,NaN,,,,,,false,,,,161260,161259.60000000056,,161259.2000000002,,161271.447,8,400,,,
break_continue,html.Screen,4_1_2,2023-09-16T20:40:50.212Z,,0,,,NaN,,,,,,false,,,,161260.5,161260.40000000037,,161260.2000000002,,161271.447,8,400,,,
sequence,flow.Sequence,4_1,2023-09-16T20:40:50.212Z,,0,,,3872.1310000003723,completion,,,,,false,,,,161260.7000000002,161260.40000000037,157371.603,157382.10000000056,157388.269,161271.447,8,400,,,
trial,html.Screen,4_2_0,2023-09-16T20:40:55.986Z,,0,1,,5763.153000000573,response,ISIC_2445475.JPG,9,ISIC_9194220.JPG,ISIC_9194220.JPG,false,0,keypress(z),500,167034.90000000037,167034.60000000056,161254.781,161260.90000000037,161271.447,167039.431,8,400,3,,ISIC_2445475.JPG
break,html.Screen,4_2_1,2023-09-16T20:40:55.987Z,,0,,,NaN,,,,,,false,,,,167035.90000000037,167035.60000000056,,167035.10000000056,,167039.431,8,400,,,
break_continue,html.Screen,4_2_2,2023-09-16T20:40:55.988Z,,0,,,NaN,,,,,,false,,,,167036.2999999998,167036.10000000056,,167036,,167039.431,8,400,,,
sequence,flow.Sequence,4_2,2023-09-16T20:40:55.988Z,,0,,,5764.653000000573,completion,,,,,false,,,,167036.5,167036.10000000056,161254.781,161260.90000000037,161271.447,167039.431,8,400,,,
trial,html.Screen,4_3_0,2023-09-16T20:41:04.050Z,,0,1,,8058.669000000547,response,ISIC_0011234.JPG,6,ISIC_0030970.JPG,ISIC_0030970.JPG,false,0,keypress(z),500,175098.2999999998,175098.10000000056,167022.765,167036.60000000056,167039.431,175105.775,8,400,4,,ISIC_0011234.JPG
break,html.Screen,4_3_1,2023-09-16T20:41:04.051Z,,0,,,NaN,,,,,,false,,,,175099.2999999998,175099,,175098.7000000002,,175105.775,8,400,,,
break_continue,html.Screen,4_3_2,2023-09-16T20:41:04.051Z,,0,,,NaN,,,,,,false,,,,175099.7000000002,175099.5,,175099.40000000037,,175105.775,8,400,,,
sequence,flow.Sequence,4_3,2023-09-16T20:41:04.051Z,,0,,,8060.068999999989,completion,,,,,false,,,,175099.7999999998,175099.5,167022.765,167036.60000000056,167039.431,175105.775,8,400,,,
trial,html.Screen,4_4_0,2023-09-16T20:41:07.912Z,,0,1,,3854.225000000006,response,ISIC_0061580.JPG,7,ISIC_0055826.JPG,ISIC_0055826.JPG,false,0,keypress(z),500,178960.2000000002,178960,175089.109,175100,175105.775,178975.199,8,400,5,,ISIC_0061580.JPG
break,html.Screen,4_4_1,2023-09-16T20:41:07.913Z,,0,,,NaN,,,,,,false,,,,178961.2000000002,178960.90000000037,,178960.5,,178975.199,8,400,,,
break_continue,html.Screen,4_4_2,2023-09-16T20:41:07.913Z,,0,,,NaN,,,,,,false,,,,178961.60000000056,178961.40000000037,,178961.2999999998,,178975.199,8,400,,,
sequence,flow.Sequence,4_4,2023-09-16T20:41:07.914Z,,0,,,3855.6250000003783,completion,,,,,false,,,,178961.7999999998,178961.40000000037,175089.109,175100,175105.775,178975.199,8,400,,,
trial,html.Screen,4_5_0,2023-09-16T20:41:12.765Z,,0,1,,4837.201000000379,response,ISIC_0067274.JPG,6,ISIC_6486856.JPG,ISIC_6486856.JPG,false,0,keypress(z),500,183812.60000000056,183812.40000000037,178958.533,178961.90000000037,178975.199,183825.005,8,400,6,,ISIC_0067274.JPG
break,html.Screen,4_5_1,2023-09-16T20:41:12.765Z,,0,,,NaN,,,,,,false,,,,183813.60000000056,183813.2999999998,,183812.90000000037,,183825.005,8,400,,,
break_continue,html.Screen,4_5_2,2023-09-16T20:41:12.766Z,,0,,,NaN,,,,,,false,,,,183813.90000000037,183813.90000000037,,183813.7000000002,,183825.005,8,400,,,
sequence,flow.Sequence,4_5,2023-09-16T20:41:12.766Z,,0,,,4838.701000000379,completion,,,,,false,,,,183814.2000000002,183813.90000000037,178958.533,178961.7999999998,178975.199,183825.005,8,400,,,
trial,html.Screen,4_6_0,2023-09-16T20:41:18.931Z,,0,1,,6153.595000000554,response,ISIC_0003201.JPG,7,ISIC_3666094.JPG,ISIC_3666094.JPG,false,0,keypress(z),500,189978.7999999998,189978.60000000056,183808.339,183814.2999999998,183825.005,189993.196,8,400,7,,ISIC_0003201.JPG
break,html.Screen,4_6_1,2023-09-16T20:41:18.932Z,,0,,,NaN,,,,,,false,,,,189979.7999999998,189979.5,,189979,,189993.196,8,400,,,
break_continue,html.Screen,4_6_2,2023-09-16T20:41:18.932Z,,0,,,NaN,,,,,,false,,,,189980.2999999998,189980.10000000056,,189979.90000000037,,189993.196,8,400,,,
sequence,flow.Sequence,4_6,2023-09-16T20:41:18.932Z,,0,,,6155.095000000554,completion,,,,,false,,,,189980.40000000037,189980.10000000056,183808.339,183814.2999999998,183825.005,189993.196,8,400,,,
trial,html.Screen,4_7_0,2023-09-16T20:41:27.272Z,,0,1,,8326.804000000004,response,ISIC_0063601.JPG,7,ISIC_0014846.JPG,ISIC_0063601.JPG,false,1,keypress(m),500,198320.2000000002,198320,189976.53,189980.5,189993.196,198326.196,8,400,8,,ISIC_0014846.JPG
break,html.Screen,4_7_1,2023-09-16T20:41:27.273Z,,0,,,NaN,,,,,,false,,,,198321.2000000002,198320.90000000037,,198320.5,,198326.196,8,400,,,
break_continue,html.Screen,4_7_2,2023-09-16T20:41:27.274Z,,0,,,NaN,,,,,,false,,,,198321.60000000056,198321.40000000037,,198321.2999999998,,198326.196,8,400,,,
sequence,flow.Sequence,4_7,2023-09-16T20:41:27.274Z,,0,,,8328.204000000376,completion,,,,,false,,,,198321.7000000002,198321.40000000037,189976.53,189980.5,189993.196,198326.196,8,400,,,
trial,html.Screen,4_8_0,2023-09-16T20:41:31.086Z,,0,1,,3807.1039999998175,response,ISIC_0058617.JPG,6,ISIC_0033496.JPG,ISIC_0033496.JPG,false,0,keypress(z),500,202133.60000000056,202133.2999999998,198309.53,198321.90000000037,198326.196,202139.369,8,400,9,,ISIC_0058617.JPG
break,html.Screen,4_8_1,2023-09-16T20:41:31.087Z,,0,,,NaN,,,,,,false,,,,202134.60000000056,202134.2999999998,,202133.7999999998,,202139.369,8,400,,,
break_continue,html.Screen,4_8_2,2023-09-16T20:41:31.087Z,,0,,,NaN,,,,,,false,,,,202135,202134.90000000037,,202134.7000000002,,202139.369,8,400,,,
sequence,flow.Sequence,4_8,2023-09-16T20:41:31.088Z,,0,,,3808.7040000003763,completion,,,,,false,,,,202135.2999999998,202134.90000000037,198309.53,198321.7999999998,198326.196,202139.369,8,400,,,
trial,html.Screen,4_9_0,2023-09-16T20:41:35.157Z,,0,1,,4065.130999999994,response,ISIC_0062025.JPG,9,ISIC_3086579.JPG,ISIC_3086579.JPG,false,0,keypress(z),500,206204.7999999998,206204.5,202122.703,202135.40000000037,202139.369,206222.539,8,400,10,,ISIC_0062025.JPG
break,html.Screen,4_9_1,2023-09-16T20:41:35.158Z,,0,,,NaN,,,,,,false,,,,206205.7999999998,206205.60000000056,,206205.10000000056,,206222.539,8,400,,,
break_continue,html.Screen,4_9_2,2023-09-16T20:41:35.159Z,,0,,,NaN,,,,,,false,,,,206206.2000000002,206206.2000000002,,206206,,206222.539,8,400,,,
sequence,flow.Sequence,4_9,2023-09-16T20:41:35.159Z,,0,,,4066.83100000018,completion,,,,,false,,,,206206.5,206206.2000000002,202122.703,202135.2999999998,202139.369,206222.539,8,400,,,
trial,html.Screen,4_10_0,2023-09-16T20:41:40.643Z,,0,1,,5467.861000000383,response,ISIC_2546644.JPG,8,ISIC_2532544.JPG,ISIC_2546644.JPG,false,1,keypress(m),500,211690.7000000002,211690.40000000037,206205.873,206206.60000000056,206222.539,211701.741,8,400,11,,ISIC_2532544.JPG
break,html.Screen,4_10_1,2023-09-16T20:41:40.644Z,,0,,,NaN,,,,,,false,,,,211691.60000000056,211691.40000000037,,211690.90000000037,,211701.741,8,400,,,
break_continue,html.Screen,4_10_2,2023-09-16T20:41:40.645Z,,0,,,NaN,,,,,,false,,,,211692.10000000056,211692,,211691.90000000037,,211701.741,8,400,,,
sequence,flow.Sequence,4_10,2023-09-16T20:41:40.645Z,,0,,,5469.46100000001,completion,,,,,false,,,,211692.2999999998,211692,206205.873,206206.60000000056,206222.539,211701.741,8,400,,,
trial,html.Screen,4_11_0,2023-09-16T20:41:45.209Z,,0,1,,4554.258999999991,response,ISIC_9540825.JPG,5,ISIC_0014695.JPG,ISIC_9540825.JPG,false,1,keypress(m),500,216256.2000000002,216256,211685.075,211692.5,211701.741,216268.225,8,400,12,,ISIC_0014695.JPG
break,html.Screen,4_11_1,2023-09-16T20:41:45.210Z,,0,,,NaN,,,,,,false,,,,216257.10000000056,216256.90000000037,,216256.5,,216268.225,8,400,,,
break_continue,html.Screen,4_11_2,2023-09-16T20:41:45.210Z,,0,,,NaN,,,,,,false,,,,216257.60000000056,216257.5,,216257.40000000037,,216268.225,8,400,,,
sequence,flow.Sequence,4_11,2023-09-16T20:41:45.211Z,,0,,,4555.758999999991,completion,,,,,false,,,,216257.7999999998,216257.5,211685.075,211692.40000000037,211701.741,216268.225,8,400,,,
trial,html.Screen,4_12_0,2023-09-16T20:41:49.508Z,,0,1,,4286.274999999994,response,ISIC_2380341.JPG,6,ISIC_0029815.JPG,ISIC_0029815.JPG,false,0,keypress(z),500,220554.7999999998,220554.5,216251.559,216258,216268.225,220568.053,8,400,13,,ISIC_2380341.JPG
break,html.Screen,4_12_1,2023-09-16T20:41:49.509Z,,0,,,NaN,,,,,,false,,,,220555.7999999998,220555.5,,220555,,220568.053,8,400,,,
break_continue,html.Screen,4_12_2,2023-09-16T20:41:49.509Z,,0,,,NaN,,,,,,false,,,,220556.2000000002,220556.10000000056,,220555.90000000037,,220568.053,8,400,,,
sequence,flow.Sequence,4_12,2023-09-16T20:41:49.509Z,,0,,,4287.875000000553,completion,,,,,false,,,,220556.40000000037,220556.10000000056,216251.559,216258,216268.225,220568.053,8,400,,,
trial,html.Screen,4_13_0,2023-09-16T20:41:53.673Z,,0,1,,4151.946999999986,response,ISIC_4734111.JPG,7,ISIC_2214766.JPG,ISIC_2214766.JPG,false,0,keypress(z),500,224720.2999999998,224720,220551.387,220556.60000000056,220568.053,224736.68,8,400,14,,ISIC_4734111.JPG
break,html.Screen,4_13_1,2023-09-16T20:41:53.674Z,,0,,,NaN,,,,,,false,,,,224721.2000000002,224721,,224720.5,,224736.68,8,400,,,
break_continue,html.Screen,4_13_2,2023-09-16T20:41:53.675Z,,0,,,NaN,,,,,,false,,,,224721.7000000002,224721.60000000056,,224721.40000000037,,224736.68,8,400,,,
sequence,flow.Sequence,4_13,2023-09-16T20:41:53.675Z,,0,,,4153.547000000544,completion,,,,,false,,,,224721.90000000037,224721.60000000056,220551.387,220556.5,220568.053,224736.68,8,400,,,
trial,html.Screen,4_14_0,2023-09-16T20:41:58.228Z,,0,1,,4537.920000000566,response,ISIC_1722909.JPG,6,ISIC_0069859.JPG,ISIC_0069859.JPG,false,0,keypress(z),500,229274.90000000037,229274.60000000056,224720.014,224722,224736.68,229286.498,8,400,15,,ISIC_1722909.JPG
break,html.Screen,4_14_1,2023-09-16T20:41:58.229Z,,0,,,NaN,,,,,,false,,,,229275.7999999998,229275.5,,229275.10000000056,,229286.498,8,400,,,
break_continue,html.Screen,4_14_2,2023-09-16T20:41:58.229Z,,0,,,NaN,,,,,,false,,,,229276.2000000002,229276.10000000056,,229276,,229286.498,8,400,,,
sequence,flow.Sequence,4_14,2023-09-16T20:41:58.230Z,,0,,,4539.420000000566,completion,,,,,false,,,,229276.40000000037,229276.10000000056,224720.014,224722,224736.68,229286.498,8,400,,,
trial,html.Screen,4_15_0,2023-09-16T20:42:03.768Z,,0,1,,5528.1020000005665,response,ISIC_7208412.JPG,6,ISIC_0026236.JPG,ISIC_7208412.JPG,false,1,keypress(m),500,234814.90000000037,234814.60000000056,229269.832,229276.60000000056,229286.498,234817.299,8,400,16,,ISIC_0026236.JPG
break,html.Screen,4_15_1,2023-09-16T20:42:03.769Z,,0,,,NaN,,,,,,false,,,,234815.90000000037,234815.60000000056,,234815.2000000002,,234817.299,8,400,,,
break_continue,html.Screen,4_15_2,2023-09-16T20:42:03.770Z,,0,,,NaN,,,,,,false,,,,234816.40000000037,234816.2000000002,,234816.10000000056,,234817.299,8,400,,,
sequence,flow.Sequence,4_15,2023-09-16T20:42:03.770Z,,0,,,5529.702000000194,completion,,,,,false,,,,234816.60000000056,234816.2000000002,229269.832,229276.60000000056,229286.498,234817.299,8,400,,,
trial,html.Screen,4_16_0,2023-09-16T20:42:09.156Z,,0,1,,5385.30100000056,response,ISIC_0254517.JPG,7,ISIC_5616806.JPG,ISIC_5616806.JPG,false,0,keypress(z),500,240202.90000000037,240202.60000000056,234800.633,234816.7000000002,234817.299,240217.083,8,400,17,,ISIC_0254517.JPG
break,html.Screen,4_16_1,2023-09-16T20:42:09.158Z,,0,,,NaN,,,,,,false,,,,240204.2000000002,240203.7999999998,,240203.10000000056,,240217.083,8,400,,,
break_continue,html.Screen,4_16_2,2023-09-16T20:42:09.158Z,,0,,,NaN,,,,,,false,,,,240204.7000000002,240204.5,,240204.40000000037,,240217.083,8,400,,,
sequence,flow.Sequence,4_16,2023-09-16T20:42:09.159Z,,0,,,5387.201000000001,completion,,,,,false,,,,240205.10000000056,240204.5,234800.633,234816.7000000002,234817.299,240217.083,8,400,,,
trial,html.Screen,4_17_0,2023-09-16T20:42:14.756Z,,0,1,,5585.416999999987,response,ISIC_8843901.JPG,5,ISIC_7264251.JPG,ISIC_7264251.JPG,false,0,keypress(z),500,245802.7999999998,245802.5,240200.417,240205.40000000037,240217.083,245811.872,8,400,18,,ISIC_8843901.JPG
break,html.Screen,4_17_1,2023-09-16T20:42:14.757Z,,0,,,NaN,,,,,,false,,,,245803.7999999998,245803.5,,245803.2000000002,,245811.872,8,400,,,
break_continue,html.Screen,4_17_2,2023-09-16T20:42:14.758Z,,0,,,NaN,,,,,,false,,,,245804.2000000002,245804,,245803.90000000037,,245811.872,8,400,,,
sequence,flow.Sequence,4_17,2023-09-16T20:42:14.758Z,,0,,,5586.916999999987,completion,,,,,false,,,,245804.40000000037,245804,240200.417,240205.2999999998,240217.083,245811.872,8,400,,,
trial,html.Screen,4_18_0,2023-09-16T20:42:19.162Z,,0,1,,4396.0280000003695,response,ISIC_2323082.JPG,6,ISIC_0000072.JPG,ISIC_2323082.JPG,false,1,keypress(m),500,250208.2000000002,250207.90000000037,245795.206,245804.5,245811.872,250228.362,8,400,19,,ISIC_0000072.JPG
break,html.Screen,4_18_1,2023-09-16T20:42:19.163Z,,0,,,NaN,,,,,,false,,,,250209.2000000002,250208.90000000037,,250208.5,,250228.362,8,400,,,
break_continue,html.Screen,4_18_2,2023-09-16T20:42:19.163Z,,0,,,NaN,,,,,,false,,,,250209.60000000056,250209.5,,250209.40000000037,,250228.362,8,400,,,
sequence,flow.Sequence,4_18,2023-09-16T20:42:19.164Z,,0,,,4397.627999999997,completion,,,,,false,,,,250209.7999999998,250209.5,245795.206,245804.5,245811.872,250228.362,8,400,,,
trial,html.Screen,4_19_0,2023-09-16T20:42:22.879Z,,0,1,,3697.038000000379,response,ISIC_1948545.JPG,7,ISIC_6635699.JPG,ISIC_6635699.JPG,false,0,keypress(z),500,253925.60000000056,253925.40000000037,250211.696,250209.90000000037,250228.362,253928.214,8,400,20,,ISIC_1948545.JPG
break,html.Screen,4_19_1,2023-09-16T20:42:22.880Z,,0,,,NaN,,,,,,false,,,,253926.5,253926.2999999998,,253926,,253928.214,8,400,,,
break_continue,html.Screen,4_19_2,2023-09-16T20:42:22.881Z,,0,,,NaN,,,,,,false,,,,253927,253926.90000000037,,253926.7000000002,,253928.214,8,400,,,
sequence,flow.Sequence,4_19,2023-09-16T20:42:22.881Z,,0,,,3698.538000000379,completion,,,,,false,,,,253927.10000000056,253926.90000000037,250211.696,250209.90000000037,250228.362,253928.214,8,400,,,
trial,html.Screen,4_20_0,2023-09-16T20:42:29.635Z,,0,1,,6752.686000000365,response,ISIC_0028886.JPG,7,ISIC_9475559.JPG,ISIC_0028886.JPG,false,1,keypress(m),500,260681.2000000002,260680.90000000037,253911.548,253927.2999999998,253928.214,260698.456,8,400,21,,ISIC_9475559.JPG
break,html.Screen,4_20_1,2023-09-16T20:42:29.636Z,,0,,,NaN,,,,,,false,,,,260682.10000000056,260682,,260681.5,,260698.456,8,400,,,
break_continue,html.Screen,4_20_2,2023-09-16T20:42:29.637Z,,0,,,NaN,,,,,,false,,,,260682.7000000002,260682.5,,260682.40000000037,,260698.456,8,400,,,
sequence,flow.Sequence,4_20,2023-09-16T20:42:29.637Z,,0,,,6754.285999999993,completion,,,,,false,,,,260682.7999999998,260682.5,253911.548,253927.2999999998,253928.214,260698.456,8,400,,,
trial,html.Screen,4_21_0,2023-09-16T20:42:37.290Z,,0,1,,7637.444000000367,response,ISIC_5367118.JPG,7,ISIC_0058199.JPG,ISIC_5367118.JPG,false,1,keypress(m),500,268336.2000000002,268335.9000000004,260681.79,260683,260698.456,268342.387,8,400,22,,ISIC_0058199.JPG
break,html.Screen,4_21_1,2023-09-16T20:42:37.291Z,,0,,,NaN,,,,,,false,,,,268337.10000000056,268336.9000000004,,268336.4000000004,,268342.387,8,400,,,
break_continue,html.Screen,4_21_2,2023-09-16T20:42:37.292Z,,0,,,NaN,,,,,,false,,,,268337.5,268337.4000000004,,268337.2999999998,,268342.387,8,400,,,
sequence,flow.Sequence,4_21,2023-09-16T20:42:37.292Z,,0,,,7638.944000000367,completion,,,,,false,,,,268337.7000000002,268337.4000000004,260681.79,260683,260698.456,268342.387,8,400,,,
trial,html.Screen,4_22_0,2023-09-16T20:42:43.840Z,,0,1,,6542.912999999826,response,ISIC_0000279.JPG,6,ISIC_0010415.JPG,ISIC_0000279.JPG,false,1,keypress(m),500,274885.60000000056,274885.2999999998,268325.721,268337.9000000004,268342.387,274892.125,8,400,23,,ISIC_0010415.JPG
break,html.Screen,4_22_1,2023-09-16T20:42:43.841Z,,0,,,NaN,,,,,,false,,,,274886.5,274886.2999999998,,274885.7999999998,,274892.125,8,400,,,
break_continue,html.Screen,4_22_2,2023-09-16T20:42:43.841Z,,0,,,NaN,,,,,,false,,,,274886.9000000004,274886.7999999998,,274886.7000000002,,274892.125,8,400,,,
sequence,flow.Sequence,4_22,2023-09-16T20:42:43.842Z,,0,,,6544.412999999826,completion,,,,,false,,,,274887.10000000056,274886.7999999998,268325.721,268337.7999999998,268342.387,274892.125,8,400,,,
trial,html.Screen,4_23_0,2023-09-16T20:42:49.013Z,,0,1,,5165.875,response,ISIC_5754023.JPG,6,ISIC_0375034.JPG,ISIC_5754023.JPG,false,1,keypress(m),500,280058.2999999998,280058,274875.459,274887.2999999998,274892.125,280065.033,8,400,24,,ISIC_0375034.JPG
break,html.Screen,4_23_1,2023-09-16T20:42:49.014Z,,0,,,NaN,,,,,,false,,,,280059.2000000002,280058.9000000004,,280058.5,,280065.033,8,400,,,
break_continue,html.Screen,4_23_2,2023-09-16T20:42:49.014Z,,0,,,NaN,,,,,,false,,,,280059.60000000056,280059.5,,280059.4000000004,,280065.033,8,400,,,
sequence,flow.Sequence,4_23,2023-09-16T20:42:49.014Z,,0,,,5167.375,completion,,,,,false,,,,280059.9000000004,280059.5,274875.459,274887.2999999998,274892.125,280065.033,8,400,,,
trial,html.Screen,4_24_0,2023-09-16T20:42:52.763Z,,0,1,,3742.8670000003767,response,ISIC_0033289.JPG,7,ISIC_3898738.JPG,ISIC_3898738.JPG,false,0,keypress(z),500,283808.2999999998,283807.9000000004,280048.367,280060,280065.033,283814.883,8,400,25,,ISIC_0033289.JPG
break,html.Screen,4_24_1,2023-09-16T20:42:52.764Z,,0,,,NaN,,,,,,false,,,,283809.2000000002,283808.9000000004,,283808.5,,283814.883,8,400,,,
break_continue,html.Screen,4_24_2,2023-09-16T20:42:52.764Z,,0,,,NaN,,,,,,false,,,,283809.60000000056,283809.4000000004,,283809.2999999998,,283814.883,8,400,,,
sequence,flow.Sequence,4_24,2023-09-16T20:42:52.764Z,,0,,,3744.3670000003767,completion,,,,,false,,,,283809.7999999998,283809.4000000004,280048.367,280060,280065.033,283814.883,8,400,,,
trial,html.Screen,4_25_0,2023-09-16T20:42:57.248Z,,0,1,,4477.6170000000275,response,ISIC_8711854.JPG,7,ISIC_0027126.JPG,ISIC_8711854.JPG,false,1,keypress(m),500,288292.7999999998,288292.5,283798.217,283810,283814.883,288298.037,8,400,26,,ISIC_0027126.JPG
break,html.Screen,4_25_1,2023-09-16T20:42:57.249Z,,0,,,NaN,,,,,,false,,,,288293.7000000002,288293.4000000004,,288293,,288298.037,8,400,,,
break_continue,html.Screen,4_25_2,2023-09-16T20:42:57.249Z,,0,,,NaN,,,,,,false,,,,288294.2000000002,288294,,288293.9000000004,,288298.037,8,400,,,
sequence,flow.Sequence,4_25,2023-09-16T20:42:57.249Z,,0,,,4479.1170000000275,completion,,,,,false,,,,288294.4000000004,288294,283798.217,283810,283814.883,288298.037,8,400,,,
trial,html.Screen,4_26_0,2023-09-16T20:43:04.246Z,,0,1,,6992.563000000548,response,ISIC_2007034.JPG,5,ISIC_3688407.JPG,ISIC_3688407.JPG,false,0,keypress(z),500,295290.9000000004,295290.60000000056,288281.371,288294.5,288298.037,295297.142,8,400,27,,ISIC_2007034.JPG
break,html.Screen,4_26_1,2023-09-16T20:43:04.247Z,,0,,,NaN,,,,,,false,,,,295291.7999999998,295291.60000000056,,295291.2000000002,,295297.142,8,400,,,
break_continue,html.Screen,4_26_2,2023-09-16T20:43:04.247Z,,0,,,NaN,,,,,,false,,,,295292.2999999998,295292.10000000056,,295292,,295297.142,8,400,,,
sequence,flow.Sequence,4_26,2023-09-16T20:43:04.247Z,,0,,,6994.063000000548,completion,,,,,false,,,,295292.5,295292.10000000056,288281.371,288294.5,288298.037,295297.142,8,400,,,
trial,html.Screen,4_27_0,2023-09-16T20:43:07.670Z,,0,1,,3417.3580000000075,response,ISIC_0011387.JPG,7,ISIC_9100283.JPG,ISIC_9100283.JPG,false,0,keypress(z),500,298714.9000000004,298714.5,295280.476,295292.7000000002,295297.142,298730.338,8,400,28,,ISIC_0011387.JPG
break,html.Screen,4_27_1,2023-09-16T20:43:07.671Z,,0,,,NaN,,,,,,false,,,,298715.7999999998,298715.5,,298715.10000000056,,298730.338,8,400,,,
break_continue,html.Screen,4_27_2,2023-09-16T20:43:07.671Z,,0,,,NaN,,,,,,false,,,,298716.2000000002,298716.10000000056,,298715.9000000004,,298730.338,8,400,,,
sequence,flow.Sequence,4_27,2023-09-16T20:43:07.672Z,,0,,,3418.9580000005662,completion,,,,,false,,,,298716.5,298716.10000000056,295280.476,295292.60000000056,295297.142,298730.338,8,400,,,
trial,html.Screen,4_28_0,2023-09-16T20:43:12.174Z,,0,1,,4488.062000000384,response,ISIC_9384835.JPG,6,ISIC_4720306.JPG,ISIC_4720306.JPG,false,0,keypress(z),500,303218.7000000002,303218.4000000004,298713.672,298716.60000000056,298730.338,303232.226,8,400,29,,ISIC_9384835.JPG
break,html.Screen,4_28_1,2023-09-16T20:43:12.175Z,,0,,,NaN,,,,,,false,,,,303219.7000000002,303219.4000000004,,303219,,303232.226,8,400,,,
break_continue,html.Screen,4_28_2,2023-09-16T20:43:12.175Z,,0,,,NaN,,,,,,false,,,,303220.10000000056,303219.9000000004,,303219.7999999998,,303232.226,8,400,,,
sequence,flow.Sequence,4_28,2023-09-16T20:43:12.176Z,,0,,,4489.562000000384,completion,,,,,false,,,,303220.2999999998,303219.9000000004,298713.672,298716.60000000056,298730.338,303232.226,8,400,,,
trial,html.Screen,4_29_0,2023-09-16T20:43:15.714Z,,0,1,,3526.3740000005346,response,ISIC_0033452.JPG,8,ISIC_0026089.JPG,ISIC_0026089.JPG,false,0,keypress(z),500,306758.9000000004,306758.60000000056,303215.56,303220.4000000004,303232.226,306765.418,8,400,30,,ISIC_0033452.JPG
break,html.Screen,4_29_1,2023-09-16T20:43:15.715Z,,0,,,NaN,,,,,,false,,,,306759.60000000056,306759.5,,306759.2000000002,,306765.418,8,400,,,
break_continue,html.Screen,4_29_2,2023-09-16T20:43:15.715Z,,0,,,NaN,,,,,,false,,,,306760.10000000056,306760,,306759.7999999998,,306765.418,8,400,,,
sequence,flow.Sequence,4_29,2023-09-16T20:43:15.716Z,,0,,,3527.773999999976,completion,,,,,false,,,,306760.2999999998,306760,303215.56,303220.4000000004,303232.226,306765.418,8,400,,,
trial,html.Screen,4_30_0,2023-09-16T20:43:19.430Z,,0,1,,3709.1820000005537,response,ISIC_0030336.JPG,5,ISIC_0032248.JPG,ISIC_0030336.JPG,false,1,keypress(m),500,310474.9000000004,310474.60000000056,306748.752,306760.5,306765.418,310490.788,8,400,31,,ISIC_0032248.JPG
break,html.Screen,4_30_1,2023-09-16T20:43:19.431Z,,0,,,NaN,,,,,,false,,,,310475.9000000004,310475.60000000056,,310475.10000000056,,310490.788,8,400,,,
break_continue,html.Screen,4_30_2,2023-09-16T20:43:19.432Z,,0,,,NaN,,,,,,false,,,,310476.2999999998,310476.10000000056,,310475.9000000004,,310490.788,8,400,,,
sequence,flow.Sequence,4_30,2023-09-16T20:43:19.432Z,,0,,,3710.6820000005537,completion,,,,,false,,,,310476.5,310476.10000000056,306748.752,306760.4000000004,306765.418,310490.788,8,400,,,
trial,html.Screen,4_31_0,2023-09-16T20:43:26.396Z,,0,1,,6949.112000000372,response,ISIC_0010901.JPG,7,ISIC_8292279.JPG,ISIC_8292279.JPG,false,0,keypress(z),500,317440.2999999998,317439.9000000004,310474.122,310476.60000000056,310490.788,317457.176,8,400,32,,ISIC_0010901.JPG
break,html.Screen,4_31_1,2023-09-16T20:43:26.397Z,,0,,,NaN,,,,,,false,,,,317441.2000000002,317440.9000000004,,317440.5,,317457.176,8,400,,,
break_continue,html.Screen,4_31_2,2023-09-16T20:43:26.397Z,,0,,,NaN,,,,,,false,,,,317441.60000000056,317441.4000000004,,317441.2999999998,,317457.176,8,400,,,
sequence,flow.Sequence,4_31,2023-09-16T20:43:26.397Z,,0,,,6950.612000000372,completion,,,,,false,,,,317441.7999999998,317441.4000000004,310474.122,310476.60000000056,310490.788,317457.176,8,400,,,
trial,html.Screen,4_32_0,2023-09-16T20:43:32.945Z,,0,1,,6532.024000000209,response,ISIC_8009880.JPG,7,ISIC_0055136.JPG,ISIC_8009880.JPG,false,1,keypress(m),500,323989.60000000056,323989.2000000002,317440.51,317441.9000000004,317457.176,323996.537,8,400,33,,ISIC_0055136.JPG
break,html.Screen,4_32_1,2023-09-16T20:43:32.946Z,,0,,,NaN,,,,,,false,,,,323990.4000000004,323990.2000000002,,323989.9000000004,,323996.537,8,400,,,
break_continue,html.Screen,4_32_2,2023-09-16T20:43:32.947Z,,0,,,NaN,,,,,,false,,,,323990.9000000004,323990.7999999998,,323990.60000000056,,323996.537,8,400,,,
sequence,flow.Sequence,4_32,2023-09-16T20:43:32.947Z,,0,,,6533.623999999836,completion,,,,,false,,,,323991.2000000002,323990.7999999998,317440.51,317441.9000000004,317457.176,323996.537,8,400,,,
trial,html.Screen,4_33_0,2023-09-16T20:43:39.974Z,,0,1,,7021.163000000175,response,ISIC_6425888.JPG,6,ISIC_0032917.JPG,ISIC_6425888.JPG,false,1,keypress(m),500,331018,331017.7000000002,323979.871,323991.2999999998,323996.537,331023.602,8,400,34,,ISIC_0032917.JPG
break,html.Screen,4_33_1,2023-09-16T20:43:39.975Z,,0,,,NaN,,,,,,false,,,,331018.9000000004,331018.7000000002,,331018.2999999998,,331023.602,8,400,,,
break_continue,html.Screen,4_33_2,2023-09-16T20:43:39.975Z,,0,,,NaN,,,,,,false,,,,331019.4000000004,331019.2000000002,,331019.10000000056,,331023.602,8,400,,,
sequence,flow.Sequence,4_33,2023-09-16T20:43:39.976Z,,0,,,7022.663000000175,completion,,,,,false,,,,331019.5,331019.2000000002,323979.871,323991.2000000002,323996.537,331023.602,8,400,,,
trial,html.Screen,4_34_0,2023-09-16T20:43:46.204Z,,0,1,,6224.3979999999865,response,ISIC_9742073.JPG,7,ISIC_3058800.JPG,ISIC_9742073.JPG,false,1,keypress(m),500,337248.2999999998,337248,331006.936,331019.7000000002,331023.602,337256.686,8,400,35,,ISIC_3058800.JPG
break,html.Screen,4_34_1,2023-09-16T20:43:46.205Z,,0,,,NaN,,,,,,false,,,,337249.2000000002,337248.9000000004,,337248.5,,337256.686,8,400,,,
break_continue,html.Screen,4_34_2,2023-09-16T20:43:46.206Z,,0,,,NaN,,,,,,false,,,,337249.60000000056,337249.5,,337249.4000000004,,337256.686,8,400,,,
sequence,flow.Sequence,4_34,2023-09-16T20:43:46.206Z,,0,,,6225.8979999999865,completion,,,,,false,,,,337249.9000000004,337249.5,331006.936,331019.7000000002,331023.602,337256.686,8,400,,,
trial,html.Screen,4_35_0,2023-09-16T20:43:52.001Z,,0,1,,5787.414000000572,response,ISIC_9727132.JPG,6,ISIC_6945634.JPG,ISIC_9727132.JPG,false,1,keypress(m),500,343044.2999999998,343044.10000000056,337240.02,337250,337256.686,343052.162,8,400,36,,ISIC_6945634.JPG
break,html.Screen,4_35_1,2023-09-16T20:43:52.002Z,,0,,,NaN,,,,,,false,,,,343045.4000000004,343045.10000000056,,343044.60000000056,,343052.162,8,400,,,
break_continue,html.Screen,4_35_2,2023-09-16T20:43:52.002Z,,0,,,NaN,,,,,,false,,,,343045.7999999998,343045.7000000002,,343045.5,,343052.162,8,400,,,
sequence,flow.Sequence,4_35,2023-09-16T20:43:52.002Z,,0,,,5789.014000000199,completion,,,,,false,,,,343046,343045.7000000002,337240.02,337250,337256.686,343052.162,8,400,,,
trial,html.Screen,4_36_0,2023-09-16T20:43:56.695Z,,0,1,,4686.438000000548,response,ISIC_0032699.JPG,8,ISIC_0024701.JPG,ISIC_0032699.JPG,false,1,keypress(m),500,347738.9000000004,347738.60000000056,343035.496,343046.2000000002,343052.162,347751.974,8,400,37,,ISIC_0024701.JPG
break,html.Screen,4_36_1,2023-09-16T20:43:56.696Z,,0,,,NaN,,,,,,false,,,,347739.7999999998,347739.60000000056,,347739.2000000002,,347751.974,8,400,,,
break_continue,html.Screen,4_36_2,2023-09-16T20:43:56.697Z,,0,,,NaN,,,,,,false,,,,347740.2000000002,347740,,347739.9000000004,,347751.974,8,400,,,
sequence,flow.Sequence,4_36,2023-09-16T20:43:56.697Z,,0,,,4687.837999999989,completion,,,,,false,,,,347740.4000000004,347740,343035.496,343046.2000000002,343052.162,347751.974,8,400,,,
trial,html.Screen,4_37_0,2023-09-16T20:44:01.902Z,,0,1,,5193.526000000013,response,ISIC_0032204.JPG,6,ISIC_7262685.JPG,ISIC_7262685.JPG,false,0,keypress(z),500,352945.60000000056,352945.5,347735.308,347740.5,347751.974,352966.189,8,400,38,,ISIC_0032204.JPG
break,html.Screen,4_37_1,2023-09-16T20:44:01.903Z,,0,,,NaN,,,,,,false,,,,352946,352945.9000000004,,352945.7000000002,,352966.189,8,400,,,
break_continue,html.Screen,4_37_2,2023-09-16T20:44:01.903Z,,0,,,NaN,,,,,,false,,,,352946.2000000002,352946.10000000056,,352946,,352966.189,8,400,,,
sequence,flow.Sequence,4_37,2023-09-16T20:44:01.903Z,,0,,,5194.126000000571,completion,,,,,false,,,,352946.2999999998,352946.10000000056,347735.308,347740.5,347751.974,352966.189,8,400,,,
trial,html.Screen,4_38_0,2023-09-16T20:44:06.914Z,,0,1,,4991.110999999801,response,ISIC_0028488.JPG,7,ISIC_1484525.JPG,ISIC_1484525.JPG,false,0,keypress(z),500,357957.60000000056,357957.2999999998,352949.523,352946.4000000004,352966.189,357965.989,8,400,39,,ISIC_0028488.JPG
break,html.Screen,4_38_1,2023-09-16T20:44:06.915Z,,0,,,NaN,,,,,,false,,,,357958.5,357958.2999999998,,357957.7999999998,,357965.989,8,400,,,
break_continue,html.Screen,4_38_2,2023-09-16T20:44:06.916Z,,0,,,NaN,,,,,,false,,,,357958.9000000004,357958.7999999998,,357958.7000000002,,357965.989,8,400,,,
sequence,flow.Sequence,4_38,2023-09-16T20:44:06.916Z,,0,,,4992.610999999801,completion,,,,,false,,,,357959.10000000056,357958.7999999998,352949.523,352946.2999999998,352966.189,357965.989,8,400,,,
trial,html.Screen,4_39_0,2023-09-16T20:44:11.544Z,,0,1,,4620.611000000557,response,ISIC_8578732.JPG,6,ISIC_5820693.JPG,ISIC_5820693.JPG,false,0,keypress(z),500,362586.9000000004,362586.60000000056,357949.323,357959.2999999998,357965.989,362599.137,8,400,40,,ISIC_8578732.JPG
break,html.Screen,4_39_1,2023-09-16T20:44:11.545Z,,0,,,NaN,,,,,,false,,,,362587.7999999998,362587.60000000056,,362587.10000000056,,362599.137,8,400,,,
break_continue,html.Screen,4_39_2,2023-09-16T20:44:11.545Z,,0,,,NaN,,,,,,false,,,,362588.2999999998,362588.10000000056,,362588,,362599.137,8,400,,,
sequence,flow.Sequence,4_39,2023-09-16T20:44:11.545Z,,0,,,4622.111000000557,completion,,,,,false,,,,362588.4000000004,362588.10000000056,357949.323,357959.2000000002,357965.989,362599.137,8,400,,,
trial,html.Screen,4_40_0,2023-09-16T20:44:18.159Z,,0,1,,6602.863000000012,response,ISIC_0058501.JPG,7,ISIC_0000522.JPG,ISIC_0000522.JPG,false,0,keypress(z),500,369202.2999999998,369202,362582.471,362588.60000000056,362599.137,369213.311,8,400,41,,ISIC_0058501.JPG
break,html.Screen,4_40_1,2023-09-16T20:44:18.160Z,,0,,,NaN,,,,,,false,,,,369202.7000000002,369202.7000000002,,369202.4000000004,,369213.311,8,400,,,
break_continue,html.Screen,4_40_2,2023-09-16T20:44:18.160Z,,0,,,NaN,,,,,,false,,,,369203,369202.7999999998,,369202.7999999998,,369213.311,8,400,,,
sequence,flow.Sequence,4_40,2023-09-16T20:44:18.160Z,,0,,,6603.662999999826,completion,,,,,false,,,,369203.10000000056,369202.7999999998,362582.471,362588.60000000056,362599.137,369213.311,8,400,,,
trial,html.Screen,4_41_0,2023-09-16T20:44:23.779Z,,0,1,,5607.988999999827,response,ISIC_0057164.JPG,5,ISIC_0013778.JPG,ISIC_0013778.JPG,false,0,keypress(z),500,374821.60000000056,374821.2999999998,369196.645,369203.10000000056,369213.311,374832.558,8,400,42,,ISIC_0057164.JPG
break,html.Screen,4_41_1,2023-09-16T20:44:23.780Z,,0,,,NaN,,,,,,false,,,,374822.5,374822.2999999998,,374821.7999999998,,374832.558,8,400,,,
break_continue,html.Screen,4_41_2,2023-09-16T20:44:23.780Z,,0,,,NaN,,,,,,false,,,,374823,374822.7999999998,,374822.7000000002,,374832.558,8,400,,,
sequence,flow.Sequence,4_41,2023-09-16T20:44:23.780Z,,0,,,5609.488999999827,completion,,,,,false,,,,374823.2000000002,374822.7999999998,369196.645,369203.10000000056,369213.311,374832.558,8,400,,,
trial,html.Screen,4_42_0,2023-09-16T20:44:28.552Z,,0,1,,4762.04200000054,response,ISIC_0064964.JPG,7,ISIC_4873045.JPG,ISIC_0064964.JPG,false,1,keypress(m),500,379595,379594.60000000056,374815.892,374823.2999999998,374832.558,379599.034,8,400,43,,ISIC_4873045.JPG
break,html.Screen,4_42_1,2023-09-16T20:44:28.553Z,,0,,,NaN,,,,,,false,,,,379596,379595.7000000002,,379595.2999999998,,379599.034,8,400,,,
break_continue,html.Screen,4_42_2,2023-09-16T20:44:28.554Z,,0,,,NaN,,,,,,false,,,,379596.4000000004,379596.2999999998,,379596.10000000056,,379599.034,8,400,,,
sequence,flow.Sequence,4_42,2023-09-16T20:44:28.554Z,,0,,,4763.741999999795,completion,,,,,false,,,,379596.60000000056,379596.2999999998,374815.892,374823.2999999998,374832.558,379599.034,8,400,,,
trial,html.Screen,4_43_0,2023-09-16T20:44:34.926Z,,0,1,,6368.866000000387,response,ISIC_0011958.JPG,6,ISIC_0010746.JPG,ISIC_0011958.JPG,false,1,keypress(m),500,385968.2000000002,385967.9000000004,379582.368,379596.7999999998,379599.034,385973.976,8,400,44,,ISIC_0010746.JPG
break,html.Screen,4_43_1,2023-09-16T20:44:34.927Z,,0,,,NaN,,,,,,false,,,,385969.2999999998,385968.9000000004,,385968.5,,385973.976,8,400,,,
break_continue,html.Screen,4_43_2,2023-09-16T20:44:34.927Z,,0,,,NaN,,,,,,false,,,,385969.7000000002,385969.5,,385969.4000000004,,385973.976,8,400,,,
sequence,flow.Sequence,4_43,2023-09-16T20:44:34.927Z,,0,,,6370.466000000015,completion,,,,,false,,,,385969.7999999998,385969.5,379582.368,379596.7999999998,379599.034,385973.976,8,400,,,
trial,html.Screen,4_44_0,2023-09-16T20:44:40.499Z,,0,1,,5567.3239999997895,response,ISIC_0010108.JPG,6,ISIC_0024952.JPG,ISIC_0024952.JPG,false,0,keypress(z),500,391541.60000000056,391541.2999999998,385957.31,385970,385973.976,391557.086,8,400,45,,ISIC_0010108.JPG
break,html.Screen,4_44_1,2023-09-16T20:44:40.500Z,,0,,,NaN,,,,,,false,,,,391542.5,391542.2000000002,,391541.7999999998,,391557.086,8,400,,,
break_continue,html.Screen,4_44_2,2023-09-16T20:44:40.501Z,,0,,,NaN,,,,,,false,,,,391542.9000000004,391542.9000000004,,391542.60000000056,,391557.086,8,400,,,
sequence,flow.Sequence,4_44,2023-09-16T20:44:40.501Z,,0,,,5568.924000000348,completion,,,,,false,,,,391543.10000000056,391542.9000000004,385957.31,385970,385973.976,391557.086,8,400,,,
trial,html.Screen,4_45_0,2023-09-16T20:44:45.097Z,,0,1,,4581.614000000176,response,ISIC_0032089.JPG,6,ISIC_0010426.JPG,ISIC_0032089.JPG,false,1,keypress(m),500,396138.9000000004,396138.7000000002,391540.42,391543.2999999998,391557.086,396149.639,8,400,46,,ISIC_0010426.JPG
break,html.Screen,4_45_1,2023-09-16T20:44:45.098Z,,0,,,NaN,,,,,,false,,,,396139.7999999998,396139.60000000056,,396139.2000000002,,396149.639,8,400,,,
break_continue,html.Screen,4_45_2,2023-09-16T20:44:45.098Z,,0,,,NaN,,,,,,false,,,,396140.2999999998,396140.2000000002,,396140,,396149.639,8,400,,,
sequence,flow.Sequence,4_45,2023-09-16T20:44:45.098Z,,0,,,4583.114000000176,completion,,,,,false,,,,396140.5,396140.2000000002,391540.42,391543.2999999998,391557.086,396149.639,8,400,,,
trial,html.Screen,4_46_0,2023-09-16T20:44:50.234Z,,0,1,,5125.660999999789,response,ISIC_0029353.JPG,7,ISIC_0033016.JPG,ISIC_0033016.JPG,false,0,keypress(z),500,401275.60000000056,401275.2999999998,396132.973,396140.7000000002,396149.639,401282.767,8,400,47,,ISIC_0029353.JPG
break,html.Screen,4_46_1,2023-09-16T20:44:50.234Z,,0,,,NaN,,,,,,false,,,,401276.4000000004,401276.2000000002,,401275.9000000004,,401282.767,8,400,,,
break_continue,html.Screen,4_46_2,2023-09-16T20:44:50.235Z,,0,,,NaN,,,,,,false,,,,401276.7999999998,401276.7000000002,,401276.5,,401282.767,8,400,,,
sequence,flow.Sequence,4_46,2023-09-16T20:44:50.235Z,,0,,,5127.061000000162,completion,,,,,false,,,,401277,401276.7000000002,396132.973,396140.60000000056,396149.639,401282.767,8,400,,,
trial,html.Screen,4_47_0,2023-09-16T20:44:54.025Z,,0,1,,3783.8330000005662,response,ISIC_7885010.JPG,7,ISIC_4529363.JPG,ISIC_4529363.JPG,false,0,keypress(z),500,405066.9000000004,405066.60000000056,401266.101,401277.10000000056,401282.767,405082.615,8,400,48,,ISIC_7885010.JPG
break,html.Screen,4_47_1,2023-09-16T20:44:54.026Z,,0,,,NaN,,,,,,false,,,,405067.7999999998,405067.60000000056,,405067.10000000056,,405082.615,8,400,,,
break_continue,html.Screen,4_47_2,2023-09-16T20:44:54.026Z,,0,,,NaN,,,,,,false,,,,405068.2000000002,405068.10000000056,,405068,,405082.615,8,400,,,
sequence,flow.Sequence,4_47,2023-09-16T20:44:54.027Z,,0,,,3785.3330000005662,completion,,,,,false,,,,405068.5,405068.10000000056,401266.101,401277.10000000056,401282.767,405082.615,8,400,,,
trial,html.Screen,4_48_0,2023-09-16T20:45:03.226Z,,0,1,,9184.285000000382,response,ISIC_3356776.JPG,7,ISIC_8727731.JPG,ISIC_3356776.JPG,false,1,keypress(m),500,414267.2000000002,414266.9000000004,405065.949,405068.5,405082.615,414269.994,8,400,49,,ISIC_8727731.JPG
break,html.Screen,4_48_1,2023-09-16T20:45:03.226Z,,0,,,NaN,,,,,,false,,,,414268.10000000056,414267.7999999998,,414267.5,,414269.994,8,400,,,
break_continue,html.Screen,4_48_2,2023-09-16T20:45:03.227Z,,0,,,NaN,,,,,,false,,,,414268.60000000056,414268.4000000004,,414268.2999999998,,414269.994,8,400,,,
sequence,flow.Sequence,4_48,2023-09-16T20:45:03.227Z,,0,,,9185.785000000382,completion,,,,,false,,,,414268.7000000002,414268.4000000004,405065.949,405068.5,405082.615,414269.994,8,400,,,
trial,html.Screen,4_49_0,2023-09-16T20:45:07.209Z,,0,1,,3980.6060000005527,response,ISIC_3124612.JPG,6,ISIC_5971574.JPG,ISIC_5971574.JPG,false,0,keypress(z),500,418250.9000000004,418250.60000000056,414253.328,414268.9000000004,414269.994,418266.047,8,400,50,,ISIC_3124612.JPG
break,html.Screen,4_49_1,2023-09-16T20:45:17.209Z,,0,,,9997.65399999998,timeout,,,,,false,,,,428250.2000000002,428247.035,418249.381,418251.10000000056,418266.047,428263.701,8,400,,,
break_continue,html.Screen,4_49_2,2023-09-16T20:45:19.440Z,,0,,,2200.1990000003716,response,,,,,false,continue,keypress(Space),,430480.7999999998,430463.9000000004,428247.035,428250.2999999998,428263.701,430496.945,8,400,,,
sequence,flow.Sequence,4_49,2023-09-16T20:45:19.440Z,,0,,,16193.906000000366,completion,,,,,false,,,,430481,430463.9000000004,414253.328,414268.9000000004,414269.994,430496.945,8,400,,,
trial,html.Screen,4_50_0,2023-09-16T20:45:23.130Z,,0,2,,3673.4550000003655,response,ISIC_0595080.JPG,7,ISIC_0058647.JPG,ISIC_0595080.JPG,false,1,keypress(m),500,434170.7000000002,434170.4000000004,430480.279,430481.10000000056,430496.945,434180.131,8,400,1,,ISIC_0058647.JPG
break,html.Screen,4_50_1,2023-09-16T20:45:23.131Z,,0,,,NaN,,,,,,false,,,,434171.9000000004,434171.5,,434171.2000000002,,434180.131,8,400,,,
break_continue,html.Screen,4_50_2,2023-09-16T20:45:23.131Z,,0,,,NaN,,,,,,false,,,,434172.2999999998,434172.2000000002,,434172,,434180.131,8,400,,,
sequence,flow.Sequence,4_50,2023-09-16T20:45:23.131Z,,0,,,3675.2550000001793,completion,,,,,false,,,,434172.5,434172.2000000002,430480.279,430481.10000000056,430496.945,434180.131,8,400,,,
trial,html.Screen,4_51_0,2023-09-16T20:45:26.431Z,,0,2,,3291.869000000006,response,ISIC_0031070.JPG,7,ISIC_4023381.JPG,ISIC_4023381.JPG,false,0,keypress(z),500,437472.2999999998,437472,434163.465,434172.60000000056,434180.131,437479.999,8,400,2,,ISIC_0031070.JPG
break,html.Screen,4_51_1,2023-09-16T20:45:26.432Z,,0,,,NaN,,,,,,false,,,,437473.2000000002,437472.9000000004,,437472.5,,437479.999,8,400,,,
break_continue,html.Screen,4_51_2,2023-09-16T20:45:26.433Z,,0,,,NaN,,,,,,false,,,,437473.60000000056,437473.4000000004,,437473.2999999998,,437479.999,8,400,,,
sequence,flow.Sequence,4_51,2023-09-16T20:45:26.433Z,,0,,,3293.2690000003786,completion,,,,,false,,,,437473.7999999998,437473.4000000004,434163.465,434172.60000000056,434180.131,437479.999,8,400,,,
trial,html.Screen,4_52_0,2023-09-16T20:45:30.506Z,,0,2,,4066.300999999803,response,ISIC_6860222.JPG,6,ISIC_8298434.JPG,ISIC_6860222.JPG,false,1,keypress(m),500,441546.7000000002,441546.2999999998,437463.333,437474,437479.999,441563,8,400,3,,ISIC_8298434.JPG
break,html.Screen,4_52_1,2023-09-16T20:45:30.506Z,,0,,,NaN,,,,,,false,,,,441547.10000000056,441546.9000000004,,441546.7000000002,,441563,8,400,,,
break_continue,html.Screen,4_52_2,2023-09-16T20:45:30.506Z,,0,,,NaN,,,,,,false,,,,441547.2999999998,441547.2999999998,,441547.2000000002,,441563,8,400,,,
sequence,flow.Sequence,4_52,2023-09-16T20:45:30.507Z,,0,,,4067.300999999803,completion,,,,,false,,,,441547.5,441547.2999999998,437463.333,437473.9000000004,437479.999,441563,8,400,,,
trial,html.Screen,4_53_0,2023-09-16T20:45:33.903Z,,0,2,,3380.2000000001863,response,ISIC_0067808.JPG,8,ISIC_1859923.JPG,ISIC_1859923.JPG,false,0,keypress(z),500,444943.5,444943.2000000002,441546.334,441547.5,441563,444946.198,8,400,4,,ISIC_0067808.JPG
break,html.Screen,4_53_1,2023-09-16T20:45:33.904Z,,0,,,NaN,,,,,,false,,,,444944.7000000002,444944.4000000004,,444943.9000000004,,444946.198,8,400,,,
break_continue,html.Screen,4_53_2,2023-09-16T20:45:33.904Z,,0,,,NaN,,,,,,false,,,,444945.10000000056,444944.9000000004,,444944.7999999998,,444946.198,8,400,,,
sequence,flow.Sequence,4_53,2023-09-16T20:45:33.904Z,,0,,,3381.9000000003725,completion,,,,,false,,,,444945.2000000002,444944.9000000004,441546.334,441547.5,441563,444946.198,8,400,,,
trial,html.Screen,4_54_0,2023-09-16T20:45:37.221Z,,0,2,,3315.101999999839,response,ISIC_5992534.JPG,7,ISIC_0032624.JPG,ISIC_5992534.JPG,false,1,keypress(m),500,448261.60000000056,448261.2999999998,444929.532,444945.4000000004,444946.198,448262.732,8,400,5,,ISIC_0032624.JPG
break,html.Screen,4_54_1,2023-09-16T20:45:37.222Z,,0,,,NaN,,,,,,false,,,,448262.5,448262.2000000002,,448261.7999999998,,448262.732,8,400,,,
break_continue,html.Screen,4_54_2,2023-09-16T20:45:37.222Z,,0,,,NaN,,,,,,false,,,,448262.9000000004,448262.7000000002,,448262.60000000056,,448262.732,8,400,,,
sequence,flow.Sequence,4_54,2023-09-16T20:45:37.222Z,,0,,,3316.5020000002114,completion,,,,,false,,,,448263,448262.7000000002,444929.532,444945.4000000004,444946.198,448262.732,8,400,,,
trial,html.Screen,4_55_0,2023-09-16T20:45:40.234Z,,0,2,,3011.1680000003544,response,ISIC_0000551.JPG,7,ISIC_0887792.JPG,ISIC_0887792.JPG,false,0,keypress(z),500,451274.2000000002,451273.9000000004,448246.066,448263.2000000002,448262.732,451284.595,8,400,6,,ISIC_0000551.JPG
break,html.Screen,4_55_1,2023-09-16T20:45:40.234Z,,0,,,NaN,,,,,,false,,,,451275.10000000056,451274.9000000004,,451274.4000000004,,451284.595,8,400,,,
break_continue,html.Screen,4_55_2,2023-09-16T20:45:40.235Z,,0,,,NaN,,,,,,false,,,,451275.60000000056,451275.5,,451275.2999999998,,451284.595,8,400,,,
sequence,flow.Sequence,4_55,2023-09-16T20:45:40.235Z,,0,,,3012.767999999982,completion,,,,,false,,,,451275.7000000002,451275.5,448246.066,448263.2000000002,448262.732,451284.595,8,400,,,
trial,html.Screen,4_56_0,2023-09-16T20:45:43.552Z,,0,2,,3307.405000000028,response,ISIC_0026802.JPG,7,ISIC_5559730.JPG,ISIC_5559730.JPG,false,0,keypress(z),500,454592.2000000002,454592,451267.929,451275.7999999998,451284.595,454601.129,8,400,7,,ISIC_0026802.JPG
break,html.Screen,4_56_1,2023-09-16T20:45:43.553Z,,0,,,NaN,,,,,,false,,,,454593.2000000002,454592.9000000004,,454592.5,,454601.129,8,400,,,
break_continue,html.Screen,4_56_2,2023-09-16T20:45:43.553Z,,0,,,NaN,,,,,,false,,,,454593.60000000056,454593.4000000004,,454593.2999999998,,454601.129,8,400,,,
sequence,flow.Sequence,4_56,2023-09-16T20:45:43.553Z,,0,,,3308.8050000004005,completion,,,,,false,,,,454593.7000000002,454593.4000000004,451267.929,451275.7999999998,451284.595,454601.129,8,400,,,
trial,html.Screen,4_57_0,2023-09-16T20:45:47.115Z,,0,2,,3553.9710000005434,response,ISIC_7342636.JPG,7,ISIC_9041897.JPG,ISIC_9041897.JPG,false,0,keypress(z),500,458155.4000000004,458155.10000000056,454584.463,454593.9000000004,454601.129,458184.319,8,400,8,,ISIC_7342636.JPG
break,html.Screen,4_57_1,2023-09-16T20:45:47.116Z,,0,,,NaN,,,,,,false,,,,458156.10000000056,458155.9000000004,,458155.7000000002,,458184.319,8,400,,,
break_continue,html.Screen,4_57_2,2023-09-16T20:45:47.116Z,,0,,,NaN,,,,,,false,,,,458156.5,458156.4000000004,,458156.2999999998,,458184.319,8,400,,,
sequence,flow.Sequence,4_57,2023-09-16T20:45:47.116Z,,0,,,3555.271000000357,completion,,,,,false,,,,458156.7000000002,458156.4000000004,454584.463,454593.7999999998,454601.129,458184.319,8,400,,,
trial,html.Screen,4_58_0,2023-09-16T20:45:50.480Z,,0,2,,3335.6809999999823,response,ISIC_0641173.JPG,6,ISIC_5623844.JPG,ISIC_0641173.JPG,false,1,keypress(m),500,461520.2999999998,461520,458167.653,458156.9000000004,458184.319,461536.083,8,400,9,,ISIC_5623844.JPG
break,html.Screen,4_58_1,2023-09-16T20:45:50.481Z,,0,,,NaN,,,,,,false,,,,461521.10000000056,461520.9000000004,,461520.5,,461536.083,8,400,,,
break_continue,html.Screen,4_58_2,2023-09-16T20:45:50.481Z,,0,,,NaN,,,,,,false,,,,461521.60000000056,461521.4000000004,,461521.2999999998,,461536.083,8,400,,,
sequence,flow.Sequence,4_58,2023-09-16T20:45:50.481Z,,0,,,3337.081000000355,completion,,,,,false,,,,461521.7000000002,461521.4000000004,458167.653,458156.9000000004,458184.319,461536.083,8,400,,,
trial,html.Screen,4_59_0,2023-09-16T20:45:55.557Z,,0,2,,5061.21699999983,response,ISIC_1589997.JPG,7,ISIC_3094758.JPG,ISIC_1589997.JPG,false,1,keypress(m),500,466597.60000000056,466597.2999999998,461519.417,461521.9000000004,461536.083,466602.547,8,400,10,,ISIC_3094758.JPG
break,html.Screen,4_59_1,2023-09-16T20:45:55.558Z,,0,,,NaN,,,,,,false,,,,466598.5,466598.2000000002,,466597.7999999998,,466602.547,8,400,,,
break_continue,html.Screen,4_59_2,2023-09-16T20:45:55.559Z,,0,,,NaN,,,,,,false,,,,466598.7999999998,466598.7999999998,,466598.60000000056,,466602.547,8,400,,,
sequence,flow.Sequence,4_59,2023-09-16T20:45:55.559Z,,0,,,5062.71699999983,completion,,,,,false,,,,466599.2000000002,466598.7999999998,461519.417,461521.9000000004,461536.083,466602.547,8,400,,,
trial,html.Screen,4_60_0,2023-09-16T20:46:03.205Z,,0,2,,7642.053000000538,response,ISIC_7508320.JPG,6,ISIC_0056063.JPG,ISIC_0056063.JPG,false,0,keypress(z),500,474244.7999999998,474244.60000000056,466585.881,466599.4000000004,466602.547,474251.923,8,400,11,,ISIC_7508320.JPG
break,html.Screen,4_60_1,2023-09-16T20:46:03.206Z,,0,,,NaN,,,,,,false,,,,474245.7000000002,474245.5,,474245.10000000056,,474251.923,8,400,,,
break_continue,html.Screen,4_60_2,2023-09-16T20:46:03.206Z,,0,,,NaN,,,,,,false,,,,474246.2000000002,474246.10000000056,,474245.9000000004,,474251.923,8,400,,,
sequence,flow.Sequence,4_60,2023-09-16T20:46:03.206Z,,0,,,7643.553000000538,completion,,,,,false,,,,474246.4000000004,474246.10000000056,466585.881,466599.2000000002,466602.547,474251.923,8,400,,,
trial,html.Screen,4_61_0,2023-09-16T20:46:07.732Z,,0,2,,4519.57699999999,response,ISIC_0061336.JPG,8,ISIC_7526530.JPG,ISIC_7526530.JPG,false,0,keypress(z),500,478771.7999999998,478771.5,474235.257,474246.5,474251.923,478785.075,8,400,12,,ISIC_0061336.JPG
break,html.Screen,4_61_1,2023-09-16T20:46:07.733Z,,0,,,NaN,,,,,,false,,,,478772.7999999998,478772.4000000004,,478772.10000000056,,478785.075,8,400,,,
break_continue,html.Screen,4_61_2,2023-09-16T20:46:07.733Z,,0,,,NaN,,,,,,false,,,,478773.10000000056,478773,,478772.7999999998,,478785.075,8,400,,,
sequence,flow.Sequence,4_61,2023-09-16T20:46:07.734Z,,0,,,4521.07699999999,completion,,,,,false,,,,478773.4000000004,478773,474235.257,474246.5,474251.923,478785.075,8,400,,,
trial,html.Screen,4_62_0,2023-09-16T20:46:12.523Z,,0,2,,4777.125000000175,response,ISIC_7563744.JPG,8,ISIC_0063516.JPG,ISIC_7563744.JPG,false,1,keypress(m),500,483562.60000000056,483562.2000000002,478768.409,478773.5,478785.075,483567.394,8,400,13,,ISIC_0063516.JPG
break,html.Screen,4_62_1,2023-09-16T20:46:12.524Z,,0,,,NaN,,,,,,false,,,,483563.5,483563.2000000002,,483562.7999999998,,483567.394,8,400,,,
break_continue,html.Screen,4_62_2,2023-09-16T20:46:12.524Z,,0,,,NaN,,,,,,false,,,,483563.9000000004,483563.7000000002,,483563.60000000056,,483567.394,8,400,,,
sequence,flow.Sequence,4_62,2023-09-16T20:46:12.524Z,,0,,,4778.625000000175,completion,,,,,false,,,,483564.2000000002,483563.7000000002,478768.409,478773.5,478785.075,483567.394,8,400,,,
trial,html.Screen,4_63_0,2023-09-16T20:46:16.497Z,,0,2,,3968.5060000004014,response,ISIC_0028087.JPG,7,ISIC_0030443.JPG,ISIC_0028087.JPG,false,1,keypress(m),500,487536.2000000002,487535.9000000004,483550.728,483564.2000000002,483567.394,487550.568,8,400,14,,ISIC_0030443.JPG
break,html.Screen,4_63_1,2023-09-16T20:46:16.498Z,,0,,,NaN,,,,,,false,,,,487537.10000000056,487536.7999999998,,487536.4000000004,,487550.568,8,400,,,
break_continue,html.Screen,4_63_2,2023-09-16T20:46:16.498Z,,0,,,NaN,,,,,,false,,,,487537.5,487537.4000000004,,487537.2999999998,,487550.568,8,400,,,
sequence,flow.Sequence,4_63,2023-09-16T20:46:16.498Z,,0,,,3970.0060000004014,completion,,,,,false,,,,487537.7000000002,487537.4000000004,483550.728,483564.2000000002,483567.394,487550.568,8,400,,,
trial,html.Screen,4_64_0,2023-09-16T20:46:19.990Z,,0,2,,3478.7319999997853,response,ISIC_0620587.JPG,5,ISIC_1601532.JPG,ISIC_0620587.JPG,false,1,keypress(m),500,491029.5,491029.2999999998,487533.902,487537.9000000004,487550.568,491033.762,8,400,15,,ISIC_1601532.JPG
break,html.Screen,4_64_1,2023-09-16T20:46:19.991Z,,0,,,NaN,,,,,,false,,,,491030.5,491030.2000000002,,491029.7999999998,,491033.762,8,400,,,
break_continue,html.Screen,4_64_2,2023-09-16T20:46:19.991Z,,0,,,NaN,,,,,,false,,,,491030.7999999998,491030.7999999998,,491030.7000000002,,491033.762,8,400,,,
sequence,flow.Sequence,4_64,2023-09-16T20:46:19.992Z,,0,,,3480.2319999997853,completion,,,,,false,,,,491031,491030.7999999998,487533.902,487537.9000000004,487550.568,491033.762,8,400,,,
trial,html.Screen,4_65_0,2023-09-16T20:46:23.339Z,,0,2,,3344.838000000571,response,ISIC_4619903.JPG,7,ISIC_0012082.JPG,ISIC_4619903.JPG,false,1,keypress(m),500,494378.9000000004,494378.60000000056,491017.096,491031.2000000002,491033.762,494396.17,8,400,16,,ISIC_0012082.JPG
break,html.Screen,4_65_1,2023-09-16T20:46:23.340Z,,0,,,NaN,,,,,,false,,,,494379.7999999998,494379.5,,494379.10000000056,,494396.17,8,400,,,
break_continue,html.Screen,4_65_2,2023-09-16T20:46:23.341Z,,0,,,NaN,,,,,,false,,,,494380.2999999998,494380.10000000056,,494380,,494396.17,8,400,,,
sequence,flow.Sequence,4_65,2023-09-16T20:46:23.341Z,,0,,,3346.338000000571,completion,,,,,false,,,,494380.4000000004,494380.10000000056,491017.096,491031.2000000002,491033.762,494396.17,8,400,,,
trial,html.Screen,4_66_0,2023-09-16T20:46:29.458Z,,0,2,,6100.930000000575,response,ISIC_9732721.JPG,6,ISIC_3521671.JPG,ISIC_3521671.JPG,false,0,keypress(z),500,500497.4000000004,500497.10000000056,494379.504,494380.5,494396.17,500512.592,8,400,17,,ISIC_9732721.JPG
break,html.Screen,4_66_1,2023-09-16T20:46:29.459Z,,0,,,NaN,,,,,,false,,,,500498.2999999998,500498.10000000056,,500497.7000000002,,500512.592,8,400,,,
break_continue,html.Screen,4_66_2,2023-09-16T20:46:29.459Z,,0,,,NaN,,,,,,false,,,,500498.7000000002,500498.5,,500498.4000000004,,500512.592,8,400,,,
sequence,flow.Sequence,4_66,2023-09-16T20:46:29.460Z,,0,,,6102.330000000016,completion,,,,,false,,,,500498.9000000004,500498.5,494379.504,494380.5,494396.17,500512.592,8,400,,,
trial,html.Screen,4_67_0,2023-09-16T20:46:33.148Z,,0,2,,3673.8080000003683,response,ISIC_5324623.JPG,5,ISIC_7505369.JPG,ISIC_7505369.JPG,false,0,keypress(z),500,504186.7999999998,504186.4000000004,500495.926,500499.10000000056,500512.592,504194.348,8,400,18,,ISIC_5324623.JPG
break,html.Screen,4_67_1,2023-09-16T20:46:33.149Z,,0,,,NaN,,,,,,false,,,,504187.60000000056,504187.4000000004,,504187,,504194.348,8,400,,,
break_continue,html.Screen,4_67_2,2023-09-16T20:46:33.149Z,,0,,,NaN,,,,,,false,,,,504188,504187.9000000004,,504187.7999999998,,504194.348,8,400,,,
sequence,flow.Sequence,4_67,2023-09-16T20:46:33.149Z,,0,,,3675.3080000003683,completion,,,,,false,,,,504188.2999999998,504187.9000000004,500495.926,500499,500512.592,504194.348,8,400,,,
trial,html.Screen,4_68_0,2023-09-16T20:46:36.417Z,,0,2,,3261.652000000002,response,ISIC_4882123.JPG,7,ISIC_0026889.JPG,ISIC_0026889.JPG,false,0,keypress(z),500,507456.2000000002,507456,504177.682,504188.4000000004,504194.348,507460.884,8,400,19,,ISIC_4882123.JPG
break,html.Screen,4_68_1,2023-09-16T20:46:36.418Z,,0,,,NaN,,,,,,false,,,,507457.10000000056,507456.9000000004,,507456.5,,507460.884,8,400,,,
break_continue,html.Screen,4_68_2,2023-09-16T20:46:36.419Z,,0,,,NaN,,,,,,false,,,,507457.5,507457.4000000004,,507457.2999999998,,507460.884,8,400,,,
sequence,flow.Sequence,4_68,2023-09-16T20:46:36.419Z,,0,,,3263.0520000003744,completion,,,,,false,,,,507457.7999999998,507457.4000000004,504177.682,504188.4000000004,504194.348,507460.884,8,400,,,
trial,html.Screen,4_69_0,2023-09-16T20:46:39.596Z,,0,2,,3173.61599999998,response,ISIC_0030929.JPG,6,ISIC_0031985.JPG,ISIC_0031985.JPG,false,0,keypress(z),500,510634.7999999998,510634.5,507444.218,507457.9000000004,507460.884,510644.09,8,400,20,,ISIC_0030929.JPG
break,html.Screen,4_69_1,2023-09-16T20:46:39.597Z,,0,,,NaN,,,,,,false,,,,510635.7000000002,510635.4000000004,,510635,,510644.09,8,400,,,
break_continue,html.Screen,4_69_2,2023-09-16T20:46:39.597Z,,0,,,NaN,,,,,,false,,,,510636.2000000002,510635.9000000004,,510635.9000000004,,510644.09,8,400,,,
sequence,flow.Sequence,4_69,2023-09-16T20:46:39.597Z,,0,,,3175.0160000003525,completion,,,,,false,,,,510636.2999999998,510635.9000000004,507444.218,507457.9000000004,507460.884,510644.09,8,400,,,
trial,html.Screen,4_70_0,2023-09-16T20:46:43.969Z,,0,2,,4363.909999999974,response,ISIC_6945634.JPG,7,ISIC_4930632.JPG,ISIC_4930632.JPG,false,0,keypress(z),500,515008.2000000002,515008,510627.424,510636.5,510644.09,515025.347,8,400,21,,ISIC_6945634.JPG
break,html.Screen,4_70_1,2023-09-16T20:46:43.970Z,,0,,,NaN,,,,,,false,,,,515009.2000000002,515008.9000000004,,515008.5,,515025.347,8,400,,,
break_continue,html.Screen,4_70_2,2023-09-16T20:46:43.971Z,,0,,,NaN,,,,,,false,,,,515009.60000000056,515009.4000000004,,515009.2999999998,,515025.347,8,400,,,
sequence,flow.Sequence,4_70,2023-09-16T20:46:43.971Z,,0,,,4365.310000000347,completion,,,,,false,,,,515009.7000000002,515009.4000000004,510627.424,510636.4000000004,510644.09,515025.347,8,400,,,
trial,html.Screen,4_71_0,2023-09-16T20:46:48.332Z,,0,2,,4345.152999999991,response,ISIC_0032597.JPG,6,ISIC_7334117.JPG,ISIC_7334117.JPG,false,0,keypress(z),500,519370.7000000002,519370.5,515008.681,515009.9000000004,515025.347,519375.173,8,400,22,,ISIC_0032597.JPG
break,html.Screen,4_71_1,2023-09-16T20:46:48.333Z,,0,,,NaN,,,,,,false,,,,519371.60000000056,519371.4000000004,,519371,,519375.173,8,400,,,
break_continue,html.Screen,4_71_2,2023-09-16T20:46:48.333Z,,0,,,NaN,,,,,,false,,,,519372.10000000056,519372,,519371.7999999998,,519375.173,8,400,,,
sequence,flow.Sequence,4_71,2023-09-16T20:46:48.334Z,,0,,,4346.652999999991,completion,,,,,false,,,,519372.2999999998,519372,515008.681,515009.9000000004,515025.347,519375.173,8,400,,,
trial,html.Screen,4_72_0,2023-09-16T20:46:52.364Z,,0,2,,4027.427000000549,response,ISIC_4294705.JPG,5,ISIC_2854303.JPG,ISIC_4294705.JPG,false,1,keypress(m),500,523402.7999999998,523402.60000000056,519358.507,519372.4000000004,519375.173,523408.345,8,400,23,,ISIC_2854303.JPG
break,html.Screen,4_72_1,2023-09-16T20:46:52.365Z,,0,,,NaN,,,,,,false,,,,523403.7999999998,523403.5,,523403.10000000056,,523408.345,8,400,,,
break_continue,html.Screen,4_72_2,2023-09-16T20:46:52.366Z,,0,,,NaN,,,,,,false,,,,523404.2000000002,523404.10000000056,,523403.9000000004,,523408.345,8,400,,,
sequence,flow.Sequence,4_72,2023-09-16T20:46:52.366Z,,0,,,4028.927000000549,completion,,,,,false,,,,523404.2999999998,523404.10000000056,519358.507,519372.4000000004,519375.173,523408.345,8,400,,,
trial,html.Screen,4_73_0,2023-09-16T20:46:55.956Z,,0,2,,3586.2550000005867,response,ISIC_4161113.JPG,6,ISIC_5400609.JPG,ISIC_4161113.JPG,false,1,keypress(m),500,526994.7999999998,526994.6000000006,523391.679,523404.5,523408.345,526998.638,8,400,24,,ISIC_5400609.JPG
break,html.Screen,4_73_1,2023-09-16T20:46:55.957Z,,0,,,NaN,,,,,,false,,,,526995.7999999998,526995.5,,526995.1000000006,,526998.638,8,400,,,
break_continue,html.Screen,4_73_2,2023-09-16T20:46:55.958Z,,0,,,NaN,,,,,,false,,,,526996.2999999998,526996,,526996,,526998.638,8,400,,,
sequence,flow.Sequence,4_73,2023-09-16T20:46:55.958Z,,0,,,3587.655000000028,completion,,,,,false,,,,526996.4000000004,526996,523391.679,523404.5,523408.345,526998.638,8,400,,,
trial,html.Screen,4_74_0,2023-09-16T20:47:01.996Z,,0,2,,6035.161999999778,response,ISIC_3485482.JPG,8,ISIC_1758558.JPG,ISIC_1758558.JPG,false,0,keypress(z),500,533034,533033.7999999998,526981.972,526996.5,526998.638,533048.396,8,400,25,,ISIC_3485482.JPG
break,html.Screen,4_74_1,2023-09-16T20:47:01.997Z,,0,,,NaN,,,,,,false,,,,533034.9000000004,533034.7000000002,,533034.2999999998,,533048.396,8,400,,,
break_continue,html.Screen,4_74_2,2023-09-16T20:47:01.997Z,,0,,,NaN,,,,,,false,,,,533035.4000000004,533035.2999999998,,533035.2000000002,,533048.396,8,400,,,
sequence,flow.Sequence,4_74,2023-09-16T20:47:01.997Z,,0,,,6036.661999999778,completion,,,,,false,,,,533035.6000000006,533035.2999999998,526981.972,526996.5,526998.638,533048.396,8,400,,,
trial,html.Screen,4_75_0,2023-09-16T20:47:05.613Z,,0,2,,3602.204000000609,response,ISIC_2860618.JPG,8,ISIC_4377208.JPG,ISIC_2860618.JPG,false,1,keypress(m),500,536650.9000000004,536650.6000000006,533031.73,533035.7000000002,533048.396,536652.992,8,400,26,,ISIC_4377208.JPG
break,html.Screen,4_75_1,2023-09-16T20:47:05.614Z,,0,,,NaN,,,,,,false,,,,536651.7000000002,536651.5,,536651.1000000006,,536652.992,8,400,,,
break_continue,html.Screen,4_75_2,2023-09-16T20:47:05.614Z,,0,,,NaN,,,,,,false,,,,536652.2000000002,536652.1000000006,,536651.9000000004,,536652.992,8,400,,,
sequence,flow.Sequence,4_75,2023-09-16T20:47:05.614Z,,0,,,3603.704000000609,completion,,,,,false,,,,536652.4000000004,536652.1000000006,533031.73,533035.6000000006,533048.396,536652.992,8,400,,,
trial,html.Screen,4_76_0,2023-09-16T20:47:09.245Z,,0,2,,3629.5080000000307,response,ISIC_3249704.JPG,7,ISIC_5754023.JPG,ISIC_5754023.JPG,false,0,keypress(z),500,540282.7999999998,540282.5,536636.326,536652.5,536652.992,540286.18,8,400,27,,ISIC_3249704.JPG
break,html.Screen,4_76_1,2023-09-16T20:47:09.246Z,,0,,,NaN,,,,,,false,,,,540283.7999999998,540283.5,,540283.1000000006,,540286.18,8,400,,,
break_continue,html.Screen,4_76_2,2023-09-16T20:47:09.246Z,,0,,,NaN,,,,,,false,,,,540284.2000000002,540284.1000000006,,540284,,540286.18,8,400,,,
sequence,flow.Sequence,4_76,2023-09-16T20:47:09.246Z,,0,,,3631.1080000005895,completion,,,,,false,,,,540284.4000000004,540284.1000000006,536636.326,536652.5,536652.992,540286.18,8,400,,,
trial,html.Screen,4_77_0,2023-09-16T20:47:12.885Z,,0,2,,3636.4200000005076,response,ISIC_0046671.JPG,6,ISIC_9957389.JPG,ISIC_9957389.JPG,false,0,keypress(z),500,543922.9000000004,543922.6000000006,540269.514,540284.5,540286.18,543936.034,8,400,28,,ISIC_0046671.JPG
break,html.Screen,4_77_1,2023-09-16T20:47:12.886Z,,0,,,NaN,,,,,,false,,,,543923.7999999998,543923.5,,543923.1000000006,,543936.034,8,400,,,
break_continue,html.Screen,4_77_2,2023-09-16T20:47:12.886Z,,0,,,NaN,,,,,,false,,,,543924.2000000002,543924.1000000006,,543924,,543936.034,8,400,,,
sequence,flow.Sequence,4_77,2023-09-16T20:47:12.886Z,,0,,,3637.9200000005076,completion,,,,,false,,,,543924.4000000004,543924.1000000006,540269.514,540284.5,540286.18,543936.034,8,400,,,
trial,html.Screen,4_78_0,2023-09-16T20:47:16.572Z,,0,2,,3673.966000000015,response,ISIC_0027265.JPG,8,ISIC_7489895.JPG,ISIC_7489895.JPG,false,0,keypress(z),500,547610.4000000004,547610,543919.368,543924.6000000006,543936.034,547628.435,8,400,29,,ISIC_0027265.JPG
break,html.Screen,4_78_1,2023-09-16T20:47:16.573Z,,0,,,NaN,,,,,,false,,,,547611.2000000002,547611.1000000006,,547610.6000000006,,547628.435,8,400,,,
break_continue,html.Screen,4_78_2,2023-09-16T20:47:16.574Z,,0,,,NaN,,,,,,false,,,,547611.7000000002,547611.5,,547611.5,,547628.435,8,400,,,
sequence,flow.Sequence,4_78,2023-09-16T20:47:16.574Z,,0,,,3675.466000000015,completion,,,,,false,,,,547611.9000000004,547611.5,543919.368,543924.5,543936.034,547628.435,8,400,,,
trial,html.Screen,4_79_0,2023-09-16T20:47:21.922Z,,0,2,,5331.564999999944,response,ISIC_0610849.JPG,7,ISIC_2151856.JPG,ISIC_2151856.JPG,false,0,keypress(z),500,552960.2000000002,552960,547611.769,547612,547628.435,552961.555,8,400,30,,ISIC_0610849.JPG
break,html.Screen,4_79_1,2023-09-16T20:47:21.923Z,,0,,,NaN,,,,,,false,,,,552961.2000000002,552960.9000000004,,552960.5,,552961.555,8,400,,,
break_continue,html.Screen,4_79_2,2023-09-16T20:47:21.924Z,,0,,,NaN,,,,,,false,,,,552961.5,552961.5,,552961.2999999998,,552961.555,8,400,,,
sequence,flow.Sequence,4_79,2023-09-16T20:47:21.924Z,,0,,,5333.064999999944,completion,,,,,false,,,,552961.7000000002,552961.5,547611.769,547611.9000000004,547628.435,552961.555,8,400,,,
trial,html.Screen,4_80_0,2023-09-16T20:47:25.944Z,,0,2,,4019.7449999997625,response,ISIC_1470934.JPG,6,ISIC_0029021.JPG,ISIC_1470934.JPG,false,1,keypress(m),500,556981.6000000006,556981.2999999998,552944.889,552961.9000000004,552961.555,556998.633,8,400,31,,ISIC_0029021.JPG
break,html.Screen,4_80_1,2023-09-16T20:47:25.945Z,,0,,,NaN,,,,,,false,,,,556982.4000000004,556982.2999999998,,556981.7999999998,,556998.633,8,400,,,
break_continue,html.Screen,4_80_2,2023-09-16T20:47:25.945Z,,0,,,NaN,,,,,,false,,,,556982.9000000004,556982.7000000002,,556982.6000000006,,556998.633,8,400,,,
sequence,flow.Sequence,4_80,2023-09-16T20:47:25.945Z,,0,,,4021.145000000135,completion,,,,,false,,,,556983.1000000006,556982.7000000002,552944.889,552961.7999999998,552961.555,556998.633,8,400,,,
trial,html.Screen,4_81_0,2023-09-16T20:47:29.574Z,,0,2,,3612.8669999999693,response,ISIC_9989936.JPG,7,ISIC_0033232.JPG,ISIC_9989936.JPG,false,1,keypress(m),500,560611.7999999998,560611.5,556981.967,556983.2999999998,556998.633,560615.155,8,400,32,,ISIC_0033232.JPG
break,html.Screen,4_81_1,2023-09-16T20:47:29.575Z,,0,,,NaN,,,,,,false,,,,560612.7000000002,560612.4000000004,,560612.1000000006,,560615.155,8,400,,,
break_continue,html.Screen,4_81_2,2023-09-16T20:47:29.576Z,,0,,,NaN,,,,,,false,,,,560613.1000000006,560613,,560612.7999999998,,560615.155,8,400,,,
sequence,flow.Sequence,4_81,2023-09-16T20:47:29.576Z,,0,,,3614.3669999999693,completion,,,,,false,,,,560613.4000000004,560613,556981.967,556983.2000000002,556998.633,560615.155,8,400,,,
trial,html.Screen,4_82_0,2023-09-16T20:47:35.335Z,,0,2,,5756.844999999972,response,ISIC_9050826.JPG,8,ISIC_0028788.JPG,ISIC_9050826.JPG,false,1,keypress(m),500,566372.2000000002,566372,560598.489,560613.5,560615.155,566381.591,8,400,33,,ISIC_0028788.JPG
break,html.Screen,4_82_1,2023-09-16T20:47:35.336Z,,0,,,NaN,,,,,,false,,,,566373.2000000002,566372.9000000004,,566372.5,,566381.591,8,400,,,
break_continue,html.Screen,4_82_2,2023-09-16T20:47:35.336Z,,0,,,NaN,,,,,,false,,,,566373.7000000002,566373.5,,566373.2999999998,,566381.591,8,400,,,
sequence,flow.Sequence,4_82,2023-09-16T20:47:35.336Z,,0,,,5758.344999999972,completion,,,,,false,,,,566373.9000000004,566373.5,560598.489,560613.5,560615.155,566381.591,8,400,,,
trial,html.Screen,4_83_0,2023-09-16T20:47:38.942Z,,0,2,,3597.1090000001714,response,ISIC_4936662.JPG,8,ISIC_6590303.JPG,ISIC_6590303.JPG,false,0,keypress(z),500,569979,569978.7000000002,566364.925,566374,566381.591,569985.431,8,400,34,,ISIC_4936662.JPG
break,html.Screen,4_83_1,2023-09-16T20:47:38.943Z,,0,,,NaN,,,,,,false,,,,569979.7999999998,569979.7000000002,,569979.2000000002,,569985.431,8,400,,,
break_continue,html.Screen,4_83_2,2023-09-16T20:47:38.943Z,,0,,,NaN,,,,,,false,,,,569980.2999999998,569980.2000000002,,569980,,569985.431,8,400,,,
sequence,flow.Sequence,4_83,2023-09-16T20:47:38.943Z,,0,,,3598.6090000001714,completion,,,,,false,,,,569980.5,569980.2000000002,566364.925,566374,566381.591,569985.431,8,400,,,
trial,html.Screen,4_84_0,2023-09-16T20:47:42.850Z,,0,2,,3901.0690000000177,response,ISIC_0010761.JPG,7,ISIC_0013184.JPG,ISIC_0013184.JPG,false,0,keypress(z),500,573886.7999999998,573886.5,569968.765,569980.7000000002,569985.431,573901.941,8,400,35,,ISIC_0010761.JPG
break,html.Screen,4_84_1,2023-09-16T20:47:42.850Z,,0,,,NaN,,,,,,false,,,,573887.7000000002,573887.4000000004,,573887,,573901.941,8,400,,,
break_continue,html.Screen,4_84_2,2023-09-16T20:47:42.851Z,,0,,,NaN,,,,,,false,,,,573888.2000000002,573888,,573887.7999999998,,573901.941,8,400,,,
sequence,flow.Sequence,4_84,2023-09-16T20:47:42.851Z,,0,,,3902.5690000000177,completion,,,,,false,,,,573888.4000000004,573888,569968.765,569980.5,569985.431,573901.941,8,400,,,
trial,html.Screen,4_85_0,2023-09-16T20:47:46.840Z,,0,2,,3974.858999999822,response,ISIC_7839712.JPG,8,ISIC_3899323.JPG,ISIC_3899323.JPG,false,0,keypress(z),500,577877,577876.7999999998,573885.275,573888.5,573901.941,577893.896,8,400,36,,ISIC_7839712.JPG
break,html.Screen,4_85_1,2023-09-16T20:47:46.841Z,,0,,,NaN,,,,,,false,,,,577877.7999999998,577877.6000000006,,577877.2000000002,,577893.896,8,400,,,
break_continue,html.Screen,4_85_2,2023-09-16T20:47:46.841Z,,0,,,NaN,,,,,,false,,,,577878.2999999998,577878.2000000002,,577878,,577893.896,8,400,,,
sequence,flow.Sequence,4_85,2023-09-16T20:47:46.841Z,,0,,,3976.2590000001946,completion,,,,,false,,,,577878.4000000004,577878.2000000002,573885.275,573888.5,573901.941,577893.896,8,400,,,
trial,html.Screen,4_86_0,2023-09-16T20:47:50.478Z,,0,2,,3620.704000000609,response,ISIC_0062734.JPG,7,ISIC_0770920.JPG,ISIC_0062734.JPG,false,1,keypress(m),500,581514.9000000004,581514.6000000006,577877.23,577878.6000000006,577893.896,581527.084,8,400,37,,ISIC_0770920.JPG
break,html.Screen,4_86_1,2023-09-16T20:47:50.479Z,,0,,,NaN,,,,,,false,,,,581515.7000000002,581515.5,,581515.1000000006,,581527.084,8,400,,,
break_continue,html.Screen,4_86_2,2023-09-16T20:47:50.479Z,,0,,,NaN,,,,,,false,,,,581516.2000000002,581516,,581515.9000000004,,581527.084,8,400,,,
sequence,flow.Sequence,4_86,2023-09-16T20:47:50.479Z,,0,,,3622.1040000000503,completion,,,,,false,,,,581516.2999999998,581516,577877.23,577878.6000000006,577893.896,581527.084,8,400,,,
trial,html.Screen,4_87_0,2023-09-16T20:47:54.914Z,,0,2,,4423.116000000155,response,ISIC_4548632.JPG,8,ISIC_1560272.JPG,ISIC_4548632.JPG,false,1,keypress(m),500,585950.5,585950.2000000002,581510.418,581516.5,581527.084,585960.24,8,400,38,,ISIC_1560272.JPG
break,html.Screen,4_87_1,2023-09-16T20:47:54.914Z,,0,,,NaN,,,,,,false,,,,585951.2999999998,585951.1000000006,,585950.6000000006,,585960.24,8,400,,,
break_continue,html.Screen,4_87_2,2023-09-16T20:47:54.915Z,,0,,,NaN,,,,,,false,,,,585951.6000000006,585951.5,,585951.4000000004,,585960.24,8,400,,,
sequence,flow.Sequence,4_87,2023-09-16T20:47:54.915Z,,0,,,4424.415999999968,completion,,,,,false,,,,585951.7999999998,585951.5,581510.418,581516.5,581527.084,585960.24,8,400,,,
trial,html.Screen,4_88_0,2023-09-16T20:47:59.262Z,,0,2,,4338.559999999823,response,ISIC_5015378.JPG,7,ISIC_0071132.JPG,ISIC_5015378.JPG,false,1,keypress(m),500,590299.1000000006,590298.7999999998,585943.574,585951.9000000004,585960.24,590313.852,8,400,39,,ISIC_0071132.JPG
break,html.Screen,4_88_1,2023-09-16T20:47:59.263Z,,0,,,NaN,,,,,,false,,,,590300,590299.7000000002,,590299.2999999998,,590313.852,8,400,,,
break_continue,html.Screen,4_88_2,2023-09-16T20:47:59.264Z,,0,,,NaN,,,,,,false,,,,590300.4000000004,590300.2000000002,,590300.1000000006,,590313.852,8,400,,,
sequence,flow.Sequence,4_88,2023-09-16T20:47:59.264Z,,0,,,4339.960000000196,completion,,,,,false,,,,590300.6000000006,590300.2000000002,585943.574,585951.9000000004,585960.24,590313.852,8,400,,,
trial,html.Screen,4_89_0,2023-09-16T20:48:04.950Z,,0,2,,5672.7480000006035,response,ISIC_1205826.JPG,6,ISIC_0633835.JPG,ISIC_1205826.JPG,false,1,keypress(m),500,595986.9000000004,595986.6000000006,590297.186,590300.6000000006,590313.852,596013.624,8,400,40,,ISIC_0633835.JPG
break,html.Screen,4_89_1,2023-09-16T20:48:04.951Z,,0,,,NaN,,,,,,false,,,,595987.7999999998,595987.5,,595987.2000000002,,596013.624,8,400,,,
break_continue,html.Screen,4_89_2,2023-09-16T20:48:04.952Z,,0,,,NaN,,,,,,false,,,,595988.2000000002,595988.1000000006,,595988,,596013.624,8,400,,,
sequence,flow.Sequence,4_89,2023-09-16T20:48:04.952Z,,0,,,5674.2480000006035,completion,,,,,false,,,,595988.5,595988.1000000006,590297.186,590300.6000000006,590313.852,596013.624,8,400,,,
trial,html.Screen,4_90_0,2023-09-16T20:48:09.150Z,,0,2,,4172.976000000606,response,ISIC_9927486.JPG,7,ISIC_8368872.JPG,ISIC_8368872.JPG,false,0,keypress(z),500,600186.9000000004,600186.6000000006,595996.958,595988.6000000006,596013.624,600206.133,8,400,41,,ISIC_9927486.JPG
break,html.Screen,4_90_1,2023-09-16T20:48:09.151Z,,0,,,NaN,,,,,,false,,,,600187.7000000002,600187.5,,600187.1000000006,,600206.133,8,400,,,
break_continue,html.Screen,4_90_2,2023-09-16T20:48:09.152Z,,0,,,NaN,,,,,,false,,,,600188.1000000006,600188,,600187.9000000004,,600206.133,8,400,,,
sequence,flow.Sequence,4_90,2023-09-16T20:48:09.152Z,,0,,,4174.3760000000475,completion,,,,,false,,,,600188.4000000004,600188,595996.958,595988.6000000006,596013.624,600206.133,8,400,,,
trial,html.Screen,4_91_0,2023-09-16T20:48:12.996Z,,0,2,,3825.767000000342,response,ISIC_0030657.JPG,6,ISIC_6250970.JPG,ISIC_6250970.JPG,false,0,keypress(z),500,604032.2999999998,604031.9000000004,600189.467,600188.5,600206.133,604039.313,8,400,42,,ISIC_0030657.JPG
break,html.Screen,4_91_1,2023-09-16T20:48:12.997Z,,0,,,NaN,,,,,,false,,,,604033.1000000006,604032.9000000004,,604032.5,,604039.313,8,400,,,
break_continue,html.Screen,4_91_2,2023-09-16T20:48:12.997Z,,0,,,NaN,,,,,,false,,,,604033.5,604033.5,,604033.2999999998,,604039.313,8,400,,,
sequence,flow.Sequence,4_91,2023-09-16T20:48:12.997Z,,0,,,3827.3669999999693,completion,,,,,false,,,,604033.7999999998,604033.5,600189.467,600188.5,600206.133,604039.313,8,400,,,
trial,html.Screen,4_92_0,2023-09-16T20:48:17.817Z,,0,2,,4813.986999999848,response,ISIC_1131588.JPG,7,ISIC_7694028.JPG,ISIC_1131588.JPG,false,1,keypress(m),500,608853.6000000006,608853.2999999998,604022.647,604033.9000000004,604039.313,608870.714,8,400,43,,ISIC_7694028.JPG
break,html.Screen,4_92_1,2023-09-16T20:48:17.818Z,,0,,,NaN,,,,,,false,,,,608854.5,608854.2000000002,,608853.7999999998,,608870.714,8,400,,,
break_continue,html.Screen,4_92_2,2023-09-16T20:48:17.819Z,,0,,,NaN,,,,,,false,,,,608855,608854.7999999998,,608854.6000000006,,608870.714,8,400,,,
sequence,flow.Sequence,4_92,2023-09-16T20:48:17.819Z,,0,,,4815.486999999848,completion,,,,,false,,,,608855.1000000006,608854.7999999998,604022.647,604033.7999999998,604039.313,608870.714,8,400,,,
trial,html.Screen,4_93_0,2023-09-16T20:48:21.423Z,,0,2,,3587.8860000005225,response,ISIC_2476624.JPG,5,ISIC_0073086.JPG,ISIC_0073086.JPG,false,0,keypress(z),500,612459,612458.6000000006,608854.048,608855.2000000002,608870.714,612470.57,8,400,44,,ISIC_2476624.JPG
break,html.Screen,4_93_1,2023-09-16T20:48:21.424Z,,0,,,NaN,,,,,,false,,,,612459.7999999998,612459.6000000006,,612459.1000000006,,612470.57,8,400,,,
break_continue,html.Screen,4_93_2,2023-09-16T20:48:21.424Z,,0,,,NaN,,,,,,false,,,,612460.2999999998,612460.1000000006,,612460,,612470.57,8,400,,,
sequence,flow.Sequence,4_93,2023-09-16T20:48:21.424Z,,0,,,3589.3860000005225,completion,,,,,false,,,,612460.5,612460.1000000006,608854.048,608855.2000000002,608870.714,612470.57,8,400,,,
trial,html.Screen,4_94_0,2023-09-16T20:48:24.420Z,,0,2,,2985.3300000004238,response,ISIC_0028131.JPG,5,ISIC_2732573.JPG,ISIC_2732573.JPG,false,0,keypress(z),500,615456.2999999998,615455.9000000004,612453.904,612460.7000000002,612470.57,615470.45,8,400,45,,ISIC_0028131.JPG
break,html.Screen,4_94_1,2023-09-16T20:48:24.421Z,,0,,,NaN,,,,,,false,,,,615457.2000000002,615457,,615456.5,,615470.45,8,400,,,
break_continue,html.Screen,4_94_2,2023-09-16T20:48:24.422Z,,0,,,NaN,,,,,,false,,,,615458,615457.9000000004,,615457.7000000002,,615470.45,8,400,,,
sequence,flow.Sequence,4_94,2023-09-16T20:48:24.422Z,,0,,,2987.3300000004238,completion,,,,,false,,,,615458.2000000002,615457.9000000004,612453.904,612460.6000000006,612470.57,615470.45,8,400,,,
trial,html.Screen,4_95_0,2023-09-16T20:48:27.914Z,,0,2,,3478.750000000233,response,ISIC_5662381.JPG,6,ISIC_7748144.JPG,ISIC_7748144.JPG,false,0,keypress(z),500,618949.5,618949.2000000002,615453.784,615458.4000000004,615470.45,618961.048,8,400,46,,ISIC_5662381.JPG
break,html.Screen,4_95_1,2023-09-16T20:48:27.915Z,,0,,,NaN,,,,,,false,,,,618950.5,618950.2999999998,,618949.7999999998,,618961.048,8,400,,,
break_continue,html.Screen,4_95_2,2023-09-16T20:48:27.915Z,,0,,,NaN,,,,,,false,,,,618951,618950.7999999998,,618950.6000000006,,618961.048,8,400,,,
sequence,flow.Sequence,4_95,2023-09-16T20:48:27.915Z,,0,,,3480.3499999998603,completion,,,,,false,,,,618951.1000000006,618950.7999999998,615453.784,615458.2999999998,615470.45,618961.048,8,400,,,
trial,html.Screen,4_96_0,2023-09-16T20:48:31.759Z,,0,2,,3833.552000000607,response,ISIC_7788318.JPG,7,ISIC_0024315.JPG,ISIC_0024315.JPG,false,0,keypress(z),500,622794.9000000004,622794.6000000006,618944.382,618951.2999999998,618961.048,622810.894,8,400,47,,ISIC_7788318.JPG
break,html.Screen,4_96_1,2023-09-16T20:48:31.760Z,,0,,,NaN,,,,,,false,,,,622795.7999999998,622795.6000000006,,622795.1000000006,,622810.894,8,400,,,
break_continue,html.Screen,4_96_2,2023-09-16T20:48:31.760Z,,0,,,NaN,,,,,,false,,,,622796.2999999998,622796.1000000006,,622796,,622810.894,8,400,,,
sequence,flow.Sequence,4_96,2023-09-16T20:48:31.761Z,,0,,,3835.052000000607,completion,,,,,false,,,,622796.4000000004,622796.1000000006,618944.382,618951.2000000002,618961.048,622810.894,8,400,,,
trial,html.Screen,4_97_0,2023-09-16T20:48:35.365Z,,0,2,,3589.0060000004014,response,ISIC_9829436.JPG,6,ISIC_0071367.JPG,ISIC_9829436.JPG,false,1,keypress(m),500,626400.2000000002,626399.9000000004,622794.228,622796.6000000006,622810.894,626410.75,8,400,48,,ISIC_0071367.JPG
break,html.Screen,4_97_1,2023-09-16T20:48:35.365Z,,0,,,NaN,,,,,,false,,,,626401.1000000006,626400.9000000004,,626400.4000000004,,626410.75,8,400,,,
break_continue,html.Screen,4_97_2,2023-09-16T20:48:35.366Z,,0,,,NaN,,,,,,false,,,,626401.6000000006,626401.5,,626401.2000000002,,626410.75,8,400,,,
sequence,flow.Sequence,4_97,2023-09-16T20:48:35.366Z,,0,,,3590.606000000029,completion,,,,,false,,,,626401.7000000002,626401.5,622794.228,622796.5,622810.894,626410.75,8,400,,,
trial,html.Screen,4_98_0,2023-09-16T20:48:39.978Z,,0,2,,4602.549999999814,response,ISIC_0029106.JPG,6,ISIC_4702522.JPG,ISIC_0029106.JPG,false,1,keypress(m),500,631013.6000000006,631013.2999999998,626394.084,626402,626410.75,631025.465,8,400,49,,ISIC_4702522.JPG
break,html.Screen,4_98_1,2023-09-16T20:48:39.979Z,,0,,,NaN,,,,,,false,,,,631014.5,631014.2000000002,,631013.7999999998,,631025.465,8,400,,,
break_continue,html.Screen,4_98_2,2023-09-16T20:48:39.979Z,,0,,,NaN,,,,,,false,,,,631014.9000000004,631014.7999999998,,631014.6000000006,,631025.465,8,400,,,
sequence,flow.Sequence,4_98,2023-09-16T20:48:39.980Z,,0,,,4604.049999999814,completion,,,,,false,,,,631015.2000000002,631014.7999999998,626394.084,626401.7999999998,626410.75,631025.465,8,400,,,
trial,html.Screen,4_99_0,2023-09-16T20:48:44.111Z,,0,2,,4121.135000000591,response,ISIC_2197722.JPG,6,ISIC_9439742.JPG,ISIC_9439742.JPG,false,0,keypress(z),500,635146.7999999998,635146.6000000006,631008.799,631015.2999999998,631025.465,635158.633,8,400,50,,ISIC_2197722.JPG
break,html.Screen,4_99_1,2023-09-16T20:48:54.116Z,,0,,,10005.917000000016,timeout,,,,,false,,,,645151.1000000006,645147.884,635141.967,635147.2000000002,635158.633,645164.55,8,400,,,
break_continue,html.Screen,4_99_2,2023-09-16T20:49:16.237Z,,0,,,22073.249999999767,response,,,,,false,continue,keypress(Space),,667271.2000000002,667237.7999999998,645147.884,645151.2999999998,645164.55,667280.332,8,400,,,
sequence,flow.Sequence,4_99,2023-09-16T20:49:16.237Z,,0,,,36212.334999999846,completion,,,,,false,,,,667271.4000000004,667237.7999999998,631008.799,631015.2999999998,631025.465,667280.332,8,400,,,
trial,html.Screen,4_100_0,2023-09-16T20:49:19.265Z,,0,3,,3018.4679999997607,response,ISIC_2768150.JPG,6,ISIC_0046659.JPG,ISIC_2768150.JPG,false,1,keypress(m),500,670299.2000000002,670298.7999999998,667263.666,667271.5,667280.332,670315.764,8,400,1,,ISIC_0046659.JPG
break,html.Screen,4_100_1,2023-09-16T20:49:19.266Z,,0,,,NaN,,,,,,false,,,,670300,670299.7999999998,,670299.5,,670315.764,8,400,,,
break_continue,html.Screen,4_100_2,2023-09-16T20:49:19.266Z,,0,,,NaN,,,,,,false,,,,670300.4000000004,670300.2999999998,,670300.1000000006,,670315.764,8,400,,,
sequence,flow.Sequence,4_100,2023-09-16T20:49:19.266Z,,0,,,3019.9679999997607,completion,,,,,false,,,,670300.7000000002,670300.2999999998,667263.666,667271.5,667280.332,670315.764,8,400,,,
trial,html.Screen,4_101_0,2023-09-16T20:49:24.118Z,,0,3,,4836.2360000000335,response,ISIC_4938994.JPG,7,ISIC_0058649.JPG,ISIC_4938994.JPG,false,1,keypress(m),500,675152.2000000002,675152,670299.098,670300.7000000002,670315.764,675165.57,8,400,2,,ISIC_0058649.JPG
break,html.Screen,4_101_1,2023-09-16T20:49:24.119Z,,0,,,NaN,,,,,,false,,,,675153.2000000002,675152.9000000004,,675152.5,,675165.57,8,400,,,
break_continue,html.Screen,4_101_2,2023-09-16T20:49:24.119Z,,0,,,NaN,,,,,,false,,,,675153.6000000006,675153.5,,675153.4000000004,,675165.57,8,400,,,
sequence,flow.Sequence,4_101,2023-09-16T20:49:24.119Z,,0,,,4837.7360000000335,completion,,,,,false,,,,675153.7999999998,675153.5,670299.098,670300.7000000002,670315.764,675165.57,8,400,,,
trial,html.Screen,4_102_0,2023-09-16T20:49:27.835Z,,0,3,,3703.729999999865,response,ISIC_3556980.JPG,7,ISIC_8618835.JPG,ISIC_8618835.JPG,false,0,keypress(z),500,678869.6000000006,678869.2999999998,675148.904,675154,675165.57,678880.946,8,400,3,,ISIC_3556980.JPG
break,html.Screen,4_102_1,2023-09-16T20:49:27.836Z,,0,,,NaN,,,,,,false,,,,678870.5,678870.2999999998,,678869.9000000004,,678880.946,8,400,,,
break_continue,html.Screen,4_102_2,2023-09-16T20:49:27.837Z,,0,,,NaN,,,,,,false,,,,678870.9000000004,678870.7999999998,,678870.7000000002,,678880.946,8,400,,,
sequence,flow.Sequence,4_102,2023-09-16T20:49:27.837Z,,0,,,3705.229999999865,completion,,,,,false,,,,678871.1000000006,678870.7999999998,675148.904,675153.9000000004,675165.57,678880.946,8,400,,,
trial,html.Screen,4_103_0,2023-09-16T20:49:33.233Z,,0,3,,5385.75400000019,response,ISIC_0014974.JPG,5,ISIC_0014336.JPG,ISIC_0014974.JPG,false,1,keypress(m),500,684266.9000000004,684266.7000000002,678864.28,678871.2999999998,678880.946,684280.73,8,400,4,,ISIC_0014336.JPG
break,html.Screen,4_103_1,2023-09-16T20:49:33.234Z,,0,,,NaN,,,,,,false,,,,684267.9000000004,684267.6000000006,,684267.2000000002,,684280.73,8,400,,,
break_continue,html.Screen,4_103_2,2023-09-16T20:49:33.234Z,,0,,,NaN,,,,,,false,,,,684268.2999999998,684268.1000000006,,684268,,684280.73,8,400,,,
sequence,flow.Sequence,4_103,2023-09-16T20:49:33.234Z,,0,,,5387.1540000005625,completion,,,,,false,,,,684268.5,684268.1000000006,678864.28,678871.2000000002,678880.946,684280.73,8,400,,,
trial,html.Screen,4_104_0,2023-09-16T20:49:36.241Z,,0,3,,2993.8700000005774,response,ISIC_0031499.JPG,7,ISIC_0005239.JPG,ISIC_0005239.JPG,false,0,keypress(z),500,687274.9000000004,687274.6000000006,684264.064,684268.7000000002,684280.73,687280.61,8,400,5,,ISIC_0031499.JPG
break,html.Screen,4_104_1,2023-09-16T20:49:36.242Z,,0,,,NaN,,,,,,false,,,,687275.7999999998,687275.5,,687275.2000000002,,687280.61,8,400,,,
break_continue,html.Screen,4_104_2,2023-09-16T20:49:36.242Z,,0,,,NaN,,,,,,false,,,,687276.2000000002,687276.1000000006,,687275.9000000004,,687280.61,8,400,,,
sequence,flow.Sequence,4_104,2023-09-16T20:49:36.242Z,,0,,,2995.3700000005774,completion,,,,,false,,,,687276.4000000004,687276.1000000006,684264.064,684268.6000000006,684280.73,687280.61,8,400,,,
trial,html.Screen,4_105_0,2023-09-16T20:49:40.262Z,,0,3,,4015.390000000014,response,ISIC_0068477.JPG,7,ISIC_8969883.JPG,ISIC_8969883.JPG,false,0,keypress(z),500,691296.2000000002,691296,687263.944,687276.6000000006,687280.61,691306.567,8,400,6,,ISIC_0068477.JPG
break,html.Screen,4_105_1,2023-09-16T20:49:40.263Z,,0,,,NaN,,,,,,false,,,,691297.2000000002,691296.9000000004,,691296.5,,691306.567,8,400,,,
break_continue,html.Screen,4_105_2,2023-09-16T20:49:40.264Z,,0,,,NaN,,,,,,false,,,,691297.6000000006,691297.4000000004,,691297.2999999998,,691306.567,8,400,,,
sequence,flow.Sequence,4_105,2023-09-16T20:49:40.264Z,,0,,,4016.7900000003865,completion,,,,,false,,,,691297.7999999998,691297.4000000004,687263.944,687276.5,687280.61,691306.567,8,400,,,
trial,html.Screen,4_106_0,2023-09-16T20:49:44.497Z,,0,3,,4224.133000000147,response,ISIC_3817292.JPG,5,ISIC_0003117.JPG,ISIC_0003117.JPG,false,0,keypress(z),500,695531.2000000002,695530.7000000002,691289.901,691298,691306.567,695539.731,8,400,7,,ISIC_3817292.JPG
break,html.Screen,4_106_1,2023-09-16T20:49:44.498Z,,0,,,NaN,,,,,,false,,,,695532,695531.7999999998,,695531.4000000004,,695539.731,8,400,,,
break_continue,html.Screen,4_106_2,2023-09-16T20:49:44.499Z,,0,,,NaN,,,,,,false,,,,695532.4000000004,695532.2999999998,,695532.1000000006,,695539.731,8,400,,,
sequence,flow.Sequence,4_106,2023-09-16T20:49:44.499Z,,0,,,4225.732999999775,completion,,,,,false,,,,695532.6000000006,695532.2999999998,691289.901,691297.9000000004,691306.567,695539.731,8,400,,,
trial,html.Screen,4_107_0,2023-09-16T20:49:50.585Z,,0,3,,6078.469000000157,response,ISIC_0000522.JPG,6,ISIC_0032682.JPG,ISIC_0032682.JPG,false,0,keypress(z),500,701618.5,701618.2000000002,695523.065,695532.7000000002,695539.731,701620.782,8,400,8,,ISIC_0000522.JPG
break,html.Screen,4_107_1,2023-09-16T20:49:50.586Z,,0,,,NaN,,,,,,false,,,,701619.6000000006,701619.2999999998,,701618.7999999998,,701620.782,8,400,,,
break_continue,html.Screen,4_107_2,2023-09-16T20:49:50.586Z,,0,,,NaN,,,,,,false,,,,701619.9000000004,701619.9000000004,,701619.7000000002,,701620.782,8,400,,,
sequence,flow.Sequence,4_107,2023-09-16T20:49:50.587Z,,0,,,6080.169000000344,completion,,,,,false,,,,701620.1000000006,701619.9000000004,695523.065,695532.7000000002,695539.731,701620.782,8,400,,,
trial,html.Screen,4_108_0,2023-09-16T20:49:55.051Z,,0,3,,4463.318000000552,response,ISIC_0028944.JPG,5,ISIC_0062997.JPG,ISIC_0028944.JPG,false,1,keypress(m),500,706084.4000000004,706084.1000000006,701604.116,701620.2000000002,701620.782,706087.27,8,400,9,,ISIC_0062997.JPG
break,html.Screen,4_108_1,2023-09-16T20:49:55.052Z,,0,,,NaN,,,,,,false,,,,706085.5,706085.2000000002,,706084.7000000002,,706087.27,8,400,,,
break_continue,html.Screen,4_108_2,2023-09-16T20:49:55.052Z,,0,,,NaN,,,,,,false,,,,706085.9000000004,706085.7999999998,,706085.6000000006,,706087.27,8,400,,,
sequence,flow.Sequence,4_108,2023-09-16T20:49:55.053Z,,0,,,4465.017999999807,completion,,,,,false,,,,706086.1000000006,706085.7999999998,701604.116,701620.2000000002,701620.782,706087.27,8,400,,,
trial,html.Screen,4_109_0,2023-09-16T20:49:58.986Z,,0,3,,3932.2299999999814,response,ISIC_5397818.JPG,5,ISIC_0006829.JPG,ISIC_5397818.JPG,false,1,keypress(m),500,710019.7999999998,710019.5,706070.604,706086.2000000002,706087.27,710037.112,8,400,10,,ISIC_0006829.JPG
break,html.Screen,4_109_1,2023-09-16T20:49:58.987Z,,0,,,NaN,,,,,,false,,,,710020.7000000002,710020.4000000004,,710020.1000000006,,710037.112,8,400,,,
break_continue,html.Screen,4_109_2,2023-09-16T20:49:58.988Z,,0,,,NaN,,,,,,false,,,,710021.2000000002,710021.1000000006,,710020.9000000004,,710037.112,8,400,,,
sequence,flow.Sequence,4_109,2023-09-16T20:49:58.988Z,,0,,,3933.83000000054,completion,,,,,false,,,,710021.2999999998,710021.1000000006,706070.604,706086.2000000002,706087.27,710037.112,8,400,,,
trial,html.Screen,4_110_0,2023-09-16T20:50:03.227Z,,0,3,,4222.488000000594,response,ISIC_4141315.JPG,8,ISIC_2366727.JPG,ISIC_2366727.JPG,false,0,keypress(z),500,714259.9000000004,714259.6000000006,710020.446,710021.5,710037.112,714262.211,8,400,11,,ISIC_4141315.JPG
break,html.Screen,4_110_1,2023-09-16T20:50:03.228Z,,0,,,NaN,,,,,,false,,,,714260.9000000004,714260.7000000002,,714260.2000000002,,714262.211,8,400,,,
break_continue,html.Screen,4_110_2,2023-09-16T20:50:03.228Z,,0,,,NaN,,,,,,false,,,,714261.2999999998,714261.2000000002,,714261,,714262.211,8,400,,,
sequence,flow.Sequence,4_110,2023-09-16T20:50:03.228Z,,0,,,4224.088000000222,completion,,,,,false,,,,714261.5,714261.2000000002,710020.446,710021.5,710037.112,714262.211,8,400,,,
trial,html.Screen,4_111_0,2023-09-16T20:50:08.783Z,,0,3,,5553.889000000549,response,ISIC_0527170.JPG,8,ISIC_0027480.JPG,ISIC_0527170.JPG,false,1,keypress(m),500,719816.4000000004,719816.1000000006,714245.545,714261.7000000002,714262.211,719828.655,8,400,12,,ISIC_0027480.JPG
break,html.Screen,4_111_1,2023-09-16T20:50:08.784Z,,0,,,NaN,,,,,,false,,,,719817.2999999998,719817,,719816.6000000006,,719828.655,8,400,,,
break_continue,html.Screen,4_111_2,2023-09-16T20:50:08.785Z,,0,,,NaN,,,,,,false,,,,719817.7999999998,719817.6000000006,,719817.4000000004,,719828.655,8,400,,,
sequence,flow.Sequence,4_111,2023-09-16T20:50:08.785Z,,0,,,5555.389000000549,completion,,,,,false,,,,719817.9000000004,719817.6000000006,714245.545,714261.6000000006,714262.211,719828.655,8,400,,,
trial,html.Screen,4_112_0,2023-09-16T20:50:12.554Z,,0,3,,3758.2450000003446,response,ISIC_0030255.JPG,5,ISIC_0010772.JPG,ISIC_0030255.JPG,false,1,keypress(m),500,723587.2000000002,723586.9000000004,719811.989,719818.1000000006,719828.655,723598.584,8,400,13,,ISIC_0010772.JPG
break,html.Screen,4_112_1,2023-09-16T20:50:12.555Z,,0,,,NaN,,,,,,false,,,,723588.1000000006,723587.7999999998,,723587.4000000004,,723598.584,8,400,,,
break_continue,html.Screen,4_112_2,2023-09-16T20:50:12.556Z,,0,,,NaN,,,,,,false,,,,723588.5,723588.4000000004,,723588.2999999998,,723598.584,8,400,,,
sequence,flow.Sequence,4_112,2023-09-16T20:50:12.556Z,,0,,,3759.7450000003446,completion,,,,,false,,,,723588.7999999998,723588.4000000004,719811.989,719818,719828.655,723598.584,8,400,,,
trial,html.Screen,4_113_0,2023-09-16T20:50:17.074Z,,0,3,,4507.715999999782,response,ISIC_0000431.JPG,8,ISIC_9442018.JPG,ISIC_0000431.JPG,false,1,keypress(m),500,728106.6000000006,728106.2999999998,723581.918,723588.9000000004,723598.584,728115.07,8,400,14,,ISIC_9442018.JPG
break,html.Screen,4_113_1,2023-09-16T20:50:17.075Z,,0,,,NaN,,,,,,false,,,,728107.5,728107.2999999998,,728106.9000000004,,728115.07,8,400,,,
break_continue,html.Screen,4_113_2,2023-09-16T20:50:17.075Z,,0,,,NaN,,,,,,false,,,,728108,728107.7999999998,,728107.7000000002,,728115.07,8,400,,,
sequence,flow.Sequence,4_113,2023-09-16T20:50:17.075Z,,0,,,4509.215999999782,completion,,,,,false,,,,728108.1000000006,728107.7999999998,723581.918,723588.7999999998,723598.584,728115.07,8,400,,,
trial,html.Screen,4_114_0,2023-09-16T20:50:22.411Z,,0,3,,5328.03000000061,response,ISIC_0067027.JPG,7,ISIC_9667908.JPG,ISIC_0067027.JPG,false,1,keypress(m),500,733443.5,733443.1000000006,728098.404,728108.2000000002,728115.07,733464.856,8,400,15,,ISIC_9667908.JPG
break,html.Screen,4_114_1,2023-09-16T20:50:22.412Z,,0,,,NaN,,,,,,false,,,,733444.4000000004,733444.1000000006,,733443.7000000002,,733464.856,8,400,,,
break_continue,html.Screen,4_114_2,2023-09-16T20:50:22.412Z,,0,,,NaN,,,,,,false,,,,733444.7000000002,733444.6000000006,,733444.5,,733464.856,8,400,,,
sequence,flow.Sequence,4_114,2023-09-16T20:50:22.412Z,,0,,,5329.53000000061,completion,,,,,false,,,,733445,733444.6000000006,728098.404,728108.2000000002,728115.07,733464.856,8,400,,,
trial,html.Screen,4_115_0,2023-09-16T20:50:27.099Z,,0,3,,4666.544000000344,response,ISIC_6710411.JPG,8,ISIC_0031546.JPG,ISIC_6710411.JPG,false,1,keypress(m),500,738131.7999999998,738131.4000000004,733448.19,733445.1000000006,733464.856,738162.284,8,400,16,,ISIC_0031546.JPG
break,html.Screen,4_115_1,2023-09-16T20:50:27.100Z,,0,,,NaN,,,,,,false,,,,738132.7000000002,738132.4000000004,,738132.1000000006,,738162.284,8,400,,,
break_continue,html.Screen,4_115_2,2023-09-16T20:50:27.101Z,,0,,,NaN,,,,,,false,,,,738133.2000000002,738133,,738132.9000000004,,738162.284,8,400,,,
sequence,flow.Sequence,4_115,2023-09-16T20:50:27.101Z,,0,,,4668.143999999971,completion,,,,,false,,,,738133.4000000004,738133,733448.19,733445.1000000006,733464.856,738162.284,8,400,,,
trial,html.Screen,4_116_0,2023-09-16T20:50:31.823Z,,0,3,,4692.716000000015,response,ISIC_2458253.JPG,7,ISIC_2918117.JPG,ISIC_2918117.JPG,false,0,keypress(z),500,742855.2999999998,742855,738145.618,738133.5,738162.284,742862.096,8,400,17,,ISIC_2458253.JPG
break,html.Screen,4_116_1,2023-09-16T20:50:31.824Z,,0,,,NaN,,,,,,false,,,,742856.1000000006,742855.7999999998,,742855.5,,742862.096,8,400,,,
break_continue,html.Screen,4_116_2,2023-09-16T20:50:31.824Z,,0,,,NaN,,,,,,false,,,,742856.5,742856.4000000004,,742856.2000000002,,742862.096,8,400,,,
sequence,flow.Sequence,4_116,2023-09-16T20:50:31.824Z,,0,,,4694.116000000387,completion,,,,,false,,,,742856.6000000006,742856.4000000004,738145.618,738133.5,738162.284,742862.096,8,400,,,
trial,html.Screen,4_117_0,2023-09-16T20:50:35.740Z,,0,3,,3909.5040000005392,response,ISIC_0029672.JPG,5,ISIC_0012070.JPG,ISIC_0029672.JPG,false,1,keypress(m),500,746771.9000000004,746771.6000000006,742845.43,742856.7000000002,742862.096,746775.578,8,400,18,,ISIC_0012070.JPG
break,html.Screen,4_117_1,2023-09-16T20:50:35.740Z,,0,,,NaN,,,,,,false,,,,746772.7000000002,746772.5,,746772.1000000006,,746775.578,8,400,,,
break_continue,html.Screen,4_117_2,2023-09-16T20:50:35.741Z,,0,,,NaN,,,,,,false,,,,746773.2000000002,746773.1000000006,,746772.9000000004,,746775.578,8,400,,,
sequence,flow.Sequence,4_117,2023-09-16T20:50:35.741Z,,0,,,3911.0040000005392,completion,,,,,false,,,,746773.4000000004,746773.1000000006,742845.43,742856.7000000002,742862.096,746775.578,8,400,,,
trial,html.Screen,4_118_0,2023-09-16T20:50:38.971Z,,0,3,,3227.6220000002068,response,ISIC_7172145.JPG,5,ISIC_1020968.JPG,ISIC_1020968.JPG,false,0,keypress(z),500,750003.5,750003.2000000002,746758.912,746773.5,746775.578,750008.782,8,400,19,,ISIC_7172145.JPG
break,html.Screen,4_118_1,2023-09-16T20:50:38.972Z,,0,,,NaN,,,,,,false,,,,750004.4000000004,750004.2000000002,,750003.7000000002,,750008.782,8,400,,,
break_continue,html.Screen,4_118_2,2023-09-16T20:50:38.973Z,,0,,,NaN,,,,,,false,,,,750004.9000000004,750004.7000000002,,750004.6000000006,,750008.782,8,400,,,
sequence,flow.Sequence,4_118,2023-09-16T20:50:38.973Z,,0,,,3229.1220000002068,completion,,,,,false,,,,750005.1000000006,750004.7000000002,746758.912,746773.5,746775.578,750008.782,8,400,,,
trial,html.Screen,4_119_0,2023-09-16T20:50:43.394Z,,0,3,,4417.017999999807,response,ISIC_2366727.JPG,8,ISIC_0010255.JPG,ISIC_2366727.JPG,false,1,keypress(m),500,754426.1000000006,754425.7999999998,749992.116,750005.2000000002,750008.782,754427.305,8,400,20,,ISIC_0010255.JPG
break,html.Screen,4_119_1,2023-09-16T20:50:43.395Z,,0,,,NaN,,,,,,false,,,,754426.9000000004,754426.7999999998,,754426.2999999998,,754427.305,8,400,,,
break_continue,html.Screen,4_119_2,2023-09-16T20:50:43.395Z,,0,,,NaN,,,,,,false,,,,754427.4000000004,754427.2000000002,,754427.1000000006,,754427.305,8,400,,,
sequence,flow.Sequence,4_119,2023-09-16T20:50:43.396Z,,0,,,4418.41800000018,completion,,,,,false,,,,754427.9000000004,754427.2000000002,749992.116,750005.2000000002,750008.782,754427.305,8,400,,,
trial,html.Screen,4_120_0,2023-09-16T20:50:49.016Z,,0,3,,5620.694999999949,response,ISIC_1177505.JPG,7,ISIC_0034317.JPG,ISIC_1177505.JPG,false,1,keypress(m),500,760048.2000000002,760048,754410.639,754428.2000000002,754427.305,760060.413,8,400,21,,ISIC_0034317.JPG
break,html.Screen,4_120_1,2023-09-16T20:50:49.017Z,,0,,,NaN,,,,,,false,,,,760049.1000000006,760049,,760048.5,,760060.413,8,400,,,
break_continue,html.Screen,4_120_2,2023-09-16T20:50:49.018Z,,0,,,NaN,,,,,,false,,,,760049.6000000006,760049.5,,760049.2999999998,,760060.413,8,400,,,
sequence,flow.Sequence,4_120,2023-09-16T20:50:49.018Z,,0,,,5622.194999999949,completion,,,,,false,,,,760049.7999999998,760049.5,754410.639,754428.1000000006,754427.305,760060.413,8,400,,,
trial,html.Screen,4_121_0,2023-09-16T20:50:52.323Z,,0,3,,3294.0870000000577,response,ISIC_0072953.JPG,6,ISIC_0014857.JPG,ISIC_0072953.JPG,false,1,keypress(m),500,763354.7999999998,763354.5,760043.747,760050,760060.413,763360.281,8,400,22,,ISIC_0014857.JPG
break,html.Screen,4_121_1,2023-09-16T20:50:52.324Z,,0,,,NaN,,,,,,false,,,,763355.7000000002,763355.4000000004,,763355,,763360.281,8,400,,,
break_continue,html.Screen,4_121_2,2023-09-16T20:50:52.324Z,,0,,,NaN,,,,,,false,,,,763356.1000000006,763356,,763355.7999999998,,763360.281,8,400,,,
sequence,flow.Sequence,4_121,2023-09-16T20:50:52.324Z,,0,,,3295.5870000000577,completion,,,,,false,,,,763356.2999999998,763356,760043.747,760049.9000000004,760060.413,763360.281,8,400,,,
trial,html.Screen,4_122_0,2023-09-16T20:50:56.408Z,,0,3,,4079.6190000004135,response,ISIC_0032988.JPG,7,ISIC_0066150.JPG,ISIC_0032988.JPG,false,1,keypress(m),500,767440.2000000002,767439.9000000004,763343.615,763356.4000000004,763360.281,767446.124,8,400,23,,ISIC_0066150.JPG
break,html.Screen,4_122_1,2023-09-16T20:50:56.409Z,,0,,,NaN,,,,,,false,,,,767441.1000000006,767440.9000000004,,767440.4000000004,,767446.124,8,400,,,
break_continue,html.Screen,4_122_2,2023-09-16T20:50:56.410Z,,0,,,NaN,,,,,,false,,,,767441.5,767441.4000000004,,767441.2999999998,,767446.124,8,400,,,
sequence,flow.Sequence,4_122,2023-09-16T20:50:56.410Z,,0,,,4081.1190000004135,completion,,,,,false,,,,767441.7000000002,767441.4000000004,763343.615,763356.4000000004,763360.281,767446.124,8,400,,,
trial,html.Screen,4_123_0,2023-09-16T20:51:00.285Z,,0,3,,3870.4760000006063,response,ISIC_0068184.JPG,6,ISIC_0011950.JPG,ISIC_0011950.JPG,false,0,keypress(z),500,771316.7999999998,771316.6000000006,767429.458,767441.9000000004,767446.124,771329.302,8,400,24,,ISIC_0068184.JPG
break,html.Screen,4_123_1,2023-09-16T20:51:00.286Z,,0,,,NaN,,,,,,false,,,,771317.7000000002,771317.5,,771317.1000000006,,771329.302,8,400,,,
break_continue,html.Screen,4_123_2,2023-09-16T20:51:00.287Z,,0,,,NaN,,,,,,false,,,,771318.1000000006,771318.1000000006,,771317.9000000004,,771329.302,8,400,,,
sequence,flow.Sequence,4_123,2023-09-16T20:51:00.287Z,,0,,,3871.9760000006063,completion,,,,,false,,,,771318.4000000004,771318.1000000006,767429.458,767441.7999999998,767446.124,771329.302,8,400,,,
trial,html.Screen,4_124_0,2023-09-16T20:51:04.604Z,,0,3,,4306.197999999975,response,ISIC_9022005.JPG,7,ISIC_8724944.JPG,ISIC_9022005.JPG,false,1,keypress(m),500,775635.7999999998,775635.5,771312.636,771318.5,771329.302,775646.991,8,400,25,,ISIC_8724944.JPG
break,html.Screen,4_124_1,2023-09-16T20:51:04.605Z,,0,,,NaN,,,,,,false,,,,775636.7000000002,775636.4000000004,,775636,,775646.991,8,400,,,
break_continue,html.Screen,4_124_2,2023-09-16T20:51:04.606Z,,0,,,NaN,,,,,,false,,,,775637.2000000002,775637,,775636.9000000004,,775646.991,8,400,,,
sequence,flow.Sequence,4_124,2023-09-16T20:51:04.606Z,,0,,,4307.697999999975,completion,,,,,false,,,,775637.2999999998,775637,771312.636,771318.5,771329.302,775646.991,8,400,,,
trial,html.Screen,4_125_0,2023-09-16T20:51:07.739Z,,0,3,,3123.209000000148,response,ISIC_9586758.JPG,5,ISIC_8362891.JPG,ISIC_8362891.JPG,false,0,keypress(z),500,778770.5,778770.2000000002,775630.325,775637.4000000004,775646.991,778780.199,8,400,26,,ISIC_9586758.JPG
break,html.Screen,4_125_1,2023-09-16T20:51:07.740Z,,0,,,NaN,,,,,,false,,,,778771.4000000004,778771.2000000002,,778770.7999999998,,778780.199,8,400,,,
break_continue,html.Screen,4_125_2,2023-09-16T20:51:07.740Z,,0,,,NaN,,,,,,false,,,,778771.7999999998,778771.6000000006,,778771.5,,778780.199,8,400,,,
sequence,flow.Sequence,4_125,2023-09-16T20:51:07.741Z,,0,,,3124.6090000005206,completion,,,,,false,,,,778771.9000000004,778771.6000000006,775630.325,775637.4000000004,775646.991,778780.199,8,400,,,
trial,html.Screen,4_126_0,2023-09-16T20:51:11.220Z,,0,3,,3470.4010000005364,response,ISIC_0011830.JPG,8,ISIC_2642742.JPG,ISIC_0011830.JPG,false,1,keypress(m),500,782250.9000000004,782250.6000000006,778763.533,778772.1000000006,778780.199,782263.393,8,400,27,,ISIC_2642742.JPG
break,html.Screen,4_126_1,2023-09-16T20:51:11.220Z,,0,,,NaN,,,,,,false,,,,782251.7999999998,782251.5,,782251.2000000002,,782263.393,8,400,,,
break_continue,html.Screen,4_126_2,2023-09-16T20:51:11.221Z,,0,,,NaN,,,,,,false,,,,782252.2000000002,782252.1000000006,,782251.9000000004,,782263.393,8,400,,,
