sender,sender_type,sender_id,timestamp,meta,,blockNo,condition,duration,ended_on,img_left,img_reveal,img_right,loser,practice,response,response_action,selection_duration,time_commit,time_end,time_render,time_run,time_show,time_switch,total_blocks,total_trials,trialNo,url,winner
informed_consent,html.Screen,0,2023-09-08T19:46:09.238Z,"{""labjs_version"":""20.2.4"",""labjs_build"":{""flavor"":""production"",""commit"":""f5b4a49f956347addd546a832a3327688c2c0fef""},""location"":""https://run.pavlovia.org/MurrayBennett/melanoma-2afc/?participant=60fcc085e84772374cdbb26d&STUDY_ID=64f8c92207ba404bcb356c90&SESSION_ID=64fb79ecfc02edc7dabe6ad4&platform=prolific"",""userAgent"":""Mozilla/5.0 (X11; CrOS x86_64 14816.131.0) AppleWebKit/537.36 (KHTML, like Gecko) Chrome/103.0.0.0 Safari/537.36"",""platform"":""Linux x86_64"",""language"":""en-US"",""locale"":""en-US"",""timeZone"":""America/Chicago"",""timezoneOffset"":300,""screen_width"":1366,""screen_height"":768,""scroll_width"":1366,""scroll_height"":601,""window_innerWidth"":1366,""window_innerHeight"":649,""devicePixelRatio"":1}",,,,3186.24699999702,response,,,,,,consent,click button,,9849,9845.29999999702,2477.718,6586.19999999553,6659.053,10157.321,,,,"{""participant"":""60fcc085e84772374cdbb26d"",""STUDY_ID"":""64f8c92207ba404bcb356c90"",""SESSION_ID"":""64fb79ecfc02edc7dabe6ad4"",""platform"":""prolific""}",
Welcome,html.Screen,1,2023-09-08T19:46:26.411Z,,,,symmetry,16856.87899999553,response,,,,,,continue,click button,,27021.79999999702,27014.19999999553,9890.788,9849.69999999553,10157.321,27049.103,,,,,
trial,html.Screen,2_0_0,2023-09-08T19:46:30.822Z,,0,0,,4382.296999998511,response,ISIC_0069348.JPG,,ISIC_6997061.JPG,ISIC_0069348.JPG,true,1,keypress(m),500,31432.5,31431.39999999851,27032.453,27022.5,27049.103,31446.948,1,6,1,,ISIC_6997061.JPG
sequence,flow.Sequence,2_0,2023-09-08T19:46:30.823Z,,0,,,4382.296999998511,completion,,,,,true,,,,31434,31431.39999999851,27032.453,27022.29999999702,27049.103,31446.948,1,6,,,
trial,html.Screen,2_1_0,2023-09-08T19:46:33.906Z,,0,0,,3069.3519999970194,response,ISIC_0009529.JPG,,ISIC_0057368.JPG,ISIC_0057368.JPG,true,0,keypress(z),500,34516.69999999553,34516.29999999702,31430.298,31434.79999999702,31446.948,34528.808,1,6,2,,ISIC_0009529.JPG
sequence,flow.Sequence,2_1,2023-09-08T19:46:33.906Z,,0,,,3069.3519999970194,completion,,,,,true,,,,34517.29999999702,34516.29999999702,31430.298,31434.69999999553,31446.948,34528.808,1,6,,,
trial,html.Screen,2_2_0,2023-09-08T19:46:37.510Z,,0,0,,3591.6920000000027,response,ISIC_0064954.JPG,,ISIC_9758671.JPG,ISIC_9758671.JPG,true,0,keypress(z),500,38121,38120.5,34512.158,34517.60000000149,34528.808,38127.087,1,6,3,,ISIC_0064954.JPG
sequence,flow.Sequence,2_2,2023-09-08T19:46:37.511Z,,0,,,3591.6920000000027,completion,,,,,true,,,,38121.60000000149,38120.5,34512.158,34517.60000000149,34528.808,38127.087,1,6,,,
trial,html.Screen,2_3_0,2023-09-08T19:46:40.437Z,,0,0,,2918.7129999970202,response,ISIC_0005785.JPG,,ISIC_0000080.JPG,ISIC_0005785.JPG,true,1,keypress(m),500,41047.60000000149,41045.79999999702,38110.437,38122,38127.087,41059.02,1,6,4,,ISIC_0000080.JPG
sequence,flow.Sequence,2_3,2023-09-08T19:46:40.441Z,,0,,,2918.7129999970202,completion,,,,,true,,,,41052,41045.79999999702,38110.437,38121.79999999702,38127.087,41059.02,1,6,,,
trial,html.Screen,2_4_0,2023-09-08T19:46:43.691Z,,0,0,,3242.5800000014933,response,ISIC_7944028.JPG,,ISIC_5390060.JPG,ISIC_5390060.JPG,true,0,keypress(z),500,44302.39999999851,44301.60000000149,41042.37,41054.79999999702,41059.02,44307.465,1,6,5,,ISIC_7944028.JPG
sequence,flow.Sequence,2_4,2023-09-08T19:46:43.692Z,,0,,,3242.5800000014933,completion,,,,,true,,,,44303.39999999851,44301.60000000149,41042.37,41054.60000000149,41059.02,44307.465,1,6,,,
trial,html.Screen,2_5_0,2023-09-08T19:46:46.453Z,,0,0,,2755.8349999970233,response,ISIC_0010188.JPG,,ISIC_0794216.JPG,ISIC_0010188.JPG,true,1,keypress(m),500,47063.89999999851,47063.29999999702,44290.815,44304.10000000149,44307.465,47072.809,1,6,6,,ISIC_0794216.JPG
sequence,flow.Sequence,2_5,2023-09-08T19:46:46.454Z,,0,,,2755.8349999970233,completion,,,,,true,,,,47064.89999999851,47063.29999999702,44290.815,44303.79999999702,44307.465,47072.809,1,6,,,
loop,flow.Loop,2,2023-09-08T19:46:46.455Z,,,,,20014.19699999702,completion,,,,,true,,,,47065.5,47063.29999999702,27032.453,27022.19999999553,27049.103,47072.809,1,6,,,
exp_instructions,html.Screen,3,2023-09-08T19:46:50.557Z,,,,,4082.291000001489,response,,,,,,continue,keypress(Space),,51168,51155.10000000149,47056.159,47066,47072.809,51185.627,,,,,
trial,html.Screen,4_0_0,2023-09-08T19:46:54.517Z,,0,1,,3940.4730000014897,response,ISIC_0806138.JPG,4,ISIC_6652978.JPG,ISIC_6652978.JPG,false,0,keypress(z),500,55128.10000000149,55126.10000000149,51168.977,51169,51185.627,55135.616,8,400,1,,ISIC_0806138.JPG
break,html.Screen,4_0_1,2023-09-08T19:46:54.526Z,,0,,,NaN,,,,,,false,,,,55136.79999999702,55134.19999999553,,55130,,55135.616,8,400,,,
break_continue,html.Screen,4_0_2,2023-09-08T19:46:54.527Z,,0,,,NaN,,,,,,false,,,,55138.10000000149,55137.69999999553,,55137.19999999553,,55135.616,8,400,,,
sequence,flow.Sequence,4_0,2023-09-08T19:46:54.528Z,,0,,,3952.0729999955292,completion,,,,,false,,,,55138.69999999553,55137.69999999553,51168.977,51168.89999999851,51185.627,55135.616,8,400,,,
trial,html.Screen,4_1_0,2023-09-08T19:46:57.799Z,,0,1,,3272.283999998508,response,ISIC_0014013.JPG,5,ISIC_6968422.JPG,ISIC_0014013.JPG,false,1,keypress(m),500,58410.19999999553,58407.89999999851,55118.966,55139.10000000149,55135.616,58417.372,8,400,2,,ISIC_6968422.JPG
break,html.Screen,4_1_1,2023-09-08T19:46:57.803Z,,0,,,NaN,,,,,,false,,,,58413.79999999702,58412.39999999851,,58411.10000000149,,58417.372,8,400,,,
break_continue,html.Screen,4_1_2,2023-09-08T19:46:57.805Z,,0,,,NaN,,,,,,false,,,,58415.89999999851,58415.19999999553,,58414.60000000149,,58417.372,8,400,,,
sequence,flow.Sequence,4_1,2023-09-08T19:46:57.806Z,,0,,,3279.583999995528,completion,,,,,false,,,,58417,58415.19999999553,55118.966,55139,55135.616,58417.372,8,400,,,
trial,html.Screen,4_2_0,2023-09-08T19:47:00.948Z,,0,1,,3139.728000001487,response,ISIC_0070814.JPG,7,ISIC_0011491.JPG,ISIC_0011491.JPG,false,0,keypress(z),500,61558.79999999702,61557.10000000149,58400.722,58418.5,58417.372,61565.87,8,400,3,,ISIC_0070814.JPG
break,html.Screen,4_2_1,2023-09-08T19:47:00.955Z,,0,,,NaN,,,,,,false,,,,61565.89999999851,61564,,61560.60000000149,,61565.87,8,400,,,
break_continue,html.Screen,4_2_2,2023-09-08T19:47:00.959Z,,0,,,NaN,,,,,,false,,,,61569.69999999553,61569,,61568,,61565.87,8,400,,,
sequence,flow.Sequence,4_2,2023-09-08T19:47:00.960Z,,0,,,3151.627999999997,completion,,,,,false,,,,61570.5,61569,58400.722,58417.89999999851,58417.372,61565.87,8,400,,,
trial,html.Screen,4_3_0,2023-09-08T19:47:03.588Z,,0,1,,2631.329999995527,response,ISIC_0068560.JPG,6,ISIC_3495113.JPG,ISIC_3495113.JPG,false,0,keypress(z),500,64199.10000000149,64197.19999999553,61549.22,61571.19999999553,61565.87,64214.603,8,400,4,,ISIC_0068560.JPG
break,html.Screen,4_3_1,2023-09-08T19:47:03.592Z,,0,,,NaN,,,,,,false,,,,64203.39999999851,64202.69999999553,,64200.89999999851,,64214.603,8,400,,,
break_continue,html.Screen,4_3_2,2023-09-08T19:47:03.594Z,,0,,,NaN,,,,,,false,,,,64204.79999999702,64204.39999999851,,64203.89999999851,,64214.603,8,400,,,
sequence,flow.Sequence,4_3,2023-09-08T19:47:03.594Z,,0,,,2638.5299999985073,completion,,,,,false,,,,64205.29999999702,64204.39999999851,61549.22,61571.10000000149,61565.87,64214.603,8,400,,,
trial,html.Screen,4_4_0,2023-09-08T19:47:06.393Z,,0,1,,2788.696999997017,response,ISIC_0057313.JPG,6,ISIC_0011628.JPG,ISIC_0057313.JPG,false,1,keypress(m),500,67004,67003.29999999702,64197.953,64205.79999999702,64214.603,67013.274,8,400,5,,ISIC_0011628.JPG
break,html.Screen,4_4_1,2023-09-08T19:47:06.398Z,,0,,,NaN,,,,,,false,,,,67008.69999999553,67006.89999999851,,67004.89999999851,,67013.274,8,400,,,
break_continue,html.Screen,4_4_2,2023-09-08T19:47:06.399Z,,0,,,NaN,,,,,,false,,,,67010.29999999702,67009.69999999553,,67009.29999999702,,67013.274,8,400,,,
sequence,flow.Sequence,4_4,2023-09-08T19:47:06.401Z,,0,,,2795.096999995527,completion,,,,,false,,,,67011.79999999702,67009.69999999553,64197.953,64205.60000000149,64214.603,67013.274,8,400,,,
trial,html.Screen,4_5_0,2023-09-08T19:47:09.065Z,,0,1,,2660.525999997015,response,ISIC_0025754.JPG,6,ISIC_5312584.JPG,ISIC_5312584.JPG,false,0,keypress(z),500,69676.29999999702,69673.79999999702,66996.624,67012.5,67013.274,69695.331,8,400,6,,ISIC_0025754.JPG
break,html.Screen,4_5_1,2023-09-08T19:47:09.072Z,,0,,,NaN,,,,,,false,,,,69683.10000000149,69681.39999999851,,69678.10000000149,,69695.331,8,400,,,
break_continue,html.Screen,4_5_2,2023-09-08T19:47:09.075Z,,0,,,NaN,,,,,,false,,,,69685.60000000149,69685.19999999553,,69684.79999999702,,69695.331,8,400,,,
sequence,flow.Sequence,4_5,2023-09-08T19:47:09.075Z,,0,,,2671.9259999955248,completion,,,,,false,,,,69686.10000000149,69685.19999999553,66996.624,67012.29999999702,67013.274,69695.331,8,400,,,
trial,html.Screen,4_6_0,2023-09-08T19:47:11.646Z,,0,1,,2559.468999997014,response,ISIC_7612992.JPG,5,ISIC_3520750.JPG,ISIC_7612992.JPG,false,1,keypress(m),500,72257,72254.79999999702,69678.681,69686.39999999851,69695.331,72277.418,8,400,7,,ISIC_3520750.JPG
break,html.Screen,4_6_1,2023-09-08T19:47:11.653Z,,0,,,NaN,,,,,,false,,,,72264,72261.79999999702,,72258.79999999702,,72277.418,8,400,,,
break_continue,html.Screen,4_6_2,2023-09-08T19:47:11.656Z,,0,,,NaN,,,,,,false,,,,72266.79999999702,72266.39999999851,,72265.5,,72277.418,8,400,,,
sequence,flow.Sequence,4_6,2023-09-08T19:47:11.656Z,,0,,,2571.0689999985043,completion,,,,,false,,,,72267.29999999702,72266.39999999851,69678.681,69686.29999999702,69695.331,72277.418,8,400,,,
trial,html.Screen,4_7_0,2023-09-08T19:47:14.442Z,,0,1,,2773.581999999995,response,ISIC_7903838.JPG,5,ISIC_9555291.JPG,ISIC_9555291.JPG,false,0,keypress(z),500,75052.60000000149,75051,72260.768,72267.69999999553,72277.418,75059.433,8,400,8,,ISIC_7903838.JPG
break,html.Screen,4_7_1,2023-09-08T19:47:14.450Z,,0,,,NaN,,,,,,false,,,,75061.39999999851,75058.5,,75054.39999999851,,75059.433,8,400,,,
break_continue,html.Screen,4_7_2,2023-09-08T19:47:14.452Z,,0,,,NaN,,,,,,false,,,,75062.5,75062.10000000149,,75061.79999999702,,75059.433,8,400,,,
sequence,flow.Sequence,4_7,2023-09-08T19:47:14.452Z,,0,,,2784.682000001485,completion,,,,,false,,,,75063,75062.10000000149,72260.768,72267.60000000149,72277.418,75059.433,8,400,,,
trial,html.Screen,4_8_0,2023-09-08T19:47:17.288Z,,0,1,,2839.0669999999955,response,ISIC_1628539.JPG,5,ISIC_2757355.JPG,ISIC_2757355.JPG,false,0,keypress(z),500,77899.39999999851,77898.5,75042.783,75063.29999999702,75059.433,77908.07,8,400,9,,ISIC_1628539.JPG
break,html.Screen,4_8_1,2023-09-08T19:47:17.293Z,,0,,,NaN,,,,,,false,,,,77903.60000000149,77901.79999999702,,77900.39999999851,,77908.07,8,400,,,
break_continue,html.Screen,4_8_2,2023-09-08T19:47:17.295Z,,0,,,NaN,,,,,,false,,,,77905.79999999702,77905.10000000149,,77904.5,,77908.07,8,400,,,
sequence,flow.Sequence,4_8,2023-09-08T19:47:17.296Z,,0,,,2845.6670000014856,completion,,,,,false,,,,77907.10000000149,77905.10000000149,75042.783,75063.19999999553,75059.433,77908.07,8,400,,,
trial,html.Screen,4_9_0,2023-09-08T19:47:20.178Z,,0,1,,2879.530000001483,response,ISIC_5796736.JPG,5,ISIC_2818530.JPG,ISIC_2818530.JPG,false,0,keypress(z),500,80788.79999999702,80787.60000000149,77891.42,77908.79999999702,77908.07,80806.667,8,400,10,,ISIC_5796736.JPG
break,html.Screen,4_9_1,2023-09-08T19:47:20.180Z,,0,,,NaN,,,,,,false,,,,80791.39999999851,80790.5,,80789.5,,80806.667,8,400,,,
break_continue,html.Screen,4_9_2,2023-09-08T19:47:20.182Z,,0,,,NaN,,,,,,false,,,,80792.69999999553,80792.29999999702,,80791.89999999851,,80806.667,8,400,,,
sequence,flow.Sequence,4_9,2023-09-08T19:47:20.182Z,,0,,,2884.229999997013,completion,,,,,false,,,,80793.29999999702,80792.29999999702,77891.42,77907.79999999702,77908.07,80806.667,8,400,,,
trial,html.Screen,4_10_0,2023-09-08T19:47:23.215Z,,0,1,,3018.2329999985086,response,ISIC_4777536.JPG,5,ISIC_0000420.JPG,ISIC_0000420.JPG,false,0,keypress(z),500,83825.89999999851,83824.89999999851,80790.017,80795.10000000149,80806.667,83838.551,8,400,11,,ISIC_4777536.JPG
break,html.Screen,4_10_1,2023-09-08T19:47:23.219Z,,0,,,NaN,,,,,,false,,,,83829.69999999553,83828.39999999851,,83827.10000000149,,83838.551,8,400,,,
break_continue,html.Screen,4_10_2,2023-09-08T19:47:23.220Z,,0,,,NaN,,,,,,false,,,,83831.19999999553,83830.69999999553,,83830.29999999702,,83838.551,8,400,,,
sequence,flow.Sequence,4_10,2023-09-08T19:47:23.221Z,,0,,,3024.0329999955284,completion,,,,,false,,,,83832,83830.69999999553,80790.017,80794.89999999851,80806.667,83838.551,8,400,,,
trial,html.Screen,4_11_0,2023-09-08T19:47:25.787Z,,0,1,,2558.5490000014834,response,ISIC_0011158.JPG,5,ISIC_3651451.JPG,ISIC_0011158.JPG,false,1,keypress(m),500,86397.60000000149,86397.10000000149,83821.901,83832.69999999553,83838.551,86404.003,8,400,12,,ISIC_3651451.JPG
break,html.Screen,4_11_1,2023-09-08T19:47:25.789Z,,0,,,NaN,,,,,,false,,,,86400.39999999851,86399.60000000149,,86398,,86404.003,8,400,,,
break_continue,html.Screen,4_11_2,2023-09-08T19:47:25.791Z,,0,,,NaN,,,,,,false,,,,86401.79999999702,86401.39999999851,,86400.89999999851,,86404.003,8,400,,,
sequence,flow.Sequence,4_11,2023-09-08T19:47:25.792Z,,0,,,2562.848999998503,completion,,,,,false,,,,86402.60000000149,86401.39999999851,83821.901,83832.5,83838.551,86404.003,8,400,,,
trial,html.Screen,4_12_0,2023-09-08T19:47:28.549Z,,0,1,,2754.497000000003,response,ISIC_0047008.JPG,29,ISIC_6340792.JPG,ISIC_6340792.JPG,false,0,keypress(z),500,89160.29999999702,89158.5,86387.353,86403.10000000149,86404.003,89169.351,8,400,13,,ISIC_0047008.JPG
break,html.Screen,4_12_1,2023-09-08T19:47:28.554Z,,0,,,NaN,,,,,,false,,,,89164.69999999553,89163.5,,89162,,89169.351,8,400,,,
break_continue,html.Screen,4_12_2,2023-09-08T19:47:28.555Z,,0,,,NaN,,,,,,false,,,,89166.39999999851,89165.79999999702,,89165.19999999553,,89169.351,8,400,,,
sequence,flow.Sequence,4_12,2023-09-08T19:47:28.556Z,,0,,,2761.796999997023,completion,,,,,false,,,,89167.10000000149,89165.79999999702,86387.353,86402.89999999851,86404.003,89169.351,8,400,,,
trial,html.Screen,4_13_0,2023-09-08T19:47:31.411Z,,0,1,,2851.4489999970247,response,ISIC_3747979.JPG,5,ISIC_9744305.JPG,ISIC_9744305.JPG,false,0,keypress(z),500,92021.79999999702,92020.79999999702,89152.701,89167.69999999553,89169.351,92034.647,8,400,14,,ISIC_3747979.JPG
break,html.Screen,4_13_1,2023-09-08T19:47:31.415Z,,0,,,NaN,,,,,,false,,,,92026.19999999553,92024.5,,92022.79999999702,,92034.647,8,400,,,
break_continue,html.Screen,4_13_2,2023-09-08T19:47:31.418Z,,0,,,NaN,,,,,,false,,,,92028.39999999851,92027.69999999553,,92027,,92034.647,8,400,,,
sequence,flow.Sequence,4_13,2023-09-08T19:47:31.419Z,,0,,,2858.3489999955345,completion,,,,,false,,,,92029.69999999553,92027.69999999553,89152.701,89167.60000000149,89169.351,92034.647,8,400,,,
trial,html.Screen,4_14_0,2023-09-08T19:47:34.442Z,,0,1,,3016.953000001493,response,ISIC_9197665.JPG,6,ISIC_9024529.JPG,ISIC_9024529.JPG,false,0,keypress(z),500,95053.10000000149,95051.60000000149,92017.997,92030.89999999851,92034.647,95066.528,8,400,15,,ISIC_9197665.JPG
break,html.Screen,4_14_1,2023-09-08T19:47:34.449Z,,0,,,NaN,,,,,,false,,,,95060.29999999702,95056.89999999851,,95054.89999999851,,95066.528,8,400,,,
break_continue,html.Screen,4_14_2,2023-09-08T19:47:34.451Z,,0,,,NaN,,,,,,false,,,,95062.39999999851,95062,,95061.60000000149,,95066.528,8,400,,,
sequence,flow.Sequence,4_14,2023-09-08T19:47:34.452Z,,0,,,3027.353000000003,completion,,,,,false,,,,95063.10000000149,95062,92017.997,92030.79999999702,92034.647,95066.528,8,400,,,
trial,html.Screen,4_15_0,2023-09-08T19:47:37.322Z,,0,1,,2863.671999995524,response,ISIC_6384906.JPG,5,ISIC_5909451.JPG,ISIC_5909451.JPG,false,0,keypress(z),500,97932.69999999553,97930.19999999553,95049.878,95063.5,95066.528,97948.49,8,400,16,,ISIC_6384906.JPG
break,html.Screen,4_15_1,2023-09-08T19:47:37.329Z,,0,,,NaN,,,,,,false,,,,97940.10000000149,97938.19999999553,,97934.5,,97948.49,8,400,,,
break_continue,html.Screen,4_15_2,2023-09-08T19:47:37.331Z,,0,,,NaN,,,,,,false,,,,97941.69999999553,97941.39999999851,,97941,,97948.49,8,400,,,
sequence,flow.Sequence,4_15,2023-09-08T19:47:37.331Z,,0,,,2874.871999998504,completion,,,,,false,,,,97942.19999999553,97941.39999999851,95049.878,95063.39999999851,95066.528,97948.49,8,400,,,
trial,html.Screen,4_16_0,2023-09-08T19:47:40.069Z,,0,1,,2730.3099999970145,response,ISIC_8036175.JPG,5,ISIC_3716504.JPG,ISIC_3716504.JPG,false,0,keypress(z),500,100680.39999999851,100678.79999999702,97931.84,97942.5,97948.49,100697.159,8,400,17,,ISIC_8036175.JPG
break,html.Screen,4_16_1,2023-09-08T19:47:40.075Z,,0,,,NaN,,,,,,false,,,,100686.19999999553,100685.39999999851,,100682.10000000149,,100697.159,8,400,,,
break_continue,html.Screen,4_16_2,2023-09-08T19:47:40.076Z,,0,,,NaN,,,,,,false,,,,100687.19999999553,100686.89999999851,,100686.5,,100697.159,8,400,,,
sequence,flow.Sequence,4_16,2023-09-08T19:47:40.077Z,,0,,,2738.4099999985046,completion,,,,,false,,,,100687.69999999553,100686.89999999851,97931.84,97942.39999999851,97948.49,100697.159,8,400,,,
trial,html.Screen,4_17_0,2023-09-08T19:47:42.612Z,,0,1,,2524.8410000000003,response,ISIC_0010242.JPG,4,ISIC_0005261.JPG,ISIC_0010242.JPG,false,1,keypress(m),500,103223.39999999851,103222,100680.509,100688.10000000149,100697.159,103245.938,8,400,18,,ISIC_0005261.JPG
break,html.Screen,4_17_1,2023-09-08T19:47:42.618Z,,0,,,NaN,,,,,,false,,,,103228.89999999851,103226.69999999553,,103224.89999999851,,103245.938,8,400,,,
break_continue,html.Screen,4_17_2,2023-09-08T19:47:42.621Z,,0,,,NaN,,,,,,false,,,,103232,103231.60000000149,,103231,,103245.938,8,400,,,
sequence,flow.Sequence,4_17,2023-09-08T19:47:42.632Z,,0,,,2534.4410000014905,completion,,,,,false,,,,103243.39999999851,103231.60000000149,100680.509,100688,100697.159,103245.938,8,400,,,
trial,html.Screen,4_18_0,2023-09-08T19:47:45.300Z,,0,1,,2663.6620000014955,response,ISIC_8167374.JPG,5,ISIC_1053427.JPG,ISIC_8167374.JPG,false,1,keypress(m),500,105911.19999999553,105909.60000000149,103212.638,103244.69999999553,103245.938,105927.989,8,400,19,,ISIC_1053427.JPG
break,html.Screen,4_18_1,2023-09-08T19:47:45.308Z,,0,,,NaN,,,,,,false,,,,105919.19999999553,105916.39999999851,,105913,,105927.989,8,400,,,
break_continue,html.Screen,4_18_2,2023-09-08T19:47:45.310Z,,0,,,NaN,,,,,,false,,,,105920.89999999851,105920.5,,105920.19999999553,,105927.989,8,400,,,
sequence,flow.Sequence,4_18,2023-09-08T19:47:45.310Z,,0,,,2674.5620000000054,completion,,,,,false,,,,105921.29999999702,105920.5,103212.638,103244.29999999702,103245.938,105927.989,8,400,,,
trial,html.Screen,4_19_0,2023-09-08T19:47:48.179Z,,0,1,,2860.7109999955283,response,ISIC_0029729.JPG,5,ISIC_0004217.JPG,ISIC_0029729.JPG,false,1,keypress(m),500,108790.19999999553,108788.69999999553,105911.339,105921.69999999553,105927.989,108809.952,8,400,20,,ISIC_0004217.JPG
break,html.Screen,4_19_1,2023-09-08T19:47:48.186Z,,0,,,NaN,,,,,,false,,,,108797.10000000149,108795.19999999553,,108791.89999999851,,108809.952,8,400,,,
break_continue,html.Screen,4_19_2,2023-09-08T19:47:48.189Z,,0,,,NaN,,,,,,false,,,,108800.10000000149,108799.69999999553,,108799.39999999851,,108809.952,8,400,,,
sequence,flow.Sequence,4_19,2023-09-08T19:47:48.190Z,,0,,,2871.7109999955283,completion,,,,,false,,,,108800.60000000149,108799.69999999553,105911.339,105921.60000000149,105927.989,108809.952,8,400,,,
trial,html.Screen,4_20_0,2023-09-08T19:47:51.784Z,,0,1,,3583.347999997015,response,ISIC_0010729.JPG,5,ISIC_4067693.JPG,ISIC_0010729.JPG,false,1,keypress(m),500,112394.60000000149,112393.29999999702,108793.302,108801,108809.952,112408.235,8,400,21,,ISIC_4067693.JPG
break,html.Screen,4_20_1,2023-09-08T19:47:51.787Z,,0,,,NaN,,,,,,false,,,,112397.89999999851,112396.60000000149,,112395.29999999702,,112408.235,8,400,,,
break_continue,html.Screen,4_20_2,2023-09-08T19:47:51.789Z,,0,,,NaN,,,,,,false,,,,112399.69999999553,112399.10000000149,,112398.60000000149,,112408.235,8,400,,,
sequence,flow.Sequence,4_20,2023-09-08T19:47:51.790Z,,0,,,3589.1480000014853,completion,,,,,false,,,,112400.69999999553,112399.10000000149,108793.302,108800.89999999851,108809.952,112408.235,8,400,,,
trial,html.Screen,4_21_0,2023-09-08T19:47:54.773Z,,0,1,,2974.2649999999994,response,ISIC_0073227.JPG,22,ISIC_0068696.JPG,ISIC_0068696.JPG,false,0,keypress(z),500,115384.10000000149,115382.5,112391.585,112401.39999999851,112408.235,115390.146,8,400,22,,ISIC_0073227.JPG
break,html.Screen,4_21_1,2023-09-08T19:47:54.779Z,,0,,,NaN,,,,,,false,,,,115390,115388.10000000149,,115385.89999999851,,115390.146,8,400,,,
break_continue,html.Screen,4_21_2,2023-09-08T19:47:54.781Z,,0,,,NaN,,,,,,false,,,,115391.89999999851,115391.60000000149,,115391.19999999553,,115390.146,8,400,,,
sequence,flow.Sequence,4_21,2023-09-08T19:47:54.781Z,,0,,,2983.3650000014895,completion,,,,,false,,,,115392.39999999851,115391.60000000149,112391.585,112401.19999999553,112408.235,115390.146,8,400,,,
trial,html.Screen,4_22_0,2023-09-08T19:47:57.428Z,,0,1,,2646.8540000000066,response,ISIC_6101007.JPG,5,ISIC_5611104.JPG,ISIC_6101007.JPG,false,1,keypress(m),500,118038.60000000149,118037,115373.496,115392.69999999553,115390.146,118055.523,8,400,23,,ISIC_5611104.JPG
break,html.Screen,4_22_1,2023-09-08T19:47:57.435Z,,0,,,NaN,,,,,,false,,,,118046.39999999851,118044.5,,118040.5,,118055.523,8,400,,,
break_continue,html.Screen,4_22_2,2023-09-08T19:47:57.437Z,,0,,,NaN,,,,,,false,,,,118047.79999999702,118047.5,,118047.19999999553,,118055.523,8,400,,,
sequence,flow.Sequence,4_22,2023-09-08T19:47:57.437Z,,0,,,2657.3540000000066,completion,,,,,false,,,,118048.39999999851,118047.5,115373.496,115392.69999999553,115390.146,118055.523,8,400,,,
trial,html.Screen,4_23_0,2023-09-08T19:48:00.096Z,,0,1,,2649.7769999970187,response,ISIC_8742407.JPG,5,ISIC_1869829.JPG,ISIC_8742407.JPG,false,1,keypress(m),500,120706.79999999702,120705.29999999702,118038.873,118048.69999999553,118055.523,120720.934,8,400,24,,ISIC_1869829.JPG
break,html.Screen,4_23_1,2023-09-08T19:48:00.102Z,,0,,,NaN,,,,,,false,,,,120712.60000000149,120712,,120708.69999999553,,120720.934,8,400,,,
break_continue,html.Screen,4_23_2,2023-09-08T19:48:00.103Z,,0,,,NaN,,,,,,false,,,,120713.60000000149,120713.19999999553,,120712.89999999851,,120720.934,8,400,,,
sequence,flow.Sequence,4_23,2023-09-08T19:48:00.103Z,,0,,,2657.6769999955286,completion,,,,,false,,,,120714.10000000149,120713.19999999553,118038.873,118048.60000000149,118055.523,120720.934,8,400,,,
trial,html.Screen,4_24_0,2023-09-08T19:48:03.146Z,,0,1,,3034.566000000006,response,ISIC_7114660.JPG,5,ISIC_3878174.JPG,ISIC_3878174.JPG,false,0,keypress(z),500,123757,123755.5,120704.284,120714.39999999851,120720.934,123769.475,8,400,25,,ISIC_7114660.JPG
break,html.Screen,4_24_1,2023-09-08T19:48:03.154Z,,0,,,NaN,,,,,,false,,,,123764.89999999851,123763,,123758.79999999702,,123769.475,8,400,,,
break_continue,html.Screen,4_24_2,2023-09-08T19:48:03.155Z,,0,,,NaN,,,,,,false,,,,123766.10000000149,123765.79999999702,,123765.39999999851,,123769.475,8,400,,,
sequence,flow.Sequence,4_24,2023-09-08T19:48:03.156Z,,0,,,3044.865999997026,completion,,,,,false,,,,123766.5,123765.79999999702,120704.284,120714.39999999851,120720.934,123769.475,8,400,,,
trial,html.Screen,4_25_0,2023-09-08T19:48:05.791Z,,0,1,,2630.924999998504,response,ISIC_5081382.JPG,5,ISIC_0015200.JPG,ISIC_5081382.JPG,false,1,keypress(m),500,126401.60000000149,126400.39999999851,123752.825,123766.89999999851,123769.475,126418.212,8,400,26,,ISIC_0015200.JPG
break,html.Screen,4_25_1,2023-09-08T19:48:05.797Z,,0,,,NaN,,,,,,false,,,,126407.60000000149,126406.19999999553,,126402.89999999851,,126418.212,8,400,,,
break_continue,html.Screen,4_25_2,2023-09-08T19:48:05.799Z,,0,,,NaN,,,,,,false,,,,126410.29999999702,126409.89999999851,,126408.79999999702,,126418.212,8,400,,,
sequence,flow.Sequence,4_25,2023-09-08T19:48:05.800Z,,0,,,2640.424999998504,completion,,,,,false,,,,126410.79999999702,126409.89999999851,123752.825,123766.79999999702,123769.475,126418.212,8,400,,,
trial,html.Screen,4_26_0,2023-09-08T19:48:08.318Z,,0,1,,2509.2880000000005,response,ISIC_0010653.JPG,9,ISIC_0147869.JPG,ISIC_0010653.JPG,false,1,keypress(m),500,128928.5,128927.5,126401.562,126411.10000000149,126418.212,128933.672,8,400,27,,ISIC_0147869.JPG
break,html.Screen,4_26_1,2023-09-08T19:48:08.324Z,,0,,,NaN,,,,,,false,,,,128935,128932.79999999702,,128929.69999999553,,128933.672,8,400,,,
break_continue,html.Screen,4_26_2,2023-09-08T19:48:08.328Z,,0,,,NaN,,,,,,false,,,,128939,128937.79999999702,,128936.5,,128933.672,8,400,,,
sequence,flow.Sequence,4_26,2023-09-08T19:48:08.330Z,,0,,,2519.5879999970202,completion,,,,,false,,,,128940.79999999702,128937.79999999702,126401.562,126411,126418.212,128933.672,8,400,,,
trial,html.Screen,4_27_0,2023-09-08T19:48:10.918Z,,0,1,,2593.428000001484,response,ISIC_9822350.JPG,6,ISIC_0029942.JPG,ISIC_9822350.JPG,false,1,keypress(m),500,131528.69999999553,131527.1000000015,128917.022,128941.60000000149,128933.672,131532.423,8,400,28,,ISIC_0029942.JPG
break,html.Screen,4_27_1,2023-09-08T19:48:10.922Z,,0,,,NaN,,,,,,false,,,,131532.69999999553,131531.6000000015,,131530.5,,131532.423,8,400,,,
break_continue,html.Screen,4_27_2,2023-09-08T19:48:10.924Z,,0,,,NaN,,,,,,false,,,,131534.79999999702,131534.29999999702,,131533.69999999553,,131532.423,8,400,,,
sequence,flow.Sequence,4_27,2023-09-08T19:48:10.925Z,,0,,,2600.627999997014,completion,,,,,false,,,,131535.69999999553,131534.29999999702,128917.022,128941.39999999851,128933.672,131532.423,8,400,,,
trial,html.Screen,4_28_0,2023-09-08T19:48:13.745Z,,0,1,,2822.6770000014803,response,ISIC_0030193.JPG,6,ISIC_0011994.JPG,ISIC_0011994.JPG,false,0,keypress(z),500,134355.79999999702,134355.1000000015,131515.773,131536.5,131532.423,134364.414,8,400,29,,ISIC_0030193.JPG
break,html.Screen,4_28_1,2023-09-08T19:48:13.748Z,,0,,,NaN,,,,,,false,,,,134359.29999999702,134358.5,,134356.79999999702,,134364.414,8,400,,,
break_continue,html.Screen,4_28_2,2023-09-08T19:48:13.750Z,,0,,,NaN,,,,,,false,,,,134360.79999999702,134360.29999999702,,134359.79999999702,,134364.414,8,400,,,
sequence,flow.Sequence,4_28,2023-09-08T19:48:13.751Z,,0,,,2827.87699999701,completion,,,,,false,,,,134361.69999999553,134360.29999999702,131515.773,131536.19999999553,131532.423,134364.414,8,400,,,
trial,html.Screen,4_29_0,2023-09-08T19:48:16.317Z,,0,1,,2562.78599999554,response,ISIC_5922588.JPG,5,ISIC_0026049.JPG,ISIC_5922588.JPG,false,1,keypress(m),500,136928,136927.19999999553,134347.764,134362.3999999985,134364.414,136946.494,8,400,30,,ISIC_0026049.JPG
break,html.Screen,4_29_1,2023-09-08T19:48:16.321Z,,0,,,NaN,,,,,,false,,,,136932,136931.1000000015,,136928.79999999702,,136946.494,8,400,,,
break_continue,html.Screen,4_29_2,2023-09-08T19:48:16.323Z,,0,,,NaN,,,,,,false,,,,136933.6000000015,136933,,136932.6000000015,,136946.494,8,400,,,
sequence,flow.Sequence,4_29,2023-09-08T19:48:16.324Z,,0,,,2568.5860000000102,completion,,,,,false,,,,136934.5,136933,134347.764,134362.29999999702,134364.414,136946.494,8,400,,,
trial,html.Screen,4_30_0,2023-09-08T19:48:19.398Z,,0,1,,3061.405999998504,response,ISIC_0015044.JPG,5,ISIC_0579047.JPG,ISIC_0015044.JPG,false,1,keypress(m),500,140009.29999999702,140007.8999999985,136929.844,136935.29999999702,136946.494,140028.357,8,400,31,,ISIC_0579047.JPG
break,html.Screen,4_30_1,2023-09-08T19:48:19.403Z,,0,,,NaN,,,,,,false,,,,140014.29999999702,140012.8999999985,,140011.29999999702,,140028.357,8,400,,,
break_continue,html.Screen,4_30_2,2023-09-08T19:48:19.405Z,,0,,,NaN,,,,,,false,,,,140016.3999999985,140015.69999999553,,140015.1000000015,,140028.357,8,400,,,
sequence,flow.Sequence,4_30,2023-09-08T19:48:19.407Z,,0,,,3069.2059999955236,completion,,,,,false,,,,140017.6000000015,140015.69999999553,136929.844,136935,136946.494,140028.357,8,400,,,
trial,html.Screen,4_31_0,2023-09-08T19:48:22.163Z,,0,1,,2743.3429999955406,response,ISIC_7801289.JPG,5,ISIC_9685480.JPG,ISIC_7801289.JPG,false,1,keypress(m),500,142773.6000000015,142771.69999999553,140011.707,140018.6000000015,140028.357,142793.696,8,400,32,,ISIC_9685480.JPG
break,html.Screen,4_31_1,2023-09-08T19:48:22.168Z,,0,,,NaN,,,,,,false,,,,142778.69999999553,142776.79999999702,,142774.8999999985,,142793.696,8,400,,,
break_continue,html.Screen,4_31_2,2023-09-08T19:48:22.171Z,,0,,,NaN,,,,,,false,,,,142781.5,142780.6000000015,,142779.69999999553,,142793.696,8,400,,,
sequence,flow.Sequence,4_31,2023-09-08T19:48:22.172Z,,0,,,2752.243000001501,completion,,,,,false,,,,142783,142780.6000000015,140011.707,140018.29999999702,140028.357,142793.696,8,400,,,
trial,html.Screen,4_32_0,2023-09-08T19:48:25.863Z,,0,1,,3679.2039999985136,response,ISIC_0011498.JPG,5,ISIC_9713706.JPG,ISIC_0011498.JPG,false,1,keypress(m),500,146473.5,146472.8999999985,142777.046,142784,142793.696,146491.946,8,400,33,,ISIC_9713706.JPG
break,html.Screen,4_32_1,2023-09-08T19:48:25.864Z,,0,,,NaN,,,,,,false,,,,146475.5,146474.8999999985,,146474,,146491.946,8,400,,,
break_continue,html.Screen,4_32_2,2023-09-08T19:48:25.865Z,,0,,,NaN,,,,,,false,,,,146476.5,146476.1000000015,,146475.79999999702,,146491.946,8,400,,,
sequence,flow.Sequence,4_32,2023-09-08T19:48:25.866Z,,0,,,3682.404000001494,completion,,,,,false,,,,146476.8999999985,146476.1000000015,142777.046,142783.8999999985,142793.696,146491.946,8,400,,,
trial,html.Screen,4_33_0,2023-09-08T19:48:29.030Z,,0,1,,3147.3539999970235,response,ISIC_0033250.JPG,5,ISIC_2310935.JPG,ISIC_2310935.JPG,false,0,keypress(z),500,149640.5,149639.29999999702,146475.296,146477.19999999553,146491.946,149657.083,8,400,34,,ISIC_0033250.JPG
break,html.Screen,4_33_1,2023-09-08T19:48:29.033Z,,0,,,NaN,,,,,,false,,,,149644.1000000015,149643.5,,149641.69999999553,,149657.083,8,400,,,
break_continue,html.Screen,4_33_2,2023-09-08T19:48:29.035Z,,0,,,NaN,,,,,,false,,,,149646,149645.5,,149645,,149657.083,8,400,,,
sequence,flow.Sequence,4_33,2023-09-08T19:48:29.036Z,,0,,,3153.5540000000037,completion,,,,,false,,,,149646.69999999553,149645.5,146475.296,146477.1000000015,146491.946,149657.083,8,400,,,
trial,html.Screen,4_34_0,2023-09-08T19:48:32.044Z,,0,1,,2997.3169999984966,response,ISIC_0013558.JPG,4,ISIC_0054925.JPG,ISIC_0054925.JPG,false,0,keypress(z),500,152655.29999999702,152654.3999999985,149640.433,149647.29999999702,149657.083,152672.308,8,400,35,,ISIC_0013558.JPG
break,html.Screen,4_34_1,2023-09-08T19:48:32.048Z,,0,,,NaN,,,,,,false,,,,152659,152658,,152657,,152672.308,8,400,,,
break_continue,html.Screen,4_34_2,2023-09-08T19:48:32.050Z,,0,,,NaN,,,,,,false,,,,152661.19999999553,152660.69999999553,,152659.69999999553,,152672.308,8,400,,,
sequence,flow.Sequence,4_34,2023-09-08T19:48:32.051Z,,0,,,3003.6169999955164,completion,,,,,false,,,,152661.79999999702,152660.69999999553,149640.433,149647.19999999553,149657.083,152672.308,8,400,,,
trial,html.Screen,4_35_0,2023-09-08T19:48:35.160Z,,0,1,,3097.19200000001,response,ISIC_7901891.JPG,5,ISIC_0374029.JPG,ISIC_7901891.JPG,false,1,keypress(m),500,155771,155769.5,152655.658,152662.19999999553,152672.308,155787.491,8,400,36,,ISIC_0374029.JPG
break,html.Screen,4_35_1,2023-09-08T19:48:35.167Z,,0,,,NaN,,,,,,false,,,,155777.6000000015,155776.29999999702,,155772.69999999553,,155787.491,8,400,,,
break_continue,html.Screen,4_35_2,2023-09-08T19:48:35.168Z,,0,,,NaN,,,,,,false,,,,155779.5,155778.79999999702,,155778.29999999702,,155787.491,8,400,,,
sequence,flow.Sequence,4_35,2023-09-08T19:48:35.169Z,,0,,,3106.49199999703,completion,,,,,false,,,,155780.29999999702,155778.79999999702,152655.658,152662.1000000015,152672.308,155787.491,8,400,,,
trial,html.Screen,4_36_0,2023-09-08T19:48:40.116Z,,0,1,,4938.308999997011,response,ISIC_0028751.JPG,5,ISIC_0781380.JPG,ISIC_0781380.JPG,false,0,keypress(z),500,160726.6000000015,160725.79999999702,155770.841,155781,155787.491,160735.128,8,400,37,,ISIC_0028751.JPG
break,html.Screen,4_36_1,2023-09-08T19:48:40.119Z,,0,,,NaN,,,,,,false,,,,160729.8999999985,160728.6000000015,,160727.29999999702,,160735.128,8,400,,,
break_continue,html.Screen,4_36_2,2023-09-08T19:48:40.121Z,,0,,,NaN,,,,,,false,,,,160731.6000000015,160730.8999999985,,160730.5,,160735.128,8,400,,,
sequence,flow.Sequence,4_36,2023-09-08T19:48:40.121Z,,0,,,4943.408999998501,completion,,,,,false,,,,160732.3999999985,160730.8999999985,155770.841,155780.79999999702,155787.491,160735.128,8,400,,,
trial,html.Screen,4_37_0,2023-09-08T19:48:42.815Z,,0,1,,2689.472000001493,response,ISIC_0069379.JPG,4,ISIC_5798331.JPG,ISIC_5798331.JPG,false,0,keypress(z),500,163426.19999999553,163424.6000000015,160718.478,160733,160735.128,163433.843,8,400,38,,ISIC_0069379.JPG
break,html.Screen,4_37_1,2023-09-08T19:48:42.822Z,,0,,,NaN,,,,,,false,,,,163433,163431.29999999702,,163427.8999999985,,163433.843,8,400,,,
break_continue,html.Screen,4_37_2,2023-09-08T19:48:42.824Z,,0,,,NaN,,,,,,false,,,,163435.29999999702,163435,,163434.6000000015,,163433.843,8,400,,,
sequence,flow.Sequence,4_37,2023-09-08T19:48:42.825Z,,0,,,2699.872000000003,completion,,,,,false,,,,163435.79999999702,163435,160718.478,160732.79999999702,160735.128,163433.843,8,400,,,
trial,html.Screen,4_38_0,2023-09-08T19:48:45.387Z,,0,1,,2562.1570000000065,response,ISIC_0071988.JPG,4,ISIC_3505339.JPG,ISIC_0071988.JPG,false,1,keypress(m),500,165997.8999999985,165996,163417.193,163436.1000000015,163433.843,166015.945,8,400,39,,ISIC_3505339.JPG
break,html.Screen,4_38_1,2023-09-08T19:48:45.394Z,,0,,,NaN,,,,,,false,,,,166005.1000000015,166003.5,,165999.69999999553,,166015.945,8,400,,,
break_continue,html.Screen,4_38_2,2023-09-08T19:48:45.398Z,,0,,,NaN,,,,,,false,,,,166008.5,166007.3999999985,,166006.3999999985,,166015.945,8,400,,,
sequence,flow.Sequence,4_38,2023-09-08T19:48:45.399Z,,0,,,2573.5569999985164,completion,,,,,false,,,,166010.29999999702,166007.3999999985,163417.193,163436,163433.843,166015.945,8,400,,,
trial,html.Screen,4_39_0,2023-09-08T19:48:47.987Z,,0,1,,2581.655000001483,response,ISIC_0067170.JPG,5,ISIC_0067395.JPG,ISIC_0067170.JPG,false,1,keypress(m),500,168598.29999999702,168597.6000000015,165999.295,166011.29999999702,166015.945,168614.702,8,400,40,,ISIC_0067395.JPG
break,html.Screen,4_39_1,2023-09-08T19:48:47.990Z,,0,,,NaN,,,,,,false,,,,168601,168599.8999999985,,168598.79999999702,,168614.702,8,400,,,
break_continue,html.Screen,4_39_2,2023-09-08T19:48:47.991Z,,0,,,NaN,,,,,,false,,,,168602.5,168601.8999999985,,168601.5,,168614.702,8,400,,,
sequence,flow.Sequence,4_39,2023-09-08T19:48:47.992Z,,0,,,2585.954999998503,completion,,,,,false,,,,168603.19999999553,168601.8999999985,165999.295,166011.19999999553,166015.945,168614.702,8,400,,,
trial,html.Screen,4_40_0,2023-09-08T19:48:50.685Z,,0,1,,2679.79800000001,response,ISIC_3449290.JPG,4,ISIC_0034000.JPG,ISIC_0034000.JPG,false,0,keypress(z),500,171295.69999999553,171294.5,168598.052,168603.69999999553,168614.702,171313.41,8,400,41,,ISIC_3449290.JPG
break,html.Screen,4_40_1,2023-09-08T19:48:50.687Z,,0,,,NaN,,,,,,false,,,,171298.1000000015,171297.5,,171296.1000000015,,171313.41,8,400,,,
break_continue,html.Screen,4_40_2,2023-09-08T19:48:50.688Z,,0,,,NaN,,,,,,false,,,,171299.1000000015,171298.69999999553,,171298.3999999985,,171313.41,8,400,,,
sequence,flow.Sequence,4_40,2023-09-08T19:48:50.689Z,,0,,,2683.9979999955394,completion,,,,,false,,,,171299.6000000015,171298.69999999553,168598.052,168603.6000000015,168614.702,171313.41,8,400,,,
trial,html.Screen,4_41_0,2023-09-08T19:48:53.397Z,,0,1,,2693.0899999999965,response,ISIC_4836699.JPG,4,ISIC_0010533.JPG,ISIC_4836699.JPG,false,1,keypress(m),500,174008,174006.5,171296.76,171300,171313.41,174028.771,8,400,42,,ISIC_0010533.JPG
break,html.Screen,4_41_1,2023-09-08T19:48:53.405Z,,0,,,NaN,,,,,,false,,,,174016,174014,,174009.69999999553,,174028.771,8,400,,,
break_continue,html.Screen,4_41_2,2023-09-08T19:48:53.406Z,,0,,,NaN,,,,,,false,,,,174017,174016.6000000015,,174016.3999999985,,174028.771,8,400,,,
sequence,flow.Sequence,4_41,2023-09-08T19:48:53.406Z,,0,,,2703.1900000014866,completion,,,,,false,,,,174017.3999999985,174016.6000000015,171296.76,171299.79999999702,171313.41,174028.771,8,400,,,
trial,html.Screen,4_42_0,2023-09-08T19:48:57.110Z,,0,1,,3690.628999998502,response,ISIC_1793821.JPG,5,ISIC_0031325.JPG,ISIC_1793821.JPG,false,1,keypress(m),500,177720.79999999702,177719.3999999985,174012.121,174017.69999999553,174028.771,177727.022,8,400,43,,ISIC_0031325.JPG
break,html.Screen,4_42_1,2023-09-08T19:48:57.113Z,,0,,,NaN,,,,,,false,,,,177724,177723,,177721.8999999985,,177727.022,8,400,,,
break_continue,html.Screen,4_42_2,2023-09-08T19:48:57.115Z,,0,,,NaN,,,,,,false,,,,177725.79999999702,177725.1000000015,,177724.6000000015,,177727.022,8,400,,,
sequence,flow.Sequence,4_42,2023-09-08T19:48:57.116Z,,0,,,3696.329000001482,completion,,,,,false,,,,177726.6000000015,177725.1000000015,174012.121,174017.69999999553,174028.771,177727.022,8,400,,,
trial,html.Screen,4_43_0,2023-09-08T19:48:59.660Z,,0,1,,2542.7779999970226,response,ISIC_4734950.JPG,5,ISIC_0032861.JPG,ISIC_0032861.JPG,false,0,keypress(z),500,180271.3999999985,180269.79999999702,177710.372,177727.5,177727.022,180292.439,8,400,44,,ISIC_4734950.JPG
break,html.Screen,4_43_1,2023-09-08T19:48:59.668Z,,0,,,NaN,,,,,,false,,,,180279.3999999985,180277.69999999553,,180273.1000000015,,180292.439,8,400,,,
break_continue,html.Screen,4_43_2,2023-09-08T19:48:59.672Z,,0,,,NaN,,,,,,false,,,,180282.8999999985,180281.8999999985,,180280.79999999702,,180292.439,8,400,,,
sequence,flow.Sequence,4_43,2023-09-08T19:48:59.672Z,,0,,,2554.8779999985127,completion,,,,,false,,,,180283.3999999985,180281.8999999985,177710.372,177727,177727.022,180292.439,8,400,,,
trial,html.Screen,4_44_0,2023-09-08T19:49:02.892Z,,0,1,,3209.661000001477,response,ISIC_4646815.JPG,5,ISIC_0059897.JPG,ISIC_0059897.JPG,false,0,keypress(z),500,183503.3999999985,183502.1000000015,180275.789,180283.79999999702,180292.439,183524.237,8,400,45,,ISIC_4646815.JPG
break,html.Screen,4_44_1,2023-09-08T19:49:02.899Z,,0,,,NaN,,,,,,false,,,,183509.69999999553,183506.29999999702,,183504.69999999553,,183524.237,8,400,,,
break_continue,html.Screen,4_44_2,2023-09-08T19:49:02.902Z,,0,,,NaN,,,,,,false,,,,183513.3999999985,183512,,183510.8999999985,,183524.237,8,400,,,
sequence,flow.Sequence,4_44,2023-09-08T19:49:02.904Z,,0,,,3219.560999999987,completion,,,,,false,,,,183515.29999999702,183512,180275.789,180283.69999999553,180292.439,183524.237,8,400,,,
trial,html.Screen,4_45_0,2023-09-08T19:49:05.794Z,,0,1,,2879.562999997026,response,ISIC_0068314.JPG,5,ISIC_6098768.JPG,ISIC_6098768.JPG,false,0,keypress(z),500,186405,186403.79999999702,183507.587,183516.29999999702,183524.237,186422.84,8,400,46,,ISIC_0068314.JPG
break,html.Screen,4_45_1,2023-09-08T19:49:05.799Z,,0,,,NaN,,,,,,false,,,,186410.29999999702,186408.5,,186406.5,,186422.84,8,400,,,
break_continue,html.Screen,4_45_2,2023-09-08T19:49:05.800Z,,0,,,NaN,,,,,,false,,,,186411.3999999985,186410.8999999985,,186410.6000000015,,186422.84,8,400,,,
sequence,flow.Sequence,4_45,2023-09-08T19:49:05.801Z,,0,,,2886.662999998516,completion,,,,,false,,,,186411.8999999985,186410.8999999985,183507.587,183516.19999999553,183524.237,186422.84,8,400,,,
trial,html.Screen,4_46_0,2023-09-08T19:49:08.384Z,,0,1,,2570.2600000014936,response,ISIC_0004352.JPG,10,ISIC_0028129.JPG,ISIC_0028129.JPG,false,0,keypress(z),500,188994.6000000015,188993.1000000015,186406.19,186412.29999999702,186422.84,189004.952,8,400,47,,ISIC_0004352.JPG
break,html.Screen,4_46_1,2023-09-08T19:49:08.387Z,,0,,,NaN,,,,,,false,,,,188997.6000000015,188996.79999999702,,188995.6000000015,,189004.952,8,400,,,
break_continue,html.Screen,4_46_2,2023-09-08T19:49:08.389Z,,0,,,NaN,,,,,,false,,,,188999.5,188998.79999999702,,188998.29999999702,,189004.952,8,400,,,
sequence,flow.Sequence,4_46,2023-09-08T19:49:08.390Z,,0,,,2575.9599999970233,completion,,,,,false,,,,189000.6000000015,188998.79999999702,186406.19,186412.19999999553,186422.84,189004.952,8,400,,,
trial,html.Screen,4_47_0,2023-09-08T19:49:10.987Z,,0,1,,2591.1480000015,response,ISIC_0072174.JPG,5,ISIC_0034239.JPG,ISIC_0072174.JPG,false,1,keypress(m),500,191597.69999999553,191596.1000000015,188988.302,189001.5,189004.952,191603.72,8,400,48,,ISIC_0034239.JPG
break,html.Screen,4_47_1,2023-09-08T19:49:10.995Z,,0,,,NaN,,,,,,false,,,,191605.79999999702,191605.29999999702,,191599.79999999702,,191603.72,8,400,,,
break_continue,html.Screen,4_47_2,2023-09-08T19:49:10.996Z,,0,,,NaN,,,,,,false,,,,191606.8999999985,191606.5,,191606.19999999553,,191603.72,8,400,,,
sequence,flow.Sequence,4_47,2023-09-08T19:49:10.996Z,,0,,,2601.54800000001,completion,,,,,false,,,,191607.29999999702,191606.5,188988.302,189001.29999999702,189004.952,191603.72,8,400,,,
trial,html.Screen,4_48_0,2023-09-08T19:49:13.841Z,,0,1,,2846.9799999955285,response,ISIC_0027072.JPG,5,ISIC_0004686.JPG,ISIC_0027072.JPG,false,1,keypress(m),500,194452,194450.69999999553,191587.07,191607.6000000015,191603.72,194468.993,8,400,49,,ISIC_0004686.JPG
break,html.Screen,4_48_1,2023-09-08T19:49:13.846Z,,0,,,NaN,,,,,,false,,,,194457.19999999553,194456,,194453.79999999702,,194468.993,8,400,,,
break_continue,html.Screen,4_48_2,2023-09-08T19:49:13.849Z,,0,,,NaN,,,,,,false,,,,194460,194459,,194458.1000000015,,194468.993,8,400,,,
sequence,flow.Sequence,4_48,2023-09-08T19:49:13.851Z,,0,,,2855.279999999999,completion,,,,,false,,,,194461.5,194459,191587.07,191607.5,191603.72,194468.993,8,400,,,
trial,html.Screen,4_49_0,2023-09-08T19:49:16.414Z,,0,1,,2554.806999997032,response,ISIC_0056413.JPG,5,ISIC_5298216.JPG,ISIC_0056413.JPG,false,1,keypress(m),500,197025.29999999702,197023.79999999702,194452.343,194462.5,194468.993,197034.445,8,400,50,,ISIC_5298216.JPG
break,html.Screen,4_49_1,2023-09-08T19:49:26.404Z,,0,,,9995.475999999995,timeout,,,,,false,,,,207014.8999999985,207013.261,197017.795,197027,197034.445,207029.921,8,400,,,
break_continue,html.Screen,4_49_2,2023-09-08T19:49:28.225Z,,0,,,1757.9789999985078,response,,,,,false,continue,keypress(Space),,208836.3999999985,208787.8999999985,207013.261,207015.29999999702,207029.921,208844.791,8,400,,,
sequence,flow.Sequence,4_49,2023-09-08T19:49:28.226Z,,0,,,14318.906999998522,completion,,,,,false,,,,208836.8999999985,208787.8999999985,194452.343,194462.29999999702,194468.993,208844.791,8,400,,,
trial,html.Screen,4_50_0,2023-09-08T19:49:31.071Z,,0,2,,2835.6089999985124,response,ISIC_0011007.JPG,4,ISIC_1668831.JPG,ISIC_0011007.JPG,false,1,keypress(m),500,211681.79999999702,211680.3999999985,208828.141,208837.1000000015,208844.791,211692.799,8,400,1,,ISIC_1668831.JPG
break,html.Screen,4_50_1,2023-09-08T19:49:31.075Z,,0,,,NaN,,,,,,false,,,,211686.5,211684.8999999985,,211683.1000000015,,211692.799,8,400,,,
break_continue,html.Screen,4_50_2,2023-09-08T19:49:31.079Z,,0,,,NaN,,,,,,false,,,,211689.6000000015,211688.5,,211687.5,,211692.799,8,400,,,
sequence,flow.Sequence,4_50,2023-09-08T19:49:31.080Z,,0,,,2843.7090000000026,completion,,,,,false,,,,211691.1000000015,211688.5,208828.141,208837,208844.791,211692.799,8,400,,,
trial,html.Screen,4_51_0,2023-09-08T19:49:33.802Z,,0,2,,2718.801000001491,response,ISIC_0033324.JPG,5,ISIC_9933790.JPG,ISIC_0033324.JPG,false,1,keypress(m),500,214413.29999999702,214411.6000000015,211676.149,211691.5,211692.799,214423.471,8,400,2,,ISIC_9933790.JPG
break,html.Screen,4_51_1,2023-09-08T19:49:33.809Z,,0,,,NaN,,,,,,false,,,,214419.79999999702,214417.5,,214415,,214423.471,8,400,,,
break_continue,html.Screen,4_51_2,2023-09-08T19:49:33.811Z,,0,,,NaN,,,,,,false,,,,214421.69999999553,214421.3999999985,,214421,,214423.471,8,400,,,
sequence,flow.Sequence,4_51,2023-09-08T19:49:33.811Z,,0,,,2728.600999998511,completion,,,,,false,,,,214422.19999999553,214421.3999999985,211676.149,211691.3999999985,211692.799,214423.471,8,400,,,
trial,html.Screen,4_52_0,2023-09-08T19:49:36.642Z,,0,2,,2828.5290000000095,response,ISIC_7409889.JPG,2,ISIC_0069121.JPG,ISIC_7409889.JPG,false,1,keypress(m),500,217252.6000000015,217252,214406.821,214422.5,214423.471,217270.682,8,400,3,,ISIC_0069121.JPG
break,html.Screen,4_52_1,2023-09-08T19:49:36.643Z,,0,,,NaN,,,,,,false,,,,217254.29999999702,217253.6000000015,,217252.8999999985,,217270.682,8,400,,,
break_continue,html.Screen,4_52_2,2023-09-08T19:49:36.644Z,,0,,,NaN,,,,,,false,,,,217255.3999999985,217254.8999999985,,217254.69999999553,,217270.682,8,400,,,
sequence,flow.Sequence,4_52,2023-09-08T19:49:36.645Z,,0,,,2831.4289999985194,completion,,,,,false,,,,217255.79999999702,217254.8999999985,214406.821,214422.3999999985,214423.471,217270.682,8,400,,,
trial,html.Screen,4_53_0,2023-09-08T19:49:41.033Z,,0,2,,4371.317999999999,response,ISIC_0011508.JPG,5,ISIC_4240225.JPG,ISIC_0011508.JPG,false,1,keypress(m),500,221643.79999999702,221642,217254.032,217256.1000000015,217270.682,221666.38,8,400,4,,ISIC_4240225.JPG
break,html.Screen,4_53_1,2023-09-08T19:49:41.038Z,,0,,,NaN,,,,,,false,,,,221649.3999999985,221647.6000000015,,221645.5,,221666.38,8,400,,,
break_continue,html.Screen,4_53_2,2023-09-08T19:49:41.042Z,,0,,,NaN,,,,,,false,,,,221653.1000000015,221652.69999999553,,221651.5,,221666.38,8,400,,,
sequence,flow.Sequence,4_53,2023-09-08T19:49:41.043Z,,0,,,4382.017999995529,completion,,,,,false,,,,221653.69999999553,221652.69999999553,217254.032,217256,217270.682,221666.38,8,400,,,
trial,html.Screen,4_54_0,2023-09-08T19:49:43.718Z,,0,2,,2662.1199999999953,response,ISIC_4803943.JPG,5,ISIC_0033472.JPG,ISIC_0033472.JPG,false,0,keypress(z),500,224329.29999999702,224328.5,221649.73,221654,221666.38,224347.089,8,400,5,,ISIC_4803943.JPG
break,html.Screen,4_54_1,2023-09-08T19:49:43.722Z,,0,,,NaN,,,,,,false,,,,224333.19999999553,224332.3999999985,,224330.5,,224347.089,8,400,,,
break_continue,html.Screen,4_54_2,2023-09-08T19:49:43.724Z,,0,,,NaN,,,,,,false,,,,224335.1000000015,224334.3999999985,,224333.8999999985,,224347.089,8,400,,,
sequence,flow.Sequence,4_54,2023-09-08T19:49:43.725Z,,0,,,2668.019999998505,completion,,,,,false,,,,224336.1000000015,224334.3999999985,221649.73,221653.8999999985,221666.38,224347.089,8,400,,,
trial,html.Screen,4_55_0,2023-09-08T19:49:46.706Z,,0,2,,2969.7109999970126,response,ISIC_3529778.JPG,5,ISIC_2123159.JPG,ISIC_3529778.JPG,false,1,keypress(m),500,227317.29999999702,227316.79999999702,224330.439,224336.79999999702,224347.089,227327.52,8,400,6,,ISIC_2123159.JPG
break,html.Screen,4_55_1,2023-09-08T19:49:46.708Z,,0,,,NaN,,,,,,false,,,,227319.5,227318.5,,227317.69999999553,,227327.52,8,400,,,
break_continue,html.Screen,4_55_2,2023-09-08T19:49:46.709Z,,0,,,NaN,,,,,,false,,,,227320.5,227320.1000000015,,227319.69999999553,,227327.52,8,400,,,
sequence,flow.Sequence,4_55,2023-09-08T19:49:46.710Z,,0,,,2973.011000001483,completion,,,,,false,,,,227320.79999999702,227320.1000000015,224330.439,224336.6000000015,224347.089,227327.52,8,400,,,
trial,html.Screen,4_56_0,2023-09-08T19:49:50.347Z,,0,2,,3628.4800000000105,response,ISIC_0028003.JPG,4,ISIC_3148886.JPG,ISIC_3148886.JPG,false,0,keypress(z),500,230957.6000000015,230956,227310.87,227321.19999999553,227327.52,230973.943,8,400,7,,ISIC_0028003.JPG
break,html.Screen,4_56_1,2023-09-08T19:49:50.352Z,,0,,,NaN,,,,,,false,,,,230963.1000000015,230961.6000000015,,230959.29999999702,,230973.943,8,400,,,
break_continue,html.Screen,4_56_2,2023-09-08T19:49:50.355Z,,0,,,NaN,,,,,,false,,,,230966.1000000015,230965.6000000015,,230964.3999999985,,230973.943,8,400,,,
sequence,flow.Sequence,4_56,2023-09-08T19:49:50.356Z,,0,,,3638.0800000015006,completion,,,,,false,,,,230966.5,230965.6000000015,227310.87,227321,227327.52,230973.943,8,400,,,
trial,html.Screen,4_57_0,2023-09-08T19:49:53.507Z,,0,2,,3143.0570000000007,response,ISIC_0347984.JPG,5,ISIC_4666619.JPG,ISIC_0347984.JPG,false,1,keypress(m),500,234118.1000000015,234117,230957.293,230966.79999999702,230973.943,234137.514,8,400,8,,ISIC_4666619.JPG
break,html.Screen,4_57_1,2023-09-08T19:49:53.511Z,,0,,,NaN,,,,,,false,,,,234122.3999999985,234121.6000000015,,234119.19999999553,,234137.514,8,400,,,
break_continue,html.Screen,4_57_2,2023-09-08T19:49:53.513Z,,0,,,NaN,,,,,,false,,,,234124,234123.5,,234122.8999999985,,234137.514,8,400,,,
sequence,flow.Sequence,4_57,2023-09-08T19:49:53.514Z,,0,,,3149.5570000000007,completion,,,,,false,,,,234124.69999999553,234123.5,230957.293,230966.79999999702,230973.943,234137.514,8,400,,,
trial,html.Screen,4_58_0,2023-09-08T19:49:57.681Z,,0,2,,4153.986000000004,response,ISIC_0010140.JPG,4,ISIC_3009493.JPG,ISIC_0010140.JPG,false,1,keypress(m),500,238292.29999999702,238291.5,234120.864,234125.3999999985,234137.514,238300.109,8,400,9,,ISIC_3009493.JPG
break,html.Screen,4_58_1,2023-09-08T19:49:57.684Z,,0,,,NaN,,,,,,false,,,,238294.69999999553,238294,,238292.79999999702,,238300.109,8,400,,,
break_continue,html.Screen,4_58_2,2023-09-08T19:49:57.685Z,,0,,,NaN,,,,,,false,,,,238296,238295.5,,238294.8999999985,,238300.109,8,400,,,
sequence,flow.Sequence,4_58,2023-09-08T19:49:57.686Z,,0,,,4157.986000000004,completion,,,,,false,,,,238296.6000000015,238295.5,234120.864,234125.19999999553,234137.514,238300.109,8,400,,,
trial,html.Screen,4_59_0,2023-09-08T19:50:00.548Z,,0,2,,2857.3910000000033,response,ISIC_0027187.JPG,6,ISIC_4019724.JPG,ISIC_0027187.JPG,false,1,keypress(m),500,241158.69999999553,241157.5,238283.459,238296.8999999985,238300.109,241163.978,8,400,10,,ISIC_4019724.JPG
break,html.Screen,4_59_1,2023-09-08T19:50:00.553Z,,0,,,NaN,,,,,,false,,,,241163.69999999553,241161.69999999553,,241160,,241163.978,8,400,,,
break_continue,html.Screen,4_59_2,2023-09-08T19:50:00.557Z,,0,,,NaN,,,,,,false,,,,241167.6000000015,241166.3999999985,,241165.5,,241163.978,8,400,,,
sequence,flow.Sequence,4_59,2023-09-08T19:50:00.558Z,,0,,,2866.290999998513,completion,,,,,false,,,,241168.79999999702,241166.3999999985,238283.459,238296.79999999702,238300.109,241163.978,8,400,,,
trial,html.Screen,4_60_0,2023-09-08T19:50:03.137Z,,0,2,,2582.221999995527,response,ISIC_0071168.JPG,6,ISIC_0013867.JPG,ISIC_0013867.JPG,false,0,keypress(z),500,243747.69999999553,243746.19999999553,241147.328,241169.1000000015,241163.978,243761.423,8,400,11,,ISIC_0071168.JPG
break,html.Screen,4_60_1,2023-09-08T19:50:03.144Z,,0,,,NaN,,,,,,false,,,,243755.29999999702,243753.79999999702,,243749.5,,243761.423,8,400,,,
break_continue,html.Screen,4_60_2,2023-09-08T19:50:03.145Z,,0,,,NaN,,,,,,false,,,,243756.29999999702,243755.8999999985,,243755.6000000015,,243761.423,8,400,,,
sequence,flow.Sequence,4_60,2023-09-08T19:50:03.146Z,,0,,,2591.921999998507,completion,,,,,false,,,,243756.69999999553,243755.8999999985,241147.328,241169,241163.978,243761.423,8,400,,,
trial,html.Screen,4_61_0,2023-09-08T19:50:05.765Z,,0,2,,2614.37699999701,response,ISIC_0012054.JPG,5,ISIC_0032914.JPG,ISIC_0012054.JPG,false,1,keypress(m),500,246376.19999999553,246375.79999999702,243744.773,243757.1000000015,243761.423,246392.187,8,400,12,,ISIC_0032914.JPG
break,html.Screen,4_61_1,2023-09-08T19:50:05.767Z,,0,,,NaN,,,,,,false,,,,246378.29999999702,246377.69999999553,,246376.69999999553,,246392.187,8,400,,,
break_continue,html.Screen,4_61_2,2023-09-08T19:50:05.768Z,,0,,,NaN,,,,,,false,,,,246379.29999999702,246378.8999999985,,246378.6000000015,,246392.187,8,400,,,
sequence,flow.Sequence,4_61,2023-09-08T19:50:05.769Z,,0,,,2617.4769999985,completion,,,,,false,,,,246379.69999999553,246378.8999999985,243744.773,243756.8999999985,243761.423,246392.187,8,400,,,
trial,html.Screen,4_62_0,2023-09-08T19:50:09.277Z,,0,2,,3495.0129999955243,response,ISIC_0024321.JPG,4,ISIC_0064463.JPG,ISIC_0064463.JPG,false,0,keypress(z),500,249888.29999999702,249887.19999999553,246375.537,246380.1000000015,246392.187,249905.414,8,400,13,,ISIC_0024321.JPG
break,html.Screen,4_62_1,2023-09-08T19:50:09.282Z,,0,,,NaN,,,,,,false,,,,249893.3999999985,249892.1000000015,,249889.5,,249905.414,8,400,,,
break_continue,html.Screen,4_62_2,2023-09-08T19:50:09.290Z,,0,,,NaN,,,,,,false,,,,249900.8999999985,249899.8999999985,,249899,,249905.414,8,400,,,
sequence,flow.Sequence,4_62,2023-09-08T19:50:09.291Z,,0,,,3507.7129999985045,completion,,,,,false,,,,249902.3999999985,249899.8999999985,246375.537,246380,246392.187,249905.414,8,400,,,
trial,html.Screen,4_63_0,2023-09-08T19:50:11.839Z,,0,2,,2543.0860000000102,response,ISIC_0057669.JPG,5,ISIC_0067521.JPG,ISIC_0067521.JPG,false,0,keypress(z),500,252450.1000000015,252448.5,249888.764,249903.5,249905.414,252469.571,8,400,14,,ISIC_0057669.JPG
break,html.Screen,4_63_1,2023-09-08T19:50:11.845Z,,0,,,NaN,,,,,,false,,,,252456.29999999702,252454.69999999553,,252451.6000000015,,252469.571,8,400,,,
break_continue,html.Screen,4_63_2,2023-09-08T19:50:11.848Z,,0,,,NaN,,,,,,false,,,,252458.5,252458,,252457.3999999985,,252469.571,8,400,,,
sequence,flow.Sequence,4_63,2023-09-08T19:50:11.848Z,,0,,,2552.5860000000102,completion,,,,,false,,,,252459,252458,249888.764,249903.1000000015,249905.414,252469.571,8,400,,,
trial,html.Screen,4_64_0,2023-09-08T19:50:15.885Z,,0,2,,4025.029000001494,response,ISIC_0025783.JPG,4,ISIC_0034150.JPG,ISIC_0034150.JPG,false,0,keypress(z),500,256496.1000000015,256494.6000000015,252452.921,252459.19999999553,252469.571,256515.618,8,400,15,,ISIC_0025783.JPG
break,html.Screen,4_64_1,2023-09-08T19:50:15.891Z,,0,,,NaN,,,,,,false,,,,256502,256501.5,,256497.79999999702,,256515.618,8,400,,,
break_continue,html.Screen,4_64_2,2023-09-08T19:50:15.892Z,,0,,,NaN,,,,,,false,,,,256503,256502.6000000015,,256502.3999999985,,256515.618,8,400,,,
sequence,flow.Sequence,4_64,2023-09-08T19:50:15.893Z,,0,,,4033.029000001494,completion,,,,,false,,,,256503.5,256502.6000000015,252452.921,252459.19999999553,252469.571,256515.618,8,400,,,
trial,html.Screen,4_65_0,2023-09-08T19:50:18.691Z,,0,2,,2785.3820000000123,response,ISIC_0061293.JPG,4,ISIC_0026364.JPG,ISIC_0061293.JPG,false,1,keypress(m),500,259301.69999999553,259301,256498.968,256503.8999999985,256515.618,259312.891,8,400,16,,ISIC_0026364.JPG
break,html.Screen,4_65_1,2023-09-08T19:50:18.694Z,,0,,,NaN,,,,,,false,,,,259304.79999999702,259304.1000000015,,259302.29999999702,,259312.891,8,400,,,
break_continue,html.Screen,4_65_2,2023-09-08T19:50:18.695Z,,0,,,NaN,,,,,,false,,,,259306.3999999985,259305.79999999702,,259305.3999999985,,259312.891,8,400,,,
sequence,flow.Sequence,4_65,2023-09-08T19:50:18.696Z,,0,,,2790.181999997032,completion,,,,,false,,,,259307.1000000015,259305.79999999702,256498.968,256503.79999999702,256515.618,259312.891,8,400,,,
trial,html.Screen,4_66_0,2023-09-08T19:50:21.481Z,,0,2,,2778.1089999999967,response,ISIC_0029574.JPG,5,ISIC_0012069.JPG,ISIC_0029574.JPG,false,1,keypress(m),500,262092.29999999702,262091,259296.241,259307.6000000015,259312.891,262110.155,8,400,17,,ISIC_0012069.JPG
break,html.Screen,4_66_1,2023-09-08T19:50:21.486Z,,0,,,NaN,,,,,,false,,,,262097.29999999702,262095.19999999553,,262093.6000000015,,262110.155,8,400,,,
break_continue,html.Screen,4_66_2,2023-09-08T19:50:21.489Z,,0,,,NaN,,,,,,false,,,,262099.8999999985,262099,,262098.19999999553,,262110.155,8,400,,,
sequence,flow.Sequence,4_66,2023-09-08T19:50:21.490Z,,0,,,2786.1089999999967,completion,,,,,false,,,,262101.19999999553,262099,259296.241,259307.5,259312.891,262110.155,8,400,,,
trial,html.Screen,4_67_0,2023-09-08T19:50:24.437Z,,0,2,,2936.144999997021,response,ISIC_0055314.JPG,6,ISIC_0067427.JPG,ISIC_0055314.JPG,false,1,keypress(m),500,265048,265046.299999997,262093.505,262101.6000000015,262110.155,265057.276,8,400,18,,ISIC_0067427.JPG
break,html.Screen,4_67_1,2023-09-08T19:50:24.444Z,,0,,,NaN,,,,,,false,,,,265055,265052.8999999985,,265049.69999999553,,265057.276,8,400,,,
break_continue,html.Screen,4_67_2,2023-09-08T19:50:24.445Z,,0,,,NaN,,,,,,false,,,,265056,265055.6000000015,,265055.299999997,,265057.276,8,400,,,
sequence,flow.Sequence,4_67,2023-09-08T19:50:24.446Z,,0,,,2945.4450000014913,completion,,,,,false,,,,265056.5,265055.6000000015,262093.505,262101.5,262110.155,265057.276,8,400,,,
trial,html.Screen,4_68_0,2023-09-08T19:50:27.083Z,,0,2,,2635.7239999999874,response,ISIC_0025382.JPG,5,ISIC_0010546.JPG,ISIC_0010546.JPG,false,0,keypress(z),500,267694.3999999985,267693,265040.626,265056.799999997,265057.276,267704.675,8,400,19,,ISIC_0025382.JPG
break,html.Screen,4_68_1,2023-09-08T19:50:27.090Z,,0,,,NaN,,,,,,false,,,,267700.69999999553,267699.3999999985,,267695.799999997,,267704.675,8,400,,,
break_continue,html.Screen,4_68_2,2023-09-08T19:50:27.091Z,,0,,,NaN,,,,,,false,,,,267702,267701.6000000015,,267701.299999997,,267704.675,8,400,,,
sequence,flow.Sequence,4_68,2023-09-08T19:50:27.092Z,,0,,,2644.3240000014775,completion,,,,,false,,,,267702.5,267701.6000000015,265040.626,265056.69999999553,265057.276,267704.675,8,400,,,
trial,html.Screen,4_69_0,2023-09-08T19:50:29.875Z,,0,2,,2779.4250000015018,response,ISIC_0057821.JPG,5,ISIC_2784965.JPG,ISIC_0057821.JPG,false,1,keypress(m),500,270485.799999997,270484.1000000015,267688.025,267702.799999997,267704.675,270501.948,8,400,20,,ISIC_2784965.JPG
break,html.Screen,4_69_1,2023-09-08T19:50:29.882Z,,0,,,NaN,,,,,,false,,,,270492.5,270490.799999997,,270487.799999997,,270501.948,8,400,,,
break_continue,html.Screen,4_69_2,2023-09-08T19:50:29.885Z,,0,,,NaN,,,,,,false,,,,270495.8999999985,270494.799999997,,270493.799999997,,270501.948,8,400,,,
sequence,flow.Sequence,4_69,2023-09-08T19:50:29.886Z,,0,,,2790.1249999970314,completion,,,,,false,,,,270496.6000000015,270494.799999997,267688.025,267702.69999999553,267704.675,270501.948,8,400,,,
trial,html.Screen,4_70_0,2023-09-08T19:50:32.598Z,,0,2,,2705.6520000015153,response,ISIC_3738751.JPG,5,ISIC_0002041.JPG,ISIC_3738751.JPG,false,1,keypress(m),500,273209.19999999553,273207.6000000015,270485.298,270496.799999997,270501.948,273215.945,8,400,21,,ISIC_0002041.JPG
break,html.Screen,4_70_1,2023-09-08T19:50:32.602Z,,0,,,NaN,,,,,,false,,,,273213,273211.8999999985,,273210.6000000015,,273215.945,8,400,,,
break_continue,html.Screen,4_70_2,2023-09-08T19:50:32.604Z,,0,,,NaN,,,,,,false,,,,273214.6000000015,273214,,273213.5,,273215.945,8,400,,,
sequence,flow.Sequence,4_70,2023-09-08T19:50:32.604Z,,0,,,2712.052000000025,completion,,,,,false,,,,273215.299999997,273214,270485.298,270496.69999999553,270501.948,273215.945,8,400,,,
trial,html.Screen,4_71_0,2023-09-08T19:50:35.622Z,,0,2,,3015.554999999993,response,ISIC_0070689.JPG,6,ISIC_5732487.JPG,ISIC_5732487.JPG,false,0,keypress(z),500,276232.8999999985,276231.5,273199.295,273215.799999997,273215.945,276246.324,8,400,22,,ISIC_0070689.JPG
break,html.Screen,4_71_1,2023-09-08T19:50:35.625Z,,0,,,NaN,,,,,,false,,,,276236.1000000015,276235.1000000015,,276233.8999999985,,276246.324,8,400,,,
break_continue,html.Screen,4_71_2,2023-09-08T19:50:35.627Z,,0,,,NaN,,,,,,false,,,,276237.8999999985,276237.299999997,,276236.69999999553,,276246.324,8,400,,,
sequence,flow.Sequence,4_71,2023-09-08T19:50:35.628Z,,0,,,3021.354999997013,completion,,,,,false,,,,276238.799999997,276237.299999997,273199.295,273215.69999999553,273215.945,276246.324,8,400,,,
trial,html.Screen,4_72_0,2023-09-08T19:50:39.202Z,,0,2,,3565.4759999969974,response,ISIC_0065796.JPG,6,ISIC_0059786.JPG,ISIC_0065796.JPG,false,1,keypress(m),500,279813.5,279811.799999997,276229.674,276239.5,276246.324,279826.152,8,400,23,,ISIC_0059786.JPG
break,html.Screen,4_72_1,2023-09-08T19:50:39.207Z,,0,,,NaN,,,,,,false,,,,279818,279817,,279815.1000000015,,279826.152,8,400,,,
break_continue,html.Screen,4_72_2,2023-09-08T19:50:39.208Z,,0,,,NaN,,,,,,false,,,,279819,279818.6000000015,,279818.299999997,,279826.152,8,400,,,
sequence,flow.Sequence,4_72,2023-09-08T19:50:39.208Z,,0,,,3572.2760000014678,completion,,,,,false,,,,279819.5,279818.6000000015,276229.674,276239.299999997,276246.324,279826.152,8,400,,,
trial,html.Screen,4_73_0,2023-09-08T19:50:42.249Z,,0,2,,3032.347999999998,response,ISIC_2851852.JPG,4,ISIC_0025941.JPG,ISIC_0025941.JPG,false,0,keypress(z),500,282860.1000000015,282858.5,279809.502,279819.799999997,279826.152,282873.178,8,400,24,,ISIC_2851852.JPG
break,html.Screen,4_73_1,2023-09-08T19:50:42.256Z,,0,,,NaN,,,,,,false,,,,282866.8999999985,282865.19999999553,,282861.69999999553,,282873.178,8,400,,,
break_continue,html.Screen,4_73_2,2023-09-08T19:50:42.257Z,,0,,,NaN,,,,,,false,,,,282868.5,282868,,282867.799999997,,282873.178,8,400,,,
sequence,flow.Sequence,4_73,2023-09-08T19:50:42.258Z,,0,,,3041.847999999998,completion,,,,,false,,,,282869.19999999553,282868,279809.502,279819.69999999553,279826.152,282873.178,8,400,,,
trial,html.Screen,4_74_0,2023-09-08T19:50:45.711Z,,0,2,,3448.4220000014757,response,ISIC_2519121.JPG,5,ISIC_9332795.JPG,ISIC_2519121.JPG,false,1,keypress(m),500,286322.5,286321.6000000015,282856.528,282869.5,282873.178,286336.439,8,400,25,,ISIC_9332795.JPG
break,html.Screen,4_74_1,2023-09-08T19:50:45.716Z,,0,,,NaN,,,,,,false,,,,286326.799999997,286325.69999999553,,286323.299999997,,286336.439,8,400,,,
break_continue,html.Screen,4_74_2,2023-09-08T19:50:45.718Z,,0,,,NaN,,,,,,false,,,,286329,286328.299999997,,286327.5,,286336.439,8,400,,,
sequence,flow.Sequence,4_74,2023-09-08T19:50:45.719Z,,0,,,3455.1219999970053,completion,,,,,false,,,,286330.299999997,286328.299999997,282856.528,282869.3999999985,282873.178,286336.439,8,400,,,
trial,html.Screen,4_75_0,2023-09-08T19:50:48.882Z,,0,2,,3155.661000001477,response,ISIC_0016131.JPG,5,ISIC_3590814.JPG,ISIC_3590814.JPG,false,0,keypress(z),500,289493.3999999985,289492.1000000015,286319.789,286331.19999999553,286336.439,289500.022,8,400,26,,ISIC_0016131.JPG
break,html.Screen,4_75_1,2023-09-08T19:50:48.886Z,,0,,,NaN,,,,,,false,,,,289496.69999999553,289495.69999999553,,289494.3999999985,,289500.022,8,400,,,
break_continue,html.Screen,4_75_2,2023-09-08T19:50:48.889Z,,0,,,NaN,,,,,,false,,,,289499.6000000015,289498.69999999553,,289498,,289500.022,8,400,,,
sequence,flow.Sequence,4_75,2023-09-08T19:50:48.890Z,,0,,,3162.2609999955166,completion,,,,,false,,,,289500.799999997,289498.69999999553,286319.789,286330.8999999985,286336.439,289500.022,8,400,,,
trial,html.Screen,4_76_0,2023-09-08T19:50:51.810Z,,0,2,,2919.078000001493,response,ISIC_0010171.JPG,5,ISIC_0027235.JPG,ISIC_0010171.JPG,false,1,keypress(m),500,292420.69999999553,292419.1000000015,289483.372,289501.69999999553,289500.022,292430.478,8,400,27,,ISIC_0027235.JPG
break,html.Screen,4_76_1,2023-09-08T19:50:51.817Z,,0,,,NaN,,,,,,false,,,,292427.69999999553,292426.3999999985,,292422.299999997,,292430.478,8,400,,,
break_continue,html.Screen,4_76_2,2023-09-08T19:50:51.818Z,,0,,,NaN,,,,,,false,,,,292428.69999999553,292428.299999997,,292428.1000000015,,292430.478,8,400,,,
sequence,flow.Sequence,4_76,2023-09-08T19:50:51.818Z,,0,,,2928.2779999970226,completion,,,,,false,,,,292429.1000000015,292428.299999997,289483.372,289501.3999999985,289500.022,292430.478,8,400,,,
trial,html.Screen,4_77_0,2023-09-08T19:50:55.543Z,,0,2,,3722.1220000014873,response,ISIC_0064932.JPG,4,ISIC_0027921.JPG,ISIC_0064932.JPG,false,1,keypress(m),500,296153.8999999985,296152.6000000015,292413.828,292429.5,292430.478,296160.165,8,400,28,,ISIC_0027921.JPG
break,html.Screen,4_77_1,2023-09-08T19:50:55.547Z,,0,,,NaN,,,,,,false,,,,296158.299999997,296157,,296155.19999999553,,296160.165,8,400,,,
break_continue,html.Screen,4_77_2,2023-09-08T19:50:55.550Z,,0,,,NaN,,,,,,false,,,,296161.5,296160,,296159.299999997,,296160.165,8,400,,,
sequence,flow.Sequence,4_77,2023-09-08T19:50:55.552Z,,0,,,3729.521999999997,completion,,,,,false,,,,296163,296160,292413.828,292429.3999999985,292430.478,296160.165,8,400,,,
trial,html.Screen,4_78_0,2023-09-08T19:50:58.568Z,,0,2,,3017.935000001511,response,ISIC_7172145.JPG,5,ISIC_0029353.JPG,ISIC_0029353.JPG,false,0,keypress(z),500,299179.299999997,299178.1000000015,296143.515,296164.5,296160.165,299190.546,8,400,29,,ISIC_7172145.JPG
break,html.Screen,4_78_1,2023-09-08T19:50:58.574Z,,0,,,NaN,,,,,,false,,,,299184.799999997,299183.5,,299180.3999999985,,299190.546,8,400,,,
break_continue,html.Screen,4_78_2,2023-09-08T19:50:58.576Z,,0,,,NaN,,,,,,false,,,,299187.5,299186.5,,299185.69999999553,,299190.546,8,400,,,
sequence,flow.Sequence,4_78,2023-09-08T19:50:58.578Z,,0,,,3026.335000000021,completion,,,,,false,,,,299188.8999999985,299186.5,296143.515,296163.8999999985,296160.165,299190.546,8,400,,,
trial,html.Screen,4_79_0,2023-09-08T19:51:01.205Z,,0,2,,2623.753999997047,response,ISIC_0787229.JPG,5,ISIC_0029906.JPG,ISIC_0029906.JPG,false,0,keypress(z),500,301815.799999997,301814.299999997,299173.896,299189.299999997,299190.546,301821.299,8,400,30,,ISIC_0787229.JPG
break,html.Screen,4_79_1,2023-09-08T19:51:01.213Z,,0,,,NaN,,,,,,false,,,,301823.5,301820.69999999553,,301817.5,,301821.299,8,400,,,
break_continue,html.Screen,4_79_2,2023-09-08T19:51:01.215Z,,0,,,NaN,,,,,,false,,,,301825.5,301824.8999999985,,301824.299999997,,301821.299,8,400,,,
sequence,flow.Sequence,4_79,2023-09-08T19:51:01.215Z,,0,,,2634.353999998537,completion,,,,,false,,,,301826.5,301824.8999999985,299173.896,299189.19999999553,299190.546,301821.299,8,400,,,
trial,html.Screen,4_80_0,2023-09-08T19:51:03.787Z,,0,2,,2574.9009999955306,response,ISIC_7489564.JPG,5,ISIC_4448959.JPG,ISIC_7489564.JPG,false,1,keypress(m),500,304397.6000000015,304396.19999999553,301804.649,301827.19999999553,301821.299,304402.111,8,400,31,,ISIC_4448959.JPG
break,html.Screen,4_80_1,2023-09-08T19:51:03.793Z,,0,,,NaN,,,,,,false,,,,304403.8999999985,304401.6000000015,,304399,,304402.111,8,400,,,
break_continue,html.Screen,4_80_2,2023-09-08T19:51:03.796Z,,0,,,NaN,,,,,,false,,,,304407.1000000015,304406.69999999553,,304405.799999997,,304402.111,8,400,,,
sequence,flow.Sequence,4_80,2023-09-08T19:51:03.797Z,,0,,,2585.4009999955306,completion,,,,,false,,,,304407.5,304406.69999999553,301804.649,301826.8999999985,301821.299,304402.111,8,400,,,
trial,html.Screen,4_81_0,2023-09-08T19:51:06.367Z,,0,2,,2574.489000001515,response,ISIC_9743052.JPG,16,ISIC_0014108.JPG,ISIC_0014108.JPG,false,0,keypress(z),500,306978.299999997,306976.6000000015,304385.461,304407.8999999985,304402.111,306982.92,8,400,32,,ISIC_9743052.JPG
break,html.Screen,4_81_1,2023-09-08T19:51:06.375Z,,0,,,NaN,,,,,,false,,,,306985.799999997,306982.8999999985,,306979.8999999985,,306982.92,8,400,,,
break_continue,html.Screen,4_81_2,2023-09-08T19:51:06.377Z,,0,,,NaN,,,,,,false,,,,306987.5,306987.1000000015,,306986.799999997,,306982.92,8,400,,,
sequence,flow.Sequence,4_81,2023-09-08T19:51:06.377Z,,0,,,2584.989000001515,completion,,,,,false,,,,306987.8999999985,306987.1000000015,304385.461,304407.799999997,304402.111,306982.92,8,400,,,
trial,html.Screen,4_82_0,2023-09-08T19:51:10.102Z,,0,2,,3728.5800000000163,response,ISIC_0012721.JPG,4,ISIC_0032424.JPG,ISIC_0032424.JPG,false,0,keypress(z),500,310712.69999999553,310711.5,306966.27,306988.299999997,306982.92,310729.256,8,400,33,,ISIC_0012721.JPG
break,html.Screen,4_82_1,2023-09-08T19:51:10.107Z,,0,,,NaN,,,,,,false,,,,310717.799999997,310716.6000000015,,310713.799999997,,310729.256,8,400,,,
break_continue,html.Screen,4_82_2,2023-09-08T19:51:10.109Z,,0,,,NaN,,,,,,false,,,,310720.299999997,310719.8999999985,,310718.799999997,,310729.256,8,400,,,
sequence,flow.Sequence,4_82,2023-09-08T19:51:10.110Z,,0,,,3736.979999998526,completion,,,,,false,,,,310720.69999999553,310719.8999999985,306966.27,306988.1000000015,306982.92,310729.256,8,400,,,
trial,html.Screen,4_83_0,2023-09-08T19:51:13.390Z,,0,2,,3270.344000001496,response,ISIC_0026150.JPG,5,ISIC_0030829.JPG,ISIC_0030829.JPG,false,0,keypress(z),500,314000.8999999985,313999.6000000015,310712.606,310721.1000000015,310729.256,314009.366,8,400,34,,ISIC_0026150.JPG
break,html.Screen,4_83_1,2023-09-08T19:51:13.395Z,,0,,,NaN,,,,,,false,,,,314006.1000000015,314004.1000000015,,314002.3999999985,,314009.366,8,400,,,
break_continue,html.Screen,4_83_2,2023-09-08T19:51:13.398Z,,0,,,NaN,,,,,,false,,,,314009.3999999985,314008.19999999553,,314007.299999997,,314009.366,8,400,,,
sequence,flow.Sequence,4_83,2023-09-08T19:51:13.399Z,,0,,,3278.9439999955357,completion,,,,,false,,,,314010,314008.19999999553,310712.606,310721,310729.256,314009.366,8,400,,,
trial,html.Screen,4_84_0,2023-09-08T19:51:16.259Z,,0,2,,2859.23400000151,response,ISIC_0238824.JPG,4,ISIC_9241732.JPG,ISIC_9241732.JPG,false,0,keypress(z),500,316869.5,316868.6000000015,313992.716,314010.3999999985,314009.366,316889.881,8,400,35,,ISIC_0238824.JPG
break,html.Screen,4_84_1,2023-09-08T19:51:16.261Z,,0,,,NaN,,,,,,false,,,,316872.3999999985,316871.5,,316870.3999999985,,316889.881,8,400,,,
break_continue,html.Screen,4_84_2,2023-09-08T19:51:16.264Z,,0,,,NaN,,,,,,false,,,,316875.1000000015,316874.299999997,,316873,,316889.881,8,400,,,
sequence,flow.Sequence,4_84,2023-09-08T19:51:16.265Z,,0,,,2864.93399999704,completion,,,,,false,,,,316876.19999999553,316874.299999997,313992.716,314010.299999997,314009.366,316889.881,8,400,,,
trial,html.Screen,4_85_0,2023-09-08T19:51:19.376Z,,0,2,,3095.8189999955357,response,ISIC_7010552.JPG,5,ISIC_0046741.JPG,ISIC_7010552.JPG,false,1,keypress(m),500,319987.19999999553,319985.69999999553,316873.231,316877,316889.881,320003.516,8,400,36,,ISIC_0046741.JPG
break,html.Screen,4_85_1,2023-09-08T19:51:19.383Z,,0,,,NaN,,,,,,false,,,,319993.5,319991.8999999985,,319989.3999999985,,320003.516,8,400,,,
break_continue,html.Screen,4_85_2,2023-09-08T19:51:19.384Z,,0,,,NaN,,,,,,false,,,,319994.69999999553,319994.3999999985,,319994.19999999553,,320003.516,8,400,,,
sequence,flow.Sequence,4_85,2023-09-08T19:51:19.384Z,,0,,,3104.518999998516,completion,,,,,false,,,,319995.299999997,319994.3999999985,316873.231,316876.799999997,316889.881,320003.516,8,400,,,
trial,html.Screen,4_86_0,2023-09-08T19:51:22.977Z,,0,2,,3582.6839999955264,response,ISIC_0061454.JPG,5,ISIC_9859873.JPG,ISIC_9859873.JPG,false,0,keypress(z),500,323587.799999997,323586.19999999553,319986.866,319995.6000000015,320003.516,323599.983,8,400,37,,ISIC_0061454.JPG
break,html.Screen,4_86_1,2023-09-08T19:51:22.981Z,,0,,,NaN,,,,,,false,,,,323591.8999999985,323590.6000000015,,323589.3999999985,,323599.983,8,400,,,
break_continue,html.Screen,4_86_2,2023-09-08T19:51:22.983Z,,0,,,NaN,,,,,,false,,,,323593.5,323593,,323592.5,,323599.983,8,400,,,
sequence,flow.Sequence,4_86,2023-09-08T19:51:22.983Z,,0,,,3589.4839999999967,completion,,,,,false,,,,323594.299999997,323593,319986.866,319995.5,320003.516,323599.983,8,400,,,
trial,html.Screen,4_87_0,2023-09-08T19:51:25.676Z,,0,2,,2686.0169999999925,response,ISIC_0011086.JPG,5,ISIC_0633835.JPG,ISIC_0011086.JPG,false,1,keypress(m),500,326286.5,326286,323583.333,323594.799999997,323599.983,326297.355,8,400,38,,ISIC_0633835.JPG
break,html.Screen,4_87_1,2023-09-08T19:51:25.678Z,,0,,,NaN,,,,,,false,,,,326288.69999999553,326288.19999999553,,326286.8999999985,,326297.355,8,400,,,
break_continue,html.Screen,4_87_2,2023-09-08T19:51:25.679Z,,0,,,NaN,,,,,,false,,,,326289.69999999553,326289.3999999985,,326289,,326297.355,8,400,,,
sequence,flow.Sequence,4_87,2023-09-08T19:51:25.679Z,,0,,,2689.4169999985024,completion,,,,,false,,,,326290.1000000015,326289.3999999985,323583.333,323594.69999999553,323599.983,326297.355,8,400,,,
trial,html.Screen,4_88_0,2023-09-08T19:51:29.068Z,,0,2,,3380.1450000000186,response,ISIC_3586824.JPG,4,ISIC_0015938.JPG,ISIC_0015938.JPG,false,0,keypress(z),500,329678.8999999985,329677.5,326280.705,326290.5,326297.355,329694.025,8,400,39,,ISIC_3586824.JPG
break,html.Screen,4_88_1,2023-09-08T19:51:29.072Z,,0,,,NaN,,,,,,false,,,,329683.19999999553,329681.3999999985,,329680,,329694.025,8,400,,,
break_continue,html.Screen,4_88_2,2023-09-08T19:51:29.075Z,,0,,,NaN,,,,,,false,,,,329685.6000000015,329684.69999999553,,329684.1000000015,,329694.025,8,400,,,
sequence,flow.Sequence,4_88,2023-09-08T19:51:29.076Z,,0,,,3387.3449999955483,completion,,,,,false,,,,329686.8999999985,329684.69999999553,326280.705,326290.3999999985,326297.355,329694.025,8,400,,,
trial,html.Screen,4_89_0,2023-09-08T19:51:35.179Z,,0,2,,6094.2749999969965,response,ISIC_8791744.JPG,4,ISIC_7587513.JPG,ISIC_7587513.JPG,false,0,keypress(z),500,335789.799999997,335788.299999997,329677.375,329688,329694.025,335804.709,8,400,40,,ISIC_8791744.JPG
break,html.Screen,4_89_1,2023-09-08T19:51:35.184Z,,0,,,NaN,,,,,,false,,,,335795,335793.6000000015,,335791.5,,335804.709,8,400,,,
break_continue,html.Screen,4_89_2,2023-09-08T19:51:35.187Z,,0,,,NaN,,,,,,false,,,,335797.6000000015,335797.1000000015,,335796.3999999985,,335804.709,8,400,,,
sequence,flow.Sequence,4_89,2023-09-08T19:51:35.187Z,,0,,,6103.075000001467,completion,,,,,false,,,,335798.1000000015,335797.1000000015,329677.375,329687.69999999553,329694.025,335804.709,8,400,,,
trial,html.Screen,4_90_0,2023-09-08T19:51:38.067Z,,0,2,,2871.2910000000265,response,ISIC_0009991.JPG,5,ISIC_0027641.JPG,ISIC_0009991.JPG,false,1,keypress(m),500,338677.5,338676,335788.059,335798.6000000015,335804.709,338685.238,8,400,41,,ISIC_0027641.JPG
break,html.Screen,4_90_1,2023-09-08T19:51:38.072Z,,0,,,NaN,,,,,,false,,,,338683.3999999985,338681.8999999985,,338678.799999997,,338685.238,8,400,,,
break_continue,html.Screen,4_90_2,2023-09-08T19:51:38.076Z,,0,,,NaN,,,,,,false,,,,338687.3999999985,338685.299999997,,338684.3999999985,,338685.238,8,400,,,
sequence,flow.Sequence,4_90,2023-09-08T19:51:38.078Z,,0,,,2880.5909999970463,completion,,,,,false,,,,338689,338685.299999997,335788.059,335798.5,335804.709,338685.238,8,400,,,
trial,html.Screen,4_91_0,2023-09-08T19:51:41.203Z,,0,2,,3126.4619999955175,response,ISIC_0054284.JPG,5,ISIC_5039396.JPG,ISIC_5039396.JPG,false,0,keypress(z),500,341813.5,341811.69999999553,338668.588,338690.1000000015,338685.238,341832.161,8,400,42,,ISIC_0054284.JPG
break,html.Screen,4_91_1,2023-09-08T19:51:41.207Z,,0,,,NaN,,,,,,false,,,,341817.6000000015,341815.69999999553,,341814.3999999985,,341832.161,8,400,,,
break_continue,html.Screen,4_91_2,2023-09-08T19:51:41.209Z,,0,,,NaN,,,,,,false,,,,341819.8999999985,341819,,341818.299999997,,341832.161,8,400,,,
sequence,flow.Sequence,4_91,2023-09-08T19:51:41.210Z,,0,,,3133.761999999988,completion,,,,,false,,,,341821,341819,338668.588,338689.69999999553,338685.238,341832.161,8,400,,,
trial,html.Screen,4_92_0,2023-09-08T19:51:43.851Z,,0,2,,2628.5389999955078,response,ISIC_0030916.JPG,5,ISIC_0062087.JPG,ISIC_0030916.JPG,false,1,keypress(m),500,344462.3999999985,344460.69999999553,341815.511,341822,341832.161,344479.561,8,400,43,,ISIC_0062087.JPG
break,html.Screen,4_92_1,2023-09-08T19:51:43.858Z,,0,,,NaN,,,,,,false,,,,344469.299999997,344467.6000000015,,344464,,344479.561,8,400,,,
break_continue,html.Screen,4_92_2,2023-09-08T19:51:43.859Z,,0,,,NaN,,,,,,false,,,,344470.299999997,344470,,344469.69999999553,,344479.561,8,400,,,
sequence,flow.Sequence,4_92,2023-09-08T19:51:43.860Z,,0,,,2637.838999999978,completion,,,,,false,,,,344470.799999997,344470,341815.511,341821.69999999553,341832.161,344479.561,8,400,,,
trial,html.Screen,4_93_0,2023-09-08T19:51:46.630Z,,0,2,,2759.939000000013,response,ISIC_0033090.JPG,4,ISIC_0025267.JPG,ISIC_0025267.JPG,false,0,keypress(z),500,347240.5,347239.5,344462.911,344471.1000000015,344479.561,347243.525,8,400,44,,ISIC_0033090.JPG
break,html.Screen,4_93_1,2023-09-08T19:51:46.634Z,,0,,,NaN,,,,,,false,,,,347245.3999999985,347244.5,,347241.6000000015,,347243.525,8,400,,,
break_continue,html.Screen,4_93_2,2023-09-08T19:51:46.636Z,,0,,,NaN,,,,,,false,,,,347247.3999999985,347246.69999999553,,347246,,347243.525,8,400,,,
sequence,flow.Sequence,4_93,2023-09-08T19:51:46.637Z,,0,,,2767.1389999955427,completion,,,,,false,,,,347248.3999999985,347246.69999999553,344462.911,344471,344479.561,347243.525,8,400,,,
trial,html.Screen,4_94_0,2023-09-08T19:51:49.229Z,,0,2,,2595.1749999955064,response,ISIC_0024792.JPG,5,ISIC_1695424.JPG,ISIC_0024792.JPG,false,1,keypress(m),500,349840.299999997,349838.69999999553,347226.875,347249.1000000015,347243.525,349857.645,8,400,45,,ISIC_1695424.JPG
break,html.Screen,4_94_1,2023-09-08T19:51:49.236Z,,0,,,NaN,,,,,,false,,,,349847.3999999985,349845.6000000015,,349841.8999999985,,349857.645,8,400,,,
break_continue,html.Screen,4_94_2,2023-09-08T19:51:49.239Z,,0,,,NaN,,,,,,false,,,,349850.1000000015,349849.69999999553,,349848.69999999553,,349857.645,8,400,,,
sequence,flow.Sequence,4_94,2023-09-08T19:51:49.240Z,,0,,,2606.1749999955064,completion,,,,,false,,,,349850.5,349849.69999999553,347226.875,347248.8999999985,347243.525,349857.645,8,400,,,
trial,html.Screen,4_95_0,2023-09-08T19:51:51.887Z,,0,2,,2638.8549999999814,response,ISIC_5938680.JPG,5,ISIC_0024307.JPG,ISIC_0024307.JPG,false,0,keypress(z),500,352498,352496.5,349840.995,349850.8999999985,349857.645,352505.039,8,400,46,,ISIC_5938680.JPG
break,html.Screen,4_95_1,2023-09-08T19:51:51.892Z,,0,,,NaN,,,,,,false,,,,352502.69999999553,352501.6000000015,,352499.6000000015,,352505.039,8,400,,,
break_continue,html.Screen,4_95_2,2023-09-08T19:51:51.893Z,,0,,,NaN,,,,,,false,,,,352504.19999999553,352503.69999999553,,352503.19999999553,,352505.039,8,400,,,
sequence,flow.Sequence,4_95,2023-09-08T19:51:51.894Z,,0,,,2646.054999995511,completion,,,,,false,,,,352504.8999999985,352503.69999999553,349840.995,349850.69999999553,349857.645,352505.039,8,400,,,
trial,html.Screen,4_96_0,2023-09-08T19:51:54.466Z,,0,2,,2570.0610000015004,response,ISIC_0072496.JPG,5,ISIC_7618133.JPG,ISIC_0072496.JPG,false,1,keypress(m),500,355076.69999999553,355075.1000000015,352488.389,352505.6000000015,352505.039,355085.855,8,400,47,,ISIC_7618133.JPG
break,html.Screen,4_96_1,2023-09-08T19:51:54.469Z,,0,,,NaN,,,,,,false,,,,355080.5,355078.8999999985,,355077.8999999985,,355085.855,8,400,,,
break_continue,html.Screen,4_96_2,2023-09-08T19:51:54.471Z,,0,,,NaN,,,,,,false,,,,355082.19999999553,355081.6000000015,,355081,,355085.855,8,400,,,
sequence,flow.Sequence,4_96,2023-09-08T19:51:54.472Z,,0,,,2576.5610000015004,completion,,,,,false,,,,355083.1000000015,355081.6000000015,352488.389,352505.5,352505.039,355085.855,8,400,,,
trial,html.Screen,4_97_0,2023-09-08T19:51:56.993Z,,0,2,,2516.8449999955483,response,ISIC_5281762.JPG,5,ISIC_5194705.JPG,ISIC_5194705.JPG,false,0,keypress(z),500,357604.299999997,357602.69999999553,355069.205,355083.799999997,355085.855,357616.714,8,400,48,,ISIC_5281762.JPG
break,html.Screen,4_97_1,2023-09-08T19:51:56.999Z,,0,,,NaN,,,,,,false,,,,357609.6000000015,357608.3999999985,,357605.8999999985,,357616.714,8,400,,,
break_continue,html.Screen,4_97_2,2023-09-08T19:51:57.001Z,,0,,,NaN,,,,,,false,,,,357612.3999999985,357610.299999997,,357610,,357616.714,8,400,,,
sequence,flow.Sequence,4_97,2023-09-08T19:51:57.002Z,,0,,,2524.4449999970384,completion,,,,,false,,,,357613,357610.299999997,355069.205,355083.6000000015,355085.855,357616.714,8,400,,,
trial,html.Screen,4_98_0,2023-09-08T19:52:00.411Z,,0,2,,3403.6859999985318,response,ISIC_0014800.JPG,5,ISIC_0067326.JPG,ISIC_0067326.JPG,false,0,keypress(z),500,361022,361020.3999999985,357600.064,357613.299999997,357616.714,361030.036,8,400,49,,ISIC_0014800.JPG
break,html.Screen,4_98_1,2023-09-08T19:52:00.418Z,,0,,,NaN,,,,,,false,,,,361028.69999999553,361026.8999999985,,361023.6000000015,,361030.036,8,400,,,
break_continue,html.Screen,4_98_2,2023-09-08T19:52:00.421Z,,0,,,NaN,,,,,,false,,,,361031.6000000015,361031.1000000015,,361030.6000000015,,361030.036,8,400,,,
sequence,flow.Sequence,4_98,2023-09-08T19:52:00.421Z,,0,,,3414.386000001512,completion,,,,,false,,,,361032.1000000015,361031.1000000015,357600.064,357613.299999997,357616.714,361030.036,8,400,,,
trial,html.Screen,4_99_0,2023-09-08T19:52:04.049Z,,0,2,,3627.963999999978,response,ISIC_5787312.JPG,5,ISIC_9142818.JPG,ISIC_9142818.JPG,false,0,keypress(z),500,364659.6000000015,364658,361013.386,361032.5,361030.036,364676.471,8,400,50,,ISIC_5787312.JPG
break,html.Screen,4_99_1,2023-09-08T19:52:14.058Z,,0,,,10006.883999999962,timeout,,,,,false,,,,374668.799999997,374666.705,364659.821,364661.299999997,364676.471,374683.355,8,400,,,
break_continue,html.Screen,4_99_2,2023-09-08T19:53:01.757Z,,0,,,47625.74500000151,response,,,,,false,continue,keypress(Space),,422368.299999997,422309.1000000015,374666.705,374669.6000000015,374683.355,422386.679,8,400,,,
sequence,flow.Sequence,4_99,2023-09-08T19:53:01.758Z,,0,,,61279.06400000147,completion,,,,,false,,,,422368.69999999553,422309.1000000015,361013.386,361032.299999997,361030.036,422386.679,8,400,,,
trial,html.Screen,4_100_0,2023-09-08T19:53:04.628Z,,0,3,,2851.8209999999963,response,ISIC_3059367.JPG,6,ISIC_0064471.JPG,ISIC_0064471.JPG,false,0,keypress(z),500,425239.3999999985,425238.5,422353.379,422369,422386.679,425250.541,8,400,1,,ISIC_3059367.JPG
break,html.Screen,4_100_1,2023-09-08T19:53:04.633Z,,0,,,NaN,,,,,,false,,,,425243.799999997,425242.799999997,,425240.3999999985,,425250.541,8,400,,,
break_continue,html.Screen,4_100_2,2023-09-08T19:53:04.635Z,,0,,,NaN,,,,,,false,,,,425245.8999999985,425245.19999999553,,425244.6000000015,,425250.541,8,400,,,
sequence,flow.Sequence,4_100,2023-09-08T19:53:04.637Z,,0,,,2858.520999995526,completion,,,,,false,,,,425247.5,425245.19999999553,422353.379,422368.8999999985,422386.679,425250.541,8,400,,,
trial,html.Screen,4_101_0,2023-09-08T19:53:07.966Z,,0,3,,3324.4589999999735,response,ISIC_0024918.JPG,6,ISIC_9974613.JPG,ISIC_9974613.JPG,false,0,keypress(z),500,428576.5,428575,425233.891,425248.1000000015,425250.541,428597.267,8,400,2,,ISIC_0024918.JPG
break,html.Screen,4_101_1,2023-09-08T19:53:07.972Z,,0,,,NaN,,,,,,false,,,,428583.299999997,428581,,428578.1000000015,,428597.267,8,400,,,
break_continue,html.Screen,4_101_2,2023-09-08T19:53:07.975Z,,0,,,NaN,,,,,,false,,,,428586,428585.69999999553,,428584.5,,428597.267,8,400,,,
sequence,flow.Sequence,4_101,2023-09-08T19:53:07.976Z,,0,,,3335.158999995503,completion,,,,,false,,,,428586.3999999985,428585.69999999553,425233.891,425247.8999999985,425250.541,428597.267,8,400,,,
trial,html.Screen,4_102_0,2023-09-08T19:53:11.305Z,,0,3,,3317.032999997027,response,ISIC_5324987.JPG,5,ISIC_5504560.JPG,ISIC_5324987.JPG,false,1,keypress(m),500,431915.8999999985,431914.299999997,428580.617,428586.799999997,428597.267,431927.349,8,400,3,,ISIC_5504560.JPG
break,html.Screen,4_102_1,2023-09-08T19:53:11.312Z,,0,,,NaN,,,,,,false,,,,431923,431920.19999999553,,431917.6000000015,,431927.349,8,400,,,
break_continue,html.Screen,4_102_2,2023-09-08T19:53:11.315Z,,0,,,NaN,,,,,,false,,,,431925.6000000015,431925,,431924.1000000015,,431927.349,8,400,,,
sequence,flow.Sequence,4_102,2023-09-08T19:53:11.315Z,,0,,,3327.7330000000075,completion,,,,,false,,,,431926.19999999553,431925,428580.617,428586.69999999553,428597.267,431927.349,8,400,,,
trial,html.Screen,4_103_0,2023-09-08T19:53:14.114Z,,0,3,,2795.7510000015027,response,ISIC_0012245.JPG,6,ISIC_5754233.JPG,ISIC_0012245.JPG,false,1,keypress(m),500,434724.69999999553,434723.1000000015,431910.699,431926.69999999553,431927.349,434741.255,8,400,4,,ISIC_5754233.JPG
break,html.Screen,4_103_1,2023-09-08T19:53:14.120Z,,0,,,NaN,,,,,,false,,,,434731.299999997,434729.6000000015,,434726.3999999985,,434741.255,8,400,,,
break_continue,html.Screen,4_103_2,2023-09-08T19:53:14.123Z,,0,,,NaN,,,,,,false,,,,434733.8999999985,434733.6000000015,,434732.5,,434741.255,8,400,,,
sequence,flow.Sequence,4_103,2023-09-08T19:53:14.123Z,,0,,,2806.2510000015027,completion,,,,,false,,,,434734.3999999985,434733.6000000015,431910.699,431926.6000000015,431927.349,434741.255,8,400,,,
trial,html.Screen,4_104_0,2023-09-08T19:53:17.087Z,,0,3,,2955.544999997015,response,ISIC_0067789.JPG,5,ISIC_0030985.JPG,ISIC_0067789.JPG,false,1,keypress(m),500,437697.69999999553,437696.799999997,434724.605,434734.69999999553,434741.255,437705.02,8,400,5,,ISIC_0030985.JPG
break,html.Screen,4_104_1,2023-09-08T19:53:17.091Z,,0,,,NaN,,,,,,false,,,,437702,437700,,437698.6000000015,,437705.02,8,400,,,
break_continue,html.Screen,4_104_2,2023-09-08T19:53:17.093Z,,0,,,NaN,,,,,,false,,,,437704,437703.299999997,,437702.6000000015,,437705.02,8,400,,,
sequence,flow.Sequence,4_104,2023-09-08T19:53:17.095Z,,0,,,2962.044999997015,completion,,,,,false,,,,437705.3999999985,437703.299999997,434724.605,434734.69999999553,434741.255,437705.02,8,400,,,
trial,html.Screen,4_105_0,2023-09-08T19:53:19.767Z,,0,3,,2671.0800000014715,response,ISIC_9744305.JPG,5,ISIC_5179884.JPG,ISIC_9744305.JPG,false,1,keypress(m),500,440377.69999999553,440376.1000000015,437688.37,437706.8999999985,437705.02,440385.729,8,400,6,,ISIC_5179884.JPG
break,html.Screen,4_105_1,2023-09-08T19:53:19.773Z,,0,,,NaN,,,,,,false,,,,440384.19999999553,440382.3999999985,,440379.5,,440385.729,8,400,,,
break_continue,html.Screen,4_105_2,2023-09-08T19:53:19.774Z,,0,,,NaN,,,,,,false,,,,440385.19999999553,440384.799999997,,440384.6000000015,,440385.729,8,400,,,
sequence,flow.Sequence,4_105,2023-09-08T19:53:19.775Z,,0,,,2679.779999997001,completion,,,,,false,,,,440385.69999999553,440384.799999997,437688.37,437706.799999997,437705.02,440385.729,8,400,,,
trial,html.Screen,4_106_0,2023-09-08T19:53:22.493Z,,0,3,,2716.271000000008,response,ISIC_6974830.JPG,40,ISIC_8901784.JPG,ISIC_6974830.JPG,false,1,keypress(m),500,443103.5,443102,440369.079,440386.6000000015,440385.729,443116.405,8,400,7,,ISIC_8901784.JPG
break,html.Screen,4_106_1,2023-09-08T19:53:22.495Z,,0,,,NaN,,,,,,false,,,,443106.5,443105.5,,443104.69999999553,,443116.405,8,400,,,
break_continue,html.Screen,4_106_2,2023-09-08T19:53:22.496Z,,0,,,NaN,,,,,,false,,,,443107.3999999985,443107,,443106.799999997,,443116.405,8,400,,,
sequence,flow.Sequence,4_106,2023-09-08T19:53:22.497Z,,0,,,2721.271000000008,completion,,,,,false,,,,443107.799999997,443107,440369.079,440386.299999997,440385.729,443116.405,8,400,,,
trial,html.Screen,4_107_0,2023-09-08T19:53:26.541Z,,0,3,,4034.094999999972,response,ISIC_1952599.JPG,5,ISIC_7022381.JPG,ISIC_7022381.JPG,false,0,keypress(z),500,447152.1000000015,447150.5,443099.755,443108.1000000015,443116.405,447162.431,8,400,8,,ISIC_1952599.JPG
break,html.Screen,4_107_1,2023-09-08T19:53:26.546Z,,0,,,NaN,,,,,,false,,,,447157.19999999553,447155.69999999553,,447153.69999999553,,447162.431,8,400,,,
break_continue,html.Screen,4_107_2,2023-09-08T19:53:26.550Z,,0,,,NaN,,,,,,false,,,,447160.69999999553,447159.69999999553,,447158.6000000015,,447162.431,8,400,,,
sequence,flow.Sequence,4_107,2023-09-08T19:53:26.550Z,,0,,,4043.2949999955017,completion,,,,,false,,,,447161.19999999553,447159.69999999553,443099.755,443108.1000000015,443116.405,447162.431,8,400,,,
trial,html.Screen,4_108_0,2023-09-08T19:53:30.474Z,,0,3,,3920.8689999970375,response,ISIC_0070566.JPG,5,ISIC_5568525.JPG,ISIC_0070566.JPG,false,1,keypress(m),500,451084.799999997,451083.299999997,447145.781,447161.5,447162.431,451091.925,8,400,9,,ISIC_5568525.JPG
break,html.Screen,4_108_1,2023-09-08T19:53:30.480Z,,0,,,NaN,,,,,,false,,,,451090.799999997,451088.3999999985,,451086.5,,451091.925,8,400,,,
break_continue,html.Screen,4_108_2,2023-09-08T19:53:30.485Z,,0,,,NaN,,,,,,false,,,,451095.69999999553,451094,,451092,,451091.925,8,400,,,
sequence,flow.Sequence,4_108,2023-09-08T19:53:30.486Z,,0,,,3931.5690000000177,completion,,,,,false,,,,451096.8999999985,451094,447145.781,447161.3999999985,447162.431,451091.925,8,400,,,
trial,html.Screen,4_109_0,2023-09-08T19:53:35.269Z,,0,3,,4786.374999997031,response,ISIC_3652847.JPG,5,ISIC_6184891.JPG,ISIC_6184891.JPG,false,0,keypress(z),500,455879.8999999985,455878.299999997,451075.275,451097.799999997,451091.925,455887.237,8,400,10,,ISIC_3652847.JPG
break,html.Screen,4_109_1,2023-09-08T19:53:35.275Z,,0,,,NaN,,,,,,false,,,,455885.3999999985,455883.6000000015,,455881.6000000015,,455887.237,8,400,,,
break_continue,html.Screen,4_109_2,2023-09-08T19:53:35.279Z,,0,,,NaN,,,,,,false,,,,455889.69999999553,455888.299999997,,455886.69999999553,,455887.237,8,400,,,
sequence,flow.Sequence,4_109,2023-09-08T19:53:35.279Z,,0,,,4796.374999997031,completion,,,,,false,,,,455890.1000000015,455888.299999997,451075.275,451097.6000000015,451091.925,455887.237,8,400,,,
trial,html.Screen,4_110_0,2023-09-08T19:53:38.822Z,,0,3,,3543.8630000014673,response,ISIC_0012183.JPG,4,ISIC_0030417.JPG,ISIC_0030417.JPG,false,0,keypress(z),500,459432.69999999553,459431.1000000015,455870.587,455890.3999999985,455887.237,459450.412,8,400,11,,ISIC_0012183.JPG
break,html.Screen,4_110_1,2023-09-08T19:53:38.825Z,,0,,,NaN,,,,,,false,,,,459436.3999999985,459435.19999999553,,459434.19999999553,,459450.412,8,400,,,
break_continue,html.Screen,4_110_2,2023-09-08T19:53:38.827Z,,0,,,NaN,,,,,,false,,,,459438.1000000015,459437.5,,459437,,459450.412,8,400,,,
sequence,flow.Sequence,4_110,2023-09-08T19:53:38.828Z,,0,,,3550.262999999977,completion,,,,,false,,,,459438.8999999985,459437.5,455870.587,455890.3999999985,455887.237,459450.412,8,400,,,
trial,html.Screen,4_111_0,2023-09-08T19:53:42.422Z,,0,3,,3580.587999999989,response,ISIC_0005879.JPG,5,ISIC_6809191.JPG,ISIC_6809191.JPG,false,0,keypress(z),500,463032.69999999553,463031,459433.762,459439.6000000015,459450.412,463046.907,8,400,12,,ISIC_0005879.JPG
break,html.Screen,4_111_1,2023-09-08T19:53:42.427Z,,0,,,NaN,,,,,,false,,,,463038,463037.3999999985,,463034.299999997,,463046.907,8,400,,,
break_continue,html.Screen,4_111_2,2023-09-08T19:53:42.428Z,,0,,,NaN,,,,,,false,,,,463039.1000000015,463038.69999999553,,463038.3999999985,,463046.907,8,400,,,
sequence,flow.Sequence,4_111,2023-09-08T19:53:42.429Z,,0,,,3588.2879999955185,completion,,,,,false,,,,463039.6000000015,463038.69999999553,459433.762,459439.3999999985,459450.412,463046.907,8,400,,,
trial,html.Screen,4_112_0,2023-09-08T19:53:45.152Z,,0,3,,2713.5929999999935,response,ISIC_0000168.JPG,6,ISIC_0024701.JPG,ISIC_0024701.JPG,false,0,keypress(z),500,465763.1000000015,465760.5,463030.257,463039.8999999985,463046.907,465777.55,8,400,13,,ISIC_0000168.JPG
break,html.Screen,4_112_1,2023-09-08T19:53:45.159Z,,0,,,NaN,,,,,,false,,,,465769.799999997,465768.299999997,,465764.69999999553,,465777.55,8,400,,,
break_continue,html.Screen,4_112_2,2023-09-08T19:53:45.161Z,,0,,,NaN,,,,,,false,,,,465772,465771.6000000015,,465771,,465777.55,8,400,,,
sequence,flow.Sequence,4_112,2023-09-08T19:53:45.162Z,,0,,,2724.6930000014836,completion,,,,,false,,,,465772.5,465771.6000000015,463030.257,463039.799999997,463046.907,465777.55,8,400,,,
trial,html.Screen,4_113_0,2023-09-08T19:53:47.737Z,,0,3,,2569.2499999970314,response,ISIC_4141315.JPG,5,ISIC_6234702.JPG,ISIC_4141315.JPG,false,1,keypress(m),500,468347.8999999985,468346.799999997,465760.9,465772.799999997,465777.55,468358.359,8,400,14,,ISIC_6234702.JPG
break,html.Screen,4_113_1,2023-09-08T19:53:47.741Z,,0,,,NaN,,,,,,false,,,,468352,468350.69999999553,,468349.19999999553,,468358.359,8,400,,,
break_continue,html.Screen,4_113_2,2023-09-08T19:53:47.743Z,,0,,,NaN,,,,,,false,,,,468353.8999999985,468353.299999997,,468352.69999999553,,468358.359,8,400,,,
sequence,flow.Sequence,4_113,2023-09-08T19:53:47.744Z,,0,,,2575.7499999970314,completion,,,,,false,,,,468354.799999997,468353.299999997,465760.9,465772.69999999553,465777.55,468358.359,8,400,,,
trial,html.Screen,4_114_0,2023-09-08T19:53:50.310Z,,0,3,,2561.2410000014934,response,ISIC_0000358.JPG,5,ISIC_0031356.JPG,ISIC_0000358.JPG,false,1,keypress(m),500,470921.19999999553,470919.6000000015,468341.709,468355.5,468358.359,470939.171,8,400,15,,ISIC_0031356.JPG
break,html.Screen,4_114_1,2023-09-08T19:53:50.317Z,,0,,,NaN,,,,,,false,,,,470928,470926.3999999985,,470922.799999997,,470939.171,8,400,,,
break_continue,html.Screen,4_114_2,2023-09-08T19:53:50.319Z,,0,,,NaN,,,,,,false,,,,470930.19999999553,470929.799999997,,470929.299999997,,470939.171,8,400,,,
sequence,flow.Sequence,4_114,2023-09-08T19:53:50.320Z,,0,,,2571.440999997023,completion,,,,,false,,,,470930.6000000015,470929.799999997,468341.709,468355.299999997,468358.359,470939.171,8,400,,,
trial,html.Screen,4_115_0,2023-09-08T19:53:53.634Z,,0,3,,3305.429000001517,response,ISIC_8863344.JPG,5,ISIC_9024529.JPG,ISIC_9024529.JPG,false,0,keypress(z),500,474245.299999997,474244.6000000015,470922.521,470930.8999999985,470939.171,474252.608,8,400,16,,ISIC_8863344.JPG
break,html.Screen,4_115_1,2023-09-08T19:53:53.637Z,,0,,,NaN,,,,,,false,,,,474247.8999999985,474247.19999999553,,474246.1000000015,,474252.608,8,400,,,
break_continue,html.Screen,4_115_2,2023-09-08T19:53:53.639Z,,0,,,NaN,,,,,,false,,,,474250.19999999553,474249,,474248.5,,474252.608,8,400,,,
sequence,flow.Sequence,4_115,2023-09-08T19:53:53.640Z,,0,,,3309.829000000027,completion,,,,,false,,,,474251.19999999553,474249,470922.521,470930.8999999985,470939.171,474252.608,8,400,,,
trial,html.Screen,4_116_0,2023-09-08T19:53:56.212Z,,0,3,,2569.3919999999925,response,ISIC_4087267.JPG,5,ISIC_1342117.JPG,ISIC_4087267.JPG,false,1,keypress(m),500,476823.3999999985,476822,474235.958,474252,474252.608,476833.42,8,400,17,,ISIC_1342117.JPG
break,html.Screen,4_116_1,2023-09-08T19:53:56.217Z,,0,,,NaN,,,,,,false,,,,476827.69999999553,476826.1000000015,,476824.6000000015,,476833.42,8,400,,,
break_continue,html.Screen,4_116_2,2023-09-08T19:53:56.220Z,,0,,,NaN,,,,,,false,,,,476830.6000000015,476829.5,,476828.69999999553,,476833.42,8,400,,,
sequence,flow.Sequence,4_116,2023-09-08T19:53:56.221Z,,0,,,2576.8919999999925,completion,,,,,false,,,,476832,476829.5,474235.958,474251.69999999553,474252.608,476833.42,8,400,,,
trial,html.Screen,4_117_0,2023-09-08T19:53:59.428Z,,0,3,,3203.5800000000163,response,ISIC_4569077.JPG,5,ISIC_8300954.JPG,ISIC_8300954.JPG,false,0,keypress(z),500,480038.5,480037,476816.77,476832.5,476833.42,480046.943,8,400,18,,ISIC_4569077.JPG
break,html.Screen,4_117_1,2023-09-08T19:53:59.433Z,,0,,,NaN,,,,,,false,,,,480044.1000000015,480043.5,,480040.19999999553,,480046.943,8,400,,,
break_continue,html.Screen,4_117_2,2023-09-08T19:53:59.434Z,,0,,,NaN,,,,,,false,,,,480045.1000000015,480044.69999999553,,480044.5,,480046.943,8,400,,,
sequence,flow.Sequence,4_117,2023-09-08T19:53:59.435Z,,0,,,3211.279999995546,completion,,,,,false,,,,480045.69999999553,480044.69999999553,476816.77,476832.3999999985,476833.42,480046.943,8,400,,,
trial,html.Screen,4_118_0,2023-09-08T19:54:02.675Z,,0,3,,3237.7569999955012,response,ISIC_0003217.JPG,5,ISIC_3696726.JPG,ISIC_3696726.JPG,false,0,keypress(z),500,483285.5,483284.69999999553,480030.293,480046,480046.943,483293.754,8,400,19,,ISIC_0003217.JPG
break,html.Screen,4_118_1,2023-09-08T19:54:02.677Z,,0,,,NaN,,,,,,false,,,,483287.5,483286.8999999985,,483285.8999999985,,483293.754,8,400,,,
break_continue,html.Screen,4_118_2,2023-09-08T19:54:02.678Z,,0,,,NaN,,,,,,false,,,,483288.8999999985,483288.5,,483287.8999999985,,483293.754,8,400,,,
sequence,flow.Sequence,4_118,2023-09-08T19:54:02.679Z,,0,,,3241.5569999999716,completion,,,,,false,,,,483289.5,483288.5,480030.293,480045.8999999985,480046.943,483293.754,8,400,,,
trial,html.Screen,4_119_0,2023-09-08T19:54:05.706Z,,0,3,,3022.2459999999846,response,ISIC_0239949.JPG,4,ISIC_0069698.JPG,ISIC_0239949.JPG,false,1,keypress(m),500,486317.299999997,486316,483277.104,483289.8999999985,483293.754,486324.12,8,400,20,,ISIC_0069698.JPG
break,html.Screen,4_119_1,2023-09-08T19:54:05.712Z,,0,,,NaN,,,,,,false,,,,486322.69999999553,486320.799999997,,486318.69999999553,,486324.12,8,400,,,
break_continue,html.Screen,4_119_2,2023-09-08T19:54:05.715Z,,0,,,NaN,,,,,,false,,,,486325.6000000015,486324.799999997,,486323.799999997,,486324.12,8,400,,,
sequence,flow.Sequence,4_119,2023-09-08T19:54:05.715Z,,0,,,3031.0459999970044,completion,,,,,false,,,,486326.1000000015,486324.799999997,483277.104,483289.799999997,483293.754,486324.12,8,400,,,
trial,html.Screen,4_120_0,2023-09-08T19:54:08.276Z,,0,3,,2561.3800000000047,response,ISIC_0062133.JPG,4,ISIC_8447658.JPG,ISIC_0062133.JPG,false,1,keypress(m),500,488886.5,488885.5,486307.47,486326.3999999985,486324.12,488904.923,8,400,21,,ISIC_8447658.JPG
break,html.Screen,4_120_1,2023-09-08T19:54:08.281Z,,0,,,NaN,,,,,,false,,,,488891.6000000015,488889.3999999985,,488887.299999997,,488904.923,8,400,,,
break_continue,html.Screen,4_120_2,2023-09-08T19:54:08.283Z,,0,,,NaN,,,,,,false,,,,488893.6000000015,488892.8999999985,,488892.299999997,,488904.923,8,400,,,
sequence,flow.Sequence,4_120,2023-09-08T19:54:08.284Z,,0,,,2568.7799999985145,completion,,,,,false,,,,488894.799999997,488892.8999999985,486307.47,486326.3999999985,486324.12,488904.923,8,400,,,
trial,html.Screen,4_121_0,2023-09-08T19:54:10.836Z,,0,3,,2540.87699999701,response,ISIC_0061158.JPG,5,ISIC_0003122.JPG,ISIC_0003122.JPG,false,0,keypress(z),500,491446.69999999553,491445.799999997,488888.273,488896.1000000015,488904.923,491452.438,8,400,22,,ISIC_0061158.JPG
break,html.Screen,4_121_1,2023-09-08T19:54:10.839Z,,0,,,NaN,,,,,,false,,,,491450.19999999553,491448.8999999985,,491447.5,,491452.438,8,400,,,
break_continue,html.Screen,4_121_2,2023-09-08T19:54:10.841Z,,0,,,NaN,,,,,,false,,,,491452.19999999553,491451.5,,491450.799999997,,491452.438,8,400,,,
sequence,flow.Sequence,4_121,2023-09-08T19:54:10.843Z,,0,,,2546.57699999999,completion,,,,,false,,,,491453.69999999553,491451.5,488888.273,488895.8999999985,488904.923,491452.438,8,400,,,
trial,html.Screen,4_122_0,2023-09-08T19:54:13.566Z,,0,3,,2722.761999995506,response,ISIC_0003052.JPG,5,ISIC_0028152.JPG,ISIC_0028152.JPG,false,0,keypress(z),500,494176.5,494175.19999999553,491435.788,491454.6000000015,491452.438,494183.109,8,400,23,,ISIC_0003052.JPG
break,html.Screen,4_122_1,2023-09-08T19:54:13.571Z,,0,,,NaN,,,,,,false,,,,494182.1000000015,494180.19999999553,,494178,,494183.109,8,400,,,
break_continue,html.Screen,4_122_2,2023-09-08T19:54:13.575Z,,0,,,NaN,,,,,,false,,,,494185.6000000015,494184.3999999985,,494183.19999999553,,494183.109,8,400,,,
sequence,flow.Sequence,4_122,2023-09-08T19:54:13.575Z,,0,,,2731.961999998486,completion,,,,,false,,,,494186.1000000015,494184.3999999985,491435.788,491454.299999997,491452.438,494183.109,8,400,,,
trial,html.Screen,4_123_0,2023-09-08T19:54:16.159Z,,0,3,,2584.9910000014934,response,ISIC_0000484.JPG,5,ISIC_0359307.JPG,ISIC_0000484.JPG,false,1,keypress(m),500,496769.69999999553,496768.1000000015,494166.459,494186.5,494183.109,496780.552,8,400,24,,ISIC_0359307.JPG
break,html.Screen,4_123_1,2023-09-08T19:54:16.162Z,,0,,,NaN,,,,,,false,,,,496773.299999997,496772.299999997,,496771.299999997,,496780.552,8,400,,,
break_continue,html.Screen,4_123_2,2023-09-08T19:54:16.164Z,,0,,,NaN,,,,,,false,,,,496774.69999999553,496774.1000000015,,496773.6000000015,,496780.552,8,400,,,
sequence,flow.Sequence,4_123,2023-09-08T19:54:16.164Z,,0,,,2590.9910000014934,completion,,,,,false,,,,496775.3999999985,496774.1000000015,494166.459,494186.5,494183.109,496780.552,8,400,,,
trial,html.Screen,4_124_0,2023-09-08T19:54:18.677Z,,0,3,,2507.048000001465,response,ISIC_0027235.JPG,5,ISIC_0025450.JPG,ISIC_0025450.JPG,false,0,keypress(z),500,499288.1000000015,499287.6000000015,496763.902,496776,496780.552,499294.766,8,400,25,,ISIC_0027235.JPG
break,html.Screen,4_124_1,2023-09-08T19:54:18.679Z,,0,,,NaN,,,,,,false,,,,499290.3999999985,499289.3999999985,,499288.5,,499294.766,8,400,,,
break_continue,html.Screen,4_124_2,2023-09-08T19:54:18.681Z,,0,,,NaN,,,,,,false,,,,499291.69999999553,499291.19999999553,,499290.799999997,,499294.766,8,400,,,
sequence,flow.Sequence,4_124,2023-09-08T19:54:18.681Z,,0,,,2510.6479999955045,completion,,,,,false,,,,499292.19999999553,499291.19999999553,496763.902,496775.799999997,496780.552,499294.766,8,400,,,
trial,html.Screen,4_125_0,2023-09-08T19:54:21.835Z,,0,3,,3149.6339999985066,response,ISIC_0002435.JPG,6,ISIC_7185036.JPG,ISIC_7185036.JPG,false,0,keypress(z),500,502446,502444.3999999985,499278.116,499292.5,499294.766,502458.353,8,400,26,,ISIC_0002435.JPG
break,html.Screen,4_125_1,2023-09-08T19:54:21.843Z,,0,,,NaN,,,,,,false,,,,502454.1000000015,502452,,502447.799999997,,502458.353,8,400,,,
break_continue,html.Screen,4_125_2,2023-09-08T19:54:21.847Z,,0,,,NaN,,,,,,false,,,,502458.1000000015,502456.8999999985,,502455.299999997,,502458.353,8,400,,,
sequence,flow.Sequence,4_125,2023-09-08T19:54:21.848Z,,0,,,3162.1339999985066,completion,,,,,false,,,,502459.3999999985,502456.8999999985,499278.116,499292.3999999985,499294.766,502458.353,8,400,,,
trial,html.Screen,4_126_0,2023-09-08T19:54:25.359Z,,0,3,,3509.946999997017,response,ISIC_7727830.JPG,7,ISIC_0034052.JPG,ISIC_0034052.JPG,false,0,keypress(z),500,505970.1000000015,505968.299999997,502441.703,502459.69999999553,502458.353,505988.222,8,400,27,,ISIC_7727830.JPG
break,html.Screen,4_126_1,2023-09-08T19:54:25.365Z,,0,,,NaN,,,,,,false,,,,505975.3999999985,505974,,505971.8999999985,,505988.222,8,400,,,
break_continue,html.Screen,4_126_2,2023-09-08T19:54:25.366Z,,0,,,NaN,,,,,,false,,,,505977.299999997,505976.299999997,,505975.8999999985,,505988.222,8,400,,,
sequence,flow.Sequence,4_126,2023-09-08T19:54:25.367Z,,0,,,3517.946999997017,completion,,,,,false,,,,505978.1000000015,505976.299999997,502441.703,502459.69999999553,502458.353,505988.222,8,400,,,
