sender,sender_type,sender_id,timestamp,meta,,blockNo,condition,duration,ended_on,img_left,img_reveal,img_right,loser,practice,response,response_action,selection_duration,time_commit,time_end,time_render,time_run,time_show,time_switch,total_blocks,total_trials,trialNo,url,winner
informed_consent,html.Screen,0,2023-10-31T17:00:48.268Z,"{""labjs_version"":""20.2.4"",""labjs_build"":{""flavor"":""production"",""commit"":""f5b4a49f956347addd546a832a3327688c2c0fef""},""location"":""https://run.pavlovia.org/MurrayBennett/melanoma-2afc/?participant=59208&platform=sona"",""userAgent"":""Mozilla/5.0 (Macintosh; Intel Mac OS X 10_15_7) AppleWebKit/537.36 (KHTML, like Gecko) Chrome/117.0.0.0 Safari/537.36"",""platform"":""MacIntel"",""language"":""en-US"",""locale"":""en-US"",""timeZone"":""America/Chicago"",""timezoneOffset"":300,""screen_width"":1440,""screen_height"":900,""scroll_width"":1440,""scroll_height"":679,""window_innerWidth"":1440,""window_innerHeight"":727,""devicePixelRatio"":1}",,,,70563.83799998809,response,,,,,,consent,click button,,74592.19999998808,74570.69999998808,3990.195,3980.099999964237,4006.862,74661.806,,,,"{""participant"":""59208"",""platform"":""sona""}",
Welcome,html.Screen,1,2023-10-31T17:01:07.027Z,,,,colourful,18675.494000011924,response,,,,,,continue,click button,,93351.30000001192,93337.30000001192,74578.471,74592.39999997616,74661.806,93363.151,,,,,
trial,html.Screen,2_0_0,2023-10-31T17:01:12.027Z,,0,0,,4987.74899997616,response,ISIC_0063388.JPG,,ISIC_0025593.JPG,ISIC_0063388.JPG,true,1,keypress(m),500,98351.59999996424,98350.89999997616,93346.484,93351.59999996424,93363.151,98363.251,1,6,1,,ISIC_0025593.JPG
sequence,flow.Sequence,2_0,2023-10-31T17:01:12.028Z,,0,,,4987.74899997616,completion,,,,,true,,,,98352.09999996424,98350.89999997616,93346.484,93351.59999996424,93363.151,98363.251,1,6,,,
trial,html.Screen,2_1_0,2023-10-31T17:01:15.360Z,,0,0,,3320.6489999761543,response,ISIC_0028178.JPG,,ISIC_1309015.JPG,ISIC_1309015.JPG,true,0,keypress(z),500,101684.09999996424,101683.89999997616,98346.584,98352.30000001192,98363.251,101697.159,1,6,2,,ISIC_0028178.JPG
sequence,flow.Sequence,2_1,2023-10-31T17:01:15.360Z,,0,,,3320.6489999761543,completion,,,,,true,,,,101684.5,101683.89999997616,98346.584,98352.19999998808,98363.251,101697.159,1,6,,,
trial,html.Screen,2_2_0,2023-10-31T17:01:18.740Z,,0,0,,3366.7409999761585,response,ISIC_0031128.JPG,,ISIC_3314853.JPG,ISIC_3314853.JPG,true,0,keypress(z),500,105064.19999998808,105063.89999997616,101680.492,101684.69999998808,101697.159,105080.56,1,6,3,,ISIC_0031128.JPG
sequence,flow.Sequence,2_2,2023-10-31T17:01:18.740Z,,0,,,3366.7409999761585,completion,,,,,true,,,,105064.5,105063.89999997616,101680.492,101684.5,101697.159,105080.56,1,6,,,
trial,html.Screen,2_3_0,2023-10-31T17:01:26.713Z,,0,0,,7956.240000011923,response,ISIC_0031612.JPG,,ISIC_8980141.JPG,ISIC_0031612.JPG,true,1,keypress(m),500,113037.09999996424,113036.80000001192,105063.893,105064.80000001192,105080.56,113047.923,1,6,4,,ISIC_8980141.JPG
sequence,flow.Sequence,2_3,2023-10-31T17:01:26.713Z,,0,,,7956.240000011923,completion,,,,,true,,,,113037.59999996424,113036.80000001192,105063.893,105064.69999998808,105080.56,113047.923,1,6,,,
trial,html.Screen,2_4_0,2023-10-31T17:01:30.306Z,,0,0,,3581.676999964242,response,ISIC_1197737.JPG,,ISIC_9721604.JPG,ISIC_9721604.JPG,true,0,keypress(z),500,116629.89999997616,116629.59999996424,113031.256,113037.80000001192,113047.923,116631.328,1,6,5,,ISIC_1197737.JPG
sequence,flow.Sequence,2_4,2023-10-31T17:01:30.306Z,,0,,,3581.676999964242,completion,,,,,true,,,,116630.30000001192,116629.59999996424,113031.256,113037.80000001192,113047.923,116631.328,1,6,,,
trial,html.Screen,2_5_0,2023-10-31T17:01:33.589Z,,0,0,,3281.771999964243,response,ISIC_0010681.JPG,,ISIC_0025346.JPG,ISIC_0025346.JPG,true,0,keypress(z),500,119913.39999997616,119913.09999996424,116614.661,116630.5,116631.328,119914.727,1,6,6,,ISIC_0010681.JPG
sequence,flow.Sequence,2_5,2023-10-31T17:01:33.590Z,,0,,,3281.771999964243,completion,,,,,true,,,,119913.69999998808,119913.09999996424,116614.661,116630.39999997616,116631.328,119914.727,1,6,,,
loop,flow.Loop,2,2023-10-31T17:01:33.590Z,,,,,26549.94899996424,completion,,,,,true,,,,119914,119913.09999996424,93346.484,93351.5,93363.151,119914.727,1,6,,,
exp_instructions,html.Screen,3,2023-10-31T17:01:38.001Z,,,,,4399.172999976159,response,,,,,,continue,keypress(Space),,124325.5,124313.89999997616,119898.06,119914.09999996424,119914.727,124331.482,,,,,
trial,html.Screen,4_0_0,2023-10-31T17:01:41.513Z,,0,1,,3504.8180000119173,response,ISIC_9303594.JPG,6,ISIC_7100813.JPG,ISIC_9303594.JPG,false,1,keypress(m),500,127836.59999996424,127836.30000001192,124314.815,124325.69999998808,124331.482,127848.78,8,400,1,,ISIC_7100813.JPG
break,html.Screen,4_0_1,2023-10-31T17:01:41.514Z,,0,,,NaN,,,,,,false,,,,127837.80000001192,127837.39999997616,,127836.80000001192,,127848.78,8,400,,,
break_continue,html.Screen,4_0_2,2023-10-31T17:01:41.514Z,,0,,,NaN,,,,,,false,,,,127838.39999997616,127838.19999998808,,127837.89999997616,,127848.78,8,400,,,
sequence,flow.Sequence,4_0,2023-10-31T17:01:41.515Z,,0,,,3506.7179999880755,completion,,,,,false,,,,127838.59999996424,127838.19999998808,124314.815,124325.69999998808,124331.482,127848.78,8,400,,,
trial,html.Screen,4_1_0,2023-10-31T17:01:44.400Z,,0,1,,2874.9199999880802,response,ISIC_0030353.JPG,5,ISIC_9291926.JPG,ISIC_9291926.JPG,false,0,keypress(z),500,130723.89999997616,130723.69999998808,127832.113,127838.80000001192,127848.78,130732.171,8,400,2,,ISIC_0030353.JPG
break,html.Screen,4_1_1,2023-10-31T17:01:44.401Z,,0,,,NaN,,,,,,false,,,,130724.80000001192,130724.5,,130724.09999996424,,130732.171,8,400,,,
break_continue,html.Screen,4_1_2,2023-10-31T17:01:44.401Z,,0,,,NaN,,,,,,false,,,,130725.30000001192,130725.09999996424,,130724.89999997616,,130732.171,8,400,,,
sequence,flow.Sequence,4_1,2023-10-31T17:01:44.401Z,,0,,,2876.3199999642384,completion,,,,,false,,,,130725.39999997616,130725.09999996424,127832.113,127838.69999998808,127848.78,130732.171,8,400,,,
trial,html.Screen,4_2_0,2023-10-31T17:01:47.573Z,,0,1,,3165.129000011919,response,ISIC_9008095.JPG,8,ISIC_0719631.JPG,ISIC_0719631.JPG,false,0,keypress(z),500,133897.5,133897.30000001192,130715.504,130725.59999996424,130732.171,133898.901,8,400,3,,ISIC_9008095.JPG
break,html.Screen,4_2_1,2023-10-31T17:01:47.574Z,,0,,,NaN,,,,,,false,,,,133898.39999997616,133898.19999998808,,133897.69999998808,,133898.901,8,400,,,
break_continue,html.Screen,4_2_2,2023-10-31T17:01:47.575Z,,0,,,NaN,,,,,,false,,,,133898.80000001192,133898.69999998808,,133898.59999996424,,133898.901,8,400,,,
sequence,flow.Sequence,4_2,2023-10-31T17:01:47.575Z,,0,,,3166.528999988077,completion,,,,,false,,,,133899.09999996424,133898.69999998808,130715.504,130725.5,130732.171,133898.901,8,400,,,
trial,html.Screen,4_3_0,2023-10-31T17:01:50.441Z,,0,1,,2866.0989999999874,response,ISIC_0033710.JPG,6,ISIC_7621412.JPG,ISIC_7621412.JPG,false,0,keypress(z),500,136765.19999998808,136765,133882.234,133899.19999998808,133898.901,136766.126,8,400,4,,ISIC_0033710.JPG
break,html.Screen,4_3_1,2023-10-31T17:01:50.442Z,,0,,,NaN,,,,,,false,,,,136766,136765.80000001192,,136765.39999997616,,136766.126,8,400,,,
break_continue,html.Screen,4_3_2,2023-10-31T17:01:50.442Z,,0,,,NaN,,,,,,false,,,,136766.5,136766.39999997616,,136766.19999998808,,136766.126,8,400,,,
sequence,flow.Sequence,4_3,2023-10-31T17:01:50.443Z,,0,,,2867.4989999761456,completion,,,,,false,,,,136766.69999998808,136766.39999997616,133882.234,133899.09999996424,133898.901,136766.126,8,400,,,
trial,html.Screen,4_4_0,2023-10-31T17:01:53.361Z,,0,1,,2918.3740000000107,response,ISIC_8901784.JPG,6,ISIC_0010653.JPG,ISIC_8901784.JPG,false,1,keypress(m),500,139684.69999998808,139684.5,136749.459,136766.89999997616,136766.126,139699.518,8,400,5,,ISIC_0010653.JPG
break,html.Screen,4_4_1,2023-10-31T17:01:53.362Z,,0,,,NaN,,,,,,false,,,,139685.59999996424,139685.30000001192,,139684.89999997616,,139699.518,8,400,,,
break_continue,html.Screen,4_4_2,2023-10-31T17:01:53.362Z,,0,,,NaN,,,,,,false,,,,139686,139685.80000001192,,139685.69999998808,,139699.518,8,400,,,
sequence,flow.Sequence,4_4,2023-10-31T17:01:53.362Z,,0,,,2919.6740000119316,completion,,,,,false,,,,139686.09999996424,139685.80000001192,136749.459,136766.80000001192,136766.126,139699.518,8,400,,,
trial,html.Screen,4_5_0,2023-10-31T17:01:56.678Z,,0,1,,3302.0819999642263,response,ISIC_0069050.JPG,7,ISIC_0003910.JPG,ISIC_0003910.JPG,false,0,keypress(z),500,143001.80000001192,143001.59999996424,139682.851,139686.39999997616,139699.518,143016.251,8,400,6,,ISIC_0069050.JPG
break,html.Screen,4_5_1,2023-10-31T17:01:56.679Z,,0,,,NaN,,,,,,false,,,,143002.59999996424,143002.39999997616,,143002,,143016.251,8,400,,,
break_continue,html.Screen,4_5_2,2023-10-31T17:01:56.679Z,,0,,,NaN,,,,,,false,,,,143003,143002.89999997616,,143002.80000001192,,143016.251,8,400,,,
sequence,flow.Sequence,4_5,2023-10-31T17:01:56.679Z,,0,,,3303.381999976147,completion,,,,,false,,,,143003.19999998808,143002.89999997616,139682.851,139686.30000001192,139699.518,143016.251,8,400,,,
trial,html.Screen,4_6_0,2023-10-31T17:01:59.642Z,,0,1,,2949.94899998809,response,ISIC_3975743.JPG,5,ISIC_5964676.JPG,ISIC_5964676.JPG,false,0,keypress(z),500,145966.39999997616,145966.19999998808,142999.584,143003.39999997616,143016.251,145983.479,8,400,7,,ISIC_3975743.JPG
break,html.Screen,4_6_1,2023-10-31T17:01:59.643Z,,0,,,NaN,,,,,,false,,,,145967.19999998808,145967,,145966.5,,145983.479,8,400,,,
break_continue,html.Screen,4_6_2,2023-10-31T17:01:59.644Z,,0,,,NaN,,,,,,false,,,,145967.59999996424,145967.5,,145967.30000001192,,145983.479,8,400,,,
sequence,flow.Sequence,4_6,2023-10-31T17:01:59.644Z,,0,,,2951.2490000000107,completion,,,,,false,,,,145967.80000001192,145967.5,142999.584,143003.30000001192,143016.251,145983.479,8,400,,,
trial,html.Screen,4_7_0,2023-10-31T17:02:02.879Z,,0,1,,3219.720999988087,response,ISIC_4666619.JPG,6,ISIC_0011628.JPG,ISIC_4666619.JPG,false,1,keypress(m),500,149203.39999997616,149203.19999998808,145966.812,145968,145983.479,149216.877,8,400,8,,ISIC_0011628.JPG
break,html.Screen,4_7_1,2023-10-31T17:02:02.880Z,,0,,,NaN,,,,,,false,,,,149204.19999998808,149204,,149203.59999996424,,149216.877,8,400,,,
break_continue,html.Screen,4_7_2,2023-10-31T17:02:02.881Z,,0,,,NaN,,,,,,false,,,,149204.69999998808,149204.5,,149204.39999997616,,149216.877,8,400,,,
sequence,flow.Sequence,4_7,2023-10-31T17:02:02.881Z,,0,,,3221.021000000008,completion,,,,,false,,,,149204.80000001192,149204.5,145966.812,145967.89999997616,145983.479,149216.877,8,400,,,
trial,html.Screen,4_8_0,2023-10-31T17:02:06.388Z,,0,1,,3494.4230000119132,response,ISIC_0060962.JPG,5,ISIC_9918523.JPG,ISIC_9918523.JPG,false,0,keypress(z),500,152711.5,152711.30000001192,149200.21,149205,149216.877,152716.947,8,400,9,,ISIC_0060962.JPG
break,html.Screen,4_8_1,2023-10-31T17:02:06.388Z,,0,,,NaN,,,,,,false,,,,152712.39999997616,152712.19999998808,,152711.59999996424,,152716.947,8,400,,,
break_continue,html.Screen,4_8_2,2023-10-31T17:02:06.389Z,,0,,,NaN,,,,,,false,,,,152713,152712.80000001192,,152712.5,,152716.947,8,400,,,
sequence,flow.Sequence,4_8,2023-10-31T17:02:06.389Z,,0,,,3495.9230000119132,completion,,,,,false,,,,152713.09999996424,152712.80000001192,149200.21,149205,149216.877,152716.947,8,400,,,
trial,html.Screen,4_9_0,2023-10-31T17:02:09.915Z,,0,1,,3521.9529999761726,response,ISIC_1793821.JPG,9,ISIC_0030003.JPG,ISIC_1793821.JPG,false,1,keypress(m),500,156239.09999996424,156238.89999997616,152700.28,152713.30000001192,152716.947,156250.837,8,400,10,,ISIC_0030003.JPG
break,html.Screen,4_9_1,2023-10-31T17:02:09.916Z,,0,,,NaN,,,,,,false,,,,156240,156239.80000001192,,156239.30000001192,,156250.837,8,400,,,
break_continue,html.Screen,4_9_2,2023-10-31T17:02:09.917Z,,0,,,NaN,,,,,,false,,,,156240.5,156240.30000001192,,156240.19999998808,,156250.837,8,400,,,
sequence,flow.Sequence,4_9,2023-10-31T17:02:09.917Z,,0,,,3523.3530000119354,completion,,,,,false,,,,156240.59999996424,156240.30000001192,152700.28,152713.19999998808,152716.947,156250.837,8,400,,,
trial,html.Screen,4_10_0,2023-10-31T17:02:14.387Z,,0,1,,4459.6630000000005,response,ISIC_9969263.JPG,8,ISIC_1684829.JPG,ISIC_1684829.JPG,false,0,keypress(z),500,160710.69999998808,160710.5,156234.17,156240.69999998808,156250.837,160717.593,8,400,11,,ISIC_9969263.JPG
break,html.Screen,4_10_1,2023-10-31T17:02:14.388Z,,0,,,NaN,,,,,,false,,,,160711.80000001192,160711.5,,160711,,160717.593,8,400,,,
break_continue,html.Screen,4_10_2,2023-10-31T17:02:14.388Z,,0,,,NaN,,,,,,false,,,,160712.30000001192,160712.19999998808,,160712,,160717.593,8,400,,,
sequence,flow.Sequence,4_10,2023-10-31T17:02:14.389Z,,0,,,4461.3629999880795,completion,,,,,false,,,,160712.5,160712.19999998808,156234.17,156240.69999998808,156250.837,160717.593,8,400,,,
trial,html.Screen,4_11_0,2023-10-31T17:02:17.272Z,,0,1,,2878.3069999761647,response,ISIC_0028557.JPG,5,ISIC_0072917.JPG,ISIC_0028557.JPG,false,1,keypress(m),500,163596.19999998808,163595.89999997616,160700.926,160712.59999996424,160717.593,163600.984,8,400,12,,ISIC_0072917.JPG
break,html.Screen,4_11_1,2023-10-31T17:02:17.273Z,,0,,,NaN,,,,,,false,,,,163597,163596.80000001192,,163596.39999997616,,163600.984,8,400,,,
break_continue,html.Screen,4_11_2,2023-10-31T17:02:17.274Z,,0,,,NaN,,,,,,false,,,,163597.5,163597.30000001192,,163597.09999996424,,163600.984,8,400,,,
sequence,flow.Sequence,4_11,2023-10-31T17:02:17.274Z,,0,,,2879.7070000119274,completion,,,,,false,,,,163597.59999996424,163597.30000001192,160700.926,160712.59999996424,160717.593,163600.984,8,400,,,
trial,html.Screen,4_12_0,2023-10-31T17:02:21.107Z,,0,1,,3830.1159999642405,response,ISIC_0063981.JPG,6,ISIC_1177505.JPG,ISIC_1177505.JPG,false,0,keypress(z),500,167431.30000001192,167431.09999996424,163584.317,163597.80000001192,163600.984,167434.886,8,400,13,,ISIC_0063981.JPG
break,html.Screen,4_12_1,2023-10-31T17:02:21.108Z,,0,,,NaN,,,,,,false,,,,167432.19999998808,167432,,167431.5,,167434.886,8,400,,,
break_continue,html.Screen,4_12_2,2023-10-31T17:02:21.109Z,,0,,,NaN,,,,,,false,,,,167432.69999998808,167432.59999996424,,167432.30000001192,,167434.886,8,400,,,
sequence,flow.Sequence,4_12,2023-10-31T17:02:21.109Z,,0,,,3831.6159999642405,completion,,,,,false,,,,167432.80000001192,167432.59999996424,163584.317,163597.80000001192,163600.984,167434.886,8,400,,,
trial,html.Screen,4_13_0,2023-10-31T17:02:24.143Z,,0,1,,3032.1140000000014,response,ISIC_0025155.JPG,8,ISIC_9067033.JPG,ISIC_0025155.JPG,false,1,keypress(m),500,170467.19999998808,170467,167418.219,167433,167434.886,170468.28,8,400,14,,ISIC_9067033.JPG
break,html.Screen,4_13_1,2023-10-31T17:02:24.144Z,,0,,,NaN,,,,,,false,,,,170468.09999996424,170467.89999997616,,170467.5,,170468.28,8,400,,,
break_continue,html.Screen,4_13_2,2023-10-31T17:02:24.145Z,,0,,,NaN,,,,,,false,,,,170468.69999998808,170468.5,,170468.30000001192,,170468.28,8,400,,,
sequence,flow.Sequence,4_13,2023-10-31T17:02:24.145Z,,0,,,3033.6140000000014,completion,,,,,false,,,,170468.89999997616,170468.5,167418.219,167433,167434.886,170468.28,8,400,,,
trial,html.Screen,4_14_0,2023-10-31T17:02:27.879Z,,0,1,,3734.520000011922,response,ISIC_1440377.JPG,8,ISIC_5485661.JPG,ISIC_1440377.JPG,false,1,keypress(m),500,174203.09999996424,174202.80000001192,170451.613,170469,170468.28,174218.355,8,400,15,,ISIC_5485661.JPG
break,html.Screen,4_14_1,2023-10-31T17:02:27.880Z,,0,,,NaN,,,,,,false,,,,174204,174203.69999998808,,174203.30000001192,,174218.355,8,400,,,
break_continue,html.Screen,4_14_2,2023-10-31T17:02:27.881Z,,0,,,NaN,,,,,,false,,,,174204.39999997616,174204.19999998808,,174204,,174218.355,8,400,,,
sequence,flow.Sequence,4_14,2023-10-31T17:02:27.881Z,,0,,,3735.9199999880802,completion,,,,,false,,,,174204.59999996424,174204.19999998808,170451.613,170469,170468.28,174218.355,8,400,,,
trial,html.Screen,4_15_0,2023-10-31T17:02:32.189Z,,0,1,,4294.044999976148,response,ISIC_4530249.JPG,5,ISIC_0031203.JPG,ISIC_4530249.JPG,false,1,keypress(m),500,178512.69999998808,178512.39999997616,174201.688,174204.69999998808,174218.355,178518.972,8,400,16,,ISIC_0031203.JPG
break,html.Screen,4_15_1,2023-10-31T17:02:32.190Z,,0,,,NaN,,,,,,false,,,,178513.5,178513.30000001192,,178512.80000001192,,178518.972,8,400,,,
break_continue,html.Screen,4_15_2,2023-10-31T17:02:32.190Z,,0,,,NaN,,,,,,false,,,,178514,178513.89999997616,,178513.69999998808,,178518.972,8,400,,,
sequence,flow.Sequence,4_15,2023-10-31T17:02:32.190Z,,0,,,4295.544999976148,completion,,,,,false,,,,178514.19999998808,178513.89999997616,174201.688,174204.59999996424,174218.355,178518.972,8,400,,,
trial,html.Screen,4_16_0,2023-10-31T17:02:35.810Z,,0,1,,3614.527999999991,response,ISIC_0010486.JPG,5,ISIC_5449076.JPG,ISIC_5449076.JPG,false,0,keypress(z),500,182133.69999998808,182133.5,178502.305,178514.30000001192,178518.972,182135.711,8,400,17,,ISIC_0010486.JPG
break,html.Screen,4_16_1,2023-10-31T17:02:35.811Z,,0,,,NaN,,,,,,false,,,,182134.59999996424,182134.39999997616,,182133.89999997616,,182135.711,8,400,,,
break_continue,html.Screen,4_16_2,2023-10-31T17:02:35.811Z,,0,,,NaN,,,,,,false,,,,182135.09999996424,182134.89999997616,,182134.69999998808,,182135.711,8,400,,,
sequence,flow.Sequence,4_16,2023-10-31T17:02:35.812Z,,0,,,3615.9279999761493,completion,,,,,false,,,,182135.30000001192,182134.89999997616,178502.305,178514.30000001192,178518.972,182135.711,8,400,,,
trial,html.Screen,4_17_0,2023-10-31T17:02:38.838Z,,0,1,,3025.2889999999898,response,ISIC_0031553.JPG,7,ISIC_2376758.JPG,ISIC_2376758.JPG,false,0,keypress(z),500,185161.30000001192,185161,182119.044,182135.39999997616,182135.711,185169.105,8,400,18,,ISIC_0031553.JPG
break,html.Screen,4_17_1,2023-10-31T17:02:38.838Z,,0,,,NaN,,,,,,false,,,,185162.09999996424,185162,,185161.39999997616,,185169.105,8,400,,,
break_continue,html.Screen,4_17_2,2023-10-31T17:02:38.839Z,,0,,,NaN,,,,,,false,,,,185162.69999998808,185162.5,,185162.30000001192,,185169.105,8,400,,,
sequence,flow.Sequence,4_17,2023-10-31T17:02:38.839Z,,0,,,3026.7889999999898,completion,,,,,false,,,,185162.80000001192,185162.5,182119.044,182135.39999997616,182135.711,185169.105,8,400,,,
trial,html.Screen,4_18_0,2023-10-31T17:02:42.604Z,,0,1,,3758.0949999880686,response,ISIC_7633960.JPG,7,ISIC_9197665.JPG,ISIC_9197665.JPG,false,0,keypress(z),500,188927.39999997616,188927.19999998808,185152.438,185163,185169.105,188936.373,8,400,19,,ISIC_7633960.JPG
break,html.Screen,4_18_1,2023-10-31T17:02:42.605Z,,0,,,NaN,,,,,,false,,,,188928.30000001192,188928.09999996424,,188927.59999996424,,188936.373,8,400,,,
break_continue,html.Screen,4_18_2,2023-10-31T17:02:42.605Z,,0,,,NaN,,,,,,false,,,,188928.69999998808,188928.59999996424,,188928.39999997616,,188936.373,8,400,,,
sequence,flow.Sequence,4_18,2023-10-31T17:02:42.605Z,,0,,,3759.4949999642267,completion,,,,,false,,,,188928.89999997616,188928.59999996424,185152.438,185162.89999997616,185169.105,188936.373,8,400,,,
trial,html.Screen,4_19_0,2023-10-31T17:02:45.794Z,,0,1,,3180.9270000119286,response,ISIC_0031357.JPG,8,ISIC_6828587.JPG,ISIC_0031357.JPG,false,1,keypress(m),500,192117.5,192117.30000001192,188919.706,188929.09999996424,188936.373,192136.437,8,400,20,,ISIC_6828587.JPG
break,html.Screen,4_19_1,2023-10-31T17:02:45.795Z,,0,,,NaN,,,,,,false,,,,192118.39999997616,192118.19999998808,,192117.69999998808,,192136.437,8,400,,,
break_continue,html.Screen,4_19_2,2023-10-31T17:02:45.795Z,,0,,,NaN,,,,,,false,,,,192118.80000001192,192118.69999998808,,192118.39999997616,,192136.437,8,400,,,
sequence,flow.Sequence,4_19,2023-10-31T17:02:45.795Z,,0,,,3182.3269999880868,completion,,,,,false,,,,192119,192118.69999998808,188919.706,188929.09999996424,188936.373,192136.437,8,400,,,
trial,html.Screen,4_20_0,2023-10-31T17:02:50.552Z,,0,1,,4739.162999964232,response,ISIC_0054287.JPG,5,ISIC_1323048.JPG,ISIC_1323048.JPG,false,0,keypress(z),500,196875.80000001192,196875.59999996424,192119.77,192119.09999996424,192136.437,196886.532,8,400,21,,ISIC_0054287.JPG
break,html.Screen,4_20_1,2023-10-31T17:02:50.553Z,,0,,,NaN,,,,,,false,,,,196876.69999998808,196876.39999997616,,196876,,196886.532,8,400,,,
break_continue,html.Screen,4_20_2,2023-10-31T17:02:50.554Z,,0,,,NaN,,,,,,false,,,,196877.09999996424,196877,,196876.80000001192,,196886.532,8,400,,,
sequence,flow.Sequence,4_20,2023-10-31T17:02:50.554Z,,0,,,4740.562999999995,completion,,,,,false,,,,196877.30000001192,196877,192119.77,192119.09999996424,192136.437,196886.532,8,400,,,
trial,html.Screen,4_21_0,2023-10-31T17:02:53.983Z,,0,1,,3419.8679999761516,response,ISIC_0028109.JPG,7,ISIC_1738738.JPG,ISIC_0028109.JPG,false,1,keypress(m),500,200306.59999996424,200306.39999997616,196869.865,196877.5,196886.532,200320.41,8,400,22,,ISIC_1738738.JPG
break,html.Screen,4_21_1,2023-10-31T17:02:53.984Z,,0,,,NaN,,,,,,false,,,,200307.39999997616,200307.19999998808,,200306.80000001192,,200320.41,8,400,,,
break_continue,html.Screen,4_21_2,2023-10-31T17:02:53.984Z,,0,,,NaN,,,,,,false,,,,200307.89999997616,200307.69999998808,,200307.5,,200320.41,8,400,,,
sequence,flow.Sequence,4_21,2023-10-31T17:02:53.985Z,,0,,,3421.1679999880726,completion,,,,,false,,,,200308.19999998808,200307.69999998808,196869.865,196877.5,196886.532,200320.41,8,400,,,
trial,html.Screen,4_22_0,2023-10-31T17:02:59.016Z,,0,1,,5018.489999976155,response,ISIC_2255411.JPG,6,ISIC_0024306.JPG,ISIC_2255411.JPG,false,1,keypress(m),500,205339.09999996424,205338.89999997616,200303.743,200308.39999997616,200320.41,205353.844,8,400,23,,ISIC_0024306.JPG
break,html.Screen,4_22_1,2023-10-31T17:02:59.016Z,,0,,,NaN,,,,,,false,,,,205339.89999997616,205339.80000001192,,205339.19999998808,,205353.844,8,400,,,
break_continue,html.Screen,4_22_2,2023-10-31T17:02:59.017Z,,0,,,NaN,,,,,,false,,,,205340.39999997616,205340.19999998808,,205340.09999996424,,205353.844,8,400,,,
sequence,flow.Sequence,4_22,2023-10-31T17:02:59.017Z,,0,,,5019.789999988076,completion,,,,,false,,,,205340.59999996424,205340.19999998808,200303.743,200308.30000001192,200320.41,205353.844,8,400,,,
trial,html.Screen,4_23_0,2023-10-31T17:03:02.012Z,,0,1,,2981.0559999761463,response,ISIC_0070752.JPG,5,ISIC_0001831.JPG,ISIC_0001831.JPG,false,0,keypress(z),500,208335.09999996424,208334.89999997616,205337.177,205340.69999998808,205353.844,208337.237,8,400,24,,ISIC_0070752.JPG
break,html.Screen,4_23_1,2023-10-31T17:03:02.012Z,,0,,,NaN,,,,,,false,,,,208335.89999997616,208335.69999998808,,208335.30000001192,,208337.237,8,400,,,
break_continue,html.Screen,4_23_2,2023-10-31T17:03:02.013Z,,0,,,NaN,,,,,,false,,,,208336.30000001192,208336.30000001192,,208336.09999996424,,208337.237,8,400,,,
sequence,flow.Sequence,4_23,2023-10-31T17:03:02.013Z,,0,,,2982.456000011909,completion,,,,,false,,,,208336.59999996424,208336.30000001192,205337.177,205340.59999996424,205353.844,208337.237,8,400,,,
trial,html.Screen,4_24_0,2023-10-31T17:03:05.599Z,,0,1,,3584.8629999642435,response,ISIC_4916704.JPG,6,ISIC_0268701.JPG,ISIC_0268701.JPG,false,0,keypress(z),500,211922.39999997616,211922.09999996424,208320.57,208336.69999998808,208337.237,211937.83,8,400,25,,ISIC_4916704.JPG
break,html.Screen,4_24_1,2023-10-31T17:03:05.600Z,,0,,,NaN,,,,,,false,,,,211923.30000001192,211923.09999996424,,211922.59999996424,,211937.83,8,400,,,
break_continue,html.Screen,4_24_2,2023-10-31T17:03:05.600Z,,0,,,NaN,,,,,,false,,,,211923.59999996424,211923.5,,211923.39999997616,,211937.83,8,400,,,
sequence,flow.Sequence,4_24,2023-10-31T17:03:05.600Z,,0,,,3586.2630000000063,completion,,,,,false,,,,211923.80000001192,211923.5,208320.57,208336.59999996424,208337.237,211937.83,8,400,,,
trial,html.Screen,4_25_0,2023-10-31T17:03:10.149Z,,0,1,,4534.470000011934,response,ISIC_0001792.JPG,7,ISIC_8882374.JPG,ISIC_0001792.JPG,false,1,keypress(m),500,216472.59999996424,216472.30000001192,211921.163,211924,211937.83,216487.921,8,400,26,,ISIC_8882374.JPG
break,html.Screen,4_25_1,2023-10-31T17:03:10.150Z,,0,,,NaN,,,,,,false,,,,216473.5,216473.19999998808,,216472.80000001192,,216487.921,8,400,,,
break_continue,html.Screen,4_25_2,2023-10-31T17:03:10.150Z,,0,,,NaN,,,,,,false,,,,216473.89999997616,216473.69999998808,,216473.5,,216487.921,8,400,,,
sequence,flow.Sequence,4_25,2023-10-31T17:03:10.151Z,,0,,,4535.869999988092,completion,,,,,false,,,,216474,216473.69999998808,211921.163,211923.89999997616,211937.83,216487.921,8,400,,,
trial,html.Screen,4_26_0,2023-10-31T17:03:13.163Z,,0,1,,2998.178999964235,response,ISIC_1843053.JPG,7,ISIC_8607090.JPG,ISIC_8607090.JPG,false,0,keypress(z),500,219486.30000001192,219486.09999996424,216471.254,216474.19999998808,216487.921,219487.981,8,400,27,,ISIC_1843053.JPG
break,html.Screen,4_26_1,2023-10-31T17:03:13.164Z,,0,,,NaN,,,,,,false,,,,219487.09999996424,219486.80000001192,,219486.5,,219487.981,8,400,,,
break_continue,html.Screen,4_26_2,2023-10-31T17:03:13.164Z,,0,,,NaN,,,,,,false,,,,219487.5,219487.39999997616,,219487.19999998808,,219487.981,8,400,,,
sequence,flow.Sequence,4_26,2023-10-31T17:03:13.164Z,,0,,,2999.478999976156,completion,,,,,false,,,,219487.80000001192,219487.39999997616,216471.254,216474.09999996424,216487.921,219487.981,8,400,,,
trial,html.Screen,4_27_0,2023-10-31T17:03:17.071Z,,0,1,,3906.319000011921,response,ISIC_0028320.JPG,7,ISIC_0028326.JPG,ISIC_0028326.JPG,false,0,keypress(z),500,223394.59999996424,223394.30000001192,219471.314,219487.80000001192,219487.981,223405.207,8,400,28,,ISIC_0028320.JPG
break,html.Screen,4_27_1,2023-10-31T17:03:17.072Z,,0,,,NaN,,,,,,false,,,,223395.30000001192,223395.19999998808,,223394.80000001192,,223405.207,8,400,,,
break_continue,html.Screen,4_27_2,2023-10-31T17:03:17.072Z,,0,,,NaN,,,,,,false,,,,223395.80000001192,223395.69999998808,,223395.5,,223405.207,8,400,,,
sequence,flow.Sequence,4_27,2023-10-31T17:03:17.073Z,,0,,,3907.7189999880793,completion,,,,,false,,,,223396,223395.69999998808,219471.314,219487.80000001192,219487.981,223405.207,8,400,,,
trial,html.Screen,4_28_0,2023-10-31T17:03:19.765Z,,0,1,,2683.093000011926,response,ISIC_1761799.JPG,6,ISIC_3947143.JPG,ISIC_1761799.JPG,false,1,keypress(m),500,226088.39999997616,226088.30000001192,223388.54,223396.09999996424,223405.207,226105.261,8,400,29,,ISIC_3947143.JPG
break,html.Screen,4_28_1,2023-10-31T17:03:19.765Z,,0,,,NaN,,,,,,false,,,,226088.80000001192,226088.69999998808,,226088.5,,226105.261,8,400,,,
break_continue,html.Screen,4_28_2,2023-10-31T17:03:19.766Z,,0,,,NaN,,,,,,false,,,,226089,226089,,226088.89999997616,,226105.261,8,400,,,
sequence,flow.Sequence,4_28,2023-10-31T17:03:19.766Z,,0,,,2683.793000000005,completion,,,,,false,,,,226089.09999996424,226089,223388.54,223396,223405.207,226105.261,8,400,,,
trial,html.Screen,4_29_0,2023-10-31T17:03:24.107Z,,0,1,,4324.6389999761595,response,ISIC_2740756.JPG,6,ISIC_0013311.JPG,ISIC_0013311.JPG,false,0,keypress(z),500,230430.09999996424,230429.89999997616,226088.594,226089.19999998808,226105.261,230439.177,8,400,30,,ISIC_2740756.JPG
break,html.Screen,4_29_1,2023-10-31T17:03:24.108Z,,0,,,NaN,,,,,,false,,,,230431,230430.80000001192,,230430.39999997616,,230439.177,8,400,,,
break_continue,html.Screen,4_29_2,2023-10-31T17:03:24.108Z,,0,,,NaN,,,,,,false,,,,230431.5,230431.30000001192,,230431.19999998808,,230439.177,8,400,,,
sequence,flow.Sequence,4_29,2023-10-31T17:03:24.108Z,,0,,,4326.039000011922,completion,,,,,false,,,,230431.69999998808,230431.30000001192,226088.594,226089.09999996424,226105.261,230439.177,8,400,,,
trial,html.Screen,4_30_0,2023-10-31T17:03:27.570Z,,0,1,,3453.623000011925,response,ISIC_4182801.JPG,5,ISIC_0004099.JPG,ISIC_0004099.JPG,false,0,keypress(z),500,233893.09999996424,233892.80000001192,230422.51,230431.69999998808,230439.177,233905.913,8,400,31,,ISIC_4182801.JPG
break,html.Screen,4_30_1,2023-10-31T17:03:27.570Z,,0,,,NaN,,,,,,false,,,,233893.89999997616,233893.69999998808,,233893.19999998808,,233905.913,8,400,,,
break_continue,html.Screen,4_30_2,2023-10-31T17:03:27.571Z,,0,,,NaN,,,,,,false,,,,233894.39999997616,233894.19999998808,,233894,,233905.913,8,400,,,
sequence,flow.Sequence,4_30,2023-10-31T17:03:27.571Z,,0,,,3455.022999988083,completion,,,,,false,,,,233894.5,233894.19999998808,230422.51,230431.69999998808,230439.177,233905.913,8,400,,,
trial,html.Screen,4_31_0,2023-10-31T17:03:31.286Z,,0,1,,3703.2869999880786,response,ISIC_6697332.JPG,5,ISIC_0027928.JPG,ISIC_6697332.JPG,false,1,keypress(m),500,237609.39999997616,237609.19999998808,233889.246,233894.59999996424,233905.913,237622.654,8,400,32,,ISIC_0027928.JPG
break,html.Screen,4_31_1,2023-10-31T17:03:31.287Z,,0,,,NaN,,,,,,false,,,,237610.30000001192,237610.09999996424,,237609.59999996424,,237622.654,8,400,,,
break_continue,html.Screen,4_31_2,2023-10-31T17:03:31.287Z,,0,,,NaN,,,,,,false,,,,237610.80000001192,237610.59999996424,,237610.5,,237622.654,8,400,,,
sequence,flow.Sequence,4_31,2023-10-31T17:03:31.288Z,,0,,,3704.6869999642367,completion,,,,,false,,,,237610.89999997616,237610.59999996424,233889.246,233894.59999996424,233905.913,237622.654,8,400,,,
trial,html.Screen,4_32_0,2023-10-31T17:03:36.493Z,,0,1,,5193.646000011911,response,ISIC_0479264.JPG,5,ISIC_4850678.JPG,ISIC_0479264.JPG,false,1,keypress(m),500,242816.5,242816.30000001192,237605.987,237611.09999996424,237622.654,242823.249,8,400,33,,ISIC_4850678.JPG
break,html.Screen,4_32_1,2023-10-31T17:03:36.494Z,,0,,,NaN,,,,,,false,,,,242817.39999997616,242817.19999998808,,242816.69999998808,,242823.249,8,400,,,
break_continue,html.Screen,4_32_2,2023-10-31T17:03:36.495Z,,0,,,NaN,,,,,,false,,,,242817.89999997616,242817.80000001192,,242817.59999996424,,242823.249,8,400,,,
sequence,flow.Sequence,4_32,2023-10-31T17:03:36.495Z,,0,,,5195.146000011911,completion,,,,,false,,,,242818.09999996424,242817.80000001192,237605.987,237611.09999996424,237622.654,242823.249,8,400,,,
trial,html.Screen,4_33_0,2023-10-31T17:03:40.212Z,,0,1,,3711.9509999880684,response,ISIC_5049365.JPG,6,ISIC_0032130.JPG,ISIC_5049365.JPG,false,1,keypress(m),500,246535.39999997616,246535.19999998808,242806.582,242818.30000001192,242823.249,246539.99,8,400,34,,ISIC_0032130.JPG
break,html.Screen,4_33_1,2023-10-31T17:03:40.213Z,,0,,,NaN,,,,,,false,,,,246536.30000001192,246536.09999996424,,246535.59999996424,,246539.99,8,400,,,
break_continue,html.Screen,4_33_2,2023-10-31T17:03:40.213Z,,0,,,NaN,,,,,,false,,,,246536.80000001192,246536.59999996424,,246536.39999997616,,246539.99,8,400,,,
sequence,flow.Sequence,4_33,2023-10-31T17:03:40.214Z,,0,,,3713.3509999642265,completion,,,,,false,,,,246537,246536.59999996424,242806.582,242818.09999996424,242823.249,246539.99,8,400,,,
trial,html.Screen,4_34_0,2023-10-31T17:03:43.532Z,,0,1,,3314.7099999880884,response,ISIC_0026094.JPG,5,ISIC_0007749.JPG,ISIC_0007749.JPG,false,0,keypress(z),500,249854.89999997616,249854.69999998808,246523.323,246537.09999996424,246539.99,249856.723,8,400,35,,ISIC_0026094.JPG
break,html.Screen,4_34_1,2023-10-31T17:03:43.533Z,,0,,,NaN,,,,,,false,,,,249855.80000001192,249855.59999996424,,249855.19999998808,,249856.723,8,400,,,
break_continue,html.Screen,4_34_2,2023-10-31T17:03:43.533Z,,0,,,NaN,,,,,,false,,,,249856.30000001192,249856,,249855.89999997616,,249856.723,8,400,,,
sequence,flow.Sequence,4_34,2023-10-31T17:03:43.533Z,,0,,,3316.0100000000093,completion,,,,,false,,,,249856.39999997616,249856,246523.323,246537,246539.99,249856.723,8,400,,,
trial,html.Screen,4_35_0,2023-10-31T17:03:46.369Z,,0,1,,2835.476999988081,response,ISIC_0028219.JPG,8,ISIC_0024298.JPG,ISIC_0028219.JPG,false,1,keypress(m),500,252692.30000001192,252692.19999998808,249840.056,249856.59999996424,249856.723,252707.282,8,400,36,,ISIC_0024298.JPG
break,html.Screen,4_35_1,2023-10-31T17:03:46.370Z,,0,,,NaN,,,,,,false,,,,252693.19999998808,252693,,252692.59999996424,,252707.282,8,400,,,
break_continue,html.Screen,4_35_2,2023-10-31T17:03:46.370Z,,0,,,NaN,,,,,,false,,,,252693.5,252693.39999997616,,252693.30000001192,,252707.282,8,400,,,
sequence,flow.Sequence,4_35,2023-10-31T17:03:46.370Z,,0,,,2836.67699997616,completion,,,,,false,,,,252693.69999998808,252693.39999997616,249840.056,249856.5,249856.723,252707.282,8,400,,,
trial,html.Screen,4_36_0,2023-10-31T17:03:50.139Z,,0,1,,3754.5180000119144,response,ISIC_9384835.JPG,6,ISIC_1078854.JPG,ISIC_1078854.JPG,false,0,keypress(z),500,256462.09999996424,256461.80000001192,252690.615,252693.89999997616,252707.282,256490.691,8,400,37,,ISIC_9384835.JPG
break,html.Screen,4_36_1,2023-10-31T17:03:50.140Z,,0,,,NaN,,,,,,false,,,,256462.89999997616,256462.69999998808,,256462.19999998808,,256490.691,8,400,,,
break_continue,html.Screen,4_36_2,2023-10-31T17:03:50.140Z,,0,,,NaN,,,,,,false,,,,256463.19999998808,256463.19999998808,,256463,,256490.691,8,400,,,
sequence,flow.Sequence,4_36,2023-10-31T17:03:50.140Z,,0,,,3755.9179999880726,completion,,,,,false,,,,256463.39999997616,256463.19999998808,252690.615,252693.89999997616,252707.282,256490.691,8,400,,,
trial,html.Screen,4_37_0,2023-10-31T17:03:52.802Z,,0,1,,2634.5089999880875,response,ISIC_2844539.JPG,8,ISIC_0011260.JPG,ISIC_2844539.JPG,false,1,keypress(m),500,259125.5,259125.19999998808,256474.024,256463.59999996424,256490.691,259140.744,8,400,38,,ISIC_0011260.JPG
break,html.Screen,4_37_1,2023-10-31T17:03:52.803Z,,0,,,NaN,,,,,,false,,,,259126.30000001192,259126,,259125.69999998808,,259140.744,8,400,,,
break_continue,html.Screen,4_37_2,2023-10-31T17:03:52.804Z,,0,,,NaN,,,,,,false,,,,259126.69999998808,259126.59999996424,,259126.39999997616,,259140.744,8,400,,,
sequence,flow.Sequence,4_37,2023-10-31T17:03:52.804Z,,0,,,2635.9089999642456,completion,,,,,false,,,,259126.89999997616,259126.59999996424,256474.024,256463.59999996424,256490.691,259140.744,8,400,,,
trial,html.Screen,4_38_0,2023-10-31T17:03:55.689Z,,0,1,,2871.056000011915,response,ISIC_0072507.JPG,7,ISIC_0055240.JPG,ISIC_0055240.JPG,false,0,keypress(z),500,262012.09999996424,262011.80000001192,259124.077,259127.09999996424,259140.744,262024.64,8,400,39,,ISIC_0072507.JPG
break,html.Screen,4_38_1,2023-10-31T17:03:55.690Z,,0,,,NaN,,,,,,false,,,,262013.19999998808,262013,,262012.39999997616,,262024.64,8,400,,,
break_continue,html.Screen,4_38_2,2023-10-31T17:03:55.691Z,,0,,,NaN,,,,,,false,,,,262013.69999998808,262013.59999996424,,262013.39999997616,,262024.64,8,400,,,
sequence,flow.Sequence,4_38,2023-10-31T17:03:55.691Z,,0,,,2872.855999964231,completion,,,,,false,,,,262014,262013.59999996424,259124.077,259127,259140.744,262024.64,8,400,,,
trial,html.Screen,4_39_0,2023-10-31T17:03:58.643Z,,0,1,,2941.4599999642232,response,ISIC_0010767.JPG,7,ISIC_0016033.JPG,ISIC_0016033.JPG,false,0,keypress(z),500,264966.39999997616,264966.09999996424,262007.973,262014.09999996424,262024.64,264974.699,8,400,40,,ISIC_0010767.JPG
break,html.Screen,4_39_1,2023-10-31T17:03:58.644Z,,0,,,NaN,,,,,,false,,,,264967.1999999881,264966.89999997616,,264966.59999996424,,264974.699,8,400,,,
break_continue,html.Screen,4_39_2,2023-10-31T17:03:58.644Z,,0,,,NaN,,,,,,false,,,,264967.59999996424,264967.5,,264967.3000000119,,264974.699,8,400,,,
sequence,flow.Sequence,4_39,2023-10-31T17:03:58.645Z,,0,,,2942.859999999986,completion,,,,,false,,,,264967.8000000119,264967.5,262007.973,262014,262024.64,264974.699,8,400,,,
trial,html.Screen,4_40_0,2023-10-31T17:04:01.740Z,,0,1,,3088.3009999999776,response,ISIC_6800044.JPG,7,ISIC_0065796.JPG,ISIC_6800044.JPG,false,1,keypress(m),500,268063.1999999881,268063,264958.032,264967.89999997616,264974.699,268074.761,8,400,41,,ISIC_0065796.JPG
break,html.Screen,4_40_1,2023-10-31T17:04:01.741Z,,0,,,NaN,,,,,,false,,,,268064.09999996424,268063.89999997616,,268063.39999997616,,268074.761,8,400,,,
break_continue,html.Screen,4_40_2,2023-10-31T17:04:01.741Z,,0,,,NaN,,,,,,false,,,,268064.5,268064.39999997616,,268064.1999999881,,268074.761,8,400,,,
sequence,flow.Sequence,4_40,2023-10-31T17:04:01.742Z,,0,,,3089.700999976136,completion,,,,,false,,,,268064.6999999881,268064.39999997616,264958.032,264967.89999997616,264974.699,268074.761,8,400,,,
trial,html.Screen,4_41_0,2023-10-31T17:04:04.624Z,,0,1,,2872.5390000119223,response,ISIC_9527051.JPG,6,ISIC_0001126.JPG,ISIC_9527051.JPG,false,1,keypress(m),500,270947.5,270947.3000000119,268058.094,268064.89999997616,268074.761,270958.152,8,400,42,,ISIC_0001126.JPG
break,html.Screen,4_41_1,2023-10-31T17:04:04.625Z,,0,,,NaN,,,,,,false,,,,270948.3000000119,270948.09999996424,,270947.6999999881,,270958.152,8,400,,,
break_continue,html.Screen,4_41_2,2023-10-31T17:04:04.626Z,,0,,,NaN,,,,,,false,,,,270948.6999999881,270948.59999996424,,270948.5,,270958.152,8,400,,,
sequence,flow.Sequence,4_41,2023-10-31T17:04:04.626Z,,0,,,2873.8389999642386,completion,,,,,false,,,,270948.89999997616,270948.59999996424,268058.094,268064.8000000119,268074.761,270958.152,8,400,,,
trial,html.Screen,4_42_0,2023-10-31T17:04:07.652Z,,0,1,,3017.148000011919,response,ISIC_7799968.JPG,6,ISIC_2225927.JPG,ISIC_7799968.JPG,false,1,keypress(m),500,273975.59999996424,273975.3000000119,270941.485,270949.09999996424,270958.152,273992.037,8,400,43,,ISIC_2225927.JPG
break,html.Screen,4_42_1,2023-10-31T17:04:07.654Z,,0,,,NaN,,,,,,false,,,,273976.6999999881,273976.3000000119,,273975.6999999881,,273992.037,8,400,,,
break_continue,html.Screen,4_42_2,2023-10-31T17:04:07.654Z,,0,,,NaN,,,,,,false,,,,273977.3000000119,273977.1999999881,,273977,,273992.037,8,400,,,
sequence,flow.Sequence,4_42,2023-10-31T17:04:07.654Z,,0,,,3019.047999988077,completion,,,,,false,,,,273977.59999996424,273977.1999999881,270941.485,270949,270958.152,273992.037,8,400,,,
trial,html.Screen,4_43_0,2023-10-31T17:04:10.491Z,,0,1,,2821.862999976147,response,ISIC_0029803.JPG,9,ISIC_0010956.JPG,ISIC_0010956.JPG,false,0,keypress(z),500,276814.1999999881,276813.89999997616,273975.37,273977.6999999881,273992.037,276825.427,8,400,44,,ISIC_0029803.JPG
break,html.Screen,4_43_1,2023-10-31T17:04:10.492Z,,0,,,NaN,,,,,,false,,,,276815,276814.8000000119,,276814.39999997616,,276825.427,8,400,,,
break_continue,html.Screen,4_43_2,2023-10-31T17:04:10.492Z,,0,,,NaN,,,,,,false,,,,276815.3000000119,276815.3000000119,,276815.09999996424,,276825.427,8,400,,,
sequence,flow.Sequence,4_43,2023-10-31T17:04:10.492Z,,0,,,2823.2630000119098,completion,,,,,false,,,,276815.39999997616,276815.3000000119,273975.37,273977.6999999881,273992.037,276825.427,8,400,,,
trial,html.Screen,4_44_0,2023-10-31T17:04:14.775Z,,0,1,,4272.572999999975,response,ISIC_0027694.JPG,8,ISIC_0015443.JPG,ISIC_0027694.JPG,false,1,keypress(m),500,281098.1999999881,281098,276808.76,276815.59999996424,276825.427,281108.846,8,400,45,,ISIC_0015443.JPG
break,html.Screen,4_44_1,2023-10-31T17:04:14.776Z,,0,,,NaN,,,,,,false,,,,281099,281098.89999997616,,281098.39999997616,,281108.846,8,400,,,
break_continue,html.Screen,4_44_2,2023-10-31T17:04:14.776Z,,0,,,NaN,,,,,,false,,,,281099.39999997616,281099.3000000119,,281099.09999996424,,281108.846,8,400,,,
sequence,flow.Sequence,4_44,2023-10-31T17:04:14.777Z,,0,,,4273.873000011896,completion,,,,,false,,,,281099.59999996424,281099.3000000119,276808.76,276815.59999996424,276825.427,281108.846,8,400,,,
trial,html.Screen,4_45_0,2023-10-31T17:04:18.475Z,,0,1,,3689.4540000119014,response,ISIC_0015005.JPG,8,ISIC_2198823.JPG,ISIC_2198823.JPG,false,0,keypress(z),500,284798.5,284798.3000000119,281092.179,281099.6999999881,281108.846,284809.407,8,400,46,,ISIC_0015005.JPG
break,html.Screen,4_45_1,2023-10-31T17:04:18.476Z,,0,,,NaN,,,,,,false,,,,284799.3000000119,284799,,284798.59999996424,,284809.407,8,400,,,
break_continue,html.Screen,4_45_2,2023-10-31T17:04:18.477Z,,0,,,NaN,,,,,,false,,,,284799.6999999881,284799.59999996424,,284799.39999997616,,284809.407,8,400,,,
sequence,flow.Sequence,4_45,2023-10-31T17:04:18.477Z,,0,,,3690.7539999642177,completion,,,,,false,,,,284799.8000000119,284799.59999996424,281092.179,281099.6999999881,281108.846,284809.407,8,400,,,
trial,html.Screen,4_46_0,2023-10-31T17:04:22.289Z,,0,1,,3802.3930000119144,response,ISIC_2863397.JPG,6,ISIC_1693458.JPG,ISIC_2863397.JPG,false,1,keypress(m),500,288612.09999996424,288611.8000000119,284792.74,284800,284809.407,288626.15,8,400,47,,ISIC_1693458.JPG
break,html.Screen,4_46_1,2023-10-31T17:04:22.290Z,,0,,,NaN,,,,,,false,,,,288612.8000000119,288612.6999999881,,288612.1999999881,,288626.15,8,400,,,
break_continue,html.Screen,4_46_2,2023-10-31T17:04:22.290Z,,0,,,NaN,,,,,,false,,,,288613.3000000119,288613.09999996424,,288613,,288626.15,8,400,,,
sequence,flow.Sequence,4_46,2023-10-31T17:04:22.290Z,,0,,,3803.6929999642307,completion,,,,,false,,,,288613.39999997616,288613.09999996424,284792.74,284800,284809.407,288626.15,8,400,,,
trial,html.Screen,4_47_0,2023-10-31T17:04:25.319Z,,0,1,,3015.949999964214,response,ISIC_0034180.JPG,7,ISIC_0026258.JPG,ISIC_0026258.JPG,false,0,keypress(z),500,291642.3000000119,291642.09999996424,288609.483,288613.59999996424,288626.15,291659.544,8,400,48,,ISIC_0034180.JPG
break,html.Screen,4_47_1,2023-10-31T17:04:25.320Z,,0,,,NaN,,,,,,false,,,,291643.09999996424,291642.89999997616,,291642.5,,291659.544,8,400,,,
break_continue,html.Screen,4_47_2,2023-10-31T17:04:25.321Z,,0,,,NaN,,,,,,false,,,,291643.5,291643.39999997616,,291643.1999999881,,291659.544,8,400,,,
sequence,flow.Sequence,4_47,2023-10-31T17:04:25.321Z,,0,,,3017.249999976135,completion,,,,,false,,,,291643.59999996424,291643.39999997616,288609.483,288613.59999996424,288626.15,291659.544,8,400,,,
trial,html.Screen,4_48_0,2023-10-31T17:04:28.779Z,,0,1,,3442.2560000119265,response,ISIC_1348843.JPG,7,ISIC_0033405.JPG,ISIC_1348843.JPG,false,1,keypress(m),500,295102.09999996424,295101.8000000119,291642.877,291643.89999997616,291659.544,295110.113,8,400,49,,ISIC_0033405.JPG
break,html.Screen,4_48_1,2023-10-31T17:04:28.780Z,,0,,,NaN,,,,,,false,,,,295102.89999997616,295102.59999996424,,295102.3000000119,,295110.113,8,400,,,
break_continue,html.Screen,4_48_2,2023-10-31T17:04:28.780Z,,0,,,NaN,,,,,,false,,,,295103.3000000119,295103.1999999881,,295103.09999996424,,295110.113,8,400,,,
sequence,flow.Sequence,4_48,2023-10-31T17:04:28.781Z,,0,,,3443.6559999880847,completion,,,,,false,,,,295103.5,295103.1999999881,291642.877,291643.8000000119,291659.544,295110.113,8,400,,,
trial,html.Screen,4_49_0,2023-10-31T17:04:33.409Z,,0,1,,4621.886999999988,response,ISIC_0070805.JPG,7,ISIC_0030829.JPG,ISIC_0030829.JPG,false,0,keypress(z),500,299732.3000000119,299732,295093.446,295103.6999999881,295110.113,299743.539,8,400,50,,ISIC_0070805.JPG
break,html.Screen,4_49_1,2023-10-31T17:04:43.408Z,,0,,,10000.676000000036,timeout,,,,,false,,,,309731.1999999881,309727.548,299726.872,299732.39999997616,299743.539,309744.215,8,400,,,
break_continue,html.Screen,4_49_2,2023-10-31T17:04:44.561Z,,0,,,1120.4849999880535,response,,,,,false,continue,keypress(Space),,310884.1999999881,310864.6999999881,309727.548,309731.39999997616,309744.215,310894.238,8,400,,,
sequence,flow.Sequence,4_49,2023-10-31T17:04:44.562Z,,0,,,15754.586999988067,completion,,,,,false,,,,310884.39999997616,310864.6999999881,295093.446,295103.59999996424,295110.113,310894.238,8,400,,,
trial,html.Screen,4_50_0,2023-10-31T17:04:48.998Z,,0,2,,4426.361999964225,response,ISIC_0072601.JPG,8,ISIC_0914168.JPG,ISIC_0072601.JPG,false,1,keypress(m),500,315320.8000000119,315320.59999996424,310877.571,310884.5,310894.238,315328.236,8,400,1,,ISIC_0914168.JPG
break,html.Screen,4_50_1,2023-10-31T17:04:48.999Z,,0,,,NaN,,,,,,false,,,,315321.6999999881,315321.39999997616,,315321.09999996424,,315328.236,8,400,,,
break_continue,html.Screen,4_50_2,2023-10-31T17:04:48.999Z,,0,,,NaN,,,,,,false,,,,315322.1999999881,315322,,315321.8000000119,,315328.236,8,400,,,
sequence,flow.Sequence,4_50,2023-10-31T17:04:48.999Z,,0,,,4427.761999999988,completion,,,,,false,,,,315322.3000000119,315322,310877.571,310884.5,310894.238,315328.236,8,400,,,
trial,html.Screen,4_51_0,2023-10-31T17:04:52.367Z,,0,2,,3361.363999964262,response,ISIC_0015015.JPG,9,ISIC_4782878.JPG,ISIC_4782878.JPG,false,0,keypress(z),500,318689.8000000119,318689.59999996424,315311.569,315322.39999997616,315328.236,318694.97,8,400,2,,ISIC_0015015.JPG
break,html.Screen,4_51_1,2023-10-31T17:04:52.368Z,,0,,,NaN,,,,,,false,,,,318690.6999999881,318690.39999997616,,318690,,318694.97,8,400,,,
break_continue,html.Screen,4_51_2,2023-10-31T17:04:52.368Z,,0,,,NaN,,,,,,false,,,,318691.09999996424,318691,,318690.8000000119,,318694.97,8,400,,,
sequence,flow.Sequence,4_51,2023-10-31T17:04:52.368Z,,0,,,3362.7640000000247,completion,,,,,false,,,,318691.3000000119,318691,315311.569,315322.39999997616,315328.236,318694.97,8,400,,,
trial,html.Screen,4_52_0,2023-10-31T17:04:54.966Z,,0,2,,2593.129999964265,response,ISIC_1727826.JPG,7,ISIC_0011381.JPG,ISIC_1727826.JPG,false,1,keypress(m),500,321288.3000000119,321288.09999996424,318678.303,318691.39999997616,318694.97,321295.022,8,400,3,,ISIC_0011381.JPG
break,html.Screen,4_52_1,2023-10-31T17:04:54.966Z,,0,,,NaN,,,,,,false,,,,321289.1999999881,321288.89999997616,,321288.59999996424,,321295.022,8,400,,,
break_continue,html.Screen,4_52_2,2023-10-31T17:04:54.967Z,,0,,,NaN,,,,,,false,,,,321289.59999996424,321289.5,,321289.3000000119,,321295.022,8,400,,,
sequence,flow.Sequence,4_52,2023-10-31T17:04:54.967Z,,0,,,2594.530000000028,completion,,,,,false,,,,321289.8000000119,321289.5,318678.303,318691.39999997616,318694.97,321295.022,8,400,,,
trial,html.Screen,4_53_0,2023-10-31T17:04:57.483Z,,0,2,,2510.677999988082,response,ISIC_2851852.JPG,7,ISIC_4673648.JPG,ISIC_2851852.JPG,false,1,keypress(m),500,323806,323805.6999999881,321278.355,321290,321295.022,323811.739,8,400,4,,ISIC_4673648.JPG
break,html.Screen,4_53_1,2023-10-31T17:04:57.484Z,,0,,,NaN,,,,,,false,,,,323806.89999997616,323806.6999999881,,323806.1999999881,,323811.739,8,400,,,
break_continue,html.Screen,4_53_2,2023-10-31T17:04:57.485Z,,0,,,NaN,,,,,,false,,,,323807.3000000119,323807.3000000119,,323807,,323811.739,8,400,,,
sequence,flow.Sequence,4_53,2023-10-31T17:04:57.485Z,,0,,,2512.2780000119237,completion,,,,,false,,,,323807.5,323807.3000000119,321278.355,321290,321295.022,323811.739,8,400,,,
trial,html.Screen,4_54_0,2023-10-31T17:05:00.086Z,,0,2,,2596.360999964236,response,ISIC_0054673.JPG,5,ISIC_0033318.JPG,ISIC_0033318.JPG,false,0,keypress(z),500,326408.3000000119,326408.09999996424,323795.072,323807.6999999881,323811.739,326412.281,8,400,5,,ISIC_0054673.JPG
break,html.Screen,4_54_1,2023-10-31T17:05:00.086Z,,0,,,NaN,,,,,,false,,,,326409.1999999881,326408.89999997616,,326408.5,,326412.281,8,400,,,
break_continue,html.Screen,4_54_2,2023-10-31T17:05:00.087Z,,0,,,NaN,,,,,,false,,,,326409.5,326409.39999997616,,326409.3000000119,,326412.281,8,400,,,
sequence,flow.Sequence,4_54,2023-10-31T17:05:00.087Z,,0,,,2597.6609999761567,completion,,,,,false,,,,326409.6999999881,326409.39999997616,323795.072,323807.59999996424,323811.739,326412.281,8,400,,,
trial,html.Screen,4_55_0,2023-10-31T17:05:02.652Z,,0,2,,2561.81899996422,response,ISIC_3734674.JPG,7,ISIC_5148474.JPG,ISIC_3734674.JPG,false,1,keypress(m),500,328974.39999997616,328974.09999996424,326395.614,326409.89999997616,326412.281,328978.999,8,400,6,,ISIC_5148474.JPG
break,html.Screen,4_55_1,2023-10-31T17:05:02.652Z,,0,,,NaN,,,,,,false,,,,328975.1999999881,328975,,328974.59999996424,,328978.999,8,400,,,
break_continue,html.Screen,4_55_2,2023-10-31T17:05:02.653Z,,0,,,NaN,,,,,,false,,,,328975.59999996424,328975.5,,328975.3000000119,,328978.999,8,400,,,
sequence,flow.Sequence,4_55,2023-10-31T17:05:02.653Z,,0,,,2563.2189999999828,completion,,,,,false,,,,328975.8000000119,328975.5,326395.614,326409.8000000119,326412.281,328978.999,8,400,,,
trial,html.Screen,4_56_0,2023-10-31T17:05:05.526Z,,0,2,,2870.0009999999893,response,ISIC_0067953.JPG,6,ISIC_2616327.JPG,ISIC_2616327.JPG,false,0,keypress(z),500,331849.1999999881,331849,328962.332,328975.89999997616,328978.999,331862.39,8,400,7,,ISIC_0067953.JPG
break,html.Screen,4_56_1,2023-10-31T17:05:05.527Z,,0,,,NaN,,,,,,false,,,,331850,331849.8000000119,,331849.39999997616,,331862.39,8,400,,,
break_continue,html.Screen,4_56_2,2023-10-31T17:05:05.528Z,,0,,,NaN,,,,,,false,,,,331850.5,331850.3000000119,,331850.09999996424,,331862.39,8,400,,,
sequence,flow.Sequence,4_56,2023-10-31T17:05:05.528Z,,0,,,2871.30100001191,completion,,,,,false,,,,331850.6999999881,331850.3000000119,328962.332,328975.89999997616,328978.999,331862.39,8,400,,,
trial,html.Screen,4_57_0,2023-10-31T17:05:08.346Z,,0,2,,2806.410000011907,response,ISIC_1927858.JPG,5,ISIC_7830756.JPG,ISIC_7830756.JPG,false,0,keypress(z),500,334669,334668.8000000119,331845.723,331850.8000000119,331862.39,334679.113,8,400,8,,ISIC_1927858.JPG
break,html.Screen,4_57_1,2023-10-31T17:05:08.347Z,,0,,,NaN,,,,,,false,,,,334669.8000000119,334669.59999996424,,334669.1999999881,,334679.113,8,400,,,
break_continue,html.Screen,4_57_2,2023-10-31T17:05:08.348Z,,0,,,NaN,,,,,,false,,,,334670.1999999881,334670.09999996424,,334669.89999997616,,334679.113,8,400,,,
sequence,flow.Sequence,4_57,2023-10-31T17:05:08.348Z,,0,,,2807.7099999642232,completion,,,,,false,,,,334670.39999997616,334670.09999996424,331845.723,331850.6999999881,331862.39,334679.113,8,400,,,
trial,html.Screen,4_58_0,2023-10-31T17:05:12.113Z,,0,2,,3756.086999988067,response,ISIC_4018813.JPG,6,ISIC_7454512.JPG,ISIC_7454512.JPG,false,0,keypress(z),500,338435.39999997616,338435.1999999881,334662.446,334670.59999996424,334679.113,338446.355,8,400,9,,ISIC_4018813.JPG
break,html.Screen,4_58_1,2023-10-31T17:05:12.114Z,,0,,,NaN,,,,,,false,,,,338436.1999999881,338436,,338435.59999996424,,338446.355,8,400,,,
break_continue,html.Screen,4_58_2,2023-10-31T17:05:12.114Z,,0,,,NaN,,,,,,false,,,,338436.6999999881,338436.5,,338436.3000000119,,338446.355,8,400,,,
sequence,flow.Sequence,4_58,2023-10-31T17:05:12.114Z,,0,,,3757.386999999988,completion,,,,,false,,,,338436.8000000119,338436.5,334662.446,334670.5,334679.113,338446.355,8,400,,,
trial,html.Screen,4_59_0,2023-10-31T17:05:14.725Z,,0,2,,2600.8449999880977,response,ISIC_9948600.JPG,8,ISIC_3460125.JPG,ISIC_3460125.JPG,false,0,keypress(z),500,341047.5,341047.1999999881,338429.688,338437,338446.355,341063.074,8,400,10,,ISIC_9948600.JPG
break,html.Screen,4_59_1,2023-10-31T17:05:14.726Z,,0,,,NaN,,,,,,false,,,,341048.1999999881,341048.09999996424,,341047.6999999881,,341063.074,8,400,,,
break_continue,html.Screen,4_59_2,2023-10-31T17:05:14.726Z,,0,,,NaN,,,,,,false,,,,341048.6999999881,341048.59999996424,,341048.39999997616,,341063.074,8,400,,,
sequence,flow.Sequence,4_59,2023-10-31T17:05:14.726Z,,0,,,2602.244999964256,completion,,,,,false,,,,341049.09999996424,341048.59999996424,338429.688,338437,338446.355,341063.074,8,400,,,
trial,html.Screen,4_60_0,2023-10-31T17:05:18.586Z,,0,2,,3845.6259999880567,response,ISIC_0024961.JPG,8,ISIC_0070137.JPG,ISIC_0024961.JPG,false,1,keypress(m),500,344908.89999997616,344908.6999999881,341046.407,341049.1999999881,341063.074,344913.151,8,400,11,,ISIC_0070137.JPG
break,html.Screen,4_60_1,2023-10-31T17:05:18.587Z,,0,,,NaN,,,,,,false,,,,344909.6999999881,344909.5,,344909.09999996424,,344913.151,8,400,,,
break_continue,html.Screen,4_60_2,2023-10-31T17:05:18.588Z,,0,,,NaN,,,,,,false,,,,344910.09999996424,344910,,344909.89999997616,,344913.151,8,400,,,
sequence,flow.Sequence,4_60,2023-10-31T17:05:18.588Z,,0,,,3846.9259999999776,completion,,,,,false,,,,344910.39999997616,344910,341046.407,341049.1999999881,341063.074,344913.151,8,400,,,
trial,html.Screen,4_61_0,2023-10-31T17:05:21.186Z,,0,2,,2595.2489999761456,response,ISIC_0004486.JPG,6,ISIC_8197240.JPG,ISIC_0004486.JPG,false,1,keypress(m),500,347508.59999996424,347508.39999997616,344896.484,344910.5,344913.151,347513.689,8,400,12,,ISIC_8197240.JPG
break,html.Screen,4_61_1,2023-10-31T17:05:21.187Z,,0,,,NaN,,,,,,false,,,,347509.5,347509.1999999881,,347508.8000000119,,347513.689,8,400,,,
break_continue,html.Screen,4_61_2,2023-10-31T17:05:21.187Z,,0,,,NaN,,,,,,false,,,,347509.8000000119,347509.8000000119,,347509.59999996424,,347513.689,8,400,,,
sequence,flow.Sequence,4_61,2023-10-31T17:05:21.187Z,,0,,,2596.6490000119084,completion,,,,,false,,,,347510.09999996424,347509.8000000119,344896.484,344910.39999997616,344913.151,347513.689,8,400,,,
trial,html.Screen,4_62_0,2023-10-31T17:05:23.752Z,,0,2,,2560.611000011908,response,ISIC_7972996.JPG,8,ISIC_0031821.JPG,ISIC_7972996.JPG,false,1,keypress(m),500,350074.59999996424,350074.3000000119,347497.022,347510.1999999881,347513.689,350080.407,8,400,13,,ISIC_0031821.JPG
break,html.Screen,4_62_1,2023-10-31T17:05:23.755Z,,0,,,NaN,,,,,,false,,,,350077.6999999881,350076.5,,350074.8000000119,,350080.407,8,400,,,
break_continue,html.Screen,4_62_2,2023-10-31T17:05:23.756Z,,0,,,NaN,,,,,,false,,,,350078.5,350078.3000000119,,350078.09999996424,,350080.407,8,400,,,
sequence,flow.Sequence,4_62,2023-10-31T17:05:23.756Z,,0,,,2564.611000011908,completion,,,,,false,,,,350078.8000000119,350078.3000000119,347497.022,347510.1999999881,347513.689,350080.407,8,400,,,
trial,html.Screen,4_63_0,2023-10-31T17:05:26.641Z,,0,2,,2883.1929999642307,response,ISIC_0059041.JPG,5,ISIC_5583159.JPG,ISIC_5583159.JPG,false,0,keypress(z),500,352963.8000000119,352963.59999996424,350063.74,350078.89999997616,350080.407,352980.465,8,400,14,,ISIC_0059041.JPG
break,html.Screen,4_63_1,2023-10-31T17:05:26.642Z,,0,,,NaN,,,,,,false,,,,352964.59999996424,352964.39999997616,,352964,,352980.465,8,400,,,
break_continue,html.Screen,4_63_2,2023-10-31T17:05:26.642Z,,0,,,NaN,,,,,,false,,,,352965,352964.89999997616,,352964.8000000119,,352980.465,8,400,,,
sequence,flow.Sequence,4_63,2023-10-31T17:05:26.643Z,,0,,,2884.4929999761516,completion,,,,,false,,,,352965.1999999881,352964.89999997616,350063.74,350078.89999997616,350080.407,352980.465,8,400,,,
trial,html.Screen,4_64_0,2023-10-31T17:05:29.384Z,,0,2,,2725.8350000118953,response,ISIC_7136995.JPG,9,ISIC_0062649.JPG,ISIC_7136995.JPG,false,1,keypress(m),500,355706.5,355706.3000000119,352963.798,352965.39999997616,352980.465,355713.853,8,400,15,,ISIC_0062649.JPG
break,html.Screen,4_64_1,2023-10-31T17:05:29.385Z,,0,,,NaN,,,,,,false,,,,355707.3000000119,355707.09999996424,,355706.6999999881,,355713.853,8,400,,,
break_continue,html.Screen,4_64_2,2023-10-31T17:05:29.385Z,,0,,,NaN,,,,,,false,,,,355707.8000000119,355707.59999996424,,355707.5,,355713.853,8,400,,,
sequence,flow.Sequence,4_64,2023-10-31T17:05:29.385Z,,0,,,2727.1349999642116,completion,,,,,false,,,,355707.89999997616,355707.59999996424,352963.798,352965.39999997616,352980.465,355713.853,8,400,,,
trial,html.Screen,4_65_0,2023-10-31T17:05:31.996Z,,0,2,,2604.447000011918,response,ISIC_0066289.JPG,9,ISIC_6033222.JPG,ISIC_6033222.JPG,false,0,keypress(z),500,358318.5,358318.3000000119,355697.186,355708.09999996424,355713.853,358331.085,8,400,16,,ISIC_0066289.JPG
break,html.Screen,4_65_1,2023-10-31T17:05:31.997Z,,0,,,NaN,,,,,,false,,,,358319.3000000119,358319.09999996424,,358318.6999999881,,358331.085,8,400,,,
break_continue,html.Screen,4_65_2,2023-10-31T17:05:31.997Z,,0,,,NaN,,,,,,false,,,,358319.8000000119,358319.6999999881,,358319.5,,358331.085,8,400,,,
sequence,flow.Sequence,4_65,2023-10-31T17:05:31.997Z,,0,,,2605.8469999880763,completion,,,,,false,,,,358320,358319.6999999881,355697.186,355708.09999996424,355713.853,358331.085,8,400,,,
trial,html.Screen,4_66_0,2023-10-31T17:05:36.831Z,,0,2,,4822.614999988058,response,ISIC_5126638.JPG,7,ISIC_3278303.JPG,ISIC_5126638.JPG,false,1,keypress(m),500,363153.89999997616,363153.6999999881,358314.418,358320.09999996424,358331.085,363164.515,8,400,17,,ISIC_3278303.JPG
break,html.Screen,4_66_1,2023-10-31T17:05:36.832Z,,0,,,NaN,,,,,,false,,,,363154.6999999881,363154.5,,363154.09999996424,,363164.515,8,400,,,
break_continue,html.Screen,4_66_2,2023-10-31T17:05:36.833Z,,0,,,NaN,,,,,,false,,,,363155.1999999881,363155,,363154.8000000119,,363164.515,8,400,,,
sequence,flow.Sequence,4_66,2023-10-31T17:05:36.833Z,,0,,,4823.914999999979,completion,,,,,false,,,,363155.3000000119,363155,358314.418,358320,358331.085,363164.515,8,400,,,
trial,html.Screen,4_67_0,2023-10-31T17:05:39.690Z,,0,2,,2847.5849999642232,response,ISIC_0010838.JPG,6,ISIC_3981425.JPG,ISIC_3981425.JPG,false,0,keypress(z),500,366012.39999997616,366012.09999996424,363147.848,363155.5,363164.515,366014.572,8,400,18,,ISIC_0010838.JPG
break,html.Screen,4_67_1,2023-10-31T17:05:39.691Z,,0,,,NaN,,,,,,false,,,,366013.1999999881,366013,,366012.59999996424,,366014.572,8,400,,,
break_continue,html.Screen,4_67_2,2023-10-31T17:05:39.691Z,,0,,,NaN,,,,,,false,,,,366013.8000000119,366013.59999996424,,366013.39999997616,,366014.572,8,400,,,
sequence,flow.Sequence,4_67,2023-10-31T17:05:39.691Z,,0,,,2849.0849999642232,completion,,,,,false,,,,366014,366013.59999996424,363147.848,363155.5,363164.515,366014.572,8,400,,,
trial,html.Screen,4_68_0,2023-10-31T17:05:43.629Z,,0,2,,3936.7280000119354,response,ISIC_0327406.JPG,9,ISIC_7755875.JPG,ISIC_7755875.JPG,false,0,keypress(z),500,369951.5,369951.3000000119,365997.905,366014.09999996424,366014.572,369965.139,8,400,19,,ISIC_0327406.JPG
break,html.Screen,4_68_1,2023-10-31T17:05:43.630Z,,0,,,NaN,,,,,,false,,,,369952.3000000119,369952.09999996424,,369951.6999999881,,369965.139,8,400,,,
break_continue,html.Screen,4_68_2,2023-10-31T17:05:43.630Z,,0,,,NaN,,,,,,false,,,,369952.6999999881,369952.59999996424,,369952.39999997616,,369965.139,8,400,,,
sequence,flow.Sequence,4_68,2023-10-31T17:05:43.630Z,,0,,,3938.0279999642516,completion,,,,,false,,,,369953,369952.59999996424,365997.905,366014.09999996424,366014.572,369965.139,8,400,,,
trial,html.Screen,4_69_0,2023-10-31T17:05:47.269Z,,0,2,,3625.8609999999753,response,ISIC_9439742.JPG,7,ISIC_4699066.JPG,ISIC_9439742.JPG,false,1,keypress(m),500,373591.1999999881,373591,369948.472,369953.09999996424,369965.139,373598.545,8,400,20,,ISIC_4699066.JPG
break,html.Screen,4_69_1,2023-10-31T17:05:47.270Z,,0,,,NaN,,,,,,false,,,,373592,373591.89999997616,,373591.39999997616,,373598.545,8,400,,,
break_continue,html.Screen,4_69_2,2023-10-31T17:05:47.270Z,,0,,,NaN,,,,,,false,,,,373592.5,373592.39999997616,,373592.1999999881,,373598.545,8,400,,,
sequence,flow.Sequence,4_69,2023-10-31T17:05:47.270Z,,0,,,3627.2609999761335,completion,,,,,false,,,,373592.59999996424,373592.39999997616,369948.472,369953,369965.139,373598.545,8,400,,,
trial,html.Screen,4_70_0,2023-10-31T17:05:50.658Z,,0,2,,3381.4550000000163,response,ISIC_5315125.JPG,6,ISIC_3377082.JPG,ISIC_3377082.JPG,false,0,keypress(z),500,376980.1999999881,376980,373581.878,373592.89999997616,373598.545,376981.946,8,400,21,,ISIC_5315125.JPG
break,html.Screen,4_70_1,2023-10-31T17:05:50.659Z,,0,,,NaN,,,,,,false,,,,376981,376980.89999997616,,376980.5,,376981.946,8,400,,,
break_continue,html.Screen,4_70_2,2023-10-31T17:05:50.659Z,,0,,,NaN,,,,,,false,,,,376981.5,376981.3000000119,,376981.1999999881,,376981.946,8,400,,,
sequence,flow.Sequence,4_70,2023-10-31T17:05:50.659Z,,0,,,3382.755000011937,completion,,,,,false,,,,376981.6999999881,376981.3000000119,373581.878,373592.8000000119,373598.545,376981.946,8,400,,,
trial,html.Screen,4_71_0,2023-10-31T17:05:54.141Z,,0,2,,3481.653999964241,response,ISIC_0027081.JPG,8,ISIC_4185719.JPG,ISIC_4185719.JPG,false,0,keypress(z),500,380463.89999997616,380463.59999996424,376965.279,376981.8000000119,376981.946,380465.87,8,400,22,,ISIC_0027081.JPG
break,html.Screen,4_71_1,2023-10-31T17:05:54.142Z,,0,,,NaN,,,,,,false,,,,380464.6999999881,380464.39999997616,,380464,,380465.87,8,400,,,
break_continue,html.Screen,4_71_2,2023-10-31T17:05:54.143Z,,0,,,NaN,,,,,,false,,,,380465.09999996424,380464.89999997616,,380464.8000000119,,380465.87,8,400,,,
sequence,flow.Sequence,4_71,2023-10-31T17:05:54.143Z,,0,,,3482.953999976162,completion,,,,,false,,,,380465.3000000119,380464.89999997616,376965.279,376981.8000000119,376981.946,380465.87,8,400,,,
trial,html.Screen,4_72_0,2023-10-31T17:05:57.026Z,,0,2,,2881.8299999880837,response,ISIC_0706692.JPG,7,ISIC_7400458.JPG,ISIC_0706692.JPG,false,1,keypress(m),500,383348,383347.6999999881,380449.203,380465.39999997616,380465.87,383365.928,8,400,23,,ISIC_7400458.JPG
break,html.Screen,4_72_1,2023-10-31T17:05:57.027Z,,0,,,NaN,,,,,,false,,,,383349.1999999881,383348.89999997616,,383348.3000000119,,383365.928,8,400,,,
break_continue,html.Screen,4_72_2,2023-10-31T17:05:57.028Z,,0,,,NaN,,,,,,false,,,,383350.09999996424,383349.6999999881,,383349.5,,383365.928,8,400,,,
sequence,flow.Sequence,4_72,2023-10-31T17:05:57.028Z,,0,,,2883.8299999880837,completion,,,,,false,,,,383350.39999997616,383349.6999999881,380449.203,380465.39999997616,380465.87,383365.928,8,400,,,
trial,html.Screen,4_73_0,2023-10-31T17:06:00.235Z,,0,2,,3191.171999964223,response,ISIC_0069492.JPG,7,ISIC_0030129.JPG,ISIC_0069492.JPG,false,1,keypress(m),500,386557.39999997616,386557.09999996424,383349.261,383350.59999996424,383365.928,386565.992,8,400,24,,ISIC_0030129.JPG
break,html.Screen,4_73_1,2023-10-31T17:06:00.236Z,,0,,,NaN,,,,,,false,,,,386558.3000000119,386558,,386557.5,,386565.992,8,400,,,
break_continue,html.Screen,4_73_2,2023-10-31T17:06:00.236Z,,0,,,NaN,,,,,,false,,,,386558.6999999881,386558.59999996424,,386558.39999997616,,386565.992,8,400,,,
sequence,flow.Sequence,4_73,2023-10-31T17:06:00.237Z,,0,,,3192.671999964223,completion,,,,,false,,,,386558.89999997616,386558.59999996424,383349.261,383350.59999996424,383365.928,386565.992,8,400,,,
trial,html.Screen,4_74_0,2023-10-31T17:06:02.855Z,,0,2,,2610.6079999642097,response,ISIC_0055024.JPG,5,ISIC_0030695.JPG,ISIC_0055024.JPG,false,1,keypress(m),500,389176.89999997616,389176.59999996424,386549.325,386559,386565.992,389183.189,8,400,25,,ISIC_0030695.JPG
break,html.Screen,4_74_1,2023-10-31T17:06:02.855Z,,0,,,NaN,,,,,,false,,,,389177.8000000119,389177.59999996424,,389177.09999996424,,389183.189,8,400,,,
break_continue,html.Screen,4_74_2,2023-10-31T17:06:02.857Z,,0,,,NaN,,,,,,false,,,,389179.3000000119,389178.09999996424,,389177.89999997616,,389183.189,8,400,,,
sequence,flow.Sequence,4_74,2023-10-31T17:06:02.857Z,,0,,,2612.1079999642097,completion,,,,,false,,,,389179.59999996424,389178.09999996424,386549.325,386559,386565.992,389183.189,8,400,,,
trial,html.Screen,4_75_0,2023-10-31T17:06:05.762Z,,0,2,,2901.010999988066,response,ISIC_9293491.JPG,6,ISIC_5441247.JPG,ISIC_5441247.JPG,false,0,keypress(z),500,392084.39999997616,392084.1999999881,389166.522,389179.6999999881,389183.189,392099.914,8,400,26,,ISIC_9293491.JPG
break,html.Screen,4_75_1,2023-10-31T17:06:05.763Z,,0,,,NaN,,,,,,false,,,,392085.1999999881,392085,,392084.59999996424,,392099.914,8,400,,,
break_continue,html.Screen,4_75_2,2023-10-31T17:06:05.763Z,,0,,,NaN,,,,,,false,,,,392085.6999999881,392085.5,,392085.39999997616,,392099.914,8,400,,,
sequence,flow.Sequence,4_75,2023-10-31T17:06:05.764Z,,0,,,2902.310999999987,completion,,,,,false,,,,392085.89999997616,392085.5,389166.522,389179.6999999881,389183.189,392099.914,8,400,,,
trial,html.Screen,4_76_0,2023-10-31T17:06:08.796Z,,0,2,,3017.7859999880893,response,ISIC_7702857.JPG,9,ISIC_0064517.JPG,ISIC_7702857.JPG,false,1,keypress(m),500,395117.89999997616,395117.6999999881,392083.247,392086,392099.914,395133.308,8,400,27,,ISIC_0064517.JPG
break,html.Screen,4_76_1,2023-10-31T17:06:08.796Z,,0,,,NaN,,,,,,false,,,,395118.8000000119,395118.59999996424,,395118.09999996424,,395133.308,8,400,,,
break_continue,html.Screen,4_76_2,2023-10-31T17:06:08.797Z,,0,,,NaN,,,,,,false,,,,395119.1999999881,395119,,395118.89999997616,,395133.308,8,400,,,
sequence,flow.Sequence,4_76,2023-10-31T17:06:08.797Z,,0,,,3019.0860000000102,completion,,,,,false,,,,395119.39999997616,395119,392083.247,392085.89999997616,392099.914,395133.308,8,400,,,
trial,html.Screen,4_77_0,2023-10-31T17:06:12.175Z,,0,2,,3363.89199998806,response,ISIC_1048913.JPG,5,ISIC_0023811.JPG,ISIC_0023811.JPG,false,0,keypress(z),500,398497.5,398497.1999999881,395116.641,395119.59999996424,395133.308,398500.042,8,400,28,,ISIC_1048913.JPG
break,html.Screen,4_77_1,2023-10-31T17:06:12.176Z,,0,,,NaN,,,,,,false,,,,398498.3000000119,398498,,398497.59999996424,,398500.042,8,400,,,
break_continue,html.Screen,4_77_2,2023-10-31T17:06:12.176Z,,0,,,NaN,,,,,,false,,,,398498.6999999881,398498.5,,398498.39999997616,,398500.042,8,400,,,
sequence,flow.Sequence,4_77,2023-10-31T17:06:12.177Z,,0,,,3365.191999999981,completion,,,,,false,,,,398498.89999997616,398498.5,395116.641,395119.5,395133.308,398500.042,8,400,,,
trial,html.Screen,4_78_0,2023-10-31T17:06:15.940Z,,0,2,,3761.957999999984,response,ISIC_7354733.JPG,8,ISIC_2208006.JPG,ISIC_2208006.JPG,false,0,keypress(z),500,402262.1999999881,402262,398483.375,398499.09999996424,398500.042,402267.278,8,400,29,,ISIC_7354733.JPG
break,html.Screen,4_78_1,2023-10-31T17:06:15.941Z,,0,,,NaN,,,,,,false,,,,402263,402262.8000000119,,402262.39999997616,,402267.278,8,400,,,
break_continue,html.Screen,4_78_2,2023-10-31T17:06:15.941Z,,0,,,NaN,,,,,,false,,,,402263.5,402263.3000000119,,402263.1999999881,,402267.278,8,400,,,
sequence,flow.Sequence,4_78,2023-10-31T17:06:15.941Z,,0,,,3763.258000011905,completion,,,,,false,,,,402263.6999999881,402263.3000000119,398483.375,398499,398500.042,402267.278,8,400,,,
trial,html.Screen,4_79_0,2023-10-31T17:06:18.649Z,,0,2,,2703.821999964246,response,ISIC_0822116.JPG,7,ISIC_0067467.JPG,ISIC_0822116.JPG,false,1,keypress(m),500,404971.39999997616,404971.09999996424,402250.611,402263.8000000119,402267.278,404983.999,8,400,30,,ISIC_0067467.JPG
break,html.Screen,4_79_1,2023-10-31T17:06:18.650Z,,0,,,NaN,,,,,,false,,,,404972.5,404972.3000000119,,404971.6999999881,,404983.999,8,400,,,
break_continue,html.Screen,4_79_2,2023-10-31T17:06:18.651Z,,0,,,NaN,,,,,,false,,,,404973,404972.8000000119,,404972.59999996424,,404983.999,8,400,,,
sequence,flow.Sequence,4_79,2023-10-31T17:06:18.651Z,,0,,,2705.52200001193,completion,,,,,false,,,,404973.1999999881,404972.8000000119,402250.611,402263.8000000119,402267.278,404983.999,8,400,,,
trial,html.Screen,4_80_0,2023-10-31T17:06:22.877Z,,0,2,,4214.900999976147,response,ISIC_0030437.JPG,8,ISIC_6404049.JPG,ISIC_0030437.JPG,false,1,keypress(m),500,409199,409198.89999997616,404967.332,404973.3000000119,404983.999,409201.226,8,400,31,,ISIC_6404049.JPG
break,html.Screen,4_80_1,2023-10-31T17:06:22.878Z,,0,,,NaN,,,,,,false,,,,409199.89999997616,409199.59999996424,,409199.3000000119,,409201.226,8,400,,,
break_continue,html.Screen,4_80_2,2023-10-31T17:06:22.878Z,,0,,,NaN,,,,,,false,,,,409200.3000000119,409200.09999996424,,409200,,409201.226,8,400,,,
sequence,flow.Sequence,4_80,2023-10-31T17:06:22.878Z,,0,,,4216.1009999642265,completion,,,,,false,,,,409200.5,409200.09999996424,404967.332,404973.1999999881,404983.999,409201.226,8,400,,,
trial,html.Screen,4_81_0,2023-10-31T17:06:26.294Z,,0,2,,3414.973999988055,response,ISIC_8006094.JPG,7,ISIC_2324728.JPG,ISIC_2324728.JPG,false,0,keypress(z),500,412616.5,412616.1999999881,409184.559,409200.59999996424,409201.226,412617.961,8,400,32,,ISIC_8006094.JPG
break,html.Screen,4_81_1,2023-10-31T17:06:26.295Z,,0,,,NaN,,,,,,false,,,,412617.39999997616,412617.09999996424,,412616.6999999881,,412617.961,8,400,,,
break_continue,html.Screen,4_81_2,2023-10-31T17:06:26.296Z,,0,,,NaN,,,,,,false,,,,412617.6999999881,412617.59999996424,,412617.5,,412617.961,8,400,,,
sequence,flow.Sequence,4_81,2023-10-31T17:06:26.296Z,,0,,,3416.373999964213,completion,,,,,false,,,,412617.89999997616,412617.59999996424,409184.559,409200.59999996424,409201.226,412617.961,8,400,,,
trial,html.Screen,4_82_0,2023-10-31T17:06:29.802Z,,0,2,,3505.5389999999898,response,ISIC_0029198.JPG,8,ISIC_0064877.JPG,ISIC_0064877.JPG,false,0,keypress(z),500,416123.6999999881,416123.5,412601.294,412618.09999996424,412617.961,416134.698,8,400,33,,ISIC_0029198.JPG
break,html.Screen,4_82_1,2023-10-31T17:06:29.802Z,,0,,,NaN,,,,,,false,,,,416124.59999996424,416124.39999997616,,416124,,416134.698,8,400,,,
break_continue,html.Screen,4_82_2,2023-10-31T17:06:29.803Z,,0,,,NaN,,,,,,false,,,,416125,416124.89999997616,,416124.6999999881,,416134.698,8,400,,,
sequence,flow.Sequence,4_82,2023-10-31T17:06:29.803Z,,0,,,3506.938999976148,completion,,,,,false,,,,416125.1999999881,416124.89999997616,412601.294,412618.09999996424,412617.961,416134.698,8,400,,,
trial,html.Screen,4_83_0,2023-10-31T17:06:32.449Z,,0,2,,2636.602000011946,response,ISIC_5377977.JPG,7,ISIC_8617277.JPG,ISIC_5377977.JPG,false,1,keypress(m),500,418771.39999997616,418771.3000000119,416118.031,416125.3000000119,416134.698,418784.751,8,400,34,,ISIC_8617277.JPG
break,html.Screen,4_83_1,2023-10-31T17:06:32.450Z,,0,,,NaN,,,,,,false,,,,418772.3000000119,418772.09999996424,,418771.6999999881,,418784.751,8,400,,,
break_continue,html.Screen,4_83_2,2023-10-31T17:06:32.450Z,,0,,,NaN,,,,,,false,,,,418772.59999996424,418772.5,,418772.39999997616,,418784.751,8,400,,,
sequence,flow.Sequence,4_83,2023-10-31T17:06:32.451Z,,0,,,2637.802000000025,completion,,,,,false,,,,418772.8000000119,418772.5,416118.031,416125.1999999881,416134.698,418784.751,8,400,,,
trial,html.Screen,4_84_0,2023-10-31T17:06:35.927Z,,0,2,,3463.7490000000107,response,ISIC_8664718.JPG,6,ISIC_5415749.JPG,ISIC_8664718.JPG,false,1,keypress(m),500,422248.6999999881,422248.5,418768.084,418772.89999997616,418784.751,422251.975,8,400,35,,ISIC_5415749.JPG
break,html.Screen,4_84_1,2023-10-31T17:06:35.927Z,,0,,,NaN,,,,,,false,,,,422249.5,422249.39999997616,,422248.89999997616,,422251.975,8,400,,,
break_continue,html.Screen,4_84_2,2023-10-31T17:06:35.928Z,,0,,,NaN,,,,,,false,,,,422249.89999997616,422249.6999999881,,422249.59999996424,,422251.975,8,400,,,
sequence,flow.Sequence,4_84,2023-10-31T17:06:35.928Z,,0,,,3464.94899998809,completion,,,,,false,,,,422250.09999996424,422249.6999999881,418768.084,418772.8000000119,418784.751,422251.975,8,400,,,
trial,html.Screen,4_85_0,2023-10-31T17:06:38.334Z,,0,2,,2403.9249999761814,response,ISIC_9210086.JPG,7,ISIC_6348638.JPG,ISIC_6348638.JPG,false,0,keypress(z),500,424656.1999999881,424655.89999997616,422235.308,422250.1999999881,422251.975,424668.69,8,400,36,,ISIC_9210086.JPG
break,html.Screen,4_85_1,2023-10-31T17:06:38.335Z,,0,,,NaN,,,,,,false,,,,424656.89999997616,424656.6999999881,,424656.3000000119,,424668.69,8,400,,,
break_continue,html.Screen,4_85_2,2023-10-31T17:06:38.335Z,,0,,,NaN,,,,,,false,,,,424657.39999997616,424657.3000000119,,424657.09999996424,,424668.69,8,400,,,
sequence,flow.Sequence,4_85,2023-10-31T17:06:38.335Z,,0,,,2405.325000011944,completion,,,,,false,,,,424657.5,424657.3000000119,422235.308,422250.09999996424,422251.975,424668.69,8,400,,,
trial,html.Screen,4_86_0,2023-10-31T17:06:41.012Z,,0,2,,2664.909999964235,response,ISIC_2178032.JPG,9,ISIC_0025235.JPG,ISIC_2178032.JPG,false,1,keypress(m),500,427333.8000000119,427333.59999996424,424652.023,424657.6999999881,424668.69,427335.41,8,400,37,,ISIC_0025235.JPG
break,html.Screen,4_86_1,2023-10-31T17:06:41.013Z,,0,,,NaN,,,,,,false,,,,427334.6999999881,427334.39999997616,,427334,,427335.41,8,400,,,
break_continue,html.Screen,4_86_2,2023-10-31T17:06:41.013Z,,0,,,NaN,,,,,,false,,,,427335,427334.89999997616,,427334.6999999881,,427335.41,8,400,,,
sequence,flow.Sequence,4_86,2023-10-31T17:06:41.013Z,,0,,,2666.209999976156,completion,,,,,false,,,,427335.3000000119,427334.89999997616,424652.023,424657.6999999881,424668.69,427335.41,8,400,,,
trial,html.Screen,4_87_0,2023-10-31T17:06:43.898Z,,0,2,,2884.689999964263,response,ISIC_4834687.JPG,6,ISIC_0953675.JPG,ISIC_0953675.JPG,false,0,keypress(z),500,430220.39999997616,430220.09999996424,427318.743,427335.39999997616,427335.41,430235.945,8,400,38,,ISIC_4834687.JPG
break,html.Screen,4_87_1,2023-10-31T17:06:43.899Z,,0,,,NaN,,,,,,false,,,,430221.1999999881,430221,,430220.59999996424,,430235.945,8,400,,,
break_continue,html.Screen,4_87_2,2023-10-31T17:06:43.900Z,,0,,,NaN,,,,,,false,,,,430221.59999996424,430221.5,,430221.39999997616,,430235.945,8,400,,,
sequence,flow.Sequence,4_87,2023-10-31T17:06:43.900Z,,0,,,2886.0900000000256,completion,,,,,false,,,,430221.8000000119,430221.5,427318.743,427335.3000000119,427335.41,430235.945,8,400,,,
trial,html.Screen,4_88_0,2023-10-31T17:06:46.527Z,,0,2,,2612.454999976151,response,ISIC_9335652.JPG,5,ISIC_0010900.JPG,ISIC_9335652.JPG,false,1,keypress(m),500,432848.59999996424,432848.39999997616,430219.278,430221.89999997616,430235.945,432852.664,8,400,39,,ISIC_0010900.JPG
break,html.Screen,4_88_1,2023-10-31T17:06:46.527Z,,0,,,NaN,,,,,,false,,,,432849.5,432849.3000000119,,432848.8000000119,,432852.664,8,400,,,
break_continue,html.Screen,4_88_2,2023-10-31T17:06:46.528Z,,0,,,NaN,,,,,,false,,,,432849.89999997616,432849.8000000119,,432849.59999996424,,432852.664,8,400,,,
sequence,flow.Sequence,4_88,2023-10-31T17:06:46.528Z,,0,,,2613.855000011914,completion,,,,,false,,,,432850.09999996424,432849.8000000119,430219.278,430221.89999997616,430235.945,432852.664,8,400,,,
trial,html.Screen,4_89_0,2023-10-31T17:06:49.315Z,,0,2,,2783.9359999642475,response,ISIC_0032550.JPG,7,ISIC_4434803.JPG,ISIC_4434803.JPG,false,0,keypress(z),500,435636.89999997616,435636.59999996424,432835.997,432850.3000000119,432852.664,435652.72,8,400,40,,ISIC_0032550.JPG
break,html.Screen,4_89_1,2023-10-31T17:06:49.316Z,,0,,,NaN,,,,,,false,,,,435637.6999999881,435637.5,,435637,,435652.72,8,400,,,
break_continue,html.Screen,4_89_2,2023-10-31T17:06:49.316Z,,0,,,NaN,,,,,,false,,,,435638.09999996424,435638,,435637.8000000119,,435652.72,8,400,,,
sequence,flow.Sequence,4_89,2023-10-31T17:06:49.316Z,,0,,,2785.3360000000102,completion,,,,,false,,,,435638.3000000119,435638,432835.997,432850.1999999881,432852.664,435652.72,8,400,,,
trial,html.Screen,4_90_0,2023-10-31T17:06:52.171Z,,0,2,,2839.580000011949,response,ISIC_0032265.JPG,5,ISIC_1738738.JPG,ISIC_1738738.JPG,false,0,keypress(z),500,438492.5,438492.3000000119,435636.053,435638.39999997616,435652.72,438502.777,8,400,41,,ISIC_0032265.JPG
break,html.Screen,4_90_1,2023-10-31T17:06:52.171Z,,0,,,NaN,,,,,,false,,,,438493.39999997616,438493.1999999881,,438492.6999999881,,438502.777,8,400,,,
break_continue,html.Screen,4_90_2,2023-10-31T17:06:52.172Z,,0,,,NaN,,,,,,false,,,,438493.8000000119,438493.6999999881,,438493.5,,438502.777,8,400,,,
sequence,flow.Sequence,4_90,2023-10-31T17:06:52.172Z,,0,,,2840.979999988107,completion,,,,,false,,,,438494,438493.6999999881,435636.053,435638.39999997616,435652.72,438502.777,8,400,,,
trial,html.Screen,4_91_0,2023-10-31T17:06:55.680Z,,0,2,,3498.922999988077,response,ISIC_0013316.JPG,5,ISIC_8168598.JPG,ISIC_8168598.JPG,false,0,keypress(z),500,442002,442001.6999999881,438486.11,438494.1999999881,438502.777,442003.354,8,400,42,,ISIC_0013316.JPG
break,html.Screen,4_91_1,2023-10-31T17:06:55.681Z,,0,,,NaN,,,,,,false,,,,442002.8000000119,442002.6999999881,,442002.1999999881,,442003.354,8,400,,,
break_continue,html.Screen,4_91_2,2023-10-31T17:06:55.681Z,,0,,,NaN,,,,,,false,,,,442003.3000000119,442003.1999999881,,442003,,442003.354,8,400,,,
sequence,flow.Sequence,4_91,2023-10-31T17:06:55.682Z,,0,,,3500.422999988077,completion,,,,,false,,,,442003.5,442003.1999999881,438486.11,438494.1999999881,438502.777,442003.354,8,400,,,
trial,html.Screen,4_92_0,2023-10-31T17:06:58.870Z,,0,2,,3187.946000011929,response,ISIC_6703027.JPG,5,ISIC_0058035.JPG,ISIC_6703027.JPG,false,1,keypress(m),500,445191.59999996424,445191.3000000119,441986.687,442003.59999996424,442003.354,445203.418,8,400,43,,ISIC_0058035.JPG
break,html.Screen,4_92_1,2023-10-31T17:06:58.870Z,,0,,,NaN,,,,,,false,,,,445192.39999997616,445192.1999999881,,445191.6999999881,,445203.418,8,400,,,
break_continue,html.Screen,4_92_2,2023-10-31T17:06:58.871Z,,0,,,NaN,,,,,,false,,,,445192.8000000119,445192.6999999881,,445192.5,,445203.418,8,400,,,
sequence,flow.Sequence,4_92,2023-10-31T17:06:58.871Z,,0,,,3189.345999988087,completion,,,,,false,,,,445193,445192.6999999881,441986.687,442003.59999996424,442003.354,445203.418,8,400,,,
trial,html.Screen,4_93_0,2023-10-31T17:07:02.878Z,,0,2,,3995.882000011916,response,ISIC_4607215.JPG,5,ISIC_0010655.JPG,ISIC_0010655.JPG,false,0,keypress(z),500,449199.5,449199.3000000119,445186.751,445193.09999996424,445203.418,449203.498,8,400,44,,ISIC_4607215.JPG
break,html.Screen,4_93_1,2023-10-31T17:07:02.878Z,,0,,,NaN,,,,,,false,,,,449200.39999997616,449200.09999996424,,449199.6999999881,,449203.498,8,400,,,
break_continue,html.Screen,4_93_2,2023-10-31T17:07:02.879Z,,0,,,NaN,,,,,,false,,,,449200.8000000119,449200.6999999881,,449200.5,,449203.498,8,400,,,
sequence,flow.Sequence,4_93,2023-10-31T17:07:02.879Z,,0,,,3997.281999988074,completion,,,,,false,,,,449201,449200.6999999881,445186.751,445193.09999996424,445203.418,449203.498,8,400,,,
trial,html.Screen,4_94_0,2023-10-31T17:07:06.773Z,,0,2,,3890.9019999761367,response,ISIC_5971574.JPG,8,ISIC_0026727.JPG,ISIC_5971574.JPG,false,1,keypress(m),500,453094.59999996424,453094.39999997616,449186.831,449201.09999996424,449203.498,453104.083,8,400,45,,ISIC_0026727.JPG
break,html.Screen,4_94_1,2023-10-31T17:07:06.774Z,,0,,,NaN,,,,,,false,,,,453095.5,453095.3000000119,,453094.89999997616,,453104.083,8,400,,,
break_continue,html.Screen,4_94_2,2023-10-31T17:07:06.774Z,,0,,,NaN,,,,,,false,,,,453096,453095.8000000119,,453095.59999996424,,453104.083,8,400,,,
sequence,flow.Sequence,4_94,2023-10-31T17:07:06.774Z,,0,,,3892.3020000118995,completion,,,,,false,,,,453096.1999999881,453095.8000000119,449186.831,449201.09999996424,449203.498,453104.083,8,400,,,
trial,html.Screen,4_95_0,2023-10-31T17:07:09.787Z,,0,2,,3004.816999976174,response,ISIC_8617084.JPG,8,ISIC_6946260.JPG,ISIC_6946260.JPG,false,0,keypress(z),500,456109.1999999881,456108.89999997616,453087.416,453096.1999999881,453104.083,456120.81,8,400,46,,ISIC_8617084.JPG
break,html.Screen,4_95_1,2023-10-31T17:07:09.788Z,,0,,,NaN,,,,,,false,,,,456110,456109.89999997616,,456109.39999997616,,456120.81,8,400,,,
break_continue,html.Screen,4_95_2,2023-10-31T17:07:09.789Z,,0,,,NaN,,,,,,false,,,,456110.6999999881,456110.5,,456110.3000000119,,456120.81,8,400,,,
sequence,flow.Sequence,4_95,2023-10-31T17:07:09.789Z,,0,,,3006.417000000016,completion,,,,,false,,,,456110.8000000119,456110.5,453087.416,453096.1999999881,453104.083,456120.81,8,400,,,
trial,html.Screen,4_96_0,2023-10-31T17:07:13.119Z,,0,2,,3320.2899999642395,response,ISIC_0064478.JPG,6,ISIC_2196127.JPG,ISIC_2196127.JPG,false,0,keypress(z),500,459441.1999999881,459441.09999996424,456104.143,456111,456120.81,459454.21,8,400,47,,ISIC_0064478.JPG
break,html.Screen,4_96_1,2023-10-31T17:07:13.120Z,,0,,,NaN,,,,,,false,,,,459442.09999996424,459441.89999997616,,459441.5,,459454.21,8,400,,,
break_continue,html.Screen,4_96_2,2023-10-31T17:07:13.121Z,,0,,,NaN,,,,,,false,,,,459442.5,459442.39999997616,,459442.1999999881,,459454.21,8,400,,,
sequence,flow.Sequence,4_96,2023-10-31T17:07:13.121Z,,0,,,3321.5899999761605,completion,,,,,false,,,,459442.8000000119,459442.39999997616,456104.143,456110.89999997616,456120.81,459454.21,8,400,,,
trial,html.Screen,4_97_0,2023-10-31T17:07:16.151Z,,0,2,,3018.489999988058,response,ISIC_5831880.JPG,5,ISIC_2454898.JPG,ISIC_2454898.JPG,false,0,keypress(z),500,462472.89999997616,462472.6999999881,459437.543,459442.89999997616,459454.21,462488.091,8,400,48,,ISIC_5831880.JPG
break,html.Screen,4_97_1,2023-10-31T17:07:16.152Z,,0,,,NaN,,,,,,false,,,,462473.8000000119,462473.59999996424,,462473.09999996424,,462488.091,8,400,,,
break_continue,html.Screen,4_97_2,2023-10-31T17:07:16.153Z,,0,,,NaN,,,,,,false,,,,462474.39999997616,462474.1999999881,,462474,,462488.091,8,400,,,
sequence,flow.Sequence,4_97,2023-10-31T17:07:16.153Z,,0,,,3019.989999988058,completion,,,,,false,,,,462474.59999996424,462474.1999999881,459437.543,459442.89999997616,459454.21,462488.091,8,400,,,
trial,html.Screen,4_98_0,2023-10-31T17:07:19.613Z,,0,2,,3446.8089999761432,response,ISIC_0026916.JPG,5,ISIC_5922588.JPG,ISIC_0026916.JPG,false,1,keypress(m),500,465935.1999999881,465934.89999997616,462471.424,462474.8000000119,462488.091,465938.16,8,400,49,,ISIC_5922588.JPG
break,html.Screen,4_98_1,2023-10-31T17:07:19.614Z,,0,,,NaN,,,,,,false,,,,465936.1999999881,465935.89999997616,,465935.5,,465938.16,8,400,,,
break_continue,html.Screen,4_98_2,2023-10-31T17:07:19.615Z,,0,,,NaN,,,,,,false,,,,465936.6999999881,465936.59999996424,,465936.3000000119,,465938.16,8,400,,,
sequence,flow.Sequence,4_98,2023-10-31T17:07:19.615Z,,0,,,3448.5089999642223,completion,,,,,false,,,,465936.89999997616,465936.59999996424,462471.424,462474.8000000119,462488.091,465938.16,8,400,,,
trial,html.Screen,4_99_0,2023-10-31T17:07:23.508Z,,0,2,,3890.939999964263,response,ISIC_0663824.JPG,8,ISIC_0268701.JPG,ISIC_0663824.JPG,false,1,keypress(m),500,469829.39999997616,469829.09999996424,465921.493,465937.09999996424,465938.16,469838.238,8,400,50,,ISIC_0268701.JPG
break,html.Screen,4_99_1,2023-10-31T17:07:33.505Z,,0,,,10000.675999999978,timeout,,,,,false,,,,479826.6999999881,479822.247,469821.571,469829.59999996424,469838.238,479838.914,8,400,,,
break_continue,html.Screen,4_99_2,2023-10-31T17:07:34.331Z,,0,,,788.9859999761684,response,,,,,false,continue,keypress(Space),,480652.39999997616,480627.89999997616,479822.247,479826.89999997616,479838.914,480655.597,8,400,,,
sequence,flow.Sequence,4_99,2023-10-31T17:07:34.331Z,,0,,,14689.739999976184,completion,,,,,false,,,,480652.59999996424,480627.89999997616,465921.493,465937,465938.16,480655.597,8,400,,,
trial,html.Screen,4_100_0,2023-10-31T17:07:37.394Z,,0,3,,3060.3029999761493,response,ISIC_0025757.JPG,8,ISIC_0069536.JPG,ISIC_0025757.JPG,false,1,keypress(m),500,483716.09999996424,483715.89999997616,480638.93,480652.6999999881,480655.597,483722.807,8,400,1,,ISIC_0069536.JPG
break,html.Screen,4_100_1,2023-10-31T17:07:37.395Z,,0,,,NaN,,,,,,false,,,,483717,483716.8000000119,,483716.3000000119,,483722.807,8,400,,,
break_continue,html.Screen,4_100_2,2023-10-31T17:07:37.396Z,,0,,,NaN,,,,,,false,,,,483717.39999997616,483717.3000000119,,483717.1999999881,,483722.807,8,400,,,
sequence,flow.Sequence,4_100,2023-10-31T17:07:37.396Z,,0,,,3061.703000011912,completion,,,,,false,,,,483717.6999999881,483717.3000000119,480638.93,480652.6999999881,480655.597,483722.807,8,400,,,
trial,html.Screen,4_101_0,2023-10-31T17:07:40.094Z,,0,3,,2692.8929999881075,response,ISIC_0062559.JPG,8,ISIC_0065346.JPG,ISIC_0062559.JPG,false,1,keypress(m),500,486415.8000000119,486415.6999999881,483706.14,483717.8000000119,483722.807,486422.861,8,400,2,,ISIC_0065346.JPG
break,html.Screen,4_101_1,2023-10-31T17:07:40.095Z,,0,,,NaN,,,,,,false,,,,486416.6999999881,486416.5,,486416,,486422.861,8,400,,,
break_continue,html.Screen,4_101_2,2023-10-31T17:07:40.095Z,,0,,,NaN,,,,,,false,,,,486417.1999999881,486417,,486416.89999997616,,486422.861,8,400,,,
sequence,flow.Sequence,4_101,2023-10-31T17:07:40.096Z,,0,,,2694.1930000000284,completion,,,,,false,,,,486417.3000000119,486417,483706.14,483717.6999999881,483722.807,486422.861,8,400,,,
trial,html.Screen,4_102_0,2023-10-31T17:07:42.563Z,,0,3,,2461.1390000000247,response,ISIC_1175776.JPG,9,ISIC_0026770.JPG,ISIC_1175776.JPG,false,1,keypress(m),500,488884.3000000119,488884,486406.194,486417.5,486422.861,488889.577,8,400,3,,ISIC_0026770.JPG
break,html.Screen,4_102_1,2023-10-31T17:07:42.564Z,,0,,,NaN,,,,,,false,,,,488885.1999999881,488885,,488884.5,,488889.577,8,400,,,
break_continue,html.Screen,4_102_2,2023-10-31T17:07:42.564Z,,0,,,NaN,,,,,,false,,,,488885.59999996424,488885.39999997616,,488885.39999997616,,488889.577,8,400,,,
sequence,flow.Sequence,4_102,2023-10-31T17:07:42.564Z,,0,,,2462.538999976183,completion,,,,,false,,,,488885.8000000119,488885.39999997616,486406.194,486417.39999997616,486422.861,488889.577,8,400,,,
trial,html.Screen,4_103_0,2023-10-31T17:07:45.001Z,,0,3,,2432.42300000001,response,ISIC_0026889.JPG,7,ISIC_0064270.JPG,ISIC_0026889.JPG,false,1,keypress(m),500,491322.3000000119,491322,488872.91,488885.89999997616,488889.577,491323.44,8,400,4,,ISIC_0064270.JPG
break,html.Screen,4_103_1,2023-10-31T17:07:45.001Z,,0,,,NaN,,,,,,false,,,,491323.09999996424,491322.8000000119,,491322.5,,491323.44,8,400,,,
break_continue,html.Screen,4_103_2,2023-10-31T17:07:45.002Z,,0,,,NaN,,,,,,false,,,,491323.5,491323.39999997616,,491323.1999999881,,491323.44,8,400,,,
sequence,flow.Sequence,4_103,2023-10-31T17:07:45.002Z,,0,,,2433.822999976168,completion,,,,,false,,,,491323.6999999881,491323.39999997616,488872.91,488885.89999997616,488889.577,491323.44,8,400,,,
trial,html.Screen,4_104_0,2023-10-31T17:07:47.984Z,,0,3,,2981.459999976156,response,ISIC_0016145.JPG,7,ISIC_0055024.JPG,ISIC_0055024.JPG,false,0,keypress(z),500,494305.1999999881,494304.89999997616,491306.773,491323.8000000119,491323.44,494306.833,8,400,5,,ISIC_0016145.JPG
break,html.Screen,4_104_1,2023-10-31T17:07:47.984Z,,0,,,NaN,,,,,,false,,,,494306.09999996424,494305.8000000119,,494305.39999997616,,494306.833,8,400,,,
break_continue,html.Screen,4_104_2,2023-10-31T17:07:47.985Z,,0,,,NaN,,,,,,false,,,,494306.5,494306.3000000119,,494306.1999999881,,494306.833,8,400,,,
sequence,flow.Sequence,4_104,2023-10-31T17:07:47.985Z,,0,,,2982.8600000119186,completion,,,,,false,,,,494306.59999996424,494306.3000000119,491306.773,491323.8000000119,491323.44,494306.833,8,400,,,
trial,html.Screen,4_105_0,2023-10-31T17:07:50.524Z,,0,3,,2538.667000000016,response,ISIC_2979268.JPG,6,ISIC_0065807.JPG,ISIC_2979268.JPG,false,1,keypress(m),500,496845.6999999881,496845.5,494290.166,494306.8000000119,494306.833,496856.884,8,400,6,,ISIC_0065807.JPG
break,html.Screen,4_105_1,2023-10-31T17:07:50.525Z,,0,,,NaN,,,,,,false,,,,496846.59999996424,496846.39999997616,,496846,,496856.884,8,400,,,
break_continue,html.Screen,4_105_2,2023-10-31T17:07:50.525Z,,0,,,NaN,,,,,,false,,,,496847,496846.89999997616,,496846.6999999881,,496856.884,8,400,,,
sequence,flow.Sequence,4_105,2023-10-31T17:07:50.526Z,,0,,,2540.066999976174,completion,,,,,false,,,,496847.1999999881,496846.89999997616,494290.166,494306.6999999881,494306.833,496856.884,8,400,,,
trial,html.Screen,4_106_0,2023-10-31T17:07:54.016Z,,0,3,,3480.215999964217,response,ISIC_7131689.JPG,5,ISIC_7223327.JPG,ISIC_7223327.JPG,false,0,keypress(z),500,500337.3000000119,500337.09999996424,496840.217,496847.3000000119,496856.884,500340.287,8,400,7,,ISIC_7131689.JPG
break,html.Screen,4_106_1,2023-10-31T17:07:54.017Z,,0,,,NaN,,,,,,false,,,,500338.1999999881,500337.89999997616,,500337.59999996424,,500340.287,8,400,,,
break_continue,html.Screen,4_106_2,2023-10-31T17:07:54.017Z,,0,,,NaN,,,,,,false,,,,500338.59999996424,500338.5,,500338.3000000119,,500340.287,8,400,,,
sequence,flow.Sequence,4_106,2023-10-31T17:07:54.017Z,,0,,,3481.61599999998,completion,,,,,false,,,,500338.6999999881,500338.5,496840.217,496847.1999999881,496856.884,500340.287,8,400,,,
trial,html.Screen,4_107_0,2023-10-31T17:07:56.581Z,,0,3,,2561.812999964226,response,ISIC_5406677.JPG,7,ISIC_3679789.JPG,ISIC_3679789.JPG,false,0,keypress(z),500,502902.39999997616,502902.09999996424,500323.62,500339,500340.287,502907.497,8,400,8,,ISIC_5406677.JPG
break,html.Screen,4_107_1,2023-10-31T17:07:56.583Z,,0,,,NaN,,,,,,false,,,,502904.89999997616,502904,,502902.5,,502907.497,8,400,,,
break_continue,html.Screen,4_107_2,2023-10-31T17:07:56.585Z,,0,,,NaN,,,,,,false,,,,502906.1999999881,502905.8000000119,,502905.1999999881,,502907.497,8,400,,,
sequence,flow.Sequence,4_107,2023-10-31T17:07:56.585Z,,0,,,2565.5130000119098,completion,,,,,false,,,,502906.39999997616,502905.8000000119,500323.62,500338.89999997616,500340.287,502907.497,8,400,,,
trial,html.Screen,4_108_0,2023-10-31T17:07:59.339Z,,0,3,,2752.803000011947,response,ISIC_0068627.JPG,5,ISIC_0014221.JPG,ISIC_0014221.JPG,false,0,keypress(z),500,505660.59999996424,505660.3000000119,502890.83,502906.5,502907.497,505674.219,8,400,9,,ISIC_0068627.JPG
break,html.Screen,4_108_1,2023-10-31T17:07:59.340Z,,0,,,NaN,,,,,,false,,,,505661.39999997616,505661.1999999881,,505660.8000000119,,505674.219,8,400,,,
break_continue,html.Screen,4_108_2,2023-10-31T17:07:59.340Z,,0,,,NaN,,,,,,false,,,,505661.89999997616,505661.6999999881,,505661.5,,505674.219,8,400,,,
sequence,flow.Sequence,4_108,2023-10-31T17:07:59.341Z,,0,,,2754.202999988105,completion,,,,,false,,,,505662.09999996424,505661.6999999881,502890.83,502906.5,502907.497,505674.219,8,400,,,
trial,html.Screen,4_109_0,2023-10-31T17:08:02.337Z,,0,3,,2983.9809999880963,response,ISIC_0063241.JPG,7,ISIC_0072612.JPG,ISIC_0063241.JPG,false,1,keypress(m),500,508658.5,508658.1999999881,505657.552,505662.1999999881,505674.219,508674.279,8,400,10,,ISIC_0072612.JPG
break,html.Screen,4_109_1,2023-10-31T17:08:02.338Z,,0,,,NaN,,,,,,false,,,,508659.1999999881,508659,,508658.59999996424,,508674.279,8,400,,,
break_continue,html.Screen,4_109_2,2023-10-31T17:08:02.338Z,,0,,,NaN,,,,,,false,,,,508659.6999999881,508659.59999996424,,508659.39999997616,,508674.279,8,400,,,
sequence,flow.Sequence,4_109,2023-10-31T17:08:02.338Z,,0,,,2985.3809999642544,completion,,,,,false,,,,508659.89999997616,508659.59999996424,505657.552,505662.1999999881,505674.219,508674.279,8,400,,,
trial,html.Screen,4_110_0,2023-10-31T17:08:04.902Z,,0,3,,2549.3209999642568,response,ISIC_0066399.JPG,8,ISIC_0056819.JPG,ISIC_0056819.JPG,false,0,keypress(z),500,511223.8000000119,511223.59999996424,508657.612,508660,508674.279,511240.997,8,400,11,,ISIC_0066399.JPG
break,html.Screen,4_110_1,2023-10-31T17:08:04.903Z,,0,,,NaN,,,,,,false,,,,511224.6999999881,511224.39999997616,,511224,,511240.997,8,400,,,
break_continue,html.Screen,4_110_2,2023-10-31T17:08:04.904Z,,0,,,NaN,,,,,,false,,,,511225.09999996424,511225,,511224.8000000119,,511240.997,8,400,,,
sequence,flow.Sequence,4_110,2023-10-31T17:08:04.904Z,,0,,,2550.7210000000196,completion,,,,,false,,,,511225.1999999881,511225,508657.612,508660,508674.279,511240.997,8,400,,,
trial,html.Screen,4_111_0,2023-10-31T17:08:07.820Z,,0,3,,2900.402999976184,response,ISIC_0411688.JPG,4,ISIC_0031184.JPG,ISIC_0031184.JPG,false,0,keypress(z),500,514141.59999996424,514141.39999997616,511224.33,511225.39999997616,511240.997,514158.2,8,400,12,,ISIC_0411688.JPG
break,html.Screen,4_111_1,2023-10-31T17:08:07.821Z,,0,,,NaN,,,,,,false,,,,514142.39999997616,514142.3000000119,,514141.89999997616,,514158.2,8,400,,,
break_continue,html.Screen,4_111_2,2023-10-31T17:08:07.821Z,,0,,,NaN,,,,,,false,,,,514142.89999997616,514142.8000000119,,514142.6999999881,,514158.2,8,400,,,
sequence,flow.Sequence,4_111,2023-10-31T17:08:07.822Z,,0,,,2901.803000011947,completion,,,,,false,,,,514143.09999996424,514142.8000000119,511224.33,511225.3000000119,511240.997,514158.2,8,400,,,
trial,html.Screen,4_112_0,2023-10-31T17:08:10.483Z,,0,3,,2645.6000000119093,response,ISIC_0060773.JPG,6,ISIC_0031629.JPG,ISIC_0031629.JPG,false,0,keypress(z),500,516804.09999996424,516803.8000000119,514141.533,514143.1999999881,514158.2,516808.253,8,400,13,,ISIC_0060773.JPG
break,html.Screen,4_112_1,2023-10-31T17:08:10.483Z,,0,,,NaN,,,,,,false,,,,516804.89999997616,516804.6999999881,,516804.1999999881,,516808.253,8,400,,,
break_continue,html.Screen,4_112_2,2023-10-31T17:08:10.484Z,,0,,,NaN,,,,,,false,,,,516805.3000000119,516805.1999999881,,516805,,516808.253,8,400,,,
sequence,flow.Sequence,4_112,2023-10-31T17:08:10.484Z,,0,,,2646.9999999880674,completion,,,,,false,,,,516805.5,516805.1999999881,514141.533,514143.1999999881,514158.2,516808.253,8,400,,,
trial,html.Screen,4_113_0,2023-10-31T17:08:13.640Z,,0,3,,3152.547000011895,response,ISIC_0070822.JPG,7,ISIC_0000162.JPG,ISIC_0000162.JPG,false,0,keypress(z),500,519961.09999996424,519960.8000000119,516791.586,516805.6999999881,516808.253,519974.983,8,400,14,,ISIC_0070822.JPG
break,html.Screen,4_113_1,2023-10-31T17:08:13.640Z,,0,,,NaN,,,,,,false,,,,519961.89999997616,519961.59999996424,,519961.3000000119,,519974.983,8,400,,,
break_continue,html.Screen,4_113_2,2023-10-31T17:08:13.641Z,,0,,,NaN,,,,,,false,,,,519962.3000000119,519962.1999999881,,519962,,519974.983,8,400,,,
sequence,flow.Sequence,4_113,2023-10-31T17:08:13.641Z,,0,,,3153.946999988053,completion,,,,,false,,,,519962.5,519962.1999999881,516791.586,516805.59999996424,516808.253,519974.983,8,400,,,
trial,html.Screen,4_114_0,2023-10-31T17:08:17.085Z,,0,3,,3431.1169999642298,response,ISIC_4187627.JPG,8,ISIC_0420777.JPG,ISIC_0420777.JPG,false,0,keypress(z),500,523406.3000000119,523406.09999996424,519958.316,519962.59999996424,519974.983,523408.871,8,400,15,,ISIC_4187627.JPG
break,html.Screen,4_114_1,2023-10-31T17:08:17.086Z,,0,,,NaN,,,,,,false,,,,523407.1999999881,523406.89999997616,,523406.59999996424,,523408.871,8,400,,,
break_continue,html.Screen,4_114_2,2023-10-31T17:08:17.086Z,,0,,,NaN,,,,,,false,,,,523407.59999996424,523407.5,,523407.3000000119,,523408.871,8,400,,,
sequence,flow.Sequence,4_114,2023-10-31T17:08:17.086Z,,0,,,3432.5169999999925,completion,,,,,false,,,,523407.8000000119,523407.5,519958.316,519962.59999996424,519974.983,523408.871,8,400,,,
trial,html.Screen,4_115_0,2023-10-31T17:08:20.280Z,,0,3,,3192.3289999880944,response,ISIC_8170849.JPG,7,ISIC_0026258.JPG,ISIC_8170849.JPG,false,1,keypress(m),500,526601.3999999762,526601.1999999881,523392.204,523407.89999997616,523408.871,526608.935,8,400,16,,ISIC_0026258.JPG
break,html.Screen,4_115_1,2023-10-31T17:08:20.281Z,,0,,,NaN,,,,,,false,,,,526602.3000000119,526602.0999999642,,526601.6999999881,,526608.935,8,400,,,
break_continue,html.Screen,4_115_2,2023-10-31T17:08:20.281Z,,0,,,NaN,,,,,,false,,,,526602.6999999881,526602.5999999642,,526602.3999999762,,526608.935,8,400,,,
sequence,flow.Sequence,4_115,2023-10-31T17:08:20.282Z,,0,,,3193.7289999642526,completion,,,,,false,,,,526602.8999999762,526602.5999999642,523392.204,523407.89999997616,523408.871,526608.935,8,400,,,
trial,html.Screen,4_116_0,2023-10-31T17:08:22.959Z,,0,3,,2671.1649999641813,response,ISIC_2375394.JPG,9,ISIC_0029914.JPG,ISIC_2375394.JPG,false,1,keypress(m),500,529280.1999999881,529280.0999999642,526592.268,526603.0999999642,526608.935,529292.322,8,400,17,,ISIC_0029914.JPG
break,html.Screen,4_116_1,2023-10-31T17:08:22.960Z,,0,,,NaN,,,,,,false,,,,529281.0999999642,529280.8999999762,,529280.5,,529292.322,8,400,,,
break_continue,html.Screen,4_116_2,2023-10-31T17:08:22.960Z,,0,,,NaN,,,,,,false,,,,529281.5999999642,529281.3999999762,,529281.1999999881,,529292.322,8,400,,,
sequence,flow.Sequence,4_116,2023-10-31T17:08:22.960Z,,0,,,2672.4649999761023,completion,,,,,false,,,,529281.8000000119,529281.3999999762,526592.268,526603.0999999642,526608.935,529292.322,8,400,,,
trial,html.Screen,4_117_0,2023-10-31T17:08:26.117Z,,0,3,,3145.8779999880353,response,ISIC_0033333.JPG,8,ISIC_0029071.JPG,ISIC_0029071.JPG,false,0,keypress(z),500,532438.3999999762,532438.1999999881,529275.655,529281.8999999762,529292.322,532442.882,8,400,18,,ISIC_0033333.JPG
break,html.Screen,4_117_1,2023-10-31T17:08:26.118Z,,0,,,NaN,,,,,,false,,,,532439.1999999881,532439,,532438.5999999642,,532442.882,8,400,,,
break_continue,html.Screen,4_117_2,2023-10-31T17:08:26.118Z,,0,,,NaN,,,,,,false,,,,532439.5999999642,532439.5,,532439.3999999762,,532442.882,8,400,,,
sequence,flow.Sequence,4_117,2023-10-31T17:08:26.119Z,,0,,,3147.1779999999562,completion,,,,,false,,,,532439.8999999762,532439.5,529275.655,529281.8000000119,529292.322,532442.882,8,400,,,
trial,html.Screen,4_118_0,2023-10-31T17:08:29.386Z,,0,3,,3264.1180000000168,response,ISIC_6785249.JPG,8,ISIC_6008974.JPG,ISIC_6785249.JPG,false,1,keypress(m),500,535707.1999999881,535707,532426.215,532440,532442.882,535709.614,8,400,19,,ISIC_6008974.JPG
break,html.Screen,4_118_1,2023-10-31T17:08:29.387Z,,0,,,NaN,,,,,,false,,,,535708,535707.8000000119,,535707.3999999762,,535709.614,8,400,,,
break_continue,html.Screen,4_118_2,2023-10-31T17:08:29.387Z,,0,,,NaN,,,,,,false,,,,535708.5,535708.3000000119,,535708.1999999881,,535709.614,8,400,,,
sequence,flow.Sequence,4_118,2023-10-31T17:08:29.387Z,,0,,,3265.4180000119377,completion,,,,,false,,,,535708.6999999881,535708.3000000119,532426.215,532440,532442.882,535709.614,8,400,,,
trial,html.Screen,4_119_0,2023-10-31T17:08:32.162Z,,0,3,,2773.085999988136,response,ISIC_0563533.JPG,6,ISIC_0068217.JPG,ISIC_0563533.JPG,false,1,keypress(m),500,538482.8999999762,538482.6999999881,535692.947,535708.8000000119,535709.614,538493.003,8,400,20,,ISIC_0068217.JPG
break,html.Screen,4_119_1,2023-10-31T17:08:32.162Z,,0,,,NaN,,,,,,false,,,,538483.6999999881,538483.5,,538483.1999999881,,538493.003,8,400,,,
break_continue,html.Screen,4_119_2,2023-10-31T17:08:32.163Z,,0,,,NaN,,,,,,false,,,,538484.1999999881,538484,,538483.8000000119,,538493.003,8,400,,,
sequence,flow.Sequence,4_119,2023-10-31T17:08:32.163Z,,0,,,2774.386000000057,completion,,,,,false,,,,538484.3999999762,538484,535692.947,535708.8000000119,535709.614,538493.003,8,400,,,
trial,html.Screen,4_120_0,2023-10-31T17:08:36.455Z,,0,3,,4282.797000011895,response,ISIC_5240648.JPG,6,ISIC_5651106.JPG,ISIC_5240648.JPG,false,1,keypress(m),500,542776.0999999642,542775.8000000119,538476.336,538484.5,538493.003,542793.579,8,400,21,,ISIC_5651106.JPG
break,html.Screen,4_120_1,2023-10-31T17:08:36.456Z,,0,,,NaN,,,,,,false,,,,542776.8999999762,542776.5999999642,,542776.3000000119,,542793.579,8,400,,,
break_continue,html.Screen,4_120_2,2023-10-31T17:08:36.456Z,,0,,,NaN,,,,,,false,,,,542777.3000000119,542777.0999999642,,542777,,542793.579,8,400,,,
sequence,flow.Sequence,4_120,2023-10-31T17:08:36.456Z,,0,,,4284.096999964211,completion,,,,,false,,,,542777.5,542777.0999999642,538476.336,538484.3999999762,538493.003,542793.579,8,400,,,
trial,html.Screen,4_121_0,2023-10-31T17:08:41.390Z,,0,3,,4917.320999976131,response,ISIC_6220625.JPG,8,ISIC_3436139.JPG,ISIC_3436139.JPG,false,0,keypress(z),500,547711.0999999642,547710.8999999762,542776.912,542777.8000000119,542793.579,547727.011,8,400,22,,ISIC_6220625.JPG
break,html.Screen,4_121_1,2023-10-31T17:08:41.391Z,,0,,,NaN,,,,,,false,,,,547711.8999999762,547711.6999999881,,547711.1999999881,,547727.011,8,400,,,
break_continue,html.Screen,4_121_2,2023-10-31T17:08:41.391Z,,0,,,NaN,,,,,,false,,,,547712.3000000119,547712.1999999881,,547712.0999999642,,547727.011,8,400,,,
sequence,flow.Sequence,4_121,2023-10-31T17:08:41.391Z,,0,,,4918.620999988052,completion,,,,,false,,,,547712.5,547712.1999999881,542776.912,542777.8000000119,542793.579,547727.011,8,400,,,
trial,html.Screen,4_122_0,2023-10-31T17:08:45.050Z,,0,3,,3643.6889999880223,response,ISIC_0068314.JPG,8,ISIC_5148474.JPG,ISIC_5148474.JPG,false,0,keypress(z),500,551371,551370.6999999881,547710.344,547712.6999999881,547727.011,551377.084,8,400,23,,ISIC_0068314.JPG
break,html.Screen,4_122_1,2023-10-31T17:08:45.051Z,,0,,,NaN,,,,,,false,,,,551372,551371.6999999881,,551371.1999999881,,551377.084,8,400,,,
break_continue,html.Screen,4_122_2,2023-10-31T17:08:45.051Z,,0,,,NaN,,,,,,false,,,,551372.5999999642,551372.3000000119,,551372.0999999642,,551377.084,8,400,,,
sequence,flow.Sequence,4_122,2023-10-31T17:08:45.052Z,,0,,,3645.289000011864,completion,,,,,false,,,,551372.8000000119,551372.3000000119,547710.344,547712.5999999642,547727.011,551377.084,8,400,,,
trial,html.Screen,4_123_0,2023-10-31T17:08:47.855Z,,0,3,,2798.9159999999683,response,ISIC_0059501.JPG,9,ISIC_0064986.JPG,ISIC_0059501.JPG,false,1,keypress(m),500,554176.1999999881,554176,551360.417,551373,551377.084,554177.62,8,400,24,,ISIC_0064986.JPG
break,html.Screen,4_123_1,2023-10-31T17:08:47.856Z,,0,,,NaN,,,,,,false,,,,554177.0999999642,554176.8999999762,,554176.5,,554177.62,8,400,,,
break_continue,html.Screen,4_123_2,2023-10-31T17:08:47.856Z,,0,,,NaN,,,,,,false,,,,554177.6999999881,554177.5,,554177.3000000119,,554177.62,8,400,,,
sequence,flow.Sequence,4_123,2023-10-31T17:08:47.857Z,,0,,,2800.4159999999683,completion,,,,,false,,,,554178,554177.5,551360.417,551372.8999999762,551377.084,554177.62,8,400,,,
trial,html.Screen,4_124_0,2023-10-31T17:08:50.741Z,,0,3,,2884.279999976163,response,ISIC_0033947.JPG,8,ISIC_0031221.JPG,ISIC_0031221.JPG,false,0,keypress(z),500,557062.0999999642,557061.8999999762,554160.953,554178.0999999642,554177.62,557077.678,8,400,25,,ISIC_0033947.JPG
break,html.Screen,4_124_1,2023-10-31T17:08:50.742Z,,0,,,NaN,,,,,,false,,,,557062.8999999762,557062.6999999881,,557062.3000000119,,557077.678,8,400,,,
break_continue,html.Screen,4_124_2,2023-10-31T17:08:50.742Z,,0,,,NaN,,,,,,false,,,,557063.3999999762,557063.1999999881,,557063,,557077.678,8,400,,,
sequence,flow.Sequence,4_124,2023-10-31T17:08:50.743Z,,0,,,2885.5799999880837,completion,,,,,false,,,,557063.8000000119,557063.1999999881,554160.953,554178,554177.62,557077.678,8,400,,,
trial,html.Screen,4_125_0,2023-10-31T17:08:53.610Z,,0,3,,2853.521999988123,response,ISIC_7190243.JPG,9,ISIC_7100813.JPG,ISIC_7100813.JPG,false,0,keypress(z),500,559931.3999999762,559931.1999999881,557061.011,557063.8999999762,557077.678,559944.402,8,400,26,,ISIC_7190243.JPG
break,html.Screen,4_125_1,2023-10-31T17:08:53.611Z,,0,,,NaN,,,,,,false,,,,559932.1999999881,559932,,559931.5999999642,,559944.402,8,400,,,
