sender,sender_type,sender_id,timestamp,meta,,blockNo,condition,duration,ended_on,img_left,img_reveal,img_right,loser,practice,response,response_action,selection_duration,time_commit,time_end,time_render,time_run,time_show,time_switch,total_blocks,total_trials,trialNo,url,winner
informed_consent,html.Screen,0,2023-05-03T17:30:12.472Z,"{""labjs_version"":""20.2.4"",""labjs_build"":{""flavor"":""production"",""commit"":""f5b4a49f956347addd546a832a3327688c2c0fef""},""location"":""https://run.pavlovia.org/MurrayBennett/melanoma-2afc/?participant=65536"",""userAgent"":""Mozilla/5.0 (Macintosh; Intel Mac OS X 10_15_7) AppleWebKit/605.1.15 (KHTML, like Gecko) Version/15.6 Safari/605.1.15"",""platform"":""MacIntel"",""language"":""en-US"",""locale"":""en-US"",""timeZone"":""America/Chicago"",""timezoneOffset"":300,""screen_width"":1440,""screen_height"":900,""scroll_width"":1440,""scroll_height"":772,""window_innerWidth"":1440,""window_innerHeight"":820,""devicePixelRatio"":2}",,,,3133,response,,,,,,consent,click button,,7416,7439,4306,4298,4323,7439,,,,"{""participant"":""65536""}",
Welcome,html.Screen,1,2023-05-03T17:30:18.171Z,,,,regular,5707,response,,,,,,continue,click button,,13115,13137,7430,7416,7439,13140,,,,,
trial,html.Screen,2_0_0,2023-05-03T17:30:26.658Z,,0,0,,8478,response,ISIC_0061792.JPG,,ISIC_4679428.JPG,ISIC_0061792.JPG,true,1,keypress(m),500,21602,21601,13123,13116,13140,21639,1,6,1,,ISIC_4679428.JPG
sequence,flow.Sequence,2_0,2023-05-03T17:30:26.659Z,,0,,,8461,completion,,,,,true,,,,21602,21601,13123,13116,13140,21639,1,6,,,
trial,html.Screen,2_1_0,2023-05-03T17:30:31.990Z,,0,0,,5310,response,ISIC_0776486.JPG,,ISIC_5199497.JPG,ISIC_0776486.JPG,true,1,keypress(m),500,26933,26933,21623,21603,21639,26956,1,6,2,,ISIC_5199497.JPG
sequence,flow.Sequence,2_1,2023-05-03T17:30:31.990Z,,0,,,5294,completion,,,,,true,,,,26934,26933,21623,21603,21639,26956,1,6,,,
trial,html.Screen,2_2_0,2023-05-03T17:30:37.193Z,,0,0,,5195.999999999996,response,ISIC_2556187.JPG,,ISIC_8575776.JPG,ISIC_2556187.JPG,true,1,keypress(m),500,32136.000000000004,32134.999999999996,26939,26934,26956,32172,1,6,3,,ISIC_8575776.JPG
sequence,flow.Sequence,2_2,2023-05-03T17:30:37.193Z,,0,,,5178.999999999996,completion,,,,,true,,,,32137,32134.999999999996,26939,26934,26956,32172,1,6,,,
trial,html.Screen,2_3_0,2023-05-03T17:30:40.437Z,,0,0,,3224,response,ISIC_8141769.JPG,,ISIC_9238366.JPG,ISIC_8141769.JPG,true,1,keypress(m),500,35380,35380,32156,32137,32172,35406,1,6,4,,ISIC_9238366.JPG
sequence,flow.Sequence,2_3,2023-05-03T17:30:40.437Z,,0,,,3208,completion,,,,,true,,,,35381,35380,32156,32137,32172,35406,1,6,,,
trial,html.Screen,2_4_0,2023-05-03T17:30:43.659Z,,0,0,,3212,response,ISIC_8949026.JPG,,ISIC_9959593.JPG,ISIC_8949026.JPG,true,1,keypress(m),500,38602.00000000001,38601,35389,35381,35406,38639,1,6,5,,ISIC_9959593.JPG
sequence,flow.Sequence,2_4,2023-05-03T17:30:43.659Z,,0,,,3195,completion,,,,,true,,,,38602.00000000001,38601,35389,35381,35406,38639,1,6,,,
trial,html.Screen,2_5_0,2023-05-03T17:30:51.525Z,,0,0,,7845,response,ISIC_0010479.JPG,,ISIC_0460240.JPG,ISIC_0460240.JPG,true,0,keypress(z),500,46468,46468,38623,38603,38639,46506,1,6,6,,ISIC_0010479.JPG
sequence,flow.Sequence,2_5,2023-05-03T17:30:51.526Z,,0,,,7829,completion,,,,,true,,,,46469,46468,38623,38603,38639,46506,1,6,,,
loop,flow.Loop,2,2023-05-03T17:30:51.526Z,,,,,33328,completion,,,,,true,,,,46469,46468,13123,13116,13140,46506,1,6,,,
exp_instructions,html.Screen,3,2023-05-03T17:30:57.660Z,,,,,6134,response,,,,,,continue,keypress(Space),,52603,52623,46489,46470,46506,52639,,,,,
trial,html.Screen,4_0_0,2023-05-03T17:31:00.913Z,,0,1,,3232.0000000000073,response,ISIC_1790808.JPG,,ISIC_6234702.JPG,ISIC_1790808.JPG,false,1,keypress(m),500,55856,55855.00000000001,52623,52604,52639,55889,8,400,1,,ISIC_6234702.JPG
break,html.Screen,4_0_1,2023-05-03T17:31:00.914Z,,0,,,NaN,,,,,,false,,,,55857,55857,,55856,,55889,8,400,,,
break_continue,html.Screen,4_0_2,2023-05-03T17:31:00.914Z,,0,,,NaN,,,,,,false,,,,55858.00000000001,55857,,55857,,55889,8,400,,,
sequence,flow.Sequence,4_0,2023-05-03T17:31:00.915Z,,0,,,3218,completion,,,,,false,,,,55858.00000000001,55857,52623,52603,52639,55889,8,400,,,
trial,html.Screen,4_1_0,2023-05-03T17:31:05.069Z,,0,1,,4137,response,ISIC_5578239.JPG,,ISIC_0519719.JPG,ISIC_0519719.JPG,false,0,keypress(z),500,60012,60009,55872,55858.00000000001,55889,60039,8,400,2,,ISIC_5578239.JPG
break,html.Screen,4_1_1,2023-05-03T17:31:05.071Z,,0,,,NaN,,,,,,false,,,,60014,60013,,60013,,60039,8,400,,,
break_continue,html.Screen,4_1_2,2023-05-03T17:31:05.071Z,,0,,,NaN,,,,,,false,,,,60014,60014,,60014,,60039,8,400,,,
sequence,flow.Sequence,4_1,2023-05-03T17:31:05.071Z,,0,,,4125,completion,,,,,false,,,,60014,60014,55872,55858.00000000001,55889,60039,8,400,,,
trial,html.Screen,4_2_0,2023-05-03T17:31:08.075Z,,0,1,,2994,response,ISIC_8617084.JPG,,ISIC_4580926.JPG,ISIC_8617084.JPG,false,1,keypress(m),500,63018,63017,60023,60014,60039,63038,8,400,3,,ISIC_4580926.JPG
break,html.Screen,4_2_1,2023-05-03T17:31:08.076Z,,0,,,NaN,,,,,,false,,,,63019,63019,,63018,,63038,8,400,,,
break_continue,html.Screen,4_2_2,2023-05-03T17:31:08.076Z,,0,,,NaN,,,,,,false,,,,63019,63019,,63019,,63038,8,400,,,
sequence,flow.Sequence,4_2,2023-05-03T17:31:08.077Z,,0,,,2980,completion,,,,,false,,,,63020,63019,60023,60014,60039,63038,8,400,,,
trial,html.Screen,4_3_0,2023-05-03T17:31:10.868Z,,0,1,,2788,response,ISIC_0033697.JPG,,ISIC_3744940.JPG,ISIC_3744940.JPG,false,0,keypress(z),500,65811,65810,63022,63020,63038,65839,8,400,4,,ISIC_0033697.JPG
break,html.Screen,4_3_1,2023-05-03T17:31:10.869Z,,0,,,NaN,,,,,,false,,,,65812,65812,,65811,,65839,8,400,,,
break_continue,html.Screen,4_3_2,2023-05-03T17:31:10.870Z,,0,,,NaN,,,,,,false,,,,65813,65813,,65813,,65839,8,400,,,
sequence,flow.Sequence,4_3,2023-05-03T17:31:10.870Z,,0,,,2775,completion,,,,,false,,,,65813,65813,63022,63020,63038,65839,8,400,,,
trial,html.Screen,4_4_0,2023-05-03T17:31:13.639Z,,0,1,,2758,response,ISIC_0025835.JPG,,ISIC_0068993.JPG,ISIC_0068993.JPG,false,0,keypress(z),500,68582.00000000001,68581,65823,65814,65839,68606,8,400,5,,ISIC_0025835.JPG
break,html.Screen,4_4_1,2023-05-03T17:31:13.640Z,,0,,,NaN,,,,,,false,,,,68583,68583,,68582.00000000001,,68606,8,400,,,
break_continue,html.Screen,4_4_2,2023-05-03T17:31:13.640Z,,0,,,NaN,,,,,,false,,,,68583,68583,,68583,,68606,8,400,,,
sequence,flow.Sequence,4_4,2023-05-03T17:31:13.641Z,,0,,,2744,completion,,,,,false,,,,68584,68583,65823,65814,65839,68606,8,400,,,
trial,html.Screen,4_5_0,2023-05-03T17:31:16.313Z,,0,1,,2666,response,ISIC_0031213.JPG,,ISIC_0069698.JPG,ISIC_0069698.JPG,false,0,keypress(z),500,71256,71255,68589,68584,68606,71289,8,400,6,,ISIC_0031213.JPG
break,html.Screen,4_5_1,2023-05-03T17:31:16.314Z,,0,,,NaN,,,,,,false,,,,71257,71257,,71257,,71289,8,400,,,
break_continue,html.Screen,4_5_2,2023-05-03T17:31:16.315Z,,0,,,NaN,,,,,,false,,,,71258,71258,,71258,,71289,8,400,,,
sequence,flow.Sequence,4_5,2023-05-03T17:31:16.315Z,,0,,,2652,completion,,,,,false,,,,71258,71258,68589,68584,68606,71289,8,400,,,
trial,html.Screen,4_6_0,2023-05-03T17:31:19.616Z,,0,1,,3285,response,ISIC_5397483.JPG,,ISIC_0028481.JPG,ISIC_5397483.JPG,false,1,keypress(m),500,74559,74558,71273,71258,71289,74589,8,400,7,,ISIC_0028481.JPG
break,html.Screen,4_6_1,2023-05-03T17:31:19.617Z,,0,,,NaN,,,,,,false,,,,74560,74560,,74559,,74589,8,400,,,
break_continue,html.Screen,4_6_2,2023-05-03T17:31:19.617Z,,0,,,NaN,,,,,,false,,,,74560,74560,,74560,,74589,8,400,,,
sequence,flow.Sequence,4_6,2023-05-03T17:31:19.618Z,,0,,,3271,completion,,,,,false,,,,74561,74560,71273,71258,71289,74589,8,400,,,
trial,html.Screen,4_7_0,2023-05-03T17:31:22.315Z,,0,1,,2684,response,ISIC_0029205.JPG,,ISIC_8359258.JPG,ISIC_8359258.JPG,false,0,keypress(z),500,77258,77257,74573,74561,74589,77289,8,400,8,,ISIC_0029205.JPG
break,html.Screen,4_7_1,2023-05-03T17:31:22.316Z,,0,,,NaN,,,,,,false,,,,77259,77259,,77258,,77289,8,400,,,
break_continue,html.Screen,4_7_2,2023-05-03T17:31:22.317Z,,0,,,NaN,,,,,,false,,,,77260,77260,,77259,,77289,8,400,,,
sequence,flow.Sequence,4_7,2023-05-03T17:31:22.317Z,,0,,,2671,completion,,,,,false,,,,77260,77260,74573,74561,74589,77289,8,400,,,
trial,html.Screen,4_8_0,2023-05-03T17:31:26.589Z,,0,1,,4259,response,ISIC_0069970.JPG,,ISIC_0063081.JPG,ISIC_0063081.JPG,false,0,keypress(z),500,81532,81531,77272,77260,77289,81556,8,400,9,,ISIC_0069970.JPG
break,html.Screen,4_8_1,2023-05-03T17:31:26.590Z,,0,,,NaN,,,,,,false,,,,81533,81533,,81532,,81556,8,400,,,
break_continue,html.Screen,4_8_2,2023-05-03T17:31:26.591Z,,0,,,NaN,,,,,,false,,,,81534,81534,,81533,,81556,8,400,,,
sequence,flow.Sequence,4_8,2023-05-03T17:31:26.591Z,,0,,,4245,completion,,,,,false,,,,81534,81534,77272,77260,77289,81556,8,400,,,
trial,html.Screen,4_9_0,2023-05-03T17:31:29.739Z,,0,1,,3141,response,ISIC_8040024.JPG,,ISIC_9688534.JPG,ISIC_9688534.JPG,false,0,keypress(z),500,84682,84679,81538,81534,81556,84706,8,400,10,,ISIC_8040024.JPG
break,html.Screen,4_9_1,2023-05-03T17:31:29.740Z,,0,,,NaN,,,,,,false,,,,84683,84683,,84682,,84706,8,400,,,
break_continue,html.Screen,4_9_2,2023-05-03T17:31:29.741Z,,0,,,NaN,,,,,,false,,,,84684,84683,,84683,,84706,8,400,,,
sequence,flow.Sequence,4_9,2023-05-03T17:31:29.741Z,,0,,,3127,completion,,,,,false,,,,84684,84683,81538,81534,81556,84706,8,400,,,
trial,html.Screen,4_10_0,2023-05-03T17:31:33.343Z,,0,1,,3596,response,ISIC_1367610.JPG,,ISIC_2937642.JPG,ISIC_1367610.JPG,false,1,keypress(m),500,88286,88285,84689,84684,84706,88322,8,400,11,,ISIC_2937642.JPG
break,html.Screen,4_10_1,2023-05-03T17:31:33.344Z,,0,,,NaN,,,,,,false,,,,88287,88287,,88286,,88322,8,400,,,
break_continue,html.Screen,4_10_2,2023-05-03T17:31:33.344Z,,0,,,NaN,,,,,,false,,,,88287,88287,,88287,,88322,8,400,,,
sequence,flow.Sequence,4_10,2023-05-03T17:31:33.345Z,,0,,,3581,completion,,,,,false,,,,88287,88287,84689,84684,84706,88322,8,400,,,
trial,html.Screen,4_11_0,2023-05-03T17:31:36.113Z,,0,1,,2747,response,ISIC_0067979.JPG,,ISIC_6793603.JPG,ISIC_0067979.JPG,false,1,keypress(m),500,91056,91053,88306,88288,88322,91089,8,400,12,,ISIC_6793603.JPG
break,html.Screen,4_11_1,2023-05-03T17:31:36.114Z,,0,,,NaN,,,,,,false,,,,91057,91057,,91056,,91089,8,400,,,
break_continue,html.Screen,4_11_2,2023-05-03T17:31:36.114Z,,0,,,NaN,,,,,,false,,,,91057,91057,,91057,,91089,8,400,,,
sequence,flow.Sequence,4_11,2023-05-03T17:31:36.114Z,,0,,,2735,completion,,,,,false,,,,91057,91057,88306,88288,88322,91089,8,400,,,
trial,html.Screen,4_12_0,2023-05-03T17:31:39.450Z,,0,1,,3320,response,ISIC_7354733.JPG,,ISIC_0072101.JPG,ISIC_0072101.JPG,false,0,keypress(z),500,94393,94392,91072,91057,91089,94422,8,400,13,,ISIC_7354733.JPG
break,html.Screen,4_12_1,2023-05-03T17:31:39.451Z,,0,,,NaN,,,,,,false,,,,94394,94393,,94393,,94422,8,400,,,
break_continue,html.Screen,4_12_2,2023-05-03T17:31:39.451Z,,0,,,NaN,,,,,,false,,,,94394,94394,,94394,,94422,8,400,,,
sequence,flow.Sequence,4_12,2023-05-03T17:31:39.451Z,,0,,,3305,completion,,,,,false,,,,94394,94394,91072,91057,91089,94422,8,400,,,
trial,html.Screen,4_13_0,2023-05-03T17:31:42.223Z,,0,1,,2759,response,ISIC_2826766.JPG,,ISIC_4505178.JPG,ISIC_4505178.JPG,false,0,keypress(z),500,97166,97165,94406,94394,94422,97189,8,400,14,,ISIC_2826766.JPG
break,html.Screen,4_13_1,2023-05-03T17:31:42.224Z,,0,,,NaN,,,,,,false,,,,97167,97167,,97166,,97189,8,400,,,
break_continue,html.Screen,4_13_2,2023-05-03T17:31:42.225Z,,0,,,NaN,,,,,,false,,,,97168,97167,,97167,,97189,8,400,,,
sequence,flow.Sequence,4_13,2023-05-03T17:31:42.225Z,,0,,,2745,completion,,,,,false,,,,97168,97167,94406,94394,94422,97189,8,400,,,
trial,html.Screen,4_14_0,2023-05-03T17:31:45.610Z,,0,1,,3377,response,ISIC_0032586.JPG,,ISIC_8692218.JPG,ISIC_8692218.JPG,false,0,keypress(z),500,100553,100549,97172,97168,97189,100589,8,400,15,,ISIC_0032586.JPG
break,html.Screen,4_14_1,2023-05-03T17:31:45.611Z,,0,,,NaN,,,,,,false,,,,100554,100553,,100553,,100589,8,400,,,
break_continue,html.Screen,4_14_2,2023-05-03T17:31:45.611Z,,0,,,NaN,,,,,,false,,,,100554,100554,,100554,,100589,8,400,,,
sequence,flow.Sequence,4_14,2023-05-03T17:31:45.611Z,,0,,,3365,completion,,,,,false,,,,100554,100554,97172,97168,97189,100589,8,400,,,
trial,html.Screen,4_15_0,2023-05-03T17:31:48.585Z,,0,1,,2956,response,ISIC_2776906.JPG,,ISIC_0046683.JPG,ISIC_2776906.JPG,false,1,keypress(m),500,103528,103528,100572,100554,100589,103556,8,400,16,,ISIC_0046683.JPG
break,html.Screen,4_15_1,2023-05-03T17:31:48.586Z,,0,,,NaN,,,,,,false,,,,103529,103529,,103529,,103556,8,400,,,
break_continue,html.Screen,4_15_2,2023-05-03T17:31:48.587Z,,0,,,NaN,,,,,,false,,,,103530,103530,,103529,,103556,8,400,,,
sequence,flow.Sequence,4_15,2023-05-03T17:31:48.587Z,,0,,,2941,completion,,,,,false,,,,103530,103530,100572,100554,100589,103556,8,400,,,
trial,html.Screen,4_16_0,2023-05-03T17:31:51.662Z,,0,1,,3065,response,ISIC_0066588.JPG,,ISIC_6558697.JPG,ISIC_6558697.JPG,false,0,keypress(z),500,106604,106604,103539,103530,103556,106639,8,400,17,,ISIC_0066588.JPG
break,html.Screen,4_16_1,2023-05-03T17:31:51.663Z,,0,,,NaN,,,,,,false,,,,106606.00000000001,106605,,106605,,106639,8,400,,,
break_continue,html.Screen,4_16_2,2023-05-03T17:31:51.663Z,,0,,,NaN,,,,,,false,,,,106606.00000000001,106606.00000000001,,106606.00000000001,,106639,8,400,,,
sequence,flow.Sequence,4_16,2023-05-03T17:31:51.663Z,,0,,,3050.0000000000146,completion,,,,,false,,,,106606.00000000001,106606.00000000001,103539,103530,103556,106639,8,400,,,
trial,html.Screen,4_17_0,2023-05-03T17:31:54.337Z,,0,1,,2658,response,ISIC_0057059.JPG,,ISIC_0060975.JPG,ISIC_0060975.JPG,false,0,keypress(z),500,109280,109280,106622,106606.00000000001,106639,109306,8,400,18,,ISIC_0057059.JPG
break,html.Screen,4_17_1,2023-05-03T17:31:54.339Z,,0,,,NaN,,,,,,false,,,,109281,109281,,109281,,109306,8,400,,,
break_continue,html.Screen,4_17_2,2023-05-03T17:31:54.339Z,,0,,,NaN,,,,,,false,,,,109282,109282,,109282,,109306,8,400,,,
sequence,flow.Sequence,4_17,2023-05-03T17:31:54.340Z,,0,,,2643,completion,,,,,false,,,,109282,109282,106622,106606.00000000001,106639,109306,8,400,,,
trial,html.Screen,4_18_0,2023-05-03T17:31:57.338Z,,0,1,,2991,response,ISIC_4624973.JPG,,ISIC_9241599.JPG,ISIC_4624973.JPG,false,1,keypress(m),500,112281,112280,109289,109283,109306,112306,8,400,19,,ISIC_9241599.JPG
break,html.Screen,4_18_1,2023-05-03T17:31:57.340Z,,0,,,NaN,,,,,,false,,,,112282,112282,,112281,,112306,8,400,,,
break_continue,html.Screen,4_18_2,2023-05-03T17:31:57.340Z,,0,,,NaN,,,,,,false,,,,112283,112283,,112283,,112306,8,400,,,
sequence,flow.Sequence,4_18,2023-05-03T17:31:57.340Z,,0,,,2977,completion,,,,,false,,,,112283,112283,109289,109282,109306,112306,8,400,,,
trial,html.Screen,4_19_0,2023-05-03T17:32:00.351Z,,0,1,,3005,response,ISIC_0030957.JPG,,ISIC_7928137.JPG,ISIC_7928137.JPG,false,0,keypress(z),500,115294,115294,112289,112283,112306,115322,8,400,20,,ISIC_0030957.JPG
break,html.Screen,4_19_1,2023-05-03T17:32:00.352Z,,0,,,NaN,,,,,,false,,,,115295,115295,,115294,,115322,8,400,,,
break_continue,html.Screen,4_19_2,2023-05-03T17:32:00.353Z,,0,,,NaN,,,,,,false,,,,115296,115295,,115295,,115322,8,400,,,
sequence,flow.Sequence,4_19,2023-05-03T17:32:00.353Z,,0,,,2989,completion,,,,,false,,,,115296,115295,112289,112283,112306,115322,8,400,,,
trial,html.Screen,4_20_0,2023-05-03T17:32:03.491Z,,0,1,,3127,response,ISIC_4289906.JPG,,ISIC_9121369.JPG,ISIC_4289906.JPG,false,1,keypress(m),500,118433,118433,115306,115296,115322,118456,8,400,21,,ISIC_9121369.JPG
break,html.Screen,4_20_1,2023-05-03T17:32:03.492Z,,0,,,NaN,,,,,,false,,,,118435,118435,,118434,,118456,8,400,,,
break_continue,html.Screen,4_20_2,2023-05-03T17:32:03.492Z,,0,,,NaN,,,,,,false,,,,118435,118435,,118435,,118456,8,400,,,
sequence,flow.Sequence,4_20,2023-05-03T17:32:03.493Z,,0,,,3113,completion,,,,,false,,,,118436,118435,115306,115296,115322,118456,8,400,,,
trial,html.Screen,4_21_0,2023-05-03T17:32:06.343Z,,0,1,,2847,response,ISIC_9513918.JPG,,ISIC_7062293.JPG,ISIC_7062293.JPG,false,0,keypress(z),500,121285,121285,118438,118436,118456,121322,8,400,22,,ISIC_9513918.JPG
break,html.Screen,4_21_1,2023-05-03T17:32:06.344Z,,0,,,NaN,,,,,,false,,,,121286,121286,,121286,,121322,8,400,,,
break_continue,html.Screen,4_21_2,2023-05-03T17:32:06.344Z,,0,,,NaN,,,,,,false,,,,121287,121287,,121286,,121322,8,400,,,
sequence,flow.Sequence,4_21,2023-05-03T17:32:06.344Z,,0,,,2831,completion,,,,,false,,,,121287,121287,118438,118436,118456,121322,8,400,,,
trial,html.Screen,4_22_0,2023-05-03T17:32:09.579Z,,0,1,,3215,response,ISIC_0011381.JPG,,ISIC_7264251.JPG,ISIC_0011381.JPG,false,1,keypress(m),500,124522,124521,121306,121287,121322,124556,8,400,23,,ISIC_7264251.JPG
break,html.Screen,4_22_1,2023-05-03T17:32:09.580Z,,0,,,NaN,,,,,,false,,,,124523,124523,,124523,,124556,8,400,,,
break_continue,html.Screen,4_22_2,2023-05-03T17:32:09.581Z,,0,,,NaN,,,,,,false,,,,124524,124524,,124523,,124556,8,400,,,
sequence,flow.Sequence,4_22,2023-05-03T17:32:09.581Z,,0,,,3202,completion,,,,,false,,,,124524,124524,121306,121287,121322,124556,8,400,,,
trial,html.Screen,4_23_0,2023-05-03T17:32:12.353Z,,0,1,,2757,response,ISIC_8066660.JPG,,ISIC_1069587.JPG,ISIC_8066660.JPG,false,1,keypress(m),500,127295,127295,124538,124524,124556,127322,8,400,24,,ISIC_1069587.JPG
break,html.Screen,4_23_1,2023-05-03T17:32:12.354Z,,0,,,NaN,,,,,,false,,,,127296,127296,,127296,,127322,8,400,,,
break_continue,html.Screen,4_23_2,2023-05-03T17:32:12.354Z,,0,,,NaN,,,,,,false,,,,127297,127297,,127297,,127322,8,400,,,
sequence,flow.Sequence,4_23,2023-05-03T17:32:12.354Z,,0,,,2741,completion,,,,,false,,,,127297,127297,124538,124524,124556,127322,8,400,,,
trial,html.Screen,4_24_0,2023-05-03T17:32:15.012Z,,0,1,,2648.0000000000146,response,ISIC_3575862.JPG,,ISIC_8732757.JPG,ISIC_3575862.JPG,false,1,keypress(m),500,129955.00000000001,129954.00000000001,127306,127297,127322,129989,8,400,25,,ISIC_8732757.JPG
break,html.Screen,4_24_1,2023-05-03T17:32:15.013Z,,0,,,NaN,,,,,,false,,,,129955.99999999999,129955.00000000001,,129955.00000000001,,129989,8,400,,,
break_continue,html.Screen,4_24_2,2023-05-03T17:32:15.013Z,,0,,,NaN,,,,,,false,,,,129955.99999999999,129955.99999999999,,129955.99999999999,,129989,8,400,,,
sequence,flow.Sequence,4_24,2023-05-03T17:32:15.013Z,,0,,,2633.9999999999854,completion,,,,,false,,,,129955.99999999999,129955.99999999999,127306,127297,127322,129989,8,400,,,
trial,html.Screen,4_25_0,2023-05-03T17:32:18.198Z,,0,1,,3168.000000000029,response,ISIC_0026795.JPG,,ISIC_0063672.JPG,ISIC_0026795.JPG,false,1,keypress(m),500,133141,133140.00000000003,129972,129955.99999999999,129989,133172,8,400,26,,ISIC_0063672.JPG
break,html.Screen,4_25_1,2023-05-03T17:32:18.199Z,,0,,,NaN,,,,,,false,,,,133142,133141,,133141,,133172,8,400,,,
break_continue,html.Screen,4_25_2,2023-05-03T17:32:18.199Z,,0,,,NaN,,,,,,false,,,,133142,133142,,133142,,133172,8,400,,,
sequence,flow.Sequence,4_25,2023-05-03T17:32:18.199Z,,0,,,3153,completion,,,,,false,,,,133142,133142,129972,129955.99999999999,129989,133172,8,400,,,
trial,html.Screen,4_26_0,2023-05-03T17:32:22.358Z,,0,1,,4144,response,ISIC_6523645.JPG,,ISIC_0003324.JPG,ISIC_0003324.JPG,false,0,keypress(z),500,137301.00000000003,137300,133156,133142,133172,137322,8,400,27,,ISIC_6523645.JPG
break,html.Screen,4_26_1,2023-05-03T17:32:22.359Z,,0,,,NaN,,,,,,false,,,,137302,137302,,137301.00000000003,,137322,8,400,,,
break_continue,html.Screen,4_26_2,2023-05-03T17:32:22.360Z,,0,,,NaN,,,,,,false,,,,137302,137302,,137302,,137322,8,400,,,
sequence,flow.Sequence,4_26,2023-05-03T17:32:22.360Z,,0,,,4130,completion,,,,,false,,,,137303,137302,133156,133142,133172,137322,8,400,,,
trial,html.Screen,4_27_0,2023-05-03T17:32:25.207Z,,0,1,,2844,response,ISIC_2598575.JPG,,ISIC_0000420.JPG,ISIC_2598575.JPG,false,1,keypress(m),500,140150,140149,137305,137303,137322,140172,8,400,28,,ISIC_0000420.JPG
break,html.Screen,4_27_1,2023-05-03T17:32:25.208Z,,0,,,NaN,,,,,,false,,,,140151,140151,,140150,,140172,8,400,,,
break_continue,html.Screen,4_27_2,2023-05-03T17:32:25.209Z,,0,,,NaN,,,,,,false,,,,140151,140151,,140151,,140172,8,400,,,
sequence,flow.Sequence,4_27,2023-05-03T17:32:25.209Z,,0,,,2829,completion,,,,,false,,,,140152.00000000003,140151,137305,137303,137322,140172,8,400,,,
trial,html.Screen,4_28_0,2023-05-03T17:32:27.954Z,,0,1,,2741.000000000029,response,ISIC_0065062.JPG,,ISIC_8693637.JPG,ISIC_8693637.JPG,false,0,keypress(z),500,142897,142896.00000000003,140155,140152.00000000003,140172,142922,8,400,29,,ISIC_0065062.JPG
break,html.Screen,4_28_1,2023-05-03T17:32:27.956Z,,0,,,NaN,,,,,,false,,,,142899,142898,,142898,,142922,8,400,,,
break_continue,html.Screen,4_28_2,2023-05-03T17:32:27.956Z,,0,,,NaN,,,,,,false,,,,142899,142899,,142899,,142922,8,400,,,
sequence,flow.Sequence,4_28,2023-05-03T17:32:27.956Z,,0,,,2727,completion,,,,,false,,,,142899,142899,140155,140152.00000000003,140172,142922,8,400,,,
trial,html.Screen,4_29_0,2023-05-03T17:32:30.899Z,,0,1,,2936,response,ISIC_0060342.JPG,,ISIC_0482585.JPG,ISIC_0482585.JPG,false,0,keypress(z),500,145841,145841,142905,142899,142922,145872,8,400,30,,ISIC_0060342.JPG
break,html.Screen,4_29_1,2023-05-03T17:32:30.900Z,,0,,,NaN,,,,,,false,,,,145843,145842,,145842,,145872,8,400,,,
break_continue,html.Screen,4_29_2,2023-05-03T17:32:30.900Z,,0,,,NaN,,,,,,false,,,,145843,145843,,145843,,145872,8,400,,,
sequence,flow.Sequence,4_29,2023-05-03T17:32:30.900Z,,0,,,2921,completion,,,,,false,,,,145843,145843,142905,142899,142922,145872,8,400,,,
trial,html.Screen,4_30_0,2023-05-03T17:32:33.850Z,,0,1,,2936,response,ISIC_0072703.JPG,,ISIC_8431648.JPG,ISIC_8431648.JPG,false,0,keypress(z),500,148793,148792,145856,145843,145872,148822,8,400,31,,ISIC_0072703.JPG
break,html.Screen,4_30_1,2023-05-03T17:32:33.851Z,,0,,,NaN,,,,,,false,,,,148794,148794,,148793,,148822,8,400,,,
break_continue,html.Screen,4_30_2,2023-05-03T17:32:33.852Z,,0,,,NaN,,,,,,false,,,,148794,148794,,148794,,148822,8,400,,,
sequence,flow.Sequence,4_30,2023-05-03T17:32:33.852Z,,0,,,2922,completion,,,,,false,,,,148794,148794,145856,145843,145872,148822,8,400,,,
trial,html.Screen,4_31_0,2023-05-03T17:32:36.531Z,,0,1,,2668,response,ISIC_4873045.JPG,,ISIC_2007034.JPG,ISIC_2007034.JPG,false,0,keypress(z),500,151473,151473,148805,148794,148822,151505,8,400,32,,ISIC_4873045.JPG
break,html.Screen,4_31_1,2023-05-03T17:32:36.532Z,,0,,,NaN,,,,,,false,,,,151474,151474,,151474,,151505,8,400,,,
break_continue,html.Screen,4_31_2,2023-05-03T17:32:36.532Z,,0,,,NaN,,,,,,false,,,,151475,151475,,151475,,151505,8,400,,,
sequence,flow.Sequence,4_31,2023-05-03T17:32:36.532Z,,0,,,2653,completion,,,,,false,,,,151475,151475,148805,148794,148822,151505,8,400,,,
trial,html.Screen,4_32_0,2023-05-03T17:32:39.396Z,,0,1,,2849,response,ISIC_6065301.JPG,,ISIC_0068744.JPG,ISIC_0068744.JPG,false,0,keypress(z),500,154338,154338,151489,151475,151505,154372,8,400,33,,ISIC_6065301.JPG
break,html.Screen,4_32_1,2023-05-03T17:32:39.397Z,,0,,,NaN,,,,,,false,,,,154340,154339,,154339,,154372,8,400,,,
break_continue,html.Screen,4_32_2,2023-05-03T17:32:39.397Z,,0,,,NaN,,,,,,false,,,,154340,154340,,154340,,154372,8,400,,,
sequence,flow.Sequence,4_32,2023-05-03T17:32:39.397Z,,0,,,2835,completion,,,,,false,,,,154340,154340,151489,151475,151505,154372,8,400,,,
trial,html.Screen,4_33_0,2023-05-03T17:32:42.359Z,,0,1,,2946.000000000029,response,ISIC_0011778.JPG,,ISIC_0032339.JPG,ISIC_0011778.JPG,false,1,keypress(m),500,157302,157301.00000000003,154355,154340,154372,157339,8,400,34,,ISIC_0032339.JPG
break,html.Screen,4_33_1,2023-05-03T17:32:42.360Z,,0,,,NaN,,,,,,false,,,,157303,157303,,157302,,157339,8,400,,,
break_continue,html.Screen,4_33_2,2023-05-03T17:32:42.361Z,,0,,,NaN,,,,,,false,,,,157303,157303,,157303,,157339,8,400,,,
sequence,flow.Sequence,4_33,2023-05-03T17:32:42.361Z,,0,,,2931,completion,,,,,false,,,,157303,157303,154355,154340,154372,157339,8,400,,,
trial,html.Screen,4_34_0,2023-05-03T17:32:45.857Z,,0,1,,3477,response,ISIC_0231745.JPG,,ISIC_0072564.JPG,ISIC_0231745.JPG,false,1,keypress(m),500,160800,160799,157322,157304,157339,160822,8,400,35,,ISIC_0072564.JPG
break,html.Screen,4_34_1,2023-05-03T17:32:45.858Z,,0,,,NaN,,,,,,false,,,,160801.00000000003,160801.00000000003,,160800,,160822,8,400,,,
break_continue,html.Screen,4_34_2,2023-05-03T17:32:45.859Z,,0,,,NaN,,,,,,false,,,,160801.00000000003,160801.00000000003,,160801.00000000003,,160822,8,400,,,
sequence,flow.Sequence,4_34,2023-05-03T17:32:45.859Z,,0,,,3462.000000000029,completion,,,,,false,,,,160802,160801.00000000003,157322,157303,157339,160822,8,400,,,
trial,html.Screen,4_35_0,2023-05-03T17:32:48.586Z,,0,1,,2723,response,ISIC_4224064.JPG,,ISIC_0010411.JPG,ISIC_0010411.JPG,false,0,keypress(z),500,163529,163528,160805,160802,160822,163555,8,400,36,,ISIC_4224064.JPG
break,html.Screen,4_35_1,2023-05-03T17:32:48.588Z,,0,,,NaN,,,,,,false,,,,163530,163530,,163529,,163555,8,400,,,
break_continue,html.Screen,4_35_2,2023-05-03T17:32:48.588Z,,0,,,NaN,,,,,,false,,,,163531,163530,,163530,,163555,8,400,,,
sequence,flow.Sequence,4_35,2023-05-03T17:32:48.588Z,,0,,,2708,completion,,,,,false,,,,163531,163530,160805,160802,160822,163555,8,400,,,
trial,html.Screen,4_36_0,2023-05-03T17:32:51.480Z,,0,1,,2884,response,ISIC_0010308.JPG,,ISIC_0976232.JPG,ISIC_0010308.JPG,false,1,keypress(m),500,166422,166422,163538,163531,163555,166455,8,400,37,,ISIC_0976232.JPG
break,html.Screen,4_36_1,2023-05-03T17:32:51.481Z,,0,,,NaN,,,,,,false,,,,166423,166423,,166422,,166455,8,400,,,
break_continue,html.Screen,4_36_2,2023-05-03T17:32:51.481Z,,0,,,NaN,,,,,,false,,,,166423,166423,,166423,,166455,8,400,,,
sequence,flow.Sequence,4_36,2023-05-03T17:32:51.481Z,,0,,,2868,completion,,,,,false,,,,166424,166423,163538,163531,163555,166455,8,400,,,
trial,html.Screen,4_37_0,2023-05-03T17:32:54.627Z,,0,1,,3130.000000000029,response,ISIC_3418245.JPG,,ISIC_0059219.JPG,ISIC_3418245.JPG,false,1,keypress(m),500,169570,169569.00000000003,166439,166424,166455,169605,8,400,38,,ISIC_0059219.JPG
break,html.Screen,4_37_1,2023-05-03T17:32:54.628Z,,0,,,NaN,,,,,,false,,,,169571,169570,,169570,,169605,8,400,,,
break_continue,html.Screen,4_37_2,2023-05-03T17:32:54.628Z,,0,,,NaN,,,,,,false,,,,169571,169571,,169571,,169605,8,400,,,
sequence,flow.Sequence,4_37,2023-05-03T17:32:54.629Z,,0,,,3116,completion,,,,,false,,,,169571,169571,166439,166424,166455,169605,8,400,,,
trial,html.Screen,4_38_0,2023-05-03T17:32:57.298Z,,0,1,,2651,response,ISIC_1166740.JPG,,ISIC_0065181.JPG,ISIC_0065181.JPG,false,0,keypress(z),500,172241,172240,169589,169571,169605,172272,8,400,39,,ISIC_1166740.JPG
break,html.Screen,4_38_1,2023-05-03T17:32:57.300Z,,0,,,NaN,,,,,,false,,,,172242,172242,,172241,,172272,8,400,,,
break_continue,html.Screen,4_38_2,2023-05-03T17:32:57.300Z,,0,,,NaN,,,,,,false,,,,172243,172243,,172242,,172272,8,400,,,
sequence,flow.Sequence,4_38,2023-05-03T17:32:57.300Z,,0,,,2638,completion,,,,,false,,,,172243,172243,169589,169571,169605,172272,8,400,,,
trial,html.Screen,4_39_0,2023-05-03T17:33:00.061Z,,0,1,,2748,response,ISIC_0027479.JPG,,ISIC_0032360.JPG,ISIC_0027479.JPG,false,1,keypress(m),500,175003,175003,172255,172243,172272,175039,8,400,40,,ISIC_0032360.JPG
break,html.Screen,4_39_1,2023-05-03T17:33:00.062Z,,0,,,NaN,,,,,,false,,,,175005,175004,,175004,,175039,8,400,,,
break_continue,html.Screen,4_39_2,2023-05-03T17:33:00.062Z,,0,,,NaN,,,,,,false,,,,175005,175005,,175005,,175039,8,400,,,
sequence,flow.Sequence,4_39,2023-05-03T17:33:00.063Z,,0,,,2733,completion,,,,,false,,,,175005,175005,172255,172243,172272,175039,8,400,,,
trial,html.Screen,4_40_0,2023-05-03T17:33:02.697Z,,0,1,,2617,response,ISIC_0033080.JPG,,ISIC_5194705.JPG,ISIC_5194705.JPG,false,0,keypress(z),500,177640.00000000003,177639,175022,175005,175039,177672,8,400,41,,ISIC_0033080.JPG
break,html.Screen,4_40_1,2023-05-03T17:33:02.698Z,,0,,,NaN,,,,,,false,,,,177641,177641,,177640.00000000003,,177672,8,400,,,
break_continue,html.Screen,4_40_2,2023-05-03T17:33:02.699Z,,0,,,NaN,,,,,,false,,,,177641,177641,,177641,,177672,8,400,,,
sequence,flow.Sequence,4_40,2023-05-03T17:33:02.699Z,,0,,,2602,completion,,,,,false,,,,177641,177641,175022,175005,175039,177672,8,400,,,
trial,html.Screen,4_41_0,2023-05-03T17:33:05.297Z,,0,1,,2584,response,ISIC_0027666.JPG,,ISIC_0061454.JPG,ISIC_0061454.JPG,false,0,keypress(z),500,180240,180239,177655,177641,177672,180272,8,400,42,,ISIC_0027666.JPG
break,html.Screen,4_41_1,2023-05-03T17:33:05.298Z,,0,,,NaN,,,,,,false,,,,180241,180241,,180240,,180272,8,400,,,
break_continue,html.Screen,4_41_2,2023-05-03T17:33:05.298Z,,0,,,NaN,,,,,,false,,,,180241,180241,,180241,,180272,8,400,,,
sequence,flow.Sequence,4_41,2023-05-03T17:33:05.299Z,,0,,,2569,completion,,,,,false,,,,180241,180241,177655,177641,177672,180272,8,400,,,
trial,html.Screen,4_42_0,2023-05-03T17:33:07.992Z,,0,1,,2679,response,ISIC_1988335.JPG,,ISIC_2910705.JPG,ISIC_2910705.JPG,false,0,keypress(z),500,182935,182934,180255,180241,180272,182955,8,400,43,,ISIC_1988335.JPG
break,html.Screen,4_42_1,2023-05-03T17:33:07.993Z,,0,,,NaN,,,,,,false,,,,182936,182936,,182935,,182955,8,400,,,
break_continue,html.Screen,4_42_2,2023-05-03T17:33:07.994Z,,0,,,NaN,,,,,,false,,,,182936,182936,,182936,,182955,8,400,,,
sequence,flow.Sequence,4_42,2023-05-03T17:33:07.994Z,,0,,,2664,completion,,,,,false,,,,182936,182936,180255,180241,180272,182955,8,400,,,
trial,html.Screen,4_43_0,2023-05-03T17:33:10.703Z,,0,1,,2706,response,ISIC_0032771.JPG,,ISIC_0056466.JPG,ISIC_0032771.JPG,false,1,keypress(m),500,185646.00000000003,185645,182939,182936,182955,185672,8,400,44,,ISIC_0056466.JPG
break,html.Screen,4_43_1,2023-05-03T17:33:10.704Z,,0,,,NaN,,,,,,false,,,,185647,185646.00000000003,,185646.00000000003,,185672,8,400,,,
break_continue,html.Screen,4_43_2,2023-05-03T17:33:10.704Z,,0,,,NaN,,,,,,false,,,,185647,185647,,185647,,185672,8,400,,,
sequence,flow.Sequence,4_43,2023-05-03T17:33:10.705Z,,0,,,2692,completion,,,,,false,,,,185647,185647,182939,182936,182955,185672,8,400,,,
trial,html.Screen,4_44_0,2023-05-03T17:33:13.555Z,,0,1,,2842,response,ISIC_0016139.JPG,,ISIC_0064014.JPG,ISIC_0064014.JPG,false,0,keypress(z),500,188498,188497,185655,185647,185672,188522,8,400,45,,ISIC_0016139.JPG
break,html.Screen,4_44_1,2023-05-03T17:33:13.556Z,,0,,,NaN,,,,,,false,,,,188499,188499,,188498,,188522,8,400,,,
break_continue,html.Screen,4_44_2,2023-05-03T17:33:13.557Z,,0,,,NaN,,,,,,false,,,,188499,188499,,188499,,188522,8,400,,,
sequence,flow.Sequence,4_44,2023-05-03T17:33:13.557Z,,0,,,2827,completion,,,,,false,,,,188500,188499,185655,185647,185672,188522,8,400,,,
trial,html.Screen,4_45_0,2023-05-03T17:33:16.768Z,,0,1,,3205,response,ISIC_0781315.JPG,,ISIC_5037784.JPG,ISIC_0781315.JPG,false,1,keypress(m),500,191711,191710,188505,188500,188522,191739,8,400,46,,ISIC_5037784.JPG
break,html.Screen,4_45_1,2023-05-03T17:33:16.769Z,,0,,,NaN,,,,,,false,,,,191712.00000000003,191712.00000000003,,191711,,191739,8,400,,,
break_continue,html.Screen,4_45_2,2023-05-03T17:33:16.770Z,,0,,,NaN,,,,,,false,,,,191712.00000000003,191712.00000000003,,191712.00000000003,,191739,8,400,,,
sequence,flow.Sequence,4_45,2023-05-03T17:33:16.770Z,,0,,,3190.000000000029,completion,,,,,false,,,,191712.00000000003,191712.00000000003,188505,188500,188522,191739,8,400,,,
trial,html.Screen,4_46_0,2023-05-03T17:33:19.516Z,,0,1,,2736,response,ISIC_4777536.JPG,,ISIC_9562157.JPG,ISIC_4777536.JPG,false,1,keypress(m),500,194459,194458,191722,191712.00000000003,191739,194488,8,400,47,,ISIC_9562157.JPG
break,html.Screen,4_46_1,2023-05-03T17:33:19.517Z,,0,,,NaN,,,,,,false,,,,194460,194460,,194459,,194488,8,400,,,
break_continue,html.Screen,4_46_2,2023-05-03T17:33:19.518Z,,0,,,NaN,,,,,,false,,,,194460,194460,,194460,,194488,8,400,,,
sequence,flow.Sequence,4_46,2023-05-03T17:33:19.518Z,,0,,,2721,completion,,,,,false,,,,194460,194460,191722,191712.00000000003,191739,194488,8,400,,,
trial,html.Screen,4_47_0,2023-05-03T17:33:22.290Z,,0,1,,2760,response,ISIC_0386664.JPG,,ISIC_6626544.JPG,ISIC_6626544.JPG,false,0,keypress(z),500,197233,197232,194472,194460,194488,197255,8,400,48,,ISIC_0386664.JPG
break,html.Screen,4_47_1,2023-05-03T17:33:22.291Z,,0,,,NaN,,,,,,false,,,,197234,197234,,197233,,197255,8,400,,,
break_continue,html.Screen,4_47_2,2023-05-03T17:33:22.292Z,,0,,,NaN,,,,,,false,,,,197234,197234,,197234,,197255,8,400,,,
sequence,flow.Sequence,4_47,2023-05-03T17:33:22.292Z,,0,,,2746,completion,,,,,false,,,,197235,197234,194472,194460,194488,197255,8,400,,,
trial,html.Screen,4_48_0,2023-05-03T17:33:25.036Z,,0,1,,2740,response,ISIC_0066952.JPG,,ISIC_0033681.JPG,ISIC_0066952.JPG,false,1,keypress(m),500,199979,199978,197238,197235,197255,200005,8,400,49,,ISIC_0033681.JPG
break,html.Screen,4_48_1,2023-05-03T17:33:25.037Z,,0,,,NaN,,,,,,false,,,,199980.00000000003,199980.00000000003,,199979,,200005,8,400,,,
break_continue,html.Screen,4_48_2,2023-05-03T17:33:25.038Z,,0,,,NaN,,,,,,false,,,,199981,199980.00000000003,,199980.00000000003,,200005,8,400,,,
sequence,flow.Sequence,4_48,2023-05-03T17:33:25.038Z,,0,,,2725.000000000029,completion,,,,,false,,,,199981,199980.00000000003,197238,197235,197255,200005,8,400,,,
trial,html.Screen,4_49_0,2023-05-03T17:33:27.676Z,,0,1,,2629,response,ISIC_5237059.JPG,,ISIC_0068847.JPG,ISIC_0068847.JPG,false,0,keypress(z),500,202619,202618,199989,199981,200005,202655,8,400,50,,ISIC_5237059.JPG
break,html.Screen,4_49_1,2023-05-03T17:33:32.697Z,,0,,,5000,timeout,,,,,false,,,,207640.00000000003,207639,202639,202619,202655,207655,8,400,,,
break_continue,html.Screen,4_49_2,2023-05-03T17:33:33.975Z,,0,,,1293.000000000029,response,,,,,false,continue,keypress(Space),,208917,208932.00000000003,207639,207640.00000000003,207655,208938,8,400,,,
sequence,flow.Sequence,4_49,2023-05-03T17:33:33.975Z,,0,,,8927.00000000003,completion,,,,,false,,,,208917,208932.00000000003,199989,199981,200005,208938,8,400,,,
trial,html.Screen,4_50_0,2023-05-03T17:33:37.056Z,,0,2,,3077,response,ISIC_0000213.JPG,,ISIC_3597812.JPG,ISIC_0000213.JPG,false,1,keypress(m),500,211998,211998,208921,208917,208938,212022,8,400,1,,ISIC_3597812.JPG
break,html.Screen,4_50_1,2023-05-03T17:33:37.057Z,,0,,,NaN,,,,,,false,,,,211999,211999,,211999,,212022,8,400,,,
break_continue,html.Screen,4_50_2,2023-05-03T17:33:37.057Z,,0,,,NaN,,,,,,false,,,,212000,212000,,212000,,212022,8,400,,,
sequence,flow.Sequence,4_50,2023-05-03T17:33:37.057Z,,0,,,3062,completion,,,,,false,,,,212000,212000,208921,208917,208938,212022,8,400,,,
trial,html.Screen,4_51_0,2023-05-03T17:33:39.720Z,,0,2,,2657,response,ISIC_3106058.JPG,,ISIC_9574101.JPG,ISIC_9574101.JPG,false,0,keypress(z),500,214662,214662,212005,212000,212022,214688,8,400,2,,ISIC_3106058.JPG
break,html.Screen,4_51_1,2023-05-03T17:33:39.721Z,,0,,,NaN,,,,,,false,,,,214663,214663,,214663,,214688,8,400,,,
break_continue,html.Screen,4_51_2,2023-05-03T17:33:39.721Z,,0,,,NaN,,,,,,false,,,,214664.00000000003,214664.00000000003,,214663,,214688,8,400,,,
sequence,flow.Sequence,4_51,2023-05-03T17:33:39.721Z,,0,,,2642.000000000029,completion,,,,,false,,,,214664.00000000003,214664.00000000003,212005,212000,212022,214688,8,400,,,
trial,html.Screen,4_52_0,2023-05-03T17:33:42.363Z,,0,2,,2633,response,ISIC_5325805.JPG,,ISIC_1784613.JPG,ISIC_1784613.JPG,false,0,keypress(z),500,217306,217305,214672,214664.00000000003,214688,217338,8,400,3,,ISIC_5325805.JPG
break,html.Screen,4_52_1,2023-05-03T17:33:42.364Z,,0,,,NaN,,,,,,false,,,,217307.00000000003,217307.00000000003,,217306,,217338,8,400,,,
break_continue,html.Screen,4_52_2,2023-05-03T17:33:42.365Z,,0,,,NaN,,,,,,false,,,,217307.00000000003,217307.00000000003,,217307.00000000003,,217338,8,400,,,
sequence,flow.Sequence,4_52,2023-05-03T17:33:42.365Z,,0,,,2619.000000000029,completion,,,,,false,,,,217307.00000000003,217307.00000000003,214672,214664.00000000003,214688,217338,8,400,,,
trial,html.Screen,4_53_0,2023-05-03T17:33:45.183Z,,0,2,,2804,response,ISIC_4425766.JPG,,ISIC_0026795.JPG,ISIC_0026795.JPG,false,0,keypress(z),500,220125,220125,217321,217307.00000000003,217338,220155,8,400,4,,ISIC_4425766.JPG
break,html.Screen,4_53_1,2023-05-03T17:33:45.184Z,,0,,,NaN,,,,,,false,,,,220126,220126,,220125,,220155,8,400,,,
break_continue,html.Screen,4_53_2,2023-05-03T17:33:45.184Z,,0,,,NaN,,,,,,false,,,,220126,220126,,220126,,220155,8,400,,,
sequence,flow.Sequence,4_53,2023-05-03T17:33:45.184Z,,0,,,2788,completion,,,,,false,,,,220126,220126,217321,217307.00000000003,217338,220155,8,400,,,
trial,html.Screen,4_54_0,2023-05-03T17:33:47.754Z,,0,2,,2558,response,ISIC_0012678.JPG,,ISIC_4184101.JPG,ISIC_0012678.JPG,false,1,keypress(m),500,222697,222696,220138,220127,220155,222722,8,400,5,,ISIC_4184101.JPG
break,html.Screen,4_54_1,2023-05-03T17:33:47.755Z,,0,,,NaN,,,,,,false,,,,222698,222698,,222697,,222722,8,400,,,
break_continue,html.Screen,4_54_2,2023-05-03T17:33:47.756Z,,0,,,NaN,,,,,,false,,,,222698,222698,,222698,,222722,8,400,,,
sequence,flow.Sequence,4_54,2023-05-03T17:33:47.756Z,,0,,,2543,completion,,,,,false,,,,222699,222698,220138,220127,220155,222722,8,400,,,
trial,html.Screen,4_55_0,2023-05-03T17:33:50.291Z,,0,2,,2529,response,ISIC_0663941.JPG,,ISIC_6613079.JPG,ISIC_6613079.JPG,false,0,keypress(z),500,225234,225233,222704,222699,222722,225255,8,400,6,,ISIC_0663941.JPG
break,html.Screen,4_55_1,2023-05-03T17:33:50.292Z,,0,,,NaN,,,,,,false,,,,225235,225235,,225234,,225255,8,400,,,
break_continue,html.Screen,4_55_2,2023-05-03T17:33:50.293Z,,0,,,NaN,,,,,,false,,,,225235,225235,,225235,,225255,8,400,,,
sequence,flow.Sequence,4_55,2023-05-03T17:33:50.293Z,,0,,,2513,completion,,,,,false,,,,225235,225235,222704,222699,222722,225255,8,400,,,
trial,html.Screen,4_56_0,2023-05-03T17:33:53.190Z,,0,2,,2894,response,ISIC_0072215.JPG,,ISIC_3389695.JPG,ISIC_0072215.JPG,false,1,keypress(m),500,228133,228132,225238,225235,225255,228155,8,400,7,,ISIC_3389695.JPG
break,html.Screen,4_56_1,2023-05-03T17:33:53.192Z,,0,,,NaN,,,,,,false,,,,228134,228134,,228133,,228155,8,400,,,
break_continue,html.Screen,4_56_2,2023-05-03T17:33:53.192Z,,0,,,NaN,,,,,,false,,,,228135,228134,,228134,,228155,8,400,,,
sequence,flow.Sequence,4_56,2023-05-03T17:33:53.192Z,,0,,,2879,completion,,,,,false,,,,228135,228134,225238,225235,225255,228155,8,400,,,
trial,html.Screen,4_57_0,2023-05-03T17:33:55.719Z,,0,2,,2523,response,ISIC_0073227.JPG,,ISIC_0210282.JPG,ISIC_0210282.JPG,false,0,keypress(z),500,230661,230661,228138,228135,228155,230688,8,400,8,,ISIC_0073227.JPG
break,html.Screen,4_57_1,2023-05-03T17:33:55.720Z,,0,,,NaN,,,,,,false,,,,230662,230662,,230662,,230688,8,400,,,
break_continue,html.Screen,4_57_2,2023-05-03T17:33:55.720Z,,0,,,NaN,,,,,,false,,,,230663,230663,,230663,,230688,8,400,,,
sequence,flow.Sequence,4_57,2023-05-03T17:33:55.721Z,,0,,,2508,completion,,,,,false,,,,230663,230663,228138,228135,228155,230688,8,400,,,
trial,html.Screen,4_58_0,2023-05-03T17:33:58.373Z,,0,2,,2642,response,ISIC_0072030.JPG,,ISIC_0014092.JPG,ISIC_0072030.JPG,false,1,keypress(m),500,233315,233314,230672,230663,230688,233338,8,400,9,,ISIC_0014092.JPG
break,html.Screen,4_58_1,2023-05-03T17:33:58.374Z,,0,,,NaN,,,,,,false,,,,233316,233316,,233315,,233338,8,400,,,
break_continue,html.Screen,4_58_2,2023-05-03T17:33:58.374Z,,0,,,NaN,,,,,,false,,,,233317,233317,,233316,,233338,8,400,,,
sequence,flow.Sequence,4_58,2023-05-03T17:33:58.375Z,,0,,,2629,completion,,,,,false,,,,233317,233317,230672,230663,230688,233338,8,400,,,
trial,html.Screen,4_59_0,2023-05-03T17:34:01.330Z,,0,2,,2951,response,ISIC_5798331.JPG,,ISIC_6646939.JPG,ISIC_5798331.JPG,false,1,keypress(m),500,236272,236272,233321,233317,233338,236305,8,400,10,,ISIC_6646939.JPG
break,html.Screen,4_59_1,2023-05-03T17:34:01.330Z,,0,,,NaN,,,,,,false,,,,236273,236273,,236272,,236305,8,400,,,
break_continue,html.Screen,4_59_2,2023-05-03T17:34:01.331Z,,0,,,NaN,,,,,,false,,,,236273,236273,,236273,,236305,8,400,,,
sequence,flow.Sequence,4_59,2023-05-03T17:34:01.331Z,,0,,,2935,completion,,,,,false,,,,236273,236273,233321,233317,233338,236305,8,400,,,
trial,html.Screen,4_60_0,2023-05-03T17:34:04.281Z,,0,2,,2935,response,ISIC_7110699.JPG,,ISIC_0063473.JPG,ISIC_7110699.JPG,false,1,keypress(m),500,239223,239223,236288,236273,236305,239255,8,400,11,,ISIC_0063473.JPG
break,html.Screen,4_60_1,2023-05-03T17:34:04.282Z,,0,,,NaN,,,,,,false,,,,239224.00000000003,239224.00000000003,,239224.00000000003,,239255,8,400,,,
break_continue,html.Screen,4_60_2,2023-05-03T17:34:04.282Z,,0,,,NaN,,,,,,false,,,,239225,239225,,239225,,239255,8,400,,,
sequence,flow.Sequence,4_60,2023-05-03T17:34:04.283Z,,0,,,2920,completion,,,,,false,,,,239225,239225,236288,236273,236305,239255,8,400,,,
trial,html.Screen,4_61_0,2023-05-03T17:34:15.796Z,,0,2,,11517,timeout,ISIC_7287540.JPG,,ISIC_3996796.JPG,,false,,,500,250739,250738,239238,239225,239255,250772,8,400,12,,
break,html.Screen,4_61_1,2023-05-03T17:34:15.797Z,,0,,,NaN,,,,,,false,,,,250740,250740,,250739,,250772,8,400,,,
break_continue,html.Screen,4_61_2,2023-05-03T17:34:15.798Z,,0,,,NaN,,,,,,false,,,,250740,250740,,250740,,250772,8,400,,,
sequence,flow.Sequence,4_61,2023-05-03T17:34:15.798Z,,0,,,11485,completion,,,,,false,,,,250740,250740,239238,239225,239255,250772,8,400,,,
trial,html.Screen,4_62_0,2023-05-03T17:34:27.061Z,,0,2,,11248,response,ISIC_9332795.JPG,,ISIC_9439034.JPG,ISIC_9439034.JPG,false,0,keypress(z),500,262004.00000000003,262003,250755,250740,250772,262038,8,400,13,,ISIC_9332795.JPG
break,html.Screen,4_62_1,2023-05-03T17:34:27.062Z,,0,,,NaN,,,,,,false,,,,262005,262004.00000000003,,262004.00000000003,,262038,8,400,,,
break_continue,html.Screen,4_62_2,2023-05-03T17:34:27.063Z,,0,,,NaN,,,,,,false,,,,262005,262005,,262005,,262038,8,400,,,
sequence,flow.Sequence,4_62,2023-05-03T17:34:27.063Z,,0,,,11233,completion,,,,,false,,,,262005,262005,250755,250740,250772,262038,8,400,,,
trial,html.Screen,4_63_0,2023-05-03T17:34:29.970Z,,0,2,,2890,response,ISIC_8708106.JPG,,ISIC_7293518.JPG,ISIC_8708106.JPG,false,1,keypress(m),500,264913,264912,262022,262005,262038,264938,8,400,14,,ISIC_7293518.JPG
break,html.Screen,4_63_1,2023-05-03T17:34:29.971Z,,0,,,NaN,,,,,,false,,,,264914,264913,,264913,,264938,8,400,,,
break_continue,html.Screen,4_63_2,2023-05-03T17:34:29.972Z,,0,,,NaN,,,,,,false,,,,264914,264914,,264914,,264938,8,400,,,
sequence,flow.Sequence,4_63,2023-05-03T17:34:29.972Z,,0,,,2876,completion,,,,,false,,,,264914,264914,262022,262005,262038,264938,8,400,,,
trial,html.Screen,4_64_0,2023-05-03T17:34:32.858Z,,0,2,,2879,response,ISIC_7168122.JPG,,ISIC_0026791.JPG,ISIC_0026791.JPG,false,0,keypress(z),500,267801,267800,264921,264915,264938,267838,8,400,15,,ISIC_7168122.JPG
break,html.Screen,4_64_1,2023-05-03T17:34:32.860Z,,0,,,NaN,,,,,,false,,,,267802,267802,,267801,,267838,8,400,,,
break_continue,html.Screen,4_64_2,2023-05-03T17:34:32.860Z,,0,,,NaN,,,,,,false,,,,267802,267802,,267802,,267838,8,400,,,
sequence,flow.Sequence,4_64,2023-05-03T17:34:32.860Z,,0,,,2864,completion,,,,,false,,,,267803,267802,264921,264915,264938,267838,8,400,,,
trial,html.Screen,4_65_0,2023-05-03T17:34:35.687Z,,0,2,,2807,response,ISIC_7670149.JPG,,ISIC_5837098.JPG,ISIC_5837098.JPG,false,0,keypress(z),500,270629,270629,267822,267803,267838,270655,8,400,16,,ISIC_7670149.JPG
break,html.Screen,4_65_1,2023-05-03T17:34:35.688Z,,0,,,NaN,,,,,,false,,,,270630,270630,,270630,,270655,8,400,,,
break_continue,html.Screen,4_65_2,2023-05-03T17:34:35.689Z,,0,,,NaN,,,,,,false,,,,270631,270631,,270631,,270655,8,400,,,
sequence,flow.Sequence,4_65,2023-05-03T17:34:35.689Z,,0,,,2793,completion,,,,,false,,,,270631,270631,267822,267803,267838,270655,8,400,,,
trial,html.Screen,4_66_0,2023-05-03T17:34:38.679Z,,0,2,,2983,response,ISIC_0011484.JPG,,ISIC_0061734.JPG,ISIC_0011484.JPG,false,1,keypress(m),500,273621,273621,270638,270631,270655,273654,8,400,17,,ISIC_0061734.JPG
break,html.Screen,4_66_1,2023-05-03T17:34:38.680Z,,0,,,NaN,,,,,,false,,,,273622,273622,,273622,,273654,8,400,,,
break_continue,html.Screen,4_66_2,2023-05-03T17:34:38.680Z,,0,,,NaN,,,,,,false,,,,273623,273623,,273623,,273654,8,400,,,
sequence,flow.Sequence,4_66,2023-05-03T17:34:38.681Z,,0,,,2968,completion,,,,,false,,,,273623,273623,270638,270631,270655,273654,8,400,,,
trial,html.Screen,4_67_0,2023-05-03T17:34:41.336Z,,0,2,,2640,response,ISIC_8154363.JPG,,ISIC_0030342.JPG,ISIC_8154363.JPG,false,1,keypress(m),500,276278,276278,273638,273623,273654,276305,8,400,18,,ISIC_0030342.JPG
break,html.Screen,4_67_1,2023-05-03T17:34:41.337Z,,0,,,NaN,,,,,,false,,,,276280.00000000006,276279,,276279,,276305,8,400,,,
break_continue,html.Screen,4_67_2,2023-05-03T17:34:41.338Z,,0,,,NaN,,,,,,false,,,,276280.00000000006,276280.00000000006,,276280.00000000006,,276305,8,400,,,
sequence,flow.Sequence,4_67,2023-05-03T17:34:41.338Z,,0,,,2626.000000000058,completion,,,,,false,,,,276280.00000000006,276280.00000000006,273638,273623,273654,276305,8,400,,,
trial,html.Screen,4_68_0,2023-05-03T17:34:44.816Z,,0,2,,3470,response,ISIC_0029744.JPG,,ISIC_0000155.JPG,ISIC_0029744.JPG,false,1,keypress(m),500,279758,279758,276288,276280.00000000006,276305,279788,8,400,19,,ISIC_0000155.JPG
break,html.Screen,4_68_1,2023-05-03T17:34:44.817Z,,0,,,NaN,,,,,,false,,,,279759,279759,,279758,,279788,8,400,,,
break_continue,html.Screen,4_68_2,2023-05-03T17:34:44.817Z,,0,,,NaN,,,,,,false,,,,279760,279760,,279760,,279788,8,400,,,
sequence,flow.Sequence,4_68,2023-05-03T17:34:44.818Z,,0,,,3455,completion,,,,,false,,,,279760,279760,276288,276280.00000000006,276305,279788,8,400,,,
trial,html.Screen,4_69_0,2023-05-03T17:34:47.942Z,,0,2,,3113,response,ISIC_6707990.JPG,,ISIC_0030981.JPG,ISIC_6707990.JPG,false,1,keypress(m),500,282884,282884,279771,279760,279788,282921,8,400,20,,ISIC_0030981.JPG
break,html.Screen,4_69_1,2023-05-03T17:34:47.943Z,,0,,,NaN,,,,,,false,,,,282885,282885,,282885,,282921,8,400,,,
break_continue,html.Screen,4_69_2,2023-05-03T17:34:47.943Z,,0,,,NaN,,,,,,false,,,,282886,282886,,282885,,282921,8,400,,,
sequence,flow.Sequence,4_69,2023-05-03T17:34:47.944Z,,0,,,3098,completion,,,,,false,,,,282886,282886,279771,279760,279788,282921,8,400,,,
trial,html.Screen,4_70_0,2023-05-03T17:34:50.940Z,,0,2,,2977,response,ISIC_0033470.JPG,,ISIC_0013777.JPG,ISIC_0013777.JPG,false,0,keypress(z),500,285883,285882,282905,282886,282921,285905,8,400,21,,ISIC_0033470.JPG
break,html.Screen,4_70_1,2023-05-03T17:34:50.941Z,,0,,,NaN,,,,,,false,,,,285884,285883,,285883,,285905,8,400,,,
break_continue,html.Screen,4_70_2,2023-05-03T17:34:50.942Z,,0,,,NaN,,,,,,false,,,,285884,285884,,285884,,285905,8,400,,,
sequence,flow.Sequence,4_70,2023-05-03T17:34:50.942Z,,0,,,2963,completion,,,,,false,,,,285884,285884,282905,282886,282921,285905,8,400,,,
trial,html.Screen,4_71_0,2023-05-03T17:34:54.312Z,,0,2,,3365,response,ISIC_0027839.JPG,,ISIC_0028422.JPG,ISIC_0028422.JPG,false,0,keypress(z),500,289254,289253,285888,285884,285905,289288,8,400,22,,ISIC_0027839.JPG
break,html.Screen,4_71_1,2023-05-03T17:34:54.313Z,,0,,,NaN,,,,,,false,,,,289255,289255,,289254,,289288,8,400,,,
break_continue,html.Screen,4_71_2,2023-05-03T17:34:54.313Z,,0,,,NaN,,,,,,false,,,,289255,289255,,289255,,289288,8,400,,,
sequence,flow.Sequence,4_71,2023-05-03T17:34:54.313Z,,0,,,3350,completion,,,,,false,,,,289256,289255,285888,285884,285905,289288,8,400,,,
trial,html.Screen,4_72_0,2023-05-03T17:34:57.973Z,,0,2,,3642,response,ISIC_0053594.JPG,,ISIC_5859812.JPG,ISIC_0053594.JPG,false,1,keypress(m),500,292915,292914,289272,289256,289288,292938,8,400,23,,ISIC_5859812.JPG
break,html.Screen,4_72_1,2023-05-03T17:34:57.974Z,,0,,,NaN,,,,,,false,,,,292916,292916,,292915,,292938,8,400,,,
break_continue,html.Screen,4_72_2,2023-05-03T17:34:57.974Z,,0,,,NaN,,,,,,false,,,,292917.00000000006,292917.00000000006,,292917.00000000006,,292938,8,400,,,
sequence,flow.Sequence,4_72,2023-05-03T17:34:57.975Z,,0,,,3629.000000000058,completion,,,,,false,,,,292917.00000000006,292917.00000000006,289272,289256,289288,292938,8,400,,,
trial,html.Screen,4_73_0,2023-05-03T17:35:06.643Z,,0,2,,8663,response,ISIC_0066012.JPG,,ISIC_5979807.JPG,ISIC_0066012.JPG,false,1,keypress(m),500,301585,301584,292921,292917.00000000006,292938,301622,8,400,24,,ISIC_5979807.JPG
break,html.Screen,4_73_1,2023-05-03T17:35:06.644Z,,0,,,NaN,,,,,,false,,,,301586,301586,,301585,,301622,8,400,,,
break_continue,html.Screen,4_73_2,2023-05-03T17:35:06.644Z,,0,,,NaN,,,,,,false,,,,301587,301586,,301586,,301622,8,400,,,
sequence,flow.Sequence,4_73,2023-05-03T17:35:06.645Z,,0,,,8648,completion,,,,,false,,,,301587,301586,292921,292917.00000000006,292938,301622,8,400,,,
trial,html.Screen,4_74_0,2023-05-03T17:35:09.420Z,,0,2,,2757,response,ISIC_5614300.JPG,,ISIC_8197240.JPG,ISIC_5614300.JPG,false,1,keypress(m),500,304362,304362,301605,301587,301622,304388,8,400,25,,ISIC_8197240.JPG
break,html.Screen,4_74_1,2023-05-03T17:35:09.421Z,,0,,,NaN,,,,,,false,,,,304363,304363,,304363,,304388,8,400,,,
break_continue,html.Screen,4_74_2,2023-05-03T17:35:09.421Z,,0,,,NaN,,,,,,false,,,,304364.00000000006,304364.00000000006,,304363,,304388,8,400,,,
sequence,flow.Sequence,4_74,2023-05-03T17:35:09.422Z,,0,,,2742.000000000058,completion,,,,,false,,,,304364.00000000006,304364.00000000006,301605,301587,301622,304388,8,400,,,
trial,html.Screen,4_75_0,2023-05-03T17:35:14.459Z,,0,2,,5029.000000000058,response,ISIC_1543544.JPG,,ISIC_0026141.JPG,ISIC_1543544.JPG,false,1,keypress(m),500,309401,309400.00000000006,304371,304364.00000000006,304388,309421,8,400,26,,ISIC_0026141.JPG
break,html.Screen,4_75_1,2023-05-03T17:35:14.459Z,,0,,,NaN,,,,,,false,,,,309402,309401,,309401,,309421,8,400,,,
break_continue,html.Screen,4_75_2,2023-05-03T17:35:14.460Z,,0,,,NaN,,,,,,false,,,,309402,309402,,309402,,309421,8,400,,,
sequence,flow.Sequence,4_75,2023-05-03T17:35:14.460Z,,0,,,5014,completion,,,,,false,,,,309402,309402,304371,304364.00000000006,304388,309421,8,400,,,
trial,html.Screen,4_76_0,2023-05-03T17:35:18.259Z,,0,2,,3796,response,ISIC_2577938.JPG,,ISIC_0069891.JPG,ISIC_2577938.JPG,false,1,keypress(m),500,313201,313201,309405,309402,309421,313238,8,400,27,,ISIC_0069891.JPG
break,html.Screen,4_76_1,2023-05-03T17:35:18.260Z,,0,,,NaN,,,,,,false,,,,313202,313202,,313202,,313238,8,400,,,
break_continue,html.Screen,4_76_2,2023-05-03T17:35:18.261Z,,0,,,NaN,,,,,,false,,,,313203.00000000006,313203.00000000006,,313203.00000000006,,313238,8,400,,,
sequence,flow.Sequence,4_76,2023-05-03T17:35:18.261Z,,0,,,3782.000000000058,completion,,,,,false,,,,313203.00000000006,313203.00000000006,309405,309402,309421,313238,8,400,,,
trial,html.Screen,4_77_0,2023-05-03T17:35:21.388Z,,0,2,,3108,response,ISIC_0011177.JPG,,ISIC_9714746.JPG,ISIC_9714746.JPG,false,0,keypress(z),500,316330,316329,313221,313203.00000000006,313238,316355,8,400,28,,ISIC_0011177.JPG
break,html.Screen,4_77_1,2023-05-03T17:35:21.389Z,,0,,,NaN,,,,,,false,,,,316331,316331,,316330,,316355,8,400,,,
break_continue,html.Screen,4_77_2,2023-05-03T17:35:21.389Z,,0,,,NaN,,,,,,false,,,,316331,316331,,316331,,316355,8,400,,,
sequence,flow.Sequence,4_77,2023-05-03T17:35:21.389Z,,0,,,3093,completion,,,,,false,,,,316331,316331,313221,313203.00000000006,313238,316355,8,400,,,
trial,html.Screen,4_78_0,2023-05-03T17:35:24.631Z,,0,2,,3236,response,ISIC_0029711.JPG,,ISIC_9107280.JPG,ISIC_9107280.JPG,false,0,keypress(z),500,319573,319573,316337,316331,316355,319605,8,400,29,,ISIC_0029711.JPG
break,html.Screen,4_78_1,2023-05-03T17:35:24.632Z,,0,,,NaN,,,,,,false,,,,319575,319574,,319574,,319605,8,400,,,
break_continue,html.Screen,4_78_2,2023-05-03T17:35:24.633Z,,0,,,NaN,,,,,,false,,,,319575,319575,,319575,,319605,8,400,,,
sequence,flow.Sequence,4_78,2023-05-03T17:35:24.633Z,,0,,,3220,completion,,,,,false,,,,319575,319575,316337,316331,316355,319605,8,400,,,
trial,html.Screen,4_79_0,2023-05-03T17:35:27.311Z,,0,2,,2665,response,ISIC_0000387.JPG,,ISIC_2244564.JPG,ISIC_2244564.JPG,false,0,keypress(z),500,322253,322252,319587,319575,319605,322288,8,400,30,,ISIC_0000387.JPG
break,html.Screen,4_79_1,2023-05-03T17:35:27.312Z,,0,,,NaN,,,,,,false,,,,322254,322253,,322253,,322288,8,400,,,
break_continue,html.Screen,4_79_2,2023-05-03T17:35:27.312Z,,0,,,NaN,,,,,,false,,,,322254,322254,,322254,,322288,8,400,,,
sequence,flow.Sequence,4_79,2023-05-03T17:35:27.312Z,,0,,,2649,completion,,,,,false,,,,322254,322254,319587,319575,319605,322288,8,400,,,
trial,html.Screen,4_80_0,2023-05-03T17:35:30.375Z,,0,2,,3046,response,ISIC_0033386.JPG,,ISIC_8766254.JPG,ISIC_8766254.JPG,false,0,keypress(z),500,325317,325317,322271,322254,322288,325355,8,400,31,,ISIC_0033386.JPG
break,html.Screen,4_80_1,2023-05-03T17:35:30.376Z,,0,,,NaN,,,,,,false,,,,325319,325318,,325318,,325355,8,400,,,
break_continue,html.Screen,4_80_2,2023-05-03T17:35:30.377Z,,0,,,NaN,,,,,,false,,,,325319,325319,,325319,,325355,8,400,,,
sequence,flow.Sequence,4_80,2023-05-03T17:35:30.377Z,,0,,,3031,completion,,,,,false,,,,325319,325319,322271,322254,322288,325355,8,400,,,
trial,html.Screen,4_81_0,2023-05-03T17:35:33.324Z,,0,2,,2928,response,ISIC_1343433.JPG,,ISIC_2714572.JPG,ISIC_2714572.JPG,false,0,keypress(z),500,328266,328266,325338,325319,325355,328288,8,400,32,,ISIC_1343433.JPG
break,html.Screen,4_81_1,2023-05-03T17:35:33.325Z,,0,,,NaN,,,,,,false,,,,328267,328267,,328267,,328288,8,400,,,
break_continue,html.Screen,4_81_2,2023-05-03T17:35:33.326Z,,0,,,NaN,,,,,,false,,,,328268,328268,,328267,,328288,8,400,,,
sequence,flow.Sequence,4_81,2023-05-03T17:35:33.326Z,,0,,,2913,completion,,,,,false,,,,328268,328268,325338,325319,325355,328288,8,400,,,
trial,html.Screen,4_82_0,2023-05-03T17:35:41.129Z,,0,2,,7799,response,ISIC_2663597.JPG,,ISIC_0055287.JPG,ISIC_0055287.JPG,false,0,keypress(z),500,336071,336070,328271,328268,328288,336105,8,400,33,,ISIC_2663597.JPG
break,html.Screen,4_82_1,2023-05-03T17:35:41.130Z,,0,,,NaN,,,,,,false,,,,336072,336072,,336072,,336105,8,400,,,
break_continue,html.Screen,4_82_2,2023-05-03T17:35:41.131Z,,0,,,NaN,,,,,,false,,,,336073,336073,,336072,,336105,8,400,,,
sequence,flow.Sequence,4_82,2023-05-03T17:35:41.131Z,,0,,,7785,completion,,,,,false,,,,336073,336073,328271,328268,328288,336105,8,400,,,
trial,html.Screen,4_83_0,2023-05-03T17:35:44.956Z,,0,2,,3811,response,ISIC_7413786.JPG,,ISIC_0030592.JPG,ISIC_0030592.JPG,false,0,keypress(z),500,339898,339898,336087,336073,336105,339921,8,400,34,,ISIC_7413786.JPG
break,html.Screen,4_83_1,2023-05-03T17:35:44.957Z,,0,,,NaN,,,,,,false,,,,339899,339899,,339898,,339921,8,400,,,
break_continue,html.Screen,4_83_2,2023-05-03T17:35:44.957Z,,0,,,NaN,,,,,,false,,,,339900.00000000006,339899,,339899,,339921,8,400,,,
sequence,flow.Sequence,4_83,2023-05-03T17:35:44.958Z,,0,,,3794,completion,,,,,false,,,,339900.00000000006,339899,336087,336073,336105,339921,8,400,,,
trial,html.Screen,4_84_0,2023-05-03T17:35:56.463Z,,0,2,,11517,timeout,ISIC_3786075.JPG,,ISIC_8414421.JPG,,false,,,500,351405.00000000006,351405.00000000006,339904,339900.00000000006,339921,351438,8,400,35,,
break,html.Screen,4_84_1,2023-05-03T17:35:56.464Z,,0,,,NaN,,,,,,false,,,,351406,351406,,351405.00000000006,,351438,8,400,,,
break_continue,html.Screen,4_84_2,2023-05-03T17:35:56.465Z,,0,,,NaN,,,,,,false,,,,351407,351407,,351407,,351438,8,400,,,
sequence,flow.Sequence,4_84,2023-05-03T17:35:56.465Z,,0,,,11486,completion,,,,,false,,,,351407,351407,339904,339900.00000000006,339921,351438,8,400,,,
trial,html.Screen,4_85_0,2023-05-03T17:36:07.980Z,,0,2,,11516,timeout,ISIC_0011800.JPG,,ISIC_0032187.JPG,,false,,,500,362922,362921,351421,351407,351438,362954,8,400,36,,
break,html.Screen,4_85_1,2023-05-03T17:36:07.981Z,,0,,,NaN,,,,,,false,,,,362923,362923,,362922,,362954,8,400,,,
break_continue,html.Screen,4_85_2,2023-05-03T17:36:07.982Z,,0,,,NaN,,,,,,false,,,,362924.00000000006,362923,,362923,,362954,8,400,,,
sequence,flow.Sequence,4_85,2023-05-03T17:36:07.982Z,,0,,,11485,completion,,,,,false,,,,362924.00000000006,362923,351421,351407,351438,362954,8,400,,,
trial,html.Screen,4_86_0,2023-05-03T17:36:19.496Z,,0,2,,11517,timeout,ISIC_0061092.JPG,,ISIC_4728200.JPG,,false,,,500,374438,374438,362938,362924.00000000006,362954,374471,8,400,37,,
break,html.Screen,4_86_1,2023-05-03T17:36:19.497Z,,0,,,NaN,,,,,,false,,,,374439,374439,,374438,,374471,8,400,,,
break_continue,html.Screen,4_86_2,2023-05-03T17:36:19.497Z,,0,,,NaN,,,,,,false,,,,374439,374439,,374439,,374471,8,400,,,
sequence,flow.Sequence,4_86,2023-05-03T17:36:19.498Z,,0,,,11485,completion,,,,,false,,,,374440,374439,362938,362924.00000000006,362954,374471,8,400,,,
trial,html.Screen,4_87_0,2023-05-03T17:36:31.013Z,,0,2,,11517,timeout,ISIC_0887792.JPG,,ISIC_5951430.JPG,,false,,,500,385955,385954,374454,374440,374471,385988,8,400,38,,
break,html.Screen,4_87_1,2023-05-03T17:36:31.014Z,,0,,,NaN,,,,,,false,,,,385956,385956,,385955,,385988,8,400,,,
break_continue,html.Screen,4_87_2,2023-05-03T17:36:31.015Z,,0,,,NaN,,,,,,false,,,,385956,385956,,385956,,385988,8,400,,,
sequence,flow.Sequence,4_87,2023-05-03T17:36:31.015Z,,0,,,11485,completion,,,,,false,,,,385957,385956,374454,374440,374471,385988,8,400,,,
trial,html.Screen,4_88_0,2023-05-03T17:36:34.871Z,,0,2,,3842,response,ISIC_5754070.JPG,,ISIC_0027839.JPG,ISIC_0027839.JPG,false,0,keypress(z),500,389813,389813,385971,385957,385988,389838,8,400,39,,ISIC_5754070.JPG
break,html.Screen,4_88_1,2023-05-03T17:36:34.872Z,,0,,,NaN,,,,,,false,,,,389814,389814,,389814,,389838,8,400,,,
break_continue,html.Screen,4_88_2,2023-05-03T17:36:34.873Z,,0,,,NaN,,,,,,false,,,,389815,389814,,389814,,389838,8,400,,,
sequence,flow.Sequence,4_88,2023-05-03T17:36:34.873Z,,0,,,3826,completion,,,,,false,,,,389815,389814,385971,385957,385988,389838,8,400,,,
trial,html.Screen,4_89_0,2023-05-03T17:36:38.216Z,,0,2,,3338,response,ISIC_0069248.JPG,,ISIC_0011729.JPG,ISIC_0069248.JPG,false,1,keypress(m),500,393158,393158,389820,389815,389838,393188,8,400,40,,ISIC_0011729.JPG
break,html.Screen,4_89_1,2023-05-03T17:36:38.217Z,,0,,,NaN,,,,,,false,,,,393159,393159,,393158,,393188,8,400,,,
break_continue,html.Screen,4_89_2,2023-05-03T17:36:38.218Z,,0,,,NaN,,,,,,false,,,,393160,393159,,393159,,393188,8,400,,,
sequence,flow.Sequence,4_89,2023-05-03T17:36:38.218Z,,0,,,3321,completion,,,,,false,,,,393160,393159,389820,389815,389838,393188,8,400,,,
trial,html.Screen,4_90_0,2023-05-03T17:36:49.729Z,,0,2,,11516,timeout,ISIC_9286292.JPG,,ISIC_1166740.JPG,,false,,,500,404671,404670,393171,393160,393188,404704,8,400,41,,
break,html.Screen,4_90_1,2023-05-03T17:36:49.730Z,,0,,,NaN,,,,,,false,,,,404672,404672,,404671,,404704,8,400,,,
break_continue,html.Screen,4_90_2,2023-05-03T17:36:49.730Z,,0,,,NaN,,,,,,false,,,,404672,404672,,404672,,404704,8,400,,,
sequence,flow.Sequence,4_90,2023-05-03T17:36:49.730Z,,0,,,11484,completion,,,,,false,,,,404672,404672,393171,393160,393188,404704,8,400,,,
trial,html.Screen,4_91_0,2023-05-03T17:36:59.169Z,,0,2,,9423,response,ISIC_0029441.JPG,,ISIC_0033272.JPG,ISIC_0033272.JPG,false,0,keypress(z),500,414110,414110,404687,404672,404704,414138,8,400,42,,ISIC_0029441.JPG
break,html.Screen,4_91_1,2023-05-03T17:36:59.170Z,,0,,,NaN,,,,,,false,,,,414111,414111,,414111,,414138,8,400,,,
break_continue,html.Screen,4_91_2,2023-05-03T17:36:59.170Z,,0,,,NaN,,,,,,false,,,,414112,414112,,414112,,414138,8,400,,,
sequence,flow.Sequence,4_91,2023-05-03T17:36:59.170Z,,0,,,9408,completion,,,,,false,,,,414112,414112,404687,404672,404704,414138,8,400,,,
trial,html.Screen,4_92_0,2023-05-03T17:37:02.529Z,,0,2,,3349,response,ISIC_0014127.JPG,,ISIC_5330187.JPG,ISIC_5330187.JPG,false,0,keypress(z),500,417471,417470,414121,414112,414138,417504,8,400,43,,ISIC_0014127.JPG
break,html.Screen,4_92_1,2023-05-03T17:37:02.530Z,,0,,,NaN,,,,,,false,,,,417472.00000000006,417471,,417471,,417504,8,400,,,
break_continue,html.Screen,4_92_2,2023-05-03T17:37:02.530Z,,0,,,NaN,,,,,,false,,,,417472.00000000006,417472.00000000006,,417472.00000000006,,417504,8,400,,,
sequence,flow.Sequence,4_92,2023-05-03T17:37:02.530Z,,0,,,3334.000000000058,completion,,,,,false,,,,417472.00000000006,417472.00000000006,414121,414112,414138,417504,8,400,,,
trial,html.Screen,4_93_0,2023-05-03T17:37:12.820Z,,0,2,,10274,response,ISIC_6478506.JPG,,ISIC_2006783.JPG,ISIC_2006783.JPG,false,0,keypress(z),500,427762,427761,417487,417472.00000000006,417504,427787,8,400,44,,ISIC_6478506.JPG
break,html.Screen,4_93_1,2023-05-03T17:37:12.821Z,,0,,,NaN,,,,,,false,,,,427763.00000000006,427763.00000000006,,427762,,427787,8,400,,,
break_continue,html.Screen,4_93_2,2023-05-03T17:37:12.822Z,,0,,,NaN,,,,,,false,,,,427763.00000000006,427763.00000000006,,427763.00000000006,,427787,8,400,,,
sequence,flow.Sequence,4_93,2023-05-03T17:37:12.822Z,,0,,,10259.000000000058,completion,,,,,false,,,,427763.00000000006,427763.00000000006,417487,417472.00000000006,417504,427787,8,400,,,
trial,html.Screen,4_94_0,2023-05-03T17:37:15.930Z,,0,2,,3100,response,ISIC_2964397.JPG,,ISIC_9820910.JPG,ISIC_9820910.JPG,false,0,keypress(z),500,430872,430871,427771,427763.00000000006,427787,430904,8,400,45,,ISIC_2964397.JPG
break,html.Screen,4_94_1,2023-05-03T17:37:15.931Z,,0,,,NaN,,,,,,false,,,,430873,430872,,430872,,430904,8,400,,,
break_continue,html.Screen,4_94_2,2023-05-03T17:37:15.932Z,,0,,,NaN,,,,,,false,,,,430873,430873,,430873,,430904,8,400,,,
sequence,flow.Sequence,4_94,2023-05-03T17:37:15.932Z,,0,,,3086,completion,,,,,false,,,,430873,430873,427771,427763.00000000006,427787,430904,8,400,,,
trial,html.Screen,4_95_0,2023-05-03T17:37:19.936Z,,0,2,,3991,response,ISIC_5581931.JPG,,ISIC_3978280.JPG,ISIC_5581931.JPG,false,1,keypress(m),500,434878,434878,430887,430874,430904,434904,8,400,46,,ISIC_3978280.JPG
break,html.Screen,4_95_1,2023-05-03T17:37:19.937Z,,0,,,NaN,,,,,,false,,,,434879,434879,,434878,,434904,8,400,,,
break_continue,html.Screen,4_95_2,2023-05-03T17:37:19.938Z,,0,,,NaN,,,,,,false,,,,434879,434879,,434879,,434904,8,400,,,
sequence,flow.Sequence,4_95,2023-05-03T17:37:19.938Z,,0,,,3975,completion,,,,,false,,,,434880,434879,430887,430874,430904,434904,8,400,,,
trial,html.Screen,4_96_0,2023-05-03T17:37:24.218Z,,0,2,,4272,response,ISIC_0059569.JPG,,ISIC_0030484.JPG,ISIC_0030484.JPG,false,0,keypress(z),500,439160,439159,434887,434880,434904,439187,8,400,47,,ISIC_0059569.JPG
break,html.Screen,4_96_1,2023-05-03T17:37:24.219Z,,0,,,NaN,,,,,,false,,,,439161,439161,,439160,,439187,8,400,,,
break_continue,html.Screen,4_96_2,2023-05-03T17:37:24.220Z,,0,,,NaN,,,,,,false,,,,439161,439161,,439161,,439187,8,400,,,
sequence,flow.Sequence,4_96,2023-05-03T17:37:24.220Z,,0,,,4257,completion,,,,,false,,,,439161,439161,434887,434880,434904,439187,8,400,,,
trial,html.Screen,4_97_0,2023-05-03T17:37:29.799Z,,0,2,,5569,response,ISIC_0027253.JPG,,ISIC_0010900.JPG,ISIC_0010900.JPG,false,0,keypress(z),500,444741,444740,439171,439162.00000000006,439187,444771,8,400,48,,ISIC_0027253.JPG
break,html.Screen,4_97_1,2023-05-03T17:37:29.800Z,,0,,,NaN,,,,,,false,,,,444742,444742,,444741,,444771,8,400,,,
break_continue,html.Screen,4_97_2,2023-05-03T17:37:29.801Z,,0,,,NaN,,,,,,false,,,,444742,444742,,444742,,444771,8,400,,,
sequence,flow.Sequence,4_97,2023-05-03T17:37:29.801Z,,0,,,5555,completion,,,,,false,,,,444742,444742,439171,439162.00000000006,439187,444771,8,400,,,
trial,html.Screen,4_98_0,2023-05-03T17:37:32.940Z,,0,2,,3127,response,ISIC_4957216.JPG,,ISIC_0033883.JPG,ISIC_4957216.JPG,false,1,keypress(m),500,447882,447881,444754,444742,444771,447904,8,400,49,,ISIC_0033883.JPG
break,html.Screen,4_98_1,2023-05-03T17:37:32.941Z,,0,,,NaN,,,,,,false,,,,447883,447882,,447882,,447904,8,400,,,
break_continue,html.Screen,4_98_2,2023-05-03T17:37:32.941Z,,0,,,NaN,,,,,,false,,,,447883,447883,,447883,,447904,8,400,,,
sequence,flow.Sequence,4_98,2023-05-03T17:37:32.941Z,,0,,,3112,completion,,,,,false,,,,447883,447883,444754,444742,444771,447904,8,400,,,
trial,html.Screen,4_99_0,2023-05-03T17:37:37.214Z,,0,2,,4268.000000000058,response,ISIC_0000519.JPG,,ISIC_5026709.JPG,ISIC_0000519.JPG,false,1,keypress(m),500,452155.00000000006,452155.00000000006,447887,447883,447904,452187,8,400,50,,ISIC_5026709.JPG
break,html.Screen,4_99_1,2023-05-03T17:37:42.229Z,,0,,,5000,timeout,,,,,false,,,,457171,457170,452171,452156,452187,457187,8,400,,,
break_continue,html.Screen,4_99_2,2023-05-03T17:37:45.338Z,,0,,,3121,response,,,,,false,continue,keypress(Space),,460279,460291,457170,457171,457187,460304,8,400,,,
sequence,flow.Sequence,4_99,2023-05-03T17:37:45.338Z,,0,,,12387,completion,,,,,false,,,,460280.00000000006,460291,447887,447883,447904,460304,8,400,,,
trial,html.Screen,4_100_0,2023-05-03T17:37:49.152Z,,0,3,,3806,response,ISIC_0025020.JPG,,ISIC_0845105.JPG,ISIC_0845105.JPG,false,0,keypress(z),500,464093,464093,460287,460280.00000000006,460304,464120,8,400,1,,ISIC_0025020.JPG
break,html.Screen,4_100_1,2023-05-03T17:37:49.153Z,,0,,,NaN,,,,,,false,,,,464094,464094,,464094,,464120,8,400,,,
break_continue,html.Screen,4_100_2,2023-05-03T17:37:49.153Z,,0,,,NaN,,,,,,false,,,,464095,464095,,464095,,464120,8,400,,,
sequence,flow.Sequence,4_100,2023-05-03T17:37:49.153Z,,0,,,3791,completion,,,,,false,,,,464095,464095,460287,460280.00000000006,460304,464120,8,400,,,
trial,html.Screen,4_101_0,2023-05-03T17:38:00.663Z,,0,3,,11517,timeout,ISIC_0062301.JPG,,ISIC_5141844.JPG,,false,,,500,475604,475604,464104,464095,464120,475637,8,400,2,,
break,html.Screen,4_101_1,2023-05-03T17:38:00.664Z,,0,,,NaN,,,,,,false,,,,475605,475605,,475604,,475637,8,400,,,
break_continue,html.Screen,4_101_2,2023-05-03T17:38:00.664Z,,0,,,NaN,,,,,,false,,,,475606,475605,,475605,,475637,8,400,,,
sequence,flow.Sequence,4_101,2023-05-03T17:38:00.664Z,,0,,,11485,completion,,,,,false,,,,475606,475605,464104,464095,464120,475637,8,400,,,
trial,html.Screen,4_102_0,2023-05-03T17:38:04.044Z,,0,3,,3365,response,ISIC_0009882.JPG,,ISIC_0178370.JPG,ISIC_0178370.JPG,false,0,keypress(z),500,478986,478985,475620,475606,475637,479020,8,400,3,,ISIC_0009882.JPG
break,html.Screen,4_102_1,2023-05-03T17:38:04.045Z,,0,,,NaN,,,,,,false,,,,478987,478987,,478986,,479020,8,400,,,
break_continue,html.Screen,4_102_2,2023-05-03T17:38:04.046Z,,0,,,NaN,,,,,,false,,,,478987,478987,,478987,,479020,8,400,,,
sequence,flow.Sequence,4_102,2023-05-03T17:38:04.046Z,,0,,,3350,completion,,,,,false,,,,478988,478987,475620,475606,475637,479020,8,400,,,
trial,html.Screen,4_103_0,2023-05-03T17:38:15.563Z,,0,3,,11517,timeout,ISIC_0476606.JPG,,ISIC_8082460.JPG,,false,,,500,490504,490504,479004,478988,479020,490537,8,400,4,,
break,html.Screen,4_103_1,2023-05-03T17:38:15.564Z,,0,,,NaN,,,,,,false,,,,490505,490505,,490504,,490537,8,400,,,
break_continue,html.Screen,4_103_2,2023-05-03T17:38:15.564Z,,0,,,NaN,,,,,,false,,,,490505,490505,,490505,,490537,8,400,,,
sequence,flow.Sequence,4_103,2023-05-03T17:38:15.564Z,,0,,,11485,completion,,,,,false,,,,490505,490505,479004,478988,479020,490537,8,400,,,
trial,html.Screen,4_104_0,2023-05-03T17:38:24.095Z,,0,3,,8516,response,ISIC_0067979.JPG,,ISIC_4103653.JPG,ISIC_0067979.JPG,false,1,keypress(m),500,499037.00000000006,499036,490520,490506,490537,499070,8,400,5,,ISIC_4103653.JPG
break,html.Screen,4_104_1,2023-05-03T17:38:24.096Z,,0,,,NaN,,,,,,false,,,,499037.00000000006,499037.00000000006,,499037.00000000006,,499070,8,400,,,
break_continue,html.Screen,4_104_2,2023-05-03T17:38:24.096Z,,0,,,NaN,,,,,,false,,,,499038,499038,,499038,,499070,8,400,,,
sequence,flow.Sequence,4_104,2023-05-03T17:38:24.096Z,,0,,,8501,completion,,,,,false,,,,499038,499038,490520,490506,490537,499070,8,400,,,
trial,html.Screen,4_105_0,2023-05-03T17:38:30.197Z,,0,3,,6084.000000000058,response,ISIC_9495211.JPG,,ISIC_0000860.JPG,ISIC_0000860.JPG,false,0,keypress(z),500,505139,505138.00000000006,499054,499038,499070,505170,8,400,6,,ISIC_9495211.JPG
break,html.Screen,4_105_1,2023-05-03T17:38:30.198Z,,0,,,NaN,,,,,,false,,,,505140,505140,,505139,,505170,8,400,,,
break_continue,html.Screen,4_105_2,2023-05-03T17:38:30.199Z,,0,,,NaN,,,,,,false,,,,505140,505140,,505140,,505170,8,400,,,
sequence,flow.Sequence,4_105,2023-05-03T17:38:30.199Z,,0,,,6070,completion,,,,,false,,,,505141,505140,499054,499038,499070,505170,8,400,,,
trial,html.Screen,4_106_0,2023-05-03T17:38:33.474Z,,0,3,,3262,response,ISIC_6108795.JPG,,ISIC_8967786.JPG,ISIC_6108795.JPG,false,1,keypress(m),500,508415,508415,505153,505141,505170,508437,8,400,7,,ISIC_8967786.JPG
break,html.Screen,4_106_1,2023-05-03T17:38:33.475Z,,0,,,NaN,,,,,,false,,,,508416,508416,,508416,,508437,8,400,,,
break_continue,html.Screen,4_106_2,2023-05-03T17:38:33.475Z,,0,,,NaN,,,,,,false,,,,508417.00000000006,508417.00000000006,,508417.00000000006,,508437,8,400,,,
sequence,flow.Sequence,4_106,2023-05-03T17:38:33.475Z,,0,,,3247.000000000058,completion,,,,,false,,,,508417.00000000006,508417.00000000006,505153,505141,505170,508437,8,400,,,
trial,html.Screen,4_107_0,2023-05-03T17:38:39.565Z,,0,3,,6086,response,ISIC_3212050.JPG,,ISIC_0033117.JPG,ISIC_0033117.JPG,false,0,keypress(z),500,514507.00000000006,514506,508420,508417.00000000006,508437,514537,8,400,8,,ISIC_3212050.JPG
break,html.Screen,4_107_1,2023-05-03T17:38:39.566Z,,0,,,NaN,,,,,,false,,,,514508.00000000006,514507.00000000006,,514507.00000000006,,514537,8,400,,,
break_continue,html.Screen,4_107_2,2023-05-03T17:38:39.566Z,,0,,,NaN,,,,,,false,,,,514508.00000000006,514508.00000000006,,514508.00000000006,,514537,8,400,,,
sequence,flow.Sequence,4_107,2023-05-03T17:38:39.567Z,,0,,,6071.000000000058,completion,,,,,false,,,,514508.00000000006,514508.00000000006,508420,508417.00000000006,508437,514537,8,400,,,
trial,html.Screen,4_108_0,2023-05-03T17:38:44.396Z,,0,3,,4814.000000000058,response,ISIC_0001157.JPG,,ISIC_6895016.JPG,ISIC_0001157.JPG,false,1,keypress(m),500,519337,519334.00000000006,514520,514508.00000000006,514537,519370,8,400,9,,ISIC_6895016.JPG
break,html.Screen,4_108_1,2023-05-03T17:38:44.397Z,,0,,,NaN,,,,,,false,,,,519337.99999999994,519337.99999999994,,519337,,519370,8,400,,,
break_continue,html.Screen,4_108_2,2023-05-03T17:38:44.397Z,,0,,,NaN,,,,,,false,,,,519339.00000000006,519337.99999999994,,519337.99999999994,,519370,8,400,,,
sequence,flow.Sequence,4_108,2023-05-03T17:38:44.397Z,,0,,,4800.999999999942,completion,,,,,false,,,,519339.00000000006,519337.99999999994,514520,514508.00000000006,514537,519370,8,400,,,
trial,html.Screen,4_109_0,2023-05-03T17:38:50.652Z,,0,3,,6239,response,ISIC_4680417.JPG,,ISIC_4352700.JPG,ISIC_4352700.JPG,false,0,keypress(z),500,525593,525593,519354,519339.00000000006,519370,525620,8,400,10,,ISIC_4680417.JPG
break,html.Screen,4_109_1,2023-05-03T17:38:50.653Z,,0,,,NaN,,,,,,false,,,,525594,525594,,525594,,525620,8,400,,,
break_continue,html.Screen,4_109_2,2023-05-03T17:38:50.653Z,,0,,,NaN,,,,,,false,,,,525595,525595,,525594,,525620,8,400,,,
sequence,flow.Sequence,4_109,2023-05-03T17:38:50.653Z,,0,,,6225,completion,,,,,false,,,,525595,525595,519354,519339.00000000006,519370,525620,8,400,,,
trial,html.Screen,4_110_0,2023-05-03T17:38:57.276Z,,0,3,,6612,response,ISIC_0011948.JPG,,ISIC_0056260.JPG,ISIC_0056260.JPG,false,0,keypress(z),500,532217,532216,525604,525595,525620,532253,8,400,11,,ISIC_0011948.JPG
break,html.Screen,4_110_1,2023-05-03T17:38:57.277Z,,0,,,NaN,,,,,,false,,,,532218,532218,,532217,,532253,8,400,,,
break_continue,html.Screen,4_110_2,2023-05-03T17:38:57.277Z,,0,,,NaN,,,,,,false,,,,532218,532218,,532218,,532253,8,400,,,
sequence,flow.Sequence,4_110,2023-05-03T17:38:57.277Z,,0,,,6598,completion,,,,,false,,,,532219,532218,525604,525595,525620,532253,8,400,,,
trial,html.Screen,4_111_0,2023-05-03T17:39:00.870Z,,0,3,,3574,response,ISIC_5754023.JPG,,ISIC_3289651.JPG,ISIC_5754023.JPG,false,1,keypress(m),500,535812,535811,532237,532219,532253,535837,8,400,12,,ISIC_3289651.JPG
break,html.Screen,4_111_1,2023-05-03T17:39:00.871Z,,0,,,NaN,,,,,,false,,,,535813,535812,,535812,,535837,8,400,,,
break_continue,html.Screen,4_111_2,2023-05-03T17:39:00.872Z,,0,,,NaN,,,,,,false,,,,535813,535813,,535813,,535837,8,400,,,
sequence,flow.Sequence,4_111,2023-05-03T17:39:00.872Z,,0,,,3560,completion,,,,,false,,,,535813,535813,532237,532219,532253,535837,8,400,,,
trial,html.Screen,4_112_0,2023-05-03T17:39:04.673Z,,0,3,,3793,response,ISIC_0027221.JPG,,ISIC_1020369.JPG,ISIC_1020369.JPG,false,0,keypress(z),500,539614,539613,535820,535813,535837,539637,8,400,13,,ISIC_0027221.JPG
break,html.Screen,4_112_1,2023-05-03T17:39:04.674Z,,0,,,NaN,,,,,,false,,,,539615,539615,,539614,,539637,8,400,,,
break_continue,html.Screen,4_112_2,2023-05-03T17:39:04.674Z,,0,,,NaN,,,,,,false,,,,539615,539615,,539615,,539637,8,400,,,
sequence,flow.Sequence,4_112,2023-05-03T17:39:04.674Z,,0,,,3778,completion,,,,,false,,,,539615,539615,535820,535813,535837,539637,8,400,,,
trial,html.Screen,4_113_0,2023-05-03T17:39:10.086Z,,0,3,,5407,response,ISIC_0070009.JPG,,ISIC_0067097.JPG,ISIC_0067097.JPG,false,0,keypress(z),500,545027,545027,539620,539616,539637,545052,8,400,14,,ISIC_0070009.JPG
break,html.Screen,4_113_1,2023-05-03T17:39:10.087Z,,0,,,NaN,,,,,,false,,,,545028,545028,,545028,,545052,8,400,,,
break_continue,html.Screen,4_113_2,2023-05-03T17:39:10.087Z,,0,,,NaN,,,,,,false,,,,545029,545029,,545029,,545052,8,400,,,
sequence,flow.Sequence,4_113,2023-05-03T17:39:10.087Z,,0,,,5392,completion,,,,,false,,,,545029,545029,539620,539616,539637,545052,8,400,,,
trial,html.Screen,4_114_0,2023-05-03T17:39:14.406Z,,0,3,,4310,response,ISIC_8849004.JPG,,ISIC_7147713.JPG,ISIC_7147713.JPG,false,0,keypress(z),500,549348,549347,545037,545029,545052,549370,8,400,15,,ISIC_8849004.JPG
break,html.Screen,4_114_1,2023-05-03T17:39:14.407Z,,0,,,NaN,,,,,,false,,,,549349,549349,,549348,,549370,8,400,,,
break_continue,html.Screen,4_114_2,2023-05-03T17:39:14.408Z,,0,,,NaN,,,,,,false,,,,549349,549349,,549349,,549370,8,400,,,
sequence,flow.Sequence,4_114,2023-05-03T17:39:14.408Z,,0,,,4297,completion,,,,,false,,,,549349,549349,545037,545029,545052,549370,8,400,,,
trial,html.Screen,4_115_0,2023-05-03T17:39:22.959Z,,0,3,,8547,response,ISIC_7498132.JPG,,ISIC_6404049.JPG,ISIC_6404049.JPG,false,0,keypress(z),500,557900,557900,549353,549349,549370,557936,8,400,16,,ISIC_7498132.JPG
break,html.Screen,4_115_1,2023-05-03T17:39:22.960Z,,0,,,NaN,,,,,,false,,,,557901.0000000001,557901.0000000001,,557900,,557936,8,400,,,
break_continue,html.Screen,4_115_2,2023-05-03T17:39:22.960Z,,0,,,NaN,,,,,,false,,,,557901.0000000001,557901.0000000001,,557901.0000000001,,557936,8,400,,,
sequence,flow.Sequence,4_115,2023-05-03T17:39:22.960Z,,0,,,8531.000000000116,completion,,,,,false,,,,557902,557901.0000000001,549353,549349,549370,557936,8,400,,,
trial,html.Screen,4_116_0,2023-05-03T17:39:27.931Z,,0,3,,4952,response,ISIC_0011534.JPG,,ISIC_0065746.JPG,ISIC_0011534.JPG,false,1,keypress(m),500,562873,562872,557920,557902,557936,562903,8,400,17,,ISIC_0065746.JPG
break,html.Screen,4_116_1,2023-05-03T17:39:27.932Z,,0,,,NaN,,,,,,false,,,,562873,562873,,562873,,562903,8,400,,,
break_continue,html.Screen,4_116_2,2023-05-03T17:39:27.932Z,,0,,,NaN,,,,,,false,,,,562873,562873,,562873,,562903,8,400,,,
sequence,flow.Sequence,4_116,2023-05-03T17:39:27.932Z,,0,,,4937,completion,,,,,false,,,,562873,562873,557920,557902,557936,562903,8,400,,,
trial,html.Screen,4_117_0,2023-05-03T17:39:34.668Z,,0,3,,6722,response,ISIC_4568425.JPG,,ISIC_5795486.JPG,ISIC_4568425.JPG,false,1,keypress(m),500,569609,569609,562887,562873,562903,569637,8,400,18,,ISIC_5795486.JPG
break,html.Screen,4_117_1,2023-05-03T17:39:34.669Z,,0,,,NaN,,,,,,false,,,,569610,569610,,569610,,569637,8,400,,,
break_continue,html.Screen,4_117_2,2023-05-03T17:39:34.669Z,,0,,,NaN,,,,,,false,,,,569610,569610,,569610,,569637,8,400,,,
sequence,flow.Sequence,4_117,2023-05-03T17:39:34.669Z,,0,,,6707,completion,,,,,false,,,,569611,569610,562887,562873,562903,569637,8,400,,,
trial,html.Screen,4_118_0,2023-05-03T17:39:40.253Z,,0,3,,5574,response,ISIC_6423964.JPG,,ISIC_0028215.JPG,ISIC_6423964.JPG,false,1,keypress(m),500,575194,575194,569620,569611,569637,575220,8,400,19,,ISIC_0028215.JPG
break,html.Screen,4_118_1,2023-05-03T17:39:40.254Z,,0,,,NaN,,,,,,false,,,,575195,575195,,575194,,575220,8,400,,,
break_continue,html.Screen,4_118_2,2023-05-03T17:39:40.254Z,,0,,,NaN,,,,,,false,,,,575195,575195,,575195,,575220,8,400,,,
sequence,flow.Sequence,4_118,2023-05-03T17:39:40.254Z,,0,,,5558,completion,,,,,false,,,,575195,575195,569620,569611,569637,575220,8,400,,,
trial,html.Screen,4_119_0,2023-05-03T17:39:45.454Z,,0,3,,5191,response,ISIC_0806303.JPG,,ISIC_0011729.JPG,ISIC_0806303.JPG,false,1,keypress(m),500,580395,580394,575203,575196,575220,580420,8,400,20,,ISIC_0011729.JPG
break,html.Screen,4_119_1,2023-05-03T17:39:45.457Z,,0,,,NaN,,,,,,false,,,,580398,580398,,580397,,580420,8,400,,,
break_continue,html.Screen,4_119_2,2023-05-03T17:39:45.457Z,,0,,,NaN,,,,,,false,,,,580399,580399,,580398,,580420,8,400,,,
sequence,flow.Sequence,4_119,2023-05-03T17:39:45.458Z,,0,,,5179,completion,,,,,false,,,,580399,580399,575203,575196,575220,580420,8,400,,,
trial,html.Screen,4_120_0,2023-05-03T17:39:49.815Z,,0,3,,4353,response,ISIC_1461068.JPG,,ISIC_0034313.JPG,ISIC_0034313.JPG,false,0,keypress(z),500,584757.0000000001,584756,580403,580399,580420,584787,8,400,21,,ISIC_1461068.JPG
break,html.Screen,4_120_1,2023-05-03T17:39:49.816Z,,0,,,NaN,,,,,,false,,,,584758,584757.0000000001,,584757.0000000001,,584787,8,400,,,
break_continue,html.Screen,4_120_2,2023-05-03T17:39:49.817Z,,0,,,NaN,,,,,,false,,,,584758,584758,,584758,,584787,8,400,,,
sequence,flow.Sequence,4_120,2023-05-03T17:39:49.817Z,,0,,,4338,completion,,,,,false,,,,584758,584758,580403,580399,580420,584787,8,400,,,
trial,html.Screen,4_121_0,2023-05-03T17:39:57.662Z,,0,3,,7833.000000000116,response,ISIC_0010869.JPG,,ISIC_5509946.JPG,ISIC_5509946.JPG,false,0,keypress(z),500,592603.0000000001,592603.0000000001,584770,584758,584787,592637,8,400,22,,ISIC_0010869.JPG
break,html.Screen,4_121_1,2023-05-03T17:39:57.663Z,,0,,,NaN,,,,,,false,,,,592604,592604,,592603.0000000001,,592637,8,400,,,
break_continue,html.Screen,4_121_2,2023-05-03T17:39:57.663Z,,0,,,NaN,,,,,,false,,,,592604,592604,,592604,,592637,8,400,,,
sequence,flow.Sequence,4_121,2023-05-03T17:39:57.663Z,,0,,,7817,completion,,,,,false,,,,592605,592604,584770,584758,584787,592637,8,400,,,
trial,html.Screen,4_122_0,2023-05-03T17:40:09.179Z,,0,3,,11516,timeout,ISIC_3372750.JPG,,ISIC_4474170.JPG,,false,,,500,604120,604120,592620,592605,592637,604153,8,400,23,,
break,html.Screen,4_122_1,2023-05-03T17:40:09.180Z,,0,,,NaN,,,,,,false,,,,604122,604121,,604121,,604153,8,400,,,
break_continue,html.Screen,4_122_2,2023-05-03T17:40:09.181Z,,0,,,NaN,,,,,,false,,,,604122,604122,,604122,,604153,8,400,,,
sequence,flow.Sequence,4_122,2023-05-03T17:40:09.181Z,,0,,,11485,completion,,,,,false,,,,604122,604122,592620,592605,592637,604153,8,400,,,
trial,html.Screen,4_123_0,2023-05-03T17:40:13.183Z,,0,3,,3988,response,ISIC_6392089.JPG,,ISIC_0028696.JPG,ISIC_6392089.JPG,false,1,keypress(m),500,608125,608124,604136,604122,604153,608153,8,400,24,,ISIC_0028696.JPG
break,html.Screen,4_123_1,2023-05-03T17:40:13.184Z,,0,,,NaN,,,,,,false,,,,608125,608125,,608125,,608153,8,400,,,
break_continue,html.Screen,4_123_2,2023-05-03T17:40:13.185Z,,0,,,NaN,,,,,,false,,,,608126,608126,,608126,,608153,8,400,,,
sequence,flow.Sequence,4_123,2023-05-03T17:40:13.185Z,,0,,,3973,completion,,,,,false,,,,608126,608126,604136,604122,604153,608153,8,400,,,
trial,html.Screen,4_124_0,2023-05-03T17:40:18.682Z,,0,3,,5485,response,ISIC_4876378.JPG,,ISIC_0005319.JPG,ISIC_0005319.JPG,false,0,keypress(z),500,613623,613622,608137,608126,608153,613653,8,400,25,,ISIC_4876378.JPG
break,html.Screen,4_124_1,2023-05-03T17:40:18.683Z,,0,,,NaN,,,,,,false,,,,613624,613624,,613623,,613653,8,400,,,
break_continue,html.Screen,4_124_2,2023-05-03T17:40:18.683Z,,0,,,NaN,,,,,,false,,,,613624,613624,,613624,,613653,8,400,,,
sequence,flow.Sequence,4_124,2023-05-03T17:40:18.683Z,,0,,,5471,completion,,,,,false,,,,613624,613624,608137,608126,608153,613653,8,400,,,
trial,html.Screen,4_125_0,2023-05-03T17:40:22.547Z,,0,3,,3849,response,ISIC_8685259.JPG,,ISIC_0010140.JPG,ISIC_8685259.JPG,false,1,keypress(m),500,617488,617485,613636,613624,613653,617520,8,400,26,,ISIC_0010140.JPG
break,html.Screen,4_125_1,2023-05-03T17:40:22.548Z,,0,,,NaN,,,,,,false,,,,617489,617489,,617488,,617520,8,400,,,
break_continue,html.Screen,4_125_2,2023-05-03T17:40:22.548Z,,0,,,NaN,,,,,,false,,,,617489,617489,,617489,,617520,8,400,,,
sequence,flow.Sequence,4_125,2023-05-03T17:40:22.548Z,,0,,,3836,completion,,,,,false,,,,617489,617489,613636,613624,613653,617520,8,400,,,
trial,html.Screen,4_126_0,2023-05-03T17:40:26.318Z,,0,3,,3756,response,ISIC_2283509.JPG,,ISIC_3067522.JPG,ISIC_3067522.JPG,false,0,keypress(z),500,621259,621259,617503,617489,617520,621286,8,400,27,,ISIC_2283509.JPG
break,html.Screen,4_126_1,2023-05-03T17:40:26.319Z,,0,,,NaN,,,,,,false,,,,621260,621260,,621259,,621286,8,400,,,
break_continue,html.Screen,4_126_2,2023-05-03T17:40:26.319Z,,0,,,NaN,,,,,,false,,,,621260,621260,,621260,,621286,8,400,,,
sequence,flow.Sequence,4_126,2023-05-03T17:40:26.319Z,,0,,,3740,completion,,,,,false,,,,621261,621260,617503,617489,617520,621286,8,400,,,
trial,html.Screen,4_127_0,2023-05-03T17:40:29.533Z,,0,3,,3204,response,ISIC_3564461.JPG,,ISIC_6676647.JPG,ISIC_6676647.JPG,false,0,keypress(z),500,624475,624474,621270,621261,621286,624503,8,400,28,,ISIC_3564461.JPG
break,html.Screen,4_127_1,2023-05-03T17:40:29.535Z,,0,,,NaN,,,,,,false,,,,624476,624475,,624475,,624503,8,400,,,
break_continue,html.Screen,4_127_2,2023-05-03T17:40:29.535Z,,0,,,NaN,,,,,,false,,,,624476,624476,,624476,,624503,8,400,,,
sequence,flow.Sequence,4_127,2023-05-03T17:40:29.535Z,,0,,,3190,completion,,,,,false,,,,624476,624476,621270,621261,621286,624503,8,400,,,
trial,html.Screen,4_128_0,2023-05-03T17:40:33.132Z,,0,3,,3587,response,ISIC_2967024.JPG,,ISIC_1637536.JPG,ISIC_1637536.JPG,false,0,keypress(z),500,628073,628073,624486,624476,624503,628103,8,400,29,,ISIC_2967024.JPG
break,html.Screen,4_128_1,2023-05-03T17:40:33.133Z,,0,,,NaN,,,,,,false,,,,628074.0000000001,628074.0000000001,,628074.0000000001,,628103,8,400,,,
break_continue,html.Screen,4_128_2,2023-05-03T17:40:33.134Z,,0,,,NaN,,,,,,false,,,,628075,628075,,628075,,628103,8,400,,,
sequence,flow.Sequence,4_128,2023-05-03T17:40:33.134Z,,0,,,3572,completion,,,,,false,,,,628075,628075,624486,624476,624503,628103,8,400,,,
trial,html.Screen,4_129_0,2023-05-03T17:40:38.304Z,,0,3,,5159,response,ISIC_3179296.JPG,,ISIC_0552911.JPG,ISIC_3179296.JPG,false,1,keypress(m),500,633245,633245,628086,628075,628103,633270,8,400,30,,ISIC_0552911.JPG
break,html.Screen,4_129_1,2023-05-03T17:40:38.305Z,,0,,,NaN,,,,,,false,,,,633246,633246,,633245,,633270,8,400,,,
break_continue,html.Screen,4_129_2,2023-05-03T17:40:38.305Z,,0,,,NaN,,,,,,false,,,,633247,633246,,633246,,633270,8,400,,,
sequence,flow.Sequence,4_129,2023-05-03T17:40:38.306Z,,0,,,5143,completion,,,,,false,,,,633247,633246,628086,628075,628103,633270,8,400,,,
trial,html.Screen,4_130_0,2023-05-03T17:40:43.012Z,,0,3,,4699,response,ISIC_2033237.JPG,,ISIC_1552232.JPG,ISIC_2033237.JPG,false,1,keypress(m),500,637953,637952,633253,633247,633270,637985,8,400,31,,ISIC_1552232.JPG
break,html.Screen,4_130_1,2023-05-03T17:40:43.013Z,,0,,,NaN,,,,,,false,,,,637954.0000000001,637954.0000000001,,637953,,637985,8,400,,,
break_continue,html.Screen,4_130_2,2023-05-03T17:40:43.013Z,,0,,,NaN,,,,,,false,,,,637954.0000000001,637954.0000000001,,637954.0000000001,,637985,8,400,,,
sequence,flow.Sequence,4_130,2023-05-03T17:40:43.013Z,,0,,,4684.000000000116,completion,,,,,false,,,,637954.0000000001,637954.0000000001,633253,633247,633270,637985,8,400,,,
trial,html.Screen,4_131_0,2023-05-03T17:40:47.322Z,,0,3,,4293,response,ISIC_0013472.JPG,,ISIC_8036544.JPG,ISIC_0013472.JPG,false,1,keypress(m),500,642263,642263,637970,637954.0000000001,637985,642286,8,400,32,,ISIC_8036544.JPG
break,html.Screen,4_131_1,2023-05-03T17:40:47.323Z,,0,,,NaN,,,,,,false,,,,642264,642264,,642263,,642286,8,400,,,
break_continue,html.Screen,4_131_2,2023-05-03T17:40:47.324Z,,0,,,NaN,,,,,,false,,,,642265,642264,,642264,,642286,8,400,,,
sequence,flow.Sequence,4_131,2023-05-03T17:40:47.324Z,,0,,,4279,completion,,,,,false,,,,642265,642264,637970,637954.0000000001,637985,642286,8,400,,,
trial,html.Screen,4_132_0,2023-05-03T17:40:55.416Z,,0,3,,8087,response,ISIC_7785723.JPG,,ISIC_0034012.JPG,ISIC_0034012.JPG,false,0,keypress(z),500,650357,650356,642269,642265,642286,650386,8,400,33,,ISIC_7785723.JPG
break,html.Screen,4_132_1,2023-05-03T17:40:55.417Z,,0,,,NaN,,,,,,false,,,,650358.0000000001,650358.0000000001,,650357,,650386,8,400,,,
break_continue,html.Screen,4_132_2,2023-05-03T17:40:55.417Z,,0,,,NaN,,,,,,false,,,,650359,650358.0000000001,,650358.0000000001,,650386,8,400,,,
sequence,flow.Sequence,4_132,2023-05-03T17:40:55.418Z,,0,,,8072.000000000116,completion,,,,,false,,,,650359,650358.0000000001,642269,642265,642286,650386,8,400,,,
trial,html.Screen,4_133_0,2023-05-03T17:41:02.795Z,,0,3,,7365,response,ISIC_3652847.JPG,,ISIC_0011612.JPG,ISIC_3652847.JPG,false,1,keypress(m),500,657736,657735,650370,650359,650386,657770,8,400,34,,ISIC_0011612.JPG
break,html.Screen,4_133_1,2023-05-03T17:41:02.796Z,,0,,,NaN,,,,,,false,,,,657737,657736,,657736,,657770,8,400,,,
break_continue,html.Screen,4_133_2,2023-05-03T17:41:02.796Z,,0,,,NaN,,,,,,false,,,,657737,657737,,657737,,657770,8,400,,,
sequence,flow.Sequence,4_133,2023-05-03T17:41:02.796Z,,0,,,7351,completion,,,,,false,,,,657737,657737,650370,650359,650386,657770,8,400,,,
trial,html.Screen,4_134_0,2023-05-03T17:41:12.879Z,,0,3,,10067,response,ISIC_7824688.JPG,,ISIC_0025219.JPG,ISIC_7824688.JPG,false,1,keypress(m),500,667820,667820,657753,657737,657770,667853,8,400,35,,ISIC_0025219.JPG
break,html.Screen,4_134_1,2023-05-03T17:41:12.880Z,,0,,,NaN,,,,,,false,,,,667821,667821,,667821,,667853,8,400,,,
break_continue,html.Screen,4_134_2,2023-05-03T17:41:12.881Z,,0,,,NaN,,,,,,false,,,,667822,667821,,667821,,667853,8,400,,,
sequence,flow.Sequence,4_134,2023-05-03T17:41:12.881Z,,0,,,10051,completion,,,,,false,,,,667822,667821,657753,657737,657770,667853,8,400,,,
trial,html.Screen,4_135_0,2023-05-03T17:41:16.528Z,,0,3,,3633,response,ISIC_0013052.JPG,,ISIC_7296201.JPG,ISIC_0013052.JPG,false,1,keypress(m),500,671469,671469,667836,667822,667853,671503,8,400,36,,ISIC_7296201.JPG
break,html.Screen,4_135_1,2023-05-03T17:41:16.529Z,,0,,,NaN,,,,,,false,,,,671470,671470,,671470,,671503,8,400,,,
break_continue,html.Screen,4_135_2,2023-05-03T17:41:16.530Z,,0,,,NaN,,,,,,false,,,,671471,671471,,671471,,671503,8,400,,,
sequence,flow.Sequence,4_135,2023-05-03T17:41:16.530Z,,0,,,3618,completion,,,,,false,,,,671471,671471,667836,667822,667853,671503,8,400,,,
trial,html.Screen,4_136_0,2023-05-03T17:41:21.990Z,,0,3,,5444.000000000116,response,ISIC_0009959.JPG,,ISIC_3291765.JPG,ISIC_0009959.JPG,false,1,keypress(m),500,676931,676930.0000000001,671486,671471,671503,676953,8,400,37,,ISIC_3291765.JPG
break,html.Screen,4_136_1,2023-05-03T17:41:21.991Z,,0,,,NaN,,,,,,false,,,,676932,676932,,676932,,676953,8,400,,,
break_continue,html.Screen,4_136_2,2023-05-03T17:41:21.992Z,,0,,,NaN,,,,,,false,,,,676933,676933,,676933,,676953,8,400,,,
sequence,flow.Sequence,4_136,2023-05-03T17:41:21.992Z,,0,,,5430,completion,,,,,false,,,,676933,676933,671486,671471,671503,676953,8,400,,,
trial,html.Screen,4_137_0,2023-05-03T17:41:26.034Z,,0,3,,4038,response,ISIC_5675703.JPG,,ISIC_0057661.JPG,ISIC_5675703.JPG,false,1,keypress(m),500,680975,680974,676936,676933,676953,681003,8,400,38,,ISIC_0057661.JPG
break,html.Screen,4_137_1,2023-05-03T17:41:26.035Z,,0,,,NaN,,,,,,false,,,,680976,680975,,680975,,681003,8,400,,,
break_continue,html.Screen,4_137_2,2023-05-03T17:41:26.035Z,,0,,,NaN,,,,,,false,,,,680976,680976,,680976,,681003,8,400,,,
sequence,flow.Sequence,4_137,2023-05-03T17:41:26.035Z,,0,,,4023,completion,,,,,false,,,,680976,680976,676936,676933,676953,681003,8,400,,,
trial,html.Screen,4_138_0,2023-05-03T17:41:29.580Z,,0,3,,3535,response,ISIC_5287679.JPG,,ISIC_5476770.JPG,ISIC_5476770.JPG,false,0,keypress(z),500,684521,684521,680986,680976,681003,684553,8,400,39,,ISIC_5287679.JPG
break,html.Screen,4_138_1,2023-05-03T17:41:29.581Z,,0,,,NaN,,,,,,false,,,,684522,684522,,684522,,684553,8,400,,,
break_continue,html.Screen,4_138_2,2023-05-03T17:41:29.582Z,,0,,,NaN,,,,,,false,,,,684523,684523,,684523,,684553,8,400,,,
sequence,flow.Sequence,4_138,2023-05-03T17:41:29.582Z,,0,,,3520,completion,,,,,false,,,,684523,684523,680986,680976,681003,684553,8,400,,,
trial,html.Screen,4_139_0,2023-05-03T17:41:34.976Z,,0,3,,5380,response,ISIC_0244240.JPG,,ISIC_0024846.JPG,ISIC_0244240.JPG,false,1,keypress(m),500,689917,689916,684536,684523,684553,689953,8,400,40,,ISIC_0024846.JPG
break,html.Screen,4_139_1,2023-05-03T17:41:34.977Z,,0,,,NaN,,,,,,false,,,,689918,689918,,689917,,689953,8,400,,,
break_continue,html.Screen,4_139_2,2023-05-03T17:41:34.977Z,,0,,,NaN,,,,,,false,,,,689918,689918,,689918,,689953,8,400,,,
sequence,flow.Sequence,4_139,2023-05-03T17:41:34.977Z,,0,,,5365,completion,,,,,false,,,,689918,689918,684536,684523,684553,689953,8,400,,,
trial,html.Screen,4_140_0,2023-05-03T17:41:38.481Z,,0,3,,3486,response,ISIC_0009879.JPG,,ISIC_1843053.JPG,ISIC_0009879.JPG,false,1,keypress(m),500,693422,693422,689936,689918,689953,693453,8,400,41,,ISIC_1843053.JPG
break,html.Screen,4_140_1,2023-05-03T17:41:38.482Z,,0,,,NaN,,,,,,false,,,,693423,693423,,693423,,693453,8,400,,,
break_continue,html.Screen,4_140_2,2023-05-03T17:41:38.483Z,,0,,,NaN,,,,,,false,,,,693424,693424,,693423,,693453,8,400,,,
sequence,flow.Sequence,4_140,2023-05-03T17:41:38.483Z,,0,,,3471,completion,,,,,false,,,,693424,693424,689936,689918,689953,693453,8,400,,,
trial,html.Screen,4_141_0,2023-05-03T17:41:42.107Z,,0,3,,3611,response,ISIC_2259861.JPG,,ISIC_0026613.JPG,ISIC_2259861.JPG,false,1,keypress(m),500,697047,697047,693436,693424,693453,697069,8,400,42,,ISIC_0026613.JPG
break,html.Screen,4_141_1,2023-05-03T17:41:42.108Z,,0,,,NaN,,,,,,false,,,,697049,697048,,697048,,697069,8,400,,,
break_continue,html.Screen,4_141_2,2023-05-03T17:41:42.108Z,,0,,,NaN,,,,,,false,,,,697049,697049,,697049,,697069,8,400,,,
sequence,flow.Sequence,4_141,2023-05-03T17:41:42.108Z,,0,,,3596,completion,,,,,false,,,,697049,697049,693436,693424,693453,697069,8,400,,,
trial,html.Screen,4_142_0,2023-05-03T17:41:47.904Z,,0,3,,5792,response,ISIC_0028275.JPG,,ISIC_4916704.JPG,ISIC_4916704.JPG,false,0,keypress(z),500,702845,702844,697052,697049,697069,702869,8,400,43,,ISIC_0028275.JPG
break,html.Screen,4_142_1,2023-05-03T17:41:47.905Z,,0,,,NaN,,,,,,false,,,,702846,702846,,702845,,702869,8,400,,,
break_continue,html.Screen,4_142_2,2023-05-03T17:41:47.905Z,,0,,,NaN,,,,,,false,,,,702846,702846,,702846,,702869,8,400,,,
sequence,flow.Sequence,4_142,2023-05-03T17:41:47.906Z,,0,,,5777,completion,,,,,false,,,,702846,702846,697052,697049,697069,702869,8,400,,,
trial,html.Screen,4_143_0,2023-05-03T17:41:52.616Z,,0,3,,4704,response,ISIC_5564757.JPG,,ISIC_0010295.JPG,ISIC_5564757.JPG,false,1,keypress(m),500,707557,707556,702852,702847,702869,707586,8,400,44,,ISIC_0010295.JPG
break,html.Screen,4_143_1,2023-05-03T17:41:52.617Z,,0,,,NaN,,,,,,false,,,,707558,707558,,707557,,707586,8,400,,,
break_continue,html.Screen,4_143_2,2023-05-03T17:41:52.618Z,,0,,,NaN,,,,,,false,,,,707558,707558,,707558,,707586,8,400,,,
sequence,flow.Sequence,4_143,2023-05-03T17:41:52.618Z,,0,,,4689,completion,,,,,false,,,,707559,707558,702852,702846,702869,707586,8,400,,,
trial,html.Screen,4_144_0,2023-05-03T17:41:56.565Z,,0,3,,3936,response,ISIC_0064342.JPG,,ISIC_8425541.JPG,ISIC_0064342.JPG,false,1,keypress(m),500,711506,711505,707569,707559,707586,711536,8,400,45,,ISIC_8425541.JPG
break,html.Screen,4_144_1,2023-05-03T17:41:56.566Z,,0,,,NaN,,,,,,false,,,,711507.0000000001,711507.0000000001,,711506,,711536,8,400,,,
break_continue,html.Screen,4_144_2,2023-05-03T17:41:56.567Z,,0,,,NaN,,,,,,false,,,,711507.0000000001,711507.0000000001,,711507.0000000001,,711536,8,400,,,
sequence,flow.Sequence,4_144,2023-05-03T17:41:56.567Z,,0,,,3921.0000000001164,completion,,,,,false,,,,711508,711507.0000000001,707569,707559,707586,711536,8,400,,,
trial,html.Screen,4_145_0,2023-05-03T17:42:02.942Z,,0,3,,6363.000000000116,response,ISIC_0013498.JPG,,ISIC_2418276.JPG,ISIC_2418276.JPG,false,0,keypress(z),500,717882.0000000001,717882.0000000001,711519,711508,711536,717919,8,400,46,,ISIC_0013498.JPG
break,html.Screen,4_145_1,2023-05-03T17:42:02.943Z,,0,,,NaN,,,,,,false,,,,717884,717883,,717883,,717919,8,400,,,
break_continue,html.Screen,4_145_2,2023-05-03T17:42:02.943Z,,0,,,NaN,,,,,,false,,,,717884,717884,,717884,,717919,8,400,,,
sequence,flow.Sequence,4_145,2023-05-03T17:42:02.944Z,,0,,,6348,completion,,,,,false,,,,717884,717884,711519,711508,711536,717919,8,400,,,
trial,html.Screen,4_146_0,2023-05-03T17:42:06.210Z,,0,3,,3247,response,ISIC_7564545.JPG,,ISIC_0010752.JPG,ISIC_7564545.JPG,false,1,keypress(m),500,721151.0000000001,721150,717903,717885,717919,721186,8,400,47,,ISIC_0010752.JPG
break,html.Screen,4_146_1,2023-05-03T17:42:06.211Z,,0,,,NaN,,,,,,false,,,,721152,721152,,721151.0000000001,,721186,8,400,,,
break_continue,html.Screen,4_146_2,2023-05-03T17:42:06.212Z,,0,,,NaN,,,,,,false,,,,721152,721152,,721152,,721186,8,400,,,
sequence,flow.Sequence,4_146,2023-05-03T17:42:06.212Z,,0,,,3233,completion,,,,,false,,,,721153,721152,717903,717884,717919,721186,8,400,,,
trial,html.Screen,4_147_0,2023-05-03T17:42:11.006Z,,0,3,,4777,response,ISIC_5565517.JPG,,ISIC_8679617.JPG,ISIC_8679617.JPG,false,0,keypress(z),500,725946,725946,721169,721153,721186,725969,8,400,48,,ISIC_5565517.JPG
break,html.Screen,4_147_1,2023-05-03T17:42:11.007Z,,0,,,NaN,,,,,,false,,,,725948,725947,,725947,,725969,8,400,,,
break_continue,html.Screen,4_147_2,2023-05-03T17:42:11.007Z,,0,,,NaN,,,,,,false,,,,725948,725948,,725948,,725969,8,400,,,
sequence,flow.Sequence,4_147,2023-05-03T17:42:11.008Z,,0,,,4762,completion,,,,,false,,,,725948,725948,721169,721153,721186,725969,8,400,,,
trial,html.Screen,4_148_0,2023-05-03T17:42:14.546Z,,0,3,,3534,response,ISIC_7454679.JPG,,ISIC_0055549.JPG,ISIC_7454679.JPG,false,1,keypress(m),500,729486,729486,725952,725949.0000000001,725969,729519,8,400,49,,ISIC_0055549.JPG
break,html.Screen,4_148_1,2023-05-03T17:42:14.547Z,,0,,,NaN,,,,,,false,,,,729487,729487,,729487,,729519,8,400,,,
break_continue,html.Screen,4_148_2,2023-05-03T17:42:14.547Z,,0,,,NaN,,,,,,false,,,,729488,729488,,729487,,729519,8,400,,,
sequence,flow.Sequence,4_148,2023-05-03T17:42:14.547Z,,0,,,3519,completion,,,,,false,,,,729488,729488,725952,725948,725969,729519,8,400,,,
trial,html.Screen,4_149_0,2023-05-03T17:42:18.555Z,,0,3,,3992,response,ISIC_0011264.JPG,,ISIC_0008881.JPG,ISIC_0011264.JPG,false,1,keypress(m),500,733495,733495,729503,729488,729519,733519,8,400,50,,ISIC_0008881.JPG
break,html.Screen,4_149_1,2023-05-03T17:42:23.562Z,,0,,,4999,timeout,,,,,false,,,,738503,738502,733502,733496,733519,738518,8,400,,,
break_continue,html.Screen,4_149_2,2023-05-03T17:42:25.439Z,,0,,,1888,response,,,,,false,continue,keypress(Space),,740380,740390,738502,738503,738518,740402,8,400,,,
sequence,flow.Sequence,4_149,2023-05-03T17:42:25.440Z,,0,,,10871,completion,,,,,false,,,,740380,740390,729503,729488,729519,740402,8,400,,,
trial,html.Screen,4_150_0,2023-05-03T17:42:29.273Z,,0,4,,3828,response,ISIC_0033573.JPG,,ISIC_0026770.JPG,ISIC_0033573.JPG,false,1,keypress(m),500,744213,744213,740385,740380,740402,744236,8,400,1,,ISIC_0026770.JPG
break,html.Screen,4_150_1,2023-05-03T17:42:29.274Z,,0,,,NaN,,,,,,false,,,,744215,744214,,744214,,744236,8,400,,,
break_continue,html.Screen,4_150_2,2023-05-03T17:42:29.274Z,,0,,,NaN,,,,,,false,,,,744215,744215,,744215,,744236,8,400,,,
sequence,flow.Sequence,4_150,2023-05-03T17:42:29.274Z,,0,,,3813,completion,,,,,false,,,,744215,744215,740385,740380,740402,744236,8,400,,,
trial,html.Screen,4_151_0,2023-05-03T17:42:32.579Z,,0,4,,3300,response,ISIC_0064071.JPG,,ISIC_6661904.JPG,ISIC_6661904.JPG,false,0,keypress(z),500,747520,747519,744219,744215,744236,747553,8,400,2,,ISIC_0064071.JPG
break,html.Screen,4_151_1,2023-05-03T17:42:32.580Z,,0,,,NaN,,,,,,false,,,,747521.0000000001,747521.0000000001,,747520,,747553,8,400,,,
break_continue,html.Screen,4_151_2,2023-05-03T17:42:32.581Z,,0,,,NaN,,,,,,false,,,,747521.0000000001,747521.0000000001,,747521.0000000001,,747553,8,400,,,
sequence,flow.Sequence,4_151,2023-05-03T17:42:32.581Z,,0,,,3285.0000000001164,completion,,,,,false,,,,747521.0000000001,747521.0000000001,744219,744215,744236,747553,8,400,,,
trial,html.Screen,4_152_0,2023-05-03T17:42:35.453Z,,0,4,,2857,response,ISIC_6937905.JPG,,ISIC_0057344.JPG,ISIC_6937905.JPG,false,1,keypress(m),500,750394,750393,747536,747522,747553,750419,8,400,3,,ISIC_0057344.JPG
break,html.Screen,4_152_1,2023-05-03T17:42:35.454Z,,0,,,NaN,,,,,,false,,,,750395,750394,,750394,,750419,8,400,,,
break_continue,html.Screen,4_152_2,2023-05-03T17:42:35.454Z,,0,,,NaN,,,,,,false,,,,750395,750395,,750395,,750419,8,400,,,
sequence,flow.Sequence,4_152,2023-05-03T17:42:35.455Z,,0,,,2842,completion,,,,,false,,,,750395,750395,747536,747522,747553,750419,8,400,,,
trial,html.Screen,4_153_0,2023-05-03T17:42:38.927Z,,0,4,,3465,response,ISIC_0057762.JPG,,ISIC_7670817.JPG,ISIC_7670817.JPG,false,0,keypress(z),500,753868,753867,750402,750396.0000000001,750419,753902,8,400,4,,ISIC_0057762.JPG
break,html.Screen,4_153_1,2023-05-03T17:42:38.929Z,,0,,,NaN,,,,,,false,,,,753869,753869,,753868,,753902,8,400,,,
break_continue,html.Screen,4_153_2,2023-05-03T17:42:38.929Z,,0,,,NaN,,,,,,false,,,,753870,753870,,753870,,753902,8,400,,,
sequence,flow.Sequence,4_153,2023-05-03T17:42:38.929Z,,0,,,3451,completion,,,,,false,,,,753870,753870,750402,750396.0000000001,750419,753902,8,400,,,
trial,html.Screen,4_154_0,2023-05-03T17:42:45.028Z,,0,4,,6081,response,ISIC_0030119.JPG,,ISIC_0067167.JPG,ISIC_0030119.JPG,false,1,keypress(m),500,759968,759967,753886,753870,753902,760002,8,400,5,,ISIC_0067167.JPG
break,html.Screen,4_154_1,2023-05-03T17:42:45.029Z,,0,,,NaN,,,,,,false,,,,759970,759969,,759969,,760002,8,400,,,
break_continue,html.Screen,4_154_2,2023-05-03T17:42:45.029Z,,0,,,NaN,,,,,,false,,,,759970,759970,,759970,,760002,8,400,,,
sequence,flow.Sequence,4_154,2023-05-03T17:42:45.029Z,,0,,,6068,completion,,,,,false,,,,759970,759970,753886,753870,753902,760002,8,400,,,
trial,html.Screen,4_155_0,2023-05-03T17:42:56.546Z,,0,4,,11517,timeout,ISIC_5481211.JPG,,ISIC_5586765.JPG,,false,,,500,771487,771486,759986,759970,760002,771519,8,400,6,,
break,html.Screen,4_155_1,2023-05-03T17:42:56.547Z,,0,,,NaN,,,,,,false,,,,771488,771487,,771487,,771519,8,400,,,
break_continue,html.Screen,4_155_2,2023-05-03T17:42:56.547Z,,0,,,NaN,,,,,,false,,,,771488,771488,,771488,,771519,8,400,,,
sequence,flow.Sequence,4_155,2023-05-03T17:42:56.547Z,,0,,,11486,completion,,,,,false,,,,771488,771488,759986,759970,760002,771519,8,400,,,
trial,html.Screen,4_156_0,2023-05-03T17:43:02.915Z,,0,4,,6353,response,ISIC_8127394.JPG,,ISIC_8911740.JPG,ISIC_8127394.JPG,false,1,keypress(m),500,777856,777855,771502,771488,771519,777886,8,400,7,,ISIC_8911740.JPG
break,html.Screen,4_156_1,2023-05-03T17:43:02.916Z,,0,,,NaN,,,,,,false,,,,777857,777857,,777856,,777886,8,400,,,
break_continue,html.Screen,4_156_2,2023-05-03T17:43:02.917Z,,0,,,NaN,,,,,,false,,,,777857,777857,,777857,,777886,8,400,,,
sequence,flow.Sequence,4_156,2023-05-03T17:43:02.917Z,,0,,,6338,completion,,,,,false,,,,777858.0000000001,777857,771502,771488,771519,777886,8,400,,,
trial,html.Screen,4_157_0,2023-05-03T17:43:05.906Z,,0,4,,2977,response,ISIC_0047022.JPG,,ISIC_6507640.JPG,ISIC_0047022.JPG,false,1,keypress(m),500,780847,780846,777869,777858.0000000001,777886,780869,8,400,8,,ISIC_6507640.JPG
break,html.Screen,4_157_1,2023-05-03T17:43:05.907Z,,0,,,NaN,,,,,,false,,,,780848.0000000001,780848.0000000001,,780847,,780869,8,400,,,
break_continue,html.Screen,4_157_2,2023-05-03T17:43:05.908Z,,0,,,NaN,,,,,,false,,,,780848.0000000001,780848.0000000001,,780848.0000000001,,780869,8,400,,,
sequence,flow.Sequence,4_157,2023-05-03T17:43:05.908Z,,0,,,2962.0000000001164,completion,,,,,false,,,,780848.0000000001,780848.0000000001,777869,777858.0000000001,777886,780869,8,400,,,
trial,html.Screen,4_158_0,2023-05-03T17:43:09.688Z,,0,4,,3776,response,ISIC_4641968.JPG,,ISIC_0024219.JPG,ISIC_0024219.JPG,false,0,keypress(z),500,784629,784628,780852,780848.0000000001,780869,784652,8,400,9,,ISIC_4641968.JPG
break,html.Screen,4_158_1,2023-05-03T17:43:09.689Z,,0,,,NaN,,,,,,false,,,,784630,784630,,784629,,784652,8,400,,,
break_continue,html.Screen,4_158_2,2023-05-03T17:43:09.690Z,,0,,,NaN,,,,,,false,,,,784630,784630,,784630,,784652,8,400,,,
sequence,flow.Sequence,4_158,2023-05-03T17:43:09.690Z,,0,,,3761,completion,,,,,false,,,,784630,784630,780852,780848.0000000001,780869,784652,8,400,,,
trial,html.Screen,4_159_0,2023-05-03T17:43:21.196Z,,0,4,,11517,timeout,ISIC_0193907.JPG,,ISIC_3000569.JPG,ISIC_3000569.JPG,false,,,500,796136,796136,784635,784630,784652,796169,8,400,10,,ISIC_0193907.JPG
