sender,sender_type,sender_id,timestamp,meta,,blockNo,condition,duration,ended_on,img_left,img_reveal,img_right,loser,practice,response,response_action,selection_duration,time_commit,time_end,time_render,time_run,time_show,time_switch,total_blocks,total_trials,trialNo,url,winner
informed_consent,html.Screen,0,2023-10-31T02:24:51.614Z,"{""labjs_version"":""20.2.4"",""labjs_build"":{""flavor"":""production"",""commit"":""f5b4a49f956347addd546a832a3327688c2c0fef""},""location"":""https://run.pavlovia.org/MurrayBennett/melanoma-2afc/?participant=66464&platform=sona"",""userAgent"":""Mozilla/5.0 (Windows NT 10.0; Win64; x64) AppleWebKit/537.36 (KHTML, like Gecko) Chrome/118.0.0.0 Safari/537.36 Edg/118.0.2088.76"",""platform"":""Win32"",""language"":""en-US"",""locale"":""en-US"",""timeZone"":""America/Chicago"",""timezoneOffset"":300,""screen_width"":1366,""screen_height"":768,""scroll_width"":1358,""scroll_height"":586,""window_innerWidth"":1358,""window_innerHeight"":634,""devicePixelRatio"":1}",,,,4847.985000000001,response,,,,,,consent,click button,,7638,7470,2039.384,2608.8000000715256,2622.015,7700.395,,,,"{""participant"":""66464"",""platform"":""sona""}",
Welcome,html.Screen,1,2023-10-31T02:24:57.674Z,,,,uniform,5995.605,response,,,,,,continue,click button,,13697.200000047684,13696,7450.65,7638.200000047684,7700.395,13711.376,,,,,
trial,html.Screen,2_0_0,2023-10-31T02:25:03.439Z,,0,0,,5751.3240000476835,response,ISIC_0025593.JPG,,ISIC_0063388.JPG,ISIC_0025593.JPG,true,1,keypress(m),500,19463.100000023842,19462.700000047684,13694.5,13697.5,13711.376,19472.223,1,6,1,,ISIC_0063388.JPG
sequence,flow.Sequence,2_0,2023-10-31T02:25:03.440Z,,0,,,5751.3240000476835,completion,,,,,true,,,,19463.700000047684,19462.700000047684,13694.5,13697.399999976158,13711.376,19472.223,1,6,,,
trial,html.Screen,2_1_0,2023-10-31T02:25:09.427Z,,0,0,,5978.176999976156,response,ISIC_1309015.JPG,,ISIC_0028178.JPG,ISIC_0028178.JPG,true,0,keypress(z),500,25450.700000047684,25450.399999976158,19455.679,19463.899999976158,19472.223,25466.371,1,6,2,,ISIC_1309015.JPG
sequence,flow.Sequence,2_1,2023-10-31T02:25:09.427Z,,0,,,5978.176999976156,completion,,,,,true,,,,25450.899999976158,25450.399999976158,19455.679,19463.800000071526,19472.223,25466.371,1,6,,,
trial,html.Screen,2_2_0,2023-10-31T02:25:14.568Z,,0,0,,5125.229000023843,response,ISIC_0031128.JPG,,ISIC_3314853.JPG,ISIC_0031128.JPG,true,1,keypress(m),500,30591.700000047684,30591.600000023842,25449.664,25451.100000023842,25466.371,30594.665,1,6,3,,ISIC_3314853.JPG
sequence,flow.Sequence,2_2,2023-10-31T02:25:14.568Z,,0,,,5125.229000023843,completion,,,,,true,,,,30591.899999976158,30591.600000023842,25449.664,25451,25466.371,30594.665,1,6,,,
trial,html.Screen,2_3_0,2023-10-31T02:25:20.193Z,,0,0,,5621.635000071525,response,ISIC_0031612.JPG,,ISIC_8980141.JPG,ISIC_0031612.JPG,true,1,keypress(m),500,36216.700000047684,36216.300000071526,30578.063,30592,30594.665,36222.477,1,6,4,,ISIC_8980141.JPG
sequence,flow.Sequence,2_3,2023-10-31T02:25:20.194Z,,0,,,5621.635000071525,completion,,,,,true,,,,36217.89999997616,36216.300000071526,30578.063,30592,30594.665,36222.477,1,6,,,
trial,html.Screen,2_4_0,2023-10-31T02:25:23.656Z,,0,0,,3457.3230000715266,response,ISIC_1197737.JPG,,ISIC_9721604.JPG,ISIC_9721604.JPG,true,0,keypress(z),500,39680.10000002384,39679.800000071526,36206.087,36218.200000047684,36222.477,39685.786,1,6,5,,ISIC_1197737.JPG
sequence,flow.Sequence,2_4,2023-10-31T02:25:23.657Z,,0,,,3457.3230000715266,completion,,,,,true,,,,39680.5,39679.800000071526,36206.087,36218.10000002384,36222.477,39685.786,1,6,,,
trial,html.Screen,2_5_0,2023-10-31T02:25:27.521Z,,0,0,,3857.9140000476837,response,ISIC_0010681.JPG,,ISIC_0025346.JPG,ISIC_0025346.JPG,true,0,keypress(z),500,43544,43543.700000047684,39669.562,39680.700000047684,39685.786,43548.642,1,6,6,,ISIC_0010681.JPG
sequence,flow.Sequence,2_5,2023-10-31T02:25:27.521Z,,0,,,3857.9140000476837,completion,,,,,true,,,,43545,43543.700000047684,39669.562,39680.700000047684,39685.786,43548.642,1,6,,,
loop,flow.Loop,2,2023-10-31T02:25:27.522Z,,,,,29832.324000047684,completion,,,,,true,,,,43545.300000071526,43543.700000047684,13694.5,13697.399999976158,13711.376,43548.642,1,6,,,
exp_instructions,html.Screen,3,2023-10-31T02:25:41.579Z,,,,,14053.658000071526,response,,,,,,continue,keypress(Space),,57603,57602.300000071526,43532.018,43545.39999997616,43548.642,57618.222,,,,,
trial,html.Screen,4_0_0,2023-10-31T02:25:47.986Z,,0,1,,6391.277999999998,response,ISIC_5547318.JPG,5,ISIC_0256715.JPG,ISIC_5547318.JPG,false,1,keypress(m),500,64009.800000071526,64009.5,57598.819,57603.300000071526,57618.222,64011.945,8,400,1,,ISIC_0256715.JPG
break,html.Screen,4_0_1,2023-10-31T02:25:47.988Z,,0,,,NaN,,,,,,false,,,,64011.300000071526,64011,,64010,,64011.945,8,400,,,
break_continue,html.Screen,4_0_2,2023-10-31T02:25:47.989Z,,0,,,NaN,,,,,,false,,,,64011.89999997616,64011.700000047684,,64011.39999997616,,64011.945,8,400,,,
sequence,flow.Sequence,4_0,2023-10-31T02:25:47.989Z,,0,,,6393.478000047682,completion,,,,,false,,,,64012.200000047684,64011.700000047684,57598.819,57603.300000071526,57618.222,64011.945,8,400,,,
trial,html.Screen,4_1_0,2023-10-31T02:25:51.823Z,,0,1,,3833.855000071526,response,ISIC_7249063.JPG,7,ISIC_0046985.JPG,ISIC_7249063.JPG,false,1,keypress(m),500,67846.30000007153,67845.80000007153,63995.599,64012.39999997616,64011.945,67858.213,8,400,2,,ISIC_0046985.JPG
break,html.Screen,4_1_1,2023-10-31T02:25:51.825Z,,0,,,NaN,,,,,,false,,,,67848.89999997616,67848,,67846.70000004768,,67858.213,8,400,,,
break_continue,html.Screen,4_1_2,2023-10-31T02:25:51.826Z,,0,,,NaN,,,,,,false,,,,67849.80000007153,67849.60000002384,,67849.20000004768,,67858.213,8,400,,,
sequence,flow.Sequence,4_1,2023-10-31T02:25:51.827Z,,0,,,3837.655000023842,completion,,,,,false,,,,67850.10000002384,67849.60000002384,63995.599,64012.300000071526,64011.945,67858.213,8,400,,,
trial,html.Screen,4_2_0,2023-10-31T02:25:55.388Z,,0,1,,3552.4870000476803,response,ISIC_0032331.JPG,1,ISIC_6442221.JPG,ISIC_6442221.JPG,false,0,keypress(z),500,71411.20000004768,71410.70000004768,67841.47,67850.39999997616,67858.213,71421.357,8,400,3,,ISIC_0032331.JPG
break,html.Screen,4_2_1,2023-10-31T02:25:55.390Z,,0,,,NaN,,,,,,false,,,,71413.39999997616,71412.80000007153,,71411.70000004768,,71421.357,8,400,,,
break_continue,html.Screen,4_2_2,2023-10-31T02:25:55.391Z,,0,,,NaN,,,,,,false,,,,71414.20000004768,71413.89999997616,,71413.60000002384,,71421.357,8,400,,,
sequence,flow.Sequence,4_2,2023-10-31T02:25:55.391Z,,0,,,3555.6869999761548,completion,,,,,false,,,,71414.39999997616,71413.89999997616,67841.47,67850.30000007153,67858.213,71421.357,8,400,,,
trial,html.Screen,4_3_0,2023-10-31T02:25:59.302Z,,0,1,,3903.943000071522,response,ISIC_1410408.JPG,7,ISIC_0033643.JPG,ISIC_0033643.JPG,false,0,keypress(z),500,75325.60000002384,75325.30000007153,71404.88,71414.60000002384,71421.357,75334.182,8,400,4,,ISIC_1410408.JPG
break,html.Screen,4_3_1,2023-10-31T02:25:59.303Z,,0,,,NaN,,,,,,false,,,,75326.5,75326.20000004768,,75325.70000004768,,75334.182,8,400,,,
break_continue,html.Screen,4_3_2,2023-10-31T02:25:59.303Z,,0,,,NaN,,,,,,false,,,,75326.80000007153,75326.70000004768,,75326.5,,75334.182,8,400,,,
sequence,flow.Sequence,4_3,2023-10-31T02:25:59.304Z,,0,,,3905.34300004768,completion,,,,,false,,,,75326.89999997616,75326.70000004768,71404.88,71414.5,71421.357,75334.182,8,400,,,
trial,html.Screen,4_4_0,2023-10-31T02:26:02.865Z,,0,1,,3553.3179999999993,response,ISIC_0029729.JPG,27,ISIC_4673648.JPG,ISIC_0029729.JPG,false,1,keypress(m),500,78888,78887.5,75317.686,75327.10000002384,75334.182,78897.458,8,400,5,,ISIC_4673648.JPG
break,html.Screen,4_4_1,2023-10-31T02:26:02.866Z,,0,,,NaN,,,,,,false,,,,78889.70000004768,78889.30000007153,,78888.39999997616,,78897.458,8,400,,,
break_continue,html.Screen,4_4_2,2023-10-31T02:26:02.867Z,,0,,,NaN,,,,,,false,,,,78890.20000004768,78890.10000002384,,78889.80000007153,,78897.458,8,400,,,
sequence,flow.Sequence,4_4,2023-10-31T02:26:02.867Z,,0,,,3555.918000023841,completion,,,,,false,,,,78890.60000002384,78890.10000002384,75317.686,75327,75334.182,78897.458,8,400,,,
trial,html.Screen,4_5_0,2023-10-31T02:26:06.268Z,,0,1,,3394.142000023843,response,ISIC_3378691.JPG,7,ISIC_0032419.JPG,ISIC_3378691.JPG,false,1,keypress(m),500,82291.89999997616,82291.60000002384,78881.568,78890.70000004768,78897.458,82310.768,8,400,6,,ISIC_0032419.JPG
break,html.Screen,4_5_1,2023-10-31T02:26:06.270Z,,0,,,NaN,,,,,,false,,,,82293.10000002384,82292.89999997616,,82292.10000002384,,82310.768,8,400,,,
break_continue,html.Screen,4_5_2,2023-10-31T02:26:06.270Z,,0,,,NaN,,,,,,false,,,,82293.5,82293.39999997616,,82293.20000004768,,82310.768,8,400,,,
sequence,flow.Sequence,4_5,2023-10-31T02:26:06.270Z,,0,,,3395.9419999761594,completion,,,,,false,,,,82293.80000007153,82293.39999997616,78881.568,78890.70000004768,78897.458,82310.768,8,400,,,
trial,html.Screen,4_6_0,2023-10-31T02:26:11.766Z,,0,1,,5478.232000000004,response,ISIC_0054073.JPG,19,ISIC_0010040.JPG,ISIC_0010040.JPG,false,0,keypress(z),500,87789.30000007153,87789,82293.975,82293.89999997616,82310.768,87813.96,8,400,7,,ISIC_0054073.JPG
break,html.Screen,4_6_1,2023-10-31T02:26:11.767Z,,0,,,NaN,,,,,,false,,,,87790.5,87790.20000004768,,87789.5,,87813.96,8,400,,,
break_continue,html.Screen,4_6_2,2023-10-31T02:26:11.768Z,,0,,,NaN,,,,,,false,,,,87790.89999997616,87790.80000007153,,87790.5,,87813.96,8,400,,,
sequence,flow.Sequence,4_6,2023-10-31T02:26:11.768Z,,0,,,5480.032000071529,completion,,,,,false,,,,87791.10000002384,87790.80000007153,82293.975,82293.89999997616,82310.768,87813.96,8,400,,,
trial,html.Screen,4_7_0,2023-10-31T02:26:15.276Z,,0,1,,3484.7400000476773,response,ISIC_0011531.JPG,10,ISIC_0031034.JPG,ISIC_0011531.JPG,false,1,keypress(m),500,91299.10000002384,91298.70000004768,87788.795,87791.20000004768,87813.96,91302.073,8,400,8,,ISIC_0031034.JPG
break,html.Screen,4_7_1,2023-10-31T02:26:15.277Z,,0,,,NaN,,,,,,false,,,,91300.60000002384,91300,,91299.39999997616,,91302.073,8,400,,,
break_continue,html.Screen,4_7_2,2023-10-31T02:26:15.278Z,,0,,,NaN,,,,,,false,,,,91301,91300.89999997616,,91300.70000004768,,91302.073,8,400,,,
sequence,flow.Sequence,4_7,2023-10-31T02:26:15.278Z,,0,,,3486.9399999761517,completion,,,,,false,,,,91301.20000004768,91300.89999997616,87788.795,87791.20000004768,87813.96,91302.073,8,400,,,
trial,html.Screen,4_8_0,2023-10-31T02:26:18.243Z,,0,1,,2963.826999976154,response,ISIC_0063845.JPG,10,ISIC_1473511.JPG,ISIC_1473511.JPG,false,0,keypress(z),500,94266.60000002384,94265.89999997616,91285.957,91301.39999997616,91302.073,94282.318,8,400,9,,ISIC_0063845.JPG
break,html.Screen,4_8_1,2023-10-31T02:26:18.244Z,,0,,,NaN,,,,,,false,,,,94267.70000004768,94267.39999997616,,94266.80000007153,,94282.318,8,400,,,
break_continue,html.Screen,4_8_2,2023-10-31T02:26:18.245Z,,0,,,NaN,,,,,,false,,,,94268.20000004768,94268.10000002384,,94267.89999997616,,94282.318,8,400,,,
sequence,flow.Sequence,4_8,2023-10-31T02:26:18.245Z,,0,,,2966.027000023838,completion,,,,,false,,,,94268.39999997616,94268.10000002384,91285.957,91301.30000007153,91302.073,94282.318,8,400,,,
trial,html.Screen,4_9_0,2023-10-31T02:26:21.707Z,,0,1,,3447.581999976159,response,ISIC_1690909.JPG,6,ISIC_1615996.JPG,ISIC_1690909.JPG,false,1,keypress(m),500,97730.20000004768,97729.89999997616,94266.077,94268.60000002384,94282.318,97762.223,8,400,10,,ISIC_1615996.JPG
break,html.Screen,4_9_1,2023-10-31T02:26:21.708Z,,0,,,NaN,,,,,,false,,,,97731,97730.80000007153,,97730.39999997616,,97762.223,8,400,,,
break_continue,html.Screen,4_9_2,2023-10-31T02:26:21.708Z,,0,,,NaN,,,,,,false,,,,97731.30000007153,97731.30000007153,,97731,,97762.223,8,400,,,
sequence,flow.Sequence,4_9,2023-10-31T02:26:21.708Z,,0,,,3448.9820000715263,completion,,,,,false,,,,97731.5,97731.30000007153,94266.077,94268.5,94282.318,97762.223,8,400,,,
trial,html.Screen,4_10_0,2023-10-31T02:26:24.916Z,,0,1,,3177.17699997616,response,ISIC_0058255.JPG,2,ISIC_6113524.JPG,ISIC_6113524.JPG,false,0,keypress(z),500,100939.80000007153,100939.39999997616,97745.578,97731.5,97762.223,100942.471,8,400,11,,ISIC_0058255.JPG
break,html.Screen,4_10_1,2023-10-31T02:26:24.918Z,,0,,,NaN,,,,,,false,,,,100941.39999997616,100940.80000007153,,100940.10000002384,,100942.471,8,400,,,
break_continue,html.Screen,4_10_2,2023-10-31T02:26:24.919Z,,0,,,NaN,,,,,,false,,,,100942.30000007153,100942,,100941.60000002384,,100942.471,8,400,,,
sequence,flow.Sequence,4_10,2023-10-31T02:26:24.919Z,,0,,,3179.777000000002,completion,,,,,false,,,,100942.60000002384,100942,97745.578,97731.5,97762.223,100942.471,8,400,,,
trial,html.Screen,4_11_0,2023-10-31T02:26:27.807Z,,0,1,,2888.028999999995,response,ISIC_0033044.JPG,9,ISIC_1983754.JPG,ISIC_1983754.JPG,false,0,keypress(z),500,103830.70000004768,103830.5,100925.851,100942.89999997616,100942.471,103840.183,8,400,12,,ISIC_0033044.JPG
break,html.Screen,4_11_1,2023-10-31T02:26:27.808Z,,0,,,NaN,,,,,,false,,,,103831.60000002384,103831.30000007153,,103830.89999997616,,103840.183,8,400,,,
break_continue,html.Screen,4_11_2,2023-10-31T02:26:27.809Z,,0,,,NaN,,,,,,false,,,,103832.10000002384,103832,,103831.70000004768,,103840.183,8,400,,,
sequence,flow.Sequence,4_11,2023-10-31T02:26:27.809Z,,0,,,2889.528999999995,completion,,,,,false,,,,103832.20000004768,103832,100925.851,100942.89999997616,100942.471,103840.183,8,400,,,
trial,html.Screen,4_12_0,2023-10-31T02:26:30.920Z,,0,1,,3103.517000047679,response,ISIC_9767255.JPG,12,ISIC_0062517.JPG,ISIC_0062517.JPG,false,0,keypress(z),500,106943.80000007153,106943.70000004768,103823.344,103832.30000007153,103840.183,106953.215,8,400,13,,ISIC_9767255.JPG
break,html.Screen,4_12_1,2023-10-31T02:26:30.921Z,,0,,,NaN,,,,,,false,,,,106944.60000002384,106944.5,,106943.89999997616,,106953.215,8,400,,,
break_continue,html.Screen,4_12_2,2023-10-31T02:26:30.922Z,,0,,,NaN,,,,,,false,,,,106945,106944.89999997616,,106944.70000004768,,106953.215,8,400,,,
sequence,flow.Sequence,4_12,2023-10-31T02:26:30.922Z,,0,,,3104.7169999761536,completion,,,,,false,,,,106945.10000002384,106944.89999997616,103823.344,103832.30000007153,103840.183,106953.215,8,400,,,
trial,html.Screen,4_13_0,2023-10-31T02:26:33.649Z,,0,1,,2719.1849999761616,response,ISIC_5219334.JPG,13,ISIC_1048077.JPG,ISIC_1048077.JPG,false,0,keypress(z),500,109672.70000004768,109672.39999997616,106937.1,106945.30000007153,106953.215,109684.002,8,400,14,,ISIC_5219334.JPG
break,html.Screen,4_13_1,2023-10-31T02:26:33.651Z,,0,,,NaN,,,,,,false,,,,109674.20000004768,109673.80000007153,,109672.89999997616,,109684.002,8,400,,,
break_continue,html.Screen,4_13_2,2023-10-31T02:26:33.651Z,,0,,,NaN,,,,,,false,,,,109674.80000007153,109674.70000004768,,109674.30000007153,,109684.002,8,400,,,
sequence,flow.Sequence,4_13,2023-10-31T02:26:33.652Z,,0,,,2721.485000047687,completion,,,,,false,,,,109675,109674.70000004768,106937.1,106945.20000004768,106953.215,109684.002,8,400,,,
trial,html.Screen,4_14_0,2023-10-31T02:26:36.646Z,,0,1,,2985.0980000238487,response,ISIC_1306020.JPG,12,ISIC_9053910.JPG,ISIC_9053910.JPG,false,0,keypress(z),500,112669.39999997616,112669.10000002384,109667.103,109675.20000004768,109684.002,112680.942,8,400,15,,ISIC_1306020.JPG
break,html.Screen,4_14_1,2023-10-31T02:26:36.647Z,,0,,,NaN,,,,,,false,,,,112670.80000007153,112670.30000007153,,112669.70000004768,,112680.942,8,400,,,
break_continue,html.Screen,4_14_2,2023-10-31T02:26:36.648Z,,0,,,NaN,,,,,,false,,,,112671.20000004768,112671.10000002384,,112671,,112680.942,8,400,,,
sequence,flow.Sequence,4_14,2023-10-31T02:26:36.648Z,,0,,,2987.0980000238487,completion,,,,,false,,,,112671.5,112671.10000002384,109667.103,109675.20000004768,109684.002,112680.942,8,400,,,
trial,html.Screen,4_15_0,2023-10-31T02:26:39.617Z,,0,1,,2958.85800007153,response,ISIC_0009893.JPG,13,ISIC_0028394.JPG,ISIC_0009893.JPG,false,1,keypress(m),500,115640,115639.80000007153,112664.35,112671.60000002384,112680.942,115644.737,8,400,16,,ISIC_0028394.JPG
break,html.Screen,4_15_1,2023-10-31T02:26:39.618Z,,0,,,NaN,,,,,,false,,,,115641.10000002384,115640.60000002384,,115640.10000002384,,115644.737,8,400,,,
break_continue,html.Screen,4_15_2,2023-10-31T02:26:39.618Z,,0,,,NaN,,,,,,false,,,,115641.60000002384,115641.39999997616,,115641.20000004768,,115644.737,8,400,,,
sequence,flow.Sequence,4_15,2023-10-31T02:26:39.618Z,,0,,,2960.4579999761627,completion,,,,,false,,,,115641.70000004768,115641.39999997616,112664.35,112671.60000002384,112680.942,115644.737,8,400,,,
trial,html.Screen,4_16_0,2023-10-31T02:26:42.597Z,,0,1,,2975.863000023848,response,ISIC_0011031.JPG,8,ISIC_3278303.JPG,ISIC_0011031.JPG,false,1,keypress(m),500,118620.80000007153,118620.60000002384,115628.171,115641.80000007153,115644.737,118625.145,8,400,17,,ISIC_3278303.JPG
break,html.Screen,4_16_1,2023-10-31T02:26:42.598Z,,0,,,NaN,,,,,,false,,,,118621.70000004768,118621.39999997616,,118621,,118625.145,8,400,,,
break_continue,html.Screen,4_16_2,2023-10-31T02:26:42.599Z,,0,,,NaN,,,,,,false,,,,118622.10000002384,118622,,118621.80000007153,,118625.145,8,400,,,
sequence,flow.Sequence,4_16,2023-10-31T02:26:42.599Z,,0,,,2977.2630000000063,completion,,,,,false,,,,118622.30000007153,118622,115628.171,115641.80000007153,115644.737,118625.145,8,400,,,
trial,html.Screen,4_17_0,2023-10-31T02:26:45.584Z,,0,1,,2981.6550000715215,response,ISIC_0001149.JPG,7,ISIC_5309814.JPG,ISIC_0001149.JPG,false,1,keypress(m),500,121607.10000002384,121606.80000007153,118608.689,118622.5,118625.145,121623.571,8,400,18,,ISIC_5309814.JPG
break,html.Screen,4_17_1,2023-10-31T02:26:45.586Z,,0,,,NaN,,,,,,false,,,,121609,121608.70000004768,,121607.30000007153,,121623.571,8,400,,,
break_continue,html.Screen,4_17_2,2023-10-31T02:26:45.586Z,,0,,,NaN,,,,,,false,,,,121609.39999997616,121609.30000007153,,121609.10000002384,,121623.571,8,400,,,
sequence,flow.Sequence,4_17,2023-10-31T02:26:45.586Z,,0,,,2984.1550000715215,completion,,,,,false,,,,121609.60000002384,121609.30000007153,118608.689,118622.39999997616,118625.145,121623.571,8,400,,,
trial,html.Screen,4_18_0,2023-10-31T02:26:48.107Z,,0,1,,2506.828999976162,response,ISIC_2294790.JPG,10,ISIC_3530422.JPG,ISIC_3530422.JPG,false,0,keypress(z),500,124130.60000002384,124130.39999997616,121605.724,121609.70000004768,121623.571,124136.492,8,400,19,,ISIC_2294790.JPG
break,html.Screen,4_18_1,2023-10-31T02:26:48.108Z,,0,,,NaN,,,,,,false,,,,124131.30000007153,124131.10000002384,,124130.80000007153,,124136.492,8,400,,,
break_continue,html.Screen,4_18_2,2023-10-31T02:26:48.108Z,,0,,,NaN,,,,,,false,,,,124131.60000002384,124131.5,,124131.30000007153,,124136.492,8,400,,,
sequence,flow.Sequence,4_18,2023-10-31T02:26:48.108Z,,0,,,2507.9290000000037,completion,,,,,false,,,,124131.80000007153,124131.5,121605.724,121609.70000004768,121623.571,124136.492,8,400,,,
trial,html.Screen,4_19_0,2023-10-31T02:26:50.978Z,,0,1,,2865.0080000000016,response,ISIC_3009877.JPG,4,ISIC_0032938.JPG,ISIC_3009877.JPG,false,1,keypress(m),500,127001.70000004768,127001.5,124119.78,124132,124136.492,127016.883,8,400,20,,ISIC_0032938.JPG
break,html.Screen,4_19_1,2023-10-31T02:26:50.979Z,,0,,,NaN,,,,,,false,,,,127003,127002.70000004768,,127002,,127016.883,8,400,,,
break_continue,html.Screen,4_19_2,2023-10-31T02:26:50.980Z,,0,,,NaN,,,,,,false,,,,127003.70000004768,127003.60000002384,,127003.20000004768,,127016.883,8,400,,,
sequence,flow.Sequence,4_19,2023-10-31T02:26:50.980Z,,0,,,2867.1080000238435,completion,,,,,false,,,,127003.89999997616,127003.60000002384,124119.78,124132,124136.492,127016.883,8,400,,,
trial,html.Screen,4_20_0,2023-10-31T02:26:54.250Z,,0,1,,3256.817000047682,response,ISIC_7795549.JPG,5,ISIC_1859923.JPG,ISIC_7795549.JPG,false,1,keypress(m),500,130273.89999997616,130273.70000004768,127000.134,127004.10000002384,127016.883,130280.415,8,400,21,,ISIC_1859923.JPG
break,html.Screen,4_20_1,2023-10-31T02:26:54.252Z,,0,,,NaN,,,,,,false,,,,130275.89999997616,130275.60000002384,,130274.10000002384,,130280.415,8,400,,,
break_continue,html.Screen,4_20_2,2023-10-31T02:26:54.253Z,,0,,,NaN,,,,,,false,,,,130276.30000007153,130276.20000004768,,130276,,130280.415,8,400,,,
sequence,flow.Sequence,4_20,2023-10-31T02:26:54.253Z,,0,,,3259.317000047682,completion,,,,,false,,,,130276.5,130276.20000004768,127000.134,127004,127016.883,130280.415,8,400,,,
trial,html.Screen,4_21_0,2023-10-31T02:26:57.397Z,,0,1,,3139.4849999761645,response,ISIC_2057184.JPG,12,ISIC_0024826.JPG,ISIC_2057184.JPG,false,1,keypress(m),500,133420.30000007153,133419.89999997616,130263.742,130276.60000002384,130280.415,133427.827,8,400,22,,ISIC_0024826.JPG
break,html.Screen,4_21_1,2023-10-31T02:26:57.398Z,,0,,,NaN,,,,,,false,,,,133421.89999997616,133421.30000007153,,133420.5,,133427.827,8,400,,,
break_continue,html.Screen,4_21_2,2023-10-31T02:26:57.399Z,,0,,,NaN,,,,,,false,,,,133422.5,133422.30000007153,,133422,,133427.827,8,400,,,
sequence,flow.Sequence,4_21,2023-10-31T02:26:57.399Z,,0,,,3141.885000071532,completion,,,,,false,,,,133422.80000007153,133422.30000007153,130263.742,130276.5,130280.415,133427.827,8,400,,,
trial,html.Screen,4_22_0,2023-10-31T02:27:00.026Z,,0,1,,2621.2730000238516,response,ISIC_0068633.JPG,6,ISIC_7601403.JPG,ISIC_7601403.JPG,false,0,keypress(z),500,136049.39999997616,136049.10000002384,133410.885,133423.20000004768,133427.827,136058.086,8,400,23,,ISIC_0068633.JPG
break,html.Screen,4_22_1,2023-10-31T02:27:00.027Z,,0,,,NaN,,,,,,false,,,,136050.89999997616,136050.60000002384,,136049.80000007153,,136058.086,8,400,,,
break_continue,html.Screen,4_22_2,2023-10-31T02:27:00.028Z,,0,,,NaN,,,,,,false,,,,136051.80000007153,136051.5,,136051.20000004768,,136058.086,8,400,,,
sequence,flow.Sequence,4_22,2023-10-31T02:27:00.028Z,,0,,,2623.67300000001,completion,,,,,false,,,,136052,136051.5,133410.885,133423.10000002384,133427.827,136058.086,8,400,,,
trial,html.Screen,4_23_0,2023-10-31T02:27:02.897Z,,0,1,,2862.6140000476735,response,ISIC_0014932.JPG,11,ISIC_7097931.JPG,ISIC_7097931.JPG,false,0,keypress(z),500,138920.89999997616,138920.70000004768,136041.332,136052.30000007153,136058.086,138944.716,8,400,24,,ISIC_0014932.JPG
break,html.Screen,4_23_1,2023-10-31T02:27:02.898Z,,0,,,NaN,,,,,,false,,,,138922,138921.70000004768,,138921,,138944.716,8,400,,,
break_continue,html.Screen,4_23_2,2023-10-31T02:27:02.899Z,,0,,,NaN,,,,,,false,,,,138922.5,138922.30000007153,,138922.10000002384,,138944.716,8,400,,,
sequence,flow.Sequence,4_23,2023-10-31T02:27:02.899Z,,0,,,2864.2140000715153,completion,,,,,false,,,,138922.60000002384,138922.30000007153,136041.332,136052.20000004768,136058.086,138944.716,8,400,,,
trial,html.Screen,4_24_0,2023-10-31T02:27:05.754Z,,0,1,,2832.08400007154,response,ISIC_8436666.JPG,6,ISIC_4114269.JPG,ISIC_8436666.JPG,false,1,keypress(m),500,141777.20000004768,141776.80000007153,138905.488,138922.80000007153,138944.716,141785.848,8,400,25,,ISIC_4114269.JPG
break,html.Screen,4_24_1,2023-10-31T02:27:05.755Z,,0,,,NaN,,,,,,false,,,,141778.60000002384,141778.10000002384,,141777.39999997616,,141785.848,8,400,,,
break_continue,html.Screen,4_24_2,2023-10-31T02:27:05.756Z,,0,,,NaN,,,,,,false,,,,141779.30000007153,141779.10000002384,,141778.89999997616,,141785.848,8,400,,,
sequence,flow.Sequence,4_24,2023-10-31T02:27:05.756Z,,0,,,2834.384000023856,completion,,,,,false,,,,141779.5,141779.10000002384,138905.488,138922.70000004768,138944.716,141785.848,8,400,,,
trial,html.Screen,4_25_0,2023-10-31T02:27:08.514Z,,0,1,,2751.55199997616,response,ISIC_0386664.JPG,5,ISIC_9950866.JPG,ISIC_0386664.JPG,false,1,keypress(m),500,144537.70000004768,144537.39999997616,141770.197,141779.60000002384,141785.848,144549.743,8,400,26,,ISIC_9950866.JPG
break,html.Screen,4_25_1,2023-10-31T02:27:08.515Z,,0,,,NaN,,,,,,false,,,,144538.60000002384,144538.5,,144537.89999997616,,144549.743,8,400,,,
break_continue,html.Screen,4_25_2,2023-10-31T02:27:08.515Z,,0,,,NaN,,,,,,false,,,,144539,144538.89999997616,,144538.70000004768,,144549.743,8,400,,,
sequence,flow.Sequence,4_25,2023-10-31T02:27:08.515Z,,0,,,2753.05199997616,completion,,,,,false,,,,144539.10000002384,144538.89999997616,141770.197,141779.60000002384,141785.848,144549.743,8,400,,,
trial,html.Screen,4_26_0,2023-10-31T02:27:10.940Z,,0,1,,2413.7570000000123,response,ISIC_0033427.JPG,10,ISIC_5674396.JPG,ISIC_5674396.JPG,false,0,keypress(z),500,146963.89999997616,146963.5,144533.1,144539.20000004768,144549.743,146981.004,8,400,27,,ISIC_0033427.JPG
break,html.Screen,4_26_1,2023-10-31T02:27:10.942Z,,0,,,NaN,,,,,,false,,,,146965.30000007153,146965,,146964,,146981.004,8,400,,,
break_continue,html.Screen,4_26_2,2023-10-31T02:27:10.942Z,,0,,,NaN,,,,,,false,,,,146966.10000002384,146966,,146965.80000007153,,146981.004,8,400,,,
sequence,flow.Sequence,4_26,2023-10-31T02:27:10.943Z,,0,,,2416.2570000000123,completion,,,,,false,,,,146966.30000007153,146966,144533.1,144539.20000004768,144549.743,146981.004,8,400,,,
trial,html.Screen,4_27_0,2023-10-31T02:27:13.766Z,,0,1,,2808.395999976172,response,ISIC_0014325.JPG,9,ISIC_0025964.JPG,ISIC_0014325.JPG,false,1,keypress(m),500,149789.70000004768,149789.39999997616,146964.275,146966.5,146981.004,149794.611,8,400,28,,ISIC_0025964.JPG
break,html.Screen,4_27_1,2023-10-31T02:27:13.768Z,,0,,,NaN,,,,,,false,,,,149791.60000002384,149790.80000007153,,149789.89999997616,,149794.611,8,400,,,
break_continue,html.Screen,4_27_2,2023-10-31T02:27:13.768Z,,0,,,NaN,,,,,,false,,,,149792.10000002384,149792,,149791.70000004768,,149794.611,8,400,,,
sequence,flow.Sequence,4_27,2023-10-31T02:27:13.769Z,,0,,,2810.9960000000137,completion,,,,,false,,,,149792.20000004768,149792,146964.275,146966.5,146981.004,149794.611,8,400,,,
trial,html.Screen,4_28_0,2023-10-31T02:27:16.767Z,,0,1,,2995.689000071521,response,ISIC_0009931.JPG,13,ISIC_0031807.JPG,ISIC_0031807.JPG,false,0,keypress(z),500,152790.5,152790.30000007153,149778.261,149792.39999997616,149794.611,152808.343,8,400,29,,ISIC_0009931.JPG
break,html.Screen,4_28_1,2023-10-31T02:27:16.768Z,,0,,,NaN,,,,,,false,,,,152791.20000004768,152791,,152790.60000002384,,152808.343,8,400,,,
break_continue,html.Screen,4_28_2,2023-10-31T02:27:16.768Z,,0,,,NaN,,,,,,false,,,,152791.60000002384,152791.39999997616,,152791.39999997616,,152808.343,8,400,,,
sequence,flow.Sequence,4_28,2023-10-31T02:27:16.768Z,,0,,,2996.7889999761537,completion,,,,,false,,,,152791.70000004768,152791.39999997616,149778.261,149792.30000007153,149794.611,152808.343,8,400,,,
trial,html.Screen,4_29_0,2023-10-31T02:27:19.430Z,,0,1,,2644.7570000238484,response,ISIC_2616719.JPG,6,ISIC_4312841.JPG,ISIC_2616719.JPG,false,1,keypress(m),500,155454.10000002384,155453.10000002384,152791.816,152791.70000004768,152808.343,155477.314,8,400,30,,ISIC_4312841.JPG
break,html.Screen,4_29_1,2023-10-31T02:27:19.432Z,,0,,,NaN,,,,,,false,,,,155455.20000004768,155454.89999997616,,155454.20000004768,,155477.314,8,400,,,
break_continue,html.Screen,4_29_2,2023-10-31T02:27:19.432Z,,0,,,NaN,,,,,,false,,,,155455.60000002384,155455.39999997616,,155455.30000007153,,155477.314,8,400,,,
sequence,flow.Sequence,4_29,2023-10-31T02:27:19.432Z,,0,,,2647.0569999761647,completion,,,,,false,,,,155455.80000007153,155455.39999997616,152791.816,152791.70000004768,152808.343,155477.314,8,400,,,
trial,html.Screen,4_30_0,2023-10-31T02:27:23.370Z,,0,1,,3915.9860000715125,response,ISIC_0029574.JPG,7,ISIC_0033228.JPG,ISIC_0029574.JPG,false,1,keypress(m),500,159393.5,159393.30000007153,155439.004,155455.89999997616,155477.314,159402.797,8,400,31,,ISIC_0033228.JPG
break,html.Screen,4_30_1,2023-10-31T02:27:23.371Z,,0,,,NaN,,,,,,false,,,,159394.5,159394.30000007153,,159393.70000004768,,159402.797,8,400,,,
break_continue,html.Screen,4_30_2,2023-10-31T02:27:23.371Z,,0,,,NaN,,,,,,false,,,,159395,159394.89999997616,,159394.70000004768,,159402.797,8,400,,,
sequence,flow.Sequence,4_30,2023-10-31T02:27:23.371Z,,0,,,3917.585999976145,completion,,,,,false,,,,159395.10000002384,159394.89999997616,155439.004,155455.89999997616,155477.314,159402.797,8,400,,,
trial,html.Screen,4_31_0,2023-10-31T02:27:26.622Z,,0,1,,3242.503000071534,response,ISIC_8796632.JPG,6,ISIC_9876515.JPG,ISIC_8796632.JPG,false,1,keypress(m),500,162645.60000002384,162645.30000007153,159385.847,159395.20000004768,159402.797,162648.688,8,400,32,,ISIC_9876515.JPG
break,html.Screen,4_31_1,2023-10-31T02:27:26.623Z,,0,,,NaN,,,,,,false,,,,162646.89999997616,162646.60000002384,,162645.80000007153,,162648.688,8,400,,,
break_continue,html.Screen,4_31_2,2023-10-31T02:27:26.624Z,,0,,,NaN,,,,,,false,,,,162647.39999997616,162647.30000007153,,162647,,162648.688,8,400,,,
sequence,flow.Sequence,4_31,2023-10-31T02:27:26.624Z,,0,,,3244.503000071534,completion,,,,,false,,,,162647.60000002384,162647.30000007153,159385.847,159395.20000004768,159402.797,162648.688,8,400,,,
trial,html.Screen,4_32_0,2023-10-31T02:27:30.037Z,,0,1,,3411.512000047689,response,ISIC_0028325.JPG,1,ISIC_0031726.JPG,ISIC_0028325.JPG,false,1,keypress(m),500,166060.60000002384,166060.20000004768,162631.971,162647.80000007153,162648.688,166078.817,8,400,33,,ISIC_0031726.JPG
break,html.Screen,4_32_1,2023-10-31T02:27:30.038Z,,0,,,NaN,,,,,,false,,,,166062,166061.5,,166060.89999997616,,166078.817,8,400,,,
break_continue,html.Screen,4_32_2,2023-10-31T02:27:30.039Z,,0,,,NaN,,,,,,false,,,,166062.5,166062.39999997616,,166062.20000004768,,166078.817,8,400,,,
sequence,flow.Sequence,4_32,2023-10-31T02:27:30.039Z,,0,,,3413.7119999761635,completion,,,,,false,,,,166062.70000004768,166062.39999997616,162631.971,162647.70000004768,162648.688,166078.817,8,400,,,
trial,html.Screen,4_33_0,2023-10-31T02:27:33.757Z,,0,1,,3701.3830000476737,response,ISIC_0025748.JPG,7,ISIC_1711134.JPG,ISIC_0025748.JPG,false,1,keypress(m),500,169780.5,169780.20000004768,166045.312,166062.80000007153,166078.817,169791.698,8,400,34,,ISIC_1711134.JPG
break,html.Screen,4_33_1,2023-10-31T02:27:33.758Z,,0,,,NaN,,,,,,false,,,,169781.39999997616,169781.20000004768,,169780.60000002384,,169791.698,8,400,,,
break_continue,html.Screen,4_33_2,2023-10-31T02:27:33.758Z,,0,,,NaN,,,,,,false,,,,169781.70000004768,169781.70000004768,,169781.5,,169791.698,8,400,,,
sequence,flow.Sequence,4_33,2023-10-31T02:27:33.758Z,,0,,,3702.8830000476737,completion,,,,,false,,,,169781.80000007153,169781.70000004768,166045.312,166062.80000007153,166078.817,169791.698,8,400,,,
trial,html.Screen,4_34_0,2023-10-31T02:27:36.830Z,,0,1,,3061.6020000715216,response,ISIC_5552066.JPG,5,ISIC_6916213.JPG,ISIC_6916213.JPG,false,0,keypress(z),500,172853.5,172853.30000007153,169775.253,169781.89999997616,169791.698,172876.111,8,400,35,,ISIC_5552066.JPG
break,html.Screen,4_34_1,2023-10-31T02:27:36.831Z,,0,,,NaN,,,,,,false,,,,172854.30000007153,172854.10000002384,,172853.70000004768,,172876.111,8,400,,,
break_continue,html.Screen,4_34_2,2023-10-31T02:27:36.831Z,,0,,,NaN,,,,,,false,,,,172854.70000004768,172854.70000004768,,172854.5,,172876.111,8,400,,,
sequence,flow.Sequence,4_34,2023-10-31T02:27:36.831Z,,0,,,3063.0020000476798,completion,,,,,false,,,,172854.80000007153,172854.70000004768,169775.253,169781.89999997616,169791.698,172876.111,8,400,,,
trial,html.Screen,4_35_0,2023-10-31T02:27:39.880Z,,0,1,,3026.7889999761537,response,ISIC_8649055.JPG,5,ISIC_0032012.JPG,ISIC_8649055.JPG,false,1,keypress(m),500,175903.20000004768,175902.89999997616,172855.831,172855,172876.111,175919.155,8,400,36,,ISIC_0032012.JPG
break,html.Screen,4_35_1,2023-10-31T02:27:39.881Z,,0,,,NaN,,,,,,false,,,,175904.39999997616,175904.10000002384,,175903.39999997616,,175919.155,8,400,,,
break_continue,html.Screen,4_35_2,2023-10-31T02:27:39.881Z,,0,,,NaN,,,,,,false,,,,175904.80000007153,175904.70000004768,,175904.5,,175919.155,8,400,,,
sequence,flow.Sequence,4_35,2023-10-31T02:27:39.881Z,,0,,,3028.5890000476793,completion,,,,,false,,,,175905,175904.70000004768,172855.831,172855,172876.111,175919.155,8,400,,,
trial,html.Screen,4_36_0,2023-10-31T02:27:43.469Z,,0,1,,3572.845000000001,response,ISIC_0024527.JPG,34,ISIC_7032028.JPG,ISIC_7032028.JPG,false,0,keypress(z),500,179492.39999997616,179492,175902.77,175905.10000002384,175919.155,179498.877,8,400,37,,ISIC_0024527.JPG
break,html.Screen,4_36_1,2023-10-31T02:27:43.471Z,,0,,,NaN,,,,,,false,,,,179494.20000004768,179493.60000002384,,179492.70000004768,,179498.877,8,400,,,
break_continue,html.Screen,4_36_2,2023-10-31T02:27:43.471Z,,0,,,NaN,,,,,,false,,,,179494.89999997616,179494.70000004768,,179494.5,,179498.877,8,400,,,
sequence,flow.Sequence,4_36,2023-10-31T02:27:43.471Z,,0,,,3575.545000047685,completion,,,,,false,,,,179495.10000002384,179494.70000004768,175902.77,175905.10000002384,175919.155,179498.877,8,400,,,
trial,html.Screen,4_37_0,2023-10-31T02:27:46.354Z,,0,1,,2878.923000071518,response,ISIC_6937199.JPG,12,ISIC_9482842.JPG,ISIC_6937199.JPG,false,1,keypress(m),500,182378.10000002384,182377.80000007153,179482.232,179495.30000007153,179498.877,182396.335,8,400,38,,ISIC_9482842.JPG
break,html.Screen,4_37_1,2023-10-31T02:27:46.355Z,,0,,,NaN,,,,,,false,,,,182379.20000004768,182378.89999997616,,182378.30000007153,,182396.335,8,400,,,
break_continue,html.Screen,4_37_2,2023-10-31T02:27:46.356Z,,0,,,NaN,,,,,,false,,,,182379.60000002384,182379.39999997616,,182379.20000004768,,182396.335,8,400,,,
sequence,flow.Sequence,4_37,2023-10-31T02:27:46.356Z,,0,,,2880.5229999761505,completion,,,,,false,,,,182379.70000004768,182379.39999997616,179482.232,179495.20000004768,179498.877,182396.335,8,400,,,
trial,html.Screen,4_38_0,2023-10-31T02:27:50.903Z,,0,1,,4530.064999976166,response,ISIC_0024496.JPG,11,ISIC_0030597.JPG,ISIC_0030597.JPG,false,0,keypress(z),500,186926.89999997616,186926.39999997616,182379.944,182379.80000007153,182396.335,186948.864,8,400,39,,ISIC_0024496.JPG
break,html.Screen,4_38_1,2023-10-31T02:27:50.905Z,,0,,,NaN,,,,,,false,,,,186929,186928.5,,186927.39999997616,,186948.864,8,400,,,
break_continue,html.Screen,4_38_2,2023-10-31T02:27:50.906Z,,0,,,NaN,,,,,,false,,,,186930,186929.70000004768,,186929.39999997616,,186948.864,8,400,,,
sequence,flow.Sequence,4_38,2023-10-31T02:27:50.907Z,,0,,,4533.365000047692,completion,,,,,false,,,,186930.5,186929.70000004768,182379.944,182379.80000007153,182396.335,186948.864,8,400,,,
trial,html.Screen,4_39_0,2023-10-31T02:27:54.326Z,,0,1,,3400.3360000476823,response,ISIC_4255013.JPG,7,ISIC_9879347.JPG,ISIC_9879347.JPG,false,0,keypress(z),500,190349.60000002384,190349.20000004768,186924.818,186933.5,186948.864,190354.942,8,400,40,,ISIC_4255013.JPG
break,html.Screen,4_39_1,2023-10-31T02:27:54.327Z,,0,,,NaN,,,,,,false,,,,190350.89999997616,190350.5,,190349.80000007153,,190354.942,8,400,,,
break_continue,html.Screen,4_39_2,2023-10-31T02:27:54.328Z,,0,,,NaN,,,,,,false,,,,190351.5,190351.20000004768,,190351.10000002384,,190354.942,8,400,,,
sequence,flow.Sequence,4_39,2023-10-31T02:27:54.328Z,,0,,,3402.3360000476823,completion,,,,,false,,,,190351.70000004768,190351.20000004768,186924.818,186933.39999997616,186948.864,190354.942,8,400,,,
trial,html.Screen,4_40_0,2023-10-31T02:27:57.488Z,,0,1,,3156.158000023832,response,ISIC_9278685.JPG,19,ISIC_0010749.JPG,ISIC_0010749.JPG,false,0,keypress(z),500,193511.39999997616,193511.10000002384,190338.337,190351.89999997616,190354.942,193518.468,8,400,41,,ISIC_9278685.JPG
break,html.Screen,4_40_1,2023-10-31T02:27:57.489Z,,0,,,NaN,,,,,,false,,,,193512.70000004768,193512.39999997616,,193511.70000004768,,193518.468,8,400,,,
break_continue,html.Screen,4_40_2,2023-10-31T02:27:57.490Z,,0,,,NaN,,,,,,false,,,,193513.30000007153,193513.10000002384,,193512.89999997616,,193518.468,8,400,,,
sequence,flow.Sequence,4_40,2023-10-31T02:27:57.490Z,,0,,,3158.158000023832,completion,,,,,false,,,,193513.60000002384,193513.10000002384,190338.337,190351.89999997616,190354.942,193518.468,8,400,,,
trial,html.Screen,4_41_0,2023-10-31T02:28:00.362Z,,0,1,,2867.0320000000065,response,ISIC_5634573.JPG,8,ISIC_0579562.JPG,ISIC_5634573.JPG,false,1,keypress(m),500,196385.89999997616,196385.5,193501.776,193513.70000004768,193518.468,196399.049,8,400,42,,ISIC_0579562.JPG
break,html.Screen,4_41_1,2023-10-31T02:28:00.363Z,,0,,,NaN,,,,,,false,,,,196387.20000004768,196386.80000007153,,196386.10000002384,,196399.049,8,400,,,
break_continue,html.Screen,4_41_2,2023-10-31T02:28:00.364Z,,0,,,NaN,,,,,,false,,,,196387.70000004768,196387.60000002384,,196387.30000007153,,196399.049,8,400,,,
sequence,flow.Sequence,4_41,2023-10-31T02:28:00.364Z,,0,,,2869.1320000238484,completion,,,,,false,,,,196387.80000007153,196387.60000002384,193501.776,193513.60000002384,193518.468,196399.049,8,400,,,
trial,html.Screen,4_42_0,2023-10-31T02:28:03.328Z,,0,1,,2952.051000023843,response,ISIC_0070927.JPG,12,ISIC_1081051.JPG,ISIC_0070927.JPG,false,1,keypress(m),500,199351.60000002384,199351.10000002384,196382.229,196388,196399.049,199362.692,8,400,43,,ISIC_1081051.JPG
break,html.Screen,4_42_1,2023-10-31T02:28:03.330Z,,0,,,NaN,,,,,,false,,,,199353.60000002384,199353.20000004768,,199351.89999997616,,199362.692,8,400,,,
break_continue,html.Screen,4_42_2,2023-10-31T02:28:03.330Z,,0,,,NaN,,,,,,false,,,,199354.20000004768,199354,,199353.89999997616,,199362.692,8,400,,,
sequence,flow.Sequence,4_42,2023-10-31T02:28:03.331Z,,0,,,2954.951000000001,completion,,,,,false,,,,199354.39999997616,199354,196382.229,196387.89999997616,196399.049,199362.692,8,400,,,
trial,html.Screen,4_43_0,2023-10-31T02:28:06.263Z,,0,1,,2923.908000023832,response,ISIC_9403390.JPG,11,ISIC_6507640.JPG,ISIC_9403390.JPG,false,1,keypress(m),500,202286.89999997616,202286.60000002384,199346.176,199354.5,199362.692,202293.158,8,400,44,,ISIC_6507640.JPG
break,html.Screen,4_43_1,2023-10-31T02:28:06.264Z,,0,,,NaN,,,,,,false,,,,202288.20000004768,202287.89999997616,,202287.10000002384,,202293.158,8,400,,,
break_continue,html.Screen,4_43_2,2023-10-31T02:28:06.265Z,,0,,,NaN,,,,,,false,,,,202288.80000007153,202288.60000002384,,202288.39999997616,,202293.158,8,400,,,
sequence,flow.Sequence,4_43,2023-10-31T02:28:06.265Z,,0,,,2925.908000023832,completion,,,,,false,,,,202289.10000002384,202288.60000002384,199346.176,199354.5,199362.692,202293.158,8,400,,,
trial,html.Screen,4_44_0,2023-10-31T02:28:09.873Z,,0,1,,3603.2419999761623,response,ISIC_6653311.JPG,7,ISIC_7740744.JPG,ISIC_6653311.JPG,false,1,keypress(m),500,205896.70000004768,205896.39999997616,202276.82,202289.20000004768,202293.158,205906.348,8,400,45,,ISIC_7740744.JPG
break,html.Screen,4_44_1,2023-10-31T02:28:09.874Z,,0,,,NaN,,,,,,false,,,,205897.70000004768,205897.39999997616,,205896.80000007153,,205906.348,8,400,,,
break_continue,html.Screen,4_44_2,2023-10-31T02:28:09.875Z,,0,,,NaN,,,,,,false,,,,205898.20000004768,205898.10000002384,,205897.70000004768,,205906.348,8,400,,,
sequence,flow.Sequence,4_44,2023-10-31T02:28:09.875Z,,0,,,3604.942000023846,completion,,,,,false,,,,205898.5,205898.10000002384,202276.82,202289.10000002384,202293.158,205906.348,8,400,,,
trial,html.Screen,4_45_0,2023-10-31T02:28:15.003Z,,0,1,,5119.952000071527,response,ISIC_0064406.JPG,11,ISIC_5666345.JPG,ISIC_5666345.JPG,false,0,keypress(z),500,211026.60000002384,211026.30000007153,205889.697,205898.60000002384,205906.348,211034.972,8,400,46,,ISIC_0064406.JPG
break,html.Screen,4_45_1,2023-10-31T02:28:15.004Z,,0,,,NaN,,,,,,false,,,,211027.60000002384,211027.39999997616,,211026.80000007153,,211034.972,8,400,,,
break_continue,html.Screen,4_45_2,2023-10-31T02:28:15.004Z,,0,,,NaN,,,,,,false,,,,211028,211027.89999997616,,211027.70000004768,,211034.972,8,400,,,
sequence,flow.Sequence,4_45,2023-10-31T02:28:15.004Z,,0,,,5121.55199997616,completion,,,,,false,,,,211028.10000002384,211027.89999997616,205889.697,205898.60000002384,205906.348,211034.972,8,400,,,
trial,html.Screen,4_46_0,2023-10-31T02:28:18.082Z,,0,1,,3070.228000047675,response,ISIC_8101493.JPG,10,ISIC_0011137.JPG,ISIC_8101493.JPG,false,1,keypress(m),500,214105.60000002384,214105.20000004768,211018.55,211028.30000007153,211034.972,214121.29,8,400,47,,ISIC_0011137.JPG
break,html.Screen,4_46_1,2023-10-31T02:28:18.084Z,,0,,,NaN,,,,,,false,,,,214107.30000007153,214106.89999997616,,214105.80000007153,,214121.29,8,400,,,
break_continue,html.Screen,4_46_2,2023-10-31T02:28:18.084Z,,0,,,NaN,,,,,,false,,,,214107.80000007153,214107.70000004768,,214107.39999997616,,214121.29,8,400,,,
sequence,flow.Sequence,4_46,2023-10-31T02:28:18.084Z,,0,,,3072.728000047675,completion,,,,,false,,,,214108,214107.70000004768,211018.55,211028.30000007153,211034.972,214121.29,8,400,,,
trial,html.Screen,4_47_0,2023-10-31T02:28:21.309Z,,0,1,,3211.3100000238337,response,ISIC_5041679.JPG,23,ISIC_4597707.JPG,ISIC_5041679.JPG,false,1,keypress(m),500,217332.89999997616,217332.60000002384,214098.7,214108.20000004768,214121.29,217345.506,8,400,48,,ISIC_4597707.JPG
break,html.Screen,4_47_1,2023-10-31T02:28:21.311Z,,0,,,NaN,,,,,,false,,,,217334.30000007153,217333.89999997616,,217333.10000002384,,217345.506,8,400,,,
break_continue,html.Screen,4_47_2,2023-10-31T02:28:21.311Z,,0,,,NaN,,,,,,false,,,,217335.10000002384,217334.80000007153,,217334.60000002384,,217345.506,8,400,,,
sequence,flow.Sequence,4_47,2023-10-31T02:28:21.312Z,,0,,,3213.5100000715174,completion,,,,,false,,,,217335.30000007153,217334.80000007153,214098.7,214108.10000002384,214121.29,217345.506,8,400,,,
trial,html.Screen,4_48_0,2023-10-31T02:28:25.107Z,,0,1,,3785.2940000715316,response,ISIC_7651838.JPG,8,ISIC_0071434.JPG,ISIC_7651838.JPG,false,1,keypress(m),500,221131.20000004768,221130.80000007153,217328.582,217335.5,217345.506,221141.374,8,400,49,,ISIC_0071434.JPG
break,html.Screen,4_48_1,2023-10-31T02:28:25.110Z,,0,,,NaN,,,,,,false,,,,221134.10000002384,221132.39999997616,,221131.39999997616,,221141.374,8,400,,,
break_continue,html.Screen,4_48_2,2023-10-31T02:28:25.111Z,,0,,,NaN,,,,,,false,,,,221134.60000002384,221134.39999997616,,221134.20000004768,,221141.374,8,400,,,
sequence,flow.Sequence,4_48,2023-10-31T02:28:25.111Z,,0,,,3788.893999976164,completion,,,,,false,,,,221134.70000004768,221134.39999997616,217328.582,217335.39999997616,217345.506,221141.374,8,400,,,
trial,html.Screen,4_49_0,2023-10-31T02:28:30.542Z,,0,1,,5424.525999976147,response,ISIC_0056391.JPG,12,ISIC_0068544.JPG,ISIC_0056391.JPG,false,1,keypress(m),500,226566.10000002384,226565.89999997616,221125.041,221134.89999997616,221141.374,226636.051,8,400,50,,ISIC_0068544.JPG
break,html.Screen,4_49_1,2023-10-31T02:28:40.604Z,,0,,,10006.862999999983,timeout,,,,,false,,,,236627.39999997616,236626.264,226552.817,226566.30000007153,226636.051,236642.914,8,400,,,
break_continue,html.Screen,4_49_2,2023-10-31T02:28:45.425Z,,0,,,4788.286000047694,response,,,,,false,continue,keypress(Space),,241449,241431.20000004768,236626.264,236627.60000002384,236642.914,241454.858,8,400,,,
sequence,flow.Sequence,4_49,2023-10-31T02:28:45.426Z,,0,,,20289.826000047673,completion,,,,,false,,,,241449.30000007153,241431.20000004768,221125.041,221134.80000007153,221141.374,241454.858,8,400,,,
trial,html.Screen,4_50_0,2023-10-31T02:28:48.617Z,,0,2,,3186.1419999999925,response,ISIC_5305288.JPG,5,ISIC_2380341.JPG,ISIC_5305288.JPG,false,1,keypress(m),500,244641.20000004768,244641,241437.821,241449.39999997616,241454.858,244664.312,8,400,1,,ISIC_2380341.JPG
break,html.Screen,4_50_1,2023-10-31T02:28:48.618Z,,0,,,NaN,,,,,,false,,,,244642.10000002384,244641.89999997616,,244641.39999997616,,244664.312,8,400,,,
break_continue,html.Screen,4_50_2,2023-10-31T02:28:48.619Z,,0,,,NaN,,,,,,false,,,,244642.5,244642.39999997616,,244642.20000004768,,244664.312,8,400,,,
sequence,flow.Sequence,4_50,2023-10-31T02:28:48.619Z,,0,,,3187.5419999761507,completion,,,,,false,,,,244642.70000004768,244642.39999997616,241437.821,241449.39999997616,241454.858,244664.312,8,400,,,
trial,html.Screen,4_51_0,2023-10-31T02:28:51.983Z,,0,2,,3341.98800007152,response,ISIC_0432236.JPG,7,ISIC_9084751.JPG,ISIC_9084751.JPG,false,0,keypress(z),500,248006.60000002384,248006.30000007153,244635.199,244642.70000004768,244664.312,248016.802,8,400,2,,ISIC_0432236.JPG
break,html.Screen,4_51_1,2023-10-31T02:28:51.984Z,,0,,,NaN,,,,,,false,,,,248007.60000002384,248007.39999997616,,248006.80000007153,,248016.802,8,400,,,
break_continue,html.Screen,4_51_2,2023-10-31T02:28:51.984Z,,0,,,NaN,,,,,,false,,,,248008,248007.89999997616,,248007.70000004768,,248016.802,8,400,,,
sequence,flow.Sequence,4_51,2023-10-31T02:28:51.984Z,,0,,,3343.587999976153,completion,,,,,false,,,,248008.10000002384,248007.89999997616,244635.199,244642.70000004768,244664.312,248016.802,8,400,,,
trial,html.Screen,4_52_0,2023-10-31T02:28:55.288Z,,0,2,,3294.3980000476877,response,ISIC_0011848.JPG,6,ISIC_1264950.JPG,ISIC_1264950.JPG,false,0,keypress(z),500,251311.5,251311.20000004768,247998.497,248008.30000007153,248016.802,251328.792,8,400,3,,ISIC_0011848.JPG
break,html.Screen,4_52_1,2023-10-31T02:28:55.289Z,,0,,,NaN,,,,,,false,,,,251312.60000002384,251312.30000007153,,251311.70000004768,,251328.792,8,400,,,
break_continue,html.Screen,4_52_2,2023-10-31T02:28:55.289Z,,0,,,NaN,,,,,,false,,,,251313,251313,,251312.80000007153,,251328.792,8,400,,,
sequence,flow.Sequence,4_52,2023-10-31T02:28:55.290Z,,0,,,3296.198000000004,completion,,,,,false,,,,251313.30000007153,251313,247998.497,248008.20000004768,248016.802,251328.792,8,400,,,
trial,html.Screen,4_53_0,2023-10-31T02:28:58.304Z,,0,2,,2998.2080000000133,response,ISIC_6023518.JPG,16,ISIC_0031438.JPG,ISIC_6023518.JPG,false,1,keypress(m),500,254327.30000007153,254327,251312.043,251313.39999997616,251328.792,254351.022,8,400,4,,ISIC_0031438.JPG
break,html.Screen,4_53_1,2023-10-31T02:28:58.305Z,,0,,,NaN,,,,,,false,,,,254328.30000007153,254328,,254327.5,,254351.022,8,400,,,
break_continue,html.Screen,4_53_2,2023-10-31T02:28:58.305Z,,0,,,NaN,,,,,,false,,,,254328.60000002384,254328.5,,254328.39999997616,,254351.022,8,400,,,
sequence,flow.Sequence,4_53,2023-10-31T02:28:58.305Z,,0,,,2999.7080000000133,completion,,,,,false,,,,254328.80000007153,254328.5,251312.043,251313.30000007153,251328.792,254351.022,8,400,,,
trial,html.Screen,4_54_0,2023-10-31T02:29:01.443Z,,0,2,,3115.2780000715284,response,ISIC_8048668.JPG,5,ISIC_0027088.JPG,ISIC_8048668.JPG,false,1,keypress(m),500,257466.5,257466.30000007153,254325.945,254328.89999997616,254351.022,257472.528,8,400,5,,ISIC_0027088.JPG
break,html.Screen,4_54_1,2023-10-31T02:29:01.444Z,,0,,,NaN,,,,,,false,,,,257467.30000007153,257467.10000002384,,257466.60000002384,,257472.528,8,400,,,
break_continue,html.Screen,4_54_2,2023-10-31T02:29:01.444Z,,0,,,NaN,,,,,,false,,,,257467.70000004768,257467.60000002384,,257467.5,,257472.528,8,400,,,
sequence,flow.Sequence,4_54,2023-10-31T02:29:01.444Z,,0,,,3116.5780000238447,completion,,,,,false,,,,257467.80000007153,257467.60000002384,254325.945,254328.89999997616,254351.022,257472.528,8,400,,,
trial,html.Screen,4_55_0,2023-10-31T02:29:05.205Z,,0,2,,3756.371999976167,response,ISIC_0011286.JPG,13,ISIC_0071050.JPG,ISIC_0011286.JPG,false,1,keypress(m),500,261229.20000004768,261228.89999997616,257455.819,257468,257472.528,261252.126,8,400,6,,ISIC_0071050.JPG
break,html.Screen,4_55_1,2023-10-31T02:29:05.207Z,,0,,,NaN,,,,,,false,,,,261230.30000007153,261230,,261229.5,,261252.126,8,400,,,
break_continue,html.Screen,4_55_2,2023-10-31T02:29:05.207Z,,0,,,NaN,,,,,,false,,,,261230.80000007153,261230.60000002384,,261230.39999997616,,261252.126,8,400,,,
sequence,flow.Sequence,4_55,2023-10-31T02:29:05.207Z,,0,,,3758.0720000238507,completion,,,,,false,,,,261230.89999997616,261230.60000002384,257455.819,257467.89999997616,257472.528,261252.126,8,400,,,
trial,html.Screen,4_56_0,2023-10-31T02:29:08.048Z,,0,2,,2818.5740000476944,response,ISIC_7702483.JPG,13,ISIC_3979323.JPG,ISIC_7702483.JPG,false,1,keypress(m),500,264071.2000000477,264070.7000000477,261235.471,261231.10000002384,261252.126,264082.701,8,400,7,,ISIC_3979323.JPG
break,html.Screen,4_56_1,2023-10-31T02:29:08.049Z,,0,,,NaN,,,,,,false,,,,264073.10000002384,264072.7000000477,,264071.5,,264082.701,8,400,,,
break_continue,html.Screen,4_56_2,2023-10-31T02:29:08.050Z,,0,,,NaN,,,,,,false,,,,264073.7000000477,264073.5,,264073.3000000715,,264082.701,8,400,,,
sequence,flow.Sequence,4_56,2023-10-31T02:29:08.050Z,,0,,,2821.3740000000107,completion,,,,,false,,,,264073.8000000715,264073.5,261235.471,261231,261252.126,264082.701,8,400,,,
trial,html.Screen,4_57_0,2023-10-31T02:29:11.398Z,,0,2,,3338.399000023841,response,ISIC_1937955.JPG,7,ISIC_7353400.JPG,ISIC_1937955.JPG,false,1,keypress(m),500,267421.39999997616,267421.10000002384,264066.365,264074.10000002384,264082.701,267449.199,8,400,8,,ISIC_7353400.JPG
break,html.Screen,4_57_1,2023-10-31T02:29:11.399Z,,0,,,NaN,,,,,,false,,,,267422.39999997616,267422.2000000477,,267421.60000002384,,267449.199,8,400,,,
break_continue,html.Screen,4_57_2,2023-10-31T02:29:11.399Z,,0,,,NaN,,,,,,false,,,,267422.8000000715,267422.7000000477,,267422.5,,267449.199,8,400,,,
sequence,flow.Sequence,4_57,2023-10-31T02:29:11.399Z,,0,,,3339.999000047683,completion,,,,,false,,,,267423,267422.7000000477,264066.365,264074,264082.701,267449.199,8,400,,,
trial,html.Screen,4_58_0,2023-10-31T02:29:14.305Z,,0,2,,2878.700999976136,response,ISIC_0064784.JPG,9,ISIC_7942881.JPG,ISIC_7942881.JPG,false,0,keypress(z),500,270328.2000000477,270327.89999997616,267429.516,267423.10000002384,267449.199,270344.14,8,400,9,,ISIC_0064784.JPG
break,html.Screen,4_58_1,2023-10-31T02:29:14.306Z,,0,,,NaN,,,,,,false,,,,270329.3000000715,270329,,270328.5,,270344.14,8,400,,,
break_continue,html.Screen,4_58_2,2023-10-31T02:29:14.306Z,,0,,,NaN,,,,,,false,,,,270329.60000002384,270329.60000002384,,270329.39999997616,,270344.14,8,400,,,
sequence,flow.Sequence,4_58,2023-10-31T02:29:14.306Z,,0,,,2880.4010000238195,completion,,,,,false,,,,270329.8000000715,270329.60000002384,267429.516,267423.10000002384,267449.199,270344.14,8,400,,,
trial,html.Screen,4_59_0,2023-10-31T02:29:17.369Z,,0,2,,3048.0600000476697,response,ISIC_9232153.JPG,10,ISIC_3601224.JPG,ISIC_9232153.JPG,false,1,keypress(m),500,273392.39999997616,273392.2000000477,270326.831,270329.89999997616,270344.14,273407.054,8,400,10,,ISIC_3601224.JPG
break,html.Screen,4_59_1,2023-10-31T02:29:17.370Z,,0,,,NaN,,,,,,false,,,,273393.8000000715,273393.3000000715,,273392.7000000477,,273407.054,8,400,,,
break_continue,html.Screen,4_59_2,2023-10-31T02:29:17.371Z,,0,,,NaN,,,,,,false,,,,273394.39999997616,273394.3000000715,,273393.89999997616,,273407.054,8,400,,,
sequence,flow.Sequence,4_59,2023-10-31T02:29:17.371Z,,0,,,3050.1600000715116,completion,,,,,false,,,,273394.60000002384,273394.3000000715,270326.831,270329.89999997616,270344.14,273407.054,8,400,,,
trial,html.Screen,4_60_0,2023-10-31T02:29:20.195Z,,0,2,,2811.4459999999963,response,ISIC_2945891.JPG,7,ISIC_0065774.JPG,ISIC_2945891.JPG,false,1,keypress(m),500,276218.8000000715,276218.5,273390.288,273394.89999997616,273407.054,276220.787,8,400,11,,ISIC_0065774.JPG
break,html.Screen,4_60_1,2023-10-31T02:29:20.196Z,,0,,,NaN,,,,,,false,,,,276220.10000002384,276219.7000000477,,276219,,276220.787,8,400,,,
break_continue,html.Screen,4_60_2,2023-10-31T02:29:20.197Z,,0,,,NaN,,,,,,false,,,,276220.60000002384,276220.5,,276220.2000000477,,276220.787,8,400,,,
sequence,flow.Sequence,4_60,2023-10-31T02:29:20.197Z,,0,,,2813.4459999999963,completion,,,,,false,,,,276220.8000000715,276220.5,273390.288,273394.8000000715,273407.054,276220.787,8,400,,,
trial,html.Screen,4_61_0,2023-10-31T02:29:23.197Z,,0,2,,2999.8130000238307,response,ISIC_7831274.JPG,7,ISIC_0026010.JPG,ISIC_7831274.JPG,false,1,keypress(m),500,279221,279220.60000002384,276204.291,276221,276220.787,279234.564,8,400,12,,ISIC_0026010.JPG
break,html.Screen,4_61_1,2023-10-31T02:29:23.198Z,,0,,,NaN,,,,,,false,,,,279222.10000002384,279221.8000000715,,279221.10000002384,,279234.564,8,400,,,
break_continue,html.Screen,4_61_2,2023-10-31T02:29:23.199Z,,0,,,NaN,,,,,,false,,,,279222.60000002384,279222.5,,279222.2000000477,,279234.564,8,400,,,
sequence,flow.Sequence,4_61,2023-10-31T02:29:23.199Z,,0,,,3001.712999999989,completion,,,,,false,,,,279222.8000000715,279222.5,276204.291,276221,276220.787,279234.564,8,400,,,
trial,html.Screen,4_62_0,2023-10-31T02:29:26.567Z,,0,2,,3355.935999999987,response,ISIC_2864893.JPG,5,ISIC_8692006.JPG,ISIC_8692006.JPG,false,0,keypress(z),500,282590.60000002384,282590.5,279217.835,279222.89999997616,279234.564,282597.864,8,400,13,,ISIC_2864893.JPG
break,html.Screen,4_62_1,2023-10-31T02:29:26.568Z,,0,,,NaN,,,,,,false,,,,282591.60000002384,282591.5,,282590.7000000477,,282597.864,8,400,,,
break_continue,html.Screen,4_62_2,2023-10-31T02:29:26.568Z,,0,,,NaN,,,,,,false,,,,282592.2000000477,282592,,282591.8000000715,,282597.864,8,400,,,
sequence,flow.Sequence,4_62,2023-10-31T02:29:26.569Z,,0,,,3357.435999999987,completion,,,,,false,,,,282592.3000000715,282592,279217.835,279222.89999997616,279234.564,282597.864,8,400,,,
trial,html.Screen,4_63_0,2023-10-31T02:29:29.356Z,,0,2,,2781.8360000476823,response,ISIC_5482426.JPG,32,ISIC_2924968.JPG,ISIC_5482426.JPG,false,1,keypress(m),500,285379.89999997616,285379.7000000477,282581.215,282592.7000000477,282597.864,285395.193,8,400,14,,ISIC_2924968.JPG
break,html.Screen,4_63_1,2023-10-31T02:29:29.357Z,,0,,,NaN,,,,,,false,,,,285380.89999997616,285380.60000002384,,285380,,285395.193,8,400,,,
break_continue,html.Screen,4_63_2,2023-10-31T02:29:29.358Z,,0,,,NaN,,,,,,false,,,,285381.2000000477,285381.10000002384,,285380.89999997616,,285395.193,8,400,,,
sequence,flow.Sequence,4_63,2023-10-31T02:29:29.358Z,,0,,,2783.2360000238405,completion,,,,,false,,,,285381.39999997616,285381.10000002384,282581.215,282592.5,282597.864,285395.193,8,400,,,
trial,html.Screen,4_64_0,2023-10-31T02:29:32.164Z,,0,2,,2791.8069999999716,response,ISIC_4107717.JPG,7,ISIC_0025796.JPG,ISIC_4107717.JPG,false,1,keypress(m),500,288187.3000000715,288187,285378.511,285381.39999997616,285395.193,288192.517,8,400,15,,ISIC_0025796.JPG
break,html.Screen,4_64_1,2023-10-31T02:29:32.164Z,,0,,,NaN,,,,,,false,,,,288188.2000000477,288187.89999997616,,288187.5,,288192.517,8,400,,,
break_continue,html.Screen,4_64_2,2023-10-31T02:29:32.165Z,,0,,,NaN,,,,,,false,,,,288188.60000002384,288188.5,,288188.3000000715,,288192.517,8,400,,,
sequence,flow.Sequence,4_64,2023-10-31T02:29:32.165Z,,0,,,2793.3069999999716,completion,,,,,false,,,,288188.7000000477,288188.5,285378.511,285381.39999997616,285395.193,288192.517,8,400,,,
trial,html.Screen,4_65_0,2023-10-31T02:29:35.003Z,,0,2,,2834.283000071533,response,ISIC_0063988.JPG,9,ISIC_5026709.JPG,ISIC_5026709.JPG,false,0,keypress(z),500,291027,291026.8000000715,288175.897,288188.89999997616,288192.517,291039.63,8,400,16,,ISIC_0063988.JPG
break,html.Screen,4_65_1,2023-10-31T02:29:35.004Z,,0,,,NaN,,,,,,false,,,,291027.89999997616,291027.7000000477,,291027.10000002384,,291039.63,8,400,,,
break_continue,html.Screen,4_65_2,2023-10-31T02:29:35.005Z,,0,,,NaN,,,,,,false,,,,291028.3000000715,291028.2000000477,,291028,,291039.63,8,400,,,
sequence,flow.Sequence,4_65,2023-10-31T02:29:35.005Z,,0,,,2835.683000047691,completion,,,,,false,,,,291028.39999997616,291028.2000000477,288175.897,288188.89999997616,288192.517,291039.63,8,400,,,
trial,html.Screen,4_66_0,2023-10-31T02:29:37.952Z,,0,2,,2935.7699999761535,response,ISIC_6443984.JPG,8,ISIC_0059948.JPG,ISIC_6443984.JPG,false,1,keypress(m),500,293975.60000002384,293975.39999997616,291023.154,291028.7000000477,291039.63,293986.734,8,400,17,,ISIC_0059948.JPG
break,html.Screen,4_66_1,2023-10-31T02:29:37.953Z,,0,,,NaN,,,,,,false,,,,293976.60000002384,293976.3000000715,,293975.7000000477,,293986.734,8,400,,,
break_continue,html.Screen,4_66_2,2023-10-31T02:29:37.953Z,,0,,,NaN,,,,,,false,,,,293977,293976.8000000715,,293976.7000000477,,293986.734,8,400,,,
sequence,flow.Sequence,4_66,2023-10-31T02:29:37.953Z,,0,,,2937.170000071521,completion,,,,,false,,,,293977.10000002384,293976.8000000715,291023.154,291028.60000002384,291039.63,293986.734,8,400,,,
trial,html.Screen,4_67_0,2023-10-31T02:29:44.264Z,,0,2,,6300.466000047687,response,ISIC_0067697.JPG,9,ISIC_6912233.JPG,ISIC_6912233.JPG,false,0,keypress(z),500,300287.5,300287.2000000477,293970.128,293977.2000000477,293986.734,300297.182,8,400,18,,ISIC_0067697.JPG
break,html.Screen,4_67_1,2023-10-31T02:29:44.265Z,,0,,,NaN,,,,,,false,,,,300288.5,300288.2000000477,,300287.60000002384,,300297.182,8,400,,,
break_continue,html.Screen,4_67_2,2023-10-31T02:29:44.265Z,,0,,,NaN,,,,,,false,,,,300288.89999997616,300288.8000000715,,300288.60000002384,,300297.182,8,400,,,
sequence,flow.Sequence,4_67,2023-10-31T02:29:44.265Z,,0,,,6302.066000071529,completion,,,,,false,,,,300289.10000002384,300288.8000000715,293970.128,293977.2000000477,293986.734,300297.182,8,400,,,
trial,html.Screen,4_68_0,2023-10-31T02:29:47.038Z,,0,2,,2764.3180000000284,response,ISIC_0013580.JPG,5,ISIC_6310591.JPG,ISIC_0013580.JPG,false,1,keypress(m),500,303061.7000000477,303061.5,300280.582,300289.3000000715,300297.182,303077.918,8,400,19,,ISIC_6310591.JPG
break,html.Screen,4_68_1,2023-10-31T02:29:47.040Z,,0,,,NaN,,,,,,false,,,,303063.8000000715,303063.5,,303061.89999997616,,303077.918,8,400,,,
break_continue,html.Screen,4_68_2,2023-10-31T02:29:47.041Z,,0,,,NaN,,,,,,false,,,,303064.3000000715,303064.2000000477,,303064,,303077.918,8,400,,,
sequence,flow.Sequence,4_68,2023-10-31T02:29:47.041Z,,0,,,2767.018000047712,completion,,,,,false,,,,303064.39999997616,303064.2000000477,300280.582,300289.2000000477,300297.182,303077.918,8,400,,,
trial,html.Screen,4_69_0,2023-10-31T02:29:49.703Z,,0,2,,2648.3820000715205,response,ISIC_0214186.JPG,6,ISIC_4540332.JPG,ISIC_0214186.JPG,false,1,keypress(m),500,305726.60000002384,305726.3000000715,303061.146,303064.5,303077.918,305741.876,8,400,20,,ISIC_4540332.JPG
break,html.Screen,4_69_1,2023-10-31T02:29:49.704Z,,0,,,NaN,,,,,,false,,,,305727.89999997616,305727.60000002384,,305726.8000000715,,305741.876,8,400,,,
break_continue,html.Screen,4_69_2,2023-10-31T02:29:49.705Z,,0,,,NaN,,,,,,false,,,,305728.39999997616,305728.3000000715,,305728.10000002384,,305741.876,8,400,,,
sequence,flow.Sequence,4_69,2023-10-31T02:29:49.705Z,,0,,,2650.3820000715205,completion,,,,,false,,,,305728.60000002384,305728.3000000715,303061.146,303064.5,303077.918,305741.876,8,400,,,
trial,html.Screen,4_70_0,2023-10-31T02:29:52.798Z,,0,2,,3079.4240000715363,response,ISIC_3045939.JPG,9,ISIC_9542544.JPG,ISIC_3045939.JPG,false,1,keypress(m),500,308821.39999997616,308821.3000000715,305725.417,305729.3000000715,305741.876,308855.52,8,400,21,,ISIC_9542544.JPG
break,html.Screen,4_70_1,2023-10-31T02:29:52.799Z,,0,,,NaN,,,,,,false,,,,308822.5,308822.3000000715,,308821.60000002384,,308855.52,8,400,,,
break_continue,html.Screen,4_70_2,2023-10-31T02:29:52.799Z,,0,,,NaN,,,,,,false,,,,308822.8000000715,308822.8000000715,,308822.60000002384,,308855.52,8,400,,,
sequence,flow.Sequence,4_70,2023-10-31T02:29:52.799Z,,0,,,3080.9240000715363,completion,,,,,false,,,,308823,308822.8000000715,305725.417,305729.2000000477,305741.876,308855.52,8,400,,,
trial,html.Screen,4_71_0,2023-10-31T02:29:55.558Z,,0,2,,2725.780000071507,response,ISIC_0448485.JPG,13,ISIC_5008399.JPG,ISIC_0448485.JPG,false,1,keypress(m),500,311581.5,311581.3000000715,308838.89,308823.2000000477,308855.52,311586.142,8,400,22,,ISIC_5008399.JPG
break,html.Screen,4_71_1,2023-10-31T02:29:55.559Z,,0,,,NaN,,,,,,false,,,,311582.7000000477,311582.39999997616,,311581.60000002384,,311586.142,8,400,,,
break_continue,html.Screen,4_71_2,2023-10-31T02:29:55.560Z,,0,,,NaN,,,,,,false,,,,311583.2000000477,311583.10000002384,,311582.8000000715,,311586.142,8,400,,,
sequence,flow.Sequence,4_71,2023-10-31T02:29:55.560Z,,0,,,2727.5800000238232,completion,,,,,false,,,,311583.39999997616,311583.10000002384,308838.89,308823.10000002384,308855.52,311586.142,8,400,,,
trial,html.Screen,4_72_0,2023-10-31T02:29:58.796Z,,0,2,,3233.558000047691,response,ISIC_5400609.JPG,11,ISIC_0065022.JPG,ISIC_0065022.JPG,false,0,keypress(z),500,314819.89999997616,314819.7000000477,311569.506,311583.60000002384,311586.142,314833.059,8,400,23,,ISIC_5400609.JPG
break,html.Screen,4_72_1,2023-10-31T02:29:58.797Z,,0,,,NaN,,,,,,false,,,,314821,314820.8000000715,,314820,,314833.059,8,400,,,
break_continue,html.Screen,4_72_2,2023-10-31T02:29:58.798Z,,0,,,NaN,,,,,,false,,,,314821.39999997616,314821.2000000477,,314821.10000002384,,314833.059,8,400,,,
sequence,flow.Sequence,4_72,2023-10-31T02:29:58.798Z,,0,,,3235.058000047691,completion,,,,,false,,,,314821.5,314821.2000000477,311569.506,311583.60000002384,311586.142,314833.059,8,400,,,
trial,html.Screen,4_73_0,2023-10-31T02:30:01.750Z,,0,2,,2940.241000071517,response,ISIC_0054248.JPG,9,ISIC_7330564.JPG,ISIC_7330564.JPG,false,0,keypress(z),500,317773.39999997616,317773.3000000715,314816.297,314821.7000000477,314833.059,317780.074,8,400,24,,ISIC_0054248.JPG
break,html.Screen,4_73_1,2023-10-31T02:30:01.751Z,,0,,,NaN,,,,,,false,,,,317774.5,317774.3000000715,,317773.60000002384,,317780.074,8,400,,,
break_continue,html.Screen,4_73_2,2023-10-31T02:30:01.751Z,,0,,,NaN,,,,,,false,,,,317774.89999997616,317774.8000000715,,317774.60000002384,,317780.074,8,400,,,
sequence,flow.Sequence,4_73,2023-10-31T02:30:01.751Z,,0,,,2941.741000071517,completion,,,,,false,,,,317775,317774.8000000715,314816.297,314821.60000002384,314833.059,317780.074,8,400,,,
trial,html.Screen,4_74_0,2023-10-31T02:30:05.741Z,,0,2,,3984.325999976136,response,ISIC_8043299.JPG,12,ISIC_0064113.JPG,ISIC_0064113.JPG,false,0,keypress(z),500,321764.60000002384,321764.39999997616,317763.447,317775.3000000715,317780.074,321776.259,8,400,25,,ISIC_8043299.JPG
break,html.Screen,4_74_1,2023-10-31T02:30:05.742Z,,0,,,NaN,,,,,,false,,,,321765.89999997616,321765.60000002384,,321764.8000000715,,321776.259,8,400,,,
break_continue,html.Screen,4_74_2,2023-10-31T02:30:05.743Z,,0,,,NaN,,,,,,false,,,,321766.5,321766.3000000715,,321766.10000002384,,321776.259,8,400,,,
sequence,flow.Sequence,4_74,2023-10-31T02:30:05.743Z,,0,,,3986.226000071503,completion,,,,,false,,,,321766.60000002384,321766.3000000715,317763.447,317775,317780.074,321776.259,8,400,,,
trial,html.Screen,4_75_0,2023-10-31T02:30:09.812Z,,0,2,,4059.140999976138,response,ISIC_9011718.JPG,7,ISIC_0009735.JPG,ISIC_9011718.JPG,false,1,keypress(m),500,325835.60000002384,325835.39999997616,321759.512,321766.89999997616,321776.259,325838.856,8,400,26,,ISIC_0009735.JPG
break,html.Screen,4_75_1,2023-10-31T02:30:09.813Z,,0,,,NaN,,,,,,false,,,,325837,325836.60000002384,,325835.8000000715,,325838.856,8,400,,,
break_continue,html.Screen,4_75_2,2023-10-31T02:30:09.814Z,,0,,,NaN,,,,,,false,,,,325837.8000000715,325837.60000002384,,325837.10000002384,,325838.856,8,400,,,
sequence,flow.Sequence,4_75,2023-10-31T02:30:09.814Z,,0,,,4061.341000023822,completion,,,,,false,,,,325838.10000002384,325837.60000002384,321759.512,321766.8000000715,321776.259,325838.856,8,400,,,
trial,html.Screen,4_76_0,2023-10-31T02:30:15.232Z,,0,2,,5416.744000023813,response,ISIC_7357474.JPG,10,ISIC_4136663.JPG,ISIC_7357474.JPG,false,1,keypress(m),500,331255.7000000477,331255.60000002384,325822.264,325838.39999997616,325838.856,331266.866,8,400,27,,ISIC_4136663.JPG
break,html.Screen,4_76_1,2023-10-31T02:30:15.233Z,,0,,,NaN,,,,,,false,,,,331256.89999997616,331256.7000000477,,331255.89999997616,,331266.866,8,400,,,
break_continue,html.Screen,4_76_2,2023-10-31T02:30:15.234Z,,0,,,NaN,,,,,,false,,,,331257.3000000715,331257.2000000477,,331257.10000002384,,331266.866,8,400,,,
sequence,flow.Sequence,4_76,2023-10-31T02:30:15.234Z,,0,,,5418.344000047655,completion,,,,,false,,,,331257.39999997616,331257.2000000477,325822.264,325838.39999997616,325838.856,331266.866,8,400,,,
trial,html.Screen,4_77_0,2023-10-31T02:30:18.103Z,,0,2,,2859.4340000715456,response,ISIC_8048668.JPG,10,ISIC_5611515.JPG,ISIC_8048668.JPG,false,1,keypress(m),500,334126.60000002384,334126.3000000715,331250.476,331257.5,331266.866,334130.75,8,400,28,,ISIC_5611515.JPG
break,html.Screen,4_77_1,2023-10-31T02:30:18.104Z,,0,,,NaN,,,,,,false,,,,334128.10000002384,334127.60000002384,,334126.89999997616,,334130.75,8,400,,,
break_continue,html.Screen,4_77_2,2023-10-31T02:30:18.105Z,,0,,,NaN,,,,,,false,,,,334128.60000002384,334128.39999997616,,334128.2000000477,,334130.75,8,400,,,
sequence,flow.Sequence,4_77,2023-10-31T02:30:18.105Z,,0,,,2861.533999976178,completion,,,,,false,,,,334128.7000000477,334128.39999997616,331250.476,331257.5,331266.866,334130.75,8,400,,,
trial,html.Screen,4_78_0,2023-10-31T02:30:21.263Z,,0,2,,3155.850000023842,response,ISIC_0033524.JPG,8,ISIC_1264725.JPG,ISIC_0033524.JPG,false,1,keypress(m),500,337287,337286.60000002384,334114.343,334129,334130.75,337294.395,8,400,29,,ISIC_1264725.JPG
break,html.Screen,4_78_1,2023-10-31T02:30:21.265Z,,0,,,NaN,,,,,,false,,,,337289,337288.60000002384,,337287.3000000715,,337294.395,8,400,,,
break_continue,html.Screen,4_78_2,2023-10-31T02:30:21.266Z,,0,,,NaN,,,,,,false,,,,337289.8000000715,337289.60000002384,,337289.3000000715,,337294.395,8,400,,,
sequence,flow.Sequence,4_78,2023-10-31T02:30:21.266Z,,0,,,3158.850000023842,completion,,,,,false,,,,337290,337289.60000002384,334114.343,334129,334130.75,337294.395,8,400,,,
trial,html.Screen,4_79_0,2023-10-31T02:30:25.293Z,,0,2,,4022.2050000238232,response,ISIC_5278307.JPG,10,ISIC_1783062.JPG,ISIC_1783062.JPG,false,0,keypress(z),500,341317.10000002384,341316.60000002384,337287.087,337290.3000000715,337294.395,341323.686,8,400,30,,ISIC_5278307.JPG
break,html.Screen,4_79_1,2023-10-31T02:30:25.295Z,,0,,,NaN,,,,,,false,,,,341318.8000000715,341318.5,,341317.3000000715,,341323.686,8,400,,,
break_continue,html.Screen,4_79_2,2023-10-31T02:30:25.296Z,,0,,,NaN,,,,,,false,,,,341319.2000000477,341319.10000002384,,341318.89999997616,,341323.686,8,400,,,
sequence,flow.Sequence,4_79,2023-10-31T02:30:25.296Z,,0,,,4024.7050000238232,completion,,,,,false,,,,341319.5,341319.10000002384,337287.087,337290.10000002384,337294.395,341323.686,8,400,,,
trial,html.Screen,4_80_0,2023-10-31T02:30:28.642Z,,0,2,,3342.0140000476968,response,ISIC_0026921.JPG,9,ISIC_3671963.JPG,ISIC_3671963.JPG,false,0,keypress(z),500,344666,344665.7000000477,341307.268,341319.60000002384,341323.686,344670.433,8,400,31,,ISIC_0026921.JPG
break,html.Screen,4_80_1,2023-10-31T02:30:28.644Z,,0,,,NaN,,,,,,false,,,,344667.89999997616,344667.7000000477,,344666.3000000715,,344670.433,8,400,,,
break_continue,html.Screen,4_80_2,2023-10-31T02:30:28.645Z,,0,,,NaN,,,,,,false,,,,344668.5,344668.39999997616,,344668.10000002384,,344670.433,8,400,,,
sequence,flow.Sequence,4_80,2023-10-31T02:30:28.645Z,,0,,,3344.713999976171,completion,,,,,false,,,,344668.7000000477,344668.39999997616,341307.268,341319.60000002384,341323.686,344670.433,8,400,,,
trial,html.Screen,4_81_0,2023-10-31T02:30:31.676Z,,0,2,,3029.3670000715065,response,ISIC_2232442.JPG,6,ISIC_0031463.JPG,ISIC_2232442.JPG,false,1,keypress(m),500,347700,347699.8000000715,344654.406,344668.89999997616,344670.433,347717.495,8,400,32,,ISIC_0031463.JPG
break,html.Screen,4_81_1,2023-10-31T02:30:31.678Z,,0,,,NaN,,,,,,false,,,,347701.2000000477,347700.89999997616,,347700.2000000477,,347717.495,8,400,,,
break_continue,html.Screen,4_81_2,2023-10-31T02:30:31.678Z,,0,,,NaN,,,,,,false,,,,347701.60000002384,347701.60000002384,,347701.39999997616,,347717.495,8,400,,,
sequence,flow.Sequence,4_81,2023-10-31T02:30:31.678Z,,0,,,3031.1670000238228,completion,,,,,false,,,,347701.8000000715,347701.60000002384,344654.406,344668.8000000715,344670.433,347717.495,8,400,,,
trial,html.Screen,4_82_0,2023-10-31T02:30:35.122Z,,0,2,,3428.3050000715302,response,ISIC_0014703.JPG,16,ISIC_0030003.JPG,ISIC_0014703.JPG,false,1,keypress(m),500,351146,351145.8000000715,347684.708,347701.89999997616,347717.495,351164.419,8,400,33,,ISIC_0030003.JPG
break,html.Screen,4_82_1,2023-10-31T02:30:35.123Z,,0,,,NaN,,,,,,false,,,,351147,351146.8000000715,,351146.2000000477,,351164.419,8,400,,,
break_continue,html.Screen,4_82_2,2023-10-31T02:30:35.124Z,,0,,,NaN,,,,,,false,,,,351147.39999997616,351147.3000000715,,351147.10000002384,,351164.419,8,400,,,
sequence,flow.Sequence,4_82,2023-10-31T02:30:35.124Z,,0,,,3429.8050000715302,completion,,,,,false,,,,351147.60000002384,351147.3000000715,347684.708,347701.89999997616,347717.495,351164.419,8,400,,,
trial,html.Screen,4_83_0,2023-10-31T02:30:38.146Z,,0,2,,3005.2810000476893,response,ISIC_0002119.JPG,5,ISIC_3825641.JPG,ISIC_0002119.JPG,false,1,keypress(m),500,354170,354169.7000000477,351147.605,351147.60000002384,351164.419,354178.129,8,400,34,,ISIC_3825641.JPG
break,html.Screen,4_83_1,2023-10-31T02:30:38.147Z,,0,,,NaN,,,,,,false,,,,354171,354170.8000000715,,354170.10000002384,,354178.129,8,400,,,
break_continue,html.Screen,4_83_2,2023-10-31T02:30:38.148Z,,0,,,NaN,,,,,,false,,,,354171.5,354171.3000000715,,354171.10000002384,,354178.129,8,400,,,
sequence,flow.Sequence,4_83,2023-10-31T02:30:38.148Z,,0,,,3006.881000071531,completion,,,,,false,,,,354171.5,354171.3000000715,351147.605,351147.60000002384,351164.419,354178.129,8,400,,,
trial,html.Screen,4_84_0,2023-10-31T02:30:41.273Z,,0,2,,3118.5710000476683,response,ISIC_5307210.JPG,28,ISIC_4296456.JPG,ISIC_5307210.JPG,false,1,keypress(m),500,357296.89999997616,357296.7000000477,354161.364,354171.7000000477,354178.129,357308.062,8,400,35,,ISIC_4296456.JPG
break,html.Screen,4_84_1,2023-10-31T02:30:41.275Z,,0,,,NaN,,,,,,false,,,,357298.3000000715,357298,,357297.2000000477,,357308.062,8,400,,,
break_continue,html.Screen,4_84_2,2023-10-31T02:30:41.275Z,,0,,,NaN,,,,,,false,,,,357298.7000000477,357298.60000002384,,357298.39999997616,,357308.062,8,400,,,
sequence,flow.Sequence,4_84,2023-10-31T02:30:41.275Z,,0,,,3120.4710000238265,completion,,,,,false,,,,357298.89999997616,357298.60000002384,354161.364,354171.7000000477,354178.129,357308.062,8,400,,,
trial,html.Screen,4_85_0,2023-10-31T02:30:45.713Z,,0,2,,4428.038000023866,response,ISIC_0674746.JPG,11,ISIC_8468512.JPG,ISIC_8468512.JPG,false,0,keypress(z),500,361736.5,361736.10000002384,357291.507,357299,357308.062,361753.831,8,400,36,,ISIC_0674746.JPG
break,html.Screen,4_85_1,2023-10-31T02:30:45.714Z,,0,,,NaN,,,,,,false,,,,361738.10000002384,361737.7000000477,,361736.8000000715,,361753.831,8,400,,,
break_continue,html.Screen,4_85_2,2023-10-31T02:30:45.715Z,,0,,,NaN,,,,,,false,,,,361738.60000002384,361738.39999997616,,361738.2000000477,,361753.831,8,400,,,
sequence,flow.Sequence,4_85,2023-10-31T02:30:45.715Z,,0,,,4430.337999976182,completion,,,,,false,,,,361738.7000000477,361738.39999997616,357291.507,357298.89999997616,357308.062,361753.831,8,400,,,
trial,html.Screen,4_86_0,2023-10-31T02:30:49.741Z,,0,2,,4010.46900007152,response,ISIC_0070163.JPG,19,ISIC_7587513.JPG,ISIC_0070163.JPG,false,1,keypress(m),500,365764.60000002384,365764.3000000715,361737.219,361738.89999997616,361753.831,365788.936,8,400,37,,ISIC_7587513.JPG
break,html.Screen,4_86_1,2023-10-31T02:30:49.743Z,,0,,,NaN,,,,,,false,,,,365766.2000000477,365765.89999997616,,365764.89999997616,,365788.936,8,400,,,
break_continue,html.Screen,4_86_2,2023-10-31T02:30:49.743Z,,0,,,NaN,,,,,,false,,,,365766.7000000477,365766.60000002384,,365766.3000000715,,365788.936,8,400,,,
sequence,flow.Sequence,4_86,2023-10-31T02:30:49.743Z,,0,,,4012.7690000238363,completion,,,,,false,,,,365766.89999997616,365766.60000002384,361737.219,361738.89999997616,361753.831,365788.936,8,400,,,
trial,html.Screen,4_87_0,2023-10-31T02:30:52.647Z,,0,2,,2881.3640000715386,response,ISIC_0034164.JPG,12,ISIC_0064936.JPG,ISIC_0034164.JPG,false,1,keypress(m),500,368670.60000002384,368670.3000000715,365750.374,365767.10000002384,365788.936,368680.945,8,400,38,,ISIC_0064936.JPG
break,html.Screen,4_87_1,2023-10-31T02:30:52.648Z,,0,,,NaN,,,,,,false,,,,368671.7000000477,368671.5,,368670.89999997616,,368680.945,8,400,,,
break_continue,html.Screen,4_87_2,2023-10-31T02:30:52.649Z,,0,,,NaN,,,,,,false,,,,368672.2000000477,368672.10000002384,,368671.89999997616,,368680.945,8,400,,,
sequence,flow.Sequence,4_87,2023-10-31T02:30:52.649Z,,0,,,2883.164000023855,completion,,,,,false,,,,368672.3000000715,368672.10000002384,365750.374,365767,365788.936,368680.945,8,400,,,
trial,html.Screen,4_88_0,2023-10-31T02:30:55.567Z,,0,2,,2908.8550000715186,response,ISIC_0071931.JPG,11,ISIC_0060629.JPG,ISIC_0071931.JPG,false,1,keypress(m),500,371590,371589.8000000715,368664.142,368672.5,368680.945,371611.211,8,400,39,,ISIC_0060629.JPG
break,html.Screen,4_88_1,2023-10-31T02:30:55.568Z,,0,,,NaN,,,,,,false,,,,371591.2000000477,371591,,371590.3000000715,,371611.211,8,400,,,
break_continue,html.Screen,4_88_2,2023-10-31T02:30:55.568Z,,0,,,NaN,,,,,,false,,,,371591.60000002384,371591.5,,371591.39999997616,,371611.211,8,400,,,
sequence,flow.Sequence,4_88,2023-10-31T02:30:55.568Z,,0,,,2910.554999999993,completion,,,,,false,,,,371591.8000000715,371591.5,368664.142,368672.39999997616,368680.945,371611.211,8,400,,,
trial,html.Screen,4_89_0,2023-10-31T02:30:58.230Z,,0,2,,2641.9890000476735,response,ISIC_3654454.JPG,12,ISIC_7976934.JPG,ISIC_7976934.JPG,false,0,keypress(z),500,374253.5,374253.2000000477,371594.119,371591.89999997616,371611.211,374258.135,8,400,40,,ISIC_3654454.JPG
break,html.Screen,4_89_1,2023-10-31T02:30:58.232Z,,0,,,NaN,,,,,,false,,,,374255.10000002384,374254.8000000715,,374253.8000000715,,374258.135,8,400,,,
break_continue,html.Screen,4_89_2,2023-10-31T02:30:58.232Z,,0,,,NaN,,,,,,false,,,,374255.60000002384,374255.5,,374255.2000000477,,374258.135,8,400,,,
sequence,flow.Sequence,4_89,2023-10-31T02:30:58.232Z,,0,,,2644.2889999999898,completion,,,,,false,,,,374255.8000000715,374255.5,371594.119,371591.89999997616,371611.211,374258.135,8,400,,,
trial,html.Screen,4_90_0,2023-10-31T02:31:00.801Z,,0,2,,2566.3649999999907,response,ISIC_0640770.JPG,6,ISIC_0033051.JPG,ISIC_0640770.JPG,false,1,keypress(m),500,376824.89999997616,376824.5,374241.87,374255.8000000715,374258.135,376839.263,8,400,41,,ISIC_0033051.JPG
break,html.Screen,4_90_1,2023-10-31T02:31:00.803Z,,0,,,NaN,,,,,,false,,,,376826.3000000715,376826,,376825.10000002384,,376839.263,8,400,,,
break_continue,html.Screen,4_90_2,2023-10-31T02:31:00.803Z,,0,,,NaN,,,,,,false,,,,376826.8000000715,376826.7000000477,,376826.39999997616,,376839.263,8,400,,,
sequence,flow.Sequence,4_90,2023-10-31T02:31:00.804Z,,0,,,2568.5650000476744,completion,,,,,false,,,,376827.10000002384,376826.7000000477,374241.87,374255.8000000715,374258.135,376839.263,8,400,,,
trial,html.Screen,4_91_0,2023-10-31T02:31:03.416Z,,0,2,,2600.237000000023,response,ISIC_0070601.JPG,10,ISIC_0027056.JPG,ISIC_0027056.JPG,false,0,keypress(z),500,379439.8000000715,379439.5,376822.674,376827.2000000477,376839.263,379453.139,8,400,42,,ISIC_0070601.JPG
break,html.Screen,4_91_1,2023-10-31T02:31:03.417Z,,0,,,NaN,,,,,,false,,,,379440.8000000715,379440.60000002384,,379440,,379453.139,8,400,,,
break_continue,html.Screen,4_91_2,2023-10-31T02:31:03.418Z,,0,,,NaN,,,,,,false,,,,379441.2000000477,379441.10000002384,,379440.89999997616,,379453.139,8,400,,,
sequence,flow.Sequence,4_91,2023-10-31T02:31:03.418Z,,0,,,2601.8370000238647,completion,,,,,false,,,,379441.3000000715,379441.10000002384,376822.674,376827.10000002384,376839.263,379453.139,8,400,,,
trial,html.Screen,4_92_0,2023-10-31T02:31:05.954Z,,0,2,,2523.961000023817,response,ISIC_0056246.JPG,7,ISIC_0057089.JPG,ISIC_0057089.JPG,false,0,keypress(z),500,381977.3000000715,381977.10000002384,379438.684,379441.39999997616,379453.139,381984.089,8,400,43,,ISIC_0056246.JPG
break,html.Screen,4_92_1,2023-10-31T02:31:05.956Z,,0,,,NaN,,,,,,false,,,,381979.2000000477,381978.8000000715,,381977.60000002384,,381984.089,8,400,,,
break_continue,html.Screen,4_92_2,2023-10-31T02:31:05.956Z,,0,,,NaN,,,,,,false,,,,381979.7000000477,381979.5,,381979.3000000715,,381984.089,8,400,,,
sequence,flow.Sequence,4_92,2023-10-31T02:31:05.956Z,,0,,,2526.3609999999753,completion,,,,,false,,,,381979.8000000715,381979.5,379438.684,379441.3000000715,379453.139,381984.089,8,400,,,
trial,html.Screen,4_93_0,2023-10-31T02:31:09.195Z,,0,2,,3233.7110000715475,response,ISIC_0026518.JPG,5,ISIC_9874512.JPG,ISIC_0026518.JPG,false,1,keypress(m),500,385218.10000002384,385217.8000000715,381967.655,381979.89999997616,381984.089,385231.193,8,400,44,,ISIC_9874512.JPG
break,html.Screen,4_93_1,2023-10-31T02:31:09.196Z,,0,,,NaN,,,,,,false,,,,385220,385219.60000002384,,385218.39999997616,,385231.193,8,400,,,
break_continue,html.Screen,4_93_2,2023-10-31T02:31:09.197Z,,0,,,NaN,,,,,,false,,,,385220.5,385220.3000000715,,385220.10000002384,,385231.193,8,400,,,
sequence,flow.Sequence,4_93,2023-10-31T02:31:09.197Z,,0,,,3236.2110000715475,completion,,,,,false,,,,385220.7000000477,385220.3000000715,381967.655,381979.89999997616,381984.089,385231.193,8,400,,,
trial,html.Screen,4_94_0,2023-10-31T02:31:11.778Z,,0,2,,2569.9070000238135,response,ISIC_2449919.JPG,26,ISIC_0010081.JPG,ISIC_2449919.JPG,false,1,keypress(m),500,387801.39999997616,387801.10000002384,385207.614,385220.89999997616,385231.193,387812.938,8,400,45,,ISIC_0010081.JPG
break,html.Screen,4_94_1,2023-10-31T02:31:11.779Z,,0,,,NaN,,,,,,false,,,,387802.8000000715,387802.5,,387801.60000002384,,387812.938,8,400,,,
break_continue,html.Screen,4_94_2,2023-10-31T02:31:11.780Z,,0,,,NaN,,,,,,false,,,,387803.3000000715,387803.10000002384,,387803,,387812.938,8,400,,,
sequence,flow.Sequence,4_94,2023-10-31T02:31:11.780Z,,0,,,2571.9070000238135,completion,,,,,false,,,,387803.39999997616,387803.10000002384,385207.614,385220.8000000715,385231.193,387812.938,8,400,,,
trial,html.Screen,4_95_0,2023-10-31T02:31:14.570Z,,0,2,,2780.362000071502,response,ISIC_4634128.JPG,5,ISIC_5909403.JPG,ISIC_4634128.JPG,false,1,keypress(m),500,390593.60000002384,390593.3000000715,387795.274,387803.60000002384,387812.938,390609.107,8,400,46,,ISIC_5909403.JPG
break,html.Screen,4_95_1,2023-10-31T02:31:14.572Z,,0,,,NaN,,,,,,false,,,,390595.5,390595.2000000477,,390593.8000000715,,390609.107,8,400,,,
break_continue,html.Screen,4_95_2,2023-10-31T02:31:14.572Z,,0,,,NaN,,,,,,false,,,,390596.10000002384,390595.89999997616,,390595.7000000477,,390609.107,8,400,,,
sequence,flow.Sequence,4_95,2023-10-31T02:31:14.573Z,,0,,,2782.9619999761344,completion,,,,,false,,,,390596.10000002384,390595.89999997616,387795.274,387803.5,387812.938,390609.107,8,400,,,
trial,html.Screen,4_96_0,2023-10-31T02:31:17.120Z,,0,2,,2533.6930000715074,response,ISIC_0031611.JPG,8,ISIC_4834687.JPG,ISIC_4834687.JPG,false,0,keypress(z),500,393143.2000000477,393142.8000000715,390592.689,390596.39999997616,390609.107,393156.452,8,400,47,,ISIC_0031611.JPG
break,html.Screen,4_96_1,2023-10-31T02:31:17.122Z,,0,,,NaN,,,,,,false,,,,393145.3000000715,393144.89999997616,,393143.39999997616,,393156.452,8,400,,,
break_continue,html.Screen,4_96_2,2023-10-31T02:31:17.122Z,,0,,,NaN,,,,,,false,,,,393145.7000000477,393145.60000002384,,393145.39999997616,,393156.452,8,400,,,
sequence,flow.Sequence,4_96,2023-10-31T02:31:17.122Z,,0,,,2536.4930000238237,completion,,,,,false,,,,393146,393145.60000002384,390592.689,390596.3000000715,390609.107,393156.452,8,400,,,
trial,html.Screen,4_97_0,2023-10-31T02:31:19.686Z,,0,2,,2552.7480000476935,response,ISIC_0032112.JPG,5,ISIC_8195604.JPG,ISIC_8195604.JPG,false,0,keypress(z),500,395709.39999997616,395709.2000000477,393139.805,393146.10000002384,393156.452,395720.429,8,400,48,,ISIC_0032112.JPG
break,html.Screen,4_97_1,2023-10-31T02:31:19.687Z,,0,,,NaN,,,,,,false,,,,395711,395710.7000000477,,395709.8000000715,,395720.429,8,400,,,
break_continue,html.Screen,4_97_2,2023-10-31T02:31:19.688Z,,0,,,NaN,,,,,,false,,,,395711.5,395711.3000000715,,395711.10000002384,,395720.429,8,400,,,
sequence,flow.Sequence,4_97,2023-10-31T02:31:19.688Z,,0,,,2554.8480000715354,completion,,,,,false,,,,395711.60000002384,395711.3000000715,393139.805,393146.10000002384,393156.452,395720.429,8,400,,,
trial,html.Screen,4_98_0,2023-10-31T02:31:22.418Z,,0,2,,2720.77100004768,response,ISIC_2454898.JPG,12,ISIC_2518896.JPG,ISIC_2518896.JPG,false,0,keypress(z),500,398441.5,398441.2000000477,395703.759,395711.8000000715,395720.429,398451.171,8,400,49,,ISIC_2454898.JPG
break,html.Screen,4_98_1,2023-10-31T02:31:22.420Z,,0,,,NaN,,,,,,false,,,,398443.39999997616,398442.8000000715,,398441.8000000715,,398451.171,8,400,,,
break_continue,html.Screen,4_98_2,2023-10-31T02:31:22.420Z,,0,,,NaN,,,,,,false,,,,398443.89999997616,398443.8000000715,,398443.5,,398451.171,8,400,,,
sequence,flow.Sequence,4_98,2023-10-31T02:31:22.421Z,,0,,,2723.371000071522,completion,,,,,false,,,,398444.2000000477,398443.8000000715,395703.759,395711.8000000715,395720.429,398451.171,8,400,,,
trial,html.Screen,4_99_0,2023-10-31T02:31:25.483Z,,0,2,,3055.1290000715526,response,ISIC_7282415.JPG,13,ISIC_7972996.JPG,ISIC_7282415.JPG,false,1,keypress(m),500,401506.7000000477,401506.3000000715,398434.727,398444.3000000715,398451.171,401514.992,8,400,50,,ISIC_7972996.JPG
break,html.Screen,4_99_1,2023-10-31T02:31:35.487Z,,0,,,10006.717999999993,timeout,,,,,false,,,,411510.8000000715,411505.112,401498.396,401506.89999997616,401514.992,411521.71,8,400,,,
break_continue,html.Screen,4_99_2,2023-10-31T02:31:38.142Z,,0,,,2619.289999999979,response,,,,,false,continue,keypress(Space),,414166,414141,411505.112,411510.89999997616,411521.71,414186.001,8,400,,,
sequence,flow.Sequence,4_99,2023-10-31T02:31:38.145Z,,0,,,15689.829000000027,completion,,,,,false,,,,414168,414141,398434.727,398444.3000000715,398451.171,414186.001,8,400,,,
trial,html.Screen,4_100_0,2023-10-31T02:31:42.244Z,,0,3,,4081.398999976169,response,ISIC_0060897.JPG,8,ISIC_0758797.JPG,ISIC_0758797.JPG,false,0,keypress(z),500,418267.7000000477,418267.39999997616,414165.795,414168.3000000715,414186.001,418282.178,8,400,1,,ISIC_0060897.JPG
break,html.Screen,4_100_1,2023-10-31T02:31:42.246Z,,0,,,NaN,,,,,,false,,,,418269.2000000477,418268.89999997616,,418267.89999997616,,418282.178,8,400,,,
break_continue,html.Screen,4_100_2,2023-10-31T02:31:42.246Z,,0,,,NaN,,,,,,false,,,,418269.60000002384,418269.5,,418269.3000000715,,418282.178,8,400,,,
sequence,flow.Sequence,4_100,2023-10-31T02:31:42.246Z,,0,,,4083.4990000000107,completion,,,,,false,,,,418269.8000000715,418269.5,414165.795,414168.10000002384,414186.001,418282.178,8,400,,,
trial,html.Screen,4_101_0,2023-10-31T02:31:45.375Z,,0,3,,3115.9220000238274,response,ISIC_0002862.JPG,10,ISIC_0000176.JPG,ISIC_0002862.JPG,false,1,keypress(m),500,421398.39999997616,421398.10000002384,418265.264,418269.89999997616,418282.178,421412.316,8,400,2,,ISIC_0000176.JPG
break,html.Screen,4_101_1,2023-10-31T02:31:45.377Z,,0,,,NaN,,,,,,false,,,,421400.10000002384,421399.8000000715,,421398.7000000477,,421412.316,8,400,,,
break_continue,html.Screen,4_101_2,2023-10-31T02:31:45.377Z,,0,,,NaN,,,,,,false,,,,421400.5,421400.39999997616,,421400.3000000715,,421412.316,8,400,,,
sequence,flow.Sequence,4_101,2023-10-31T02:31:45.377Z,,0,,,3118.2219999761437,completion,,,,,false,,,,421400.8000000715,421400.39999997616,418265.264,418269.89999997616,418282.178,421412.316,8,400,,,
trial,html.Screen,4_102_0,2023-10-31T02:31:48.089Z,,0,3,,2700.0839999761665,response,ISIC_3249704.JPG,13,ISIC_0002901.JPG,ISIC_3249704.JPG,false,1,keypress(m),500,424112.8000000715,424112.39999997616,421395.639,421400.89999997616,421412.316,424126.196,8,400,3,,ISIC_0002901.JPG
break,html.Screen,4_102_1,2023-10-31T02:31:48.091Z,,0,,,NaN,,,,,,false,,,,424114.2000000477,424113.89999997616,,424113.10000002384,,424126.196,8,400,,,
break_continue,html.Screen,4_102_2,2023-10-31T02:31:48.091Z,,0,,,NaN,,,,,,false,,,,424114.7000000477,424114.5,,424114.3000000715,,424126.196,8,400,,,
sequence,flow.Sequence,4_102,2023-10-31T02:31:48.091Z,,0,,,2702.1840000000084,completion,,,,,false,,,,424114.8000000715,424114.5,421395.639,421400.89999997616,421412.316,424126.196,8,400,,,
trial,html.Screen,4_103_0,2023-10-31T02:31:50.721Z,,0,3,,2618.3040000000037,response,ISIC_0058508.JPG,5,ISIC_0025783.JPG,ISIC_0025783.JPG,false,0,keypress(z),500,426744.89999997616,426744.5,424109.733,424114.89999997616,424126.196,426756.69,8,400,4,,ISIC_0058508.JPG
break,html.Screen,4_103_1,2023-10-31T02:31:50.723Z,,0,,,NaN,,,,,,false,,,,426746.10000002384,426745.89999997616,,426745.10000002384,,426756.69,8,400,,,
break_continue,html.Screen,4_103_2,2023-10-31T02:31:50.723Z,,0,,,NaN,,,,,,false,,,,426746.60000002384,426746.5,,426746.3000000715,,426756.69,8,400,,,
sequence,flow.Sequence,4_103,2023-10-31T02:31:50.723Z,,0,,,2620.3040000000037,completion,,,,,false,,,,426746.8000000715,426746.5,424109.733,424114.89999997616,424126.196,426756.69,8,400,,,
trial,html.Screen,4_104_0,2023-10-31T02:31:53.162Z,,0,3,,2428.5100000476814,response,ISIC_0084086.JPG,7,ISIC_0055608.JPG,ISIC_0084086.JPG,false,1,keypress(m),500,429185.5,429185.2000000477,426739.493,426746.89999997616,426756.69,429188.066,8,400,5,,ISIC_0055608.JPG
break,html.Screen,4_104_1,2023-10-31T02:31:53.164Z,,0,,,NaN,,,,,,false,,,,429187,429186.8000000715,,429185.7000000477,,429188.066,8,400,,,
break_continue,html.Screen,4_104_2,2023-10-31T02:31:53.164Z,,0,,,NaN,,,,,,false,,,,429187.5,429187.39999997616,,429187.2000000477,,429188.066,8,400,,,
sequence,flow.Sequence,4_104,2023-10-31T02:31:53.164Z,,0,,,2430.709999976156,completion,,,,,false,,,,429187.7000000477,429187.39999997616,426739.493,426746.89999997616,426756.69,429188.066,8,400,,,
trial,html.Screen,4_105_0,2023-10-31T02:31:55.649Z,,0,3,,2483.9340000000084,response,ISIC_0011114.JPG,12,ISIC_0057244.JPG,ISIC_0011114.JPG,false,1,keypress(m),500,431672.39999997616,431672,429171.283,429188.2000000477,429188.066,431685.347,8,400,6,,ISIC_0057244.JPG
break,html.Screen,4_105_1,2023-10-31T02:31:55.650Z,,0,,,NaN,,,,,,false,,,,431673.60000002384,431673.39999997616,,431672.60000002384,,431685.347,8,400,,,
break_continue,html.Screen,4_105_2,2023-10-31T02:31:55.651Z,,0,,,NaN,,,,,,false,,,,431674.10000002384,431674,,431673.8000000715,,431685.347,8,400,,,
sequence,flow.Sequence,4_105,2023-10-31T02:31:55.651Z,,0,,,2485.9340000000084,completion,,,,,false,,,,431674.39999997616,431674,429171.283,429188.10000002384,429188.066,431685.347,8,400,,,
trial,html.Screen,4_106_0,2023-10-31T02:31:58.284Z,,0,3,,2622.152999999991,response,ISIC_3436033.JPG,9,ISIC_0034134.JPG,ISIC_3436033.JPG,false,1,keypress(m),500,434307.8000000715,434307.5,431669.02,431674.5,431685.347,434315.952,8,400,7,,ISIC_0034134.JPG
break,html.Screen,4_106_1,2023-10-31T02:31:58.285Z,,0,,,NaN,,,,,,false,,,,434308.89999997616,434308.60000002384,,434308,,434315.952,8,400,,,
break_continue,html.Screen,4_106_2,2023-10-31T02:31:58.286Z,,0,,,NaN,,,,,,false,,,,434309.3000000715,434309.2000000477,,434309,,434315.952,8,400,,,
sequence,flow.Sequence,4_106,2023-10-31T02:31:58.286Z,,0,,,2623.853000047675,completion,,,,,false,,,,434309.5,434309.2000000477,431669.02,431674.39999997616,431685.347,434315.952,8,400,,,
trial,html.Screen,4_107_0,2023-10-31T02:32:00.738Z,,0,3,,2445.04800000001,response,ISIC_0024401.JPG,6,ISIC_6174156.JPG,ISIC_6174156.JPG,false,0,keypress(z),500,436761.39999997616,436761,434299.361,434309.60000002384,434315.952,436780.491,8,400,8,,ISIC_0024401.JPG
break,html.Screen,4_107_1,2023-10-31T02:32:00.739Z,,0,,,NaN,,,,,,false,,,,436762.5,436762.2000000477,,436761.60000002384,,436780.491,8,400,,,
break_continue,html.Screen,4_107_2,2023-10-31T02:32:00.740Z,,0,,,NaN,,,,,,false,,,,436762.89999997616,436762.8000000715,,436762.60000002384,,436780.491,8,400,,,
sequence,flow.Sequence,4_107,2023-10-31T02:32:00.740Z,,0,,,2446.8480000715354,completion,,,,,false,,,,436763.10000002384,436762.8000000715,434299.361,434309.60000002384,434315.952,436780.491,8,400,,,
trial,html.Screen,4_108_0,2023-10-31T02:32:03.831Z,,0,3,,3073.50900000002,response,ISIC_4721599.JPG,10,ISIC_5751956.JPG,ISIC_4721599.JPG,false,1,keypress(m),500,439854.3000000715,439854,436765.651,436763.2000000477,436780.491,439860.978,8,400,9,,ISIC_5751956.JPG
break,html.Screen,4_108_1,2023-10-31T02:32:03.832Z,,0,,,NaN,,,,,,false,,,,439855.5,439855.3000000715,,439854.60000002384,,439860.978,8,400,,,
break_continue,html.Screen,4_108_2,2023-10-31T02:32:03.833Z,,0,,,NaN,,,,,,false,,,,439856,439855.8000000715,,439855.7000000477,,439860.978,8,400,,,
sequence,flow.Sequence,4_108,2023-10-31T02:32:03.833Z,,0,,,3075.3090000715456,completion,,,,,false,,,,439856.10000002384,439855.8000000715,436765.651,436763.10000002384,436780.491,439860.978,8,400,,,
trial,html.Screen,4_109_0,2023-10-31T02:32:06.382Z,,0,3,,2544.622000023839,response,ISIC_0177304.JPG,11,ISIC_4184050.JPG,ISIC_0177304.JPG,false,1,keypress(m),500,442405.8000000715,442405.60000002384,439843.986,439856.3000000715,439860.978,442408.288,8,400,10,,ISIC_4184050.JPG
break,html.Screen,4_109_1,2023-10-31T02:32:06.383Z,,0,,,NaN,,,,,,false,,,,442406.89999997616,442406.7000000477,,442406,,442408.288,8,400,,,
break_continue,html.Screen,4_109_2,2023-10-31T02:32:06.384Z,,0,,,NaN,,,,,,false,,,,442407.3000000715,442407.2000000477,,442407,,442408.288,8,400,,,
sequence,flow.Sequence,4_109,2023-10-31T02:32:06.384Z,,0,,,2546.222000047681,completion,,,,,false,,,,442407.39999997616,442407.2000000477,439843.986,439856.3000000715,439860.978,442408.288,8,400,,,
trial,html.Screen,4_110_0,2023-10-31T02:32:08.903Z,,0,3,,2517.8120000238414,response,ISIC_0034209.JPG,12,ISIC_0411688.JPG,ISIC_0411688.JPG,false,0,keypress(z),500,444926.39999997616,444926.10000002384,442393.846,442408,442408.288,444938.918,8,400,11,,ISIC_0034209.JPG
break,html.Screen,4_110_1,2023-10-31T02:32:08.904Z,,0,,,NaN,,,,,,false,,,,444927.60000002384,444927.39999997616,,444926.60000002384,,444938.918,8,400,,,
break_continue,html.Screen,4_110_2,2023-10-31T02:32:08.905Z,,0,,,NaN,,,,,,false,,,,444928.10000002384,444928,,444927.8000000715,,444938.918,8,400,,,
sequence,flow.Sequence,4_110,2023-10-31T02:32:08.905Z,,0,,,2519.7119999999995,completion,,,,,false,,,,444928.3000000715,444928,442393.846,442407.5,442408.288,444938.918,8,400,,,
trial,html.Screen,4_111_0,2023-10-31T02:32:11.563Z,,0,3,,2647.2820000476786,response,ISIC_0012810.JPG,11,ISIC_0001100.JPG,ISIC_0012810.JPG,false,1,keypress(m),500,447586.60000002384,447586.2000000477,444922.517,444928.39999997616,444938.918,447603.238,8,400,12,,ISIC_0001100.JPG
break,html.Screen,4_111_1,2023-10-31T02:32:11.564Z,,0,,,NaN,,,,,,false,,,,447587.8000000715,447587.60000002384,,447586.89999997616,,447603.238,8,400,,,
break_continue,html.Screen,4_111_2,2023-10-31T02:32:11.565Z,,0,,,NaN,,,,,,false,,,,447588.3000000715,447588.10000002384,,447587.89999997616,,447603.238,8,400,,,
sequence,flow.Sequence,4_111,2023-10-31T02:32:11.565Z,,0,,,2649.1820000238367,completion,,,,,false,,,,447588.5,447588.10000002384,444922.517,444928.39999997616,444938.918,447603.238,8,400,,,
trial,html.Screen,4_112_0,2023-10-31T02:32:14.144Z,,0,3,,2563.661999976146,response,ISIC_0025218.JPG,10,ISIC_4915897.JPG,ISIC_4915897.JPG,false,0,keypress(z),500,450167.2000000477,450166.89999997616,447586.451,447588.60000002384,447603.238,450184.022,8,400,13,,ISIC_0025218.JPG
break,html.Screen,4_112_1,2023-10-31T02:32:14.146Z,,0,,,NaN,,,,,,false,,,,450169,450168.7000000477,,450167.5,,450184.022,8,400,,,
break_continue,html.Screen,4_112_2,2023-10-31T02:32:14.146Z,,0,,,NaN,,,,,,false,,,,450169.60000002384,450169.5,,450169.2000000477,,450184.022,8,400,,,
sequence,flow.Sequence,4_112,2023-10-31T02:32:14.146Z,,0,,,2566.261999999988,completion,,,,,false,,,,450169.7000000477,450169.5,447586.451,447588.60000002384,447603.238,450184.022,8,400,,,
trial,html.Screen,4_113_0,2023-10-31T02:32:16.764Z,,0,3,,2603.1780000476865,response,ISIC_8127578.JPG,6,ISIC_9579506.JPG,ISIC_9579506.JPG,false,0,keypress(z),500,452787.7000000477,452787.2000000477,450167.437,450169.89999997616,450184.022,452797.885,8,400,14,,ISIC_8127578.JPG
break,html.Screen,4_113_1,2023-10-31T02:32:16.766Z,,0,,,NaN,,,,,,false,,,,452789.10000002384,452788.8000000715,,452787.89999997616,,452797.885,8,400,,,
break_continue,html.Screen,4_113_2,2023-10-31T02:32:16.766Z,,0,,,NaN,,,,,,false,,,,452789.8000000715,452789.60000002384,,452789.3000000715,,452797.885,8,400,,,
sequence,flow.Sequence,4_113,2023-10-31T02:32:16.767Z,,0,,,2605.5780000238447,completion,,,,,false,,,,452790,452789.60000002384,450167.437,450169.8000000715,450184.022,452797.885,8,400,,,
trial,html.Screen,4_114_0,2023-10-31T02:32:19.266Z,,0,3,,2490.8150000476744,response,ISIC_0033801.JPG,7,ISIC_0588855.JPG,ISIC_0588855.JPG,false,0,keypress(z),500,455288.89999997616,455288.7000000477,452781.41,452790.10000002384,452797.885,455295.79,8,400,15,,ISIC_0033801.JPG
break,html.Screen,4_114_1,2023-10-31T02:32:19.267Z,,0,,,NaN,,,,,,false,,,,455290,455289.8000000715,,455289.10000002384,,455295.79,8,400,,,
break_continue,html.Screen,4_114_2,2023-10-31T02:32:19.267Z,,0,,,NaN,,,,,,false,,,,455290.39999997616,455290.3000000715,,455290.10000002384,,455295.79,8,400,,,
sequence,flow.Sequence,4_114,2023-10-31T02:32:19.267Z,,0,,,2492.4150000715163,completion,,,,,false,,,,455290.60000002384,455290.3000000715,452781.41,452790.10000002384,452797.885,455295.79,8,400,,,
trial,html.Screen,4_115_0,2023-10-31T02:32:21.945Z,,0,3,,2672.210000000021,response,ISIC_0011587.JPG,10,ISIC_5409902.JPG,ISIC_5409902.JPG,false,0,keypress(z),500,457968.5,457968,455279.264,455290.7000000477,455295.79,457976.533,8,400,16,,ISIC_0011587.JPG
break,html.Screen,4_115_1,2023-10-31T02:32:21.947Z,,0,,,NaN,,,,,,false,,,,457970.2000000477,457969.8000000715,,457968.7000000477,,457976.533,8,400,,,
break_continue,html.Screen,4_115_2,2023-10-31T02:32:21.947Z,,0,,,NaN,,,,,,false,,,,457970.60000002384,457970.5,,457970.3000000715,,457976.533,8,400,,,
sequence,flow.Sequence,4_115,2023-10-31T02:32:21.947Z,,0,,,2674.710000000021,completion,,,,,false,,,,457970.8000000715,457970.5,455279.264,455290.7000000477,455295.79,457976.533,8,400,,,
trial,html.Screen,4_116_0,2023-10-31T02:32:24.437Z,,0,3,,2483.7670000715298,response,ISIC_0031127.JPG,11,ISIC_2333274.JPG,ISIC_2333274.JPG,false,0,keypress(z),500,460460.7000000477,460460.3000000715,457959.484,457971,457976.533,460473.708,8,400,17,,ISIC_0031127.JPG
break,html.Screen,4_116_1,2023-10-31T02:32:24.440Z,,0,,,NaN,,,,,,false,,,,460462.89999997616,460462.39999997616,,460461.10000002384,,460473.708,8,400,,,
break_continue,html.Screen,4_116_2,2023-10-31T02:32:24.440Z,,0,,,NaN,,,,,,false,,,,460463.60000002384,460463.39999997616,,460463.10000002384,,460473.708,8,400,,,
sequence,flow.Sequence,4_116,2023-10-31T02:32:24.440Z,,0,,,2486.8669999761623,completion,,,,,false,,,,460463.89999997616,460463.39999997616,457959.484,457970.89999997616,457976.533,460473.708,8,400,,,
trial,html.Screen,4_117_0,2023-10-31T02:32:26.860Z,,0,3,,2409.4920000476995,response,ISIC_7030488.JPG,11,ISIC_5904116.JPG,ISIC_5904116.JPG,false,0,keypress(z),500,462883.60000002384,462883.2000000477,460457.54,460464,460473.708,462887.996,8,400,18,,ISIC_7030488.JPG
break,html.Screen,4_117_1,2023-10-31T02:32:26.862Z,,0,,,NaN,,,,,,false,,,,462885.8000000715,462885.39999997616,,462883.89999997616,,462887.996,8,400,,,
break_continue,html.Screen,4_117_2,2023-10-31T02:32:26.863Z,,0,,,NaN,,,,,,false,,,,462886.3000000715,462886.2000000477,,462886,,462887.996,8,400,,,
sequence,flow.Sequence,4_117,2023-10-31T02:32:26.863Z,,0,,,2412.4920000476995,completion,,,,,false,,,,462886.60000002384,462886.2000000477,460457.54,460464,460473.708,462887.996,8,400,,,
trial,html.Screen,4_118_0,2023-10-31T02:32:29.465Z,,0,3,,2599.704000047699,response,ISIC_0694677.JPG,11,ISIC_1314502.JPG,ISIC_0694677.JPG,false,1,keypress(m),500,465488.10000002384,465487.7000000477,462871.873,462886.7000000477,462887.996,465502.492,8,400,19,,ISIC_1314502.JPG
break,html.Screen,4_118_1,2023-10-31T02:32:29.467Z,,0,,,NaN,,,,,,false,,,,465490.10000002384,465489.7000000477,,465488.39999997616,,465502.492,8,400,,,
break_continue,html.Screen,4_118_2,2023-10-31T02:32:29.467Z,,0,,,NaN,,,,,,false,,,,465490.7000000477,465490.39999997616,,465490.3000000715,,465502.492,8,400,,,
sequence,flow.Sequence,4_118,2023-10-31T02:32:29.467Z,,0,,,2602.4039999761735,completion,,,,,false,,,,465490.8000000715,465490.39999997616,462871.873,462886.60000002384,462887.996,465502.492,8,400,,,
trial,html.Screen,4_119_0,2023-10-31T02:32:32.321Z,,0,3,,2841.1080000238144,response,ISIC_0010777.JPG,7,ISIC_0032709.JPG,ISIC_0010777.JPG,false,1,keypress(m),500,468344.10000002384,468343.60000002384,465485.942,465491,465502.492,468349.31,8,400,20,,ISIC_0032709.JPG
break,html.Screen,4_119_1,2023-10-31T02:32:32.322Z,,0,,,NaN,,,,,,false,,,,468345.89999997616,468345.3000000715,,468344.5,,468349.31,8,400,,,
break_continue,html.Screen,4_119_2,2023-10-31T02:32:32.324Z,,0,,,NaN,,,,,,false,,,,468346.89999997616,468346.60000002384,,468346.39999997616,,468349.31,8,400,,,
sequence,flow.Sequence,4_119,2023-10-31T02:32:32.324Z,,0,,,2844.1080000238144,completion,,,,,false,,,,468347.10000002384,468346.60000002384,465485.942,465491,465502.492,468349.31,8,400,,,
trial,html.Screen,4_120_0,2023-10-31T02:32:35.836Z,,0,3,,3510.1900000000023,response,ISIC_0066430.JPG,11,ISIC_0058408.JPG,ISIC_0066430.JPG,false,1,keypress(m),500,471859.8000000715,471859.5,468332.683,468347.3000000715,468349.31,471863.339,8,400,21,,ISIC_0058408.JPG
break,html.Screen,4_120_1,2023-10-31T02:32:35.838Z,,0,,,NaN,,,,,,false,,,,471861.39999997616,471861.10000002384,,471860.10000002384,,471863.339,8,400,,,
break_continue,html.Screen,4_120_2,2023-10-31T02:32:35.838Z,,0,,,NaN,,,,,,false,,,,471861.8000000715,471861.7000000477,,471861.5,,471863.339,8,400,,,
sequence,flow.Sequence,4_120,2023-10-31T02:32:35.839Z,,0,,,3512.390000047686,completion,,,,,false,,,,471862,471861.7000000477,468332.683,468347.3000000715,468349.31,471863.339,8,400,,,
trial,html.Screen,4_121_0,2023-10-31T02:32:38.261Z,,0,3,,2420.7610000238637,response,ISIC_0025327.JPG,0,ISIC_0001681.JPG,ISIC_0001681.JPG,false,0,keypress(z),500,474284.5,474284.10000002384,471846.779,471862.2000000477,471863.339,474293.459,8,400,22,,ISIC_0025327.JPG
break,html.Screen,4_121_1,2023-10-31T02:32:38.262Z,,0,,,NaN,,,,,,false,,,,474285.7000000477,474285.39999997616,,474284.8000000715,,474293.459,8,400,,,
break_continue,html.Screen,4_121_2,2023-10-31T02:32:38.263Z,,0,,,NaN,,,,,,false,,,,474286.2000000477,474286.10000002384,,474285.8000000715,,474293.459,8,400,,,
sequence,flow.Sequence,4_121,2023-10-31T02:32:38.263Z,,0,,,2422.7610000238637,completion,,,,,false,,,,474286.39999997616,474286.10000002384,471846.779,471862.2000000477,471863.339,474293.459,8,400,,,
trial,html.Screen,4_122_0,2023-10-31T02:32:40.747Z,,0,3,,2476.7410000477103,response,ISIC_0000314.JPG,10,ISIC_0071875.JPG,ISIC_0071875.JPG,false,0,keypress(z),500,476770.5,476770.2000000477,474277.112,474286.5,474293.459,476791.375,8,400,23,,ISIC_0000314.JPG
break,html.Screen,4_122_1,2023-10-31T02:32:40.749Z,,0,,,NaN,,,,,,false,,,,476772.39999997616,476772.10000002384,,476770.8000000715,,476791.375,8,400,,,
break_continue,html.Screen,4_122_2,2023-10-31T02:32:40.749Z,,0,,,NaN,,,,,,false,,,,476772.89999997616,476772.7000000477,,476772.5,,476791.375,8,400,,,
sequence,flow.Sequence,4_122,2023-10-31T02:32:40.750Z,,0,,,2479.2410000477103,completion,,,,,false,,,,476773.10000002384,476772.7000000477,474277.112,474286.39999997616,474293.459,476791.375,8,400,,,
trial,html.Screen,4_123_0,2023-10-31T02:32:43.318Z,,0,3,,2549.725000023842,response,ISIC_0890398.JPG,7,ISIC_0060848.JPG,ISIC_0890398.JPG,false,1,keypress(m),500,479341.39999997616,479341.10000002384,476774.517,476773.2000000477,476791.375,479355.405,8,400,24,,ISIC_0060848.JPG
break,html.Screen,4_123_1,2023-10-31T02:32:43.319Z,,0,,,NaN,,,,,,false,,,,479342.8000000715,479342.39999997616,,479341.60000002384,,479355.405,8,400,,,
break_continue,html.Screen,4_123_2,2023-10-31T02:32:43.320Z,,0,,,NaN,,,,,,false,,,,479343.39999997616,479343.2000000477,,479343,,479355.405,8,400,,,
sequence,flow.Sequence,4_123,2023-10-31T02:32:43.321Z,,0,,,2551.8250000476837,completion,,,,,false,,,,479344.5,479343.2000000477,476774.517,476773.10000002384,476791.375,479355.405,8,400,,,
trial,html.Screen,4_124_0,2023-10-31T02:32:45.984Z,,0,3,,2651.8950000714976,response,ISIC_7517082.JPG,8,ISIC_5908780.JPG,ISIC_7517082.JPG,false,1,keypress(m),500,482007.7000000477,482007.3000000715,479338.561,479344.5,479355.405,482019.263,8,400,25,,ISIC_5908780.JPG
break,html.Screen,4_124_1,2023-10-31T02:32:45.985Z,,0,,,NaN,,,,,,false,,,,482008.8000000715,482008.5,,482007.89999997616,,482019.263,8,400,,,
break_continue,html.Screen,4_124_2,2023-10-31T02:32:45.986Z,,0,,,NaN,,,,,,false,,,,482009.3000000715,482009,,482008.89999997616,,482019.263,8,400,,,
sequence,flow.Sequence,4_124,2023-10-31T02:32:45.986Z,,0,,,2653.594999999972,completion,,,,,false,,,,482009.39999997616,482009,479338.561,479344.5,479355.405,482019.263,8,400,,,
trial,html.Screen,4_125_0,2023-10-31T02:32:48.541Z,,0,3,,2544.636999976181,response,ISIC_0065766.JPG,4,ISIC_9286292.JPG,ISIC_9286292.JPG,false,0,keypress(z),500,484564.3000000715,484563.89999997616,482003.115,482009.60000002384,482019.263,484566.765,8,400,26,,ISIC_0065766.JPG
