sender,sender_type,sender_id,timestamp,meta,,blockNo,condition,duration,ended_on,img_left,img_reveal,img_right,loser,practice,response,response_action,selection_duration,time_commit,time_end,time_render,time_run,time_show,time_switch,total_blocks,total_trials,trialNo,url,winner
informed_consent,html.Screen,0,2023-09-17T06:15:43.353Z,"{""labjs_version"":""20.2.4"",""labjs_build"":{""flavor"":""production"",""commit"":""f5b4a49f956347addd546a832a3327688c2c0fef""},""location"":""https://run.pavlovia.org/MurrayBennett/melanoma-2afc/?participant=66172&platform=sona"",""userAgent"":""Mozilla/5.0 (Macintosh; Intel Mac OS X 10_15_7) AppleWebKit/605.1.15 (KHTML, like Gecko) Version/16.6 Safari/605.1.15"",""platform"":""MacIntel"",""language"":""en-US"",""locale"":""en-US"",""timeZone"":""America/Chicago"",""timezoneOffset"":300,""screen_width"":1710,""screen_height"":1107,""scroll_width"":1190,""scroll_height"":868,""window_innerWidth"":1190,""window_innerHeight"":916,""devicePixelRatio"":2}",,,,39034,response,,,,,,consent,click button,,40970,40949,1915,1912.0000000000002,1926,40993,,,,"{""participant"":""66172"",""platform"":""sona""}",
Welcome,html.Screen,1,2023-09-17T06:18:43.672Z,,,,asymmetry,180282,response,,,,,,continue,click button,,221287,221264,40982,40970,40993,221312,,,,,
trial,html.Screen,2_0_0,2023-09-17T06:18:51.303Z,,0,0,,7622,response,ISIC_0069348.JPG,,ISIC_6997061.JPG,ISIC_6997061.JPG,true,0,keypress(z),500,228918,228917,221295,221288,221312,228945,1,6,1,,ISIC_0069348.JPG
sequence,flow.Sequence,2_0,2023-09-17T06:18:51.303Z,,0,,,7605,completion,,,,,true,,,,228918,228917,221295,221287,221312,228945,1,6,,,
trial,html.Screen,2_1_0,2023-09-17T06:18:55.645Z,,0,0,,4331,response,ISIC_0057368.JPG,,ISIC_0009529.JPG,ISIC_0009529.JPG,true,0,keypress(z),500,233260,233260,228929,228919,228945,233295,1,6,2,,ISIC_0057368.JPG
sequence,flow.Sequence,2_1,2023-09-17T06:18:55.646Z,,0,,,4315,completion,,,,,true,,,,233261,233260,228929,228919,228945,233295,1,6,,,
trial,html.Screen,2_2_0,2023-09-17T06:19:02.226Z,,0,0,,6561,response,ISIC_9758671.JPG,,ISIC_0064954.JPG,ISIC_0064954.JPG,true,0,keypress(z),500,239841,239840,233279,233262,233295,239879,1,6,3,,ISIC_9758671.JPG
sequence,flow.Sequence,2_2,2023-09-17T06:19:02.226Z,,0,,,6545,completion,,,,,true,,,,239841,239840,233279,233261,233295,239879,1,6,,,
trial,html.Screen,2_3_0,2023-09-17T06:19:05.853Z,,0,0,,3605,response,ISIC_0005785.JPG,,ISIC_0000080.JPG,ISIC_0000080.JPG,true,0,keypress(z),500,243468.00000000003,243467,239862,239842,239879,243495,1,6,4,,ISIC_0005785.JPG
sequence,flow.Sequence,2_3,2023-09-17T06:19:05.853Z,,0,,,3588,completion,,,,,true,,,,243468.00000000003,243467,239862,239841,239879,243495,1,6,,,
trial,html.Screen,2_4_0,2023-09-17T06:19:09.199Z,,0,0,,3334.000000000029,response,ISIC_5390060.JPG,,ISIC_7944028.JPG,ISIC_7944028.JPG,true,0,keypress(z),500,246814,246813.00000000003,243479,243469,243495,246845,1,6,5,,ISIC_5390060.JPG
sequence,flow.Sequence,2_4,2023-09-17T06:19:09.200Z,,0,,,3318.000000000029,completion,,,,,true,,,,246814,246813.00000000003,243479,243469,243495,246845,1,6,,,
trial,html.Screen,2_5_0,2023-09-17T06:19:13.952Z,,0,0,,4738,response,ISIC_0794216.JPG,,ISIC_0010188.JPG,ISIC_0794216.JPG,true,1,keypress(m),500,251567,251567,246829,246815,246845,251596,1,6,6,,ISIC_0010188.JPG
sequence,flow.Sequence,2_5,2023-09-17T06:19:13.953Z,,0,,,4722,completion,,,,,true,,,,251568,251567,246829,246815,246845,251596,1,6,,,
loop,flow.Loop,2,2023-09-17T06:19:13.953Z,,,,,30255,completion,,,,,true,,,,251568,251567,221295,221287,221312,251596,1,6,,,
exp_instructions,html.Screen,3,2023-09-17T06:22:23.536Z,,,,,189567,response,,,,,,continue,keypress(Space),,441160,441146,251579,251568,251596,441197,,,,,
trial,html.Screen,4_0_0,2023-09-17T06:22:30.165Z,,0,1,,6608,response,ISIC_0072441.JPG,7,ISIC_4548632.JPG,ISIC_4548632.JPG,false,0,keypress(z),500,447789,447789,441181,441161,441197,447814,8,400,1,,ISIC_0072441.JPG
break,html.Screen,4_0_1,2023-09-17T06:22:30.167Z,,0,,,NaN,,,,,,false,,,,447791,447791,,447790,,447814,8,400,,,
break_continue,html.Screen,4_0_2,2023-09-17T06:22:30.168Z,,0,,,NaN,,,,,,false,,,,447792.00000000006,447791,,447791,,447814,8,400,,,
sequence,flow.Sequence,4_0,2023-09-17T06:22:30.168Z,,0,,,6594,completion,,,,,false,,,,447792.00000000006,447791,441181,441161,441197,447814,8,400,,,
trial,html.Screen,4_1_0,2023-09-17T06:22:34.802Z,,0,1,,4629,response,ISIC_7888672.JPG,3,ISIC_0067697.JPG,ISIC_7888672.JPG,false,1,keypress(m),500,452426,452426,447797,447792.00000000006,447814,452464,8,400,2,,ISIC_0067697.JPG
break,html.Screen,4_1_1,2023-09-17T06:22:34.804Z,,0,,,NaN,,,,,,false,,,,452428,452427,,452427,,452464,8,400,,,
break_continue,html.Screen,4_1_2,2023-09-17T06:22:34.805Z,,0,,,NaN,,,,,,false,,,,452428,452428,,452428,,452464,8,400,,,
sequence,flow.Sequence,4_1,2023-09-17T06:22:34.805Z,,0,,,4614,completion,,,,,false,,,,452429.00000000006,452428,447797,447792.00000000006,447814,452464,8,400,,,
trial,html.Screen,4_2_0,2023-09-17T06:22:39.110Z,,0,1,,4285,response,ISIC_0030235.JPG,3,ISIC_0033799.JPG,ISIC_0033799.JPG,false,0,keypress(z),500,456734.00000000006,456733,452448,452429.00000000006,452464,456764,8,400,3,,ISIC_0030235.JPG
break,html.Screen,4_2_1,2023-09-17T06:22:39.111Z,,0,,,NaN,,,,,,false,,,,456735,456735,,456734.00000000006,,456764,8,400,,,
break_continue,html.Screen,4_2_2,2023-09-17T06:22:39.112Z,,0,,,NaN,,,,,,false,,,,456736,456736,,456735,,456764,8,400,,,
sequence,flow.Sequence,4_2,2023-09-17T06:22:39.112Z,,0,,,4272,completion,,,,,false,,,,456736,456736,452448,452429.00000000006,452464,456764,8,400,,,
trial,html.Screen,4_3_0,2023-09-17T06:22:42.220Z,,0,1,,3096,response,ISIC_0033229.JPG,1,ISIC_8249854.JPG,ISIC_0033229.JPG,false,1,keypress(m),500,459844,459843,456747,456736,456764,459881,8,400,4,,ISIC_8249854.JPG
break,html.Screen,4_3_1,2023-09-17T06:22:42.221Z,,0,,,NaN,,,,,,false,,,,459845,459845,,459844,,459881,8,400,,,
break_continue,html.Screen,4_3_2,2023-09-17T06:22:42.222Z,,0,,,NaN,,,,,,false,,,,459846,459846,,459845,,459881,8,400,,,
sequence,flow.Sequence,4_3,2023-09-17T06:22:42.222Z,,0,,,3082,completion,,,,,false,,,,459846,459846,456747,456736,456764,459881,8,400,,,
trial,html.Screen,4_4_0,2023-09-17T06:22:45.914Z,,0,1,,3673.000000000058,response,ISIC_0057669.JPG,0,ISIC_6888402.JPG,ISIC_6888402.JPG,false,0,keypress(z),500,463538,463537.00000000006,459864,459846,459881,463564,8,400,5,,ISIC_0057669.JPG
break,html.Screen,4_4_1,2023-09-17T06:22:45.916Z,,0,,,NaN,,,,,,false,,,,463540,463539,,463538,,463564,8,400,,,
break_continue,html.Screen,4_4_2,2023-09-17T06:22:45.916Z,,0,,,NaN,,,,,,false,,,,463540,463540,,463540,,463564,8,400,,,
sequence,flow.Sequence,4_4,2023-09-17T06:22:45.917Z,,0,,,3659,completion,,,,,false,,,,463540,463540,459864,459846,459881,463564,8,400,,,
trial,html.Screen,4_5_0,2023-09-17T06:22:50.372Z,,0,1,,4448,response,ISIC_1150482.JPG,6,ISIC_2468509.JPG,ISIC_2468509.JPG,false,0,keypress(z),500,467996.00000000006,467995,463547,463541,463564,468031,8,400,6,,ISIC_1150482.JPG
break,html.Screen,4_5_1,2023-09-17T06:22:50.373Z,,0,,,NaN,,,,,,false,,,,467997,467997,,467996.00000000006,,468031,8,400,,,
break_continue,html.Screen,4_5_2,2023-09-17T06:22:50.374Z,,0,,,NaN,,,,,,false,,,,467998,467998,,467997,,468031,8,400,,,
sequence,flow.Sequence,4_5,2023-09-17T06:22:50.374Z,,0,,,4434,completion,,,,,false,,,,467998,467998,463547,463541,463564,468031,8,400,,,
trial,html.Screen,4_6_0,2023-09-17T06:22:56.043Z,,0,1,,5652,response,ISIC_0011810.JPG,7,ISIC_0061880.JPG,ISIC_0011810.JPG,false,1,keypress(m),500,473666,473666,468014,467998,468031,473698,8,400,7,,ISIC_0061880.JPG
break,html.Screen,4_6_1,2023-09-17T06:22:56.044Z,,0,,,NaN,,,,,,false,,,,473668,473667.00000000006,,473667.00000000006,,473698,8,400,,,
break_continue,html.Screen,4_6_2,2023-09-17T06:22:56.044Z,,0,,,NaN,,,,,,false,,,,473668,473668,,473668,,473698,8,400,,,
sequence,flow.Sequence,4_6,2023-09-17T06:22:56.045Z,,0,,,5637,completion,,,,,false,,,,473668,473668,468014,467998,468031,473698,8,400,,,
trial,html.Screen,4_7_0,2023-09-17T06:23:03.485Z,,0,1,,7427,response,ISIC_0054087.JPG,5,ISIC_0054973.JPG,ISIC_0054973.JPG,false,0,keypress(z),500,481108,481108,473681,473669,473698,481130,8,400,8,,ISIC_0054087.JPG
break,html.Screen,4_7_1,2023-09-17T06:23:03.486Z,,0,,,NaN,,,,,,false,,,,481110,481110,,481109.00000000006,,481130,8,400,,,
break_continue,html.Screen,4_7_2,2023-09-17T06:23:03.487Z,,0,,,NaN,,,,,,false,,,,481110,481110,,481110,,481130,8,400,,,
sequence,flow.Sequence,4_7,2023-09-17T06:23:03.487Z,,0,,,7412,completion,,,,,false,,,,481110,481110,473681,473669,473698,481130,8,400,,,
trial,html.Screen,4_8_0,2023-09-17T06:23:06.969Z,,0,1,,3478,response,ISIC_5798015.JPG,4,ISIC_0011260.JPG,ISIC_5798015.JPG,false,1,keypress(m),500,484592,484592,481114,481111,481130,484614,8,400,9,,ISIC_0011260.JPG
break,html.Screen,4_8_1,2023-09-17T06:23:06.970Z,,0,,,NaN,,,,,,false,,,,484594,484593,,484593,,484614,8,400,,,
break_continue,html.Screen,4_8_2,2023-09-17T06:23:06.970Z,,0,,,NaN,,,,,,false,,,,484594,484594,,484594,,484614,8,400,,,
sequence,flow.Sequence,4_8,2023-09-17T06:23:06.970Z,,0,,,3464,completion,,,,,false,,,,484594,484594,481114,481111,481130,484614,8,400,,,
trial,html.Screen,4_9_0,2023-09-17T06:23:11.868Z,,0,1,,4894,response,ISIC_0028103.JPG,3,ISIC_0010873.JPG,ISIC_0028103.JPG,false,1,keypress(m),500,489492,489491,484597,484594,484614,489514,8,400,10,,ISIC_0010873.JPG
break,html.Screen,4_9_1,2023-09-17T06:23:11.870Z,,0,,,NaN,,,,,,false,,,,489493,489493,,489492,,489514,8,400,,,
break_continue,html.Screen,4_9_2,2023-09-17T06:23:11.870Z,,0,,,NaN,,,,,,false,,,,489494,489494,,489494,,489514,8,400,,,
sequence,flow.Sequence,4_9,2023-09-17T06:23:11.870Z,,0,,,4880,completion,,,,,false,,,,489494,489494,484597,484594,484614,489514,8,400,,,
trial,html.Screen,4_10_0,2023-09-17T06:23:15.370Z,,0,1,,3496,response,ISIC_0024967.JPG,1,ISIC_0004686.JPG,ISIC_0004686.JPG,false,0,keypress(z),500,492994,492993,489497,489495,489514,493031,8,400,11,,ISIC_0024967.JPG
break,html.Screen,4_10_1,2023-09-17T06:23:15.372Z,,0,,,NaN,,,,,,false,,,,492995,492995,,492994,,493031,8,400,,,
break_continue,html.Screen,4_10_2,2023-09-17T06:23:15.372Z,,0,,,NaN,,,,,,false,,,,492996.00000000006,492995,,492995,,493031,8,400,,,
sequence,flow.Sequence,4_10,2023-09-17T06:23:15.372Z,,0,,,3481,completion,,,,,false,,,,492996.00000000006,492995,489497,489494,489514,493031,8,400,,,
trial,html.Screen,4_11_0,2023-09-17T06:23:20.241Z,,0,1,,4849.000000000058,response,ISIC_1807276.JPG,1,ISIC_6356149.JPG,ISIC_1807276.JPG,false,1,keypress(m),500,497865,497864.00000000006,493015,492996.00000000006,493031,497898,8,400,12,,ISIC_6356149.JPG
break,html.Screen,4_11_1,2023-09-17T06:23:20.242Z,,0,,,NaN,,,,,,false,,,,497866,497866,,497865,,497898,8,400,,,
break_continue,html.Screen,4_11_2,2023-09-17T06:23:20.243Z,,0,,,NaN,,,,,,false,,,,497866,497866,,497866,,497898,8,400,,,
sequence,flow.Sequence,4_11,2023-09-17T06:23:20.243Z,,0,,,4835,completion,,,,,false,,,,497866,497866,493015,492996.00000000006,493031,497898,8,400,,,
trial,html.Screen,4_12_0,2023-09-17T06:23:25.499Z,,0,1,,5241,response,ISIC_0027693.JPG,7,ISIC_3087402.JPG,ISIC_0027693.JPG,false,1,keypress(m),500,503123,503122,497881,497867,497898,503148,8,400,13,,ISIC_3087402.JPG
break,html.Screen,4_12_1,2023-09-17T06:23:25.501Z,,0,,,NaN,,,,,,false,,,,503124,503124,,503123,,503148,8,400,,,
break_continue,html.Screen,4_12_2,2023-09-17T06:23:25.501Z,,0,,,NaN,,,,,,false,,,,503125,503125,,503124,,503148,8,400,,,
sequence,flow.Sequence,4_12,2023-09-17T06:23:25.501Z,,0,,,5227,completion,,,,,false,,,,503125,503125,497881,497867,497898,503148,8,400,,,
trial,html.Screen,4_13_0,2023-09-17T06:23:29.386Z,,0,1,,3878,response,ISIC_0597218.JPG,8,ISIC_8362891.JPG,ISIC_0597218.JPG,false,1,keypress(m),500,507010,507009,503131,503125,503148,507031,8,400,14,,ISIC_8362891.JPG
break,html.Screen,4_13_1,2023-09-17T06:23:29.388Z,,0,,,NaN,,,,,,false,,,,507011,507011,,507010,,507031,8,400,,,
break_continue,html.Screen,4_13_2,2023-09-17T06:23:29.388Z,,0,,,NaN,,,,,,false,,,,507012,507011,,507011,,507031,8,400,,,
sequence,flow.Sequence,4_13,2023-09-17T06:23:29.388Z,,0,,,3863,completion,,,,,false,,,,507012,507011,503131,503125,503148,507031,8,400,,,
trial,html.Screen,4_14_0,2023-09-17T06:23:35.238Z,,0,1,,5846,response,ISIC_8425541.JPG,0,ISIC_0011512.JPG,ISIC_0011512.JPG,false,0,keypress(z),500,512861,512860,507014,507012,507031,512898,8,400,15,,ISIC_8425541.JPG
break,html.Screen,4_14_1,2023-09-17T06:23:35.239Z,,0,,,NaN,,,,,,false,,,,512861.99999999994,512861.99999999994,,512861,,512898,8,400,,,
break_continue,html.Screen,4_14_2,2023-09-17T06:23:35.239Z,,0,,,NaN,,,,,,false,,,,512863.00000000006,512861.99999999994,,512861.99999999994,,512898,8,400,,,
sequence,flow.Sequence,4_14,2023-09-17T06:23:35.239Z,,0,,,5830.999999999942,completion,,,,,false,,,,512863.00000000006,512861.99999999994,507014,507012,507031,512898,8,400,,,
trial,html.Screen,4_15_0,2023-09-17T06:23:39.632Z,,0,1,,4374,response,ISIC_7580408.JPG,0,ISIC_9045601.JPG,ISIC_9045601.JPG,false,0,keypress(z),500,517255,517255,512881,512863.00000000006,512898,517281,8,400,16,,ISIC_7580408.JPG
break,html.Screen,4_15_1,2023-09-17T06:23:39.633Z,,0,,,NaN,,,,,,false,,,,517257.00000000006,517256,,517256,,517281,8,400,,,
break_continue,html.Screen,4_15_2,2023-09-17T06:23:39.633Z,,0,,,NaN,,,,,,false,,,,517257.00000000006,517257.00000000006,,517257.00000000006,,517281,8,400,,,
sequence,flow.Sequence,4_15,2023-09-17T06:23:39.634Z,,0,,,4359.000000000058,completion,,,,,false,,,,517257.00000000006,517257.00000000006,512881,512863.00000000006,512898,517281,8,400,,,
trial,html.Screen,4_16_0,2023-09-17T06:23:48.794Z,,0,1,,9152,response,ISIC_0024987.JPG,8,ISIC_0010863.JPG,ISIC_0010863.JPG,false,0,keypress(z),500,526418,526417,517265,517257.00000000006,517281,526448,8,400,17,,ISIC_0024987.JPG
break,html.Screen,4_16_1,2023-09-17T06:23:48.796Z,,0,,,NaN,,,,,,false,,,,526419,526418,,526418,,526448,8,400,,,
break_continue,html.Screen,4_16_2,2023-09-17T06:23:48.796Z,,0,,,NaN,,,,,,false,,,,526419,526419,,526419,,526448,8,400,,,
sequence,flow.Sequence,4_16,2023-09-17T06:23:48.796Z,,0,,,9138,completion,,,,,false,,,,526419,526419,517265,517257.00000000006,517281,526448,8,400,,,
trial,html.Screen,4_17_0,2023-09-17T06:23:55.116Z,,0,1,,6307,response,ISIC_0009905.JPG,5,ISIC_1369967.JPG,ISIC_0009905.JPG,false,1,keypress(m),500,532739,532739,526432,526420,526448,532765,8,400,18,,ISIC_1369967.JPG
break,html.Screen,4_17_1,2023-09-17T06:23:55.117Z,,0,,,NaN,,,,,,false,,,,532740,532740,,532740,,532765,8,400,,,
break_continue,html.Screen,4_17_2,2023-09-17T06:23:55.117Z,,0,,,NaN,,,,,,false,,,,532741,532741,,532741,,532765,8,400,,,
sequence,flow.Sequence,4_17,2023-09-17T06:23:55.117Z,,0,,,6293,completion,,,,,false,,,,532741,532741,526432,526420,526448,532765,8,400,,,
trial,html.Screen,4_18_0,2023-09-17T06:24:00.823Z,,0,1,,5697,response,ISIC_0062935.JPG,7,ISIC_4568425.JPG,ISIC_4568425.JPG,false,0,keypress(z),500,538446,538445,532748,532741,532765,538482,8,400,19,,ISIC_0062935.JPG
break,html.Screen,4_18_1,2023-09-17T06:24:00.825Z,,0,,,NaN,,,,,,false,,,,538448,538447,,538447,,538482,8,400,,,
break_continue,html.Screen,4_18_2,2023-09-17T06:24:00.825Z,,0,,,NaN,,,,,,false,,,,538448,538448,,538448,,538482,8,400,,,
sequence,flow.Sequence,4_18,2023-09-17T06:24:00.825Z,,0,,,5683,completion,,,,,false,,,,538449,538448,532748,532741,532765,538482,8,400,,,
trial,html.Screen,4_19_0,2023-09-17T06:24:04.297Z,,0,1,,3455,response,ISIC_0029056.JPG,11,ISIC_7022381.JPG,ISIC_7022381.JPG,false,0,keypress(z),500,541921,541920,538465,538449,538482,541948,8,400,20,,ISIC_0029056.JPG
break,html.Screen,4_19_1,2023-09-17T06:24:04.298Z,,0,,,NaN,,,,,,false,,,,541922,541922,,541921,,541948,8,400,,,
break_continue,html.Screen,4_19_2,2023-09-17T06:24:04.299Z,,0,,,NaN,,,,,,false,,,,541922,541922,,541922,,541948,8,400,,,
sequence,flow.Sequence,4_19,2023-09-17T06:24:04.299Z,,0,,,3440,completion,,,,,false,,,,541922,541922,538465,538449,538482,541948,8,400,,,
trial,html.Screen,4_20_0,2023-09-17T06:24:09.709Z,,0,1,,5400,response,ISIC_7747998.JPG,3,ISIC_0028275.JPG,ISIC_7747998.JPG,false,1,keypress(m),500,547333,547332,541932,541923,541948,547364,8,400,21,,ISIC_0028275.JPG
break,html.Screen,4_20_1,2023-09-17T06:24:09.710Z,,0,,,NaN,,,,,,false,,,,547334.0000000001,547333,,547333,,547364,8,400,,,
break_continue,html.Screen,4_20_2,2023-09-17T06:24:09.711Z,,0,,,NaN,,,,,,false,,,,547334.0000000001,547334.0000000001,,547334.0000000001,,547364,8,400,,,
sequence,flow.Sequence,4_20,2023-09-17T06:24:09.711Z,,0,,,5386.000000000116,completion,,,,,false,,,,547334.0000000001,547334.0000000001,541932,541922,541948,547364,8,400,,,
trial,html.Screen,4_21_0,2023-09-17T06:24:14.411Z,,0,1,,4686,response,ISIC_4286715.JPG,15,ISIC_0062005.JPG,ISIC_4286715.JPG,false,1,keypress(m),500,552035,552034,547348,547334.0000000001,547364,552065,8,400,22,,ISIC_0062005.JPG
break,html.Screen,4_21_1,2023-09-17T06:24:14.413Z,,0,,,NaN,,,,,,false,,,,552036,552036,,552035,,552065,8,400,,,
break_continue,html.Screen,4_21_2,2023-09-17T06:24:14.413Z,,0,,,NaN,,,,,,false,,,,552036,552036,,552036,,552065,8,400,,,
sequence,flow.Sequence,4_21,2023-09-17T06:24:14.413Z,,0,,,4672,completion,,,,,false,,,,552037,552036,547348,547334.0000000001,547364,552065,8,400,,,
trial,html.Screen,4_22_0,2023-09-17T06:24:24.073Z,,0,1,,9648,response,ISIC_0013688.JPG,3,ISIC_5031549.JPG,ISIC_0013688.JPG,false,1,keypress(m),500,561696,561696,552048,552037,552065,561732,8,400,23,,ISIC_5031549.JPG
break,html.Screen,4_22_1,2023-09-17T06:24:24.074Z,,0,,,NaN,,,,,,false,,,,561698,561697,,561697,,561732,8,400,,,
break_continue,html.Screen,4_22_2,2023-09-17T06:24:24.075Z,,0,,,NaN,,,,,,false,,,,561698,561698,,561698,,561732,8,400,,,
sequence,flow.Sequence,4_22,2023-09-17T06:24:24.075Z,,0,,,9633,completion,,,,,false,,,,561698,561698,552048,552037,552065,561732,8,400,,,
trial,html.Screen,4_23_0,2023-09-17T06:24:27.203Z,,0,1,,3111,response,ISIC_0029024.JPG,8,ISIC_0031586.JPG,ISIC_0029024.JPG,false,1,keypress(m),500,564826,564826,561715,561698,561732,564849,8,400,24,,ISIC_0031586.JPG
break,html.Screen,4_23_1,2023-09-17T06:24:27.204Z,,0,,,NaN,,,,,,false,,,,564827,564827,,564827,,564849,8,400,,,
break_continue,html.Screen,4_23_2,2023-09-17T06:24:27.204Z,,0,,,NaN,,,,,,false,,,,564828,564827,,564827,,564849,8,400,,,
sequence,flow.Sequence,4_23,2023-09-17T06:24:27.204Z,,0,,,3095,completion,,,,,false,,,,564828,564827,561715,561698,561732,564849,8,400,,,
trial,html.Screen,4_24_0,2023-09-17T06:24:30.901Z,,0,1,,3693,response,ISIC_0011403.JPG,5,ISIC_0070254.JPG,ISIC_0070254.JPG,false,0,keypress(z),500,568524,568524,564831,564828,564849,568548,8,400,25,,ISIC_0011403.JPG
break,html.Screen,4_24_1,2023-09-17T06:24:30.902Z,,0,,,NaN,,,,,,false,,,,568526.0000000001,568525,,568524,,568548,8,400,,,
break_continue,html.Screen,4_24_2,2023-09-17T06:24:30.903Z,,0,,,NaN,,,,,,false,,,,568526.0000000001,568526.0000000001,,568526.0000000001,,568548,8,400,,,
sequence,flow.Sequence,4_24,2023-09-17T06:24:30.903Z,,0,,,3677.0000000001164,completion,,,,,false,,,,568526.0000000001,568526.0000000001,564831,564828,564849,568548,8,400,,,
trial,html.Screen,4_25_0,2023-09-17T06:24:36.218Z,,0,1,,5309,response,ISIC_0030563.JPG,5,ISIC_0014428.JPG,ISIC_0014428.JPG,false,0,keypress(z),500,573841,573841,568532,568526.0000000001,568548,573865,8,400,26,,ISIC_0030563.JPG
break,html.Screen,4_25_1,2023-09-17T06:24:36.219Z,,0,,,NaN,,,,,,false,,,,573842,573842,,573841,,573865,8,400,,,
break_continue,html.Screen,4_25_2,2023-09-17T06:24:36.220Z,,0,,,NaN,,,,,,false,,,,573843,573843,,573843,,573865,8,400,,,
sequence,flow.Sequence,4_25,2023-09-17T06:24:36.220Z,,0,,,5295,completion,,,,,false,,,,573843,573843,568532,568526.0000000001,568548,573865,8,400,,,
trial,html.Screen,4_26_0,2023-09-17T06:24:40.350Z,,0,1,,4125,response,ISIC_0033519.JPG,4,ISIC_0014219.JPG,ISIC_0033519.JPG,false,1,keypress(m),500,577973,577973,573848,573843,573865,577999,8,400,27,,ISIC_0014219.JPG
break,html.Screen,4_26_1,2023-09-17T06:24:40.351Z,,0,,,NaN,,,,,,false,,,,577974,577974,,577974,,577999,8,400,,,
break_continue,html.Screen,4_26_2,2023-09-17T06:24:40.352Z,,0,,,NaN,,,,,,false,,,,577975,577975,,577975,,577999,8,400,,,
sequence,flow.Sequence,4_26,2023-09-17T06:24:40.352Z,,0,,,4110,completion,,,,,false,,,,577975,577975,573848,573843,573865,577999,8,400,,,
trial,html.Screen,4_27_0,2023-09-17T06:24:46.733Z,,0,1,,6374,response,ISIC_3942075.JPG,6,ISIC_0011508.JPG,ISIC_0011508.JPG,false,0,keypress(z),500,584356,584356,577982,577975,577999,584382,8,400,28,,ISIC_3942075.JPG
break,html.Screen,4_27_1,2023-09-17T06:24:46.734Z,,0,,,NaN,,,,,,false,,,,584357,584357,,584356,,584382,8,400,,,
break_continue,html.Screen,4_27_2,2023-09-17T06:24:46.735Z,,0,,,NaN,,,,,,false,,,,584358.0000000001,584358.0000000001,,584357,,584382,8,400,,,
sequence,flow.Sequence,4_27,2023-09-17T06:24:46.735Z,,0,,,6359.000000000116,completion,,,,,false,,,,584358.0000000001,584358.0000000001,577982,577975,577999,584382,8,400,,,
trial,html.Screen,4_28_0,2023-09-17T06:24:52.250Z,,0,1,,5508,response,ISIC_0057518.JPG,6,ISIC_0024545.JPG,ISIC_0057518.JPG,false,1,keypress(m),500,589873,589873,584365,584358.0000000001,584382,589899,8,400,29,,ISIC_0024545.JPG
break,html.Screen,4_28_1,2023-09-17T06:24:52.251Z,,0,,,NaN,,,,,,false,,,,589874,589874,,589873,,589899,8,400,,,
break_continue,html.Screen,4_28_2,2023-09-17T06:24:52.251Z,,0,,,NaN,,,,,,false,,,,589874,589874,,589874,,589899,8,400,,,
sequence,flow.Sequence,4_28,2023-09-17T06:24:52.252Z,,0,,,5492,completion,,,,,false,,,,589875,589874,584365,584358.0000000001,584382,589899,8,400,,,
trial,html.Screen,4_29_0,2023-09-17T06:24:56.284Z,,0,1,,4024.0000000001164,response,ISIC_0028071.JPG,6,ISIC_0046672.JPG,ISIC_0028071.JPG,false,1,keypress(m),500,593907,593906.0000000001,589882,589875,589899,593931,8,400,30,,ISIC_0046672.JPG
break,html.Screen,4_29_1,2023-09-17T06:24:56.285Z,,0,,,NaN,,,,,,false,,,,593908,593908,,593907,,593931,8,400,,,
break_continue,html.Screen,4_29_2,2023-09-17T06:24:56.285Z,,0,,,NaN,,,,,,false,,,,593908,593908,,593908,,593931,8,400,,,
sequence,flow.Sequence,4_29,2023-09-17T06:24:56.285Z,,0,,,4009,completion,,,,,false,,,,593908,593908,589882,589875,589899,593931,8,400,,,
trial,html.Screen,4_30_0,2023-09-17T06:25:04.685Z,,0,1,,8393,response,ISIC_1200689.JPG,5,ISIC_0030922.JPG,ISIC_0030922.JPG,false,0,keypress(z),500,602308,602308,593915,593909,593931,602332,8,400,31,,ISIC_1200689.JPG
break,html.Screen,4_30_1,2023-09-17T06:25:04.686Z,,0,,,NaN,,,,,,false,,,,602309,602309,,602309,,602332,8,400,,,
break_continue,html.Screen,4_30_2,2023-09-17T06:25:04.687Z,,0,,,NaN,,,,,,false,,,,602310.0000000001,602310.0000000001,,602309,,602332,8,400,,,
sequence,flow.Sequence,4_30,2023-09-17T06:25:04.687Z,,0,,,8379.000000000116,completion,,,,,false,,,,602310.0000000001,602310.0000000001,593915,593909,593931,602332,8,400,,,
trial,html.Screen,4_31_0,2023-09-17T06:25:08.218Z,,0,1,,3525,response,ISIC_0008774.JPG,2,ISIC_9072309.JPG,ISIC_0008774.JPG,false,1,keypress(m),500,605841,605840,602315,602310.0000000001,602332,605866,8,400,32,,ISIC_9072309.JPG
break,html.Screen,4_31_1,2023-09-17T06:25:08.219Z,,0,,,NaN,,,,,,false,,,,605842,605842,,605841,,605866,8,400,,,
break_continue,html.Screen,4_31_2,2023-09-17T06:25:08.220Z,,0,,,NaN,,,,,,false,,,,605843,605842,,605842,,605866,8,400,,,
sequence,flow.Sequence,4_31,2023-09-17T06:25:08.220Z,,0,,,3510,completion,,,,,false,,,,605843,605842,602315,602310.0000000001,602332,605866,8,400,,,
trial,html.Screen,4_32_0,2023-09-17T06:25:11.913Z,,0,1,,3686,response,ISIC_7130929.JPG,9,ISIC_7168122.JPG,ISIC_7168122.JPG,false,0,keypress(z),500,609536,609535,605849,605843,605866,609566,8,400,33,,ISIC_7130929.JPG
break,html.Screen,4_32_1,2023-09-17T06:25:11.914Z,,0,,,NaN,,,,,,false,,,,609537,609537,,609536,,609566,8,400,,,
break_continue,html.Screen,4_32_2,2023-09-17T06:25:11.914Z,,0,,,NaN,,,,,,false,,,,609537,609537,,609537,,609566,8,400,,,
sequence,flow.Sequence,4_32,2023-09-17T06:25:11.914Z,,0,,,3671,completion,,,,,false,,,,609537,609537,605849,605843,605866,609566,8,400,,,
trial,html.Screen,4_33_0,2023-09-17T06:25:15.964Z,,0,1,,4038,response,ISIC_7418723.JPG,5,ISIC_8837880.JPG,ISIC_8837880.JPG,false,0,keypress(z),500,613587,613587,609549,609537,609566,613616,8,400,34,,ISIC_7418723.JPG
break,html.Screen,4_33_1,2023-09-17T06:25:15.965Z,,0,,,NaN,,,,,,false,,,,613588,613588,,613587,,613616,8,400,,,
break_continue,html.Screen,4_33_2,2023-09-17T06:25:15.966Z,,0,,,NaN,,,,,,false,,,,613589,613589,,613588,,613616,8,400,,,
sequence,flow.Sequence,4_33,2023-09-17T06:25:15.966Z,,0,,,4023,completion,,,,,false,,,,613589,613589,609549,609537,609566,613616,8,400,,,
trial,html.Screen,4_34_0,2023-09-17T06:25:19.103Z,,0,1,,3126,response,ISIC_5498651.JPG,1,ISIC_0026120.JPG,ISIC_5498651.JPG,false,1,keypress(m),500,616725,616725,613599,613589,613616,616749,8,400,35,,ISIC_0026120.JPG
break,html.Screen,4_34_1,2023-09-17T06:25:19.104Z,,0,,,NaN,,,,,,false,,,,616727,616726,,616726,,616749,8,400,,,
break_continue,html.Screen,4_34_2,2023-09-17T06:25:19.104Z,,0,,,NaN,,,,,,false,,,,616727,616727,,616727,,616749,8,400,,,
sequence,flow.Sequence,4_34,2023-09-17T06:25:19.104Z,,0,,,3111,completion,,,,,false,,,,616727,616727,613599,613589,613616,616749,8,400,,,
trial,html.Screen,4_35_0,2023-09-17T06:25:26.525Z,,0,1,,7415,response,ISIC_0010783.JPG,2,ISIC_5703909.JPG,ISIC_5703909.JPG,false,0,keypress(z),500,624148,624147,616732,616728.0000000001,616749,624183,8,400,36,,ISIC_0010783.JPG
break,html.Screen,4_35_1,2023-09-17T06:25:26.527Z,,0,,,NaN,,,,,,false,,,,624149,624149,,624148,,624183,8,400,,,
break_continue,html.Screen,4_35_2,2023-09-17T06:25:26.527Z,,0,,,NaN,,,,,,false,,,,624150,624150,,624150,,624183,8,400,,,
sequence,flow.Sequence,4_35,2023-09-17T06:25:26.527Z,,0,,,7401,completion,,,,,false,,,,624150,624150,616732,616728.0000000001,616749,624183,8,400,,,
trial,html.Screen,4_36_0,2023-09-17T06:25:30.063Z,,0,1,,3520,response,ISIC_0919467.JPG,5,ISIC_6912979.JPG,ISIC_0919467.JPG,false,1,keypress(m),500,627686,627686,624166,624150,624183,627716,8,400,37,,ISIC_6912979.JPG
break,html.Screen,4_36_1,2023-09-17T06:25:30.064Z,,0,,,NaN,,,,,,false,,,,627687,627687,,627686,,627716,8,400,,,
break_continue,html.Screen,4_36_2,2023-09-17T06:25:30.065Z,,0,,,NaN,,,,,,false,,,,627688,627688,,627687,,627716,8,400,,,
sequence,flow.Sequence,4_36,2023-09-17T06:25:30.065Z,,0,,,3505,completion,,,,,false,,,,627688,627688,624166,624150,624183,627716,8,400,,,
trial,html.Screen,4_37_0,2023-09-17T06:25:37.230Z,,0,1,,7153,response,ISIC_0367225.JPG,4,ISIC_0063871.JPG,ISIC_0063871.JPG,false,0,keypress(z),500,634853.0000000001,634852,627699,627688,627716,634883,8,400,38,,ISIC_0367225.JPG
break,html.Screen,4_37_1,2023-09-17T06:25:37.231Z,,0,,,NaN,,,,,,false,,,,634854,634853.0000000001,,634853.0000000001,,634883,8,400,,,
break_continue,html.Screen,4_37_2,2023-09-17T06:25:37.232Z,,0,,,NaN,,,,,,false,,,,634854,634854,,634854,,634883,8,400,,,
sequence,flow.Sequence,4_37,2023-09-17T06:25:37.232Z,,0,,,7138,completion,,,,,false,,,,634854,634854,627699,627688,627716,634883,8,400,,,
trial,html.Screen,4_38_0,2023-09-17T06:25:42.156Z,,0,1,,4912,response,ISIC_0008816.JPG,3,ISIC_0281179.JPG,ISIC_0281179.JPG,false,0,keypress(z),500,639779,639778,634866,634855,634883,639815,8,400,39,,ISIC_0008816.JPG
break,html.Screen,4_38_1,2023-09-17T06:25:42.157Z,,0,,,NaN,,,,,,false,,,,639780,639780,,639779,,639815,8,400,,,
break_continue,html.Screen,4_38_2,2023-09-17T06:25:42.157Z,,0,,,NaN,,,,,,false,,,,639780,639780,,639780,,639815,8,400,,,
sequence,flow.Sequence,4_38,2023-09-17T06:25:42.158Z,,0,,,4897,completion,,,,,false,,,,639780,639780,634866,634855,634883,639815,8,400,,,
trial,html.Screen,4_39_0,2023-09-17T06:25:45.931Z,,0,1,,3754,response,ISIC_2852805.JPG,2,ISIC_0024280.JPG,ISIC_0024280.JPG,false,0,keypress(z),500,643553,643553,639799,639780,639815,643583,8,400,40,,ISIC_2852805.JPG
break,html.Screen,4_39_1,2023-09-17T06:25:45.932Z,,0,,,NaN,,,,,,false,,,,643555.0000000001,643554,,643554,,643583,8,400,,,
break_continue,html.Screen,4_39_2,2023-09-17T06:25:45.932Z,,0,,,NaN,,,,,,false,,,,643555.0000000001,643555.0000000001,,643555.0000000001,,643583,8,400,,,
sequence,flow.Sequence,4_39,2023-09-17T06:25:45.933Z,,0,,,3740.0000000001164,completion,,,,,false,,,,643555.0000000001,643555.0000000001,639799,639780,639815,643583,8,400,,,
trial,html.Screen,4_40_0,2023-09-17T06:25:49.661Z,,0,1,,3718,response,ISIC_0056339.JPG,16,ISIC_7492682.JPG,ISIC_0056339.JPG,false,1,keypress(m),500,647284,647284,643566,643555.0000000001,643583,647316,8,400,41,,ISIC_7492682.JPG
break,html.Screen,4_40_1,2023-09-17T06:25:49.663Z,,0,,,NaN,,,,,,false,,,,647285,647285,,647284,,647316,8,400,,,
break_continue,html.Screen,4_40_2,2023-09-17T06:25:49.663Z,,0,,,NaN,,,,,,false,,,,647286,647286,,647286,,647316,8,400,,,
sequence,flow.Sequence,4_40,2023-09-17T06:25:49.663Z,,0,,,3703,completion,,,,,false,,,,647286,647286,643566,643555.0000000001,643583,647316,8,400,,,
trial,html.Screen,4_41_0,2023-09-17T06:25:53.450Z,,0,1,,3773,response,ISIC_6324832.JPG,6,ISIC_3147084.JPG,ISIC_6324832.JPG,false,1,keypress(m),500,651072,651072,647299,647286,647316,651099,8,400,42,,ISIC_3147084.JPG
break,html.Screen,4_41_1,2023-09-17T06:25:53.451Z,,0,,,NaN,,,,,,false,,,,651074.0000000001,651073,,651073,,651099,8,400,,,
break_continue,html.Screen,4_41_2,2023-09-17T06:25:53.451Z,,0,,,NaN,,,,,,false,,,,651074.0000000001,651074.0000000001,,651074.0000000001,,651099,8,400,,,
sequence,flow.Sequence,4_41,2023-09-17T06:25:53.452Z,,0,,,3758.0000000001164,completion,,,,,false,,,,651074.0000000001,651074.0000000001,647299,647286,647316,651099,8,400,,,
trial,html.Screen,4_42_0,2023-09-17T06:25:58.108Z,,0,1,,4648,response,ISIC_0013813.JPG,3,ISIC_8295834.JPG,ISIC_8295834.JPG,false,0,keypress(z),500,655730,655730,651082,651074.0000000001,651099,655766,8,400,43,,ISIC_0013813.JPG
break,html.Screen,4_42_1,2023-09-17T06:25:58.109Z,,0,,,NaN,,,,,,false,,,,655731,655731,,655730,,655766,8,400,,,
break_continue,html.Screen,4_42_2,2023-09-17T06:25:58.109Z,,0,,,NaN,,,,,,false,,,,655731,655731,,655731,,655766,8,400,,,
sequence,flow.Sequence,4_42,2023-09-17T06:25:58.109Z,,0,,,4632,completion,,,,,false,,,,655732,655731,651082,651074.0000000001,651099,655766,8,400,,,
trial,html.Screen,4_43_0,2023-09-17T06:26:04.603Z,,0,1,,6476,response,ISIC_2979268.JPG,7,ISIC_0029550.JPG,ISIC_0029550.JPG,false,0,keypress(z),500,662226,662225,655749,655732,655766,662250,8,400,44,,ISIC_2979268.JPG
break,html.Screen,4_43_1,2023-09-17T06:26:04.604Z,,0,,,NaN,,,,,,false,,,,662227,662227,,662226,,662250,8,400,,,
break_continue,html.Screen,4_43_2,2023-09-17T06:26:04.605Z,,0,,,NaN,,,,,,false,,,,662227,662227,,662227,,662250,8,400,,,
sequence,flow.Sequence,4_43,2023-09-17T06:26:04.605Z,,0,,,6461,completion,,,,,false,,,,662227,662227,655749,655732,655766,662250,8,400,,,
trial,html.Screen,4_44_0,2023-09-17T06:26:13.648Z,,0,1,,9036,response,ISIC_9859495.JPG,4,ISIC_9100283.JPG,ISIC_9859495.JPG,false,1,keypress(m),500,671270,671269,662233,662227,662250,671300,8,400,45,,ISIC_9100283.JPG
break,html.Screen,4_44_1,2023-09-17T06:26:13.649Z,,0,,,NaN,,,,,,false,,,,671271,671271,,671270,,671300,8,400,,,
break_continue,html.Screen,4_44_2,2023-09-17T06:26:13.649Z,,0,,,NaN,,,,,,false,,,,671271,671271,,671271,,671300,8,400,,,
sequence,flow.Sequence,4_44,2023-09-17T06:26:13.649Z,,0,,,9021,completion,,,,,false,,,,671271,671271,662233,662227,662250,671300,8,400,,,
trial,html.Screen,4_45_0,2023-09-17T06:26:17.320Z,,0,1,,3659,response,ISIC_8838753.JPG,3,ISIC_0070747.JPG,ISIC_8838753.JPG,false,1,keypress(m),500,674943,674942,671283,671271,671300,674966,8,400,46,,ISIC_0070747.JPG
break,html.Screen,4_45_1,2023-09-17T06:26:17.321Z,,0,,,NaN,,,,,,false,,,,674944,674944,,674943,,674966,8,400,,,
break_continue,html.Screen,4_45_2,2023-09-17T06:26:17.322Z,,0,,,NaN,,,,,,false,,,,674944,674944,,674944,,674966,8,400,,,
sequence,flow.Sequence,4_45,2023-09-17T06:26:17.322Z,,0,,,3644,completion,,,,,false,,,,674944,674944,671283,671271,671300,674966,8,400,,,
trial,html.Screen,4_46_0,2023-09-17T06:26:23.610Z,,0,1,,6283,response,ISIC_0069705.JPG,5,ISIC_0072576.JPG,ISIC_0072576.JPG,false,0,keypress(z),500,681233.0000000001,681232,674949,674944,674966,681249,8,400,47,,ISIC_0069705.JPG
break,html.Screen,4_46_1,2023-09-17T06:26:23.612Z,,0,,,NaN,,,,,,false,,,,681234,681234,,681233.0000000001,,681249,8,400,,,
break_continue,html.Screen,4_46_2,2023-09-17T06:26:23.612Z,,0,,,NaN,,,,,,false,,,,681234,681234,,681234,,681249,8,400,,,
sequence,flow.Sequence,4_46,2023-09-17T06:26:23.612Z,,0,,,6268,completion,,,,,false,,,,681235,681234,674949,674944,674966,681249,8,400,,,
trial,html.Screen,4_47_0,2023-09-17T06:26:28.308Z,,0,1,,4693.000000000116,response,ISIC_0010850.JPG,8,ISIC_6875745.JPG,ISIC_0010850.JPG,false,1,keypress(m),500,685931,685930.0000000001,681237,681235,681249,685966,8,400,48,,ISIC_6875745.JPG
break,html.Screen,4_47_1,2023-09-17T06:26:28.310Z,,0,,,NaN,,,,,,false,,,,685932,685932,,685931,,685966,8,400,,,
break_continue,html.Screen,4_47_2,2023-09-17T06:26:28.310Z,,0,,,NaN,,,,,,false,,,,685932,685932,,685932,,685966,8,400,,,
sequence,flow.Sequence,4_47,2023-09-17T06:26:28.310Z,,0,,,4683,completion,,,,,false,,,,685932,685932,681237,681235,681249,685966,8,400,,,
trial,html.Screen,4_48_0,2023-09-17T06:26:33.669Z,,0,1,,5341,response,ISIC_0009992.JPG,2,ISIC_0011501.JPG,ISIC_0009992.JPG,false,1,keypress(m),500,691291,691291,685950,685932,685966,691317,8,400,49,,ISIC_0011501.JPG
break,html.Screen,4_48_1,2023-09-17T06:26:33.669Z,,0,,,NaN,,,,,,false,,,,691292,691292,,691291,,691317,8,400,,,
break_continue,html.Screen,4_48_2,2023-09-17T06:26:33.670Z,,0,,,NaN,,,,,,false,,,,691292,691292,,691292,,691317,8,400,,,
sequence,flow.Sequence,4_48,2023-09-17T06:26:33.670Z,,0,,,5326,completion,,,,,false,,,,691292,691292,685950,685932,685966,691317,8,400,,,
trial,html.Screen,4_49_0,2023-09-17T06:26:37.095Z,,0,1,,3417,response,ISIC_0479264.JPG,1,ISIC_0030116.JPG,ISIC_0030116.JPG,false,0,keypress(z),500,694717,694717,691300,691292,691317,694750,8,400,50,,ISIC_0479264.JPG
break,html.Screen,4_49_1,2023-09-17T06:26:47.112Z,,0,,,10000,timeout,,,,,false,,,,704734,704733,694733,694717,694750,704750,8,400,,,
break_continue,html.Screen,4_49_2,2023-09-17T06:28:10.854Z,,0,,,83722,response,,,,,false,continue,keypress(Space),,788476,788455,704733,704734,704750,788501,8,400,,,
sequence,flow.Sequence,4_49,2023-09-17T06:28:10.855Z,,0,,,97138,completion,,,,,false,,,,788476,788455,691300,691292,691317,788501,8,400,,,
trial,html.Screen,4_50_0,2023-09-17T06:28:16.227Z,,0,2,,5365,response,ISIC_5468164.JPG,0,ISIC_4271108.JPG,ISIC_4271108.JPG,false,0,keypress(z),500,793849,793849,788484,788477,788501,793884,8,400,1,,ISIC_5468164.JPG
break,html.Screen,4_50_1,2023-09-17T06:28:16.229Z,,0,,,NaN,,,,,,false,,,,793850,793850,,793849,,793884,8,400,,,
break_continue,html.Screen,4_50_2,2023-09-17T06:28:16.229Z,,0,,,NaN,,,,,,false,,,,793851,793851,,793850,,793884,8,400,,,
sequence,flow.Sequence,4_50,2023-09-17T06:28:16.229Z,,0,,,5350,completion,,,,,false,,,,793851,793851,788484,788476,788501,793884,8,400,,,
trial,html.Screen,4_51_0,2023-09-17T06:28:19.778Z,,0,2,,3531,response,ISIC_0054625.JPG,9,ISIC_7997132.JPG,ISIC_7997132.JPG,false,0,keypress(z),500,797399,797399,793868,793851,793884,797434,8,400,2,,ISIC_0054625.JPG
break,html.Screen,4_51_1,2023-09-17T06:28:19.779Z,,0,,,NaN,,,,,,false,,,,797400,797400,,797400,,797434,8,400,,,
break_continue,html.Screen,4_51_2,2023-09-17T06:28:19.779Z,,0,,,NaN,,,,,,false,,,,797401.0000000001,797401.0000000001,,797401.0000000001,,797434,8,400,,,
sequence,flow.Sequence,4_51,2023-09-17T06:28:19.779Z,,0,,,3517.0000000001164,completion,,,,,false,,,,797401.0000000001,797401.0000000001,793868,793851,793884,797434,8,400,,,
trial,html.Screen,4_52_0,2023-09-17T06:28:23.202Z,,0,2,,3405,response,ISIC_0060962.JPG,7,ISIC_0062991.JPG,ISIC_0062991.JPG,false,0,keypress(z),500,800824.0000000001,800823,797418,797401.0000000001,797434,800851,8,400,3,,ISIC_0060962.JPG
break,html.Screen,4_52_1,2023-09-17T06:28:23.203Z,,0,,,NaN,,,,,,false,,,,800825,800825,,800824.0000000001,,800851,8,400,,,
break_continue,html.Screen,4_52_2,2023-09-17T06:28:23.204Z,,0,,,NaN,,,,,,false,,,,800825,800825,,800825,,800851,8,400,,,
sequence,flow.Sequence,4_52,2023-09-17T06:28:23.204Z,,0,,,3391,completion,,,,,false,,,,800826,800825,797418,797401.0000000001,797434,800851,8,400,,,
trial,html.Screen,4_53_0,2023-09-17T06:28:27.189Z,,0,2,,3976.0000000001164,response,ISIC_0046405.JPG,6,ISIC_2467623.JPG,ISIC_2467623.JPG,false,0,keypress(z),500,804810.0000000001,804810.0000000001,800834,800826,800851,804834,8,400,4,,ISIC_0046405.JPG
break,html.Screen,4_53_1,2023-09-17T06:28:27.190Z,,0,,,NaN,,,,,,false,,,,804812,804811,,804811,,804834,8,400,,,
break_continue,html.Screen,4_53_2,2023-09-17T06:28:27.190Z,,0,,,NaN,,,,,,false,,,,804812,804812,,804812,,804834,8,400,,,
sequence,flow.Sequence,4_53,2023-09-17T06:28:27.190Z,,0,,,3961,completion,,,,,false,,,,804812,804812,800834,800826,800851,804834,8,400,,,
trial,html.Screen,4_54_0,2023-09-17T06:28:30.448Z,,0,2,,3252,response,ISIC_6784593.JPG,5,ISIC_6562871.JPG,ISIC_6784593.JPG,false,1,keypress(m),500,808069,808069,804817,804812,804834,808101,8,400,5,,ISIC_6562871.JPG
break,html.Screen,4_54_1,2023-09-17T06:28:30.448Z,,0,,,NaN,,,,,,false,,,,808070,808070,,808069,,808101,8,400,,,
break_continue,html.Screen,4_54_2,2023-09-17T06:28:30.449Z,,0,,,NaN,,,,,,false,,,,808070,808070,,808070,,808101,8,400,,,
sequence,flow.Sequence,4_54,2023-09-17T06:28:30.449Z,,0,,,3236,completion,,,,,false,,,,808070,808070,804817,804812,804834,808101,8,400,,,
trial,html.Screen,4_55_0,2023-09-17T06:28:33.792Z,,0,2,,3330,response,ISIC_0010592.JPG,5,ISIC_0029303.JPG,ISIC_0029303.JPG,false,0,keypress(z),500,811414,811414,808084,808071,808101,811451,8,400,6,,ISIC_0010592.JPG
break,html.Screen,4_55_1,2023-09-17T06:28:33.793Z,,0,,,NaN,,,,,,false,,,,811415,811415,,811414,,811451,8,400,,,
break_continue,html.Screen,4_55_2,2023-09-17T06:28:33.794Z,,0,,,NaN,,,,,,false,,,,811415,811415,,811415,,811451,8,400,,,
sequence,flow.Sequence,4_55,2023-09-17T06:28:33.794Z,,0,,,3314,completion,,,,,false,,,,811415,811415,808084,808071,808101,811451,8,400,,,
trial,html.Screen,4_56_0,2023-09-17T06:28:38.744Z,,0,2,,4931,response,ISIC_0033061.JPG,4,ISIC_6814221.JPG,ISIC_0033061.JPG,false,1,keypress(m),500,816365,816365,811434,811416,811451,816401,8,400,7,,ISIC_6814221.JPG
break,html.Screen,4_56_1,2023-09-17T06:28:38.745Z,,0,,,NaN,,,,,,false,,,,816366,816366,,816366,,816401,8,400,,,
break_continue,html.Screen,4_56_2,2023-09-17T06:28:38.745Z,,0,,,NaN,,,,,,false,,,,816367,816367,,816367,,816401,8,400,,,
sequence,flow.Sequence,4_56,2023-09-17T06:28:38.745Z,,0,,,4916,completion,,,,,false,,,,816367,816367,811434,811415,811451,816401,8,400,,,
trial,html.Screen,4_57_0,2023-09-17T06:28:42.311Z,,0,2,,3547,response,ISIC_0010283.JPG,7,ISIC_0066678.JPG,ISIC_0010283.JPG,false,1,keypress(m),500,819933,819932,816385,816367,816401,819968,8,400,8,,ISIC_0066678.JPG
break,html.Screen,4_57_1,2023-09-17T06:28:42.312Z,,0,,,NaN,,,,,,false,,,,819933,819933,,819933,,819968,8,400,,,
break_continue,html.Screen,4_57_2,2023-09-17T06:28:42.312Z,,0,,,NaN,,,,,,false,,,,819934,819934,,819934,,819968,8,400,,,
sequence,flow.Sequence,4_57,2023-09-17T06:28:42.312Z,,0,,,3533,completion,,,,,false,,,,819934,819934,816385,816367,816401,819968,8,400,,,
trial,html.Screen,4_58_0,2023-09-17T06:28:47.881Z,,0,2,,5551.000000000116,response,ISIC_0033759.JPG,10,ISIC_0033662.JPG,ISIC_0033759.JPG,false,1,keypress(m),500,825502.0000000001,825502.0000000001,819951,819934,819968,825535,8,400,9,,ISIC_0033662.JPG
break,html.Screen,4_58_1,2023-09-17T06:28:47.882Z,,0,,,NaN,,,,,,false,,,,825504,825503,,825503,,825535,8,400,,,
break_continue,html.Screen,4_58_2,2023-09-17T06:28:47.882Z,,0,,,NaN,,,,,,false,,,,825504,825504,,825504,,825535,8,400,,,
sequence,flow.Sequence,4_58,2023-09-17T06:28:47.883Z,,0,,,5536,completion,,,,,false,,,,825504,825504,819951,819934,819968,825535,8,400,,,
trial,html.Screen,4_59_0,2023-09-17T06:28:51.775Z,,0,2,,3879.0000000001164,response,ISIC_3792196.JPG,5,ISIC_0034265.JPG,ISIC_0034265.JPG,false,0,keypress(z),500,829396.0000000001,829396.0000000001,825517,825505,825535,829417,8,400,10,,ISIC_3792196.JPG
break,html.Screen,4_59_1,2023-09-17T06:28:51.776Z,,0,,,NaN,,,,,,false,,,,829397,829397,,829396.0000000001,,829417,8,400,,,
break_continue,html.Screen,4_59_2,2023-09-17T06:28:51.776Z,,0,,,NaN,,,,,,false,,,,829398,829397,,829397,,829417,8,400,,,
sequence,flow.Sequence,4_59,2023-09-17T06:28:51.776Z,,0,,,3862,completion,,,,,false,,,,829398,829397,825517,825504,825535,829417,8,400,,,
trial,html.Screen,4_60_0,2023-09-17T06:28:56.046Z,,0,2,,4266,response,ISIC_0063871.JPG,1,ISIC_0000522.JPG,ISIC_0063871.JPG,false,1,keypress(m),500,833668,833667,829401,829398,829417,833701,8,400,11,,ISIC_0000522.JPG
break,html.Screen,4_60_1,2023-09-17T06:28:56.048Z,,0,,,NaN,,,,,,false,,,,833669,833669,,833668,,833701,8,400,,,
break_continue,html.Screen,4_60_2,2023-09-17T06:28:56.048Z,,0,,,NaN,,,,,,false,,,,833669,833669,,833669,,833701,8,400,,,
sequence,flow.Sequence,4_60,2023-09-17T06:28:56.048Z,,0,,,4252,completion,,,,,false,,,,833669,833669,829401,829398,829417,833701,8,400,,,
trial,html.Screen,4_61_0,2023-09-17T06:29:01.386Z,,0,2,,5322.000000000116,response,ISIC_0026595.JPG,8,ISIC_0000401.JPG,ISIC_0000401.JPG,false,0,keypress(z),500,839008,839007.0000000001,833685,833670.0000000001,833701,839035,8,400,12,,ISIC_0026595.JPG
break,html.Screen,4_61_1,2023-09-17T06:29:01.388Z,,0,,,NaN,,,,,,false,,,,839009,839009,,839008,,839035,8,400,,,
break_continue,html.Screen,4_61_2,2023-09-17T06:29:01.388Z,,0,,,NaN,,,,,,false,,,,839009,839009,,839009,,839035,8,400,,,
sequence,flow.Sequence,4_61,2023-09-17T06:29:01.388Z,,0,,,5308,completion,,,,,false,,,,839009,839009,833685,833669,833701,839035,8,400,,,
trial,html.Screen,4_62_0,2023-09-17T06:29:05.057Z,,0,2,,3660,response,ISIC_0817654.JPG,2,ISIC_0034311.JPG,ISIC_0034311.JPG,false,0,keypress(z),500,842678,842678,839018,839010,839035,842701,8,400,13,,ISIC_0817654.JPG
break,html.Screen,4_62_1,2023-09-17T06:29:05.058Z,,0,,,NaN,,,,,,false,,,,842680.0000000001,842679,,842679,,842701,8,400,,,
break_continue,html.Screen,4_62_2,2023-09-17T06:29:05.059Z,,0,,,NaN,,,,,,false,,,,842680.0000000001,842680.0000000001,,842680.0000000001,,842701,8,400,,,
sequence,flow.Sequence,4_62,2023-09-17T06:29:05.059Z,,0,,,3645.0000000001164,completion,,,,,false,,,,842680.0000000001,842680.0000000001,839018,839010,839035,842701,8,400,,,
trial,html.Screen,4_63_0,2023-09-17T06:29:10.288Z,,0,2,,5225,response,ISIC_0065394.JPG,13,ISIC_1166678.JPG,ISIC_0065394.JPG,false,1,keypress(m),500,847909,847909,842684,842680.0000000001,842701,847935,8,400,14,,ISIC_1166678.JPG
break,html.Screen,4_63_1,2023-09-17T06:29:10.289Z,,0,,,NaN,,,,,,false,,,,847910,847910,,847910,,847935,8,400,,,
break_continue,html.Screen,4_63_2,2023-09-17T06:29:10.289Z,,0,,,NaN,,,,,,false,,,,847911,847911,,847911,,847935,8,400,,,
sequence,flow.Sequence,4_63,2023-09-17T06:29:10.290Z,,0,,,5210,completion,,,,,false,,,,847911,847911,842684,842680.0000000001,842701,847935,8,400,,,
trial,html.Screen,4_64_0,2023-09-17T06:29:13.905Z,,0,2,,3607,response,ISIC_0076742.JPG,4,ISIC_5729818.JPG,ISIC_5729818.JPG,false,0,keypress(z),500,851526.0000000001,851525,847918,847911,847935,851551,8,400,15,,ISIC_0076742.JPG
break,html.Screen,4_64_1,2023-09-17T06:29:13.906Z,,0,,,NaN,,,,,,false,,,,851527,851527,,851526.0000000001,,851551,8,400,,,
break_continue,html.Screen,4_64_2,2023-09-17T06:29:13.906Z,,0,,,NaN,,,,,,false,,,,851528,851527,,851527,,851551,8,400,,,
sequence,flow.Sequence,4_64,2023-09-17T06:29:13.906Z,,0,,,3592,completion,,,,,false,,,,851528,851527,847918,847911,847935,851551,8,400,,,
trial,html.Screen,4_65_0,2023-09-17T06:29:16.825Z,,0,2,,2911,response,ISIC_5198780.JPG,3,ISIC_0031233.JPG,ISIC_5198780.JPG,false,1,keypress(m),500,854446,854446,851535,851528,851551,854468,8,400,16,,ISIC_0031233.JPG
break,html.Screen,4_65_1,2023-09-17T06:29:16.826Z,,0,,,NaN,,,,,,false,,,,854447,854447,,854447,,854468,8,400,,,
break_continue,html.Screen,4_65_2,2023-09-17T06:29:16.826Z,,0,,,NaN,,,,,,false,,,,854448,854448,,854447,,854468,8,400,,,
sequence,flow.Sequence,4_65,2023-09-17T06:29:16.826Z,,0,,,2897,completion,,,,,false,,,,854448,854448,851535,851528,851551,854468,8,400,,,
trial,html.Screen,4_66_0,2023-09-17T06:29:20.291Z,,0,2,,3461,response,ISIC_0033090.JPG,5,ISIC_8128335.JPG,ISIC_8128335.JPG,false,0,keypress(z),500,857913,857912,854451,854448,854468,857934,8,400,17,,ISIC_0033090.JPG
break,html.Screen,4_66_1,2023-09-17T06:29:20.293Z,,0,,,NaN,,,,,,false,,,,857914,857914,,857913,,857934,8,400,,,
break_continue,html.Screen,4_66_2,2023-09-17T06:29:20.293Z,,0,,,NaN,,,,,,false,,,,857914,857914,,857914,,857934,8,400,,,
sequence,flow.Sequence,4_66,2023-09-17T06:29:20.293Z,,0,,,3446,completion,,,,,false,,,,857914,857914,854451,854448,854468,857934,8,400,,,
trial,html.Screen,4_67_0,2023-09-17T06:29:25.334Z,,0,2,,5037,response,ISIC_0059625.JPG,2,ISIC_0033148.JPG,ISIC_0059625.JPG,false,1,keypress(m),500,862955,862955,857918,857915,857934,862985,8,400,18,,ISIC_0033148.JPG
break,html.Screen,4_67_1,2023-09-17T06:29:25.335Z,,0,,,NaN,,,,,,false,,,,862956,862956,,862955,,862985,8,400,,,
break_continue,html.Screen,4_67_2,2023-09-17T06:29:25.335Z,,0,,,NaN,,,,,,false,,,,862957,862956,,862956,,862985,8,400,,,
sequence,flow.Sequence,4_67,2023-09-17T06:29:25.335Z,,0,,,5022,completion,,,,,false,,,,862957,862956,857918,857915,857934,862985,8,400,,,
trial,html.Screen,4_68_0,2023-09-17T06:29:28.381Z,,0,2,,3034.0000000001164,response,ISIC_3390057.JPG,4,ISIC_0031977.JPG,ISIC_3390057.JPG,false,1,keypress(m),500,866003,866002.0000000001,862968,862957,862985,866035,8,400,19,,ISIC_0031977.JPG
break,html.Screen,4_68_1,2023-09-17T06:29:28.383Z,,0,,,NaN,,,,,,false,,,,866005,866005,,866004,,866035,8,400,,,
break_continue,html.Screen,4_68_2,2023-09-17T06:29:28.388Z,,0,,,NaN,,,,,,false,,,,866009,866009,,866008,,866035,8,400,,,
sequence,flow.Sequence,4_68,2023-09-17T06:29:28.388Z,,0,,,3024,completion,,,,,false,,,,866009,866009,862968,862957,862985,866035,8,400,,,
trial,html.Screen,4_69_0,2023-09-17T06:29:34.411Z,,0,2,,6014,response,ISIC_5642824.JPG,8,ISIC_0067667.JPG,ISIC_0067667.JPG,false,0,keypress(z),500,872033,872032,866018,866009,866035,872068,8,400,20,,ISIC_5642824.JPG
break,html.Screen,4_69_1,2023-09-17T06:29:34.413Z,,0,,,NaN,,,,,,false,,,,872034,872034,,872033,,872068,8,400,,,
break_continue,html.Screen,4_69_2,2023-09-17T06:29:34.413Z,,0,,,NaN,,,,,,false,,,,872034,872034,,872034,,872068,8,400,,,
sequence,flow.Sequence,4_69,2023-09-17T06:29:34.414Z,,0,,,5999,completion,,,,,false,,,,872035,872034,866018,866009,866035,872068,8,400,,,
trial,html.Screen,4_70_0,2023-09-17T06:29:37.790Z,,0,2,,3359,response,ISIC_5514594.JPG,10,ISIC_0008619.JPG,ISIC_5514594.JPG,false,1,keypress(m),500,875411,875411,872052,872035,872068,875435,8,400,21,,ISIC_0008619.JPG
break,html.Screen,4_70_1,2023-09-17T06:29:37.791Z,,0,,,NaN,,,,,,false,,,,875412,875412,,875412,,875435,8,400,,,
break_continue,html.Screen,4_70_2,2023-09-17T06:29:37.792Z,,0,,,NaN,,,,,,false,,,,875413,875413,,875412,,875435,8,400,,,
sequence,flow.Sequence,4_70,2023-09-17T06:29:37.792Z,,0,,,3345,completion,,,,,false,,,,875413,875413,872052,872035,872068,875435,8,400,,,
trial,html.Screen,4_71_0,2023-09-17T06:29:42.979Z,,0,2,,5182,response,ISIC_0010267.JPG,2,ISIC_0006672.JPG,ISIC_0006672.JPG,false,0,keypress(z),500,880601,880600,875418,875413,875435,880635,8,400,22,,ISIC_0010267.JPG
break,html.Screen,4_71_1,2023-09-17T06:29:42.980Z,,0,,,NaN,,,,,,false,,,,880601,880601,,880601,,880635,8,400,,,
break_continue,html.Screen,4_71_2,2023-09-17T06:29:42.981Z,,0,,,NaN,,,,,,false,,,,880602,880602,,880602,,880635,8,400,,,
sequence,flow.Sequence,4_71,2023-09-17T06:29:42.981Z,,0,,,5167,completion,,,,,false,,,,880602,880602,875418,875413,875435,880635,8,400,,,
trial,html.Screen,4_72_0,2023-09-17T06:29:46.228Z,,0,2,,3231,response,ISIC_7335659.JPG,8,ISIC_0063369.JPG,ISIC_7335659.JPG,false,1,keypress(m),500,883850,883849,880618,880602,880635,883885,8,400,23,,ISIC_0063369.JPG
break,html.Screen,4_72_1,2023-09-17T06:29:46.230Z,,0,,,NaN,,,,,,false,,,,883851,883851,,883850,,883885,8,400,,,
break_continue,html.Screen,4_72_2,2023-09-17T06:29:46.230Z,,0,,,NaN,,,,,,false,,,,883851,883851,,883851,,883885,8,400,,,
sequence,flow.Sequence,4_72,2023-09-17T06:29:46.231Z,,0,,,3216,completion,,,,,false,,,,883852,883851,880618,880602,880635,883885,8,400,,,
trial,html.Screen,4_73_0,2023-09-17T06:29:49.929Z,,0,2,,3682.0000000001164,response,ISIC_0781315.JPG,8,ISIC_2826618.JPG,ISIC_0781315.JPG,false,1,keypress(m),500,887550.0000000001,887550.0000000001,883868,883852,883885,887585,8,400,24,,ISIC_2826618.JPG
break,html.Screen,4_73_1,2023-09-17T06:29:49.930Z,,0,,,NaN,,,,,,false,,,,887551,887551,,887550.0000000001,,887585,8,400,,,
break_continue,html.Screen,4_73_2,2023-09-17T06:29:49.930Z,,0,,,NaN,,,,,,false,,,,887551,887551,,887551,,887585,8,400,,,
sequence,flow.Sequence,4_73,2023-09-17T06:29:49.930Z,,0,,,3666,completion,,,,,false,,,,887551,887551,883868,883852,883885,887585,8,400,,,
trial,html.Screen,4_74_0,2023-09-17T06:29:53.697Z,,0,2,,3748,response,ISIC_9161341.JPG,10,ISIC_0008952.JPG,ISIC_0008952.JPG,false,0,keypress(z),500,891318,891317,887569,887552,887585,891352,8,400,25,,ISIC_9161341.JPG
break,html.Screen,4_74_1,2023-09-17T06:29:53.698Z,,0,,,NaN,,,,,,false,,,,891319.0000000001,891319.0000000001,,891318,,891352,8,400,,,
break_continue,html.Screen,4_74_2,2023-09-17T06:29:53.698Z,,0,,,NaN,,,,,,false,,,,891319.0000000001,891319.0000000001,,891319.0000000001,,891352,8,400,,,
sequence,flow.Sequence,4_74,2023-09-17T06:29:53.698Z,,0,,,3734.0000000001164,completion,,,,,false,,,,891319.0000000001,891319.0000000001,887569,887552,887585,891352,8,400,,,
trial,html.Screen,4_75_0,2023-09-17T06:29:58.140Z,,0,2,,4426,response,ISIC_0030641.JPG,7,ISIC_5895384.JPG,ISIC_0030641.JPG,false,1,keypress(m),500,895761,895761,891335,891319.0000000001,891352,895785,8,400,26,,ISIC_5895384.JPG
break,html.Screen,4_75_1,2023-09-17T06:29:58.142Z,,0,,,NaN,,,,,,false,,,,895763,895762,,895762,,895785,8,400,,,
break_continue,html.Screen,4_75_2,2023-09-17T06:29:58.142Z,,0,,,NaN,,,,,,false,,,,895763,895763,,895763,,895785,8,400,,,
sequence,flow.Sequence,4_75,2023-09-17T06:29:58.142Z,,0,,,4411,completion,,,,,false,,,,895763,895763,891335,891319.0000000001,891352,895785,8,400,,,
trial,html.Screen,4_76_0,2023-09-17T06:30:02.607Z,,0,2,,4459,response,ISIC_9294799.JPG,3,ISIC_0072730.JPG,ISIC_9294799.JPG,false,1,keypress(m),500,900228.0000000001,900227,895768,895763,895785,900252,8,400,27,,ISIC_0072730.JPG
break,html.Screen,4_76_1,2023-09-17T06:30:02.608Z,,0,,,NaN,,,,,,false,,,,900229,900229,,900228.0000000001,,900252,8,400,,,
break_continue,html.Screen,4_76_2,2023-09-17T06:30:02.608Z,,0,,,NaN,,,,,,false,,,,900229,900229,,900229,,900252,8,400,,,
sequence,flow.Sequence,4_76,2023-09-17T06:30:02.609Z,,0,,,4444,completion,,,,,false,,,,900230,900229,895768,895763,895785,900252,8,400,,,
trial,html.Screen,4_77_0,2023-09-17T06:30:06.799Z,,0,2,,4185.000000000116,response,ISIC_0025744.JPG,4,ISIC_0032844.JPG,ISIC_0025744.JPG,false,1,keypress(m),500,904420.0000000001,904420.0000000001,900235,900230,900252,904452,8,400,28,,ISIC_0032844.JPG
break,html.Screen,4_77_1,2023-09-17T06:30:06.800Z,,0,,,NaN,,,,,,false,,,,904421,904421,,904420.0000000001,,904452,8,400,,,
break_continue,html.Screen,4_77_2,2023-09-17T06:30:06.801Z,,0,,,NaN,,,,,,false,,,,904421,904421,,904421,,904452,8,400,,,
sequence,flow.Sequence,4_77,2023-09-17T06:30:06.801Z,,0,,,4169,completion,,,,,false,,,,904422,904421,900235,900230,900252,904452,8,400,,,
trial,html.Screen,4_78_0,2023-09-17T06:30:10.028Z,,0,2,,3214,response,ISIC_0025277.JPG,0,ISIC_6685532.JPG,ISIC_6685532.JPG,false,0,keypress(z),500,907649,907649,904435,904422,904452,907685,8,400,29,,ISIC_0025277.JPG
break,html.Screen,4_78_1,2023-09-17T06:30:10.030Z,,0,,,NaN,,,,,,false,,,,907651.0000000001,907650,,907650,,907685,8,400,,,
break_continue,html.Screen,4_78_2,2023-09-17T06:30:10.030Z,,0,,,NaN,,,,,,false,,,,907651.0000000001,907651.0000000001,,907651.0000000001,,907685,8,400,,,
sequence,flow.Sequence,4_78,2023-09-17T06:30:10.030Z,,0,,,3199.0000000001164,completion,,,,,false,,,,907651.0000000001,907651.0000000001,904435,904422,904452,907685,8,400,,,
trial,html.Screen,4_79_0,2023-09-17T06:30:14.272Z,,0,2,,4223,response,ISIC_5092834.JPG,7,ISIC_0026081.JPG,ISIC_5092834.JPG,false,1,keypress(m),500,911893,911892,907669,907651.0000000001,907685,911919,8,400,30,,ISIC_0026081.JPG
break,html.Screen,4_79_1,2023-09-17T06:30:14.273Z,,0,,,NaN,,,,,,false,,,,911894,911893,,911893,,911919,8,400,,,
break_continue,html.Screen,4_79_2,2023-09-17T06:30:14.273Z,,0,,,NaN,,,,,,false,,,,911894,911894,,911894,,911919,8,400,,,
sequence,flow.Sequence,4_79,2023-09-17T06:30:14.273Z,,0,,,4209,completion,,,,,false,,,,911894,911894,907669,907651.0000000001,907685,911919,8,400,,,
trial,html.Screen,4_80_0,2023-09-17T06:30:18.300Z,,0,2,,4019.0000000001164,response,ISIC_0013719.JPG,4,ISIC_0065872.JPG,ISIC_0013719.JPG,false,1,keypress(m),500,915921,915920.0000000001,911901,911894,911919,915952,8,400,31,,ISIC_0065872.JPG
break,html.Screen,4_80_1,2023-09-17T06:30:18.301Z,,0,,,NaN,,,,,,false,,,,915922,915922,,915921,,915952,8,400,,,
break_continue,html.Screen,4_80_2,2023-09-17T06:30:18.302Z,,0,,,NaN,,,,,,false,,,,915923,915922,,915922,,915952,8,400,,,
sequence,flow.Sequence,4_80,2023-09-17T06:30:18.302Z,,0,,,4003,completion,,,,,false,,,,915923,915922,911901,911894,911919,915952,8,400,,,
trial,html.Screen,4_81_0,2023-09-17T06:30:22.088Z,,0,2,,3774.0000000001164,response,ISIC_0071906.JPG,5,ISIC_0029007.JPG,ISIC_0029007.JPG,false,0,keypress(z),500,919709.0000000001,919709.0000000001,915935,915923,915952,919735,8,400,32,,ISIC_0071906.JPG
break,html.Screen,4_81_1,2023-09-17T06:30:22.089Z,,0,,,NaN,,,,,,false,,,,919710,919710,,919709.0000000001,,919735,8,400,,,
break_continue,html.Screen,4_81_2,2023-09-17T06:30:22.090Z,,0,,,NaN,,,,,,false,,,,919711,919711,,919710,,919735,8,400,,,
sequence,flow.Sequence,4_81,2023-09-17T06:30:22.090Z,,0,,,3759,completion,,,,,false,,,,919711,919711,915935,915923,915952,919735,8,400,,,
trial,html.Screen,4_82_0,2023-09-17T06:30:24.995Z,,0,2,,2896,response,ISIC_7860137.JPG,4,ISIC_0014327.JPG,ISIC_7860137.JPG,false,1,keypress(m),500,922616,922615,919719,919711,919735,922652,8,400,33,,ISIC_0014327.JPG
break,html.Screen,4_82_1,2023-09-17T06:30:24.996Z,,0,,,NaN,,,,,,false,,,,922616,922616,,922616,,922652,8,400,,,
break_continue,html.Screen,4_82_2,2023-09-17T06:30:24.996Z,,0,,,NaN,,,,,,false,,,,922617.0000000001,922617.0000000001,,922617.0000000001,,922652,8,400,,,
sequence,flow.Sequence,4_82,2023-09-17T06:30:24.996Z,,0,,,2882.0000000001164,completion,,,,,false,,,,922617.0000000001,922617.0000000001,919719,919711,919735,922652,8,400,,,
trial,html.Screen,4_83_0,2023-09-17T06:30:28.516Z,,0,2,,3501,response,ISIC_0014026.JPG,4,ISIC_4911407.JPG,ISIC_0014026.JPG,false,1,keypress(m),500,926137,926136,922635,922617.0000000001,922652,926169,8,400,34,,ISIC_4911407.JPG
break,html.Screen,4_83_1,2023-09-17T06:30:28.517Z,,0,,,NaN,,,,,,false,,,,926138,926137,,926137,,926169,8,400,,,
break_continue,html.Screen,4_83_2,2023-09-17T06:30:28.517Z,,0,,,NaN,,,,,,false,,,,926138,926138,,926138,,926169,8,400,,,
sequence,flow.Sequence,4_83,2023-09-17T06:30:28.517Z,,0,,,3486,completion,,,,,false,,,,926138,926138,922635,922617.0000000001,922652,926169,8,400,,,
trial,html.Screen,4_84_0,2023-09-17T06:30:33.050Z,,0,2,,4519,response,ISIC_8812781.JPG,6,ISIC_0058851.JPG,ISIC_8812781.JPG,false,1,keypress(m),500,930671,930671,926152,926138,926169,930701,8,400,35,,ISIC_0058851.JPG
break,html.Screen,4_84_1,2023-09-17T06:30:33.051Z,,0,,,NaN,,,,,,false,,,,930672,930672,,930671,,930701,8,400,,,
break_continue,html.Screen,4_84_2,2023-09-17T06:30:33.051Z,,0,,,NaN,,,,,,false,,,,930672,930672,,930672,,930701,8,400,,,
sequence,flow.Sequence,4_84,2023-09-17T06:30:33.052Z,,0,,,4503,completion,,,,,false,,,,930672,930672,926152,926138,926169,930701,8,400,,,
trial,html.Screen,4_85_0,2023-09-17T06:30:36.126Z,,0,2,,3060,response,ISIC_0026812.JPG,7,ISIC_0010874.JPG,ISIC_0026812.JPG,false,1,keypress(m),500,933747.0000000001,933746,930686,930672,930701,933768,8,400,36,,ISIC_0010874.JPG
break,html.Screen,4_85_1,2023-09-17T06:30:36.127Z,,0,,,NaN,,,,,,false,,,,933748,933748,,933747.0000000001,,933768,8,400,,,
break_continue,html.Screen,4_85_2,2023-09-17T06:30:36.127Z,,0,,,NaN,,,,,,false,,,,933748,933748,,933748,,933768,8,400,,,
sequence,flow.Sequence,4_85,2023-09-17T06:30:36.127Z,,0,,,3047,completion,,,,,false,,,,933748,933748,930686,930672,930701,933768,8,400,,,
trial,html.Screen,4_86_0,2023-09-17T06:30:39.038Z,,0,2,,2906,response,ISIC_3585381.JPG,5,ISIC_0006108.JPG,ISIC_0006108.JPG,false,0,keypress(z),500,936659,936658,933752,933748,933768,936686,8,400,37,,ISIC_3585381.JPG
break,html.Screen,4_86_1,2023-09-17T06:30:39.039Z,,0,,,NaN,,,,,,false,,,,936660,936660,,936659,,936686,8,400,,,
break_continue,html.Screen,4_86_2,2023-09-17T06:30:39.039Z,,0,,,NaN,,,,,,false,,,,936660,936660,,936660,,936686,8,400,,,
sequence,flow.Sequence,4_86,2023-09-17T06:30:39.040Z,,0,,,2892,completion,,,,,false,,,,936660,936660,933752,933748,933768,936686,8,400,,,
trial,html.Screen,4_87_0,2023-09-17T06:30:42.984Z,,0,2,,3935,response,ISIC_0013243.JPG,2,ISIC_0501108.JPG,ISIC_0013243.JPG,false,1,keypress(m),500,940605,940604,936669,936660,936686,940636,8,400,38,,ISIC_0501108.JPG
break,html.Screen,4_87_1,2023-09-17T06:30:42.985Z,,0,,,NaN,,,,,,false,,,,940606,940606,,940605,,940636,8,400,,,
break_continue,html.Screen,4_87_2,2023-09-17T06:30:42.985Z,,0,,,NaN,,,,,,false,,,,940606,940606,,940606,,940636,8,400,,,
sequence,flow.Sequence,4_87,2023-09-17T06:30:42.986Z,,0,,,3920,completion,,,,,false,,,,940606,940606,936669,936660,936686,940636,8,400,,,
trial,html.Screen,4_88_0,2023-09-17T06:30:46.058Z,,0,2,,3060,response,ISIC_7260977.JPG,5,ISIC_0201767.JPG,ISIC_0201767.JPG,false,0,keypress(z),500,943679,943678,940618,940607,940636,943702,8,400,39,,ISIC_7260977.JPG
break,html.Screen,4_88_1,2023-09-17T06:30:46.059Z,,0,,,NaN,,,,,,false,,,,943680.0000000001,943680.0000000001,,943679,,943702,8,400,,,
break_continue,html.Screen,4_88_2,2023-09-17T06:30:46.059Z,,0,,,NaN,,,,,,false,,,,943680.0000000001,943680.0000000001,,943680.0000000001,,943702,8,400,,,
sequence,flow.Sequence,4_88,2023-09-17T06:30:46.060Z,,0,,,3044.0000000001164,completion,,,,,false,,,,943680.0000000001,943680.0000000001,940618,940607,940636,943702,8,400,,,
trial,html.Screen,4_89_0,2023-09-17T06:30:49.484Z,,0,2,,3418,response,ISIC_0070051.JPG,4,ISIC_0000572.JPG,ISIC_0000572.JPG,false,0,keypress(z),500,947104,947104,943686,943680.0000000001,943702,947136,8,400,40,,ISIC_0070051.JPG
break,html.Screen,4_89_1,2023-09-17T06:30:49.485Z,,0,,,NaN,,,,,,false,,,,947105,947105,,947105,,947136,8,400,,,
break_continue,html.Screen,4_89_2,2023-09-17T06:30:49.485Z,,0,,,NaN,,,,,,false,,,,947106,947105,,947105,,947136,8,400,,,
sequence,flow.Sequence,4_89,2023-09-17T06:30:49.485Z,,0,,,3403,completion,,,,,false,,,,947106,947105,943686,943680.0000000001,943702,947136,8,400,,,
trial,html.Screen,4_90_0,2023-09-17T06:30:54.131Z,,0,2,,4632,response,ISIC_8579259.JPG,8,ISIC_0065943.JPG,ISIC_8579259.JPG,false,1,keypress(m),500,951751,951751,947119,947106,947136,951786,8,400,41,,ISIC_0065943.JPG
break,html.Screen,4_90_1,2023-09-17T06:30:54.132Z,,0,,,NaN,,,,,,false,,,,951752.0000000001,951752.0000000001,,951752.0000000001,,951786,8,400,,,
break_continue,html.Screen,4_90_2,2023-09-17T06:30:54.132Z,,0,,,NaN,,,,,,false,,,,951753,951753,,951753,,951786,8,400,,,
sequence,flow.Sequence,4_90,2023-09-17T06:30:54.132Z,,0,,,4617,completion,,,,,false,,,,951753,951753,947119,947106,947136,951786,8,400,,,
trial,html.Screen,4_91_0,2023-09-17T06:30:58.316Z,,0,2,,4164,response,ISIC_3301933.JPG,8,ISIC_3884221.JPG,ISIC_3301933.JPG,false,1,keypress(m),500,955937,955933,951769,951753,951786,955969,8,400,42,,ISIC_3884221.JPG
break,html.Screen,4_91_1,2023-09-17T06:30:58.318Z,,0,,,NaN,,,,,,false,,,,955938,955938,,955937,,955969,8,400,,,
break_continue,html.Screen,4_91_2,2023-09-17T06:30:58.318Z,,0,,,NaN,,,,,,false,,,,955939,955939,,955938,,955969,8,400,,,
sequence,flow.Sequence,4_91,2023-09-17T06:30:58.318Z,,0,,,4153,completion,,,,,false,,,,955939,955939,951769,951753,951786,955969,8,400,,,
trial,html.Screen,4_92_0,2023-09-17T06:31:04.122Z,,0,2,,5789.000000000116,response,ISIC_3494219.JPG,1,ISIC_0027432.JPG,ISIC_0027432.JPG,false,0,keypress(z),500,961743,961742.0000000001,955953,955939,955969,961769,8,400,43,,ISIC_3494219.JPG
break,html.Screen,4_92_1,2023-09-17T06:31:04.123Z,,0,,,NaN,,,,,,false,,,,961743,961743,,961743,,961769,8,400,,,
break_continue,html.Screen,4_92_2,2023-09-17T06:31:04.123Z,,0,,,NaN,,,,,,false,,,,961744,961744,,961744,,961769,8,400,,,
sequence,flow.Sequence,4_92,2023-09-17T06:31:04.123Z,,0,,,5775,completion,,,,,false,,,,961744,961744,955953,955939,955969,961769,8,400,,,
trial,html.Screen,4_93_0,2023-09-17T06:31:07.437Z,,0,2,,3305,response,ISIC_6128108.JPG,6,ISIC_0024737.JPG,ISIC_0024737.JPG,false,0,keypress(z),500,965057,965057,961752,961744,961769,965086,8,400,44,,ISIC_6128108.JPG
break,html.Screen,4_93_1,2023-09-17T06:31:07.438Z,,0,,,NaN,,,,,,false,,,,965059,965058,,965058,,965086,8,400,,,
break_continue,html.Screen,4_93_2,2023-09-17T06:31:07.438Z,,0,,,NaN,,,,,,false,,,,965059,965059,,965059,,965086,8,400,,,
sequence,flow.Sequence,4_93,2023-09-17T06:31:07.439Z,,0,,,3290,completion,,,,,false,,,,965059,965059,961752,961744,961769,965086,8,400,,,
trial,html.Screen,4_94_0,2023-09-17T06:31:11.497Z,,0,2,,4048.0000000001164,response,ISIC_6132976.JPG,0,ISIC_4930632.JPG,ISIC_4930632.JPG,false,0,keypress(z),500,969117.0000000001,969117.0000000001,965069,965060.0000000001,965086,969153,8,400,45,,ISIC_6132976.JPG
break,html.Screen,4_94_1,2023-09-17T06:31:11.498Z,,0,,,NaN,,,,,,false,,,,969119,969118,,969118,,969153,8,400,,,
break_continue,html.Screen,4_94_2,2023-09-17T06:31:11.498Z,,0,,,NaN,,,,,,false,,,,969119,969119,,969119,,969153,8,400,,,
sequence,flow.Sequence,4_94,2023-09-17T06:31:11.498Z,,0,,,4033,completion,,,,,false,,,,969119,969119,965069,965059,965086,969153,8,400,,,
trial,html.Screen,4_95_0,2023-09-17T06:31:17.631Z,,0,2,,6115,response,ISIC_4614129.JPG,9,ISIC_0055367.JPG,ISIC_4614129.JPG,false,1,keypress(m),500,975251,975251,969136,969119,969153,975269,8,400,46,,ISIC_0055367.JPG
break,html.Screen,4_95_1,2023-09-17T06:31:17.632Z,,0,,,NaN,,,,,,false,,,,975253,975252.0000000001,,975252.0000000001,,975269,8,400,,,
break_continue,html.Screen,4_95_2,2023-09-17T06:31:17.632Z,,0,,,NaN,,,,,,false,,,,975253,975253,,975253,,975269,8,400,,,
sequence,flow.Sequence,4_95,2023-09-17T06:31:17.633Z,,0,,,6100,completion,,,,,false,,,,975253,975253,969136,969119,969153,975269,8,400,,,
trial,html.Screen,4_96_0,2023-09-17T06:31:22.975Z,,0,2,,5339,response,ISIC_0027306.JPG,6,ISIC_7766007.JPG,ISIC_7766007.JPG,false,0,keypress(z),500,980595,980595,975256,975253,975269,980619,8,400,47,,ISIC_0027306.JPG
break,html.Screen,4_96_1,2023-09-17T06:31:22.976Z,,0,,,NaN,,,,,,false,,,,980597,980596,,980596,,980619,8,400,,,
break_continue,html.Screen,4_96_2,2023-09-17T06:31:22.977Z,,0,,,NaN,,,,,,false,,,,980597,980597,,980597,,980619,8,400,,,
sequence,flow.Sequence,4_96,2023-09-17T06:31:22.977Z,,0,,,5328,completion,,,,,false,,,,980597,980597,975256,975253,975269,980619,8,400,,,
trial,html.Screen,4_97_0,2023-09-17T06:31:27.615Z,,0,2,,4633,response,ISIC_0059846.JPG,7,ISIC_3789239.JPG,ISIC_3789239.JPG,false,0,keypress(z),500,985236,985235,980602,980597,980619,985253,8,400,48,,ISIC_0059846.JPG
break,html.Screen,4_97_1,2023-09-17T06:31:27.617Z,,0,,,NaN,,,,,,false,,,,985237,985237,,985236,,985253,8,400,,,
break_continue,html.Screen,4_97_2,2023-09-17T06:31:27.617Z,,0,,,NaN,,,,,,false,,,,985238,985237,,985237,,985253,8,400,,,
sequence,flow.Sequence,4_97,2023-09-17T06:31:27.617Z,,0,,,4618,completion,,,,,false,,,,985238,985237,980602,980597,980619,985253,8,400,,,
trial,html.Screen,4_98_0,2023-09-17T06:31:31.103Z,,0,2,,3483.0000000001164,response,ISIC_2908315.JPG,4,ISIC_0056247.JPG,ISIC_2908315.JPG,false,1,keypress(m),500,988724,988723.0000000001,985240,985238,985253,988753,8,400,49,,ISIC_0056247.JPG
break,html.Screen,4_98_1,2023-09-17T06:31:31.104Z,,0,,,NaN,,,,,,false,,,,988725,988725,,988724,,988753,8,400,,,
break_continue,html.Screen,4_98_2,2023-09-17T06:31:31.105Z,,0,,,NaN,,,,,,false,,,,988725,988725,,988725,,988753,8,400,,,
sequence,flow.Sequence,4_98,2023-09-17T06:31:31.105Z,,0,,,3472,completion,,,,,false,,,,988725,988725,985240,985238,985253,988753,8,400,,,
trial,html.Screen,4_99_0,2023-09-17T06:31:34.365Z,,0,2,,3249,response,ISIC_0001152.JPG,1,ISIC_0067565.JPG,ISIC_0067565.JPG,false,0,keypress(z),500,991985,991985,988736,988725,988753,992020,8,400,50,,ISIC_0001152.JPG
break,html.Screen,4_99_1,2023-09-17T06:31:44.383Z,,0,,,10000,timeout,,,,,false,,,,1002004,1002003,992003,991986,992020,1002020,8,400,,,
break_continue,html.Screen,4_99_2,2023-09-17T06:33:26.760Z,,0,,,102350,response,,,,,false,continue,keypress(Space),,1104380,1104353,1002003,1002004,1002020,1104404,8,400,,,
sequence,flow.Sequence,4_99,2023-09-17T06:33:26.760Z,,0,,,115600,completion,,,,,false,,,,1104380,1104353,988736,988725,988753,1104404,8,400,,,
trial,html.Screen,4_100_0,2023-09-17T06:33:30.801Z,,0,3,,4033,response,ISIC_0066430.JPG,3,ISIC_0032742.JPG,ISIC_0032742.JPG,false,0,keypress(z),500,1108421,1108420,1104387,1104380,1104404,1108454,8,400,1,,ISIC_0066430.JPG
break,html.Screen,4_100_1,2023-09-17T06:33:30.802Z,,0,,,NaN,,,,,,false,,,,1108422,1108421,,1108421,,1108454,8,400,,,
break_continue,html.Screen,4_100_2,2023-09-17T06:33:30.802Z,,0,,,NaN,,,,,,false,,,,1108422,1108422,,1108422,,1108454,8,400,,,
sequence,flow.Sequence,4_100,2023-09-17T06:33:30.803Z,,0,,,4018,completion,,,,,false,,,,1108422,1108422,1104387,1104380,1104404,1108454,8,400,,,
trial,html.Screen,4_101_0,2023-09-17T06:33:34.387Z,,0,3,,3569,response,ISIC_0232101.JPG,7,ISIC_0033518.JPG,ISIC_0232101.JPG,false,1,keypress(m),500,1112007,1112006,1108437,1108422,1108454,1112037,8,400,2,,ISIC_0033518.JPG
break,html.Screen,4_101_1,2023-09-17T06:33:34.388Z,,0,,,NaN,,,,,,false,,,,1112008,1112008,,1112007,,1112037,8,400,,,
break_continue,html.Screen,4_101_2,2023-09-17T06:33:34.388Z,,0,,,NaN,,,,,,false,,,,1112008,1112008,,1112008,,1112037,8,400,,,
sequence,flow.Sequence,4_101,2023-09-17T06:33:34.388Z,,0,,,3554,completion,,,,,false,,,,1112008,1112008,1108437,1108422,1108454,1112037,8,400,,,
trial,html.Screen,4_102_0,2023-09-17T06:33:38.583Z,,0,3,,4181,response,ISIC_8094432.JPG,15,ISIC_9545819.JPG,ISIC_8094432.JPG,false,1,keypress(m),500,1116203,1116202,1112021,1112008,1112037,1116237,8,400,3,,ISIC_9545819.JPG
break,html.Screen,4_102_1,2023-09-17T06:33:38.584Z,,0,,,NaN,,,,,,false,,,,1116204,1116204,,1116203,,1116237,8,400,,,
break_continue,html.Screen,4_102_2,2023-09-17T06:33:38.585Z,,0,,,NaN,,,,,,false,,,,1116204,1116204,,1116204,,1116237,8,400,,,
sequence,flow.Sequence,4_102,2023-09-17T06:33:38.585Z,,0,,,4167,completion,,,,,false,,,,1116204,1116204,1112021,1112008,1112037,1116237,8,400,,,
trial,html.Screen,4_103_0,2023-09-17T06:33:43.340Z,,0,3,,4738,response,ISIC_0031931.JPG,9,ISIC_9210086.JPG,ISIC_9210086.JPG,false,0,keypress(z),500,1120960,1120959,1116221,1116204,1116237,1120987,8,400,4,,ISIC_0031931.JPG
break,html.Screen,4_103_1,2023-09-17T06:33:43.341Z,,0,,,NaN,,,,,,false,,,,1120961,1120961,,1120960,,1120987,8,400,,,
break_continue,html.Screen,4_103_2,2023-09-17T06:33:43.342Z,,0,,,NaN,,,,,,false,,,,1120961,1120961,,1120961,,1120987,8,400,,,
sequence,flow.Sequence,4_103,2023-09-17T06:33:43.342Z,,0,,,4724,completion,,,,,false,,,,1120961,1120961,1116221,1116204,1116237,1120987,8,400,,,
trial,html.Screen,4_104_0,2023-09-17T06:33:48.176Z,,0,3,,4824,response,ISIC_0029868.JPG,1,ISIC_0030373.JPG,ISIC_0030373.JPG,false,0,keypress(z),500,1125795,1125795,1120971,1120962,1120987,1125821,8,400,5,,ISIC_0029868.JPG
break,html.Screen,4_104_1,2023-09-17T06:33:48.176Z,,0,,,NaN,,,,,,false,,,,1125796,1125796,,1125796,,1125821,8,400,,,
break_continue,html.Screen,4_104_2,2023-09-17T06:33:48.177Z,,0,,,NaN,,,,,,false,,,,1125796,1125796,,1125796,,1125821,8,400,,,
sequence,flow.Sequence,4_104,2023-09-17T06:33:48.177Z,,0,,,4809,completion,,,,,false,,,,1125796,1125796,1120971,1120961,1120987,1125821,8,400,,,
trial,html.Screen,4_105_0,2023-09-17T06:33:55.414Z,,0,3,,7229.000000000233,response,ISIC_0026756.JPG,1,ISIC_8108099.JPG,ISIC_0026756.JPG,false,1,keypress(m),500,1133034,1133033.0000000002,1125804,1125796,1125821,1133070,8,400,6,,ISIC_8108099.JPG
break,html.Screen,4_105_1,2023-09-17T06:33:55.415Z,,0,,,NaN,,,,,,false,,,,1133035,1133035,,1133034,,1133070,8,400,,,
break_continue,html.Screen,4_105_2,2023-09-17T06:33:55.416Z,,0,,,NaN,,,,,,false,,,,1133035,1133035,,1133035,,1133070,8,400,,,
sequence,flow.Sequence,4_105,2023-09-17T06:33:55.416Z,,0,,,7214,completion,,,,,false,,,,1133035,1133035,1125804,1125796,1125821,1133070,8,400,,,
trial,html.Screen,4_106_0,2023-09-17T06:34:03.069Z,,0,3,,7634,response,ISIC_0033802.JPG,6,ISIC_2833213.JPG,ISIC_2833213.JPG,false,0,keypress(z),500,1140689,1140688,1133054,1133035,1133070,1140720,8,400,7,,ISIC_0033802.JPG
break,html.Screen,4_106_1,2023-09-17T06:34:03.070Z,,0,,,NaN,,,,,,false,,,,1140690,1140690,,1140689,,1140720,8,400,,,
break_continue,html.Screen,4_106_2,2023-09-17T06:34:03.071Z,,0,,,NaN,,,,,,false,,,,1140690,1140690,,1140690,,1140720,8,400,,,
sequence,flow.Sequence,4_106,2023-09-17T06:34:03.071Z,,0,,,7620,completion,,,,,false,,,,1140690,1140690,1133054,1133035,1133070,1140720,8,400,,,
trial,html.Screen,4_107_0,2023-09-17T06:34:06.974Z,,0,3,,3889,response,ISIC_9486917.JPG,5,ISIC_3429835.JPG,ISIC_9486917.JPG,false,1,keypress(m),500,1144593,1144593,1140704,1140690,1140720,1144620,8,400,8,,ISIC_3429835.JPG
break,html.Screen,4_107_1,2023-09-17T06:34:06.975Z,,0,,,NaN,,,,,,false,,,,1144594,1144594,,1144593,,1144620,8,400,,,
break_continue,html.Screen,4_107_2,2023-09-17T06:34:06.975Z,,0,,,NaN,,,,,,false,,,,1144595,1144595,,1144595,,1144620,8,400,,,
sequence,flow.Sequence,4_107,2023-09-17T06:34:06.976Z,,0,,,3875,completion,,,,,false,,,,1144595,1144595,1140704,1140690,1140720,1144620,8,400,,,
trial,html.Screen,4_108_0,2023-09-17T06:34:12.646Z,,0,3,,5661,response,ISIC_1944650.JPG,2,ISIC_0804420.JPG,ISIC_1944650.JPG,false,1,keypress(m),500,1150266,1150265,1144604,1144595,1144620,1150288,8,400,9,,ISIC_0804420.JPG
break,html.Screen,4_108_1,2023-09-17T06:34:12.647Z,,0,,,NaN,,,,,,false,,,,1150266,1150266,,1150266,,1150288,8,400,,,
break_continue,html.Screen,4_108_2,2023-09-17T06:34:12.647Z,,0,,,NaN,,,,,,false,,,,1150267,1150267,,1150267,,1150288,8,400,,,
sequence,flow.Sequence,4_108,2023-09-17T06:34:12.647Z,,0,,,5647,completion,,,,,false,,,,1150267,1150267,1144604,1144595,1144620,1150288,8,400,,,
trial,html.Screen,4_109_0,2023-09-17T06:34:16.697Z,,0,3,,4044,response,ISIC_0054792.JPG,12,ISIC_0032717.JPG,ISIC_0054792.JPG,false,1,keypress(m),500,1154316,1154315,1150271,1150267,1150288,1154338,8,400,10,,ISIC_0032717.JPG
break,html.Screen,4_109_1,2023-09-17T06:34:16.698Z,,0,,,NaN,,,,,,false,,,,1154317,1154317,,1154316,,1154338,8,400,,,
break_continue,html.Screen,4_109_2,2023-09-17T06:34:16.699Z,,0,,,NaN,,,,,,false,,,,1154318,1154318,,1154318,,1154338,8,400,,,
sequence,flow.Sequence,4_109,2023-09-17T06:34:16.699Z,,0,,,4030,completion,,,,,false,,,,1154318,1154318,1150271,1150267,1150288,1154338,8,400,,,
trial,html.Screen,4_110_0,2023-09-17T06:34:20.554Z,,0,3,,3853,response,ISIC_0010376.JPG,3,ISIC_0011488.JPG,ISIC_0010376.JPG,false,1,keypress(m),500,1158174,1158173,1154320,1154318,1154338,1158204,8,400,11,,ISIC_0011488.JPG
break,html.Screen,4_110_1,2023-09-17T06:34:20.556Z,,0,,,NaN,,,,,,false,,,,1158175,1158175,,1158174,,1158204,8,400,,,
break_continue,html.Screen,4_110_2,2023-09-17T06:34:20.556Z,,0,,,NaN,,,,,,false,,,,1158175,1158175,,1158175,,1158204,8,400,,,
sequence,flow.Sequence,4_110,2023-09-17T06:34:20.556Z,,0,,,3837,completion,,,,,false,,,,1158176,1158175,1154320,1154318,1154338,1158204,8,400,,,
trial,html.Screen,4_111_0,2023-09-17T06:34:23.737Z,,0,3,,3169,response,ISIC_0027956.JPG,5,ISIC_1971254.JPG,ISIC_1971254.JPG,false,0,keypress(z),500,1161356,1161356,1158187,1158176,1158204,1161388,8,400,12,,ISIC_0027956.JPG
break,html.Screen,4_111_1,2023-09-17T06:34:23.738Z,,0,,,NaN,,,,,,false,,,,1161357,1161357,,1161357,,1161388,8,400,,,
break_continue,html.Screen,4_111_2,2023-09-17T06:34:23.738Z,,0,,,NaN,,,,,,false,,,,1161357,1161357,,1161357,,1161388,8,400,,,
sequence,flow.Sequence,4_111,2023-09-17T06:34:23.738Z,,0,,,3153,completion,,,,,false,,,,1161358,1161357,1158187,1158176,1158204,1161388,8,400,,,
trial,html.Screen,4_112_0,2023-09-17T06:34:27.966Z,,0,3,,4214,response,ISIC_1228845.JPG,3,ISIC_0026392.JPG,ISIC_0026392.JPG,false,0,keypress(z),500,1165585,1165585,1161371,1161358,1161388,1165621,8,400,13,,ISIC_1228845.JPG
break,html.Screen,4_112_1,2023-09-17T06:34:27.967Z,,0,,,NaN,,,,,,false,,,,1165586,1165586,,1165585,,1165621,8,400,,,
break_continue,html.Screen,4_112_2,2023-09-17T06:34:27.967Z,,0,,,NaN,,,,,,false,,,,1165587,1165587,,1165586,,1165621,8,400,,,
sequence,flow.Sequence,4_112,2023-09-17T06:34:27.968Z,,0,,,4199,completion,,,,,false,,,,1165587,1165587,1161371,1161358,1161388,1165621,8,400,,,
trial,html.Screen,4_113_0,2023-09-17T06:34:30.938Z,,0,3,,2952,response,ISIC_0010322.JPG,2,ISIC_9983696.JPG,ISIC_9983696.JPG,false,0,keypress(z),500,1168558,1168557,1165605,1165587,1165621,1168588,8,400,14,,ISIC_0010322.JPG
break,html.Screen,4_113_1,2023-09-17T06:34:30.940Z,,0,,,NaN,,,,,,false,,,,1168559,1168559,,1168558,,1168588,8,400,,,
break_continue,html.Screen,4_113_2,2023-09-17T06:34:30.940Z,,0,,,NaN,,,,,,false,,,,1168559,1168559,,1168559,,1168588,8,400,,,
sequence,flow.Sequence,4_113,2023-09-17T06:34:30.940Z,,0,,,2938,completion,,,,,false,,,,1168559,1168559,1165605,1165587,1165621,1168588,8,400,,,
trial,html.Screen,4_114_0,2023-09-17T06:34:36.014Z,,0,3,,5062,response,ISIC_6162308.JPG,3,ISIC_4702522.JPG,ISIC_6162308.JPG,false,1,keypress(m),500,1173634,1173633,1168571,1168559,1168588,1173671,8,400,15,,ISIC_4702522.JPG
break,html.Screen,4_114_1,2023-09-17T06:34:36.015Z,,0,,,NaN,,,,,,false,,,,1173635,1173634,,1173634,,1173671,8,400,,,
break_continue,html.Screen,4_114_2,2023-09-17T06:34:36.016Z,,0,,,NaN,,,,,,false,,,,1173635,1173635,,1173635,,1173671,8,400,,,
sequence,flow.Sequence,4_114,2023-09-17T06:34:36.016Z,,0,,,5047,completion,,,,,false,,,,1173635,1173635,1168571,1168559,1168588,1173671,8,400,,,
trial,html.Screen,4_115_0,2023-09-17T06:34:39.999Z,,0,3,,3962,response,ISIC_7789452.JPG,1,ISIC_9969263.JPG,ISIC_9969263.JPG,false,0,keypress(z),500,1177618,1177617,1173655,1173635,1173671,1177655,8,400,16,,ISIC_7789452.JPG
break,html.Screen,4_115_1,2023-09-17T06:34:40.000Z,,0,,,NaN,,,,,,false,,,,1177619,1177619,,1177618,,1177655,8,400,,,
break_continue,html.Screen,4_115_2,2023-09-17T06:34:40.000Z,,0,,,NaN,,,,,,false,,,,1177619,1177619,,1177619,,1177655,8,400,,,
sequence,flow.Sequence,4_115,2023-09-17T06:34:40.000Z,,0,,,3948,completion,,,,,false,,,,1177619,1177619,1173655,1173635,1173671,1177655,8,400,,,
trial,html.Screen,4_116_0,2023-09-17T06:34:46.148Z,,0,3,,6128,response,ISIC_2253931.JPG,5,ISIC_0032265.JPG,ISIC_0032265.JPG,false,0,keypress(z),500,1183767,1183766,1177638,1177619,1177655,1183788,8,400,17,,ISIC_2253931.JPG
break,html.Screen,4_116_1,2023-09-17T06:34:46.148Z,,0,,,NaN,,,,,,false,,,,1183768,1183767,,1183767,,1183788,8,400,,,
break_continue,html.Screen,4_116_2,2023-09-17T06:34:46.149Z,,0,,,NaN,,,,,,false,,,,1183768,1183768,,1183768,,1183788,8,400,,,
sequence,flow.Sequence,4_116,2023-09-17T06:34:46.149Z,,0,,,6113,completion,,,,,false,,,,1183768,1183768,1177638,1177619,1177655,1183788,8,400,,,
trial,html.Screen,4_117_0,2023-09-17T06:34:50.558Z,,0,3,,4405,response,ISIC_0027101.JPG,2,ISIC_6875745.JPG,ISIC_6875745.JPG,false,0,keypress(z),500,1188177.0000000002,1188176,1183771,1183768,1183788,1188205,8,400,18,,ISIC_0027101.JPG
break,html.Screen,4_117_1,2023-09-17T06:34:50.559Z,,0,,,NaN,,,,,,false,,,,1188178,1188178,,1188177.0000000002,,1188205,8,400,,,
break_continue,html.Screen,4_117_2,2023-09-17T06:34:50.559Z,,0,,,NaN,,,,,,false,,,,1188179,1188178,,1188178,,1188205,8,400,,,
sequence,flow.Sequence,4_117,2023-09-17T06:34:50.560Z,,0,,,4390,completion,,,,,false,,,,1188179,1188178,1183771,1183768,1183788,1188205,8,400,,,
trial,html.Screen,4_118_0,2023-09-17T06:34:54.193Z,,0,3,,3625.000000000233,response,ISIC_6471212.JPG,5,ISIC_9187876.JPG,ISIC_9187876.JPG,false,0,keypress(z),500,1191812.0000000002,1191812.0000000002,1188187,1188179,1188205,1191838,8,400,19,,ISIC_6471212.JPG
break,html.Screen,4_118_1,2023-09-17T06:34:54.194Z,,0,,,NaN,,,,,,false,,,,1191813,1191813,,1191813,,1191838,8,400,,,
break_continue,html.Screen,4_118_2,2023-09-17T06:34:54.195Z,,0,,,NaN,,,,,,false,,,,1191814,1191814,,1191814,,1191838,8,400,,,
sequence,flow.Sequence,4_118,2023-09-17T06:34:54.195Z,,0,,,3609,completion,,,,,false,,,,1191814,1191814,1188187,1188179,1188205,1191838,8,400,,,
trial,html.Screen,4_119_0,2023-09-17T06:34:58.176Z,,0,3,,3974,response,ISIC_4530249.JPG,4,ISIC_2560463.JPG,ISIC_2560463.JPG,false,0,keypress(z),500,1195795,1195795,1191821,1191814,1191838,1195821,8,400,20,,ISIC_4530249.JPG
break,html.Screen,4_119_1,2023-09-17T06:34:58.177Z,,0,,,NaN,,,,,,false,,,,1195796,1195796,,1195795,,1195821,8,400,,,
break_continue,html.Screen,4_119_2,2023-09-17T06:34:58.178Z,,0,,,NaN,,,,,,false,,,,1195797,1195797,,1195797,,1195821,8,400,,,
sequence,flow.Sequence,4_119,2023-09-17T06:34:58.178Z,,0,,,3959,completion,,,,,false,,,,1195797,1195797,1191821,1191814,1191838,1195821,8,400,,,
trial,html.Screen,4_120_0,2023-09-17T06:35:02.474Z,,0,3,,4288,response,ISIC_7820005.JPG,0,ISIC_0063899.JPG,ISIC_0063899.JPG,false,0,keypress(z),500,1200093,1200093,1195805,1195797,1195821,1200121,8,400,21,,ISIC_7820005.JPG
break,html.Screen,4_120_1,2023-09-17T06:35:02.475Z,,0,,,NaN,,,,,,false,,,,1200094,1200094,,1200094,,1200121,8,400,,,
break_continue,html.Screen,4_120_2,2023-09-17T06:35:02.476Z,,0,,,NaN,,,,,,false,,,,1200095,1200095,,1200095,,1200121,8,400,,,
sequence,flow.Sequence,4_120,2023-09-17T06:35:02.476Z,,0,,,4274,completion,,,,,false,,,,1200095,1200095,1195805,1195797,1195821,1200121,8,400,,,
trial,html.Screen,4_121_0,2023-09-17T06:35:05.879Z,,0,3,,3393,response,ISIC_7518524.JPG,4,ISIC_0071559.JPG,ISIC_0071559.JPG,false,0,keypress(z),500,1203498,1203498,1200105,1200095,1200121,1203522,8,400,22,,ISIC_7518524.JPG
break,html.Screen,4_121_1,2023-09-17T06:35:05.880Z,,0,,,NaN,,,,,,false,,,,1203499,1203499,,1203498,,1203522,8,400,,,
break_continue,html.Screen,4_121_2,2023-09-17T06:35:05.880Z,,0,,,NaN,,,,,,false,,,,1203499,1203499,,1203499,,1203522,8,400,,,
sequence,flow.Sequence,4_121,2023-09-17T06:35:05.880Z,,0,,,3378,completion,,,,,false,,,,1203499,1203499,1200105,1200095,1200121,1203522,8,400,,,
trial,html.Screen,4_122_0,2023-09-17T06:35:13.931Z,,0,3,,8045,response,ISIC_7181296.JPG,4,ISIC_7586566.JPG,ISIC_7586566.JPG,false,0,keypress(z),500,1211550,1211549,1203504,1203499,1203522,1211571,8,400,23,,ISIC_7181296.JPG
break,html.Screen,4_122_1,2023-09-17T06:35:13.932Z,,0,,,NaN,,,,,,false,,,,1211551,1211551,,1211550,,1211571,8,400,,,
break_continue,html.Screen,4_122_2,2023-09-17T06:35:13.933Z,,0,,,NaN,,,,,,false,,,,1211552.0000000002,1211552.0000000002,,1211551,,1211571,8,400,,,
sequence,flow.Sequence,4_122,2023-09-17T06:35:13.933Z,,0,,,8030.000000000233,completion,,,,,false,,,,1211552.0000000002,1211552.0000000002,1203504,1203499,1203522,1211571,8,400,,,
trial,html.Screen,4_123_0,2023-09-17T06:35:19.847Z,,0,3,,5911,response,ISIC_7959386.JPG,3,ISIC_0034289.JPG,ISIC_7959386.JPG,false,1,keypress(m),500,1217466.0000000002,1217465,1211554,1211552.0000000002,1211571,1217487,8,400,24,,ISIC_0034289.JPG
break,html.Screen,4_123_1,2023-09-17T06:35:19.848Z,,0,,,NaN,,,,,,false,,,,1217467,1217467,,1217466.0000000002,,1217487,8,400,,,
break_continue,html.Screen,4_123_2,2023-09-17T06:35:19.848Z,,0,,,NaN,,,,,,false,,,,1217467,1217467,,1217467,,1217487,8,400,,,
sequence,flow.Sequence,4_123,2023-09-17T06:35:19.849Z,,0,,,5896,completion,,,,,false,,,,1217467,1217467,1211554,1211552.0000000002,1211571,1217487,8,400,,,
trial,html.Screen,4_124_0,2023-09-17T06:35:23.100Z,,0,3,,3248,response,ISIC_8127323.JPG,2,ISIC_0033229.JPG,ISIC_0033229.JPG,false,0,keypress(z),500,1220719,1220719,1217471,1217468,1217487,1220755,8,400,25,,ISIC_8127323.JPG
break,html.Screen,4_124_1,2023-09-17T06:35:23.102Z,,0,,,NaN,,,,,,false,,,,1220720,1220720,,1220719,,1220755,8,400,,,
break_continue,html.Screen,4_124_2,2023-09-17T06:35:23.102Z,,0,,,NaN,,,,,,false,,,,1220721,1220721,,1220721,,1220755,8,400,,,
sequence,flow.Sequence,4_124,2023-09-17T06:35:23.102Z,,0,,,3234,completion,,,,,false,,,,1220721,1220721,1217471,1217468,1217487,1220755,8,400,,,
trial,html.Screen,4_125_0,2023-09-17T06:35:25.968Z,,0,3,,2848,response,ISIC_3336353.JPG,8,ISIC_9944714.JPG,ISIC_3336353.JPG,false,1,keypress(m),500,1223587,1223586,1220738,1220721,1220755,1223622,8,400,26,,ISIC_9944714.JPG
break,html.Screen,4_125_1,2023-09-17T06:35:25.969Z,,0,,,NaN,,,,,,false,,,,1223588,1223588,,1223587,,1223622,8,400,,,
break_continue,html.Screen,4_125_2,2023-09-17T06:35:25.969Z,,0,,,NaN,,,,,,false,,,,1223588,1223588,,1223588,,1223622,8,400,,,
sequence,flow.Sequence,4_125,2023-09-17T06:35:25.969Z,,0,,,2833,completion,,,,,false,,,,1223588,1223588,1220738,1220721,1220755,1223622,8,400,,,
trial,html.Screen,4_126_0,2023-09-17T06:35:33.230Z,,0,3,,7243,response,ISIC_8535943.JPG,14,ISIC_8651765.JPG,ISIC_8535943.JPG,false,1,keypress(m),500,1230849,1230848,1223605,1223588,1223622,1230872,8,400,27,,ISIC_8651765.JPG
break,html.Screen,4_126_1,2023-09-17T06:35:33.232Z,,0,,,NaN,,,,,,false,,,,1230850.0000000002,1230850.0000000002,,1230849,,1230872,8,400,,,
break_continue,html.Screen,4_126_2,2023-09-17T06:35:33.232Z,,0,,,NaN,,,,,,false,,,,1230851,1230851,,1230851,,1230872,8,400,,,
sequence,flow.Sequence,4_126,2023-09-17T06:35:33.232Z,,0,,,7229,completion,,,,,false,,,,1230851,1230851,1223605,1223588,1223622,1230872,8,400,,,
trial,html.Screen,4_127_0,2023-09-17T06:35:38.210Z,,0,3,,4974,response,ISIC_0054670.JPG,1,ISIC_0011691.JPG,ISIC_0054670.JPG,false,1,keypress(m),500,1235829,1235829,1230855,1230851,1230872,1235855,8,400,28,,ISIC_0011691.JPG
break,html.Screen,4_127_1,2023-09-17T06:35:38.211Z,,0,,,NaN,,,,,,false,,,,1235830,1235830,,1235830,,1235855,8,400,,,
break_continue,html.Screen,4_127_2,2023-09-17T06:35:38.212Z,,0,,,NaN,,,,,,false,,,,1235831.0000000002,1235831.0000000002,,1235831.0000000002,,1235855,8,400,,,
sequence,flow.Sequence,4_127,2023-09-17T06:35:38.212Z,,0,,,4959.000000000233,completion,,,,,false,,,,1235831.0000000002,1235831.0000000002,1230855,1230851,1230872,1235855,8,400,,,
trial,html.Screen,4_128_0,2023-09-17T06:35:42.017Z,,0,3,,3796,response,ISIC_0003132.JPG,4,ISIC_0010393.JPG,ISIC_0003132.JPG,false,1,keypress(m),500,1239636,1239635,1235839,1235831.0000000002,1235855,1239672,8,400,29,,ISIC_0010393.JPG
break,html.Screen,4_128_1,2023-09-17T06:35:42.018Z,,0,,,NaN,,,,,,false,,,,1239637,1239637,,1239636,,1239672,8,400,,,
break_continue,html.Screen,4_128_2,2023-09-17T06:35:42.019Z,,0,,,NaN,,,,,,false,,,,1239637,1239637,,1239637,,1239672,8,400,,,
sequence,flow.Sequence,4_128,2023-09-17T06:35:42.019Z,,0,,,3782,completion,,,,,false,,,,1239638,1239637,1235839,1235831.0000000002,1235855,1239672,8,400,,,
trial,html.Screen,4_129_0,2023-09-17T06:35:45.961Z,,0,3,,3924,response,ISIC_5922588.JPG,6,ISIC_0280912.JPG,ISIC_0280912.JPG,false,0,keypress(z),500,1243580,1243579,1239655,1239638,1239672,1243605,8,400,30,,ISIC_5922588.JPG
break,html.Screen,4_129_1,2023-09-17T06:35:45.962Z,,0,,,NaN,,,,,,false,,,,1243581.0000000002,1243581.0000000002,,1243580,,1243605,8,400,,,
break_continue,html.Screen,4_129_2,2023-09-17T06:35:45.962Z,,0,,,NaN,,,,,,false,,,,1243581.0000000002,1243581.0000000002,,1243581.0000000002,,1243605,8,400,,,
sequence,flow.Sequence,4_129,2023-09-17T06:35:45.963Z,,0,,,3909.000000000233,completion,,,,,false,,,,1243581.0000000002,1243581.0000000002,1239655,1239638,1239672,1243605,8,400,,,
trial,html.Screen,4_130_0,2023-09-17T06:35:49.080Z,,0,3,,3109,response,ISIC_0069698.JPG,4,ISIC_0025409.JPG,ISIC_0069698.JPG,false,1,keypress(m),500,1246698,1246698,1243589,1243582,1243605,1246722,8,400,31,,ISIC_0025409.JPG
break,html.Screen,4_130_1,2023-09-17T06:35:49.081Z,,0,,,NaN,,,,,,false,,,,1246699,1246699,,1246699,,1246722,8,400,,,
break_continue,html.Screen,4_130_2,2023-09-17T06:35:49.081Z,,0,,,NaN,,,,,,false,,,,1246700,1246700,,1246699,,1246722,8,400,,,
sequence,flow.Sequence,4_130,2023-09-17T06:35:49.081Z,,0,,,3095,completion,,,,,false,,,,1246700,1246700,1243589,1243582,1243605,1246722,8,400,,,
trial,html.Screen,4_131_0,2023-09-17T06:35:53.328Z,,0,3,,4241,response,ISIC_2222091.JPG,6,ISIC_5790319.JPG,ISIC_2222091.JPG,false,1,keypress(m),500,1250947,1250946,1246705,1246700,1246722,1250972,8,400,32,,ISIC_5790319.JPG
break,html.Screen,4_131_1,2023-09-17T06:35:53.329Z,,0,,,NaN,,,,,,false,,,,1250948,1250948,,1250947,,1250972,8,400,,,
break_continue,html.Screen,4_131_2,2023-09-17T06:35:53.329Z,,0,,,NaN,,,,,,false,,,,1250948,1250948,,1250948,,1250972,8,400,,,
sequence,flow.Sequence,4_131,2023-09-17T06:35:53.330Z,,0,,,4226,completion,,,,,false,,,,1250948,1250948,1246705,1246700,1246722,1250972,8,400,,,
trial,html.Screen,4_132_0,2023-09-17T06:35:57.072Z,,0,3,,3735,response,ISIC_0071754.JPG,17,ISIC_0033025.JPG,ISIC_0071754.JPG,false,1,keypress(m),500,1254691,1254690,1250955,1250948,1250972,1254722,8,400,33,,ISIC_0033025.JPG
break,html.Screen,4_132_1,2023-09-17T06:35:57.074Z,,0,,,NaN,,,,,,false,,,,1254692,1254692,,1254691,,1254722,8,400,,,
break_continue,html.Screen,4_132_2,2023-09-17T06:35:57.074Z,,0,,,NaN,,,,,,false,,,,1254693,1254692,,1254692,,1254722,8,400,,,
sequence,flow.Sequence,4_132,2023-09-17T06:35:57.074Z,,0,,,3720,completion,,,,,false,,,,1254693,1254692,1250955,1250948,1250972,1254722,8,400,,,
trial,html.Screen,4_133_0,2023-09-17T06:36:00.826Z,,0,3,,3740,response,ISIC_0070948.JPG,2,ISIC_1550721.JPG,ISIC_1550721.JPG,false,0,keypress(z),500,1258445,1258445,1254705,1254693,1254722,1258472,8,400,34,,ISIC_0070948.JPG
break,html.Screen,4_133_1,2023-09-17T06:36:00.827Z,,0,,,NaN,,,,,,false,,,,1258446,1258446,,1258445,,1258472,8,400,,,
break_continue,html.Screen,4_133_2,2023-09-17T06:36:00.828Z,,0,,,NaN,,,,,,false,,,,1258446,1258446,,1258446,,1258472,8,400,,,
sequence,flow.Sequence,4_133,2023-09-17T06:36:00.828Z,,0,,,3724,completion,,,,,false,,,,1258447,1258446,1254705,1254693,1254722,1258472,8,400,,,
trial,html.Screen,4_134_0,2023-09-17T06:36:04.540Z,,0,3,,3703.000000000233,response,ISIC_0060351.JPG,1,ISIC_0031926.JPG,ISIC_0060351.JPG,false,1,keypress(m),500,1262159,1262158.0000000002,1258455,1258447,1258472,1262189,8,400,35,,ISIC_0031926.JPG
break,html.Screen,4_134_1,2023-09-17T06:36:04.541Z,,0,,,NaN,,,,,,false,,,,1262160,1262160,,1262159,,1262189,8,400,,,
break_continue,html.Screen,4_134_2,2023-09-17T06:36:04.541Z,,0,,,NaN,,,,,,false,,,,1262160,1262160,,1262160,,1262189,8,400,,,
sequence,flow.Sequence,4_134,2023-09-17T06:36:04.541Z,,0,,,3688,completion,,,,,false,,,,1262160,1262160,1258455,1258447,1258472,1262189,8,400,,,
trial,html.Screen,4_135_0,2023-09-17T06:36:07.583Z,,0,3,,3030,response,ISIC_0033320.JPG,2,ISIC_0029839.JPG,ISIC_0033320.JPG,false,1,keypress(m),500,1265201,1265201,1262171,1262160,1262189,1265239,8,400,36,,ISIC_0029839.JPG
break,html.Screen,4_135_1,2023-09-17T06:36:07.584Z,,0,,,NaN,,,,,,false,,,,1265202,1265202,,1265202,,1265239,8,400,,,
break_continue,html.Screen,4_135_2,2023-09-17T06:36:07.584Z,,0,,,NaN,,,,,,false,,,,1265203,1265203,,1265202,,1265239,8,400,,,
sequence,flow.Sequence,4_135,2023-09-17T06:36:07.584Z,,0,,,3014,completion,,,,,false,,,,1265203,1265203,1262171,1262160,1262189,1265239,8,400,,,
trial,html.Screen,4_136_0,2023-09-17T06:36:10.495Z,,0,3,,2891,response,ISIC_0033029.JPG,3,ISIC_7342840.JPG,ISIC_7342840.JPG,false,0,keypress(Z),500,1268113,1268113,1265222,1265203,1265239,1268139,8,400,37,,ISIC_0033029.JPG
break,html.Screen,4_136_1,2023-09-17T06:36:10.496Z,,0,,,NaN,,,,,,false,,,,1268114,1268114,,1268113,,1268139,8,400,,,
break_continue,html.Screen,4_136_2,2023-09-17T06:36:10.496Z,,0,,,NaN,,,,,,false,,,,1268115,1268115,,1268114,,1268139,8,400,,,
sequence,flow.Sequence,4_136,2023-09-17T06:36:10.496Z,,0,,,2876,completion,,,,,false,,,,1268115,1268115,1265222,1265203,1265239,1268139,8,400,,,
trial,html.Screen,4_137_0,2023-09-17T06:36:22.004Z,,0,3,,11517,timeout,ISIC_0059357.JPG,0,ISIC_2457859.JPG,,false,,,500,1279623,1279622,1268122,1268115,1268139,1279656,8,400,38,,
break,html.Screen,4_137_1,2023-09-17T06:36:22.005Z,,0,,,NaN,,,,,,false,,,,1279624,1279624,,1279623,,1279656,8,400,,,
break_continue,html.Screen,4_137_2,2023-09-17T06:36:22.006Z,,0,,,NaN,,,,,,false,,,,1279624,1279624,,1279624,,1279656,8,400,,,
sequence,flow.Sequence,4_137,2023-09-17T06:36:22.006Z,,0,,,11485,completion,,,,,false,,,,1279625,1279624,1268122,1268115,1268139,1279656,8,400,,,
trial,html.Screen,4_138_0,2023-09-17T06:36:27.220Z,,0,3,,5200,response,ISIC_0011830.JPG,5,ISIC_5049165.JPG,ISIC_5049165.JPG,false,0,keypress(Z),500,1284838,1284838,1279638,1279625,1279656,1284872,8,400,39,,ISIC_0011830.JPG
break,html.Screen,4_138_1,2023-09-17T06:36:27.221Z,,0,,,NaN,,,,,,false,,,,1284839,1284839,,1284839,,1284872,8,400,,,
break_continue,html.Screen,4_138_2,2023-09-17T06:36:27.221Z,,0,,,NaN,,,,,,false,,,,1284840,1284839,,1284839,,1284872,8,400,,,
sequence,flow.Sequence,4_138,2023-09-17T06:36:27.221Z,,0,,,5183,completion,,,,,false,,,,1284840,1284839,1279638,1279625,1279656,1284872,8,400,,,
trial,html.Screen,4_139_0,2023-09-17T06:36:31.542Z,,0,3,,4304,response,ISIC_0060308.JPG,7,ISIC_0026082.JPG,ISIC_0026082.JPG,false,0,keypress(Z),500,1289160,1289160,1284856,1284840,1284872,1289189,8,400,40,,ISIC_0060308.JPG
break,html.Screen,4_139_1,2023-09-17T06:36:31.543Z,,0,,,NaN,,,,,,false,,,,1289161,1289161,,1289160,,1289189,8,400,,,
break_continue,html.Screen,4_139_2,2023-09-17T06:36:31.543Z,,0,,,NaN,,,,,,false,,,,1289162,1289161,,1289161,,1289189,8,400,,,
sequence,flow.Sequence,4_139,2023-09-17T06:36:31.543Z,,0,,,4289,completion,,,,,false,,,,1289162,1289161,1284856,1284840,1284872,1289189,8,400,,,
trial,html.Screen,4_140_0,2023-09-17T06:36:39.445Z,,0,3,,7890.000000000233,response,ISIC_8755163.JPG,6,ISIC_8052769.JPG,ISIC_8052769.JPG,false,0,keypress(Z),500,1297063,1297062.0000000002,1289172,1289162,1289189,1297089,8,400,41,,ISIC_8755163.JPG
break,html.Screen,4_140_1,2023-09-17T06:36:39.445Z,,0,,,NaN,,,,,,false,,,,1297064,1297064,,1297063,,1297089,8,400,,,
break_continue,html.Screen,4_140_2,2023-09-17T06:36:39.446Z,,0,,,NaN,,,,,,false,,,,1297064,1297064,,1297064,,1297089,8,400,,,
sequence,flow.Sequence,4_140,2023-09-17T06:36:39.446Z,,0,,,7875,completion,,,,,false,,,,1297064,1297064,1289172,1289162,1289189,1297089,8,400,,,
trial,html.Screen,4_141_0,2023-09-17T06:36:46.112Z,,0,3,,6658,response,ISIC_0069492.JPG,1,ISIC_4286715.JPG,ISIC_4286715.JPG,false,0,keypress(Z),500,1303730,1303730,1297072,1297064,1297089,1303756,8,400,42,,ISIC_0069492.JPG
break,html.Screen,4_141_1,2023-09-17T06:36:46.113Z,,0,,,NaN,,,,,,false,,,,1303732,1303731,,1303731,,1303756,8,400,,,
break_continue,html.Screen,4_141_2,2023-09-17T06:36:46.113Z,,0,,,NaN,,,,,,false,,,,1303732,1303732,,1303732,,1303756,8,400,,,
sequence,flow.Sequence,4_141,2023-09-17T06:36:46.114Z,,0,,,6643,completion,,,,,false,,,,1303732,1303732,1297072,1297064,1297089,1303756,8,400,,,
trial,html.Screen,4_142_0,2023-09-17T06:36:50.821Z,,0,3,,4700,response,ISIC_9312264.JPG,4,ISIC_4539674.JPG,ISIC_4539674.JPG,false,0,keypress(Z),500,1308439,1308439,1303739,1303732,1303756,1308473,8,400,43,,ISIC_9312264.JPG
break,html.Screen,4_142_1,2023-09-17T06:36:50.824Z,,0,,,NaN,,,,,,false,,,,1308442,1308442,,1308441,,1308473,8,400,,,
break_continue,html.Screen,4_142_2,2023-09-17T06:36:50.824Z,,0,,,NaN,,,,,,false,,,,1308442,1308442,,1308442,,1308473,8,400,,,
sequence,flow.Sequence,4_142,2023-09-17T06:36:50.824Z,,0,,,4686,completion,,,,,false,,,,1308442,1308442,1303739,1303732,1303756,1308473,8,400,,,
trial,html.Screen,4_143_0,2023-09-17T06:36:55.834Z,,0,3,,4996,response,ISIC_3073339.JPG,7,ISIC_7914631.JPG,ISIC_7914631.JPG,false,0,keypress(Z),500,1313453,1313452,1308456,1308442,1308473,1313489,8,400,44,,ISIC_3073339.JPG
break,html.Screen,4_143_1,2023-09-17T06:36:55.835Z,,0,,,NaN,,,,,,false,,,,1313454,1313453,,1313453,,1313489,8,400,,,
break_continue,html.Screen,4_143_2,2023-09-17T06:36:55.836Z,,0,,,NaN,,,,,,false,,,,1313454,1313454,,1313454,,1313489,8,400,,,
sequence,flow.Sequence,4_143,2023-09-17T06:36:55.836Z,,0,,,4981,completion,,,,,false,,,,1313454,1313454,1308456,1308442,1308473,1313489,8,400,,,
trial,html.Screen,4_144_0,2023-09-17T06:37:01.336Z,,0,3,,5482,response,ISIC_0012069.JPG,4,ISIC_0011012.JPG,ISIC_0011012.JPG,false,0,keypress(Z),500,1318955,1318954,1313472,1313454,1313489,1318989,8,400,45,,ISIC_0012069.JPG
break,html.Screen,4_144_1,2023-09-17T06:37:01.337Z,,0,,,NaN,,,,,,false,,,,1318956.0000000002,1318955,,1318955,,1318989,8,400,,,
break_continue,html.Screen,4_144_2,2023-09-17T06:37:01.338Z,,0,,,NaN,,,,,,false,,,,1318956.0000000002,1318956.0000000002,,1318956.0000000002,,1318989,8,400,,,
sequence,flow.Sequence,4_144,2023-09-17T06:37:01.338Z,,0,,,5467.000000000233,completion,,,,,false,,,,1318956.0000000002,1318956.0000000002,1313472,1313454,1313489,1318989,8,400,,,
trial,html.Screen,4_145_0,2023-09-17T06:37:07.310Z,,0,3,,5955,response,ISIC_0064180.JPG,11,ISIC_7937065.JPG,ISIC_7937065.JPG,false,0,keypress(Z),500,1324929,1324928,1318973,1318956.0000000002,1318989,1324956,8,400,46,,ISIC_0064180.JPG
break,html.Screen,4_145_1,2023-09-17T06:37:07.312Z,,0,,,NaN,,,,,,false,,,,1324930,1324930,,1324929,,1324956,8,400,,,
break_continue,html.Screen,4_145_2,2023-09-17T06:37:07.312Z,,0,,,NaN,,,,,,false,,,,1324930,1324930,,1324930,,1324956,8,400,,,
sequence,flow.Sequence,4_145,2023-09-17T06:37:07.312Z,,0,,,5941,completion,,,,,false,,,,1324931,1324930,1318973,1318956.0000000002,1318989,1324956,8,400,,,
trial,html.Screen,4_146_0,2023-09-17T06:37:13.721Z,,0,3,,6400,response,ISIC_4713698.JPG,4,ISIC_9865814.JPG,ISIC_9865814.JPG,false,0,keypress(Z),500,1331339,1331339,1324939,1324931,1324956,1331372,8,400,47,,ISIC_4713698.JPG
break,html.Screen,4_146_1,2023-09-17T06:37:13.722Z,,0,,,NaN,,,,,,false,,,,1331340,1331340,,1331339,,1331372,8,400,,,
break_continue,html.Screen,4_146_2,2023-09-17T06:37:13.723Z,,0,,,NaN,,,,,,false,,,,1331341.0000000002,1331341.0000000002,,1331341.0000000002,,1331372,8,400,,,
sequence,flow.Sequence,4_146,2023-09-17T06:37:13.723Z,,0,,,6385.000000000233,completion,,,,,false,,,,1331341.0000000002,1331341.0000000002,1324939,1324931,1324956,1331372,8,400,,,
trial,html.Screen,4_147_0,2023-09-17T06:37:19.094Z,,0,3,,5356,response,ISIC_6654619.JPG,3,ISIC_0000145.JPG,ISIC_0000145.JPG,false,0,keypress(Z),500,1336712,1336712,1331356,1331341.0000000002,1331372,1336740,8,400,48,,ISIC_6654619.JPG
break,html.Screen,4_147_1,2023-09-17T06:37:19.095Z,,0,,,NaN,,,,,,false,,,,1336713,1336713,,1336713,,1336740,8,400,,,
break_continue,html.Screen,4_147_2,2023-09-17T06:37:19.096Z,,0,,,NaN,,,,,,false,,,,1336714,1336714,,1336714,,1336740,8,400,,,
sequence,flow.Sequence,4_147,2023-09-17T06:37:19.096Z,,0,,,5342,completion,,,,,false,,,,1336714,1336714,1331356,1331341.0000000002,1331372,1336740,8,400,,,
trial,html.Screen,4_148_0,2023-09-17T06:37:26.198Z,,0,3,,7092,response,ISIC_0027964.JPG,6,ISIC_6458982.JPG,ISIC_6458982.JPG,false,0,keypress(Z),500,1343816,1343815,1336723,1336714,1336740,1343840,8,400,49,,ISIC_0027964.JPG
break,html.Screen,4_148_1,2023-09-17T06:37:26.200Z,,0,,,NaN,,,,,,false,,,,1343818,1343817,,1343817,,1343840,8,400,,,
break_continue,html.Screen,4_148_2,2023-09-17T06:37:26.200Z,,0,,,NaN,,,,,,false,,,,1343818,1343818,,1343818,,1343840,8,400,,,
sequence,flow.Sequence,4_148,2023-09-17T06:37:26.200Z,,0,,,7078,completion,,,,,false,,,,1343818,1343818,1336723,1336714,1336740,1343840,8,400,,,
trial,html.Screen,4_149_0,2023-09-17T06:37:30.866Z,,0,3,,4661,response,ISIC_9540825.JPG,5,ISIC_0028626.JPG,ISIC_0028626.JPG,false,0,keypress(Z),500,1348484,1348484,1343823,1343819,1343840,1348506,8,400,50,,ISIC_9540825.JPG
break,html.Screen,4_149_1,2023-09-17T06:38:38.146Z,,0,,,67284,timeout,,,,,false,,,,1415763,1415762,1348489,1348485.0000000002,1348506,1415790,8,400,,,
break_continue,html.Screen,4_149_2,2023-09-17T06:38:39.867Z,,0,,,1694.0000000002328,response,,,,,false,continue,keypress(Space),,1417484,1417456.0000000002,1415762,1415764.0000000002,1415790,1417507,8,400,,,
sequence,flow.Sequence,4_149,2023-09-17T06:38:39.867Z,,0,,,73616.00000000023,completion,,,,,false,,,,1417485.0000000002,1417456.0000000002,1343823,1343818,1343840,1417507,8,400,,,
trial,html.Screen,4_150_0,2023-09-17T06:38:44.587Z,,0,4,,4714,response,ISIC_2167209.JPG,16,ISIC_6483504.JPG,ISIC_6483504.JPG,false,0,keypress(Z),500,1422205,1422204,1417490,1417485.0000000002,1417507,1422240,8,400,1,,ISIC_2167209.JPG
break,html.Screen,4_150_1,2023-09-17T06:38:44.589Z,,0,,,NaN,,,,,,false,,,,1422207,1422206.0000000002,,1422205,,1422240,8,400,,,
break_continue,html.Screen,4_150_2,2023-09-17T06:38:44.590Z,,0,,,NaN,,,,,,false,,,,1422207,1422207,,1422207,,1422240,8,400,,,
sequence,flow.Sequence,4_150,2023-09-17T06:38:44.590Z,,0,,,4700,completion,,,,,false,,,,1422207,1422207,1417490,1417485.0000000002,1417507,1422240,8,400,,,
trial,html.Screen,4_151_0,2023-09-17T06:38:50.502Z,,0,4,,5896.000000000233,response,ISIC_0031015.JPG,8,ISIC_8699453.JPG,ISIC_8699453.JPG,false,0,keypress(z),500,1428119.0000000002,1428119.0000000002,1422223,1422208,1422240,1428157,8,400,2,,ISIC_0031015.JPG
break,html.Screen,4_151_1,2023-09-17T06:38:50.503Z,,0,,,NaN,,,,,,false,,,,1428121,1428120.0000000002,,1428120.0000000002,,1428157,8,400,,,
break_continue,html.Screen,4_151_2,2023-09-17T06:38:50.503Z,,0,,,NaN,,,,,,false,,,,1428121,1428121,,1428121,,1428157,8,400,,,
sequence,flow.Sequence,4_151,2023-09-17T06:38:50.504Z,,0,,,5881,completion,,,,,false,,,,1428121,1428121,1422223,1422208,1422240,1428157,8,400,,,
trial,html.Screen,4_152_0,2023-09-17T06:38:54.035Z,,0,4,,3511,response,ISIC_0394030.JPG,8,ISIC_1925632.JPG,ISIC_0394030.JPG,false,1,keypress(m),500,1431653,1431652,1428141,1428121,1428157,1431690,8,400,3,,ISIC_1925632.JPG
break,html.Screen,4_152_1,2023-09-17T06:38:54.036Z,,0,,,NaN,,,,,,false,,,,1431654,1431654,,1431653,,1431690,8,400,,,
break_continue,html.Screen,4_152_2,2023-09-17T06:38:54.037Z,,0,,,NaN,,,,,,false,,,,1431654,1431654,,1431654,,1431690,8,400,,,
sequence,flow.Sequence,4_152,2023-09-17T06:38:54.037Z,,0,,,3497,completion,,,,,false,,,,1431654,1431654,1428141,1428121,1428157,1431690,8,400,,,
trial,html.Screen,4_153_0,2023-09-17T06:38:58.443Z,,0,4,,4385,response,ISIC_4314089.JPG,15,ISIC_0844312.JPG,ISIC_4314089.JPG,false,1,keypress(m),500,1436060,1436059,1431674,1431654,1431690,1436091,8,400,4,,ISIC_0844312.JPG
break,html.Screen,4_153_1,2023-09-17T06:38:58.444Z,,0,,,NaN,,,,,,false,,,,1436061,1436061,,1436060,,1436091,8,400,,,
break_continue,html.Screen,4_153_2,2023-09-17T06:38:58.444Z,,0,,,NaN,,,,,,false,,,,1436061,1436061,,1436061,,1436091,8,400,,,
sequence,flow.Sequence,4_153,2023-09-17T06:38:58.444Z,,0,,,4371,completion,,,,,false,,,,1436062.0000000002,1436061,1431674,1431654,1431690,1436091,8,400,,,
trial,html.Screen,4_154_0,2023-09-17T06:39:01.515Z,,0,4,,3058,response,ISIC_2854610.JPG,5,ISIC_0029686.JPG,ISIC_2854610.JPG,false,1,keypress(m),500,1439133,1439132,1436074,1436062.0000000002,1436091,1439157,8,400,5,,ISIC_0029686.JPG
break,html.Screen,4_154_1,2023-09-17T06:39:01.516Z,,0,,,NaN,,,,,,false,,,,1439134,1439134,,1439133,,1439157,8,400,,,
break_continue,html.Screen,4_154_2,2023-09-17T06:39:01.517Z,,0,,,NaN,,,,,,false,,,,1439134,1439134,,1439134,,1439157,8,400,,,
sequence,flow.Sequence,4_154,2023-09-17T06:39:01.517Z,,0,,,3043,completion,,,,,false,,,,1439134,1439134,1436074,1436062.0000000002,1436091,1439157,8,400,,,
trial,html.Screen,4_155_0,2023-09-17T06:39:05.675Z,,0,4,,4152.000000000233,response,ISIC_3993510.JPG,2,ISIC_4701063.JPG,ISIC_4701063.JPG,false,0,keypress(z),500,1443292.0000000002,1443292.0000000002,1439140,1439134,1439157,1443324,8,400,6,,ISIC_3993510.JPG
break,html.Screen,4_155_1,2023-09-17T06:39:05.676Z,,0,,,NaN,,,,,,false,,,,1443293.0000000002,1443293.0000000002,,1443292.0000000002,,1443324,8,400,,,
break_continue,html.Screen,4_155_2,2023-09-17T06:39:05.676Z,,0,,,NaN,,,,,,false,,,,1443294,1443293.0000000002,,1443293.0000000002,,1443324,8,400,,,
