sender,sender_type,sender_id,timestamp,meta,,blockNo,condition,duration,ended_on,img_left,img_reveal,img_right,loser,practice,response,response_action,selection_duration,time_commit,time_end,time_render,time_run,time_show,time_switch,total_blocks,total_trials,trialNo,url,winner
informed_consent,html.Screen,0,2023-11-01T16:24:36.286Z,"{""labjs_version"":""20.2.4"",""labjs_build"":{""flavor"":""production"",""commit"":""f5b4a49f956347addd546a832a3327688c2c0fef""},""location"":""https://run.pavlovia.org/MurrayBennett/melanoma-2afc/?participant=67035&platform=sona"",""userAgent"":""Mozilla/5.0 (Windows NT 10.0; Win64; x64) AppleWebKit/537.36 (KHTML, like Gecko) Chrome/118.0.0.0 Safari/537.36 Edg/118.0.2088.57"",""platform"":""Win32"",""language"":""en-US"",""locale"":""en-US"",""timeZone"":""America/Chicago"",""timezoneOffset"":300,""screen_width"":1280,""screen_height"":800,""scroll_width"":1232,""scroll_height"":622,""window_innerWidth"":1232,""window_innerHeight"":670,""devicePixelRatio"":1.5}",,,,9356.679,response,,,,,,consent,click button,,11690.200000047684,11688,1964.721,2313.399999856949,2331.321,11694.119,,,,"{""participant"":""67035"",""platform"":""sona""}",
Welcome,html.Screen,1,2023-11-02T21:23:50.966Z,,,,symmetry,104359951.9809999,response,,,,,,continue,click button,,104371651.5,104371646.0999999,11677.422,11690.399999856949,11694.119,104371657.306,,,,,
trial,html.Screen,2_0_0,2023-11-02T21:24:02.453Z,,0,0,,11511.747000008821,timeout,ISIC_6997061.JPG,,ISIC_0069348.JPG,,true,,,500,104383138.70000005,104383138.5,104371640.576,104371652.5,104371657.306,104383169.053,1,6,1,,
sequence,flow.Sequence,2_0,2023-11-02T21:24:02.453Z,,0,,,11481.194000005722,completion,,,,,true,,,,104383139,104383138.5,104371640.576,104371652.39999986,104371657.306,104383169.053,1,6,,,
trial,html.Screen,2_1_0,2023-11-02T21:24:13.352Z,,0,0,,10868.4469999969,response,ISIC_0009529.JPG,,ISIC_0057368.JPG,ISIC_0057368.JPG,true,0,keypress(z),500,104394037.79999995,104394037.5,104383152.406,104383139.0999999,104383169.053,104394047.971,1,6,2,,ISIC_0009529.JPG
sequence,flow.Sequence,2_1,2023-11-02T21:24:13.352Z,,0,,,10868.4469999969,completion,,,,,true,,,,104394038.0999999,104394037.5,104383152.406,104383139,104383169.053,104394047.971,1,6,,,
trial,html.Screen,2_2_0,2023-11-02T21:24:20.270Z,,0,0,,6907.328999951482,response,ISIC_0064954.JPG,,ISIC_9758671.JPG,ISIC_9758671.JPG,true,0,keypress(z),500,104400955.70000005,104400955.29999995,104394031.266,104394038.39999986,104394047.971,104400961.871,1,6,3,,ISIC_0064954.JPG
sequence,flow.Sequence,2_2,2023-11-02T21:24:20.270Z,,0,,,6907.328999951482,completion,,,,,true,,,,104400955.89999986,104400955.29999995,104394031.266,104394038.29999995,104394047.971,104400961.871,1,6,,,
trial,html.Screen,2_3_0,2023-11-02T21:24:24.615Z,,0,0,,4338.528999850154,response,ISIC_0005785.JPG,,ISIC_0000080.JPG,ISIC_0005785.JPG,true,1,keypress(m),500,104405300.79999995,104405300.39999986,104400945.239,104400956.20000005,104400961.871,104405310.077,1,6,4,,ISIC_0000080.JPG
sequence,flow.Sequence,2_3,2023-11-02T21:24:24.615Z,,0,,,4338.528999850154,completion,,,,,true,,,,104405301.20000005,104405300.39999986,104400945.239,104400956.0999999,104400961.871,104405310.077,1,6,,,
trial,html.Screen,2_4_0,2023-11-02T21:24:28.190Z,,0,0,,3565.222999945283,response,ISIC_5390060.JPG,,ISIC_7944028.JPG,ISIC_5390060.JPG,true,1,keypress(m),500,104408875.79999995,104408875.29999995,104405293.445,104405301.39999986,104405310.077,104408891.993,1,6,5,,ISIC_7944028.JPG
sequence,flow.Sequence,2_4,2023-11-02T21:24:28.190Z,,0,,,3565.222999945283,completion,,,,,true,,,,104408876.20000005,104408875.29999995,104405293.445,104405301.29999995,104405310.077,104408891.993,1,6,,,
trial,html.Screen,2_5_0,2023-11-02T21:24:31.572Z,,0,0,,3365.6069999039173,response,ISIC_0794216.JPG,,ISIC_0010188.JPG,ISIC_0010188.JPG,true,0,keypress(z),500,104412257.70000005,104412257.5999999,104408875.47,104408876.29999995,104408891.993,104412273.882,1,6,6,,ISIC_0794216.JPG
sequence,flow.Sequence,2_5,2023-11-02T21:24:31.572Z,,0,,,3365.6069999039173,completion,,,,,true,,,,104412257.89999986,104412257.5999999,104408875.47,104408876.20000005,104408891.993,104412273.882,1,6,,,
loop,flow.Loop,2,2023-11-02T21:24:31.572Z,,,,,40600.293999910355,completion,,,,,true,,,,104412258,104412257.5999999,104371640.576,104371652.29999995,104371657.306,104412273.882,1,6,,,
exp_instructions,html.Screen,3,2023-11-02T21:24:46.507Z,,,,,14914.017999857664,response,,,,,,continue,keypress(Space),,104427188.79999995,104427187.89999986,104412257.24,104412258.0999999,104412273.882,104427201.517,,,,,
trial,html.Screen,4_0_0,2023-11-02T21:24:51.671Z,,0,1,,5150.482999995351,response,ISIC_9005623.JPG,4,ISIC_0028071.JPG,ISIC_9005623.JPG,false,1,keypress(m),500,104432352.20000005,104432352,104427174.2,104427189,104427201.517,104432365.75,8,400,1,,ISIC_0028071.JPG
break,html.Screen,4_0_1,2023-11-02T21:24:51.672Z,,0,,,NaN,,,,,,false,,,,104432353.39999986,104432353.20000005,,104432352.5,,104432365.75,8,400,,,
break_continue,html.Screen,4_0_2,2023-11-02T21:24:51.672Z,,0,,,NaN,,,,,,false,,,,104432353.70000005,104432353.5999999,,104432353.5,,104432365.75,8,400,,,
sequence,flow.Sequence,4_0,2023-11-02T21:24:51.672Z,,0,,,5152.082999899983,completion,,,,,false,,,,104432353.79999995,104432353.5999999,104427174.2,104427188.89999986,104427201.517,104432365.75,8,400,,,
trial,html.Screen,4_1_0,2023-11-02T21:25:00.321Z,,0,1,,8636.349999904633,response,ISIC_0001108.JPG,0,ISIC_4564163.JPG,ISIC_0001108.JPG,false,1,keypress(m),500,104441002.39999986,104441002.0999999,104432349.541,104432353.89999986,104432365.75,104441012.159,8,400,2,,ISIC_4564163.JPG
break,html.Screen,4_1_1,2023-11-02T21:25:00.322Z,,0,,,NaN,,,,,,false,,,,104441003.20000005,104441003.0999999,,104441002.5999999,,104441012.159,8,400,,,
break_continue,html.Screen,4_1_2,2023-11-02T21:25:00.322Z,,0,,,NaN,,,,,,false,,,,104441003.5,104441003.39999986,,104441003.39999986,,104441012.159,8,400,,,
sequence,flow.Sequence,4_1,2023-11-02T21:25:00.322Z,,0,,,8637.649999856949,completion,,,,,false,,,,104441003.5999999,104441003.39999986,104432349.541,104432353.79999995,104432365.75,104441012.159,8,400,,,
trial,html.Screen,4_2_0,2023-11-02T21:25:08.006Z,,0,1,,7675.240999862552,response,ISIC_0028512.JPG,11,ISIC_6997433.JPG,ISIC_6997433.JPG,false,0,keypress(z),500,104448687.70000005,104448687.39999986,104440995.569,104441003.70000005,104441012.159,104448692.378,8,400,3,,ISIC_0028512.JPG
break,html.Screen,4_2_1,2023-11-02T21:25:08.007Z,,0,,,NaN,,,,,,false,,,,104448688.70000005,104448688.29999995,,104448687.79999995,,104448692.378,8,400,,,
break_continue,html.Screen,4_2_2,2023-11-02T21:25:08.007Z,,0,,,NaN,,,,,,false,,,,104448689,104448688.89999986,,104448688.79999995,,104448692.378,8,400,,,
sequence,flow.Sequence,4_2,2023-11-02T21:25:08.008Z,,0,,,7676.740999862552,completion,,,,,false,,,,104448689,104448688.89999986,104440995.569,104441003.70000005,104441012.159,104448692.378,8,400,,,
trial,html.Screen,4_3_0,2023-11-02T21:25:10.831Z,,0,1,,2819.521999850869,response,ISIC_0011504.JPG,8,ISIC_0011642.JPG,ISIC_0011642.JPG,false,0,keypress(z),500,104451512.20000005,104451511.89999986,104448675.833,104448689.0999999,104448692.378,104451524.654,8,400,4,,ISIC_0011504.JPG
break,html.Screen,4_3_1,2023-11-02T21:25:10.832Z,,0,,,NaN,,,,,,false,,,,104451513.0999999,104451512.89999986,,104451512.29999995,,104451524.654,8,400,,,
break_continue,html.Screen,4_3_2,2023-11-02T21:25:10.832Z,,0,,,NaN,,,,,,false,,,,104451513.5,104451513.39999986,,104451513.29999995,,104451524.654,8,400,,,
sequence,flow.Sequence,4_3,2023-11-02T21:25:10.832Z,,0,,,2821.021999850869,completion,,,,,false,,,,104451513.5999999,104451513.39999986,104448675.833,104448689.0999999,104448692.378,104451524.654,8,400,,,
trial,html.Screen,4_4_0,2023-11-02T21:25:13.782Z,,0,1,,2938.546000048518,response,ISIC_0058198.JPG,9,ISIC_8479913.JPG,ISIC_8479913.JPG,false,0,keypress(z),500,104454463.5,104454463.20000005,104451507.796,104451513.5999999,104451524.654,104454473.4,8,400,5,,ISIC_0058198.JPG
break,html.Screen,4_4_1,2023-11-02T21:25:13.783Z,,0,,,NaN,,,,,,false,,,,104454464.5,104454464.20000005,,104454463.5999999,,104454473.4,8,400,,,
break_continue,html.Screen,4_4_2,2023-11-02T21:25:13.783Z,,0,,,NaN,,,,,,false,,,,104454464.89999986,104454464.79999995,,104454464.70000005,,104454473.4,8,400,,,
sequence,flow.Sequence,4_4,2023-11-02T21:25:13.784Z,,0,,,2940.1459999531507,completion,,,,,false,,,,104454465,104454464.79999995,104451507.796,104451513.5999999,104451524.654,104454473.4,8,400,,,
trial,html.Screen,4_5_0,2023-11-02T21:25:20.815Z,,0,1,,7023.0999999940395,response,ISIC_0024805.JPG,10,ISIC_0055513.JPG,ISIC_0024805.JPG,false,1,keypress(m),500,104461496.5999999,104461496.5,104454456.735,104454465.20000005,104454473.4,104461520.657,8,400,6,,ISIC_0055513.JPG
break,html.Screen,4_5_1,2023-11-02T21:25:20.816Z,,0,,,NaN,,,,,,false,,,,104461497.5,104461497.29999995,,104461496.89999986,,104461520.657,8,400,,,
break_continue,html.Screen,4_5_2,2023-11-02T21:25:20.816Z,,0,,,NaN,,,,,,false,,,,104461497.79999995,104461497.70000005,,104461497.70000005,,104461520.657,8,400,,,
sequence,flow.Sequence,4_5,2023-11-02T21:25:20.816Z,,0,,,7024.300000041723,completion,,,,,false,,,,104461497.89999986,104461497.70000005,104454456.735,104454465.20000005,104454473.4,104461520.657,8,400,,,
trial,html.Screen,4_6_0,2023-11-02T21:25:24.900Z,,0,1,,4060.4429998993874,response,ISIC_0025579.JPG,8,ISIC_6976570.JPG,ISIC_6976570.JPG,false,0,keypress(z),500,104465581.5,104465581.0999999,104461504.267,104461498,104461520.657,104465585.528,8,400,7,,ISIC_0025579.JPG
break,html.Screen,4_6_1,2023-11-02T21:25:24.901Z,,0,,,NaN,,,,,,false,,,,104465582.5,104465582.0999999,,104465581.5999999,,104465585.528,8,400,,,
break_continue,html.Screen,4_6_2,2023-11-02T21:25:24.901Z,,0,,,NaN,,,,,,false,,,,104465582.79999995,104465582.70000005,,104465582.5999999,,104465585.528,8,400,,,
sequence,flow.Sequence,4_6,2023-11-02T21:25:24.901Z,,0,,,4062.0430000424385,completion,,,,,false,,,,104465582.89999986,104465582.70000005,104461504.267,104461497.89999986,104461520.657,104465585.528,8,400,,,
trial,html.Screen,4_7_0,2023-11-02T21:25:27.945Z,,0,1,,3041.1720000505447,response,ISIC_0026296.JPG,9,ISIC_0061880.JPG,ISIC_0061880.JPG,false,0,keypress(z),500,104468627,104468626.70000005,104465568.964,104465582.89999986,104465585.528,104468634.337,8,400,8,,ISIC_0026296.JPG
break,html.Screen,4_7_1,2023-11-02T21:25:27.946Z,,0,,,NaN,,,,,,false,,,,104468627.89999986,104468627.5999999,,104468627.20000005,,104468634.337,8,400,,,
break_continue,html.Screen,4_7_2,2023-11-02T21:25:27.947Z,,0,,,NaN,,,,,,false,,,,104468628.39999986,104468628.29999995,,104468628.0999999,,104468634.337,8,400,,,
sequence,flow.Sequence,4_7,2023-11-02T21:25:27.947Z,,0,,,3042.7719999551773,completion,,,,,false,,,,104468628.5999999,104468628.29999995,104465568.964,104465582.89999986,104465585.528,104468634.337,8,400,,,
trial,html.Screen,4_8_0,2023-11-02T21:25:32.127Z,,0,1,,4174.062999859452,response,ISIC_2415803.JPG,9,ISIC_3492490.JPG,ISIC_3492490.JPG,false,0,keypress(z),500,104472808.70000005,104472808.39999986,104468617.858,104468628.5999999,104468634.337,104472815.988,8,400,9,,ISIC_2415803.JPG
break,html.Screen,4_8_1,2023-11-02T21:25:32.128Z,,0,,,NaN,,,,,,false,,,,104472809.5999999,104472809.39999986,,104472808.79999995,,104472815.988,8,400,,,
break_continue,html.Screen,4_8_2,2023-11-02T21:25:32.128Z,,0,,,NaN,,,,,,false,,,,104472809.89999986,104472809.79999995,,104472809.70000005,,104472815.988,8,400,,,
sequence,flow.Sequence,4_8,2023-11-02T21:25:32.128Z,,0,,,4175.46299995482,completion,,,,,false,,,,104472810,104472809.79999995,104468617.858,104468628.5999999,104468634.337,104472815.988,8,400,,,
trial,html.Screen,4_9_0,2023-11-02T21:25:37.461Z,,0,1,,5326.111999899149,response,ISIC_2377039.JPG,12,ISIC_2193761.JPG,ISIC_2377039.JPG,false,1,keypress(m),500,104478142.29999995,104478142.0999999,104472799.299,104472810,104472815.988,104478147.069,8,400,10,,ISIC_2193761.JPG
break,html.Screen,4_9_1,2023-11-02T21:25:37.462Z,,0,,,NaN,,,,,,false,,,,104478143.29999995,104478143,,104478142.5,,104478147.069,8,400,,,
break_continue,html.Screen,4_9_2,2023-11-02T21:25:37.462Z,,0,,,NaN,,,,,,false,,,,104478143.70000005,104478143.5999999,,104478143.39999986,,104478147.069,8,400,,,
sequence,flow.Sequence,4_9,2023-11-02T21:25:37.462Z,,0,,,5327.611999899149,completion,,,,,false,,,,104478143.79999995,104478143.5999999,104472799.299,104472810,104472815.988,104478147.069,8,400,,,
trial,html.Screen,4_10_0,2023-11-02T21:25:40.587Z,,0,1,,3120.7309999465942,response,ISIC_1871890.JPG,12,ISIC_0047003.JPG,ISIC_0047003.JPG,false,0,keypress(z),500,104481268.0999999,104481267.79999995,104478130.519,104478143.89999986,104478147.069,104481279.137,8,400,11,,ISIC_1871890.JPG
break,html.Screen,4_10_1,2023-11-02T21:25:40.587Z,,0,,,NaN,,,,,,false,,,,104481268.89999986,104481268.79999995,,104481268.20000005,,104481279.137,8,400,,,
break_continue,html.Screen,4_10_2,2023-11-02T21:25:40.588Z,,0,,,NaN,,,,,,false,,,,104481269.39999986,104481269.29999995,,104481269.0999999,,104481279.137,8,400,,,
sequence,flow.Sequence,4_10,2023-11-02T21:25:40.588Z,,0,,,3122.2309999465942,completion,,,,,false,,,,104481269.5999999,104481269.29999995,104478130.519,104478143.89999986,104478147.069,104481279.137,8,400,,,
trial,html.Screen,4_11_0,2023-11-02T21:25:50.595Z,,0,1,,9996.6629999578,response,ISIC_2559074.JPG,7,ISIC_0031079.JPG,ISIC_0031079.JPG,false,0,keypress(z),500,104491276.0999999,104491275.79999995,104481262.931,104481270.5999999,104481279.137,104491291.726,8,400,12,,ISIC_2559074.JPG
break,html.Screen,4_11_1,2023-11-02T21:25:50.595Z,,0,,,NaN,,,,,,false,,,,104491276.89999986,104491276.79999995,,104491276.39999986,,104491291.726,8,400,,,
break_continue,html.Screen,4_11_2,2023-11-02T21:25:50.596Z,,0,,,NaN,,,,,,false,,,,104491277.29999995,104491277.20000005,,104491277.0999999,,104491291.726,8,400,,,
sequence,flow.Sequence,4_11,2023-11-02T21:25:50.596Z,,0,,,9998.063000053167,completion,,,,,false,,,,104491277.5,104491277.20000005,104481262.931,104481270.5999999,104481279.137,104491291.726,8,400,,,
trial,html.Screen,4_12_0,2023-11-02T21:25:56.125Z,,0,1,,5514.3739999085665,response,ISIC_9859873.JPG,5,ISIC_6557194.JPG,ISIC_6557194.JPG,false,0,keypress(z),500,104496806.39999986,104496806.0999999,104491275.462,104491277.5,104491291.726,104496822.835,8,400,13,,ISIC_9859873.JPG
break,html.Screen,4_12_1,2023-11-02T21:25:56.126Z,,0,,,NaN,,,,,,false,,,,104496807.39999986,104496807.20000005,,104496806.5999999,,104496822.835,8,400,,,
break_continue,html.Screen,4_12_2,2023-11-02T21:25:56.126Z,,0,,,NaN,,,,,,false,,,,104496807.5999999,104496807.5999999,,104496807.5,,104496822.835,8,400,,,
sequence,flow.Sequence,4_12,2023-11-02T21:25:56.126Z,,0,,,5515.8739999085665,completion,,,,,false,,,,104496807.79999995,104496807.5999999,104491275.462,104491277.5,104491291.726,104496822.835,8,400,,,
trial,html.Screen,4_13_0,2023-11-02T21:25:59.575Z,,0,1,,3433.1650000065565,response,ISIC_0004015.JPG,11,ISIC_0011752.JPG,ISIC_0011752.JPG,false,0,keypress(z),500,104500256.20000005,104500256,104496806.235,104496807.79999995,104496822.835,104500271.381,8,400,14,,ISIC_0004015.JPG
break,html.Screen,4_13_1,2023-11-02T21:25:59.575Z,,0,,,NaN,,,,,,false,,,,104500256.79999995,104500256.70000005,,104500256.20000005,,104500271.381,8,400,,,
break_continue,html.Screen,4_13_2,2023-11-02T21:25:59.576Z,,0,,,NaN,,,,,,false,,,,104500257.0999999,104500257,,104500256.89999986,,104500271.381,8,400,,,
sequence,flow.Sequence,4_13,2023-11-02T21:25:59.576Z,,0,,,3434.1650000065565,completion,,,,,false,,,,104500257.20000005,104500257,104496806.235,104496807.79999995,104496822.835,104500271.381,8,400,,,
trial,html.Screen,4_14_0,2023-11-02T21:26:05.178Z,,0,1,,5587.619000002742,response,ISIC_0000371.JPG,12,ISIC_0072030.JPG,ISIC_0072030.JPG,false,0,keypress(z),500,104505859.29999995,104505859,104500254.857,104500257.20000005,104500271.381,104505869.11,8,400,15,,ISIC_0000371.JPG
break,html.Screen,4_14_1,2023-11-02T21:26:05.179Z,,0,,,NaN,,,,,,false,,,,104505860.0999999,104505859.89999986,,104505859.5,,104505869.11,8,400,,,
break_continue,html.Screen,4_14_2,2023-11-02T21:26:05.179Z,,0,,,NaN,,,,,,false,,,,104505860.5,104505860.29999995,,104505860.29999995,,104505869.11,8,400,,,
sequence,flow.Sequence,4_14,2023-11-02T21:26:05.179Z,,0,,,5588.918999955058,completion,,,,,false,,,,104505860.5999999,104505860.29999995,104500254.857,104500257.20000005,104500271.381,104505869.11,8,400,,,
trial,html.Screen,4_15_0,2023-11-02T21:26:08.276Z,,0,1,,3088.0900000482798,response,ISIC_2178689.JPG,8,ISIC_0024591.JPG,ISIC_2178689.JPG,false,1,keypress(m),500,104508957.5,104508957.20000005,104505853.27,104505860.5999999,104505869.11,104508967.915,8,400,16,,ISIC_0024591.JPG
break,html.Screen,4_15_1,2023-11-02T21:26:08.278Z,,0,,,NaN,,,,,,false,,,,104508959.0999999,104508959.0999999,,104508958.70000005,,104508967.915,8,400,,,
break_continue,html.Screen,4_15_2,2023-11-02T21:26:08.278Z,,0,,,NaN,,,,,,false,,,,104508959.39999986,104508959.39999986,,104508959.29999995,,104508967.915,8,400,,,
sequence,flow.Sequence,4_15,2023-11-02T21:26:08.278Z,,0,,,3090.289999857545,completion,,,,,false,,,,104508959.5,104508959.39999986,104505853.27,104505860.5999999,104505869.11,104508967.915,8,400,,,
trial,html.Screen,4_16_0,2023-11-02T21:26:14.042Z,,0,1,,5755.785000041127,response,ISIC_0056063.JPG,16,ISIC_0014891.JPG,ISIC_0014891.JPG,false,0,keypress(z),500,104514724,104514723.70000005,104508951.743,104508959.5999999,104508967.915,104514732.294,8,400,17,,ISIC_0056063.JPG
break,html.Screen,4_16_1,2023-11-02T21:26:14.043Z,,0,,,NaN,,,,,,false,,,,104514724.79999995,104514724.70000005,,104514724.20000005,,104514732.294,8,400,,,
break_continue,html.Screen,4_16_2,2023-11-02T21:26:14.044Z,,0,,,NaN,,,,,,false,,,,104514725.0999999,104514725.0999999,,104514724.89999986,,104514732.294,8,400,,,
sequence,flow.Sequence,4_16,2023-11-02T21:26:14.044Z,,0,,,5757.184999898076,completion,,,,,false,,,,104514725.29999995,104514725.0999999,104508951.743,104508959.5999999,104508967.915,104514732.294,8,400,,,
trial,html.Screen,4_17_0,2023-11-02T21:26:19.487Z,,0,1,,5436.206000000238,response,ISIC_5810196.JPG,7,ISIC_0058716.JPG,ISIC_0058716.JPG,false,0,keypress(z),500,104520168.79999995,104520168.5,104514715.656,104514725.29999995,104514732.294,104520179.984,8,400,18,,ISIC_5810196.JPG
break,html.Screen,4_17_1,2023-11-02T21:26:19.488Z,,0,,,NaN,,,,,,false,,,,104520169.5999999,104520169.5,,104520169,,104520179.984,8,400,,,
break_continue,html.Screen,4_17_2,2023-11-02T21:26:19.488Z,,0,,,NaN,,,,,,false,,,,104520169.89999986,104520169.89999986,,104520169.79999995,,104520179.984,8,400,,,
sequence,flow.Sequence,4_17,2023-11-02T21:26:19.489Z,,0,,,5437.605999857187,completion,,,,,false,,,,104520170.0999999,104520169.89999986,104514715.656,104514725.29999995,104514732.294,104520179.984,8,400,,,
trial,html.Screen,4_18_0,2023-11-02T21:26:22.632Z,,0,1,,3133.615999907255,response,ISIC_0010103.JPG,6,ISIC_9104982.JPG,ISIC_0010103.JPG,false,1,keypress(m),500,104523313.89999986,104523313.5999999,104520163.698,104520170.0999999,104520179.984,104523329.077,8,400,19,,ISIC_9104982.JPG
break,html.Screen,4_18_1,2023-11-02T21:26:22.633Z,,0,,,NaN,,,,,,false,,,,104523314.79999995,104523314.5,,104523314,,104523329.077,8,400,,,
break_continue,html.Screen,4_18_2,2023-11-02T21:26:22.633Z,,0,,,NaN,,,,,,false,,,,104523315,104523314.79999995,,104523314.79999995,,104523329.077,8,400,,,
sequence,flow.Sequence,4_18,2023-11-02T21:26:22.634Z,,0,,,3134.815999954939,completion,,,,,false,,,,104523315.0999999,104523314.79999995,104520163.698,104520170.0999999,104520179.984,104523329.077,8,400,,,
trial,html.Screen,4_19_0,2023-11-02T21:26:29.903Z,,0,1,,7254.922999992967,response,ISIC_7936755.JPG,28,ISIC_0014229.JPG,ISIC_7936755.JPG,false,1,keypress(m),500,104530584.20000005,104530584,104523313.003,104523315.0999999,104523329.077,104530592.549,8,400,20,,ISIC_0014229.JPG
break,html.Screen,4_19_1,2023-11-02T21:26:29.904Z,,0,,,NaN,,,,,,false,,,,104530585.0999999,104530584.89999986,,104530584.5,,104530592.549,8,400,,,
break_continue,html.Screen,4_19_2,2023-11-02T21:26:29.904Z,,0,,,NaN,,,,,,false,,,,104530585.39999986,104530585.29999995,,104530585.20000005,,104530592.549,8,400,,,
sequence,flow.Sequence,4_19,2023-11-02T21:26:29.904Z,,0,,,7256.222999945283,completion,,,,,false,,,,104530585.5,104530585.29999995,104523313.003,104523315.0999999,104523329.077,104530592.549,8,400,,,
trial,html.Screen,4_20_0,2023-11-02T21:26:33.667Z,,0,1,,3755.250999957323,response,ISIC_8214287.JPG,8,ISIC_0032476.JPG,ISIC_0032476.JPG,false,0,keypress(z),500,104534348,104534347.79999995,104530575.917,104530585.5,104530592.549,104534357.543,8,400,21,,ISIC_8214287.JPG
break,html.Screen,4_20_1,2023-11-02T21:26:33.668Z,,0,,,NaN,,,,,,false,,,,104534349,104534348.79999995,,104534348.20000005,,104534357.543,8,400,,,
break_continue,html.Screen,4_20_2,2023-11-02T21:26:33.668Z,,0,,,NaN,,,,,,false,,,,104534349.20000005,104534349.0999999,,104534349,,104534357.543,8,400,,,
sequence,flow.Sequence,4_20,2023-11-02T21:26:33.668Z,,0,,,3756.5509999096394,completion,,,,,false,,,,104534349.29999995,104534349.0999999,104530575.917,104530585.5,104530592.549,104534357.543,8,400,,,
trial,html.Screen,4_21_0,2023-11-02T21:26:39.094Z,,0,1,,5417.756999954581,response,ISIC_0029626.JPG,6,ISIC_0067170.JPG,ISIC_0029626.JPG,false,1,keypress(m),500,104539775.70000005,104539775.29999995,104534341.019,104534349.39999986,104534357.543,104539788.709,8,400,22,,ISIC_0067170.JPG
break,html.Screen,4_21_1,2023-11-02T21:26:39.095Z,,0,,,NaN,,,,,,false,,,,104539776.29999995,104539776.29999995,,104539775.79999995,,104539788.709,8,400,,,
break_continue,html.Screen,4_21_2,2023-11-02T21:26:39.095Z,,0,,,NaN,,,,,,false,,,,104539776.5999999,104539776.5999999,,104539776.39999986,,104539788.709,8,400,,,
sequence,flow.Sequence,4_21,2023-11-02T21:26:39.095Z,,0,,,5419.0569999068975,completion,,,,,false,,,,104539776.79999995,104539776.5999999,104534341.019,104534349.29999995,104534357.543,104539788.709,8,400,,,
trial,html.Screen,4_22_0,2023-11-02T21:26:42.270Z,,0,1,,3162.8909998983145,response,ISIC_9921747.JPG,6,ISIC_4448959.JPG,ISIC_9921747.JPG,false,1,keypress(m),500,104542952,104542951.5999999,104539772.702,104539776.79999995,104539788.709,104542954.053,8,400,23,,ISIC_4448959.JPG
break,html.Screen,4_22_1,2023-11-02T21:26:42.271Z,,0,,,NaN,,,,,,false,,,,104542952.70000005,104542952.5,,104542952.0999999,,104542954.053,8,400,,,
break_continue,html.Screen,4_22_2,2023-11-02T21:26:42.271Z,,0,,,NaN,,,,,,false,,,,104542953.0999999,104542953,,104542952.79999995,,104542954.053,8,400,,,
sequence,flow.Sequence,4_22,2023-11-02T21:26:42.272Z,,0,,,3164.290999993682,completion,,,,,false,,,,104542953.29999995,104542953,104539772.702,104539776.79999995,104539788.709,104542954.053,8,400,,,
trial,html.Screen,4_23_0,2023-11-02T21:26:45.399Z,,0,1,,3126.546999901533,response,ISIC_0000487.JPG,11,ISIC_0010636.JPG,ISIC_0000487.JPG,false,1,keypress(m),500,104546080.79999995,104546080.5999999,104542937.734,104542953.39999986,104542954.053,104546086.086,8,400,24,,ISIC_0010636.JPG
break,html.Screen,4_23_1,2023-11-02T21:26:45.400Z,,0,,,NaN,,,,,,false,,,,104546081.70000005,104546081.39999986,,104546081,,104546086.086,8,400,,,
break_continue,html.Screen,4_23_2,2023-11-02T21:26:45.400Z,,0,,,NaN,,,,,,false,,,,104546082,104546081.89999986,,104546081.89999986,,104546086.086,8,400,,,
sequence,flow.Sequence,4_23,2023-11-02T21:26:45.400Z,,0,,,3127.8469998538494,completion,,,,,false,,,,104546082.0999999,104546081.89999986,104542937.734,104542953.29999995,104542954.053,104546086.086,8,400,,,
trial,html.Screen,4_24_0,2023-11-02T21:26:48.555Z,,0,1,,3150.813999861479,response,ISIC_8133350.JPG,12,ISIC_0068438.JPG,ISIC_8133350.JPG,false,1,keypress(m),500,104549237.20000005,104549236.89999986,104546069.579,104546082.20000005,104546086.086,104549251.819,8,400,25,,ISIC_0068438.JPG
break,html.Screen,4_24_1,2023-11-02T21:26:48.556Z,,0,,,NaN,,,,,,false,,,,104549238.0999999,104549237.89999986,,104549237.39999986,,104549251.819,8,400,,,
break_continue,html.Screen,4_24_2,2023-11-02T21:26:48.557Z,,0,,,NaN,,,,,,false,,,,104549238.5,104549238.39999986,,104549238.29999995,,104549251.819,8,400,,,
sequence,flow.Sequence,4_24,2023-11-02T21:26:48.557Z,,0,,,3152.313999861479,completion,,,,,false,,,,104549238.5999999,104549238.39999986,104546069.579,104546082.20000005,104546086.086,104549251.819,8,400,,,
trial,html.Screen,4_25_0,2023-11-02T21:26:52.100Z,,0,1,,3529.4809999465942,response,ISIC_2272218.JPG,23,ISIC_0033337.JPG,ISIC_2272218.JPG,false,1,keypress(m),500,104552781.5999999,104552781.29999995,104549234.823,104549238.70000005,104549251.819,104552807.285,8,400,26,,ISIC_0033337.JPG
break,html.Screen,4_25_1,2023-11-02T21:26:52.101Z,,0,,,NaN,,,,,,false,,,,104552782.5999999,104552782.29999995,,104552781.70000005,,104552807.285,8,400,,,
break_continue,html.Screen,4_25_2,2023-11-02T21:26:52.101Z,,0,,,NaN,,,,,,false,,,,104552782.79999995,104552782.70000005,,104552782.70000005,,104552807.285,8,400,,,
sequence,flow.Sequence,4_25,2023-11-02T21:26:52.101Z,,0,,,3530.8810000419617,completion,,,,,false,,,,104552782.89999986,104552782.70000005,104549234.823,104549238.70000005,104549251.819,104552807.285,8,400,,,
trial,html.Screen,4_26_0,2023-11-02T21:26:55.178Z,,0,1,,3051.91500005126,response,ISIC_0029339.JPG,7,ISIC_0011366.JPG,ISIC_0029339.JPG,false,1,keypress(m),500,104555859.39999986,104555859.20000005,104552767.235,104552783,104552807.285,104555865.457,8,400,27,,ISIC_0011366.JPG
break,html.Screen,4_26_1,2023-11-02T21:26:55.179Z,,0,,,NaN,,,,,,false,,,,104555860.29999995,104555860.0999999,,104555859.70000005,,104555865.457,8,400,,,
break_continue,html.Screen,4_26_2,2023-11-02T21:26:55.179Z,,0,,,NaN,,,,,,false,,,,104555860.79999995,104555860.70000005,,104555860.5,,104555865.457,8,400,,,
sequence,flow.Sequence,4_26,2023-11-02T21:26:55.179Z,,0,,,3053.41500005126,completion,,,,,false,,,,104555860.89999986,104555860.70000005,104552767.235,104552782.89999986,104552807.285,104555865.457,8,400,,,
trial,html.Screen,4_27_0,2023-11-02T21:26:58.910Z,,0,1,,3726.542999997735,response,ISIC_0062318.JPG,1,ISIC_0060848.JPG,ISIC_0062318.JPG,false,1,keypress(m),500,104559592.29999995,104559592,104555848.959,104555860.89999986,104555865.457,104559597.239,8,400,28,,ISIC_0060848.JPG
break,html.Screen,4_27_1,2023-11-02T21:26:58.911Z,,0,,,NaN,,,,,,false,,,,104559593.0999999,104559592.89999986,,104559592.39999986,,104559597.239,8,400,,,
break_continue,html.Screen,4_27_2,2023-11-02T21:26:58.912Z,,0,,,NaN,,,,,,false,,,,104559593.39999986,104559593.29999995,,104559593.20000005,,104559597.239,8,400,,,
sequence,flow.Sequence,4_27,2023-11-02T21:26:58.912Z,,0,,,3727.8429999500513,completion,,,,,false,,,,104559593.5,104559593.29999995,104555848.959,104555860.89999986,104555865.457,104559597.239,8,400,,,
trial,html.Screen,4_28_0,2023-11-02T21:27:10.396Z,,0,1,,11512.035000011325,timeout,ISIC_4821309.JPG,5,ISIC_0010432.JPG,,false,,,500,104571077.70000005,104571077.29999995,104559581.092,104559593.5999999,104559597.239,104571109.274,8,400,29,,
break,html.Screen,4_28_1,2023-11-02T21:27:10.397Z,,0,,,NaN,,,,,,false,,,,104571078.39999986,104571078.29999995,,104571077.89999986,,104571109.274,8,400,,,
break_continue,html.Screen,4_28_2,2023-11-02T21:27:10.397Z,,0,,,NaN,,,,,,false,,,,104571078.5,104571078.5,,104571078.39999986,,104571109.274,8,400,,,
sequence,flow.Sequence,4_28,2023-11-02T21:27:10.397Z,,0,,,11481.261000007391,completion,,,,,false,,,,104571078.5999999,104571078.5,104559581.092,104559593.5,104559597.239,104571109.274,8,400,,,
trial,html.Screen,4_29_0,2023-11-02T21:27:13.845Z,,0,1,,3416.725999996066,response,ISIC_0055498.JPG,21,ISIC_0060089.JPG,ISIC_0055498.JPG,false,1,keypress(m),500,104574526.29999995,104574526,104571092.558,104571078.70000005,104571109.274,104574541.539,8,400,30,,ISIC_0060089.JPG
break,html.Screen,4_29_1,2023-11-02T21:27:13.845Z,,0,,,NaN,,,,,,false,,,,104574527.29999995,104574527,,104574526.5,,104574541.539,8,400,,,
break_continue,html.Screen,4_29_2,2023-11-02T21:27:13.846Z,,0,,,NaN,,,,,,false,,,,104574527.70000005,104574527.5999999,,104574527.39999986,,104574541.539,8,400,,,
sequence,flow.Sequence,4_29,2023-11-02T21:27:13.846Z,,0,,,3418.3259999006987,completion,,,,,false,,,,104574527.89999986,104574527.5999999,104571092.558,104571078.70000005,104571109.274,104574541.539,8,400,,,
trial,html.Screen,4_30_0,2023-11-02T21:27:17.593Z,,0,1,,3733.360999852419,response,ISIC_0032629.JPG,11,ISIC_0028220.JPG,ISIC_0028220.JPG,false,0,keypress(z),500,104578275.20000005,104578274.89999986,104574524.734,104574528,104574541.539,104578289.648,8,400,31,,ISIC_0032629.JPG
break,html.Screen,4_30_1,2023-11-02T21:27:17.594Z,,0,,,NaN,,,,,,false,,,,104578275.89999986,104578275.79999995,,104578275.39999986,,104578289.648,8,400,,,
break_continue,html.Screen,4_30_2,2023-11-02T21:27:17.594Z,,0,,,NaN,,,,,,false,,,,104578276.29999995,104578276.0999999,,104578276.0999999,,104578289.648,8,400,,,
sequence,flow.Sequence,4_30,2023-11-02T21:27:17.595Z,,0,,,3734.5609999001026,completion,,,,,false,,,,104578276.39999986,104578276.0999999,104574524.734,104574527.89999986,104574541.539,104578289.648,8,400,,,
trial,html.Screen,4_31_0,2023-11-02T21:27:20.735Z,,0,1,,3127.0520000457764,response,ISIC_7539727.JPG,32,ISIC_0070313.JPG,ISIC_0070313.JPG,false,0,keypress(z),500,104581417,104581416.70000005,104578273.027,104578276.5,104578289.648,104581421.718,8,400,32,,ISIC_7539727.JPG
break,html.Screen,4_31_1,2023-11-02T21:27:20.736Z,,0,,,NaN,,,,,,false,,,,104581418,104581417.70000005,,104581417.20000005,,104581421.718,8,400,,,
break_continue,html.Screen,4_31_2,2023-11-02T21:27:20.737Z,,0,,,NaN,,,,,,false,,,,104581418.39999986,104581418.29999995,,104581418.20000005,,104581421.718,8,400,,,
sequence,flow.Sequence,4_31,2023-11-02T21:27:20.737Z,,0,,,3128.651999950409,completion,,,,,false,,,,104581418.5,104581418.29999995,104578273.027,104578276.39999986,104578289.648,104581421.718,8,400,,,
trial,html.Screen,4_32_0,2023-11-02T21:27:23.666Z,,0,1,,2925.982000052929,response,ISIC_7334117.JPG,10,ISIC_0030856.JPG,ISIC_0030856.JPG,false,0,keypress(z),500,104584347.89999986,104584347.70000005,104581405.648,104581418.5,104581421.718,104584353.86,8,400,33,,ISIC_7334117.JPG
break,html.Screen,4_32_1,2023-11-02T21:27:23.667Z,,0,,,NaN,,,,,,false,,,,104584348.79999995,104584348.5999999,,104584348.20000005,,104584353.86,8,400,,,
break_continue,html.Screen,4_32_2,2023-11-02T21:27:23.667Z,,0,,,NaN,,,,,,false,,,,104584349.20000005,104584349.0999999,,104584349,,104584353.86,8,400,,,
sequence,flow.Sequence,4_32,2023-11-02T21:27:23.668Z,,0,,,2927.381999909878,completion,,,,,false,,,,104584349.29999995,104584349.0999999,104581405.648,104581418.5,104581421.718,104584353.86,8,400,,,
trial,html.Screen,4_33_0,2023-11-02T21:27:26.460Z,,0,1,,2787.7399999052286,response,ISIC_0010938.JPG,6,ISIC_0033186.JPG,ISIC_0010938.JPG,false,1,keypress(m),500,104587141.79999995,104587141.5999999,104584337.616,104584349.39999986,104584353.86,104587153.1,8,400,34,,ISIC_0033186.JPG
break,html.Screen,4_33_1,2023-11-02T21:27:26.461Z,,0,,,NaN,,,,,,false,,,,104587142.70000005,104587142.39999986,,104587142,,104587153.1,8,400,,,
break_continue,html.Screen,4_33_2,2023-11-02T21:27:26.461Z,,0,,,NaN,,,,,,false,,,,104587143.0999999,104587143,,104587142.89999986,,104587153.1,8,400,,,
sequence,flow.Sequence,4_33,2023-11-02T21:27:26.461Z,,0,,,2789.140000000596,completion,,,,,false,,,,104587143.29999995,104587143,104584337.616,104584349.29999995,104584353.86,104587153.1,8,400,,,
trial,html.Screen,4_34_0,2023-11-02T21:27:29.141Z,,0,1,,2669.600000053644,response,ISIC_1020369.JPG,11,ISIC_0032987.JPG,ISIC_0032987.JPG,false,0,keypress(z),500,104589822.89999986,104589822.70000005,104587136.685,104587143.39999986,104587153.1,104589834.92,8,400,35,,ISIC_1020369.JPG
break,html.Screen,4_34_1,2023-11-02T21:27:29.142Z,,0,,,NaN,,,,,,false,,,,104589823.70000005,104589823.5999999,,104589823.0999999,,104589834.92,8,400,,,
break_continue,html.Screen,4_34_2,2023-11-02T21:27:29.142Z,,0,,,NaN,,,,,,false,,,,104589824.20000005,104589823.89999986,,104589823.79999995,,104589834.92,8,400,,,
sequence,flow.Sequence,4_34,2023-11-02T21:27:29.143Z,,0,,,2670.7999998629093,completion,,,,,false,,,,104589824.29999995,104589823.89999986,104587136.685,104587143.39999986,104587153.1,104589834.92,8,400,,,
trial,html.Screen,4_35_0,2023-11-02T21:27:32.127Z,,0,1,,2973.2800000458956,response,ISIC_0031795.JPG,5,ISIC_0069248.JPG,ISIC_0069248.JPG,false,0,keypress(z),500,104592808.39999986,104592808.20000005,104589818.688,104589824.39999986,104589834.92,104592817.072,8,400,36,,ISIC_0031795.JPG
break,html.Screen,4_35_1,2023-11-02T21:27:32.128Z,,0,,,NaN,,,,,,false,,,,104592809.29999995,104592809.0999999,,104592808.70000005,,104592817.072,8,400,,,
break_continue,html.Screen,4_35_2,2023-11-02T21:27:32.128Z,,0,,,NaN,,,,,,false,,,,104592809.79999995,104592809.79999995,,104592809.5,,104592817.072,8,400,,,
sequence,flow.Sequence,4_35,2023-11-02T21:27:32.128Z,,0,,,2974.879999950528,completion,,,,,false,,,,104592810,104592809.79999995,104589818.688,104589824.39999986,104589834.92,104592817.072,8,400,,,
trial,html.Screen,4_36_0,2023-11-02T21:27:34.852Z,,0,1,,2716.527999907732,response,ISIC_2383335.JPG,6,ISIC_2259190.JPG,ISIC_2383335.JPG,false,1,keypress(m),500,104595533.79999995,104595533.5999999,104592800.908,104592810.0999999,104592817.072,104595549.596,8,400,37,,ISIC_2259190.JPG
break,html.Screen,4_36_1,2023-11-02T21:27:34.853Z,,0,,,NaN,,,,,,false,,,,104595534.70000005,104595534.5,,104595534,,104595549.596,8,400,,,
break_continue,html.Screen,4_36_2,2023-11-02T21:27:34.853Z,,0,,,NaN,,,,,,false,,,,104595535,104595534.89999986,,104595534.79999995,,104595549.596,8,400,,,
sequence,flow.Sequence,4_36,2023-11-02T21:27:34.853Z,,0,,,2717.8279998600483,completion,,,,,false,,,,104595535.0999999,104595534.89999986,104592800.908,104592810.0999999,104592817.072,104595549.596,8,400,,,
trial,html.Screen,4_37_0,2023-11-02T21:27:37.535Z,,0,1,,2666.4039999991655,response,ISIC_0028328.JPG,12,ISIC_0025409.JPG,ISIC_0025409.JPG,false,0,keypress(z),500,104598216.29999995,104598216,104595532.835,104595535.20000005,104595549.596,104598231.906,8,400,38,,ISIC_0028328.JPG
break,html.Screen,4_37_1,2023-11-02T21:27:37.535Z,,0,,,NaN,,,,,,false,,,,104598217.0999999,104598216.89999986,,104598216.5,,104598231.906,8,400,,,
break_continue,html.Screen,4_37_2,2023-11-02T21:27:37.536Z,,0,,,NaN,,,,,,false,,,,104598217.5999999,104598217.39999986,,104598217.29999995,,104598231.906,8,400,,,
sequence,flow.Sequence,4_37,2023-11-02T21:27:37.536Z,,0,,,2667.8039998561144,completion,,,,,false,,,,104598217.70000005,104598217.39999986,104595532.835,104595535.20000005,104595549.596,104598231.906,8,400,,,
trial,html.Screen,4_38_0,2023-11-02T21:27:41.973Z,,0,1,,4421.99399985373,response,ISIC_9593940.JPG,10,ISIC_0027238.JPG,ISIC_0027238.JPG,false,0,keypress(z),500,104602654.29999995,104602653.89999986,104598214.896,104598217.79999995,104598231.906,104602668.226,8,400,39,,ISIC_9593940.JPG
break,html.Screen,4_38_1,2023-11-02T21:27:41.973Z,,0,,,NaN,,,,,,false,,,,104602655.0999999,104602654.89999986,,104602654.5,,104602668.226,8,400,,,
break_continue,html.Screen,4_38_2,2023-11-02T21:27:41.974Z,,0,,,NaN,,,,,,false,,,,104602655.5,104602655.29999995,,104602655.20000005,,104602668.226,8,400,,,
sequence,flow.Sequence,4_38,2023-11-02T21:27:41.974Z,,0,,,4423.393999949098,completion,,,,,false,,,,104602655.5,104602655.29999995,104598214.896,104598217.70000005,104598231.906,104602668.226,8,400,,,
trial,html.Screen,4_39_0,2023-11-02T21:27:47.143Z,,0,1,,5156.274000003934,response,ISIC_0027432.JPG,6,ISIC_4874581.JPG,ISIC_0027432.JPG,false,1,keypress(m),500,104607824.79999995,104607824.5,104602647.031,104602655.5,104602668.226,104607827.617,8,400,40,,ISIC_4874581.JPG
break,html.Screen,4_39_1,2023-11-02T21:27:47.144Z,,0,,,NaN,,,,,,false,,,,104607825.5999999,104607825.5,,104607825.0999999,,104607827.617,8,400,,,
break_continue,html.Screen,4_39_2,2023-11-02T21:27:47.144Z,,0,,,NaN,,,,,,false,,,,104607825.79999995,104607825.79999995,,104607825.70000005,,104607827.617,8,400,,,
sequence,flow.Sequence,4_39,2023-11-02T21:27:47.144Z,,0,,,5157.57399995625,completion,,,,,false,,,,104607826,104607825.79999995,104602647.031,104602655.5,104602668.226,104607827.617,8,400,,,
trial,html.Screen,4_40_0,2023-11-02T21:27:51.295Z,,0,1,,4148.383000001311,response,ISIC_0004015.JPG,10,ISIC_7565128.JPG,ISIC_7565128.JPG,false,0,keypress(z),500,104611976.29999995,104611976,104607811.594,104607826.0999999,104607827.617,104611992.745,8,400,41,,ISIC_0004015.JPG
break,html.Screen,4_40_1,2023-11-02T21:27:51.296Z,,0,,,NaN,,,,,,false,,,,104611977.20000005,104611976.89999986,,104611976.5,,104611992.745,8,400,,,
break_continue,html.Screen,4_40_2,2023-11-02T21:27:51.296Z,,0,,,NaN,,,,,,false,,,,104611977.5999999,104611977.5,,104611977.39999986,,104611992.745,8,400,,,
sequence,flow.Sequence,4_40,2023-11-02T21:27:51.296Z,,0,,,4149.883000001311,completion,,,,,false,,,,104611977.70000005,104611977.5,104607811.594,104607826,104607827.617,104611992.745,8,400,,,
trial,html.Screen,4_41_0,2023-11-02T21:27:54.678Z,,0,1,,3367.1549998521805,response,ISIC_0032147.JPG,18,ISIC_3447331.JPG,ISIC_3447331.JPG,false,0,keypress(z),500,104615360.20000005,104615359.89999986,104611976.551,104611977.79999995,104611992.745,104615374.582,8,400,42,,ISIC_0032147.JPG
break,html.Screen,4_41_1,2023-11-02T21:27:54.679Z,,0,,,NaN,,,,,,false,,,,104615361.0999999,104615360.89999986,,104615360.39999986,,104615374.582,8,400,,,
break_continue,html.Screen,4_41_2,2023-11-02T21:27:54.680Z,,0,,,NaN,,,,,,false,,,,104615361.39999986,104615361.29999995,,104615361.20000005,,104615374.582,8,400,,,
sequence,flow.Sequence,4_41,2023-11-02T21:27:54.680Z,,0,,,3368.554999947548,completion,,,,,false,,,,104615361.39999986,104615361.29999995,104611976.551,104611977.79999995,104611992.745,104615374.582,8,400,,,
trial,html.Screen,4_42_0,2023-11-02T21:27:58.912Z,,0,1,,4218.717999950051,response,ISIC_0061884.JPG,11,ISIC_2528656.JPG,ISIC_0061884.JPG,false,1,keypress(m),500,104619593.5999999,104619593.29999995,104615358.245,104615361.5,104615374.582,104619606.141,8,400,43,,ISIC_2528656.JPG
break,html.Screen,4_42_1,2023-11-02T21:27:58.913Z,,0,,,NaN,,,,,,false,,,,104619594.29999995,104619594.20000005,,104619593.70000005,,104619606.141,8,400,,,
break_continue,html.Screen,4_42_2,2023-11-02T21:27:58.913Z,,0,,,NaN,,,,,,false,,,,104619594.5999999,104619594.5,,104619594.39999986,,104619606.141,8,400,,,
sequence,flow.Sequence,4_42,2023-11-02T21:27:58.913Z,,0,,,4219.917999997735,completion,,,,,false,,,,104619594.70000005,104619594.5,104615358.245,104615361.5,104615374.582,104619606.141,8,400,,,
trial,html.Screen,4_43_0,2023-11-02T21:28:02.218Z,,0,1,,3292.8589999973774,response,ISIC_0010023.JPG,19,ISIC_0027936.JPG,ISIC_0027936.JPG,false,0,keypress(z),500,104622899.29999995,104622899,104619590.242,104619594.70000005,104619606.141,104622904.814,8,400,44,,ISIC_0010023.JPG
break,html.Screen,4_43_1,2023-11-02T21:28:02.219Z,,0,,,NaN,,,,,,false,,,,104622900.39999986,104622900.0999999,,104622899.5,,104622904.814,8,400,,,
break_continue,html.Screen,4_43_2,2023-11-02T21:28:02.219Z,,0,,,NaN,,,,,,false,,,,104622900.79999995,104622900.5999999,,104622900.5,,104622904.814,8,400,,,
sequence,flow.Sequence,4_43,2023-11-02T21:28:02.219Z,,0,,,3294.45899990201,completion,,,,,false,,,,104622900.89999986,104622900.5999999,104619590.242,104619594.70000005,104619606.141,104622904.814,8,400,,,
trial,html.Screen,4_44_0,2023-11-02T21:28:05.248Z,,0,1,,3024.7859999090433,response,ISIC_0944273.JPG,12,ISIC_7642142.JPG,ISIC_0944273.JPG,false,1,keypress(m),500,104625929.89999986,104625929.5999999,104622888.255,104622901,104622904.814,104625937.378,8,400,45,,ISIC_7642142.JPG
break,html.Screen,4_44_1,2023-11-02T21:28:05.249Z,,0,,,NaN,,,,,,false,,,,104625930.89999986,104625930.5999999,,104625930.20000005,,104625937.378,8,400,,,
break_continue,html.Screen,4_44_2,2023-11-02T21:28:05.250Z,,0,,,NaN,,,,,,false,,,,104625931.29999995,104625931.29999995,,104625931,,104625937.378,8,400,,,
sequence,flow.Sequence,4_44,2023-11-02T21:28:05.250Z,,0,,,3026.485999956727,completion,,,,,false,,,,104625931.5999999,104625931.29999995,104622888.255,104622901,104622904.814,104625937.378,8,400,,,
trial,html.Screen,4_45_0,2023-11-02T21:28:08.374Z,,0,1,,3118.021999850869,response,ISIC_3617159.JPG,13,ISIC_0071111.JPG,ISIC_0071111.JPG,false,0,keypress(z),500,104629055.70000005,104629055.39999986,104625920.421,104625931.5999999,104625937.378,104629069.331,8,400,46,,ISIC_3617159.JPG
break,html.Screen,4_45_1,2023-11-02T21:28:08.375Z,,0,,,NaN,,,,,,false,,,,104629056.39999986,104629056.20000005,,104629055.89999986,,104629069.331,8,400,,,
break_continue,html.Screen,4_45_2,2023-11-02T21:28:08.375Z,,0,,,NaN,,,,,,false,,,,104629056.5999999,104629056.5,,104629056.5,,104629069.331,8,400,,,
sequence,flow.Sequence,4_45,2023-11-02T21:28:08.375Z,,0,,,3119.1219999939203,completion,,,,,false,,,,104629056.70000005,104629056.5,104625920.421,104625931.5999999,104625937.378,104629069.331,8,400,,,
trial,html.Screen,4_46_0,2023-11-02T21:28:11.418Z,,0,1,,3030.1689999997616,response,ISIC_9178485.JPG,11,ISIC_0000538.JPG,ISIC_9178485.JPG,false,1,keypress(m),500,104632099.79999995,104632099.5,104629052.615,104629056.79999995,104629069.331,104632125.601,8,400,47,,ISIC_0000538.JPG
break,html.Screen,4_46_1,2023-11-02T21:28:11.419Z,,0,,,NaN,,,,,,false,,,,104632100.5999999,104632100.5,,104632100,,104632125.601,8,400,,,
break_continue,html.Screen,4_46_2,2023-11-02T21:28:11.419Z,,0,,,NaN,,,,,,false,,,,104632100.89999986,104632100.79999995,,104632100.70000005,,104632125.601,8,400,,,
sequence,flow.Sequence,4_46,2023-11-02T21:28:11.419Z,,0,,,3031.468999952078,completion,,,,,false,,,,104632101,104632100.79999995,104629052.615,104629056.79999995,104629069.331,104632125.601,8,400,,,
trial,html.Screen,4_47_0,2023-11-02T21:28:14.417Z,,0,1,,2972.69899995625,response,ISIC_0066053.JPG,17,ISIC_6628544.JPG,ISIC_0066053.JPG,false,1,keypress(m),500,104635098.5999999,104635098.29999995,104632085.485,104632101.0999999,104632125.601,104635123.197,8,400,48,,ISIC_6628544.JPG
break,html.Screen,4_47_1,2023-11-02T21:28:14.418Z,,0,,,NaN,,,,,,false,,,,104635099.5,104635099.29999995,,104635098.79999995,,104635123.197,8,400,,,
break_continue,html.Screen,4_47_2,2023-11-02T21:28:14.418Z,,0,,,NaN,,,,,,false,,,,104635099.79999995,104635099.70000005,,104635099.5999999,,104635123.197,8,400,,,
sequence,flow.Sequence,4_47,2023-11-02T21:28:14.418Z,,0,,,2974.0990000516176,completion,,,,,false,,,,104635099.79999995,104635099.70000005,104632085.485,104632101,104632125.601,104635123.197,8,400,,,
trial,html.Screen,4_48_0,2023-11-02T21:28:17.877Z,,0,1,,3434.8030000030994,response,ISIC_7519627.JPG,7,ISIC_6443984.JPG,ISIC_6443984.JPG,false,0,keypress(z),500,104638558.29999995,104638558,104635083.331,104635100,104635123.197,104638565.246,8,400,49,,ISIC_7519627.JPG
break,html.Screen,4_48_1,2023-11-02T21:28:17.878Z,,0,,,NaN,,,,,,false,,,,104638559.20000005,104638559,,104638558.5,,104638565.246,8,400,,,
break_continue,html.Screen,4_48_2,2023-11-02T21:28:17.878Z,,0,,,NaN,,,,,,false,,,,104638559.79999995,104638559.5999999,,104638559.5,,104638565.246,8,400,,,
sequence,flow.Sequence,4_48,2023-11-02T21:28:17.878Z,,0,,,3436.402999907732,completion,,,,,false,,,,104638559.89999986,104638559.5999999,104635083.331,104635100,104635123.197,104638565.246,8,400,,,
trial,html.Screen,4_49_0,2023-11-02T21:28:25.339Z,,0,1,,7455.653999850154,response,ISIC_0071536.JPG,12,ISIC_3180213.JPG,ISIC_0071536.JPG,false,1,keypress(m),500,104646021.20000005,104646020.89999986,104638549.084,104638560,104638565.246,104646028.864,8,400,50,,ISIC_3180213.JPG
break,html.Screen,4_49_1,2023-11-02T21:28:35.328Z,,0,,,9996.22500000894,timeout,,,,,false,,,,104656009.5,104656008.392,104646012.011,104646021.29999995,104646028.864,104656025.089,8,400,,,
break_continue,html.Screen,4_49_2,2023-11-02T21:28:37.023Z,,0,,,1670.2109999507666,response,,,,,false,continue,keypress(Space),,104657704.79999995,104657695.29999995,104656008.392,104656009.70000005,104656025.089,104657707.356,8,400,,,
sequence,flow.Sequence,4_49,2023-11-02T21:28:37.023Z,,0,,,19130.05399994552,completion,,,,,false,,,,104657705,104657695.29999995,104638549.084,104638559.89999986,104638565.246,104657707.356,8,400,,,
trial,html.Screen,4_50_0,2023-11-02T21:28:42.822Z,,0,2,,5795.943999946117,response,ISIC_0008162.JPG,10,ISIC_0000213.JPG,ISIC_0000213.JPG,false,0,keypress(z),500,104663503.5999999,104663503.29999995,104657700.339,104657705.0999999,104657707.356,104663528.372,8,400,1,,ISIC_0008162.JPG
break,html.Screen,4_50_1,2023-11-02T21:28:42.823Z,,0,,,NaN,,,,,,false,,,,104663504.39999986,104663504.20000005,,104663503.79999995,,104663528.372,8,400,,,
break_continue,html.Screen,4_50_2,2023-11-02T21:28:42.823Z,,0,,,NaN,,,,,,false,,,,104663504.70000005,104663504.5999999,,104663504.5,,104663528.372,8,400,,,
sequence,flow.Sequence,4_50,2023-11-02T21:28:42.823Z,,0,,,5797.243999898434,completion,,,,,false,,,,104663504.79999995,104663504.5999999,104657700.339,104657705,104657707.356,104663528.372,8,400,,,
trial,html.Screen,4_51_0,2023-11-02T21:28:46.046Z,,0,2,,3199.1280000060797,response,ISIC_8496052.JPG,11,ISIC_0025418.JPG,ISIC_8496052.JPG,false,1,keypress(m),500,104666727.89999986,104666727.5,104663503.89,104663504.89999986,104663528.372,104666736.975,8,400,2,,ISIC_0025418.JPG
break,html.Screen,4_51_1,2023-11-02T21:28:46.047Z,,0,,,NaN,,,,,,false,,,,104666728.79999995,104666728.5,,104666728,,104666736.975,8,400,,,
break_continue,html.Screen,4_51_2,2023-11-02T21:28:46.047Z,,0,,,NaN,,,,,,false,,,,104666729,104666729,,104666728.89999986,,104666736.975,8,400,,,
sequence,flow.Sequence,4_51,2023-11-02T21:28:46.047Z,,0,,,3200.6280000060797,completion,,,,,false,,,,104666729.20000005,104666729,104663503.89,104663504.89999986,104663528.372,104666736.975,8,400,,,
trial,html.Screen,4_52_0,2023-11-02T21:28:49.267Z,,0,2,,3211.225000053644,response,ISIC_8911740.JPG,16,ISIC_6234702.JPG,ISIC_6234702.JPG,false,0,keypress(z),500,104669948.5,104669948.20000005,104666719.896,104666729.29999995,104666736.975,104669952.37,8,400,3,,ISIC_8911740.JPG
break,html.Screen,4_52_1,2023-11-02T21:28:49.268Z,,0,,,NaN,,,,,,false,,,,104669949.39999986,104669949.0999999,,104669948.5999999,,104669952.37,8,400,,,
break_continue,html.Screen,4_52_2,2023-11-02T21:28:49.268Z,,0,,,NaN,,,,,,false,,,,104669949.89999986,104669949.70000005,,104669949.5999999,,104669952.37,8,400,,,
sequence,flow.Sequence,4_52,2023-11-02T21:28:49.268Z,,0,,,3212.725000053644,completion,,,,,false,,,,104669950,104669949.70000005,104666719.896,104666729.29999995,104666736.975,104669952.37,8,400,,,
trial,html.Screen,4_53_0,2023-11-02T21:28:52.221Z,,0,2,,2950.0299998521805,response,ISIC_2823287.JPG,11,ISIC_0465476.JPG,ISIC_2823287.JPG,false,1,keypress(m),500,104672902.79999995,104672902.39999986,104669937.154,104669950.0999999,104669952.37,104672918.173,8,400,4,,ISIC_0465476.JPG
break,html.Screen,4_53_1,2023-11-02T21:28:52.222Z,,0,,,NaN,,,,,,false,,,,104672903.5999999,104672903.39999986,,104672902.89999986,,104672918.173,8,400,,,
break_continue,html.Screen,4_53_2,2023-11-02T21:28:52.222Z,,0,,,NaN,,,,,,false,,,,104672904,104672903.79999995,,104672903.79999995,,104672918.173,8,400,,,
sequence,flow.Sequence,4_53,2023-11-02T21:28:52.222Z,,0,,,2951.429999947548,completion,,,,,false,,,,104672904,104672903.79999995,104669937.154,104669950.0999999,104669952.37,104672918.173,8,400,,,
trial,html.Screen,4_54_0,2023-11-02T21:28:56.977Z,,0,2,,4740.527000054717,response,ISIC_0028929.JPG,5,ISIC_8484660.JPG,ISIC_0028929.JPG,false,1,keypress(m),500,104677659.0999999,104677658.70000005,104672893.222,104672904.0999999,104672918.173,104677665.89,8,400,5,,ISIC_8484660.JPG
break,html.Screen,4_54_1,2023-11-02T21:28:56.978Z,,0,,,NaN,,,,,,false,,,,104677660,104677659.79999995,,104677659.20000005,,104677665.89,8,400,,,
break_continue,html.Screen,4_54_2,2023-11-02T21:28:56.979Z,,0,,,NaN,,,,,,false,,,,104677660.20000005,104677660.0999999,,104677660.0999999,,104677665.89,8,400,,,
sequence,flow.Sequence,4_54,2023-11-02T21:28:56.979Z,,0,,,4741.926999911666,completion,,,,,false,,,,104677660.29999995,104677660.0999999,104672893.222,104672904.0999999,104672918.173,104677665.89,8,400,,,
trial,html.Screen,4_55_0,2023-11-02T21:29:01.575Z,,0,2,,4591.009999856353,response,ISIC_0013617.JPG,6,ISIC_0192596.JPG,ISIC_0013617.JPG,false,1,keypress(m),500,104682257.20000005,104682256.89999986,104677648.253,104677660.39999986,104677665.89,104682264.006,8,400,6,,ISIC_0192596.JPG
break,html.Screen,4_55_1,2023-11-02T21:29:01.576Z,,0,,,NaN,,,,,,false,,,,104682258.0999999,104682257.89999986,,104682257.29999995,,104682264.006,8,400,,,
break_continue,html.Screen,4_55_2,2023-11-02T21:29:01.577Z,,0,,,NaN,,,,,,false,,,,104682258.29999995,104682258.20000005,,104682258.0999999,,104682264.006,8,400,,,
sequence,flow.Sequence,4_55,2023-11-02T21:29:01.577Z,,0,,,4592.310000047088,completion,,,,,false,,,,104682258.39999986,104682258.20000005,104677648.253,104677660.39999986,104677665.89,104682264.006,8,400,,,
trial,html.Screen,4_56_0,2023-11-02T21:29:05.869Z,,0,2,,4286.494000002742,response,ISIC_1018265.JPG,27,ISIC_0058186.JPG,ISIC_0058186.JPG,false,0,keypress(z),500,104686550.79999995,104686550.5,104682248.679,104682258.5,104682264.006,104686562.303,8,400,7,,ISIC_1018265.JPG
break,html.Screen,4_56_1,2023-11-02T21:29:05.870Z,,0,,,NaN,,,,,,false,,,,104686551.70000005,104686551.5,,104686551,,104686562.303,8,400,,,
break_continue,html.Screen,4_56_2,2023-11-02T21:29:05.870Z,,0,,,NaN,,,,,,false,,,,104686552.20000005,104686552.0999999,,104686551.89999986,,104686562.303,8,400,,,
sequence,flow.Sequence,4_56,2023-11-02T21:29:05.871Z,,0,,,4288.093999907374,completion,,,,,false,,,,104686552.29999995,104686552.0999999,104682248.679,104682258.39999986,104682264.006,104686562.303,8,400,,,
trial,html.Screen,4_57_0,2023-11-02T21:29:09.764Z,,0,2,,3882.996999949217,response,ISIC_0066378.JPG,10,ISIC_0000519.JPG,ISIC_0000519.JPG,false,0,keypress(z),500,104690445.39999986,104690445.29999995,104686537.285,104686552.29999995,104686562.303,104690460.793,8,400,8,,ISIC_0066378.JPG
break,html.Screen,4_57_1,2023-11-02T21:29:09.764Z,,0,,,NaN,,,,,,false,,,,104690446.0999999,104690446.0999999,,104690445.5999999,,104690460.793,8,400,,,
break_continue,html.Screen,4_57_2,2023-11-02T21:29:09.765Z,,0,,,NaN,,,,,,false,,,,104690446.39999986,104690446.29999995,,104690446.29999995,,104690460.793,8,400,,,
sequence,flow.Sequence,4_57,2023-11-02T21:29:09.765Z,,0,,,3883.996999949217,completion,,,,,false,,,,104690446.5,104690446.29999995,104686537.285,104686552.29999995,104686562.303,104690460.793,8,400,,,
trial,html.Screen,4_58_0,2023-11-02T21:29:15.658Z,,0,2,,5878.8069999068975,response,ISIC_0025186.JPG,29,ISIC_1117369.JPG,ISIC_0025186.JPG,false,1,keypress(m),500,104696339.79999995,104696339.5999999,104690443.854,104690446.5999999,104690460.793,104696363.961,8,400,9,,ISIC_1117369.JPG
break,html.Screen,4_58_1,2023-11-02T21:29:15.659Z,,0,,,NaN,,,,,,false,,,,104696340.70000005,104696340.5,,104696339.89999986,,104696363.961,8,400,,,
break_continue,html.Screen,4_58_2,2023-11-02T21:29:15.659Z,,0,,,NaN,,,,,,false,,,,104696341.0999999,104696341,,104696340.89999986,,104696363.961,8,400,,,
sequence,flow.Sequence,4_58,2023-11-02T21:29:15.660Z,,0,,,5880.207000002265,completion,,,,,false,,,,104696341.20000005,104696341,104690443.854,104690446.5,104690460.793,104696363.961,8,400,,,
trial,html.Screen,4_59_0,2023-11-02T21:29:20.020Z,,0,2,,4337.838999956846,response,ISIC_8563961.JPG,7,ISIC_9860255.JPG,ISIC_8563961.JPG,false,1,keypress(m),500,104700702.0999999,104700701.79999995,104696325.022,104696341.29999995,104696363.961,104700706.532,8,400,10,,ISIC_9860255.JPG
break,html.Screen,4_59_1,2023-11-02T21:29:20.021Z,,0,,,NaN,,,,,,false,,,,104700703,104700702.70000005,,104700702.29999995,,104700706.532,8,400,,,
break_continue,html.Screen,4_59_2,2023-11-02T21:29:20.022Z,,0,,,NaN,,,,,,false,,,,104700703.5,104700703.20000005,,104700703.0999999,,104700706.532,8,400,,,
sequence,flow.Sequence,4_59,2023-11-02T21:29:20.022Z,,0,,,4339.239000052214,completion,,,,,false,,,,104700703.5999999,104700703.20000005,104696325.022,104696341.29999995,104696363.961,104700706.532,8,400,,,
trial,html.Screen,4_60_0,2023-11-02T21:29:25.280Z,,0,2,,5254.767999947071,response,ISIC_0033362.JPG,1,ISIC_6609379.JPG,ISIC_0033362.JPG,false,1,keypress(m),500,104705961.5,104705961.29999995,104700689.817,104700703.70000005,104700706.532,104705971.124,8,400,11,,ISIC_6609379.JPG
break,html.Screen,4_60_1,2023-11-02T21:29:25.281Z,,0,,,NaN,,,,,,false,,,,104705962.39999986,104705962.20000005,,104705961.70000005,,104705971.124,8,400,,,
break_continue,html.Screen,4_60_2,2023-11-02T21:29:25.281Z,,0,,,NaN,,,,,,false,,,,104705962.89999986,104705962.79999995,,104705962.5999999,,104705971.124,8,400,,,
sequence,flow.Sequence,4_60,2023-11-02T21:29:25.281Z,,0,,,5256.267999947071,completion,,,,,false,,,,104705962.89999986,104705962.79999995,104700689.817,104700703.70000005,104700706.532,104705971.124,8,400,,,
trial,html.Screen,4_61_0,2023-11-02T21:29:28.840Z,,0,2,,3550.0760000497103,response,ISIC_0027867.JPG,6,ISIC_2293230.JPG,ISIC_0027867.JPG,false,1,keypress(m),500,104709521.5,104709521.20000005,104705946.486,104705963.0999999,104705971.124,104709536.602,8,400,12,,ISIC_2293230.JPG
break,html.Screen,4_61_1,2023-11-02T21:29:28.841Z,,0,,,NaN,,,,,,false,,,,104709522.39999986,104709522.0999999,,104709521.70000005,,104709536.602,8,400,,,
break_continue,html.Screen,4_61_2,2023-11-02T21:29:28.841Z,,0,,,NaN,,,,,,false,,,,104709522.70000005,104709522.70000005,,104709522.5999999,,104709536.602,8,400,,,
sequence,flow.Sequence,4_61,2023-11-02T21:29:28.841Z,,0,,,3551.5760000497103,completion,,,,,false,,,,104709522.89999986,104709522.70000005,104705946.486,104705963,104705971.124,104709536.602,8,400,,,
trial,html.Screen,4_62_0,2023-11-02T21:29:34.670Z,,0,2,,5814.697999954224,response,ISIC_0014543.JPG,3,ISIC_0034052.JPG,ISIC_0014543.JPG,false,1,keypress(m),500,104715351.5999999,104715351.29999995,104709518.532,104709523,104709536.602,104715367.319,8,400,13,,ISIC_0034052.JPG
break,html.Screen,4_62_1,2023-11-02T21:29:34.671Z,,0,,,NaN,,,,,,false,,,,104715352.5999999,104715352.29999995,,104715351.79999995,,104715367.319,8,400,,,
break_continue,html.Screen,4_62_2,2023-11-02T21:29:34.671Z,,0,,,NaN,,,,,,false,,,,104715353,104715352.79999995,,104715352.79999995,,104715367.319,8,400,,,
sequence,flow.Sequence,4_62,2023-11-02T21:29:34.671Z,,0,,,5816.197999954224,completion,,,,,false,,,,104715353.0999999,104715352.79999995,104709518.532,104709522.89999986,104709536.602,104715367.319,8,400,,,
trial,html.Screen,4_63_0,2023-11-02T21:29:40.468Z,,0,2,,5782.480999946594,response,ISIC_0066203.JPG,5,ISIC_0033148.JPG,ISIC_0033148.JPG,false,0,keypress(z),500,104721150.0999999,104721149.79999995,104715337.807,104715353.0999999,104715367.319,104721164.787,8,400,14,,ISIC_0066203.JPG
break,html.Screen,4_63_1,2023-11-02T21:29:40.469Z,,0,,,NaN,,,,,,false,,,,104721151,104721150.79999995,,104721150.20000005,,104721164.787,8,400,,,
break_continue,html.Screen,4_63_2,2023-11-02T21:29:40.470Z,,0,,,NaN,,,,,,false,,,,104721151.39999986,104721151.29999995,,104721151.20000005,,104721164.787,8,400,,,
sequence,flow.Sequence,4_63,2023-11-02T21:29:40.470Z,,0,,,5783.980999946594,completion,,,,,false,,,,104721151.5,104721151.29999995,104715337.807,104715353.0999999,104715367.319,104721164.787,8,400,,,
trial,html.Screen,4_64_0,2023-11-02T21:29:45.419Z,,0,2,,4935.712999999523,response,ISIC_5141844.JPG,6,ISIC_0066750.JPG,ISIC_0066750.JPG,false,0,keypress(z),500,104726100.70000005,104726100.5,104721149.528,104721151.5999999,104721164.787,104726113.648,8,400,15,,ISIC_5141844.JPG
break,html.Screen,4_64_1,2023-11-02T21:29:45.420Z,,0,,,NaN,,,,,,false,,,,104726101.70000005,104726101.29999995,,104726100.89999986,,104726113.648,8,400,,,
break_continue,html.Screen,4_64_2,2023-11-02T21:29:45.420Z,,0,,,NaN,,,,,,false,,,,104726101.89999986,104726101.89999986,,104726101.79999995,,104726113.648,8,400,,,
sequence,flow.Sequence,4_64,2023-11-02T21:29:45.420Z,,0,,,4937.112999856472,completion,,,,,false,,,,104726102.0999999,104726101.89999986,104721149.528,104721151.5999999,104721164.787,104726113.648,8,400,,,
trial,html.Screen,4_65_0,2023-11-02T21:29:52.064Z,,0,2,,6631.851999998093,response,ISIC_8692218.JPG,12,ISIC_2740756.JPG,ISIC_8692218.JPG,false,1,keypress(m),500,104732745.79999995,104732745.5,104726097.271,104726102.20000005,104726113.648,104732760.257,8,400,16,,ISIC_2740756.JPG
break,html.Screen,4_65_1,2023-11-02T21:29:52.065Z,,0,,,NaN,,,,,,false,,,,104732746.79999995,104732746.70000005,,104732746.0999999,,104732760.257,8,400,,,
break_continue,html.Screen,4_65_2,2023-11-02T21:29:52.065Z,,0,,,NaN,,,,,,false,,,,104732747.0999999,104732747,,104732746.89999986,,104732760.257,8,400,,,
sequence,flow.Sequence,4_65,2023-11-02T21:29:52.066Z,,0,,,6633.351999998093,completion,,,,,false,,,,104732747.20000005,104732747,104726097.271,104726102.20000005,104726113.648,104732760.257,8,400,,,
trial,html.Screen,4_66_0,2023-11-02T21:29:59.276Z,,0,2,,7196.842999905348,response,ISIC_1752943.JPG,7,ISIC_5313574.JPG,ISIC_5313574.JPG,false,0,keypress(z),500,104739957.39999986,104739957.0999999,104732731.271,104732747.29999995,104732760.257,104739974.725,8,400,17,,ISIC_1752943.JPG
break,html.Screen,4_66_1,2023-11-02T21:29:59.277Z,,0,,,NaN,,,,,,false,,,,104739958.20000005,104739958,,104739957.5999999,,104739974.725,8,400,,,
break_continue,html.Screen,4_66_2,2023-11-02T21:29:59.277Z,,0,,,NaN,,,,,,false,,,,104739958.70000005,104739958.5999999,,104739958.39999986,,104739974.725,8,400,,,
sequence,flow.Sequence,4_66,2023-11-02T21:29:59.277Z,,0,,,7198.342999905348,completion,,,,,false,,,,104739958.79999995,104739958.5999999,104732731.271,104732747.29999995,104732760.257,104739974.725,8,400,,,
trial,html.Screen,4_67_0,2023-11-02T21:30:02.435Z,,0,2,,3142.0749999582767,response,ISIC_7413149.JPG,10,ISIC_0011125.JPG,ISIC_7413149.JPG,false,1,keypress(m),500,104743117.0999999,104743116.79999995,104739944.304,104739958.79999995,104739974.725,104743122.542,8,400,18,,ISIC_0011125.JPG
break,html.Screen,4_67_1,2023-11-02T21:30:02.436Z,,0,,,NaN,,,,,,false,,,,104743118.0999999,104743117.70000005,,104743117.29999995,,104743122.542,8,400,,,
break_continue,html.Screen,4_67_2,2023-11-02T21:30:02.437Z,,0,,,NaN,,,,,,false,,,,104743118.39999986,104743118.20000005,,104743118.20000005,,104743122.542,8,400,,,
sequence,flow.Sequence,4_67,2023-11-02T21:30:02.437Z,,0,,,3143.475000053644,completion,,,,,false,,,,104743118.5999999,104743118.20000005,104739944.304,104739958.79999995,104739974.725,104743122.542,8,400,,,
trial,html.Screen,4_68_0,2023-11-02T21:30:06.862Z,,0,2,,4420.557999908924,response,ISIC_0005639.JPG,7,ISIC_8300954.JPG,ISIC_8300954.JPG,false,0,keypress(z),500,104747543.29999995,104747543.0999999,104743105.945,104743118.5999999,104743122.542,104747554.064,8,400,19,,ISIC_0005639.JPG
break,html.Screen,4_68_1,2023-11-02T21:30:06.863Z,,0,,,NaN,,,,,,false,,,,104747544.29999995,104747544,,104747543.5999999,,104747554.064,8,400,,,
break_continue,html.Screen,4_68_2,2023-11-02T21:30:06.863Z,,0,,,NaN,,,,,,false,,,,104747544.5999999,104747544.5,,104747544.39999986,,104747554.064,8,400,,,
sequence,flow.Sequence,4_68,2023-11-02T21:30:06.863Z,,0,,,4421.9580000042915,completion,,,,,false,,,,104747544.70000005,104747544.5,104743105.945,104743118.5999999,104743122.542,104747554.064,8,400,,,
trial,html.Screen,4_69_0,2023-11-02T21:30:11.665Z,,0,2,,4792.33599986136,response,ISIC_0012391.JPG,11,ISIC_4771769.JPG,ISIC_4771769.JPG,false,0,keypress(z),500,104752346.5999999,104752346.39999986,104747536.58,104747544.70000005,104747554.064,104752352.142,8,400,20,,ISIC_0012391.JPG
break,html.Screen,4_69_1,2023-11-02T21:30:11.666Z,,0,,,NaN,,,,,,false,,,,104752347.5,104752347.29999995,,104752346.89999986,,104752352.142,8,400,,,
break_continue,html.Screen,4_69_2,2023-11-02T21:30:11.666Z,,0,,,NaN,,,,,,false,,,,104752347.89999986,104752347.79999995,,104752347.5999999,,104752352.142,8,400,,,
sequence,flow.Sequence,4_69,2023-11-02T21:30:11.666Z,,0,,,4793.735999956727,completion,,,,,false,,,,104752348,104752347.79999995,104747536.58,104747544.70000005,104747554.064,104752352.142,8,400,,,
trial,html.Screen,4_70_0,2023-11-02T21:30:14.844Z,,0,2,,3173.157999947667,response,ISIC_9572152.JPG,11,ISIC_0553932.JPG,ISIC_9572152.JPG,false,1,keypress(m),500,104755525.5999999,104755525.29999995,104752342.024,104752348.70000005,104752352.142,104755534.265,8,400,21,,ISIC_0553932.JPG
break,html.Screen,4_70_1,2023-11-02T21:30:14.845Z,,0,,,NaN,,,,,,false,,,,104755526.5999999,104755526.29999995,,104755525.70000005,,104755534.265,8,400,,,
break_continue,html.Screen,4_70_2,2023-11-02T21:30:14.845Z,,0,,,NaN,,,,,,false,,,,104755526.89999986,104755526.89999986,,104755526.70000005,,104755534.265,8,400,,,
sequence,flow.Sequence,4_70,2023-11-02T21:30:14.845Z,,0,,,3174.7579998522997,completion,,,,,false,,,,104755527,104755526.89999986,104752342.024,104752348,104752352.142,104755534.265,8,400,,,
trial,html.Screen,4_71_0,2023-11-02T21:30:18.079Z,,0,2,,3226.234999999404,response,ISIC_6617840.JPG,5,ISIC_0056440.JPG,ISIC_0056440.JPG,false,0,keypress(z),500,104758760.79999995,104758760.5,104755517.374,104755527.0999999,104755534.265,104758766.205,8,400,22,,ISIC_6617840.JPG
break,html.Screen,4_71_1,2023-11-02T21:30:18.080Z,,0,,,NaN,,,,,,false,,,,104758761.79999995,104758761.39999986,,104758761,,104758766.205,8,400,,,
break_continue,html.Screen,4_71_2,2023-11-02T21:30:18.081Z,,0,,,NaN,,,,,,false,,,,104758762.20000005,104758762.20000005,,104758761.89999986,,104758766.205,8,400,,,
sequence,flow.Sequence,4_71,2023-11-02T21:30:18.081Z,,0,,,3227.9350000470877,completion,,,,,false,,,,104758762.39999986,104758762.20000005,104755517.374,104755527,104755534.265,104758766.205,8,400,,,
trial,html.Screen,4_72_0,2023-11-02T21:30:20.885Z,,0,2,,2799.8949999064207,response,ISIC_0182730.JPG,9,ISIC_0025153.JPG,ISIC_0182730.JPG,false,1,keypress(m),500,104761566.39999986,104761566.0999999,104758749.297,104758762.39999986,104758766.205,104761582.238,8,400,23,,ISIC_0025153.JPG
break,html.Screen,4_72_1,2023-11-02T21:30:20.886Z,,0,,,NaN,,,,,,false,,,,104761567.39999986,104761567.0999999,,104761566.5,,104761582.238,8,400,,,
break_continue,html.Screen,4_72_2,2023-11-02T21:30:20.886Z,,0,,,NaN,,,,,,false,,,,104761567.70000005,104761567.70000005,,104761567.5,,104761582.238,8,400,,,
sequence,flow.Sequence,4_72,2023-11-02T21:30:20.886Z,,0,,,2801.495000049472,completion,,,,,false,,,,104761567.79999995,104761567.70000005,104758749.297,104758762.39999986,104758766.205,104761582.238,8,400,,,
trial,html.Screen,4_73_0,2023-11-02T21:30:23.999Z,,0,2,,3098.0619999468327,response,ISIC_0973194.JPG,8,ISIC_2858419.JPG,ISIC_0973194.JPG,false,1,keypress(m),500,104764680.5999999,104764680.29999995,104761564.205,104761567.89999986,104761582.238,104764697.256,8,400,24,,ISIC_2858419.JPG
break,html.Screen,4_73_1,2023-11-02T21:30:24.000Z,,0,,,NaN,,,,,,false,,,,104764681.5999999,104764681.29999995,,104764680.79999995,,104764697.256,8,400,,,
break_continue,html.Screen,4_73_2,2023-11-02T21:30:24.000Z,,0,,,NaN,,,,,,false,,,,104764681.79999995,104764681.79999995,,104764681.70000005,,104764697.256,8,400,,,
sequence,flow.Sequence,4_73,2023-11-02T21:30:24.000Z,,0,,,3099.5619999468327,completion,,,,,false,,,,104764682,104764681.79999995,104761564.205,104761567.89999986,104761582.238,104764697.256,8,400,,,
trial,html.Screen,4_74_0,2023-11-02T21:30:28.541Z,,0,2,,4525.043999955058,response,ISIC_0032630.JPG,10,ISIC_0218072.JPG,ISIC_0032630.JPG,false,1,keypress(m),500,104769222.5999999,104769222.29999995,104764670.35,104764682,104764697.256,104769228.625,8,400,25,,ISIC_0218072.JPG
break,html.Screen,4_74_1,2023-11-02T21:30:28.542Z,,0,,,NaN,,,,,,false,,,,104769223.5,104769223.29999995,,104769222.70000005,,104769228.625,8,400,,,
break_continue,html.Screen,4_74_2,2023-11-02T21:30:28.542Z,,0,,,NaN,,,,,,false,,,,104769223.70000005,104769223.70000005,,104769223.5999999,,104769228.625,8,400,,,
sequence,flow.Sequence,4_74,2023-11-02T21:30:28.542Z,,0,,,4526.4440000504255,completion,,,,,false,,,,104769223.89999986,104769223.70000005,104764670.35,104764682,104764697.256,104769228.625,8,400,,,
trial,html.Screen,4_75_0,2023-11-02T21:30:31.876Z,,0,2,,3328.875,response,ISIC_7945429.JPG,1,ISIC_0010587.JPG,ISIC_7945429.JPG,false,1,keypress(m),500,104772557.89999986,104772557.5,104769211.849,104769223.89999986,104769228.625,104772560.566,8,400,26,,ISIC_0010587.JPG
break,html.Screen,4_75_1,2023-11-02T21:30:31.877Z,,0,,,NaN,,,,,,false,,,,104772558.79999995,104772558.5,,104772558.0999999,,104772560.566,8,400,,,
break_continue,html.Screen,4_75_2,2023-11-02T21:30:31.877Z,,0,,,NaN,,,,,,false,,,,104772559.20000005,104772559,,104772559,,104772560.566,8,400,,,
sequence,flow.Sequence,4_75,2023-11-02T21:30:31.878Z,,0,,,3330.375,completion,,,,,false,,,,104772559.20000005,104772559,104769211.849,104769223.89999986,104769228.625,104772560.566,8,400,,,
trial,html.Screen,4_76_0,2023-11-02T21:30:41.752Z,,0,2,,9872.733999952674,response,ISIC_0031717.JPG,12,ISIC_0011247.JPG,ISIC_0011247.JPG,false,0,keypress(z),500,104782433.70000005,104782433.29999995,104772543.62,104772559.29999995,104772560.566,104782456.623,8,400,27,,ISIC_0031717.JPG
break,html.Screen,4_76_1,2023-11-02T21:30:41.753Z,,0,,,NaN,,,,,,false,,,,104782434.39999986,104782434.29999995,,104782433.79999995,,104782456.623,8,400,,,
break_continue,html.Screen,4_76_2,2023-11-02T21:30:41.753Z,,0,,,NaN,,,,,,false,,,,104782434.70000005,104782434.5999999,,104782434.5,,104782456.623,8,400,,,
sequence,flow.Sequence,4_76,2023-11-02T21:30:41.753Z,,0,,,9874.03399990499,completion,,,,,false,,,,104782434.89999986,104782434.5999999,104772543.62,104772559.29999995,104772560.566,104782456.623,8,400,,,
trial,html.Screen,4_77_0,2023-11-02T21:30:44.959Z,,0,2,,3183.4769999086857,response,ISIC_0011268.JPG,11,ISIC_8357415.JPG,ISIC_0011268.JPG,false,1,keypress(m),500,104785640.39999986,104785640.0999999,104782440.27,104782435,104782456.623,104785655.715,8,400,28,,ISIC_8357415.JPG
break,html.Screen,4_77_1,2023-11-02T21:30:44.960Z,,0,,,NaN,,,,,,false,,,,104785641.29999995,104785641.0999999,,104785640.5999999,,104785655.715,8,400,,,
break_continue,html.Screen,4_77_2,2023-11-02T21:30:44.960Z,,0,,,NaN,,,,,,false,,,,104785641.5999999,104785641.5999999,,104785641.5,,104785655.715,8,400,,,
sequence,flow.Sequence,4_77,2023-11-02T21:30:44.960Z,,0,,,3184.9769999086857,completion,,,,,false,,,,104785641.70000005,104785641.5999999,104782440.27,104782435,104782456.623,104785655.715,8,400,,,
trial,html.Screen,4_78_0,2023-11-02T21:30:47.907Z,,0,2,,2932.6849998533726,response,ISIC_0024999.JPG,20,ISIC_3520750.JPG,ISIC_0024999.JPG,false,1,keypress(m),500,104788588.5999999,104788588.39999986,104785628.268,104785641.79999995,104785655.715,104788604.183,8,400,29,,ISIC_3520750.JPG
break,html.Screen,4_78_1,2023-11-02T21:30:47.908Z,,0,,,NaN,,,,,,false,,,,104788589.29999995,104788589.29999995,,104788588.79999995,,104788604.183,8,400,,,
break_continue,html.Screen,4_78_2,2023-11-02T21:30:47.908Z,,0,,,NaN,,,,,,false,,,,104788589.5999999,104788589.5999999,,104788589.5,,104788604.183,8,400,,,
sequence,flow.Sequence,4_78,2023-11-02T21:30:47.908Z,,0,,,2933.8849999010563,completion,,,,,false,,,,104788589.89999986,104788589.5999999,104785628.268,104785641.79999995,104785655.715,104788604.183,8,400,,,
trial,html.Screen,4_79_0,2023-11-02T21:30:51.963Z,,0,2,,4039.817000001669,response,ISIC_0026426.JPG,9,ISIC_0674746.JPG,ISIC_0026426.JPG,false,1,keypress(m),500,104792644.20000005,104792644,104788587.244,104788589.89999986,104788604.183,104792652.389,8,400,30,,ISIC_0674746.JPG
break,html.Screen,4_79_1,2023-11-02T21:30:51.963Z,,0,,,NaN,,,,,,false,,,,104792644.79999995,104792644.5999999,,104792644.29999995,,104792652.389,8,400,,,
break_continue,html.Screen,4_79_2,2023-11-02T21:30:51.964Z,,0,,,NaN,,,,,,false,,,,104792645,104792645,,104792644.89999986,,104792652.389,8,400,,,
sequence,flow.Sequence,4_79,2023-11-02T21:30:51.964Z,,0,,,4040.817000001669,completion,,,,,false,,,,104792645.20000005,104792645,104788587.244,104788589.89999986,104788604.183,104792652.389,8,400,,,
trial,html.Screen,4_80_0,2023-11-02T21:30:57.759Z,,0,2,,5788.210999906063,response,ISIC_9348399.JPG,8,ISIC_9332795.JPG,ISIC_9348399.JPG,false,1,keypress(m),500,104798440.89999986,104798440.5999999,104792635.858,104792645.20000005,104792652.389,104798450.093,8,400,31,,ISIC_9332795.JPG
break,html.Screen,4_80_1,2023-11-02T21:30:57.761Z,,0,,,NaN,,,,,,false,,,,104798442,104798441.5999999,,104798441,,104798450.093,8,400,,,
break_continue,html.Screen,4_80_2,2023-11-02T21:30:57.761Z,,0,,,NaN,,,,,,false,,,,104798442.29999995,104798442.20000005,,104798442.0999999,,104798450.093,8,400,,,
sequence,flow.Sequence,4_80,2023-11-02T21:30:57.761Z,,0,,,5789.811000049114,completion,,,,,false,,,,104798442.29999995,104798442.20000005,104792635.858,104792645.20000005,104792652.389,104798450.093,8,400,,,
trial,html.Screen,4_81_0,2023-11-02T21:31:00.566Z,,0,2,,2797.107000052929,response,ISIC_6460137.JPG,7,ISIC_0031629.JPG,ISIC_0031629.JPG,false,0,keypress(z),500,104801247.5,104801247.20000005,104798432.625,104798442.5,104798450.093,104801271.284,8,400,32,,ISIC_6460137.JPG
break,html.Screen,4_81_1,2023-11-02T21:31:00.567Z,,0,,,NaN,,,,,,false,,,,104801248.39999986,104801248,,104801247.5999999,,104801271.284,8,400,,,
break_continue,html.Screen,4_81_2,2023-11-02T21:31:00.567Z,,0,,,NaN,,,,,,false,,,,104801248.70000005,104801248.5999999,,104801248.5,,104801271.284,8,400,,,
sequence,flow.Sequence,4_81,2023-11-02T21:31:00.567Z,,0,,,2798.506999909878,completion,,,,,false,,,,104801248.89999986,104801248.5999999,104798432.625,104798442.39999986,104798450.093,104801271.284,8,400,,,
trial,html.Screen,4_82_0,2023-11-02T21:31:03.978Z,,0,2,,3388.015999957919,response,ISIC_2131962.JPG,8,ISIC_3416324.JPG,ISIC_2131962.JPG,false,1,keypress(m),500,104804659.89999986,104804659.29999995,104801238.609,104801249,104801271.284,104804664.178,8,400,33,,ISIC_3416324.JPG
break,html.Screen,4_82_1,2023-11-02T21:31:03.980Z,,0,,,NaN,,,,,,false,,,,104804661,104804660.70000005,,104804660.0999999,,104804664.178,8,400,,,
break_continue,html.Screen,4_82_2,2023-11-02T21:31:03.980Z,,0,,,NaN,,,,,,false,,,,104804661.29999995,104804661.29999995,,104804661.0999999,,104804664.178,8,400,,,
sequence,flow.Sequence,4_82,2023-11-02T21:31:03.980Z,,0,,,3390.015999957919,completion,,,,,false,,,,104804661.39999986,104804661.29999995,104801238.609,104801248.89999986,104801271.284,104804664.178,8,400,,,
trial,html.Screen,4_83_0,2023-11-02T21:31:06.726Z,,0,2,,2742.5220000445843,response,ISIC_9227392.JPG,6,ISIC_0025520.JPG,ISIC_0025520.JPG,false,0,keypress(z),500,104807407,104807406.70000005,104804652.459,104804661.5,104804664.178,104807413.019,8,400,34,,ISIC_9227392.JPG
break,html.Screen,4_83_1,2023-11-02T21:31:06.726Z,,0,,,NaN,,,,,,false,,,,104807407.89999986,104807407.70000005,,104807407.20000005,,104807413.019,8,400,,,
break_continue,html.Screen,4_83_2,2023-11-02T21:31:06.727Z,,0,,,NaN,,,,,,false,,,,104807408.20000005,104807408.0999999,,104807408,,104807413.019,8,400,,,
sequence,flow.Sequence,4_83,2023-11-02T21:31:06.727Z,,0,,,2743.921999901533,completion,,,,,false,,,,104807408.20000005,104807408.0999999,104804652.459,104804661.5,104804664.178,104807413.019,8,400,,,
trial,html.Screen,4_84_0,2023-11-02T21:31:10.905Z,,0,2,,4173.280999958515,response,ISIC_1067390.JPG,6,ISIC_0071944.JPG,ISIC_0071944.JPG,false,0,keypress(z),500,104811586.5999999,104811586.29999995,104807397.691,104807408.29999995,104807413.019,104811594.7,8,400,35,,ISIC_1067390.JPG
break,html.Screen,4_84_1,2023-11-02T21:31:10.906Z,,0,,,NaN,,,,,,false,,,,104811587.5,104811587.20000005,,104811586.70000005,,104811594.7,8,400,,,
break_continue,html.Screen,4_84_2,2023-11-02T21:31:10.906Z,,0,,,NaN,,,,,,false,,,,104811587.79999995,104811587.79999995,,104811587.70000005,,104811594.7,8,400,,,
sequence,flow.Sequence,4_84,2023-11-02T21:31:10.906Z,,0,,,4174.780999958515,completion,,,,,false,,,,104811588,104811587.79999995,104807397.691,104807408.29999995,104807413.019,104811594.7,8,400,,,
trial,html.Screen,4_85_0,2023-11-02T21:31:13.634Z,,0,2,,2720.6999998539686,response,ISIC_0000349.JPG,13,ISIC_0014559.JPG,ISIC_0014559.JPG,false,0,keypress(z),500,104814315.5999999,104814315.39999986,104811582.195,104811588.0999999,104811594.7,104814327.225,8,400,36,,ISIC_0000349.JPG
break,html.Screen,4_85_1,2023-11-02T21:31:13.635Z,,0,,,NaN,,,,,,false,,,,104814316.5999999,104814316.29999995,,104814315.79999995,,104814327.225,8,400,,,
break_continue,html.Screen,4_85_2,2023-11-02T21:31:13.635Z,,0,,,NaN,,,,,,false,,,,104814317,104814316.89999986,,104814316.70000005,,104814327.225,8,400,,,
sequence,flow.Sequence,4_85,2023-11-02T21:31:13.636Z,,0,,,2722.1999998539686,completion,,,,,false,,,,104814317.0999999,104814316.89999986,104811582.195,104811588,104811594.7,104814327.225,8,400,,,
trial,html.Screen,4_86_0,2023-11-02T21:31:16.998Z,,0,2,,3352.2750000059605,response,ISIC_0059341.JPG,10,ISIC_2902328.JPG,ISIC_2902328.JPG,false,0,keypress(z),500,104817679.89999986,104817679.5,104814314.807,104814317.0999999,104814327.225,104817692.586,8,400,37,,ISIC_0059341.JPG
break,html.Screen,4_86_1,2023-11-02T21:31:16.999Z,,0,,,NaN,,,,,,false,,,,104817680.70000005,104817680.5,,104817680,,104817692.586,8,400,,,
break_continue,html.Screen,4_86_2,2023-11-02T21:31:17.000Z,,0,,,NaN,,,,,,false,,,,104817681.29999995,104817681.0999999,,104817680.89999986,,104817692.586,8,400,,,
sequence,flow.Sequence,4_86,2023-11-02T21:31:17.000Z,,0,,,3353.874999910593,completion,,,,,false,,,,104817681.39999986,104817681.0999999,104814314.807,104814317.0999999,104814327.225,104817692.586,8,400,,,
trial,html.Screen,4_87_0,2023-11-02T21:31:20.556Z,,0,2,,3544.313999861479,response,ISIC_0027492.JPG,8,ISIC_3877643.JPG,ISIC_3877643.JPG,false,0,keypress(z),500,104821237.39999986,104821236.89999986,104817678.102,104817681.5,104817692.586,104821240.768,8,400,38,,ISIC_0027492.JPG
break,html.Screen,4_87_1,2023-11-02T21:31:20.557Z,,0,,,NaN,,,,,,false,,,,104821238.39999986,104821238.20000005,,104821237.5999999,,104821240.768,8,400,,,
break_continue,html.Screen,4_87_2,2023-11-02T21:31:20.557Z,,0,,,NaN,,,,,,false,,,,104821238.5999999,104821238.5,,104821238.5,,104821240.768,8,400,,,
sequence,flow.Sequence,4_87,2023-11-02T21:31:20.557Z,,0,,,3545.91400000453,completion,,,,,false,,,,104821238.70000005,104821238.5,104817678.102,104817681.39999986,104817692.586,104821240.768,8,400,,,
trial,html.Screen,4_88_0,2023-11-02T21:31:23.606Z,,0,2,,3045.932000041008,response,ISIC_0011728.JPG,3,ISIC_6712342.JPG,ISIC_0011728.JPG,false,1,keypress(m),500,104824287,104824286.70000005,104821225.026,104821238.79999995,104821240.768,104824306.277,8,400,39,,ISIC_6712342.JPG
break,html.Screen,4_88_1,2023-11-02T21:31:23.606Z,,0,,,NaN,,,,,,false,,,,104824287.79999995,104824287.70000005,,104824287.29999995,,104824306.277,8,400,,,
break_continue,html.Screen,4_88_2,2023-11-02T21:31:23.607Z,,0,,,NaN,,,,,,false,,,,104824288.20000005,104824288,,104824287.89999986,,104824306.277,8,400,,,
sequence,flow.Sequence,4_88,2023-11-02T21:31:23.607Z,,0,,,3047.2319999933243,completion,,,,,false,,,,104824288.29999995,104824288,104821225.026,104821238.79999995,104821240.768,104824306.277,8,400,,,
trial,html.Screen,4_89_0,2023-11-02T21:31:27.150Z,,0,2,,3525.1229998618364,response,ISIC_9155465.JPG,6,ISIC_0030546.JPG,ISIC_9155465.JPG,false,1,keypress(m),500,104827831.5999999,104827831.39999986,104824289.572,104824288.29999995,104824306.277,104827838.028,8,400,40,,ISIC_0030546.JPG
break,html.Screen,4_89_1,2023-11-02T21:31:27.151Z,,0,,,NaN,,,,,,false,,,,104827832.39999986,104827832.29999995,,104827831.79999995,,104827838.028,8,400,,,
break_continue,html.Screen,4_89_2,2023-11-02T21:31:27.151Z,,0,,,NaN,,,,,,false,,,,104827832.79999995,104827832.70000005,,104827832.5999999,,104827838.028,8,400,,,
sequence,flow.Sequence,4_89,2023-11-02T21:31:27.151Z,,0,,,3526.4230000525713,completion,,,,,false,,,,104827832.89999986,104827832.70000005,104824289.572,104824288.29999995,104824306.277,104827838.028,8,400,,,
trial,html.Screen,4_90_0,2023-11-02T21:31:30.692Z,,0,2,,3534.6720000505447,response,ISIC_9182285.JPG,6,ISIC_0030255.JPG,ISIC_9182285.JPG,false,1,keypress(m),500,104831373.0999999,104831372.70000005,104827823.002,104827832.89999986,104827838.028,104831386.686,8,400,41,,ISIC_0030255.JPG
break,html.Screen,4_90_1,2023-11-02T21:31:30.693Z,,0,,,NaN,,,,,,false,,,,104831374,104831373.5999999,,104831373.20000005,,104831386.686,8,400,,,
break_continue,html.Screen,4_90_2,2023-11-02T21:31:30.693Z,,0,,,NaN,,,,,,false,,,,104831374.20000005,104831374.20000005,,104831374.0999999,,104831386.686,8,400,,,
sequence,flow.Sequence,4_90,2023-11-02T21:31:30.693Z,,0,,,3536.1720000505447,completion,,,,,false,,,,104831374.29999995,104831374.20000005,104827823.002,104827832.89999986,104827838.028,104831386.686,8,400,,,
trial,html.Screen,4_91_0,2023-11-02T21:31:33.852Z,,0,2,,3146.514000043273,response,ISIC_1920685.JPG,5,ISIC_0061188.JPG,ISIC_0061188.JPG,false,0,keypress(z),500,104834533.5,104834533.20000005,104831370.178,104831374.39999986,104831386.686,104834557.751,8,400,42,,ISIC_1920685.JPG
break,html.Screen,4_91_1,2023-11-02T21:31:33.853Z,,0,,,NaN,,,,,,false,,,,104834534.5,104834534.0999999,,104834533.70000005,,104834557.751,8,400,,,
break_continue,html.Screen,4_91_2,2023-11-02T21:31:33.853Z,,0,,,NaN,,,,,,false,,,,104834534.89999986,104834534.79999995,,104834534.5999999,,104834557.751,8,400,,,
sequence,flow.Sequence,4_91,2023-11-02T21:31:33.854Z,,0,,,3148.1139999479055,completion,,,,,false,,,,104834535,104834534.79999995,104831370.178,104831374.39999986,104831386.686,104834557.751,8,400,,,
trial,html.Screen,4_92_0,2023-11-02T21:31:37.413Z,,0,2,,3536.848999902606,response,ISIC_0057259.JPG,26,ISIC_0012082.JPG,ISIC_0012082.JPG,false,0,keypress(z),500,104838095,104838094.5999999,104834520.37,104834535.20000005,104834557.751,104838100.534,8,400,43,,ISIC_0057259.JPG
break,html.Screen,4_92_1,2023-11-02T21:31:37.414Z,,0,,,NaN,,,,,,false,,,,104838095.89999986,104838095.5999999,,104838095.0999999,,104838100.534,8,400,,,
break_continue,html.Screen,4_92_2,2023-11-02T21:31:37.415Z,,0,,,NaN,,,,,,false,,,,104838096.20000005,104838096.20000005,,104838096.0999999,,104838100.534,8,400,,,
sequence,flow.Sequence,4_92,2023-11-02T21:31:37.415Z,,0,,,3538.449000045657,completion,,,,,false,,,,104838096.29999995,104838096.20000005,104834520.37,104834535.0999999,104834557.751,104838100.534,8,400,,,
trial,html.Screen,4_93_0,2023-11-02T21:31:41.024Z,,0,2,,3605.0659999102354,response,ISIC_3649766.JPG,11,ISIC_0001057.JPG,ISIC_3649766.JPG,false,1,keypress(m),500,104841705.89999986,104841705.5999999,104838087.064,104838096.29999995,104838100.534,104841715.753,8,400,44,,ISIC_0001057.JPG
break,html.Screen,4_93_1,2023-11-02T21:31:41.025Z,,0,,,NaN,,,,,,false,,,,104841706.79999995,104841706.5,,104841706,,104841715.753,8,400,,,
break_continue,html.Screen,4_93_2,2023-11-02T21:31:41.026Z,,0,,,NaN,,,,,,false,,,,104841707.20000005,104841707.0999999,,104841707,,104841715.753,8,400,,,
sequence,flow.Sequence,4_93,2023-11-02T21:31:41.026Z,,0,,,3606.5659999102354,completion,,,,,false,,,,104841707.29999995,104841707.0999999,104838087.064,104838096.29999995,104838100.534,104841715.753,8,400,,,
trial,html.Screen,4_94_0,2023-11-02T21:31:44.041Z,,0,2,,3006.7469999939203,response,ISIC_0030300.JPG,24,ISIC_9675304.JPG,ISIC_0030300.JPG,false,1,keypress(m),500,104844722.70000005,104844722.5,104841699.26,104841707.39999986,104841715.753,104844731.198,8,400,45,,ISIC_9675304.JPG
break,html.Screen,4_94_1,2023-11-02T21:31:44.042Z,,0,,,NaN,,,,,,false,,,,104844723.70000005,104844723.39999986,,104844722.89999986,,104844731.198,8,400,,,
break_continue,html.Screen,4_94_2,2023-11-02T21:31:44.042Z,,0,,,NaN,,,,,,false,,,,104844724.0999999,104844724,,104844724,,104844731.198,8,400,,,
sequence,flow.Sequence,4_94,2023-11-02T21:31:44.043Z,,0,,,3008.2469999939203,completion,,,,,false,,,,104844724.20000005,104844724,104841699.26,104841707.39999986,104841715.753,104844731.198,8,400,,,
trial,html.Screen,4_95_0,2023-11-02T21:31:47.727Z,,0,2,,3677.601999953389,response,ISIC_5550263.JPG,10,ISIC_0011717.JPG,ISIC_0011717.JPG,false,0,keypress(z),500,104848409.0999999,104848408.79999995,104844714.554,104844724.20000005,104844731.198,104848413.017,8,400,46,,ISIC_5550263.JPG
break,html.Screen,4_95_1,2023-11-02T21:31:47.728Z,,0,,,NaN,,,,,,false,,,,104848409.89999986,104848409.70000005,,104848409.29999995,,104848413.017,8,400,,,
break_continue,html.Screen,4_95_2,2023-11-02T21:31:47.729Z,,0,,,NaN,,,,,,false,,,,104848410.29999995,104848410.20000005,,104848410.0999999,,104848413.017,8,400,,,
sequence,flow.Sequence,4_95,2023-11-02T21:31:47.729Z,,0,,,3679.0020000487566,completion,,,,,false,,,,104848410.39999986,104848410.20000005,104844714.554,104844724.20000005,104844731.198,104848413.017,8,400,,,
trial,html.Screen,4_96_0,2023-11-02T21:31:53.701Z,,0,2,,5969.683000043035,response,ISIC_0013777.JPG,16,ISIC_2843245.JPG,ISIC_0013777.JPG,false,1,keypress(m),500,104854383,104854382.70000005,104848398.604,104848410.39999986,104848413.017,104854393.896,8,400,47,,ISIC_2843245.JPG
break,html.Screen,4_96_1,2023-11-02T21:31:53.702Z,,0,,,NaN,,,,,,false,,,,104854384,104854383.79999995,,104854383.20000005,,104854393.896,8,400,,,
break_continue,html.Screen,4_96_2,2023-11-02T21:31:53.703Z,,0,,,NaN,,,,,,false,,,,104854384.29999995,104854384.20000005,,104854384.0999999,,104854393.896,8,400,,,
sequence,flow.Sequence,4_96,2023-11-02T21:31:53.703Z,,0,,,5971.183000043035,completion,,,,,false,,,,104854384.5,104854384.20000005,104848398.604,104848410.39999986,104848413.017,104854393.896,8,400,,,
trial,html.Screen,4_97_0,2023-11-02T21:32:00.058Z,,0,2,,6345.8040000498295,response,ISIC_0027130.JPG,7,ISIC_0011437.JPG,ISIC_0027130.JPG,false,1,keypress(m),500,104860740.0999999,104860739.70000005,104854383.127,104854384.5999999,104854393.896,104860774.745,8,400,48,,ISIC_0011437.JPG
break,html.Screen,4_97_1,2023-11-02T21:32:00.059Z,,0,,,NaN,,,,,,false,,,,104860741,104860740.70000005,,104860740.29999995,,104860774.745,8,400,,,
break_continue,html.Screen,4_97_2,2023-11-02T21:32:00.060Z,,0,,,NaN,,,,,,false,,,,104860741.39999986,104860741.0999999,,104860741,,104860774.745,8,400,,,
sequence,flow.Sequence,4_97,2023-11-02T21:32:00.060Z,,0,,,6347.203999906778,completion,,,,,false,,,,104860741.79999995,104860741.0999999,104854383.127,104854384.5,104854393.896,104860774.745,8,400,,,
trial,html.Screen,4_98_0,2023-11-02T21:32:04.449Z,,0,2,,4355.6549998521805,response,ISIC_0028579.JPG,6,ISIC_0060629.JPG,ISIC_0060629.JPG,false,0,keypress(z),500,104865130.5999999,104865130.39999986,104860765.249,104860741.79999995,104860774.745,104865139.514,8,400,49,,ISIC_0028579.JPG
break,html.Screen,4_98_1,2023-11-02T21:32:04.450Z,,0,,,NaN,,,,,,false,,,,104865131.5,104865131.29999995,,104865130.79999995,,104865139.514,8,400,,,
break_continue,html.Screen,4_98_2,2023-11-02T21:32:04.450Z,,0,,,NaN,,,,,,false,,,,104865131.79999995,104865131.70000005,,104865131.70000005,,104865139.514,8,400,,,
sequence,flow.Sequence,4_98,2023-11-02T21:32:04.450Z,,0,,,4356.955000042915,completion,,,,,false,,,,104865132,104865131.70000005,104860765.249,104860741.79999995,104860774.745,104865139.514,8,400,,,
trial,html.Screen,4_99_0,2023-11-02T21:32:07.642Z,,0,2,,3183.9860000014305,response,ISIC_5821293.JPG,1,ISIC_3892947.JPG,ISIC_3892947.JPG,false,0,keypress(z),500,104868323.79999995,104868323.5,104865124.031,104865132.20000005,104865139.514,104868338.652,8,400,50,,ISIC_5821293.JPG
break,html.Screen,4_99_1,2023-11-02T21:32:17.637Z,,0,,,9995.530000001192,timeout,,,,,false,,,,104878318.39999986,104878317.546,104868322.609,104868324,104868338.652,104878334.182,8,400,,,
break_continue,html.Screen,4_99_2,2023-11-02T21:32:19.839Z,,0,,,2174.917999908328,response,,,,,false,continue,keypress(Space),,104880520.89999986,104880509.0999999,104878317.546,104878318.5999999,104878334.182,104880533.253,8,400,,,
sequence,flow.Sequence,4_99,2023-11-02T21:32:19.839Z,,0,,,15369.585999906063,completion,,,,,false,,,,104880521.0999999,104880509.0999999,104865124.031,104865132.20000005,104865139.514,104880533.253,8,400,,,
trial,html.Screen,4_100_0,2023-11-02T21:32:22.932Z,,0,3,,3080.447000041604,response,ISIC_0033384.JPG,5,ISIC_0066739.JPG,ISIC_0033384.JPG,false,1,keypress(m),500,104883614,104883613.70000005,104880516.652,104880521.20000005,104880533.253,104883632.195,8,400,1,,ISIC_0066739.JPG
break,html.Screen,4_100_1,2023-11-02T21:32:22.933Z,,0,,,NaN,,,,,,false,,,,104883615,104883614.79999995,,104883614.29999995,,104883632.195,8,400,,,
break_continue,html.Screen,4_100_2,2023-11-02T21:32:22.934Z,,0,,,NaN,,,,,,false,,,,104883615.39999986,104883615.29999995,,104883615.20000005,,104883632.195,8,400,,,
sequence,flow.Sequence,4_100,2023-11-02T21:32:22.934Z,,0,,,3082.0469999462366,completion,,,,,false,,,,104883615.5,104883615.29999995,104880516.652,104880521.20000005,104880533.253,104883632.195,8,400,,,
trial,html.Screen,4_101_0,2023-11-02T21:32:26.458Z,,0,3,,3507.604999959469,response,ISIC_0055797.JPG,7,ISIC_0071901.JPG,ISIC_0055797.JPG,false,1,keypress(m),500,104887140.0999999,104887139.79999995,104883599.178,104883615.5999999,104883632.195,104887147.342,8,400,2,,ISIC_0071901.JPG
break,html.Screen,4_101_1,2023-11-02T21:32:26.459Z,,0,,,NaN,,,,,,false,,,,104887141.0999999,104887140.70000005,,104887140.20000005,,104887147.342,8,400,,,
break_continue,html.Screen,4_101_2,2023-11-02T21:32:26.460Z,,0,,,NaN,,,,,,false,,,,104887141.39999986,104887141.29999995,,104887141.20000005,,104887147.342,8,400,,,
sequence,flow.Sequence,4_101,2023-11-02T21:32:26.460Z,,0,,,3509.104999959469,completion,,,,,false,,,,104887141.5,104887141.29999995,104883599.178,104883615.5999999,104883632.195,104887147.342,8,400,,,
trial,html.Screen,4_102_0,2023-11-02T21:32:29.204Z,,0,3,,2737.6580000072718,response,ISIC_3685955.JPG,10,ISIC_5616806.JPG,ISIC_3685955.JPG,false,1,keypress(m),500,104889885.20000005,104889885,104887130.522,104887141.5,104887147.342,104889896.576,8,400,3,,ISIC_5616806.JPG
break,html.Screen,4_102_1,2023-11-02T21:32:29.205Z,,0,,,NaN,,,,,,false,,,,104889886.20000005,104889885.89999986,,104889885.39999986,,104889896.576,8,400,,,
break_continue,html.Screen,4_102_2,2023-11-02T21:32:29.205Z,,0,,,NaN,,,,,,false,,,,104889886.5999999,104889886.5,,104889886.29999995,,104889896.576,8,400,,,
sequence,flow.Sequence,4_102,2023-11-02T21:32:29.205Z,,0,,,2739.1580000072718,completion,,,,,false,,,,104889886.5999999,104889886.5,104887130.522,104887141.5,104887147.342,104889896.576,8,400,,,
trial,html.Screen,4_103_0,2023-11-02T21:32:32.519Z,,0,3,,3303.624000042677,response,ISIC_1328804.JPG,8,ISIC_8510848.JPG,ISIC_1328804.JPG,false,1,keypress(m),500,104893200.5,104893200.20000005,104889880.009,104889886.70000005,104889896.576,104893212.206,8,400,4,,ISIC_8510848.JPG
break,html.Screen,4_103_1,2023-11-02T21:32:32.520Z,,0,,,NaN,,,,,,false,,,,104893201.39999986,104893201.0999999,,104893200.5999999,,104893212.206,8,400,,,
break_continue,html.Screen,4_103_2,2023-11-02T21:32:32.520Z,,0,,,NaN,,,,,,false,,,,104893201.89999986,104893201.70000005,,104893201.5999999,,104893212.206,8,400,,,
sequence,flow.Sequence,4_103,2023-11-02T21:32:32.520Z,,0,,,3305.124000042677,completion,,,,,false,,,,104893202,104893201.70000005,104889880.009,104889886.70000005,104889896.576,104893212.206,8,400,,,
trial,html.Screen,4_104_0,2023-11-02T21:32:38.058Z,,0,3,,5526.994000047445,response,ISIC_7460560.JPG,7,ISIC_3205354.JPG,ISIC_3205354.JPG,false,0,keypress(z),500,104898739.5,104898739.20000005,104893194.735,104893202.0999999,104893212.206,104898742.535,8,400,5,,ISIC_7460560.JPG
break,html.Screen,4_104_1,2023-11-02T21:32:38.059Z,,0,,,NaN,,,,,,false,,,,104898740.39999986,104898740.20000005,,104898739.70000005,,104898742.535,8,400,,,
break_continue,html.Screen,4_104_2,2023-11-02T21:32:38.059Z,,0,,,NaN,,,,,,false,,,,104898740.70000005,104898740.5999999,,104898740.5,,104898742.535,8,400,,,
sequence,flow.Sequence,4_104,2023-11-02T21:32:38.059Z,,0,,,5528.393999904394,completion,,,,,false,,,,104898740.89999986,104898740.5999999,104893194.735,104893202.0999999,104893212.206,104898742.535,8,400,,,
trial,html.Screen,4_105_0,2023-11-02T21:32:40.879Z,,0,3,,2817.9650000035763,response,ISIC_4033676.JPG,9,ISIC_3289651.JPG,ISIC_4033676.JPG,false,1,keypress(m),500,104901560.79999995,104901560.5,104898726.219,104898741,104898742.535,104901574.722,8,400,6,,ISIC_3289651.JPG
break,html.Screen,4_105_1,2023-11-02T21:32:40.880Z,,0,,,NaN,,,,,,false,,,,104901561.89999986,104901561.5,,104901561,,104901574.722,8,400,,,
break_continue,html.Screen,4_105_2,2023-11-02T21:32:40.881Z,,0,,,NaN,,,,,,false,,,,104901562.20000005,104901562.0999999,,104901562,,104901574.722,8,400,,,
sequence,flow.Sequence,4_105,2023-11-02T21:32:40.881Z,,0,,,2819.564999908209,completion,,,,,false,,,,104901562.29999995,104901562.0999999,104898726.219,104898741,104898742.535,104901574.722,8,400,,,
trial,html.Screen,4_106_0,2023-11-02T21:32:44.874Z,,0,3,,3980.5779999494553,response,ISIC_0472513.JPG,10,ISIC_8759207.JPG,ISIC_0472513.JPG,false,1,keypress(m),500,104905555.70000005,104905555.29999995,104901557.989,104901562.39999986,104901574.722,104905573.23,8,400,7,,ISIC_8759207.JPG
break,html.Screen,4_106_1,2023-11-02T21:32:44.875Z,,0,,,NaN,,,,,,false,,,,104905556.5999999,104905556.29999995,,104905555.79999995,,104905573.23,8,400,,,
break_continue,html.Screen,4_106_2,2023-11-02T21:32:44.875Z,,0,,,NaN,,,,,,false,,,,104905557,104905556.89999986,,104905556.79999995,,104905573.23,8,400,,,
sequence,flow.Sequence,4_106,2023-11-02T21:32:44.875Z,,0,,,3982.177999854088,completion,,,,,false,,,,104905557.0999999,104905556.89999986,104901557.989,104901562.29999995,104901574.722,104905573.23,8,400,,,
trial,html.Screen,4_107_0,2023-11-02T21:32:49.268Z,,0,3,,4376.6699998527765,response,ISIC_0073227.JPG,8,ISIC_0025217.JPG,ISIC_0073227.JPG,false,1,keypress(m),500,104909950.20000005,104909949.89999986,104905540.284,104905557.0999999,104905573.23,104909954.629,8,400,8,,ISIC_0025217.JPG
break,html.Screen,4_107_1,2023-11-02T21:32:49.269Z,,0,,,NaN,,,,,,false,,,,104909951.0999999,104909950.79999995,,104909950.29999995,,104909954.629,8,400,,,
break_continue,html.Screen,4_107_2,2023-11-02T21:32:49.270Z,,0,,,NaN,,,,,,false,,,,104909951.5,104909951.39999986,,104909951.29999995,,104909954.629,8,400,,,
sequence,flow.Sequence,4_107,2023-11-02T21:32:49.270Z,,0,,,4378.1699998527765,completion,,,,,false,,,,104909951.5999999,104909951.39999986,104905540.284,104905557.0999999,104905573.23,104909954.629,8,400,,,
trial,html.Screen,4_108_0,2023-11-02T21:32:51.963Z,,0,3,,2690.170999959111,response,ISIC_0068727.JPG,1,ISIC_0046537.JPG,ISIC_0068727.JPG,false,1,keypress(m),500,104912645.0999999,104912644.79999995,104909938.314,104909951.70000005,104909954.629,104912653.671,8,400,9,,ISIC_0046537.JPG
break,html.Screen,4_108_1,2023-11-02T21:32:51.965Z,,0,,,NaN,,,,,,false,,,,104912646.39999986,104912646.0999999,,104912645.29999995,,104912653.671,8,400,,,
break_continue,html.Screen,4_108_2,2023-11-02T21:32:51.965Z,,0,,,NaN,,,,,,false,,,,104912646.79999995,104912646.70000005,,104912646.5999999,,104912653.671,8,400,,,
sequence,flow.Sequence,4_108,2023-11-02T21:32:51.965Z,,0,,,2692.0710000544786,completion,,,,,false,,,,104912646.79999995,104912646.70000005,104909938.314,104909951.70000005,104909954.629,104912653.671,8,400,,,
trial,html.Screen,4_109_0,2023-11-02T21:32:55.845Z,,0,3,,3873.1289999485016,response,ISIC_0068012.JPG,8,ISIC_1578253.JPG,ISIC_0068012.JPG,false,1,keypress(m),500,104916527.0999999,104916526.79999995,104912637.2,104912646.89999986,104912653.671,104916535.302,8,400,10,,ISIC_1578253.JPG
break,html.Screen,4_109_1,2023-11-02T21:32:55.846Z,,0,,,NaN,,,,,,false,,,,104916528.0999999,104916527.70000005,,104916527.20000005,,104916535.302,8,400,,,
break_continue,html.Screen,4_109_2,2023-11-02T21:32:55.847Z,,0,,,NaN,,,,,,false,,,,104916528.39999986,104916528.29999995,,104916528.20000005,,104916535.302,8,400,,,
sequence,flow.Sequence,4_109,2023-11-02T21:32:55.847Z,,0,,,3874.6289999485016,completion,,,,,false,,,,104916528.5,104916528.29999995,104912637.2,104912646.89999986,104912653.671,104916535.302,8,400,,,
trial,html.Screen,4_110_0,2023-11-02T21:33:01.993Z,,0,3,,6138.997999951243,response,ISIC_4811165.JPG,27,ISIC_0061029.JPG,ISIC_4811165.JPG,false,1,keypress(m),500,104922674.5,104922674.29999995,104916518.564,104916528.5,104916535.302,104922699.48,8,400,11,,ISIC_0061029.JPG
break,html.Screen,4_110_1,2023-11-02T21:33:01.994Z,,0,,,NaN,,,,,,false,,,,104922675.5,104922675.20000005,,104922674.70000005,,104922699.48,8,400,,,
break_continue,html.Screen,4_110_2,2023-11-02T21:33:01.994Z,,0,,,NaN,,,,,,false,,,,104922675.89999986,104922675.79999995,,104922675.79999995,,104922699.48,8,400,,,
sequence,flow.Sequence,4_110,2023-11-02T21:33:01.994Z,,0,,,6140.497999951243,completion,,,,,false,,,,104922676.0999999,104922675.79999995,104916518.564,104916528.5,104916535.302,104922699.48,8,400,,,
trial,html.Screen,4_111_0,2023-11-02T21:33:07.231Z,,0,3,,5213.319999948144,response,ISIC_1177505.JPG,10,ISIC_0482585.JPG,ISIC_0482585.JPG,false,0,keypress(z),500,104927913.0999999,104927912.79999995,104922682.909,104922676.0999999,104922699.48,104927930.78,8,400,12,,ISIC_1177505.JPG
break,html.Screen,4_111_1,2023-11-02T21:33:07.232Z,,0,,,NaN,,,,,,false,,,,104927914.0999999,104927913.79999995,,104927913.29999995,,104927930.78,8,400,,,
break_continue,html.Screen,4_111_2,2023-11-02T21:33:07.233Z,,0,,,NaN,,,,,,false,,,,104927914.5,104927914.39999986,,104927914.20000005,,104927930.78,8,400,,,
sequence,flow.Sequence,4_111,2023-11-02T21:33:07.233Z,,0,,,5214.9199998527765,completion,,,,,false,,,,104927914.5999999,104927914.39999986,104922682.909,104922676.0999999,104922699.48,104927930.78,8,400,,,
trial,html.Screen,4_112_0,2023-11-02T21:33:10.308Z,,0,3,,3059.019999951124,response,ISIC_0060452.JPG,6,ISIC_8043299.JPG,ISIC_0060452.JPG,false,1,keypress(m),500,104930990.0999999,104930989.79999995,104927897.684,104927914.5999999,104927930.78,104930996.085,8,400,13,,ISIC_8043299.JPG
break,html.Screen,4_112_1,2023-11-02T21:33:10.309Z,,0,,,NaN,,,,,,false,,,,104930991.0999999,104930990.70000005,,104930990.29999995,,104930996.085,8,400,,,
break_continue,html.Screen,4_112_2,2023-11-02T21:33:10.310Z,,0,,,NaN,,,,,,false,,,,104930991.29999995,104930991.29999995,,104930991.20000005,,104930996.085,8,400,,,
sequence,flow.Sequence,4_112,2023-11-02T21:33:10.310Z,,0,,,3060.519999951124,completion,,,,,false,,,,104930991.39999986,104930991.29999995,104927897.684,104927914.5999999,104927930.78,104930996.085,8,400,,,
trial,html.Screen,4_113_0,2023-11-02T21:33:13.880Z,,0,3,,3565.11500005424,response,ISIC_8737794.JPG,22,ISIC_0025327.JPG,ISIC_8737794.JPG,false,1,keypress(m),500,104934561.5,104934561.20000005,104930979.804,104930991.5,104930996.085,104934578.012,8,400,14,,ISIC_0025327.JPG
break,html.Screen,4_113_1,2023-11-02T21:33:13.881Z,,0,,,NaN,,,,,,false,,,,104934562.39999986,104934562.20000005,,104934561.70000005,,104934578.012,8,400,,,
break_continue,html.Screen,4_113_2,2023-11-02T21:33:13.881Z,,0,,,NaN,,,,,,false,,,,104934562.70000005,104934562.5999999,,104934562.5,,104934578.012,8,400,,,
sequence,flow.Sequence,4_113,2023-11-02T21:33:13.881Z,,0,,,3566.514999911189,completion,,,,,false,,,,104934562.79999995,104934562.5999999,104930979.804,104930991.5,104930996.085,104934578.012,8,400,,,
trial,html.Screen,4_114_0,2023-11-02T21:33:17.104Z,,0,3,,3207.6880000531673,response,ISIC_0000024.JPG,9,ISIC_9059250.JPG,ISIC_0000024.JPG,false,1,keypress(m),500,104937785.89999986,104937785.70000005,104934562.023,104934562.89999986,104934578.012,104937810.198,8,400,15,,ISIC_9059250.JPG
break,html.Screen,4_114_1,2023-11-02T21:33:17.105Z,,0,,,NaN,,,,,,false,,,,104937786.70000005,104937786.5,,104937786.0999999,,104937810.198,8,400,,,
break_continue,html.Screen,4_114_2,2023-11-02T21:33:17.105Z,,0,,,NaN,,,,,,false,,,,104937787,104937786.89999986,,104937786.79999995,,104937810.198,8,400,,,
sequence,flow.Sequence,4_114,2023-11-02T21:33:17.105Z,,0,,,3208.8879998624325,completion,,,,,false,,,,104937787.20000005,104937786.89999986,104934562.023,104934562.89999986,104934578.012,104937810.198,8,400,,,
trial,html.Screen,4_115_0,2023-11-02T21:33:20.179Z,,0,3,,3050.2019998580217,response,ISIC_0012740.JPG,7,ISIC_0440848.JPG,ISIC_0440848.JPG,false,0,keypress(z),500,104940860.79999995,104940860.39999986,104937793.707,104937787.20000005,104937810.198,104940892.347,8,400,16,,ISIC_0012740.JPG
break,html.Screen,4_115_1,2023-11-02T21:33:20.180Z,,0,,,NaN,,,,,,false,,,,104940861.20000005,104940861.20000005,,104940860.79999995,,104940892.347,8,400,,,
break_continue,html.Screen,4_115_2,2023-11-02T21:33:20.180Z,,0,,,NaN,,,,,,false,,,,104940861.39999986,104940861.29999995,,104940861.29999995,,104940892.347,8,400,,,
sequence,flow.Sequence,4_115,2023-11-02T21:33:20.180Z,,0,,,3051.101999953389,completion,,,,,false,,,,104940861.39999986,104940861.29999995,104937793.707,104937787.20000005,104937810.198,104940892.347,8,400,,,
trial,html.Screen,4_116_0,2023-11-02T21:33:25.066Z,,0,3,,4854.752999901772,response,ISIC_0014707.JPG,10,ISIC_7530414.JPG,ISIC_7530414.JPG,false,0,keypress(z),500,104945747.39999986,104945747.0999999,104940875.786,104940861.5,104940892.347,104945756.734,8,400,17,,ISIC_0014707.JPG
break,html.Screen,4_116_1,2023-11-02T21:33:25.067Z,,0,,,NaN,,,,,,false,,,,104945748.29999995,104945748,,104945747.5999999,,104945756.734,8,400,,,
break_continue,html.Screen,4_116_2,2023-11-02T21:33:25.067Z,,0,,,NaN,,,,,,false,,,,104945748.79999995,104945748.70000005,,104945748.5,,104945756.734,8,400,,,
sequence,flow.Sequence,4_116,2023-11-02T21:33:25.067Z,,0,,,4856.353000044823,completion,,,,,false,,,,104945749,104945748.70000005,104940875.786,104940861.5,104940892.347,104945756.734,8,400,,,
trial,html.Screen,4_117_0,2023-11-02T21:33:31.137Z,,0,3,,6061.6659998595715,response,ISIC_0046597.JPG,26,ISIC_0026081.JPG,ISIC_0046597.JPG,false,1,keypress(m),500,104951818.70000005,104951818.39999986,104945740.178,104945749,104945756.734,104951820.955,8,400,18,,ISIC_0026081.JPG
break,html.Screen,4_117_1,2023-11-02T21:33:31.138Z,,0,,,NaN,,,,,,false,,,,104951819.70000005,104951819.5,,104951818.89999986,,104951820.955,8,400,,,
break_continue,html.Screen,4_117_2,2023-11-02T21:33:31.138Z,,0,,,NaN,,,,,,false,,,,104951819.89999986,104951819.79999995,,104951819.70000005,,104951820.955,8,400,,,
sequence,flow.Sequence,4_117,2023-11-02T21:33:31.138Z,,0,,,6063.065999954939,completion,,,,,false,,,,104951820,104951819.79999995,104945740.178,104945749,104945756.734,104951820.955,8,400,,,
trial,html.Screen,4_118_0,2023-11-02T21:33:33.830Z,,0,3,,2689.944999858737,response,ISIC_0024449.JPG,5,ISIC_0011504.JPG,ISIC_0024449.JPG,false,1,keypress(m),500,104954511.20000005,104954510.89999986,104951804.846,104951820.0999999,104951820.955,104954519.902,8,400,19,,ISIC_0011504.JPG
break,html.Screen,4_118_1,2023-11-02T21:33:33.830Z,,0,,,NaN,,,,,,false,,,,104954512.20000005,104954511.89999986,,104954511.39999986,,104954519.902,8,400,,,
break_continue,html.Screen,4_118_2,2023-11-02T21:33:33.831Z,,0,,,NaN,,,,,,false,,,,104954512.5,104954512.39999986,,104954512.29999995,,104954519.902,8,400,,,
sequence,flow.Sequence,4_118,2023-11-02T21:33:33.831Z,,0,,,2691.444999858737,completion,,,,,false,,,,104954512.5999999,104954512.39999986,104951804.846,104951820.0999999,104951820.955,104954519.902,8,400,,,
trial,html.Screen,4_119_0,2023-11-02T21:33:36.905Z,,0,3,,3066.5980000048876,response,ISIC_6006795.JPG,7,ISIC_5333058.JPG,ISIC_5333058.JPG,false,0,keypress(z),500,104957586.79999995,104957586.5,104954503.611,104954512.70000005,104954519.902,104957602.318,8,400,20,,ISIC_6006795.JPG
break,html.Screen,4_119_1,2023-11-02T21:33:36.906Z,,0,,,NaN,,,,,,false,,,,104957587.5999999,104957587.29999995,,104957586.89999986,,104957602.318,8,400,,,
break_continue,html.Screen,4_119_2,2023-11-02T21:33:36.906Z,,0,,,NaN,,,,,,false,,,,104957588,104957587.89999986,,104957587.70000005,,104957602.318,8,400,,,
sequence,flow.Sequence,4_119,2023-11-02T21:33:36.906Z,,0,,,3067.9979998618364,completion,,,,,false,,,,104957588,104957587.89999986,104954503.611,104954512.5999999,104954519.902,104957602.318,8,400,,,
