sender,sender_type,sender_id,timestamp,meta,,blockNo,condition,duration,ended_on,img_left,img_reveal,img_right,loser,practice,response,response_action,selection_duration,time_commit,time_end,time_render,time_run,time_show,time_switch,total_blocks,total_trials,trialNo,url,winner
informed_consent,html.Screen,0,2023-11-01T15:41:43.009Z,"{""labjs_version"":""20.2.4"",""labjs_build"":{""flavor"":""production"",""commit"":""f5b4a49f956347addd546a832a3327688c2c0fef""},""location"":""https://run.pavlovia.org/MurrayBennett/melanoma-2afc/?participant=66282&platform=sona"",""userAgent"":""Mozilla/5.0 (Windows NT 10.0; Win64; x64) AppleWebKit/537.36 (KHTML, like Gecko) Chrome/119.0.0.0 Safari/537.36"",""platform"":""Win32"",""language"":""en-US"",""locale"":""en-US"",""timeZone"":""America/Chicago"",""timezoneOffset"":300,""screen_width"":1536,""screen_height"":864,""scroll_width"":1536,""scroll_height"":682,""window_innerWidth"":1536,""window_innerHeight"":730,""devicePixelRatio"":1.25}",,,,12462.243000005961,response,,,,,,consent,click button,,16148.20000000298,16143.40000000596,3397.863,3688,3681.157,16164.26,,,,"{""participant"":""66282"",""platform"":""sona""}",
Welcome,html.Screen,1,2023-11-01T15:41:54.706Z,,,,asymmetry,11679.53999999702,response,,,,,,continue,click button,,27845.40000000596,27843.79999999702,16130.835,16148.59999999404,16164.26,27847.191,,,,,
trial,html.Screen,2_0_0,2023-11-01T15:42:01.557Z,,0,0,,6835.108999997021,response,ISIC_6997061.JPG,,ISIC_0069348.JPG,ISIC_6997061.JPG,true,1,keypress(m),500,34682.79999999702,34682.29999999702,27830.577,27845.90000000596,27847.191,34697.309,1,6,1,,ISIC_0069348.JPG
sequence,flow.Sequence,2_0,2023-11-01T15:42:01.558Z,,0,,,6835.108999997021,completion,,,,,true,,,,34683.5,34682.29999999702,27830.577,27845.79999999702,27847.191,34697.309,1,6,,,
trial,html.Screen,2_1_0,2023-11-01T15:42:17.798Z,,0,0,,16249.269,timeout,ISIC_0009529.JPG,,ISIC_0057368.JPG,,true,,,500,50923.40000000596,50923.20000000298,34680.67,34683.59999999404,34697.309,50946.578,1,6,2,,
sequence,flow.Sequence,2_1,2023-11-01T15:42:17.798Z,,0,,,16225.89100000298,completion,,,,,true,,,,50923.70000000298,50923.20000000298,34680.67,34683.5,34697.309,50946.578,1,6,,,
trial,html.Screen,2_2_0,2023-11-01T15:42:24.097Z,,0,0,,6275.822000005959,response,ISIC_0064954.JPG,,ISIC_9758671.JPG,ISIC_9758671.JPG,true,0,keypress(z),500,57222.70000000298,57222.40000000596,50931.165,50924,50946.578,57230.07,1,6,3,,ISIC_0064954.JPG
sequence,flow.Sequence,2_2,2023-11-01T15:42:24.097Z,,0,,,6275.822000005959,completion,,,,,true,,,,57223,57222.40000000596,50931.165,50924,50946.578,57230.07,1,6,,,
trial,html.Screen,2_3_0,2023-11-01T15:42:27.780Z,,0,0,,3675.22999999702,response,ISIC_0000080.JPG,,ISIC_0005785.JPG,ISIC_0000080.JPG,true,1,keypress(m),500,60905.59999999404,60905.29999999702,57213.498,57223.29999999702,57230.07,60913.124,1,6,4,,ISIC_0005785.JPG
sequence,flow.Sequence,2_3,2023-11-01T15:42:27.780Z,,0,,,3675.22999999702,completion,,,,,true,,,,60906.09999999404,60905.29999999702,57213.498,57223.20000000298,57230.07,60913.124,1,6,,,
trial,html.Screen,2_4_0,2023-11-01T15:42:31.079Z,,0,0,,3290.8759999999966,response,ISIC_7944028.JPG,,ISIC_5390060.JPG,ISIC_7944028.JPG,true,1,keypress(m),500,64204.40000000596,64204,60899.109,60906.20000000298,60913.124,64213.662,1,6,5,,ISIC_5390060.JPG
sequence,flow.Sequence,2_4,2023-11-01T15:42:31.079Z,,0,,,3290.8759999999966,completion,,,,,true,,,,64204.79999999702,64204,60899.109,60906.20000000298,60913.124,64213.662,1,6,,,
trial,html.Screen,2_5_0,2023-11-01T15:42:34.473Z,,0,0,,3385.137999997023,response,ISIC_0010188.JPG,,ISIC_0794216.JPG,ISIC_0794216.JPG,true,0,keypress(z),500,67599.20000000298,67598.79999999702,64196.913,64205,64213.662,67614.349,1,6,6,,ISIC_0010188.JPG
sequence,flow.Sequence,2_5,2023-11-01T15:42:34.474Z,,0,,,3385.137999997023,completion,,,,,true,,,,67599.5,67598.79999999702,64196.913,64204.90000000596,64213.662,67614.349,1,6,,,
loop,flow.Loop,2,2023-11-01T15:42:34.474Z,,,,,39751.60899999702,completion,,,,,true,,,,67599.79999999702,67598.79999999702,27830.577,27845.79999999702,27847.191,67614.349,1,6,,,
exp_instructions,html.Screen,3,2023-11-01T15:42:39.499Z,,,,,5009.351000002978,response,,,,,,continue,keypress(Space),,72624.40000000596,72623.70000000298,67596.522,67599.90000000596,67614.349,72630.287,,,,,
trial,html.Screen,4_0_0,2023-11-01T15:42:43.006Z,,0,1,,3501.312999994043,response,ISIC_8194467.JPG,5,ISIC_0030235.JPG,ISIC_8194467.JPG,false,1,keypress(m),500,76131.79999999702,76131.59999999404,72613.477,72624.5,72630.287,76146.197,8,400,1,,ISIC_0030235.JPG
break,html.Screen,4_0_1,2023-11-01T15:42:43.008Z,,0,,,NaN,,,,,,false,,,,76134.09999999404,76133.70000000298,,76132.20000000298,,76146.197,8,400,,,
break_continue,html.Screen,4_0_2,2023-11-01T15:42:43.009Z,,0,,,NaN,,,,,,false,,,,76134.5,76134.40000000596,,76134.20000000298,,76146.197,8,400,,,
sequence,flow.Sequence,4_0,2023-11-01T15:42:43.009Z,,0,,,3504.113000005964,completion,,,,,false,,,,76134.59999999404,76134.40000000596,72613.477,72624.5,72630.287,76146.197,8,400,,,
trial,html.Screen,4_1_0,2023-11-01T15:42:45.875Z,,0,1,,2854.2030000059603,response,ISIC_0000213.JPG,4,ISIC_3065253.JPG,ISIC_3065253.JPG,false,0,keypress(z),500,79000.70000000298,79000.40000000596,76128.963,76134.79999999702,76146.197,79012.449,8,400,2,,ISIC_0000213.JPG
break,html.Screen,4_1_1,2023-11-01T15:42:45.876Z,,0,,,NaN,,,,,,false,,,,79001.79999999702,79001.5,,79000.90000000596,,79012.449,8,400,,,
break_continue,html.Screen,4_1_2,2023-11-01T15:42:45.876Z,,0,,,NaN,,,,,,false,,,,79002.20000000298,79002.09999999404,,79001.90000000596,,79012.449,8,400,,,
sequence,flow.Sequence,4_1,2023-11-01T15:42:45.877Z,,0,,,2855.9029999940394,completion,,,,,false,,,,79002.29999999702,79002.09999999404,76128.963,76134.79999999702,76146.197,79012.449,8,400,,,
trial,html.Screen,4_2_0,2023-11-01T15:42:48.696Z,,0,1,,2808.6509999940463,response,ISIC_0001112.JPG,5,ISIC_0028788.JPG,ISIC_0028788.JPG,false,0,keypress(z),500,81821.5,81821.09999999404,78996.339,79002.40000000596,79012.449,81829.655,8,400,3,,ISIC_0001112.JPG
break,html.Screen,4_2_1,2023-11-01T15:42:48.697Z,,0,,,NaN,,,,,,false,,,,81823,81822.79999999702,,81821.59999999404,,81829.655,8,400,,,
break_continue,html.Screen,4_2_2,2023-11-01T15:42:48.698Z,,0,,,NaN,,,,,,false,,,,81823.29999999702,81823.20000000298,,81823.20000000298,,81829.655,8,400,,,
sequence,flow.Sequence,4_2,2023-11-01T15:42:48.698Z,,0,,,2810.751000002987,completion,,,,,false,,,,81823.5,81823.20000000298,78996.339,79002.40000000596,79012.449,81829.655,8,400,,,
trial,html.Screen,4_3_0,2023-11-01T15:42:51.740Z,,0,1,,3035.4449999940407,response,ISIC_5675703.JPG,5,ISIC_0067167.JPG,ISIC_0067167.JPG,false,0,keypress(z),500,84865.40000000596,84865.09999999404,81812.611,81823.59999999404,81829.655,84882.047,8,400,4,,ISIC_5675703.JPG
break,html.Screen,4_3_1,2023-11-01T15:42:51.741Z,,0,,,NaN,,,,,,false,,,,84867.09999999404,84866.90000000596,,84865.70000000298,,84882.047,8,400,,,
break_continue,html.Screen,4_3_2,2023-11-01T15:42:51.742Z,,0,,,NaN,,,,,,false,,,,84867.40000000596,84867.40000000596,,84867.20000000298,,84882.047,8,400,,,
sequence,flow.Sequence,4_3,2023-11-01T15:42:51.742Z,,0,,,3037.7450000059616,completion,,,,,false,,,,84867.59999999404,84867.40000000596,81812.611,81823.59999999404,81829.655,84882.047,8,400,,,
trial,html.Screen,4_4_0,2023-11-01T15:42:54.864Z,,0,1,,3107.452999999994,response,ISIC_0072215.JPG,5,ISIC_8618835.JPG,ISIC_8618835.JPG,false,0,keypress(z),500,87989.79999999702,87989.5,84862.466,84867.59999999404,84882.047,87995.57,8,400,5,,ISIC_0072215.JPG
break,html.Screen,4_4_1,2023-11-01T15:42:54.866Z,,0,,,NaN,,,,,,false,,,,87991.59999999404,87991.40000000596,,87990.09999999404,,87995.57,8,400,,,
break_continue,html.Screen,4_4_2,2023-11-01T15:42:54.866Z,,0,,,NaN,,,,,,false,,,,87992.09999999404,87992,,87991.79999999702,,87995.57,8,400,,,
sequence,flow.Sequence,4_4,2023-11-01T15:42:54.866Z,,0,,,3109.952999999994,completion,,,,,false,,,,87992.20000000298,87992,84862.466,84867.59999999404,84882.047,87995.57,8,400,,,
trial,html.Screen,4_5_0,2023-11-01T15:42:58.356Z,,0,1,,3485.929999999993,response,ISIC_0012025.JPG,6,ISIC_0056930.JPG,ISIC_0012025.JPG,false,1,keypress(m),500,91481.79999999702,91481.5,87978.732,87992.29999999702,87995.57,91495.713,8,400,6,,ISIC_0056930.JPG
break,html.Screen,4_5_1,2023-11-01T15:42:58.357Z,,0,,,NaN,,,,,,false,,,,91482.70000000298,91482.5,,91482,,91495.713,8,400,,,
break_continue,html.Screen,4_5_2,2023-11-01T15:42:58.357Z,,0,,,NaN,,,,,,false,,,,91482.90000000596,91482.90000000596,,91482.79999999702,,91495.713,8,400,,,
sequence,flow.Sequence,4_5,2023-11-01T15:42:58.357Z,,0,,,3487.3300000059535,completion,,,,,false,,,,91483.20000000298,91482.90000000596,87978.732,87992.20000000298,87995.57,91495.713,8,400,,,
trial,html.Screen,4_6_0,2023-11-01T15:43:01.927Z,,0,1,,3556.487000002977,response,ISIC_0066626.JPG,5,ISIC_0059733.JPG,ISIC_0066626.JPG,false,1,keypress(m),500,95052.40000000596,95052.20000000298,91479.061,91483.20000000298,91495.713,95062.018,8,400,7,,ISIC_0059733.JPG
break,html.Screen,4_6_1,2023-11-01T15:43:01.928Z,,0,,,NaN,,,,,,false,,,,95054,95053.79999999702,,95052.59999999404,,95062.018,8,400,,,
break_continue,html.Screen,4_6_2,2023-11-01T15:43:01.928Z,,0,,,NaN,,,,,,false,,,,95054.40000000596,95054.29999999702,,95054,,95062.018,8,400,,,
sequence,flow.Sequence,4_6,2023-11-01T15:43:01.929Z,,0,,,3558.5869999970164,completion,,,,,false,,,,95054.5,95054.29999999702,91479.061,91483.20000000298,91495.713,95062.018,8,400,,,
trial,html.Screen,4_7_0,2023-11-01T15:43:05.035Z,,0,1,,3098.382000005964,response,ISIC_0057696.JPG,5,ISIC_0000304.JPG,ISIC_0000304.JPG,false,0,keypress(z),500,98160.79999999702,98160.40000000596,95045.849,95054.59999999404,95062.018,98179.642,8,400,8,,ISIC_0057696.JPG
break,html.Screen,4_7_1,2023-11-01T15:43:05.037Z,,0,,,NaN,,,,,,false,,,,98162.5,98162.20000000298,,98161,,98179.642,8,400,,,
break_continue,html.Screen,4_7_2,2023-11-01T15:43:05.037Z,,0,,,NaN,,,,,,false,,,,98162.90000000596,98162.79999999702,,98162.59999999404,,98179.642,8,400,,,
sequence,flow.Sequence,4_7,2023-11-01T15:43:05.037Z,,0,,,3100.7819999970234,completion,,,,,false,,,,98163,98162.79999999702,95045.849,95054.59999999404,95062.018,98179.642,8,400,,,
trial,html.Screen,4_8_0,2023-11-01T15:43:08.032Z,,0,1,,2977.7580000059534,response,ISIC_8740331.JPG,5,ISIC_0010942.JPG,ISIC_8740331.JPG,false,1,keypress(m),500,101157.79999999702,101157.40000000596,98145.336,98163,98179.642,101179.041,8,400,9,,ISIC_0010942.JPG
break,html.Screen,4_8_1,2023-11-01T15:43:08.033Z,,0,,,NaN,,,,,,false,,,,101158.59999999404,101158.5,,101158,,101179.041,8,400,,,
break_continue,html.Screen,4_8_2,2023-11-01T15:43:08.033Z,,0,,,NaN,,,,,,false,,,,101159.09999999404,101159,,101158.79999999702,,101179.041,8,400,,,
sequence,flow.Sequence,4_8,2023-11-01T15:43:08.033Z,,0,,,2979.357999999993,completion,,,,,false,,,,101159.20000000298,101159,98145.336,98163,98179.642,101179.041,8,400,,,
trial,html.Screen,4_9_0,2023-11-01T15:43:11.507Z,,0,1,,3453.558999994042,response,ISIC_0029033.JPG,5,ISIC_9529971.JPG,ISIC_0029033.JPG,false,1,keypress(m),500,104632.90000000596,104632.59999999404,101145.154,101159.29999999702,101179.041,104646.558,8,400,10,,ISIC_9529971.JPG
break,html.Screen,4_9_1,2023-11-01T15:43:11.509Z,,0,,,NaN,,,,,,false,,,,104634.79999999702,104634.5,,104633.20000000298,,104646.558,8,400,,,
break_continue,html.Screen,4_9_2,2023-11-01T15:43:11.509Z,,0,,,NaN,,,,,,false,,,,104635.09999999404,104635,,104634.90000000596,,104646.558,8,400,,,
sequence,flow.Sequence,4_9,2023-11-01T15:43:11.509Z,,0,,,3455.9590000000026,completion,,,,,false,,,,104635.29999999702,104635,101145.154,101159.20000000298,101179.041,104646.558,8,400,,,
trial,html.Screen,4_10_0,2023-11-01T15:43:14.663Z,,0,1,,3142.4419999999955,response,ISIC_2076902.JPG,4,ISIC_1869829.JPG,ISIC_1869829.JPG,false,0,keypress(z),500,107789.20000000298,107789,104629.055,104635.29999999702,104646.558,107795.631,8,400,11,,ISIC_2076902.JPG
break,html.Screen,4_10_1,2023-11-01T15:43:14.665Z,,0,,,NaN,,,,,,false,,,,107790.70000000298,107790.5,,107789.40000000596,,107795.631,8,400,,,
break_continue,html.Screen,4_10_2,2023-11-01T15:43:14.665Z,,0,,,NaN,,,,,,false,,,,107791,107791,,107790.79999999702,,107795.631,8,400,,,
sequence,flow.Sequence,4_10,2023-11-01T15:43:14.665Z,,0,,,3144.4419999999955,completion,,,,,false,,,,107791.20000000298,107791,104629.055,104635.29999999702,104646.558,107795.631,8,400,,,
trial,html.Screen,4_11_0,2023-11-01T15:43:17.915Z,,0,1,,3244.668999997026,response,ISIC_0054134.JPG,5,ISIC_0024688.JPG,ISIC_0054134.JPG,false,1,keypress(m),500,111040.59999999404,111040.29999999702,107778.815,107791.20000000298,107795.631,111061.64,8,400,12,,ISIC_0024688.JPG
break,html.Screen,4_11_1,2023-11-01T15:43:17.916Z,,0,,,NaN,,,,,,false,,,,111041.5,111041.40000000596,,111040.79999999702,,111061.64,8,400,,,
break_continue,html.Screen,4_11_2,2023-11-01T15:43:17.916Z,,0,,,NaN,,,,,,false,,,,111041.90000000596,111041.79999999702,,111041.70000000298,,111061.64,8,400,,,
sequence,flow.Sequence,4_11,2023-11-01T15:43:17.916Z,,0,,,3246.168999997026,completion,,,,,false,,,,111042,111041.79999999702,107778.815,107791.20000000298,107795.631,111061.64,8,400,,,
trial,html.Screen,4_12_0,2023-11-01T15:43:20.880Z,,0,1,,2943.560000002981,response,ISIC_0061108.JPG,5,ISIC_9312264.JPG,ISIC_9312264.JPG,false,0,keypress(z),500,114005.40000000596,114005.20000000298,111045.237,111042.20000000298,111061.64,114012.305,8,400,13,,ISIC_0061108.JPG
break,html.Screen,4_12_1,2023-11-01T15:43:20.881Z,,0,,,NaN,,,,,,false,,,,114006.40000000596,114006.29999999702,,114005.59999999404,,114012.305,8,400,,,
break_continue,html.Screen,4_12_2,2023-11-01T15:43:20.881Z,,0,,,NaN,,,,,,false,,,,114006.70000000298,114006.70000000298,,114006.59999999404,,114012.305,8,400,,,
sequence,flow.Sequence,4_12,2023-11-01T15:43:20.881Z,,0,,,2945.060000002981,completion,,,,,false,,,,114006.90000000596,114006.70000000298,111045.237,111042.09999999404,111061.64,114012.305,8,400,,,
trial,html.Screen,4_13_0,2023-11-01T15:43:24.163Z,,0,1,,3276.5950000059674,response,ISIC_9544832.JPG,5,ISIC_0062812.JPG,ISIC_0062812.JPG,false,0,keypress(z),500,117289.09999999404,117288.90000000596,113994.868,114007,114012.305,117294.776,8,400,14,,ISIC_9544832.JPG
break,html.Screen,4_13_1,2023-11-01T15:43:24.165Z,,0,,,NaN,,,,,,false,,,,117290.90000000596,117290.70000000298,,117289.40000000596,,117294.776,8,400,,,
break_continue,html.Screen,4_13_2,2023-11-01T15:43:24.165Z,,0,,,NaN,,,,,,false,,,,117291.29999999702,117291.20000000298,,117291.09999999404,,117294.776,8,400,,,
sequence,flow.Sequence,4_13,2023-11-01T15:43:24.166Z,,0,,,3278.895000002987,completion,,,,,false,,,,117291.5,117291.20000000298,113994.868,114006.90000000596,114012.305,117294.776,8,400,,,
trial,html.Screen,4_14_0,2023-11-01T15:43:27.592Z,,0,1,,3422.424000002982,response,ISIC_0030437.JPG,6,ISIC_0011448.JPG,ISIC_0011448.JPG,false,0,keypress(z),500,120717.59999999404,120717.20000000298,117278.667,117291.59999999404,117294.776,120728.226,8,400,15,,ISIC_0030437.JPG
break,html.Screen,4_14_1,2023-11-01T15:43:27.593Z,,0,,,NaN,,,,,,false,,,,120718.59999999404,120718.40000000596,,120717.79999999702,,120728.226,8,400,,,
break_continue,html.Screen,4_14_2,2023-11-01T15:43:27.593Z,,0,,,NaN,,,,,,false,,,,120719,120718.79999999702,,120718.70000000298,,120728.226,8,400,,,
sequence,flow.Sequence,4_14,2023-11-01T15:43:27.593Z,,0,,,3424.0239999970217,completion,,,,,false,,,,120719.20000000298,120718.79999999702,117278.667,117291.59999999404,117294.776,120728.226,8,400,,,
trial,html.Screen,4_15_0,2023-11-01T15:43:30.811Z,,0,1,,3208.1740000059654,response,ISIC_4433832.JPG,5,ISIC_0067565.JPG,ISIC_4433832.JPG,false,1,keypress(m),500,123936.70000000298,123936.40000000596,120711.54,120719.20000000298,120728.226,123961.55,8,400,16,,ISIC_0067565.JPG
break,html.Screen,4_15_1,2023-11-01T15:43:30.812Z,,0,,,NaN,,,,,,false,,,,123937.59999999404,123937.5,,123936.90000000596,,123961.55,8,400,,,
break_continue,html.Screen,4_15_2,2023-11-01T15:43:30.812Z,,0,,,NaN,,,,,,false,,,,123937.90000000596,123937.79999999702,,123937.70000000298,,123961.55,8,400,,,
sequence,flow.Sequence,4_15,2023-11-01T15:43:30.812Z,,0,,,3209.5739999970247,completion,,,,,false,,,,123938,123937.79999999702,120711.54,120719.20000000298,120728.226,123961.55,8,400,,,
trial,html.Screen,4_16_0,2023-11-01T15:43:34.062Z,,0,1,,3225.6500000029773,response,ISIC_0068015.JPG,5,ISIC_6566042.JPG,ISIC_0068015.JPG,false,1,keypress(m),500,127187.59999999404,127187.20000000298,123944.836,123938.09999999404,123961.55,127211.184,8,400,17,,ISIC_6566042.JPG
break,html.Screen,4_16_1,2023-11-01T15:43:34.063Z,,0,,,NaN,,,,,,false,,,,127188.79999999702,127188.59999999404,,127187.90000000596,,127211.184,8,400,,,
break_continue,html.Screen,4_16_2,2023-11-01T15:43:34.063Z,,0,,,NaN,,,,,,false,,,,127189.20000000298,127189.09999999404,,127189,,127211.184,8,400,,,
sequence,flow.Sequence,4_16,2023-11-01T15:43:34.063Z,,0,,,3227.5499999940366,completion,,,,,false,,,,127189.29999999702,127189.09999999404,123944.836,123938.09999999404,123961.55,127211.184,8,400,,,
trial,html.Screen,4_17_0,2023-11-01T15:43:37.426Z,,0,1,,3340.615999997026,response,ISIC_0005139.JPG,4,ISIC_3323866.JPG,ISIC_0005139.JPG,false,1,keypress(m),500,130552.09999999404,130551.79999999702,127194.746,127189.40000000596,127211.184,130562.017,8,400,18,,ISIC_3323866.JPG
break,html.Screen,4_17_1,2023-11-01T15:43:37.428Z,,0,,,NaN,,,,,,false,,,,130553.90000000596,130553.70000000298,,130552.29999999702,,130562.017,8,400,,,
break_continue,html.Screen,4_17_2,2023-11-01T15:43:37.428Z,,0,,,NaN,,,,,,false,,,,130554.29999999702,130554.20000000298,,130554.09999999404,,130562.017,8,400,,,
sequence,flow.Sequence,4_17,2023-11-01T15:43:37.429Z,,0,,,3343.0160000029864,completion,,,,,false,,,,130554.5,130554.20000000298,127194.746,127189.29999999702,127211.184,130562.017,8,400,,,
trial,html.Screen,4_18_0,2023-11-01T15:43:41.062Z,,0,1,,3625.683000002973,response,ISIC_5932383.JPG,5,ISIC_2119925.JPG,ISIC_2119925.JPG,false,0,keypress(z),500,134188,134187.70000000298,130545.133,130554.59999999404,130562.017,134194.308,8,400,19,,ISIC_5932383.JPG
break,html.Screen,4_18_1,2023-11-01T15:43:41.063Z,,0,,,NaN,,,,,,false,,,,134189.09999999404,134188.90000000596,,134188.29999999702,,134194.308,8,400,,,
break_continue,html.Screen,4_18_2,2023-11-01T15:43:41.064Z,,0,,,NaN,,,,,,false,,,,134189.59999999404,134189.40000000596,,134189.20000000298,,134194.308,8,400,,,
sequence,flow.Sequence,4_18,2023-11-01T15:43:41.064Z,,0,,,3627.3830000059534,completion,,,,,false,,,,134189.70000000298,134189.40000000596,130545.133,130554.59999999404,130562.017,134194.308,8,400,,,
trial,html.Screen,4_19_0,2023-11-01T15:43:44.458Z,,0,1,,3389.3920000029902,response,ISIC_9588279.JPG,5,ISIC_4425657.JPG,ISIC_9588279.JPG,false,1,keypress(m),500,137584,137583.70000000298,134177.97,134189.90000000596,134194.308,137594.425,8,400,20,,ISIC_4425657.JPG
break,html.Screen,4_19_1,2023-11-01T15:43:44.460Z,,0,,,NaN,,,,,,false,,,,137586.09999999404,137585.79999999702,,137584.20000000298,,137594.425,8,400,,,
break_continue,html.Screen,4_19_2,2023-11-01T15:43:44.461Z,,0,,,NaN,,,,,,false,,,,137586.40000000596,137586.40000000596,,137586.20000000298,,137594.425,8,400,,,
sequence,flow.Sequence,4_19,2023-11-01T15:43:44.461Z,,0,,,3392.0920000059705,completion,,,,,false,,,,137586.59999999404,137586.40000000596,134177.97,134189.79999999702,134194.308,137594.425,8,400,,,
trial,html.Screen,4_20_0,2023-11-01T15:43:48.127Z,,0,1,,3658.174999994051,response,ISIC_0027076.JPG,5,ISIC_5785408.JPG,ISIC_5785408.JPG,false,0,keypress(z),500,141252.90000000596,141252.59999999404,137577.806,137586.59999999404,137594.425,141261.519,8,400,21,,ISIC_0027076.JPG
break,html.Screen,4_20_1,2023-11-01T15:43:48.128Z,,0,,,NaN,,,,,,false,,,,141254,141253.79999999702,,141253.20000000298,,141261.519,8,400,,,
break_continue,html.Screen,4_20_2,2023-11-01T15:43:48.129Z,,0,,,NaN,,,,,,false,,,,141254.59999999404,141254.40000000596,,141254.29999999702,,141261.519,8,400,,,
sequence,flow.Sequence,4_20,2023-11-01T15:43:48.129Z,,0,,,3659.975000005972,completion,,,,,false,,,,141254.79999999702,141254.40000000596,137577.806,137586.59999999404,137594.425,141261.519,8,400,,,
trial,html.Screen,4_21_0,2023-11-01T15:43:52.228Z,,0,1,,4091.5809999940393,response,ISIC_0032723.JPG,4,ISIC_8020153.JPG,ISIC_8020153.JPG,false,0,keypress(z),500,145353.59999999404,145353.09999999404,141244.34,141254.90000000596,141261.519,145360.74,8,400,22,,ISIC_0032723.JPG
break,html.Screen,4_21_1,2023-11-01T15:43:52.230Z,,0,,,NaN,,,,,,false,,,,145355.79999999702,145355.40000000596,,145353.79999999702,,145360.74,8,400,,,
break_continue,html.Screen,4_21_2,2023-11-01T15:43:52.230Z,,0,,,NaN,,,,,,false,,,,145356.29999999702,145356.29999999702,,145356,,145360.74,8,400,,,
sequence,flow.Sequence,4_21,2023-11-01T15:43:52.231Z,,0,,,4094.7809999970195,completion,,,,,false,,,,145356.59999999404,145356.29999999702,141244.34,141254.90000000596,141261.519,145360.74,8,400,,,
trial,html.Screen,4_22_0,2023-11-01T15:43:56.186Z,,0,1,,3950.559999997029,response,ISIC_3520750.JPG,5,ISIC_0024296.JPG,ISIC_3520750.JPG,false,1,keypress(m),500,149311.59999999404,149311.29999999702,145344.596,145356.90000000596,145360.74,149327.36,8,400,23,,ISIC_0024296.JPG
break,html.Screen,4_22_1,2023-11-01T15:43:56.187Z,,0,,,NaN,,,,,,false,,,,149312.70000000298,149312.59999999404,,149311.90000000596,,149327.36,8,400,,,
break_continue,html.Screen,4_22_2,2023-11-01T15:43:56.187Z,,0,,,NaN,,,,,,false,,,,149313.09999999404,149313,,149312.90000000596,,149327.36,8,400,,,
sequence,flow.Sequence,4_22,2023-11-01T15:43:56.187Z,,0,,,3952.2600000000093,completion,,,,,false,,,,149313.29999999702,149313,145344.596,145356.79999999702,145360.74,149327.36,8,400,,,
trial,html.Screen,4_23_0,2023-11-01T15:43:59.629Z,,0,1,,3427.640000000014,response,ISIC_8357679.JPG,5,ISIC_6737771.JPG,ISIC_6737771.JPG,false,0,keypress(z),500,152755.29999999702,152755,149311.011,149313.5,149327.36,152760.894,8,400,24,,ISIC_8357679.JPG
break,html.Screen,4_23_1,2023-11-01T15:43:59.630Z,,0,,,NaN,,,,,,false,,,,152756.5,152756.29999999702,,152755.40000000596,,152760.894,8,400,,,
break_continue,html.Screen,4_23_2,2023-11-01T15:43:59.631Z,,0,,,NaN,,,,,,false,,,,152756.79999999702,152756.70000000298,,152756.59999999404,,152760.894,8,400,,,
sequence,flow.Sequence,4_23,2023-11-01T15:43:59.631Z,,0,,,3429.340000002994,completion,,,,,false,,,,152757,152756.70000000298,149311.011,149313.40000000596,149327.36,152760.894,8,400,,,
trial,html.Screen,4_24_0,2023-11-01T15:44:03.313Z,,0,1,,3677.7059999940393,response,ISIC_0010967.JPG,5,ISIC_0068413.JPG,ISIC_0068413.JPG,false,0,keypress(z),500,156439,156438.59999999404,152744.087,152757,152760.894,156461.467,8,400,25,,ISIC_0010967.JPG
break,html.Screen,4_24_1,2023-11-01T15:44:03.314Z,,0,,,NaN,,,,,,false,,,,156439.90000000596,156439.79999999702,,156439.20000000298,,156461.467,8,400,,,
break_continue,html.Screen,4_24_2,2023-11-01T15:44:03.314Z,,0,,,NaN,,,,,,false,,,,156440.29999999702,156440.09999999404,,156440,,156461.467,8,400,,,
sequence,flow.Sequence,4_24,2023-11-01T15:44:03.314Z,,0,,,3679.2059999940393,completion,,,,,false,,,,156440.40000000596,156440.09999999404,152744.087,152757,152760.894,156461.467,8,400,,,
trial,html.Screen,4_25_0,2023-11-01T15:44:06.405Z,,0,1,,3068.9330000059563,response,ISIC_4471367.JPG,5,ISIC_0032547.JPG,ISIC_4471367.JPG,false,1,keypress(m),500,159530.70000000298,159530.40000000596,156427.436,156440.5,156461.467,159543.729,8,400,26,,ISIC_0032547.JPG
break,html.Screen,4_25_1,2023-11-01T15:44:06.406Z,,0,,,NaN,,,,,,false,,,,159531.90000000596,159531.59999999404,,159531,,159543.729,8,400,,,
break_continue,html.Screen,4_25_2,2023-11-01T15:44:06.406Z,,0,,,NaN,,,,,,false,,,,159532.40000000596,159532.29999999702,,159532.09999999404,,159543.729,8,400,,,
sequence,flow.Sequence,4_25,2023-11-01T15:44:06.406Z,,0,,,3070.8329999970156,completion,,,,,false,,,,159532.5,159532.29999999702,156427.436,156440.5,156461.467,159543.729,8,400,,,
trial,html.Screen,4_26_0,2023-11-01T15:44:09.402Z,,0,1,,2983.971000002988,response,ISIC_0053469.JPG,5,ISIC_0033157.JPG,ISIC_0033157.JPG,false,0,keypress(z),500,162527.90000000596,162527.70000000298,159527.067,159534,159543.729,162543.776,8,400,27,,ISIC_0053469.JPG
break,html.Screen,4_26_1,2023-11-01T15:44:09.403Z,,0,,,NaN,,,,,,false,,,,162528.79999999702,162528.70000000298,,162528.09999999404,,162543.776,8,400,,,
break_continue,html.Screen,4_26_2,2023-11-01T15:44:09.403Z,,0,,,NaN,,,,,,false,,,,162529.09999999404,162529,,162528.90000000596,,162543.776,8,400,,,
sequence,flow.Sequence,4_26,2023-11-01T15:44:09.403Z,,0,,,2985.271000000008,completion,,,,,false,,,,162529.29999999702,162529,159527.067,159533.90000000596,159543.729,162543.776,8,400,,,
trial,html.Screen,4_27_0,2023-11-01T15:44:12.573Z,,0,1,,3154.624000005948,response,ISIC_9694911.JPG,5,ISIC_9542544.JPG,ISIC_9694911.JPG,false,1,keypress(m),500,165698.79999999702,165698.40000000596,162526.786,162529.40000000596,162543.776,165710.103,8,400,28,,ISIC_9542544.JPG
break,html.Screen,4_27_1,2023-11-01T15:44:12.574Z,,0,,,NaN,,,,,,false,,,,165699.90000000596,165699.70000000298,,165699.20000000298,,165710.103,8,400,,,
break_continue,html.Screen,4_27_2,2023-11-01T15:44:12.574Z,,0,,,NaN,,,,,,false,,,,165700.40000000596,165700.29999999702,,165700.20000000298,,165710.103,8,400,,,
sequence,flow.Sequence,4_27,2023-11-01T15:44:12.574Z,,0,,,3156.523999997007,completion,,,,,false,,,,165700.5,165700.29999999702,162526.786,162529.40000000596,162543.776,165710.103,8,400,,,
trial,html.Screen,4_28_0,2023-11-01T15:44:17.984Z,,0,1,,5399.797000005958,response,ISIC_0034000.JPG,6,ISIC_0057313.JPG,ISIC_0034000.JPG,false,1,keypress(m),500,171110.20000000298,171109.90000000596,165693.39,165700.70000000298,165710.103,171126.877,8,400,29,,ISIC_0057313.JPG
break,html.Screen,4_28_1,2023-11-01T15:44:17.985Z,,0,,,NaN,,,,,,false,,,,171111.20000000298,171110.90000000596,,171110.40000000596,,171126.877,8,400,,,
break_continue,html.Screen,4_28_2,2023-11-01T15:44:17.985Z,,0,,,NaN,,,,,,false,,,,171111.5,171111.40000000596,,171111.29999999702,,171126.877,8,400,,,
sequence,flow.Sequence,4_28,2023-11-01T15:44:17.986Z,,0,,,5401.297000005958,completion,,,,,false,,,,171111.70000000298,171111.40000000596,165693.39,165700.59999999404,165710.103,171126.877,8,400,,,
trial,html.Screen,4_29_0,2023-11-01T15:44:21.315Z,,0,1,,3314.3230000029725,response,ISIC_4417495.JPG,5,ISIC_0025897.JPG,ISIC_4417495.JPG,false,1,keypress(m),500,174441.5,174441.20000000298,171113.526,171111.70000000298,171126.877,174443.222,8,400,30,,ISIC_0025897.JPG
break,html.Screen,4_29_1,2023-11-01T15:44:21.317Z,,0,,,NaN,,,,,,false,,,,174442.90000000596,174442.70000000298,,174441.59999999404,,174443.222,8,400,,,
break_continue,html.Screen,4_29_2,2023-11-01T15:44:21.318Z,,0,,,NaN,,,,,,false,,,,174443.79999999702,174443.59999999404,,174443.09999999404,,174443.222,8,400,,,
sequence,flow.Sequence,4_29,2023-11-01T15:44:21.318Z,,0,,,3316.722999994032,completion,,,,,false,,,,174443.90000000596,174443.59999999404,171113.526,171111.70000000298,171126.877,174443.222,8,400,,,
trial,html.Screen,4_30_0,2023-11-01T15:44:25.063Z,,0,1,,3746.077999997011,response,ISIC_0009791.JPG,5,ISIC_7764987.JPG,ISIC_0009791.JPG,false,1,keypress(m),500,178189.5,178189.29999999702,174426.715,174444,174443.222,178193.189,8,400,31,,ISIC_7764987.JPG
break,html.Screen,4_30_1,2023-11-01T15:44:25.064Z,,0,,,NaN,,,,,,false,,,,178190.09999999404,178190,,178189.59999999404,,178193.189,8,400,,,
break_continue,html.Screen,4_30_2,2023-11-01T15:44:25.065Z,,0,,,NaN,,,,,,false,,,,178191.20000000298,178190.29999999702,,178190.20000000298,,178193.189,8,400,,,
sequence,flow.Sequence,4_30,2023-11-01T15:44:25.065Z,,0,,,3747.077999997011,completion,,,,,false,,,,178191.40000000596,178190.29999999702,174426.715,174444,174443.222,178193.189,8,400,,,
trial,html.Screen,4_31_0,2023-11-01T15:44:28.395Z,,0,1,,3327.810999999987,response,ISIC_0058186.JPG,5,ISIC_0029182.JPG,ISIC_0029182.JPG,false,0,keypress(z),500,181521.5,181521,178176.446,178191.5,178193.189,181526.419,8,400,32,,ISIC_0058186.JPG
break,html.Screen,4_31_1,2023-11-01T15:44:28.398Z,,0,,,NaN,,,,,,false,,,,181524.09999999404,181523.70000000298,,181521.79999999702,,181526.419,8,400,,,
break_continue,html.Screen,4_31_2,2023-11-01T15:44:28.399Z,,0,,,NaN,,,,,,false,,,,181524.79999999702,181524.59999999404,,181524.29999999702,,181526.419,8,400,,,
sequence,flow.Sequence,4_31,2023-11-01T15:44:28.399Z,,0,,,3331.4109999940265,completion,,,,,false,,,,181524.90000000596,181524.59999999404,178176.446,178191.5,178193.189,181526.419,8,400,,,
trial,html.Screen,4_32_0,2023-11-01T15:44:32.465Z,,0,1,,4064.481000005966,response,ISIC_0071196.JPG,4,ISIC_5381712.JPG,ISIC_5381712.JPG,false,0,keypress(z),500,185591.09999999404,185590.90000000596,181509.706,181525.09999999404,181526.419,185609.672,8,400,33,,ISIC_0071196.JPG
break,html.Screen,4_32_1,2023-11-01T15:44:32.466Z,,0,,,NaN,,,,,,false,,,,185591.90000000596,185591.79999999702,,185591.29999999702,,185609.672,8,400,,,
break_continue,html.Screen,4_32_2,2023-11-01T15:44:32.466Z,,0,,,NaN,,,,,,false,,,,185592.20000000298,185592.09999999404,,185592,,185609.672,8,400,,,
sequence,flow.Sequence,4_32,2023-11-01T15:44:32.466Z,,0,,,4065.680999994045,completion,,,,,false,,,,185592.40000000596,185592.09999999404,181509.706,181525.09999999404,181526.419,185609.672,8,400,,,
trial,html.Screen,4_33_0,2023-11-01T15:44:36.020Z,,0,1,,3536.528000002989,response,ISIC_0062471.JPG,4,ISIC_6831108.JPG,ISIC_6831108.JPG,false,0,keypress(z),500,189146.59999999404,189146.20000000298,185593.42,185592.5,185609.672,189159.784,8,400,34,,ISIC_0062471.JPG
break,html.Screen,4_33_1,2023-11-01T15:44:36.022Z,,0,,,NaN,,,,,,false,,,,189148.09999999404,189148,,189146.79999999702,,189159.784,8,400,,,
break_continue,html.Screen,4_33_2,2023-11-01T15:44:36.022Z,,0,,,NaN,,,,,,false,,,,189148.5,189148.40000000596,,189148.29999999702,,189159.784,8,400,,,
sequence,flow.Sequence,4_33,2023-11-01T15:44:36.023Z,,0,,,3538.728000005969,completion,,,,,false,,,,189148.70000000298,189148.40000000596,185593.42,185592.40000000596,185609.672,189159.784,8,400,,,
trial,html.Screen,4_34_0,2023-11-01T15:44:39.209Z,,0,1,,3175.1160000059463,response,ISIC_9268141.JPG,5,ISIC_1605945.JPG,ISIC_9268141.JPG,false,1,keypress(m),500,192335.20000000298,192334.90000000596,189143.108,189148.79999999702,189159.784,192342.733,8,400,35,,ISIC_1605945.JPG
break,html.Screen,4_34_1,2023-11-01T15:44:39.211Z,,0,,,NaN,,,,,,false,,,,192337,192336.59999999404,,192335.40000000596,,192342.733,8,400,,,
break_continue,html.Screen,4_34_2,2023-11-01T15:44:39.211Z,,0,,,NaN,,,,,,false,,,,192337.20000000298,192337.20000000298,,192337.09999999404,,192342.733,8,400,,,
sequence,flow.Sequence,4_34,2023-11-01T15:44:39.211Z,,0,,,3177.416000002966,completion,,,,,false,,,,192337.40000000596,192337.20000000298,189143.108,189148.70000000298,189159.784,192342.733,8,400,,,
trial,html.Screen,4_35_0,2023-11-01T15:44:42.621Z,,0,1,,3404.2669999999925,response,ISIC_0003550.JPG,5,ISIC_0061077.JPG,ISIC_0003550.JPG,false,1,keypress(m),500,195747.40000000596,195747,192326.166,192337.5,192342.733,195759.285,8,400,36,,ISIC_0061077.JPG
break,html.Screen,4_35_1,2023-11-01T15:44:42.623Z,,0,,,NaN,,,,,,false,,,,195748.70000000298,195748.40000000596,,195747.70000000298,,195759.285,8,400,,,
break_continue,html.Screen,4_35_2,2023-11-01T15:44:42.623Z,,0,,,NaN,,,,,,false,,,,195749.09999999404,195749.09999999404,,195748.90000000596,,195759.285,8,400,,,
sequence,flow.Sequence,4_35,2023-11-01T15:44:42.623Z,,0,,,3406.366999994032,completion,,,,,false,,,,195749.29999999702,195749.09999999404,192326.166,192337.5,192342.733,195759.285,8,400,,,
trial,html.Screen,4_36_0,2023-11-01T15:44:45.842Z,,0,1,,3208.115000005957,response,ISIC_2380341.JPG,5,ISIC_0002953.JPG,ISIC_0002953.JPG,false,0,keypress(z),500,198967.79999999702,198967.40000000596,195742.943,195749.5,195759.285,198976.056,8,400,37,,ISIC_2380341.JPG
break,html.Screen,4_36_1,2023-11-01T15:44:45.843Z,,0,,,NaN,,,,,,false,,,,198968.59999999404,198968.40000000596,,198967.90000000596,,198976.056,8,400,,,
break_continue,html.Screen,4_36_2,2023-11-01T15:44:45.843Z,,0,,,NaN,,,,,,false,,,,198968.90000000596,198968.90000000596,,198968.70000000298,,198976.056,8,400,,,
sequence,flow.Sequence,4_36,2023-11-01T15:44:45.843Z,,0,,,3209.615000005957,completion,,,,,false,,,,198969,198968.90000000596,195742.943,195749.40000000596,195759.285,198976.056,8,400,,,
trial,html.Screen,4_37_0,2023-11-01T15:44:50.773Z,,0,1,,4922.644000002969,response,ISIC_0032626.JPG,6,ISIC_0032656.JPG,ISIC_0032656.JPG,false,0,keypress(z),500,203899,203898.70000000298,198959.787,198969.09999999404,198976.056,203925.731,8,400,38,,ISIC_0032626.JPG
break,html.Screen,4_37_1,2023-11-01T15:44:50.774Z,,0,,,NaN,,,,,,false,,,,203900,203899.79999999702,,203899.29999999702,,203925.731,8,400,,,
break_continue,html.Screen,4_37_2,2023-11-01T15:44:50.774Z,,0,,,NaN,,,,,,false,,,,203900.40000000596,203900.29999999702,,203900.09999999404,,203925.731,8,400,,,
sequence,flow.Sequence,4_37,2023-11-01T15:44:50.774Z,,0,,,4924.243999997008,completion,,,,,false,,,,203900.5,203900.29999999702,198959.787,198969.09999999404,198976.056,203925.731,8,400,,,
trial,html.Screen,4_38_0,2023-11-01T15:44:54.539Z,,0,1,,3738.7690000000002,response,ISIC_0001505.JPG,5,ISIC_2758999.JPG,ISIC_0001505.JPG,false,1,keypress(m),500,207664.79999999702,207664.5,203909.373,203900.70000000298,203925.731,207676.757,8,400,39,,ISIC_2758999.JPG
break,html.Screen,4_38_1,2023-11-01T15:44:54.540Z,,0,,,NaN,,,,,,false,,,,207666.40000000596,207666.20000000298,,207665.09999999404,,207676.757,8,400,,,
break_continue,html.Screen,4_38_2,2023-11-01T15:44:54.541Z,,0,,,NaN,,,,,,false,,,,207666.79999999702,207666.70000000298,,207666.59999999404,,207676.757,8,400,,,
sequence,flow.Sequence,4_38,2023-11-01T15:44:54.541Z,,0,,,3740.9690000029805,completion,,,,,false,,,,207666.90000000596,207666.70000000298,203909.373,203900.59999999404,203925.731,207676.757,8,400,,,
trial,html.Screen,4_39_0,2023-11-01T15:44:58.703Z,,0,1,,4152.042999997007,response,ISIC_0028800.JPG,4,ISIC_5552066.JPG,ISIC_5552066.JPG,false,0,keypress(z),500,211829.09999999404,211828.79999999702,207659.228,207667,207676.757,211842.543,8,400,40,,ISIC_0028800.JPG
break,html.Screen,4_39_1,2023-11-01T15:44:58.704Z,,0,,,NaN,,,,,,false,,,,211830,211829.90000000596,,211829.29999999702,,211842.543,8,400,,,
break_continue,html.Screen,4_39_2,2023-11-01T15:44:58.704Z,,0,,,NaN,,,,,,false,,,,211830.40000000596,211830.20000000298,,211830.09999999404,,211842.543,8,400,,,
sequence,flow.Sequence,4_39,2023-11-01T15:44:58.705Z,,0,,,4153.443000002968,completion,,,,,false,,,,211830.59999999404,211830.20000000298,207659.228,207667,207676.757,211842.543,8,400,,,
trial,html.Screen,4_40_0,2023-11-01T15:45:02.978Z,,0,1,,4261.456999999995,response,ISIC_2457859.JPG,5,ISIC_0013577.JPG,ISIC_0013577.JPG,false,0,keypress(z),500,216104.40000000596,216104,211825.182,211830.70000000298,211842.543,216108.877,8,400,41,,ISIC_2457859.JPG
break,html.Screen,4_40_1,2023-11-01T15:45:02.980Z,,0,,,NaN,,,,,,false,,,,216106,216105.29999999702,,216104.70000000298,,216108.877,8,400,,,
break_continue,html.Screen,4_40_2,2023-11-01T15:45:02.981Z,,0,,,NaN,,,,,,false,,,,216106.40000000596,216106.29999999702,,216106.20000000298,,216108.877,8,400,,,
sequence,flow.Sequence,4_40,2023-11-01T15:45:02.981Z,,0,,,4263.756999997015,completion,,,,,false,,,,216106.59999999404,216106.29999999702,211825.182,211830.70000000298,211842.543,216108.877,8,400,,,
trial,html.Screen,4_41_0,2023-11-01T15:45:07.094Z,,0,1,,4110.922999997012,response,ISIC_0941085.JPG,5,ISIC_9870885.JPG,ISIC_0941085.JPG,false,1,keypress(m),500,220220.20000000298,220219.79999999702,216092.584,216106.59999999404,216108.877,220225.417,8,400,42,,ISIC_9870885.JPG
break,html.Screen,4_41_1,2023-11-01T15:45:07.095Z,,0,,,NaN,,,,,,false,,,,220221.29999999702,220221.09999999404,,220220.40000000596,,220225.417,8,400,,,
break_continue,html.Screen,4_41_2,2023-11-01T15:45:07.096Z,,0,,,NaN,,,,,,false,,,,220221.79999999702,220221.59999999404,,220221.5,,220225.417,8,400,,,
sequence,flow.Sequence,4_41,2023-11-01T15:45:07.096Z,,0,,,4112.722999994032,completion,,,,,false,,,,220222,220221.59999999404,216092.584,216106.59999999404,216108.877,220225.417,8,400,,,
trial,html.Screen,4_42_0,2023-11-01T15:45:10.570Z,,0,1,,3469.9830000059737,response,ISIC_0046640.JPG,5,ISIC_0679553.JPG,ISIC_0679553.JPG,false,0,keypress(z),500,223695.79999999702,223695.40000000596,220209.163,220222.09999999404,220225.417,223708.853,8,400,43,,ISIC_0046640.JPG
break,html.Screen,4_42_1,2023-11-01T15:45:10.571Z,,0,,,NaN,,,,,,false,,,,223697.29999999702,223697.09999999404,,223696,,223708.853,8,400,,,
break_continue,html.Screen,4_42_2,2023-11-01T15:45:10.572Z,,0,,,NaN,,,,,,false,,,,223697.59999999404,223697.5,,223697.40000000596,,223708.853,8,400,,,
sequence,flow.Sequence,4_42,2023-11-01T15:45:10.572Z,,0,,,3472.0830000000133,completion,,,,,false,,,,223697.70000000298,223697.5,220209.163,220222,220225.417,223708.853,8,400,,,
trial,html.Screen,4_43_0,2023-11-01T15:45:13.949Z,,0,1,,3366.146999999997,response,ISIC_3436139.JPG,5,ISIC_7575957.JPG,ISIC_3436139.JPG,false,1,keypress(m),500,227075.29999999702,227075,223692.348,223697.79999999702,223708.853,227091.792,8,400,44,,ISIC_7575957.JPG
break,html.Screen,4_43_1,2023-11-01T15:45:13.950Z,,0,,,NaN,,,,,,false,,,,227076.09999999404,227076,,227075.5,,227091.792,8,400,,,
break_continue,html.Screen,4_43_2,2023-11-01T15:45:13.951Z,,0,,,NaN,,,,,,false,,,,227076.5,227076.40000000596,,227076.29999999702,,227091.792,8,400,,,
sequence,flow.Sequence,4_43,2023-11-01T15:45:13.951Z,,0,,,3367.5470000059577,completion,,,,,false,,,,227076.59999999404,227076.40000000596,223692.348,223697.70000000298,223708.853,227091.792,8,400,,,
trial,html.Screen,4_44_0,2023-11-01T15:45:18.353Z,,0,1,,4386.608000005974,response,ISIC_7147713.JPG,6,ISIC_3609379.JPG,ISIC_3609379.JPG,false,0,keypress(z),500,231478.70000000298,231478.40000000596,227075.294,227076.70000000298,227091.792,231492.264,8,400,45,,ISIC_7147713.JPG
break,html.Screen,4_44_1,2023-11-01T15:45:18.354Z,,0,,,NaN,,,,,,false,,,,231479.5,231479.40000000596,,231478.90000000596,,231492.264,8,400,,,
break_continue,html.Screen,4_44_2,2023-11-01T15:45:18.354Z,,0,,,NaN,,,,,,false,,,,231479.79999999702,231479.79999999702,,231479.70000000298,,231492.264,8,400,,,
sequence,flow.Sequence,4_44,2023-11-01T15:45:18.354Z,,0,,,4388.007999997033,completion,,,,,false,,,,231480,231479.79999999702,227075.294,227076.70000000298,227091.792,231492.264,8,400,,,
trial,html.Screen,4_45_0,2023-11-01T15:45:25.411Z,,0,1,,7044.636000005965,response,ISIC_1394786.JPG,4,ISIC_8253326.JPG,ISIC_8253326.JPG,false,0,keypress(z),500,238537.29999999702,238536.90000000596,231475.322,231480,231492.264,238541.498,8,400,46,,ISIC_1394786.JPG
break,html.Screen,4_45_1,2023-11-01T15:45:25.413Z,,0,,,NaN,,,,,,false,,,,238538.90000000596,238538.59999999404,,238537.5,,238541.498,8,400,,,
break_continue,html.Screen,4_45_2,2023-11-01T15:45:25.413Z,,0,,,NaN,,,,,,false,,,,238539.09999999404,238539.09999999404,,238539,,238541.498,8,400,,,
sequence,flow.Sequence,4_45,2023-11-01T15:45:25.413Z,,0,,,7046.835999994044,completion,,,,,false,,,,238539.29999999702,238539.09999999404,231475.322,231480,231492.264,238541.498,8,400,,,
trial,html.Screen,4_46_0,2023-11-01T15:45:28.536Z,,0,1,,3119.601999994047,response,ISIC_0026738.JPG,6,ISIC_4477599.JPG,ISIC_4477599.JPG,false,0,keypress(z),500,241661.40000000596,241661.09999999404,238525.361,238539.29999999702,238541.498,241674.715,8,400,47,,ISIC_0026738.JPG
break,html.Screen,4_46_1,2023-11-01T15:45:28.537Z,,0,,,NaN,,,,,,false,,,,241663.20000000298,241662.90000000596,,241661.59999999404,,241674.715,8,400,,,
break_continue,html.Screen,4_46_2,2023-11-01T15:45:28.538Z,,0,,,NaN,,,,,,false,,,,241663.59999999404,241663.40000000596,,241663.40000000596,,241674.715,8,400,,,
sequence,flow.Sequence,4_46,2023-11-01T15:45:28.538Z,,0,,,3121.902000005968,completion,,,,,false,,,,241663.70000000298,241663.40000000596,238525.361,238539.29999999702,238541.498,241674.715,8,400,,,
trial,html.Screen,4_47_0,2023-11-01T15:45:32.060Z,,0,1,,3510.9850000029837,response,ISIC_0000226.JPG,5,ISIC_1040340.JPG,ISIC_0000226.JPG,false,1,keypress(m),500,245186,245185.70000000298,241658.244,241663.79999999702,241674.715,245208.986,8,400,48,,ISIC_1040340.JPG
break,html.Screen,4_47_1,2023-11-01T15:45:32.061Z,,0,,,NaN,,,,,,false,,,,245187,245186.70000000298,,245186.29999999702,,245208.986,8,400,,,
break_continue,html.Screen,4_47_2,2023-11-01T15:45:32.061Z,,0,,,NaN,,,,,,false,,,,245187.29999999702,245187.20000000298,,245187.09999999404,,245208.986,8,400,,,
sequence,flow.Sequence,4_47,2023-11-01T15:45:32.062Z,,0,,,3512.4850000029837,completion,,,,,false,,,,245187.40000000596,245187.20000000298,241658.244,241663.79999999702,241674.715,245208.986,8,400,,,
trial,html.Screen,4_48_0,2023-11-01T15:45:37.711Z,,0,1,,5627.613999994035,response,ISIC_0010803.JPG,6,ISIC_0024962.JPG,ISIC_0010803.JPG,false,1,keypress(m),500,250836.90000000596,250836.59999999404,245177.496,245187.5,245208.986,250841.151,8,400,49,,ISIC_0024962.JPG
break,html.Screen,4_48_1,2023-11-01T15:45:37.713Z,,0,,,NaN,,,,,,false,,,,250838.40000000596,250838.29999999702,,250837.09999999404,,250841.151,8,400,,,
break_continue,html.Screen,4_48_2,2023-11-01T15:45:37.713Z,,0,,,NaN,,,,,,false,,,,250838.79999999702,250838.70000000298,,250838.59999999404,,250841.151,8,400,,,
sequence,flow.Sequence,4_48,2023-11-01T15:45:37.713Z,,0,,,5629.714000002976,completion,,,,,false,,,,250839,250838.70000000298,245177.496,245187.5,245208.986,250841.151,8,400,,,
trial,html.Screen,4_49_0,2023-11-01T15:45:40.962Z,,0,1,,3246.8489999999874,response,ISIC_5152859.JPG,4,ISIC_0028379.JPG,ISIC_0028379.JPG,false,0,keypress(z),500,254088.29999999702,254088,250825.084,250839,250841.151,254107.883,8,400,50,,ISIC_5152859.JPG
break,html.Screen,4_49_1,2023-11-01T15:45:50.967Z,,0,,,9999.796999999991,timeout,,,,,false,,,,264092.40000000596,264091.023,254074.802,254088.5,254107.883,264107.68,8,400,,,
break_continue,html.Screen,4_49_2,2023-11-01T15:45:52.740Z,,0,,,1743.9199999940465,response,,,,,false,continue,keypress(Space),,265866,265851.59999999404,264091.023,264092.700000003,264107.68,265874.326,8,400,,,
sequence,flow.Sequence,4_49,2023-11-01T15:45:52.740Z,,0,,,15010.448999994027,completion,,,,,false,,,,265866.200000003,265851.59999999404,250825.084,250839,250841.151,265874.326,8,400,,,
trial,html.Screen,4_50_0,2023-11-01T15:45:55.990Z,,0,2,,3241.0740000059595,response,ISIC_7223327.JPG,4,ISIC_0067390.JPG,ISIC_0067390.JPG,false,0,keypress(z),500,269115.90000000596,269115.40000000596,265857.417,265866.299999997,265874.326,269124.508,8,400,1,,ISIC_7223327.JPG
break,html.Screen,4_50_1,2023-11-01T15:45:55.992Z,,0,,,NaN,,,,,,false,,,,269118,269117.700000003,,269116.200000003,,269124.508,8,400,,,
break_continue,html.Screen,4_50_2,2023-11-01T15:45:55.993Z,,0,,,NaN,,,,,,false,,,,269118.5,269118.40000000596,,269118.09999999404,,269124.508,8,400,,,
sequence,flow.Sequence,4_50,2023-11-01T15:45:55.993Z,,0,,,3244.0740000059595,completion,,,,,false,,,,269118.59999999404,269118.40000000596,265857.417,265866.299999997,265874.326,269124.508,8,400,,,
trial,html.Screen,4_51_0,2023-11-01T15:45:58.827Z,,0,2,,2827.892000005988,response,ISIC_0031611.JPG,5,ISIC_0070074.JPG,ISIC_0031611.JPG,false,1,keypress(m),500,271952.799999997,271952.40000000596,269107.622,269118.799999997,269124.508,271973.888,8,400,2,,ISIC_0070074.JPG
break,html.Screen,4_51_1,2023-11-01T15:45:58.828Z,,0,,,NaN,,,,,,false,,,,271953.799999997,271953.59999999404,,271953,,271973.888,8,400,,,
break_continue,html.Screen,4_51_2,2023-11-01T15:45:58.829Z,,0,,,NaN,,,,,,false,,,,271954.59999999404,271954.40000000596,,271953.90000000596,,271973.888,8,400,,,
sequence,flow.Sequence,4_51,2023-11-01T15:45:58.829Z,,0,,,2829.892000005988,completion,,,,,false,,,,271954.799999997,271954.40000000596,269107.622,269118.59999999404,269124.508,271973.888,8,400,,,
trial,html.Screen,4_52_0,2023-11-01T15:46:01.582Z,,0,2,,2734.0120000059833,response,ISIC_0024591.JPG,5,ISIC_0000026.JPG,ISIC_0024591.JPG,false,1,keypress(m),500,274708.200000003,274707.90000000596,271957.429,271954.90000000596,271973.888,274724.174,8,400,3,,ISIC_0000026.JPG
break,html.Screen,4_52_1,2023-11-01T15:46:01.584Z,,0,,,NaN,,,,,,false,,,,274710.09999999404,274709.799999997,,274708.5,,274724.174,8,400,,,
break_continue,html.Screen,4_52_2,2023-11-01T15:46:01.585Z,,0,,,NaN,,,,,,false,,,,274710.5,274710.40000000596,,274710.200000003,,274724.174,8,400,,,
sequence,flow.Sequence,4_52,2023-11-01T15:46:01.585Z,,0,,,2736.5120000059833,completion,,,,,false,,,,274710.59999999404,274710.40000000596,271957.429,271954.90000000596,271973.888,274724.174,8,400,,,
trial,html.Screen,4_53_0,2023-11-01T15:46:04.419Z,,0,2,,2820.7260000059614,response,ISIC_5857303.JPG,7,ISIC_0663941.JPG,ISIC_0663941.JPG,false,0,keypress(z),500,277545.200000003,277544.90000000596,274707.354,274710.799999997,274724.174,277557.153,8,400,4,,ISIC_5857303.JPG
break,html.Screen,4_53_1,2023-11-01T15:46:04.420Z,,0,,,NaN,,,,,,false,,,,277546,277545.90000000596,,277545.40000000596,,277557.153,8,400,,,
break_continue,html.Screen,4_53_2,2023-11-01T15:46:04.420Z,,0,,,NaN,,,,,,false,,,,277546.40000000596,277546.299999997,,277546.09999999404,,277557.153,8,400,,,
sequence,flow.Sequence,4_53,2023-11-01T15:46:04.421Z,,0,,,2822.1259999970207,completion,,,,,false,,,,277546.5,277546.299999997,274707.354,274710.799999997,274724.174,277557.153,8,400,,,
trial,html.Screen,4_54_0,2023-11-01T15:46:07.175Z,,0,2,,2743.047000002989,response,ISIC_0010895.JPG,5,ISIC_8145348.JPG,ISIC_8145348.JPG,false,0,keypress(z),500,280300.5,280300.200000003,277540.757,277546.5,277557.153,280307.607,8,400,5,,ISIC_0010895.JPG
break,html.Screen,4_54_1,2023-11-01T15:46:07.176Z,,0,,,NaN,,,,,,false,,,,280302.299999997,280302.09999999404,,280300.90000000596,,280307.607,8,400,,,
break_continue,html.Screen,4_54_2,2023-11-01T15:46:07.177Z,,0,,,NaN,,,,,,false,,,,280302.700000003,280302.59999999404,,280302.40000000596,,280307.607,8,400,,,
sequence,flow.Sequence,4_54,2023-11-01T15:46:07.177Z,,0,,,2745.4469999940484,completion,,,,,false,,,,280302.799999997,280302.59999999404,277540.757,277546.5,277557.153,280307.607,8,400,,,
trial,html.Screen,4_55_0,2023-11-01T15:46:10.075Z,,0,2,,2892.9929999940214,response,ISIC_6780901.JPG,4,ISIC_6774326.JPG,ISIC_6780901.JPG,false,1,keypress(m),500,283200.799999997,283200.59999999404,280290.638,280302.90000000596,280307.607,283207.684,8,400,6,,ISIC_6774326.JPG
break,html.Screen,4_55_1,2023-11-01T15:46:10.076Z,,0,,,NaN,,,,,,false,,,,283201.59999999404,283201.40000000596,,283200.90000000596,,283207.684,8,400,,,
break_continue,html.Screen,4_55_2,2023-11-01T15:46:10.076Z,,0,,,NaN,,,,,,false,,,,283201.90000000596,283201.90000000596,,283201.799999997,,283207.684,8,400,,,
sequence,flow.Sequence,4_55,2023-11-01T15:46:10.076Z,,0,,,2894.2930000059423,completion,,,,,false,,,,283202.09999999404,283201.90000000596,280290.638,280302.90000000596,280307.607,283207.684,8,400,,,
trial,html.Screen,4_56_0,2023-11-01T15:46:13.166Z,,0,2,,3084.415999994031,response,ISIC_0032672.JPG,5,ISIC_0025724.JPG,ISIC_0025724.JPG,false,0,keypress(z),500,286292.40000000596,286292.09999999404,283190.492,283202.200000003,283207.684,286306.97,8,400,7,,ISIC_0032672.JPG
break,html.Screen,4_56_1,2023-11-01T15:46:13.168Z,,0,,,NaN,,,,,,false,,,,286293.5,286293.200000003,,286292.59999999404,,286306.97,8,400,,,
break_continue,html.Screen,4_56_2,2023-11-01T15:46:13.168Z,,0,,,NaN,,,,,,false,,,,286294,286293.90000000596,,286293.700000003,,286306.97,8,400,,,
sequence,flow.Sequence,4_56,2023-11-01T15:46:13.168Z,,0,,,3086.216000005952,completion,,,,,false,,,,286294.200000003,286293.90000000596,283190.492,283202.200000003,283207.684,286306.97,8,400,,,
trial,html.Screen,4_57_0,2023-11-01T15:46:16.147Z,,0,2,,2965.030000000028,response,ISIC_0015411.JPG,5,ISIC_0072294.JPG,ISIC_0015411.JPG,false,1,keypress(m),500,289272.5,289272,286290.695,286294.299999997,286306.97,289307.112,8,400,8,,ISIC_0072294.JPG
break,html.Screen,4_57_1,2023-11-01T15:46:16.149Z,,0,,,NaN,,,,,,false,,,,289274.799999997,289274.40000000596,,289272.799999997,,289307.112,8,400,,,
break_continue,html.Screen,4_57_2,2023-11-01T15:46:16.149Z,,0,,,NaN,,,,,,false,,,,289275.40000000596,289275.200000003,,289275,,289307.112,8,400,,,
sequence,flow.Sequence,4_57,2023-11-01T15:46:16.150Z,,0,,,2968.230000003008,completion,,,,,false,,,,289275.5,289275.200000003,286290.695,286294.299999997,286306.97,289307.112,8,400,,,
trial,html.Screen,4_58_0,2023-11-01T15:46:19.240Z,,0,2,,3058.187999996997,response,ISIC_4536709.JPG,5,ISIC_0000517.JPG,ISIC_4536709.JPG,false,1,keypress(m),500,292365.700000003,292365.299999997,289290.329,289275.700000003,289307.112,292373.339,8,400,9,,ISIC_0000517.JPG
break,html.Screen,4_58_1,2023-11-01T15:46:19.242Z,,0,,,NaN,,,,,,false,,,,292367.5,292367.200000003,,292366,,292373.339,8,400,,,
break_continue,html.Screen,4_58_2,2023-11-01T15:46:19.242Z,,0,,,NaN,,,,,,false,,,,292367.90000000596,292367.700000003,,292367.59999999404,,292373.339,8,400,,,
sequence,flow.Sequence,4_58,2023-11-01T15:46:19.242Z,,0,,,3060.5880000029574,completion,,,,,false,,,,292368,292367.700000003,289290.329,289275.59999999404,289307.112,292373.339,8,400,,,
trial,html.Screen,4_59_0,2023-11-01T15:46:22.668Z,,0,2,,3420.5610000059824,response,ISIC_0001057.JPG,4,ISIC_6790780.JPG,ISIC_0001057.JPG,false,1,keypress(m),500,295794.200000003,295793.90000000596,292357.215,292368.09999999404,292373.339,295806.567,8,400,10,,ISIC_6790780.JPG
break,html.Screen,4_59_1,2023-11-01T15:46:22.669Z,,0,,,NaN,,,,,,false,,,,295795.299999997,295795.09999999404,,295794.5,,295806.567,8,400,,,
break_continue,html.Screen,4_59_2,2023-11-01T15:46:22.670Z,,0,,,NaN,,,,,,false,,,,295795.700000003,295795.5,,295795.40000000596,,295806.567,8,400,,,
sequence,flow.Sequence,4_59,2023-11-01T15:46:22.670Z,,0,,,3422.161000000022,completion,,,,,false,,,,295795.90000000596,295795.5,292357.215,292368.09999999404,292373.339,295806.567,8,400,,,
trial,html.Screen,4_60_0,2023-11-01T15:46:26.032Z,,0,2,,3351.1330000029993,response,ISIC_0025778.JPG,4,ISIC_4538661.JPG,ISIC_4538661.JPG,false,0,keypress(z),500,299157.90000000596,299157.700000003,295790.15,295796,295806.567,299190.063,8,400,11,,ISIC_0025778.JPG
break,html.Screen,4_60_1,2023-11-01T15:46:26.033Z,,0,,,NaN,,,,,,false,,,,299158.59999999404,299158.5,,299158.09999999404,,299190.063,8,400,,,
break_continue,html.Screen,4_60_2,2023-11-01T15:46:26.033Z,,0,,,NaN,,,,,,false,,,,299158.90000000596,299158.90000000596,,299158.700000003,,299190.063,8,400,,,
sequence,flow.Sequence,4_60,2023-11-01T15:46:26.033Z,,0,,,3352.3330000059796,completion,,,,,false,,,,299159.09999999404,299158.90000000596,295790.15,295795.90000000596,295806.567,299190.063,8,400,,,
trial,html.Screen,4_61_0,2023-11-01T15:46:29.094Z,,0,2,,3029.536999994016,response,ISIC_4534608.JPG,5,ISIC_0033662.JPG,ISIC_0033662.JPG,false,0,keypress(z),500,302219.799999997,302219.59999999404,299173.547,299159.200000003,299190.063,302239.899,8,400,12,,ISIC_4534608.JPG
break,html.Screen,4_61_1,2023-11-01T15:46:29.095Z,,0,,,NaN,,,,,,false,,,,302220.5,302220.299999997,,302220,,302239.899,8,400,,,
break_continue,html.Screen,4_61_2,2023-11-01T15:46:29.095Z,,0,,,NaN,,,,,,false,,,,302220.700000003,302220.700000003,,302220.5,,302239.899,8,400,,,
sequence,flow.Sequence,4_61,2023-11-01T15:46:29.095Z,,0,,,3030.6370000029565,completion,,,,,false,,,,302220.90000000596,302220.700000003,299173.547,299159.200000003,299190.063,302239.899,8,400,,,
trial,html.Screen,4_62_0,2023-11-01T15:46:32.633Z,,0,2,,3518.3010000030044,response,ISIC_0313507.JPG,5,ISIC_9685928.JPG,ISIC_9685928.JPG,false,0,keypress(z),500,305758.5,305758.200000003,302223.156,302220.90000000596,302239.899,305789.893,8,400,13,,ISIC_0313507.JPG
break,html.Screen,4_62_1,2023-11-01T15:46:32.633Z,,0,,,NaN,,,,,,false,,,,305759.299999997,305759.09999999404,,305758.700000003,,305789.893,8,400,,,
break_continue,html.Screen,4_62_2,2023-11-01T15:46:32.634Z,,0,,,NaN,,,,,,false,,,,305759.5,305759.5,,305759.40000000596,,305789.893,8,400,,,
sequence,flow.Sequence,4_62,2023-11-01T15:46:32.634Z,,0,,,3519.601000000024,completion,,,,,false,,,,305759.700000003,305759.5,302223.156,302220.90000000596,302239.899,305789.893,8,400,,,
trial,html.Screen,4_63_0,2023-11-01T15:46:35.965Z,,0,2,,3300.3070000029984,response,ISIC_0016082.JPG,5,ISIC_7147713.JPG,ISIC_7147713.JPG,false,0,keypress(z),500,309090.40000000596,309090.200000003,305773.23,305759.799999997,305789.893,309106.493,8,400,14,,ISIC_0016082.JPG
break,html.Screen,4_63_1,2023-11-01T15:46:35.965Z,,0,,,NaN,,,,,,false,,,,309091.200000003,309091,,309090.59999999404,,309106.493,8,400,,,
break_continue,html.Screen,4_63_2,2023-11-01T15:46:35.966Z,,0,,,NaN,,,,,,false,,,,309091.59999999404,309091.5,,309091.299999997,,309106.493,8,400,,,
sequence,flow.Sequence,4_63,2023-11-01T15:46:35.966Z,,0,,,3301.607000000018,completion,,,,,false,,,,309091.59999999404,309091.5,305773.23,305759.799999997,305789.893,309106.493,8,400,,,
trial,html.Screen,4_64_0,2023-11-01T15:46:38.752Z,,0,2,,2771.1069999940228,response,ISIC_0010837.JPG,5,ISIC_0347984.JPG,ISIC_0010837.JPG,false,1,keypress(m),500,311877.90000000596,311877.59999999404,309089.627,309091.799999997,309106.493,311889.873,8,400,15,,ISIC_0347984.JPG
break,html.Screen,4_64_1,2023-11-01T15:46:38.753Z,,0,,,NaN,,,,,,false,,,,311878.799999997,311878.59999999404,,311878.09999999404,,311889.873,8,400,,,
break_continue,html.Screen,4_64_2,2023-11-01T15:46:38.753Z,,0,,,NaN,,,,,,false,,,,311879.200000003,311879,,311878.90000000596,,311889.873,8,400,,,
sequence,flow.Sequence,4_64,2023-11-01T15:46:38.753Z,,0,,,2772.5069999999832,completion,,,,,false,,,,311879.200000003,311879,309089.627,309091.700000003,309106.493,311889.873,8,400,,,
trial,html.Screen,4_65_0,2023-11-01T15:46:43.082Z,,0,2,,4318.126999999979,response,ISIC_4434803.JPG,5,ISIC_0001792.JPG,ISIC_0001792.JPG,false,0,keypress(z),500,316208.09999999404,316208,311872.998,311879.40000000596,311889.873,316222.961,8,400,16,,ISIC_4434803.JPG
break,html.Screen,4_65_1,2023-11-01T15:46:43.083Z,,0,,,NaN,,,,,,false,,,,316208.700000003,316208.59999999404,,316208.200000003,,316222.961,8,400,,,
break_continue,html.Screen,4_65_2,2023-11-01T15:46:43.083Z,,0,,,NaN,,,,,,false,,,,316208.90000000596,316208.799999997,,316208.799999997,,316222.961,8,400,,,
sequence,flow.Sequence,4_65,2023-11-01T15:46:43.083Z,,0,,,4318.926999996998,completion,,,,,false,,,,316209,316208.799999997,311872.998,311879.299999997,311889.873,316222.961,8,400,,,
trial,html.Screen,4_66_0,2023-11-01T15:46:46.717Z,,0,2,,3619.8389999970095,response,ISIC_8575769.JPG,5,ISIC_6553579.JPG,ISIC_8575769.JPG,false,1,keypress(m),500,319843.09999999404,319842.799999997,316206.228,316209,316222.961,319855.913,8,400,17,,ISIC_6553579.JPG
break,html.Screen,4_66_1,2023-11-01T15:46:46.718Z,,0,,,NaN,,,,,,false,,,,319844,319843.90000000596,,319843.299999997,,319855.913,8,400,,,
break_continue,html.Screen,4_66_2,2023-11-01T15:46:46.718Z,,0,,,NaN,,,,,,false,,,,319844.299999997,319844.200000003,,319844.09999999404,,319855.913,8,400,,,
sequence,flow.Sequence,4_66,2023-11-01T15:46:46.719Z,,0,,,3621.23900000297,completion,,,,,false,,,,319844.5,319844.200000003,316206.228,316209,316222.961,319855.913,8,400,,,
trial,html.Screen,4_67_0,2023-11-01T15:46:50.112Z,,0,2,,3382.0869999999995,response,ISIC_1658623.JPG,5,ISIC_5608998.JPG,ISIC_5608998.JPG,false,0,keypress(z),500,323238.299999997,323238,319839.476,319844.700000003,319855.913,323272.809,8,400,18,,ISIC_1658623.JPG
break,html.Screen,4_67_1,2023-11-01T15:46:50.114Z,,0,,,NaN,,,,,,false,,,,323239.799999997,323239.59999999404,,323238.5,,323272.809,8,400,,,
break_continue,html.Screen,4_67_2,2023-11-01T15:46:50.114Z,,0,,,NaN,,,,,,false,,,,323240.09999999404,323240.09999999404,,323240,,323272.809,8,400,,,
sequence,flow.Sequence,4_67,2023-11-01T15:46:50.114Z,,0,,,3384.186999994039,completion,,,,,false,,,,323240.299999997,323240.09999999404,319839.476,319844.700000003,319855.913,323272.809,8,400,,,
trial,html.Screen,4_68_0,2023-11-01T15:46:53.652Z,,0,2,,3504.6909999999916,response,ISIC_1348538.JPG,5,ISIC_0025139.JPG,ISIC_0025139.JPG,false,0,keypress(z),500,326778,326777.5,323256.135,323240.299999997,323272.809,326789.245,8,400,19,,ISIC_1348538.JPG
break,html.Screen,4_68_1,2023-11-01T15:46:53.653Z,,0,,,NaN,,,,,,false,,,,326779.200000003,326779,,326778.299999997,,326789.245,8,400,,,
break_continue,html.Screen,4_68_2,2023-11-01T15:46:53.654Z,,0,,,NaN,,,,,,false,,,,326779.5,326779.5,,326779.299999997,,326789.245,8,400,,,
sequence,flow.Sequence,4_68,2023-11-01T15:46:53.654Z,,0,,,3506.6909999999916,completion,,,,,false,,,,326779.700000003,326779.5,323256.135,323240.299999997,323272.809,326789.245,8,400,,,
trial,html.Screen,4_69_0,2023-11-01T15:46:58.552Z,,0,2,,4888.155000005965,response,ISIC_7526548.JPG,4,ISIC_0062440.JPG,ISIC_7526548.JPG,false,1,keypress(m),500,331677.700000003,331677.40000000596,326775.254,326779.90000000596,326789.245,331689.825,8,400,20,,ISIC_0062440.JPG
break,html.Screen,4_69_1,2023-11-01T15:46:58.553Z,,0,,,NaN,,,,,,false,,,,331679.40000000596,331679.09999999404,,331678,,331689.825,8,400,,,
break_continue,html.Screen,4_69_2,2023-11-01T15:46:58.554Z,,0,,,NaN,,,,,,false,,,,331679.700000003,331679.700000003,,331679.5,,331689.825,8,400,,,
sequence,flow.Sequence,4_69,2023-11-01T15:46:58.554Z,,0,,,4890.455000002985,completion,,,,,false,,,,331679.90000000596,331679.700000003,326775.254,326779.799999997,326789.245,331689.825,8,400,,,
trial,html.Screen,4_70_0,2023-11-01T15:47:03.052Z,,0,2,,4487.974999997008,response,ISIC_0003333.JPG,5,ISIC_0032561.JPG,ISIC_0003333.JPG,false,1,keypress(m),500,336178.09999999404,336177.799999997,331672.545,331680,331689.825,336189.008,8,400,21,,ISIC_0032561.JPG
break,html.Screen,4_70_1,2023-11-01T15:47:03.054Z,,0,,,NaN,,,,,,false,,,,336180.09999999404,336179.799999997,,336178.5,,336189.008,8,400,,,
break_continue,html.Screen,4_70_2,2023-11-01T15:47:03.054Z,,0,,,NaN,,,,,,false,,,,336180.5,336180.40000000596,,336180.200000003,,336189.008,8,400,,,
sequence,flow.Sequence,4_70,2023-11-01T15:47:03.055Z,,0,,,4490.575000005949,completion,,,,,false,,,,336180.700000003,336180.40000000596,331672.545,331680,331689.825,336189.008,8,400,,,
trial,html.Screen,4_71_0,2023-11-01T15:47:06.449Z,,0,2,,3385.9920000000275,response,ISIC_1418304.JPG,5,ISIC_7636321.JPG,ISIC_1418304.JPG,false,1,keypress(m),500,339575.40000000596,339575,336172.446,336180.799999997,336189.008,339594.156,8,400,22,,ISIC_7636321.JPG
break,html.Screen,4_71_1,2023-11-01T15:47:06.451Z,,0,,,NaN,,,,,,false,,,,339576.799999997,339576.5,,339575.799999997,,339594.156,8,400,,,
break_continue,html.Screen,4_71_2,2023-11-01T15:47:06.451Z,,0,,,NaN,,,,,,false,,,,339577.299999997,339577.200000003,,339577,,339594.156,8,400,,,
sequence,flow.Sequence,4_71,2023-11-01T15:47:06.451Z,,0,,,3388.1920000030077,completion,,,,,false,,,,339577.5,339577.200000003,336172.446,336180.700000003,336189.008,339594.156,8,400,,,
trial,html.Screen,4_72_0,2023-11-01T15:47:10.949Z,,0,2,,4481.044000002963,response,ISIC_0033059.JPG,5,ISIC_1337726.JPG,ISIC_1337726.JPG,false,0,keypress(z),500,344075.5,344075.200000003,339572.261,339577.59999999404,339594.156,344088.59,8,400,23,,ISIC_0033059.JPG
break,html.Screen,4_72_1,2023-11-01T15:47:10.951Z,,0,,,NaN,,,,,,false,,,,344076.799999997,344076.5,,344075.799999997,,344088.59,8,400,,,
break_continue,html.Screen,4_72_2,2023-11-01T15:47:10.952Z,,0,,,NaN,,,,,,false,,,,344077.799999997,344077.700000003,,344077,,344088.59,8,400,,,
sequence,flow.Sequence,4_72,2023-11-01T15:47:10.952Z,,0,,,4483.544000002963,completion,,,,,false,,,,344077.90000000596,344077.700000003,339572.261,339577.59999999404,339594.156,344088.59,8,400,,,
trial,html.Screen,4_73_0,2023-11-01T15:47:13.930Z,,0,2,,2966.9099999999744,response,ISIC_0012164.JPG,5,ISIC_0033302.JPG,ISIC_0033302.JPG,false,0,keypress(z),500,347055.799999997,347055.5,344072.204,344078,344088.59,347071.845,8,400,24,,ISIC_0012164.JPG
break,html.Screen,4_73_1,2023-11-01T15:47:13.931Z,,0,,,NaN,,,,,,false,,,,347056.700000003,347056.5,,347056,,347071.845,8,400,,,
break_continue,html.Screen,4_73_2,2023-11-01T15:47:13.931Z,,0,,,NaN,,,,,,false,,,,347057,347057,,347056.799999997,,347071.845,8,400,,,
sequence,flow.Sequence,4_73,2023-11-01T15:47:13.931Z,,0,,,2968.4099999999744,completion,,,,,false,,,,347057.09999999404,347057,344072.204,344078,344088.59,347071.845,8,400,,,
trial,html.Screen,4_74_0,2023-11-01T15:47:16.877Z,,0,2,,2930.7549999940675,response,ISIC_0012070.JPG,5,ISIC_3431915.JPG,ISIC_3431915.JPG,false,0,keypress(z),500,350002.799999997,350002.59999999404,347055.278,347057.299999997,347071.845,350005.095,8,400,25,,ISIC_0012070.JPG
break,html.Screen,4_74_1,2023-11-01T15:47:16.878Z,,0,,,NaN,,,,,,false,,,,350004,350003.90000000596,,350003,,350005.095,8,400,,,
break_continue,html.Screen,4_74_2,2023-11-01T15:47:16.878Z,,0,,,NaN,,,,,,false,,,,350004.299999997,350004.200000003,,350004.09999999404,,350005.095,8,400,,,
sequence,flow.Sequence,4_74,2023-11-01T15:47:16.878Z,,0,,,2932.355000003008,completion,,,,,false,,,,350004.40000000596,350004.200000003,347055.278,347057.200000003,347071.845,350005.095,8,400,,,
trial,html.Screen,4_75_0,2023-11-01T15:47:21.328Z,,0,2,,4448.5049999940675,response,ISIC_7438013.JPG,5,ISIC_0064875.JPG,ISIC_0064875.JPG,false,0,keypress(z),500,354453.90000000596,354453.59999999404,349988.597,350004.5,350005.095,354471.944,8,400,26,,ISIC_7438013.JPG
break,html.Screen,4_75_1,2023-11-01T15:47:21.329Z,,0,,,NaN,,,,,,false,,,,354454.799999997,354454.59999999404,,354454.09999999404,,354471.944,8,400,,,
break_continue,html.Screen,4_75_2,2023-11-01T15:47:21.329Z,,0,,,NaN,,,,,,false,,,,354455.200000003,354455.09999999404,,354454.90000000596,,354471.944,8,400,,,
sequence,flow.Sequence,4_75,2023-11-01T15:47:21.329Z,,0,,,4450.0049999940675,completion,,,,,false,,,,354455.200000003,354455.09999999404,349988.597,350004.5,350005.095,354471.944,8,400,,,
trial,html.Screen,4_76_0,2023-11-01T15:47:24.356Z,,0,2,,3009.655999994022,response,ISIC_0011922.JPG,5,ISIC_0031438.JPG,ISIC_0031438.JPG,false,0,keypress(z),500,357482,357481.59999999404,354455.329,354455.40000000596,354471.944,357488.236,8,400,27,,ISIC_0011922.JPG
break,html.Screen,4_76_1,2023-11-01T15:47:24.357Z,,0,,,NaN,,,,,,false,,,,357483,357482.799999997,,357482.200000003,,357488.236,8,400,,,
break_continue,html.Screen,4_76_2,2023-11-01T15:47:24.357Z,,0,,,NaN,,,,,,false,,,,357483.40000000596,357483.299999997,,357483.200000003,,357488.236,8,400,,,
sequence,flow.Sequence,4_76,2023-11-01T15:47:24.358Z,,0,,,3011.355999997002,completion,,,,,false,,,,357483.59999999404,357483.299999997,354455.329,354455.40000000596,354471.944,357488.236,8,400,,,
trial,html.Screen,4_77_0,2023-11-01T15:47:29.096Z,,0,2,,4733.063999997044,response,ISIC_0063496.JPG,5,ISIC_6098768.JPG,ISIC_6098768.JPG,false,0,keypress(z),500,362221.59999999404,362221.299999997,357471.617,357483.700000003,357488.236,362238.433,8,400,28,,ISIC_0063496.JPG
break,html.Screen,4_77_1,2023-11-01T15:47:29.097Z,,0,,,NaN,,,,,,false,,,,362222.59999999404,362222.40000000596,,362221.799999997,,362238.433,8,400,,,
break_continue,html.Screen,4_77_2,2023-11-01T15:47:29.097Z,,0,,,NaN,,,,,,false,,,,362223.09999999404,362223,,362222.799999997,,362238.433,8,400,,,
sequence,flow.Sequence,4_77,2023-11-01T15:47:29.097Z,,0,,,4734.764000000025,completion,,,,,false,,,,362223.200000003,362223,357471.617,357483.59999999404,357488.236,362238.433,8,400,,,
trial,html.Screen,4_78_0,2023-11-01T15:47:32.251Z,,0,2,,3138.066999999981,response,ISIC_0228772.JPG,6,ISIC_2228511.JPG,ISIC_0228772.JPG,false,1,keypress(m),500,365376.799999997,365376.5,362221.849,362223.299999997,362238.433,365388.229,8,400,29,,ISIC_2228511.JPG
break,html.Screen,4_78_1,2023-11-01T15:47:32.252Z,,0,,,NaN,,,,,,false,,,,365377.59999999404,365377.299999997,,365376.90000000596,,365388.229,8,400,,,
break_continue,html.Screen,4_78_2,2023-11-01T15:47:32.252Z,,0,,,NaN,,,,,,false,,,,365377.799999997,365377.700000003,,365377.59999999404,,365388.229,8,400,,,
sequence,flow.Sequence,4_78,2023-11-01T15:47:32.252Z,,0,,,3139.267000002961,completion,,,,,false,,,,365377.90000000596,365377.700000003,362221.849,362223.299999997,362238.433,365388.229,8,400,,,
trial,html.Screen,4_79_0,2023-11-01T15:47:36.110Z,,0,2,,3847.1710000059684,response,ISIC_0029205.JPG,6,ISIC_0061359.JPG,ISIC_0029205.JPG,false,1,keypress(m),500,369235.799999997,369235.40000000596,365371.681,365378,365388.229,369254.965,8,400,30,,ISIC_0061359.JPG
break,html.Screen,4_79_1,2023-11-01T15:47:36.111Z,,0,,,NaN,,,,,,false,,,,369236.90000000596,369236.700000003,,369236,,369254.965,8,400,,,
break_continue,html.Screen,4_79_2,2023-11-01T15:47:36.111Z,,0,,,NaN,,,,,,false,,,,369237.299999997,369237.200000003,,369237.09999999404,,369254.965,8,400,,,
sequence,flow.Sequence,4_79,2023-11-01T15:47:36.111Z,,0,,,3848.971000002988,completion,,,,,false,,,,369237.40000000596,369237.200000003,365371.681,365378,365388.229,369254.965,8,400,,,
trial,html.Screen,4_80_0,2023-11-01T15:47:39.425Z,,0,2,,3295.935000005935,response,ISIC_0010792.JPG,5,ISIC_0030970.JPG,ISIC_0030970.JPG,false,0,keypress(z),500,372551.200000003,372550.90000000596,369238.059,369237.5,369254.965,372554.523,8,400,31,,ISIC_0010792.JPG
break,html.Screen,4_80_1,2023-11-01T15:47:39.427Z,,0,,,NaN,,,,,,false,,,,372553,372552.799999997,,372551.5,,372554.523,8,400,,,
break_continue,html.Screen,4_80_2,2023-11-01T15:47:39.427Z,,0,,,NaN,,,,,,false,,,,372553.40000000596,372553.299999997,,372553.200000003,,372554.523,8,400,,,
sequence,flow.Sequence,4_80,2023-11-01T15:47:39.427Z,,0,,,3298.334999996994,completion,,,,,false,,,,372553.5,372553.299999997,369238.059,369237.5,369254.965,372554.523,8,400,,,
trial,html.Screen,4_81_0,2023-11-01T15:47:43.333Z,,0,2,,3904.576999994053,response,ISIC_0068884.JPG,5,ISIC_0232101.JPG,ISIC_0068884.JPG,false,1,keypress(m),500,376459.40000000596,376459.09999999404,372538.111,372553.59999999404,372554.523,376471.039,8,400,32,,ISIC_0232101.JPG
break,html.Screen,4_81_1,2023-11-01T15:47:43.335Z,,0,,,NaN,,,,,,false,,,,376461.299999997,376461,,376459.700000003,,376471.039,8,400,,,
break_continue,html.Screen,4_81_2,2023-11-01T15:47:43.336Z,,0,,,NaN,,,,,,false,,,,376461.59999999404,376461.5,,376461.299999997,,376471.039,8,400,,,
sequence,flow.Sequence,4_81,2023-11-01T15:47:43.336Z,,0,,,3906.9770000000135,completion,,,,,false,,,,376461.700000003,376461.5,372538.111,372553.59999999404,372554.523,376471.039,8,400,,,
trial,html.Screen,4_82_0,2023-11-01T15:47:46.618Z,,0,2,,3272.26099999703,response,ISIC_0055549.JPG,6,ISIC_0046985.JPG,ISIC_0046985.JPG,false,0,keypress(z),500,379743.59999999404,379743.299999997,376454.793,376461.90000000596,376471.039,379755.455,8,400,33,,ISIC_0055549.JPG
break,html.Screen,4_82_1,2023-11-01T15:47:46.619Z,,0,,,NaN,,,,,,false,,,,379745,379744.799999997,,379743.799999997,,379755.455,8,400,,,
break_continue,html.Screen,4_82_2,2023-11-01T15:47:46.619Z,,0,,,NaN,,,,,,false,,,,379745.299999997,379745.200000003,,379745.09999999404,,379755.455,8,400,,,
sequence,flow.Sequence,4_82,2023-11-01T15:47:46.619Z,,0,,,3274.1610000029905,completion,,,,,false,,,,379745.5,379745.200000003,376454.793,376461.90000000596,376471.039,379755.455,8,400,,,
trial,html.Screen,4_83_0,2023-11-01T15:47:50.225Z,,0,2,,3595.6449999940232,response,ISIC_6255494.JPG,6,ISIC_4926448.JPG,ISIC_4926448.JPG,false,0,keypress(z),500,383351.40000000596,383351.09999999404,379737.96,379745.59999999404,379755.455,383354.205,8,400,34,,ISIC_6255494.JPG
break,html.Screen,4_83_1,2023-11-01T15:47:50.227Z,,0,,,NaN,,,,,,false,,,,383352.59999999404,383352.40000000596,,383351.59999999404,,383354.205,8,400,,,
break_continue,html.Screen,4_83_2,2023-11-01T15:47:50.227Z,,0,,,NaN,,,,,,false,,,,383352.90000000596,383352.799999997,,383352.799999997,,383354.205,8,400,,,
sequence,flow.Sequence,4_83,2023-11-01T15:47:50.227Z,,0,,,3597.3449999970035,completion,,,,,false,,,,383353,383352.799999997,379737.96,379745.5,379755.455,383354.205,8,400,,,
trial,html.Screen,4_84_0,2023-11-01T15:47:53.797Z,,0,2,,3568.495000002964,response,ISIC_3608788.JPG,5,ISIC_6670242.JPG,ISIC_6670242.JPG,false,0,keypress(z),500,386923.09999999404,386922.700000003,383337.669,383353.09999999404,383354.205,386937.536,8,400,35,,ISIC_3608788.JPG
break,html.Screen,4_84_1,2023-11-01T15:47:53.798Z,,0,,,NaN,,,,,,false,,,,386924,386923.799999997,,386923.299999997,,386937.536,8,400,,,
break_continue,html.Screen,4_84_2,2023-11-01T15:47:53.798Z,,0,,,NaN,,,,,,false,,,,386924.40000000596,386924.299999997,,386924.200000003,,386937.536,8,400,,,
sequence,flow.Sequence,4_84,2023-11-01T15:47:53.798Z,,0,,,3570.0949999970035,completion,,,,,false,,,,386924.5,386924.299999997,383337.669,383353,383354.205,386937.536,8,400,,,
trial,html.Screen,4_85_0,2023-11-01T15:47:57.177Z,,0,2,,3364.8640000059386,response,ISIC_6000407.JPG,6,ISIC_4253346.JPG,ISIC_6000407.JPG,false,1,keypress(m),500,390302.799999997,390302.40000000596,386921.14,386924.59999999404,386937.536,390321.278,8,400,36,,ISIC_4253346.JPG
break,html.Screen,4_85_1,2023-11-01T15:47:57.178Z,,0,,,NaN,,,,,,false,,,,390304.5,390304.200000003,,390303,,390321.278,8,400,,,
break_continue,html.Screen,4_85_2,2023-11-01T15:47:57.179Z,,0,,,NaN,,,,,,false,,,,390304.90000000596,390304.700000003,,390304.59999999404,,390321.278,8,400,,,
sequence,flow.Sequence,4_85,2023-11-01T15:47:57.179Z,,0,,,3367.1640000029583,completion,,,,,false,,,,390305.200000003,390304.700000003,386921.14,386924.59999999404,386937.536,390321.278,8,400,,,
trial,html.Screen,4_86_0,2023-11-01T15:48:00.445Z,,0,2,,3249.3219999940484,response,ISIC_8211214.JPG,4,ISIC_1390308.JPG,ISIC_1390308.JPG,false,0,keypress(z),500,393571,393570.59999999404,390287.641,390305.299999997,390321.278,393587.395,8,400,37,,ISIC_8211214.JPG
break,html.Screen,4_86_1,2023-11-01T15:48:00.447Z,,0,,,NaN,,,,,,false,,,,393573,393572.299999997,,393571.299999997,,393587.395,8,400,,,
break_continue,html.Screen,4_86_2,2023-11-01T15:48:00.448Z,,0,,,NaN,,,,,,false,,,,393573.5,393573.299999997,,393573.09999999404,,393587.395,8,400,,,
sequence,flow.Sequence,4_86,2023-11-01T15:48:00.448Z,,0,,,3252.0219999970286,completion,,,,,false,,,,393573.90000000596,393573.299999997,390287.641,390305.299999997,390321.278,393587.395,8,400,,,
trial,html.Screen,4_87_0,2023-11-01T15:48:03.713Z,,0,2,,3251.505000005942,response,ISIC_5416978.JPG,4,ISIC_6556622.JPG,ISIC_5416978.JPG,false,1,keypress(m),500,396839.200000003,396838.90000000596,393570.815,393574,393587.395,396870.759,8,400,38,,ISIC_6556622.JPG
break,html.Screen,4_87_1,2023-11-01T15:48:03.714Z,,0,,,NaN,,,,,,false,,,,396840,396839.799999997,,396839.299999997,,396870.759,8,400,,,
break_continue,html.Screen,4_87_2,2023-11-01T15:48:03.714Z,,0,,,NaN,,,,,,false,,,,396840.40000000596,396840.200000003,,396840.09999999404,,396870.759,8,400,,,
sequence,flow.Sequence,4_87,2023-11-01T15:48:03.715Z,,0,,,3252.8050000029616,completion,,,,,false,,,,396840.40000000596,396840.200000003,393570.815,393573.90000000596,393587.395,396870.759,8,400,,,
trial,html.Screen,4_88_0,2023-11-01T15:48:07.461Z,,0,2,,3715.5409999969997,response,ISIC_0066399.JPG,5,ISIC_1092432.JPG,ISIC_1092432.JPG,false,0,keypress(z),500,400586.59999999404,400586.299999997,396854.026,396840.59999999404,396870.759,400603.987,8,400,39,,ISIC_0066399.JPG
break,html.Screen,4_88_1,2023-11-01T15:48:07.462Z,,0,,,NaN,,,,,,false,,,,400588.299999997,400588,,400586.799999997,,400603.987,8,400,,,
break_continue,html.Screen,4_88_2,2023-11-01T15:48:07.463Z,,0,,,NaN,,,,,,false,,,,400588.59999999404,400588.59999999404,,400588.40000000596,,400603.987,8,400,,,
sequence,flow.Sequence,4_88,2023-11-01T15:48:07.463Z,,0,,,3717.8409999940195,completion,,,,,false,,,,400588.799999997,400588.59999999404,396854.026,396840.5,396870.759,400603.987,8,400,,,
trial,html.Screen,4_89_0,2023-11-01T15:48:10.249Z,,0,2,,2770.512999999977,response,ISIC_5867911.JPG,5,ISIC_3771332.JPG,ISIC_3771332.JPG,false,0,keypress(z),500,403374.799999997,403374.5,400587.154,400588.90000000596,400603.987,403387.701,8,400,40,,ISIC_5867911.JPG
break,html.Screen,4_89_1,2023-11-01T15:48:10.250Z,,0,,,NaN,,,,,,false,,,,403375.90000000596,403375.700000003,,403375.09999999404,,403387.701,8,400,,,
break_continue,html.Screen,4_89_2,2023-11-01T15:48:10.250Z,,0,,,NaN,,,,,,false,,,,403376.40000000596,403376.299999997,,403376.09999999404,,403387.701,8,400,,,
sequence,flow.Sequence,4_89,2023-11-01T15:48:10.251Z,,0,,,2772.312999996997,completion,,,,,false,,,,403376.5,403376.299999997,400587.154,400588.90000000596,400603.987,403387.701,8,400,,,
trial,html.Screen,4_90_0,2023-11-01T15:48:14.605Z,,0,2,,4342.499000002979,response,ISIC_9087221.JPG,5,ISIC_2528656.JPG,ISIC_9087221.JPG,false,1,keypress(m),500,407730.59999999404,407730.200000003,403370.832,403376.59999999404,403387.701,407736.865,8,400,41,,ISIC_2528656.JPG
break,html.Screen,4_90_1,2023-11-01T15:48:14.606Z,,0,,,NaN,,,,,,false,,,,407731.700000003,407731.5,,407730.799999997,,407736.865,8,400,,,
break_continue,html.Screen,4_90_2,2023-11-01T15:48:14.606Z,,0,,,NaN,,,,,,false,,,,407732.09999999404,407732,,407731.90000000596,,407736.865,8,400,,,
sequence,flow.Sequence,4_90,2023-11-01T15:48:14.606Z,,0,,,4344.298999999999,completion,,,,,false,,,,407732.200000003,407732,403370.832,403376.59999999404,403387.701,407736.865,8,400,,,
trial,html.Screen,4_91_0,2023-11-01T15:48:17.537Z,,0,2,,2925.434999997029,response,ISIC_3598244.JPG,5,ISIC_4264600.JPG,ISIC_4264600.JPG,false,0,keypress(z),500,410662.5,410662.299999997,407720.468,407732.299999997,407736.865,410670.111,8,400,42,,ISIC_3598244.JPG
break,html.Screen,4_91_1,2023-11-01T15:48:17.538Z,,0,,,NaN,,,,,,false,,,,410663.700000003,410663.5,,410662.700000003,,410670.111,8,400,,,
break_continue,html.Screen,4_91_2,2023-11-01T15:48:17.538Z,,0,,,NaN,,,,,,false,,,,410664,410664,,410663.799999997,,410670.111,8,400,,,
sequence,flow.Sequence,4_91,2023-11-01T15:48:17.538Z,,0,,,2927.1350000000093,completion,,,,,false,,,,410664.09999999404,410664,407720.468,407732.299999997,407736.865,410670.111,8,400,,,
trial,html.Screen,4_92_0,2023-11-01T15:48:20.645Z,,0,2,,3099.988999994064,response,ISIC_0055143.JPG,5,ISIC_7959386.JPG,ISIC_7959386.JPG,false,0,keypress(z),500,413770.5,413770.09999999404,410653.671,410664.200000003,410670.111,413786.95,8,400,43,,ISIC_0055143.JPG
break,html.Screen,4_92_1,2023-11-01T15:48:20.646Z,,0,,,NaN,,,,,,false,,,,413772.299999997,413772,,413770.59999999404,,413786.95,8,400,,,
break_continue,html.Screen,4_92_2,2023-11-01T15:48:20.647Z,,0,,,NaN,,,,,,false,,,,413772.700000003,413772.59999999404,,413772.5,,413786.95,8,400,,,
sequence,flow.Sequence,4_92,2023-11-01T15:48:20.647Z,,0,,,3102.488999994064,completion,,,,,false,,,,413772.799999997,413772.59999999404,410653.671,410664.200000003,410670.111,413786.95,8,400,,,
trial,html.Screen,4_93_0,2023-11-01T15:48:25.753Z,,0,2,,5091.149999994028,response,ISIC_0002119.JPG,5,ISIC_0071783.JPG,ISIC_0071783.JPG,false,0,keypress(z),500,418878.59999999404,418878.09999999404,413770.457,413772.90000000596,413786.95,418886.73,8,400,44,,ISIC_0002119.JPG
break,html.Screen,4_93_1,2023-11-01T15:48:25.755Z,,0,,,NaN,,,,,,false,,,,418880.59999999404,418880.40000000596,,418879,,418886.73,8,400,,,
break_continue,html.Screen,4_93_2,2023-11-01T15:48:25.755Z,,0,,,NaN,,,,,,false,,,,418881.09999999404,418880.90000000596,,418880.799999997,,418886.73,8,400,,,
sequence,flow.Sequence,4_93,2023-11-01T15:48:25.755Z,,0,,,5093.950000005949,completion,,,,,false,,,,418881.200000003,418880.90000000596,413770.457,413772.90000000596,413786.95,418886.73,8,400,,,
trial,html.Screen,4_94_0,2023-11-01T15:48:29.341Z,,0,2,,3580.2700000000186,response,ISIC_0062208.JPG,6,ISIC_0060832.JPG,ISIC_0062208.JPG,false,1,keypress(m),500,422467.40000000596,422467,418870.247,418881.299999997,418886.73,422486.756,8,400,45,,ISIC_0060832.JPG
break,html.Screen,4_94_1,2023-11-01T15:48:29.343Z,,0,,,NaN,,,,,,false,,,,422468.5,422468.200000003,,422467.700000003,,422486.756,8,400,,,
break_continue,html.Screen,4_94_2,2023-11-01T15:48:29.343Z,,0,,,NaN,,,,,,false,,,,422468.90000000596,422468.799999997,,422468.59999999404,,422486.756,8,400,,,
sequence,flow.Sequence,4_94,2023-11-01T15:48:29.343Z,,0,,,3582.0699999970384,completion,,,,,false,,,,422469.09999999404,422468.799999997,418870.247,418881.299999997,418886.73,422486.756,8,400,,,
trial,html.Screen,4_95_0,2023-11-01T15:48:33.218Z,,0,2,,3856.244000000006,response,ISIC_1605629.JPG,5,ISIC_0031529.JPG,ISIC_0031529.JPG,false,0,keypress(z),500,426343.40000000596,426343,422469.837,422469.200000003,422486.756,426353.136,8,400,46,,ISIC_1605629.JPG
break,html.Screen,4_95_1,2023-11-01T15:48:33.219Z,,0,,,NaN,,,,,,false,,,,426345.09999999404,426344.40000000596,,426343.700000003,,426353.136,8,400,,,
break_continue,html.Screen,4_95_2,2023-11-01T15:48:33.220Z,,0,,,NaN,,,,,,false,,,,426346,426345.799999997,,426345.5,,426353.136,8,400,,,
sequence,flow.Sequence,4_95,2023-11-01T15:48:33.220Z,,0,,,3859.043999997026,completion,,,,,false,,,,426346.200000003,426345.799999997,422469.837,422469.200000003,422486.756,426353.136,8,400,,,
trial,html.Screen,4_96_0,2023-11-01T15:48:36.135Z,,0,2,,2907.0640000029816,response,ISIC_0028800.JPG,5,ISIC_4107250.JPG,ISIC_0028800.JPG,false,1,keypress(m),500,429260.59999999404,429260.200000003,426336.569,426346.299999997,426353.136,429269.613,8,400,47,,ISIC_4107250.JPG
break,html.Screen,4_96_1,2023-11-01T15:48:36.136Z,,0,,,NaN,,,,,,false,,,,429261.59999999404,429261.40000000596,,429260.799999997,,429269.613,8,400,,,
break_continue,html.Screen,4_96_2,2023-11-01T15:48:36.136Z,,0,,,NaN,,,,,,false,,,,429262.09999999404,429261.90000000596,,429261.799999997,,429269.613,8,400,,,
sequence,flow.Sequence,4_96,2023-11-01T15:48:36.136Z,,0,,,2908.764000005962,completion,,,,,false,,,,429262.200000003,429261.90000000596,426336.569,426346.299999997,426353.136,429269.613,8,400,,,
trial,html.Screen,4_97_0,2023-11-01T15:48:39.002Z,,0,2,,2857.6869999970077,response,ISIC_0032140.JPG,5,ISIC_7409889.JPG,ISIC_7409889.JPG,false,0,keypress(z),500,432127.700000003,432127.299999997,429253.369,429262.40000000596,429269.613,432136.486,8,400,48,,ISIC_0032140.JPG
break,html.Screen,4_97_1,2023-11-01T15:48:39.003Z,,0,,,NaN,,,,,,false,,,,432129,432128.59999999404,,432128.09999999404,,432136.486,8,400,,,
break_continue,html.Screen,4_97_2,2023-11-01T15:48:39.004Z,,0,,,NaN,,,,,,false,,,,432129.5,432129.299999997,,432129.09999999404,,432136.486,8,400,,,
sequence,flow.Sequence,4_97,2023-11-01T15:48:39.004Z,,0,,,2859.6869999970077,completion,,,,,false,,,,432129.59999999404,432129.299999997,429253.369,429262.40000000596,429269.613,432136.486,8,400,,,
trial,html.Screen,4_98_0,2023-11-01T15:48:42.046Z,,0,2,,3034.914000005985,response,ISIC_0070012.JPG,4,ISIC_7809510.JPG,ISIC_7809510.JPG,false,0,keypress(z),500,435171.59999999404,435171.40000000596,432119.684,432129.90000000596,432136.486,435186.437,8,400,49,,ISIC_0070012.JPG
break,html.Screen,4_98_1,2023-11-01T15:48:42.047Z,,0,,,NaN,,,,,,false,,,,435172.90000000596,435172.59999999404,,435172,,435186.437,8,400,,,
break_continue,html.Screen,4_98_2,2023-11-01T15:48:42.047Z,,0,,,NaN,,,,,,false,,,,435173.200000003,435173.09999999404,,435172.90000000596,,435186.437,8,400,,,
sequence,flow.Sequence,4_98,2023-11-01T15:48:42.048Z,,0,,,3036.613999994064,completion,,,,,false,,,,435173.5,435173.09999999404,432119.684,432129.700000003,432136.486,435186.437,8,400,,,
trial,html.Screen,4_99_0,2023-11-01T15:48:45.281Z,,0,2,,3220.5630000000237,response,ISIC_6714082.JPG,6,ISIC_0057617.JPG,ISIC_6714082.JPG,false,1,keypress(m),500,438407.200000003,438407,435169.805,435173.700000003,435186.437,438420.443,8,400,50,,ISIC_0057617.JPG
break,html.Screen,4_99_1,2023-11-01T15:48:55.278Z,,0,,,9998.780999999959,timeout,,,,,false,,,,448404.09999999404,448402.884,438403.173,438407.5,438420.443,448419.224,8,400,,,
break_continue,html.Screen,4_99_2,2023-11-01T15:48:56.981Z,,0,,,1663.9760000029928,response,,,,,false,continue,keypress(Space),,450106.90000000596,450083.200000003,448402.884,448404.299999997,448419.224,450119.373,8,400,,,
sequence,flow.Sequence,4_99,2023-11-01T15:48:56.981Z,,0,,,14896.763000003004,completion,,,,,false,,,,450107,450083.200000003,435169.805,435173.700000003,435186.437,450119.373,8,400,,,
trial,html.Screen,4_100_0,2023-11-01T15:48:59.862Z,,0,3,,2869.226999994018,response,ISIC_2075546.JPG,5,ISIC_0000295.JPG,ISIC_0000295.JPG,false,0,keypress(z),500,452989,452988.59999999404,450102.616,450107.09999999404,450119.373,453002.901,8,400,1,,ISIC_2075546.JPG
break,html.Screen,4_100_1,2023-11-01T15:48:59.864Z,,0,,,NaN,,,,,,false,,,,452991,452990.700000003,,452989.299999997,,453002.901,8,400,,,
break_continue,html.Screen,4_100_2,2023-11-01T15:48:59.865Z,,0,,,NaN,,,,,,false,,,,452991.40000000596,452991.299999997,,452991.09999999404,,453002.901,8,400,,,
sequence,flow.Sequence,4_100,2023-11-01T15:48:59.865Z,,0,,,2871.9269999969983,completion,,,,,false,,,,452991.59999999404,452991.299999997,450102.616,450107.09999999404,450119.373,453002.901,8,400,,,
trial,html.Screen,4_101_0,2023-11-01T15:49:02.667Z,,0,3,,2790.2990000029677,response,ISIC_0033643.JPG,5,ISIC_3028754.JPG,ISIC_3028754.JPG,false,0,keypress(z),500,455793.700000003,455793.200000003,452985.943,452991.700000003,453002.901,455802.916,8,400,2,,ISIC_0033643.JPG
break,html.Screen,4_101_1,2023-11-01T15:49:02.669Z,,0,,,NaN,,,,,,false,,,,455795.09999999404,455794.799999997,,455794.09999999404,,455802.916,8,400,,,
break_continue,html.Screen,4_101_2,2023-11-01T15:49:02.669Z,,0,,,NaN,,,,,,false,,,,455795.59999999404,455795.5,,455795.200000003,,455802.916,8,400,,,
sequence,flow.Sequence,4_101,2023-11-01T15:49:02.669Z,,0,,,2792.5989999999874,completion,,,,,false,,,,455795.799999997,455795.5,452985.943,452991.59999999404,453002.901,455802.916,8,400,,,
trial,html.Screen,4_102_0,2023-11-01T15:49:05.631Z,,0,3,,2954.5839999999735,response,ISIC_0025138.JPG,5,ISIC_6208222.JPG,ISIC_0025138.JPG,false,1,keypress(m),500,458758,458757.5,455785.612,455796,455802.916,458769.015,8,400,3,,ISIC_6208222.JPG
break,html.Screen,4_102_1,2023-11-01T15:49:05.633Z,,0,,,NaN,,,,,,false,,,,458759.799999997,458759.59999999404,,458758.200000003,,458769.015,8,400,,,
break_continue,html.Screen,4_102_2,2023-11-01T15:49:05.634Z,,0,,,NaN,,,,,,false,,,,458760.40000000596,458760.299999997,,458760,,458769.015,8,400,,,
sequence,flow.Sequence,4_102,2023-11-01T15:49:05.634Z,,0,,,2957.383999996993,completion,,,,,false,,,,458760.59999999404,458760.299999997,455785.612,455795.90000000596,455802.916,458769.015,8,400,,,
trial,html.Screen,4_103_0,2023-11-01T15:49:08.676Z,,0,3,,3032.784999997006,response,ISIC_0024864.JPG,5,ISIC_7455460.JPG,ISIC_7455460.JPG,false,0,keypress(z),500,461802.200000003,461801.799999997,458752.218,458760.59999999404,458769.015,461818.974,8,400,4,,ISIC_0024864.JPG
break,html.Screen,4_103_1,2023-11-01T15:49:08.677Z,,0,,,NaN,,,,,,false,,,,461803.700000003,461803.40000000596,,461802.299999997,,461818.974,8,400,,,
break_continue,html.Screen,4_103_2,2023-11-01T15:49:08.678Z,,0,,,NaN,,,,,,false,,,,461804,461803.90000000596,,461803.799999997,,461818.974,8,400,,,
sequence,flow.Sequence,4_103,2023-11-01T15:49:08.678Z,,0,,,3034.8850000059465,completion,,,,,false,,,,461804.200000003,461803.90000000596,458752.218,458760.59999999404,458769.015,461818.974,8,400,,,
trial,html.Screen,4_104_0,2023-11-01T15:49:11.544Z,,0,3,,2850.8259999970323,response,ISIC_5932383.JPG,6,ISIC_0071532.JPG,ISIC_0071532.JPG,false,0,keypress(z),500,464670.09999999404,464669.799999997,461802.146,461804.299999997,461818.974,464685.463,8,400,5,,ISIC_5932383.JPG
break,html.Screen,4_104_1,2023-11-01T15:49:11.545Z,,0,,,NaN,,,,,,false,,,,464671.40000000596,464671.09999999404,,464670.5,,464685.463,8,400,,,
break_continue,html.Screen,4_104_2,2023-11-01T15:49:11.545Z,,0,,,NaN,,,,,,false,,,,464671.799999997,464671.700000003,,464671.5,,464685.463,8,400,,,
sequence,flow.Sequence,4_104,2023-11-01T15:49:11.545Z,,0,,,2852.726000002993,completion,,,,,false,,,,464672,464671.700000003,461802.146,461804.200000003,461818.974,464685.463,8,400,,,
trial,html.Screen,4_105_0,2023-11-01T15:49:15.404Z,,0,3,,3844.537000000011,response,ISIC_0033954.JPG,5,ISIC_0055917.JPG,ISIC_0033954.JPG,false,1,keypress(m),500,468530.200000003,468530,464668.875,464672.09999999404,464685.463,468535.222,8,400,6,,ISIC_0055917.JPG
break,html.Screen,4_105_1,2023-11-01T15:49:15.405Z,,0,,,NaN,,,,,,false,,,,468531.09999999404,468530.90000000596,,468530.5,,468535.222,8,400,,,
break_continue,html.Screen,4_105_2,2023-11-01T15:49:15.405Z,,0,,,NaN,,,,,,false,,,,468531.5,468531.299999997,,468531.200000003,,468535.222,8,400,,,
sequence,flow.Sequence,4_105,2023-11-01T15:49:15.405Z,,0,,,3845.836999997031,completion,,,,,false,,,,468531.59999999404,468531.299999997,464668.875,464672.09999999404,464685.463,468535.222,8,400,,,
trial,html.Screen,4_106_0,2023-11-01T15:49:18.495Z,,0,3,,3086.3779999940307,response,ISIC_7564545.JPG,4,ISIC_3009493.JPG,ISIC_3009493.JPG,false,0,keypress(z),500,471621.90000000596,471621.59999999404,468518.619,468531.700000003,468535.222,471635.219,8,400,7,,ISIC_7564545.JPG
break,html.Screen,4_106_1,2023-11-01T15:49:18.496Z,,0,,,NaN,,,,,,false,,,,471623,471622.799999997,,471622.09999999404,,471635.219,8,400,,,
break_continue,html.Screen,4_106_2,2023-11-01T15:49:18.497Z,,0,,,NaN,,,,,,false,,,,471623.40000000596,471623.200000003,,471623.09999999404,,471635.219,8,400,,,
sequence,flow.Sequence,4_106,2023-11-01T15:49:18.497Z,,0,,,3087.9780000029714,completion,,,,,false,,,,471623.5,471623.200000003,468518.619,468531.59999999404,468535.222,471635.219,8,400,,,
trial,html.Screen,4_107_0,2023-11-01T15:49:21.284Z,,0,3,,2774.580999997037,response,ISIC_0027804.JPG,4,ISIC_9072034.JPG,ISIC_0027804.JPG,false,1,keypress(m),500,474410.09999999404,474409.799999997,471618.768,471623.700000003,471635.219,474418.615,8,400,8,,ISIC_9072034.JPG
break,html.Screen,4_107_1,2023-11-01T15:49:21.285Z,,0,,,NaN,,,,,,false,,,,474411.700000003,474411.40000000596,,474410.299999997,,474418.615,8,400,,,
break_continue,html.Screen,4_107_2,2023-11-01T15:49:21.285Z,,0,,,NaN,,,,,,false,,,,474412,474411.90000000596,,474411.799999997,,474418.615,8,400,,,
sequence,flow.Sequence,4_107,2023-11-01T15:49:21.286Z,,0,,,2776.6810000059777,completion,,,,,false,,,,474412.09999999404,474411.90000000596,471618.768,471623.59999999404,471635.219,474418.615,8,400,,,
trial,html.Screen,4_108_0,2023-11-01T15:49:24.167Z,,0,3,,2874.984999994049,response,ISIC_1939413.JPG,5,ISIC_0058149.JPG,ISIC_0058149.JPG,false,0,keypress(z),500,477294,477293.59999999404,474401.82,474412.200000003,474418.615,477301.733,8,400,9,,ISIC_1939413.JPG
break,html.Screen,4_108_1,2023-11-01T15:49:24.168Z,,0,,,NaN,,,,,,false,,,,477294.90000000596,477294.700000003,,477294.200000003,,477301.733,8,400,,,
break_continue,html.Screen,4_108_2,2023-11-01T15:49:24.169Z,,0,,,NaN,,,,,,false,,,,477295.299999997,477295.200000003,,477295.09999999404,,477301.733,8,400,,,
sequence,flow.Sequence,4_108,2023-11-01T15:49:24.169Z,,0,,,2876.5850000029895,completion,,,,,false,,,,477295.5,477295.200000003,474401.82,474412.200000003,474418.615,477301.733,8,400,,,
trial,html.Screen,4_109_0,2023-11-01T15:49:27.035Z,,0,3,,2859.7669999999925,response,ISIC_0064660.JPG,5,ISIC_0011193.JPG,ISIC_0064660.JPG,false,1,keypress(m),500,480161.90000000596,480161.5,477285.625,477295.5,477301.733,480168.225,8,400,10,,ISIC_0011193.JPG
break,html.Screen,4_109_1,2023-11-01T15:49:27.037Z,,0,,,NaN,,,,,,false,,,,480163.09999999404,480162.59999999404,,480162.09999999404,,480168.225,8,400,,,
break_continue,html.Screen,4_109_2,2023-11-01T15:49:27.037Z,,0,,,NaN,,,,,,false,,,,480163.5,480163.40000000596,,480163.200000003,,480168.225,8,400,,,
sequence,flow.Sequence,4_109,2023-11-01T15:49:27.037Z,,0,,,2861.667000005953,completion,,,,,false,,,,480163.59999999404,480163.40000000596,477285.625,477295.5,477301.733,480168.225,8,400,,,
trial,html.Screen,4_110_0,2023-11-01T15:49:29.951Z,,0,3,,2909.074999997043,response,ISIC_9106966.JPG,5,ISIC_0071481.JPG,ISIC_0071481.JPG,false,0,keypress(z),500,483077.700000003,483077.299999997,480151.875,480163.799999997,480168.225,483085.355,8,400,11,,ISIC_9106966.JPG
break,html.Screen,4_110_1,2023-11-01T15:49:29.952Z,,0,,,NaN,,,,,,false,,,,483078.700000003,483078.5,,483077.90000000596,,483085.355,8,400,,,
break_continue,html.Screen,4_110_2,2023-11-01T15:49:29.953Z,,0,,,NaN,,,,,,false,,,,483079.200000003,483079,,483078.90000000596,,483085.355,8,400,,,
sequence,flow.Sequence,4_110,2023-11-01T15:49:29.953Z,,0,,,2910.7750000000233,completion,,,,,false,,,,483079.299999997,483079,480151.875,480163.700000003,480168.225,483085.355,8,400,,,
trial,html.Screen,4_111_0,2023-11-01T15:49:32.611Z,,0,3,,2651.9449999970384,response,ISIC_0029651.JPG,5,ISIC_0010094.JPG,ISIC_0010094.JPG,false,0,keypress(z),500,485737.59999999404,485737.299999997,483068.328,483079.40000000596,483085.355,485752.537,8,400,12,,ISIC_0029651.JPG
break,html.Screen,4_111_1,2023-11-01T15:49:32.613Z,,0,,,NaN,,,,,,false,,,,485739.799999997,485739.5,,485737.90000000596,,485752.537,8,400,,,
break_continue,html.Screen,4_111_2,2023-11-01T15:49:32.614Z,,0,,,NaN,,,,,,false,,,,485740.299999997,485740.200000003,,485740,,485752.537,8,400,,,
sequence,flow.Sequence,4_111,2023-11-01T15:49:32.614Z,,0,,,2654.845000002999,completion,,,,,false,,,,485740.40000000596,485740.200000003,483068.328,483079.40000000596,483085.355,485752.537,8,400,,,
trial,html.Screen,4_112_0,2023-11-01T15:49:35.257Z,,0,3,,2630.663000002969,response,ISIC_0056156.JPG,6,ISIC_0061343.JPG,ISIC_0061343.JPG,false,0,keypress(z),500,488383.5,488383.200000003,485735.055,485740.700000003,485752.537,488401.806,8,400,13,,ISIC_0056156.JPG
break,html.Screen,4_112_1,2023-11-01T15:49:35.259Z,,0,,,NaN,,,,,,false,,,,488385.200000003,488384.799999997,,488383.700000003,,488401.806,8,400,,,
break_continue,html.Screen,4_112_2,2023-11-01T15:49:35.259Z,,0,,,NaN,,,,,,false,,,,488385.5,488385.5,,488385.299999997,,488401.806,8,400,,,
sequence,flow.Sequence,4_112,2023-11-01T15:49:35.259Z,,0,,,2632.962999999989,completion,,,,,false,,,,488385.700000003,488385.5,485735.055,485740.700000003,485752.537,488401.806,8,400,,,
trial,html.Screen,4_113_0,2023-11-01T15:49:38.478Z,,0,3,,3202.2939999940572,response,ISIC_0030003.JPG,5,ISIC_8976269.JPG,ISIC_0030003.JPG,false,1,keypress(m),500,491604.299999997,491604.09999999404,488368.424,488385.799999997,488401.806,491617.943,8,400,14,,ISIC_8976269.JPG
break,html.Screen,4_113_1,2023-11-01T15:49:38.479Z,,0,,,NaN,,,,,,false,,,,491605.200000003,491605.09999999404,,491604.40000000596,,491617.943,8,400,,,
break_continue,html.Screen,4_113_2,2023-11-01T15:49:38.479Z,,0,,,NaN,,,,,,false,,,,491605.59999999404,491605.5,,491605.40000000596,,491617.943,8,400,,,
sequence,flow.Sequence,4_113,2023-11-01T15:49:38.479Z,,0,,,3203.6940000000177,completion,,,,,false,,,,491605.700000003,491605.5,488368.424,488385.799999997,488401.806,491617.943,8,400,,,
trial,html.Screen,4_114_0,2023-11-01T15:49:41.521Z,,0,3,,3029.156999994011,response,ISIC_0679494.JPG,4,ISIC_6285925.JPG,ISIC_0679494.JPG,false,1,keypress(m),500,494647.40000000596,494647.09999999404,491601.572,491605.700000003,491617.943,494651.198,8,400,15,,ISIC_6285925.JPG
break,html.Screen,4_114_1,2023-11-01T15:49:41.523Z,,0,,,NaN,,,,,,false,,,,494649.299999997,494649,,494647.700000003,,494651.198,8,400,,,
break_continue,html.Screen,4_114_2,2023-11-01T15:49:41.523Z,,0,,,NaN,,,,,,false,,,,494649.700000003,494649.59999999404,,494649.40000000596,,494651.198,8,400,,,
sequence,flow.Sequence,4_114,2023-11-01T15:49:41.523Z,,0,,,3031.656999994011,completion,,,,,false,,,,494649.90000000596,494649.59999999404,491601.572,491605.700000003,491617.943,494651.198,8,400,,,
trial,html.Screen,4_115_0,2023-11-01T15:49:44.198Z,,0,3,,2672.601999997045,response,ISIC_0070588.JPG,5,ISIC_0156642.JPG,ISIC_0156642.JPG,false,0,keypress(z),500,497324.200000003,497323.799999997,494634.612,494650,494651.198,497334.434,8,400,16,,ISIC_0070588.JPG
break,html.Screen,4_115_1,2023-11-01T15:49:44.200Z,,0,,,NaN,,,,,,false,,,,497326.200000003,497325.90000000596,,497324.40000000596,,497334.434,8,400,,,
break_continue,html.Screen,4_115_2,2023-11-01T15:49:44.200Z,,0,,,NaN,,,,,,false,,,,497326.700000003,497326.5,,497326.299999997,,497334.434,8,400,,,
sequence,flow.Sequence,4_115,2023-11-01T15:49:44.200Z,,0,,,2675.302000000025,completion,,,,,false,,,,497326.799999997,497326.5,494634.612,494650,494651.198,497334.434,8,400,,,
trial,html.Screen,4_116_0,2023-11-01T15:49:46.890Z,,0,3,,2681.8659999970114,response,ISIC_9760968.JPG,5,ISIC_0009721.JPG,ISIC_0009721.JPG,false,0,keypress(z),500,500016.700000003,500016.299999997,497317.981,497326.799999997,497334.434,500034.469,8,400,17,,ISIC_9760968.JPG
break,html.Screen,4_116_1,2023-11-01T15:49:46.891Z,,0,,,NaN,,,,,,false,,,,500017.59999999404,500017.40000000596,,500016.90000000596,,500034.469,8,400,,,
break_continue,html.Screen,4_116_2,2023-11-01T15:49:46.891Z,,0,,,NaN,,,,,,false,,,,500017.90000000596,500017.799999997,,500017.700000003,,500034.469,8,400,,,
sequence,flow.Sequence,4_116,2023-11-01T15:49:46.892Z,,0,,,2683.3659999970114,completion,,,,,false,,,,500018.09999999404,500017.799999997,497317.981,497326.799999997,497334.434,500034.469,8,400,,,
trial,html.Screen,4_117_0,2023-11-01T15:49:49.917Z,,0,3,,3008.6309999940568,response,ISIC_8036544.JPG,5,ISIC_0011691.JPG,ISIC_8036544.JPG,false,1,keypress(m),500,503043.5,503043.09999999404,500017.721,500018.200000003,500034.469,503051.808,8,400,18,,ISIC_0011691.JPG
break,html.Screen,4_117_1,2023-11-01T15:49:49.918Z,,0,,,NaN,,,,,,false,,,,503044.59999999404,503044.299999997,,503043.799999997,,503051.808,8,400,,,
break_continue,html.Screen,4_117_2,2023-11-01T15:49:49.918Z,,0,,,NaN,,,,,,false,,,,503045,503044.90000000596,,503044.700000003,,503051.808,8,400,,,
sequence,flow.Sequence,4_117,2023-11-01T15:49:49.919Z,,0,,,3010.4310000059777,completion,,,,,false,,,,503045.200000003,503044.90000000596,500017.721,500018.200000003,500034.469,503051.808,8,400,,,
trial,html.Screen,4_118_0,2023-11-01T15:49:52.577Z,,0,3,,2651.2919999940204,response,ISIC_1835041.JPG,5,ISIC_0068128.JPG,ISIC_0068128.JPG,false,0,keypress(z),500,505703.5,505703.09999999404,503034.58,503045.200000003,503051.808,505717.539,8,400,19,,ISIC_1835041.JPG
break,html.Screen,4_118_1,2023-11-01T15:49:52.578Z,,0,,,NaN,,,,,,false,,,,505704.90000000596,505704.59999999404,,505703.90000000596,,505717.539,8,400,,,
break_continue,html.Screen,4_118_2,2023-11-01T15:49:52.579Z,,0,,,NaN,,,,,,false,,,,505705.299999997,505705.200000003,,505705,,505717.539,8,400,,,
sequence,flow.Sequence,4_118,2023-11-01T15:49:52.579Z,,0,,,2653.392000002961,completion,,,,,false,,,,505705.5,505705.200000003,503034.58,503045.200000003,503051.808,505717.539,8,400,,,
trial,html.Screen,4_119_0,2023-11-01T15:49:55.237Z,,0,3,,2645.3610000059707,response,ISIC_0708542.JPG,4,ISIC_5048124.JPG,ISIC_0708542.JPG,false,1,keypress(m),500,508363.299999997,508362.90000000596,505701.266,505705.59999999404,505717.539,508367.493,8,400,20,,ISIC_5048124.JPG
break,html.Screen,4_119_1,2023-11-01T15:49:55.239Z,,0,,,NaN,,,,,,false,,,,508365.59999999404,508365.200000003,,508363.59999999404,,508367.493,8,400,,,
break_continue,html.Screen,4_119_2,2023-11-01T15:49:55.240Z,,0,,,NaN,,,,,,false,,,,508366,508365.90000000596,,508365.799999997,,508367.493,8,400,,,
sequence,flow.Sequence,4_119,2023-11-01T15:49:55.240Z,,0,,,2648.3610000059707,completion,,,,,false,,,,508366.200000003,508365.90000000596,505701.266,505705.59999999404,505717.539,508367.493,8,400,,,
trial,html.Screen,4_120_0,2023-11-01T15:49:57.849Z,,0,3,,2608.1069999940228,response,ISIC_0057978.JPG,5,ISIC_0027350.JPG,ISIC_0027350.JPG,false,0,keypress(z),500,510976,510975.59999999404,508351.172,508366.40000000596,508367.493,510984.066,8,400,21,,ISIC_0057978.JPG
break,html.Screen,4_120_1,2023-11-01T15:49:57.852Z,,0,,,NaN,,,,,,false,,,,510978,510977.799999997,,510976.299999997,,510984.066,8,400,,,
break_continue,html.Screen,4_120_2,2023-11-01T15:49:57.852Z,,0,,,NaN,,,,,,false,,,,510978.5,510978.5,,510978.200000003,,510984.066,8,400,,,
sequence,flow.Sequence,4_120,2023-11-01T15:49:57.852Z,,0,,,2611.0069999999832,completion,,,,,false,,,,510978.700000003,510978.5,508351.172,508366.299999997,508367.493,510984.066,8,400,,,
trial,html.Screen,4_121_0,2023-11-01T15:50:00.815Z,,0,3,,2956.4340000000084,response,ISIC_0071111.JPG,5,ISIC_0059707.JPG,ISIC_0071111.JPG,false,1,keypress(m),500,513940.799999997,513940.5,510967.488,510978.90000000596,510984.066,513950.647,8,400,22,,ISIC_0059707.JPG
break,html.Screen,4_121_1,2023-11-01T15:50:00.817Z,,0,,,NaN,,,,,,false,,,,513942.40000000596,513942.200000003,,513941.09999999404,,513950.647,8,400,,,
break_continue,html.Screen,4_121_2,2023-11-01T15:50:00.817Z,,0,,,NaN,,,,,,false,,,,513942.90000000596,513942.799999997,,513942.59999999404,,513950.647,8,400,,,
sequence,flow.Sequence,4_121,2023-11-01T15:50:00.817Z,,0,,,2958.733999997028,completion,,,,,false,,,,513943,513942.799999997,510967.488,510978.90000000596,510984.066,513950.647,8,400,,,
trial,html.Screen,4_122_0,2023-11-01T15:50:03.700Z,,0,3,,2874.6529999970226,response,ISIC_8892236.JPG,6,ISIC_8029613.JPG,ISIC_8892236.JPG,false,1,keypress(m),500,516825.700000003,516825.299999997,513934.221,513943.200000003,513950.647,516833.908,8,400,23,,ISIC_8029613.JPG
break,html.Screen,4_122_1,2023-11-01T15:50:03.701Z,,0,,,NaN,,,,,,false,,,,516827.299999997,516827.09999999404,,516826,,516833.908,8,400,,,
break_continue,html.Screen,4_122_2,2023-11-01T15:50:03.702Z,,0,,,NaN,,,,,,false,,,,516828,516827.700000003,,516827.5,,516833.908,8,400,,,
sequence,flow.Sequence,4_122,2023-11-01T15:50:03.702Z,,0,,,2877.053000002983,completion,,,,,false,,,,516828.299999997,516827.700000003,513934.221,513943.09999999404,513950.647,516833.908,8,400,,,
trial,html.Screen,4_123_0,2023-11-01T15:50:06.345Z,,0,3,,2636.7920000029844,response,ISIC_0030423.JPG,5,ISIC_0028477.JPG,ISIC_0028477.JPG,false,0,keypress(z),500,519471,519470.700000003,516817.55,516828.40000000596,516833.908,519483.924,8,400,24,,ISIC_0030423.JPG
break,html.Screen,4_123_1,2023-11-01T15:50:06.346Z,,0,,,NaN,,,,,,false,,,,519472.09999999404,519471.90000000596,,519471.299999997,,519483.924,8,400,,,
break_continue,html.Screen,4_123_2,2023-11-01T15:50:06.347Z,,0,,,NaN,,,,,,false,,,,519472.59999999404,519472.40000000596,,519472.40000000596,,519483.924,8,400,,,
sequence,flow.Sequence,4_123,2023-11-01T15:50:06.347Z,,0,,,2638.4920000059647,completion,,,,,false,,,,519472.799999997,519472.40000000596,516817.55,516828.299999997,516833.908,519483.924,8,400,,,
trial,html.Screen,4_124_0,2023-11-01T15:50:09.165Z,,0,3,,2806.8759999970207,response,ISIC_0758797.JPG,5,ISIC_4847584.JPG,ISIC_0758797.JPG,false,1,keypress(m),500,522291.09999999404,522290.799999997,519467.159,519472.90000000596,519483.924,522302.857,8,400,25,,ISIC_4847584.JPG
break,html.Screen,4_124_1,2023-11-01T15:50:09.167Z,,0,,,NaN,,,,,,false,,,,522292.90000000596,522292.700000003,,522291.299999997,,522302.857,8,400,,,
break_continue,html.Screen,4_124_2,2023-11-01T15:50:09.167Z,,0,,,NaN,,,,,,false,,,,522293.40000000596,522293.200000003,,522293.09999999404,,522302.857,8,400,,,
sequence,flow.Sequence,4_124,2023-11-01T15:50:09.168Z,,0,,,2809.276000002981,completion,,,,,false,,,,522293.59999999404,522293.200000003,519467.159,519472.90000000596,519483.924,522302.857,8,400,,,
trial,html.Screen,4_125_0,2023-11-01T15:50:11.809Z,,0,3,,2631.843000002962,response,ISIC_0066289.JPG,6,ISIC_9000234.JPG,ISIC_9000234.JPG,false,0,keypress(z),500,524935.099999994,524934.700000003,522283.957,522293.700000003,522302.857,524950.771,8,400,26,,ISIC_0066289.JPG
break,html.Screen,4_125_1,2023-11-01T15:50:11.810Z,,0,,,NaN,,,,,,false,,,,524936.099999994,524935.900000006,,524935.299999997,,524950.771,8,400,,,
break_continue,html.Screen,4_125_2,2023-11-01T15:50:11.811Z,,0,,,NaN,,,,,,false,,,,524936.5,524936.299999997,,524936.200000003,,524950.771,8,400,,,
sequence,flow.Sequence,4_125,2023-11-01T15:50:11.811Z,,0,,,2633.4429999970016,completion,,,,,false,,,,524936.799999997,524936.299999997,522283.957,522293.59999999404,522302.857,524950.771,8,400,,,
trial,html.Screen,4_126_0,2023-11-01T15:50:14.533Z,,0,3,,2707.9290000030305,response,ISIC_0028874.JPG,5,ISIC_4294705.JPG,ISIC_0028874.JPG,false,1,keypress(m),500,527659,527658.700000003,524933.896,524936.799999997,524950.771,527666.981,8,400,27,,ISIC_4294705.JPG
