sender,sender_type,sender_id,timestamp,meta,,blockNo,condition,duration,ended_on,img_left,img_reveal,img_right,loser,practice,response,response_action,selection_duration,time_commit,time_end,time_render,time_run,time_show,time_switch,total_blocks,total_trials,trialNo,url,winner
informed_consent,html.Screen,0,2023-09-13T23:09:40.347Z,"{""labjs_version"":""20.2.4"",""labjs_build"":{""flavor"":""production"",""commit"":""f5b4a49f956347addd546a832a3327688c2c0fef""},""location"":""https://run.pavlovia.org/MurrayBennett/melanoma-2afc/?participant=67010&platform=sona"",""userAgent"":""Mozilla/5.0 (Macintosh; Intel Mac OS X 10_15_7) AppleWebKit/537.36 (KHTML, like Gecko) Chrome/116.0.0.0 Safari/537.36"",""platform"":""MacIntel"",""language"":""en-US"",""locale"":""en-US"",""timeZone"":""America/Chicago"",""timezoneOffset"":300,""screen_width"":1440,""screen_height"":900,""scroll_width"":1440,""scroll_height"":680,""window_innerWidth"":1440,""window_innerHeight"":728,""devicePixelRatio"":2}",,,,23053.753,response,,,,,,consent,click button,,25169.89999999851,25166.5,2096.081,2108.39999999851,2112.747,25179.84,,,,"{""participant"":""67010"",""platform"":""sona""}",
Welcome,html.Screen,1,2023-09-13T23:10:19.628Z,,,,uniform,39268.66,response,,,,,,continue,click button,,64451.10000000149,64448.5,25163.174,25170.20000000298,25179.84,64463.446,,,,,
trial,html.Screen,2_0_0,2023-09-13T23:10:25.795Z,,0,0,,6154.053999999996,response,ISIC_0063388.JPG,,ISIC_0025593.JPG,ISIC_0063388.JPG,true,1,keypress(m),500,70618.20000000298,70617.5,64446.78,64451.60000000149,64463.446,70629.866,1,6,1,,ISIC_0025593.JPG
sequence,flow.Sequence,2_0,2023-09-13T23:10:25.795Z,,0,,,6154.053999999996,completion,,,,,true,,,,70618.70000000298,70617.5,64446.78,64451.5,64463.446,70629.866,1,6,,,
trial,html.Screen,2_1_0,2023-09-13T23:10:31.725Z,,0,0,,5918.1340000000055,response,ISIC_0028178.JPG,,ISIC_1309015.JPG,ISIC_1309015.JPG,true,0,keypress(z),500,76548.39999999851,76548,70613.2,70618.89999999851,70629.866,76563.387,1,6,2,,ISIC_0028178.JPG
sequence,flow.Sequence,2_1,2023-09-13T23:10:31.725Z,,0,,,5918.1340000000055,completion,,,,,true,,,,76548.79999999702,76548,70613.2,70618.89999999851,70629.866,76563.387,1,6,,,
trial,html.Screen,2_2_0,2023-09-13T23:10:36.159Z,,0,0,,4419.012999998507,response,ISIC_3314853.JPG,,ISIC_0031128.JPG,ISIC_3314853.JPG,true,1,keypress(m),500,80982.89999999851,80982.39999999851,76546.721,76549.10000000149,76563.387,80996.543,1,6,3,,ISIC_0031128.JPG
sequence,flow.Sequence,2_2,2023-09-13T23:10:36.160Z,,0,,,4419.012999998507,completion,,,,,true,,,,80983.29999999702,80982.39999999851,76546.721,76549,76563.387,80996.543,1,6,,,
trial,html.Screen,2_3_0,2023-09-13T23:10:40.962Z,,0,0,,4789.057000001485,response,ISIC_0031612.JPG,,ISIC_8980141.JPG,ISIC_0031612.JPG,true,1,keypress(m),500,85786.10000000149,85785.60000000149,80979.877,80983.60000000149,80996.543,85796.351,1,6,4,,ISIC_8980141.JPG
sequence,flow.Sequence,2_3,2023-09-13T23:10:40.963Z,,0,,,4789.057000001485,completion,,,,,true,,,,85786.5,85785.60000000149,80979.877,80983.5,80996.543,85796.351,1,6,,,
trial,html.Screen,2_4_0,2023-09-13T23:10:44.845Z,,0,0,,3871.749000001495,response,ISIC_1197737.JPG,,ISIC_9721604.JPG,ISIC_9721604.JPG,true,0,keypress(z),500,89668.60000000149,89668.10000000149,85779.685,85786.89999999851,85796.351,89680.152,1,6,5,,ISIC_1197737.JPG
sequence,flow.Sequence,2_4,2023-09-13T23:10:44.845Z,,0,,,3871.749000001495,completion,,,,,true,,,,89669.10000000149,89668.10000000149,85779.685,85786.79999999702,85796.351,89680.152,1,6,,,
trial,html.Screen,2_5_0,2023-09-13T23:10:50.691Z,,0,0,,5834.247999998508,response,ISIC_0025346.JPG,,ISIC_0010681.JPG,ISIC_0025346.JPG,true,1,keypress(m),500,95514.89999999851,95514.39999999851,89663.486,89669.29999999702,89680.152,95529.918,1,6,6,,ISIC_0010681.JPG
sequence,flow.Sequence,2_5,2023-09-13T23:10:50.692Z,,0,,,5834.247999998508,completion,,,,,true,,,,95515.39999999851,95514.39999999851,89663.486,89669.20000000298,89680.152,95529.918,1,6,,,
loop,flow.Loop,2,2023-09-13T23:10:50.692Z,,,,,31050.953999998506,completion,,,,,true,,,,95515.70000000298,95514.39999999851,64446.78,64451.5,64463.446,95529.918,1,6,,,
exp_instructions,html.Screen,3,2023-09-13T23:14:25.090Z,,,,,214382.68200000148,response,,,,,,continue,keypress(Space),,309916.8999999985,309912.6000000015,95513.252,95515.79999999702,95529.918,309930.467,,,,,
trial,html.Screen,4_0_0,2023-09-13T23:14:35.499Z,,0,1,,10394.733000002976,response,ISIC_1369273.JPG,8,ISIC_0032630.JPG,ISIC_1369273.JPG,false,1,keypress(m),500,320325.700000003,320325.200000003,309913.801,309917.200000003,309930.467,320330.81,8,400,1,,ISIC_0032630.JPG
break,html.Screen,4_0_1,2023-09-13T23:14:35.500Z,,0,,,NaN,,,,,,false,,,,320327,320326.700000003,,320326,,320330.81,8,400,,,
break_continue,html.Screen,4_0_2,2023-09-13T23:14:35.501Z,,0,,,NaN,,,,,,false,,,,320327.5,320327.3999999985,,320327.200000003,,320330.81,8,400,,,
sequence,flow.Sequence,4_0,2023-09-13T23:14:35.501Z,,0,,,10396.932999998506,completion,,,,,false,,,,320327.700000003,320327.3999999985,309913.801,309917.200000003,309930.467,320330.81,8,400,,,
trial,html.Screen,4_1_0,2023-09-13T23:14:40.819Z,,0,1,,5313.890000002983,response,ISIC_0030128.JPG,7,ISIC_0034090.JPG,ISIC_0034090.JPG,false,0,keypress(z),500,325645.200000003,325644.700000003,320314.144,320327.8999999985,320330.81,325647.264,8,400,2,,ISIC_0030128.JPG
break,html.Screen,4_1_1,2023-09-13T23:14:40.820Z,,0,,,NaN,,,,,,false,,,,325646.3999999985,325646.1000000015,,325645.6000000015,,325647.264,8,400,,,
break_continue,html.Screen,4_1_2,2023-09-13T23:14:40.820Z,,0,,,NaN,,,,,,false,,,,325646.700000003,325646.5,,325646.3999999985,,325647.264,8,400,,,
sequence,flow.Sequence,4_1,2023-09-13T23:14:40.820Z,,0,,,5315.690000000002,completion,,,,,false,,,,325646.8999999985,325646.5,320314.144,320327.799999997,320330.81,325647.264,8,400,,,
trial,html.Screen,4_2_0,2023-09-13T23:14:46.233Z,,0,1,,5412.035999996995,response,ISIC_6000407.JPG,8,ISIC_1964243.JPG,ISIC_1964243.JPG,false,0,keypress(z),500,331059.799999997,331059.299999997,325630.598,325647,325647.264,331064.045,8,400,3,,ISIC_6000407.JPG
break,html.Screen,4_2_1,2023-09-13T23:14:46.234Z,,0,,,NaN,,,,,,false,,,,331060.799999997,331060.5,,331060,,331064.045,8,400,,,
break_continue,html.Screen,4_2_2,2023-09-13T23:14:46.234Z,,0,,,NaN,,,,,,false,,,,331061.200000003,331061,,331060.8999999985,,331064.045,8,400,,,
sequence,flow.Sequence,4_2,2023-09-13T23:14:46.235Z,,0,,,5413.735999999975,completion,,,,,false,,,,331061.3999999985,331061,325630.598,325646.8999999985,325647.264,331064.045,8,400,,,
trial,html.Screen,4_3_0,2023-09-13T23:14:51.339Z,,0,1,,5101.555000001506,response,ISIC_5662381.JPG,8,ISIC_3994250.JPG,ISIC_5662381.JPG,false,1,keypress(m),500,336166,336165.6000000015,331047.379,331061.3999999985,331064.045,336180.507,8,400,4,,ISIC_3994250.JPG
break,html.Screen,4_3_1,2023-09-13T23:14:51.340Z,,0,,,NaN,,,,,,false,,,,336166.8999999985,336166.700000003,,336166.200000003,,336180.507,8,400,,,
break_continue,html.Screen,4_3_2,2023-09-13T23:14:51.341Z,,0,,,NaN,,,,,,false,,,,336167.299999997,336167.200000003,,336167.1000000015,,336180.507,8,400,,,
sequence,flow.Sequence,4_3,2023-09-13T23:14:51.341Z,,0,,,5103.1550000029965,completion,,,,,false,,,,336167.5,336167.200000003,331047.379,331061.3999999985,331064.045,336180.507,8,400,,,
trial,html.Screen,4_4_0,2023-09-13T23:14:58.337Z,,0,1,,6983.193000002997,response,ISIC_0029531.JPG,6,ISIC_3961647.JPG,ISIC_0029531.JPG,false,1,keypress(m),500,343164.200000003,343163.700000003,336163.841,336167.700000003,336180.507,343180.769,8,400,5,,ISIC_3961647.JPG
break,html.Screen,4_4_1,2023-09-13T23:14:58.338Z,,0,,,NaN,,,,,,false,,,,343165.299999997,343165,,343164.5,,343180.769,8,400,,,
break_continue,html.Screen,4_4_2,2023-09-13T23:14:58.339Z,,0,,,NaN,,,,,,false,,,,343165.700000003,343165.5,,343165.3999999985,,343180.769,8,400,,,
sequence,flow.Sequence,4_4,2023-09-13T23:14:58.339Z,,0,,,6984.993000000017,completion,,,,,false,,,,343165.8999999985,343165.5,336163.841,336167.6000000015,336180.507,343180.769,8,400,,,
trial,html.Screen,4_5_0,2023-09-13T23:15:02.777Z,,0,1,,4422.231000000029,response,ISIC_3652847.JPG,7,ISIC_0654846.JPG,ISIC_0654846.JPG,false,0,keypress(z),500,347603.5,347603,343164.103,343166,343180.769,347613.925,8,400,6,,ISIC_3652847.JPG
break,html.Screen,4_5_1,2023-09-13T23:15:02.778Z,,0,,,NaN,,,,,,false,,,,347604.700000003,347604.3999999985,,347604,,347613.925,8,400,,,
break_continue,html.Screen,4_5_2,2023-09-13T23:15:02.779Z,,0,,,NaN,,,,,,false,,,,347605.5,347605.299999997,,347604.799999997,,347613.925,8,400,,,
sequence,flow.Sequence,4_5,2023-09-13T23:15:02.779Z,,0,,,4424.530999997049,completion,,,,,false,,,,347605.6000000015,347605.299999997,343164.103,343165.8999999985,343180.769,347613.925,8,400,,,
trial,html.Screen,4_6_0,2023-09-13T23:15:07.329Z,,0,1,,4541.775000002992,response,ISIC_0025580.JPG,8,ISIC_6916924.JPG,ISIC_0025580.JPG,false,1,keypress(m),500,352156.299999997,352155.700000003,347597.259,347605.700000003,347613.925,352164.237,8,400,7,,ISIC_6916924.JPG
break,html.Screen,4_6_1,2023-09-13T23:15:07.330Z,,0,,,NaN,,,,,,false,,,,352157.3999999985,352157.1000000015,,352156.6000000015,,352164.237,8,400,,,
break_continue,html.Screen,4_6_2,2023-09-13T23:15:07.331Z,,0,,,NaN,,,,,,false,,,,352157.700000003,352157.6000000015,,352157.5,,352164.237,8,400,,,
sequence,flow.Sequence,4_6,2023-09-13T23:15:07.331Z,,0,,,4543.675000001502,completion,,,,,false,,,,352157.8999999985,352157.6000000015,347597.259,347605.6000000015,347613.925,352164.237,8,400,,,
trial,html.Screen,4_7_0,2023-09-13T23:15:11.717Z,,0,1,,4379.662999998487,response,ISIC_0027234.JPG,8,ISIC_3368468.JPG,ISIC_0027234.JPG,false,1,keypress(m),500,356544.299999997,356543.8999999985,352147.571,352158.1000000015,352164.237,356547.395,8,400,8,,ISIC_3368468.JPG
break,html.Screen,4_7_1,2023-09-13T23:15:11.718Z,,0,,,NaN,,,,,,false,,,,356545.299999997,356545,,356544.6000000015,,356547.395,8,400,,,
break_continue,html.Screen,4_7_2,2023-09-13T23:15:11.719Z,,0,,,NaN,,,,,,false,,,,356545.700000003,356545.5,,356545.3999999985,,356547.395,8,400,,,
sequence,flow.Sequence,4_7,2023-09-13T23:15:11.719Z,,0,,,4381.262999999977,completion,,,,,false,,,,356545.799999997,356545.5,352147.571,352158,352164.237,356547.395,8,400,,,
trial,html.Screen,4_8_0,2023-09-13T23:15:18.316Z,,0,1,,6594.805000002962,response,ISIC_5608998.JPG,8,ISIC_0027836.JPG,ISIC_0027836.JPG,false,0,keypress(z),500,363142.700000003,363142.200000003,356530.729,356546,356547.395,363147.409,8,400,9,,ISIC_5608998.JPG
break,html.Screen,4_8_1,2023-09-13T23:15:18.317Z,,0,,,NaN,,,,,,false,,,,363143.700000003,363143.5,,363143,,363147.409,8,400,,,
break_continue,html.Screen,4_8_2,2023-09-13T23:15:18.317Z,,0,,,NaN,,,,,,false,,,,363144,363144,,363143.8999999985,,363147.409,8,400,,,
sequence,flow.Sequence,4_8,2023-09-13T23:15:18.317Z,,0,,,6596.604999999981,completion,,,,,false,,,,363144.200000003,363144,356530.729,356545.8999999985,356547.395,363147.409,8,400,,,
trial,html.Screen,4_9_0,2023-09-13T23:15:23.635Z,,0,1,,5314.691000001505,response,ISIC_1453899.JPG,8,ISIC_0033692.JPG,ISIC_0033692.JPG,false,0,keypress(z),500,368462.6000000015,368462.1000000015,363130.743,363144.5,363147.409,368463.863,8,400,10,,ISIC_1453899.JPG
break,html.Screen,4_9_1,2023-09-13T23:15:23.636Z,,0,,,NaN,,,,,,false,,,,368463.6000000015,368463.3999999985,,368462.8999999985,,368463.863,8,400,,,
break_continue,html.Screen,4_9_2,2023-09-13T23:15:23.637Z,,0,,,NaN,,,,,,false,,,,368464,368463.8999999985,,368463.799999997,,368463.863,8,400,,,
sequence,flow.Sequence,4_9,2023-09-13T23:15:23.637Z,,0,,,5316.490999998525,completion,,,,,false,,,,368464.200000003,368463.8999999985,363130.743,363144.299999997,363147.409,368463.863,8,400,,,
trial,html.Screen,4_10_0,2023-09-13T23:15:30.107Z,,0,1,,6469.737000001478,response,ISIC_5324987.JPG,8,ISIC_2375394.JPG,ISIC_2375394.JPG,false,0,keypress(z),500,374933.8999999985,374933.6000000015,368447.197,368464.299999997,368463.863,374947.444,8,400,11,,ISIC_5324987.JPG
break,html.Screen,4_10_1,2023-09-13T23:15:30.107Z,,0,,,NaN,,,,,,false,,,,374934.700000003,374934.6000000015,,374934.1000000015,,374947.444,8,400,,,
break_continue,html.Screen,4_10_2,2023-09-13T23:15:30.108Z,,0,,,NaN,,,,,,false,,,,374934.8999999985,374934.8999999985,,374934.8999999985,,374947.444,8,400,,,
sequence,flow.Sequence,4_10,2023-09-13T23:15:30.108Z,,0,,,6471.036999998498,completion,,,,,false,,,,374935.1000000015,374934.8999999985,368447.197,368464.299999997,368463.863,374947.444,8,400,,,
trial,html.Screen,4_11_0,2023-09-13T23:15:34.593Z,,0,1,,4472.955999998492,response,ISIC_0070581.JPG,9,ISIC_6285076.JPG,ISIC_0070581.JPG,false,1,keypress(m),500,379420.700000003,379420.3999999985,374930.778,374935.200000003,374947.444,379430.598,8,400,12,,ISIC_6285076.JPG
break,html.Screen,4_11_1,2023-09-13T23:15:34.594Z,,0,,,NaN,,,,,,false,,,,379421.3999999985,379421.200000003,,379420.8999999985,,379430.598,8,400,,,
break_continue,html.Screen,4_11_2,2023-09-13T23:15:34.594Z,,0,,,NaN,,,,,,false,,,,379421.700000003,379421.6000000015,,379421.5,,379430.598,8,400,,,
sequence,flow.Sequence,4_11,2023-09-13T23:15:34.595Z,,0,,,4474.156000001472,completion,,,,,false,,,,379421.799999997,379421.6000000015,374930.778,374935.200000003,374947.444,379430.598,8,400,,,
trial,html.Screen,4_12_0,2023-09-13T23:15:39.585Z,,0,1,,4981.201999997022,response,ISIC_9716860.JPG,8,ISIC_9227392.JPG,ISIC_9716860.JPG,false,1,keypress(m),500,384412.200000003,384411.799999997,379413.932,379422,379430.598,384414.317,8,400,13,,ISIC_9227392.JPG
break,html.Screen,4_12_1,2023-09-13T23:15:39.586Z,,0,,,NaN,,,,,,false,,,,384413.1000000015,384413,,384412.3999999985,,384414.317,8,400,,,
break_continue,html.Screen,4_12_2,2023-09-13T23:15:39.586Z,,0,,,NaN,,,,,,false,,,,384413.5,384413.3999999985,,384413.200000003,,384414.317,8,400,,,
sequence,flow.Sequence,4_12,2023-09-13T23:15:39.586Z,,0,,,4982.801999998512,completion,,,,,false,,,,384413.700000003,384413.3999999985,379413.932,379422,379430.598,384414.317,8,400,,,
trial,html.Screen,4_13_0,2023-09-13T23:15:44.597Z,,0,1,,5009.582999998529,response,ISIC_0028929.JPG,8,ISIC_8130596.JPG,ISIC_0028929.JPG,false,1,keypress(m),500,389424.299999997,389423.8999999985,384397.651,384413.799999997,384414.317,389447.449,8,400,14,,ISIC_8130596.JPG
break,html.Screen,4_13_1,2023-09-13T23:15:44.598Z,,0,,,NaN,,,,,,false,,,,389425.299999997,389425,,389424.6000000015,,389447.449,8,400,,,
break_continue,html.Screen,4_13_2,2023-09-13T23:15:44.598Z,,0,,,NaN,,,,,,false,,,,389425.6000000015,389425.5,,389425.299999997,,389447.449,8,400,,,
sequence,flow.Sequence,4_13,2023-09-13T23:15:44.598Z,,0,,,5011.183000000019,completion,,,,,false,,,,389425.799999997,389425.5,384397.651,384413.799999997,384414.317,389447.449,8,400,,,
trial,html.Screen,4_14_0,2023-09-13T23:15:53.833Z,,0,1,,9213.050999999978,response,ISIC_7296201.JPG,7,ISIC_4960784.JPG,ISIC_4960784.JPG,false,0,keypress(z),500,398660.8999999985,398660.5,389430.783,389426,389447.449,398664.053,8,400,15,,ISIC_7296201.JPG
break,html.Screen,4_14_1,2023-09-13T23:15:53.834Z,,0,,,NaN,,,,,,false,,,,398661.8999999985,398661.700000003,,398661.200000003,,398664.053,8,400,,,
break_continue,html.Screen,4_14_2,2023-09-13T23:15:53.835Z,,0,,,NaN,,,,,,false,,,,398662.299999997,398662.200000003,,398662.1000000015,,398664.053,8,400,,,
sequence,flow.Sequence,4_14,2023-09-13T23:15:53.835Z,,0,,,9214.751000002958,completion,,,,,false,,,,398662.3999999985,398662.200000003,389430.783,389425.8999999985,389447.449,398664.053,8,400,,,
trial,html.Screen,4_15_0,2023-09-13T23:15:58.046Z,,0,1,,4208.846999998495,response,ISIC_9301809.JPG,6,ISIC_7740744.JPG,ISIC_7740744.JPG,false,0,keypress(z),500,402873.200000003,402872.8999999985,398647.387,398662.6000000015,398664.053,402880.551,8,400,16,,ISIC_9301809.JPG
break,html.Screen,4_15_1,2023-09-13T23:15:58.047Z,,0,,,NaN,,,,,,false,,,,402874.200000003,402874,,402873.6000000015,,402880.551,8,400,,,
break_continue,html.Screen,4_15_2,2023-09-13T23:15:58.047Z,,0,,,NaN,,,,,,false,,,,402874.6000000015,402874.3999999985,,402874.3999999985,,402880.551,8,400,,,
sequence,flow.Sequence,4_15,2023-09-13T23:15:58.047Z,,0,,,4210.346999998495,completion,,,,,false,,,,402874.799999997,402874.3999999985,398647.387,398662.6000000015,398664.053,402880.551,8,400,,,
trial,html.Screen,4_16_0,2023-09-13T23:16:07.635Z,,0,1,,9582.149000003003,response,ISIC_0069946.JPG,8,ISIC_0054233.JPG,ISIC_0054233.JPG,false,0,keypress(z),500,412463.1000000015,412462.700000003,402863.885,402874.799999997,402880.551,412464.073,8,400,17,,ISIC_0069946.JPG
break,html.Screen,4_16_1,2023-09-13T23:16:07.636Z,,0,,,NaN,,,,,,false,,,,412464.1000000015,412464,,412463.3999999985,,412464.073,8,400,,,
break_continue,html.Screen,4_16_2,2023-09-13T23:16:07.637Z,,0,,,NaN,,,,,,false,,,,412464.5,412464.3999999985,,412464.200000003,,412464.073,8,400,,,
sequence,flow.Sequence,4_16,2023-09-13T23:16:07.637Z,,0,,,9583.848999998532,completion,,,,,false,,,,412464.700000003,412464.3999999985,402863.885,402874.799999997,402880.551,412464.073,8,400,,,
trial,html.Screen,4_17_0,2023-09-13T23:16:11.410Z,,0,1,,3773.6270000030054,response,ISIC_9837030.JPG,7,ISIC_0000754.JPG,ISIC_9837030.JPG,false,1,keypress(m),500,416238.200000003,416237.700000003,412447.407,412464.799999997,412464.073,416247.663,8,400,18,,ISIC_0000754.JPG
break,html.Screen,4_17_1,2023-09-13T23:16:11.411Z,,0,,,NaN,,,,,,false,,,,416239.1000000015,416239,,416238.3999999985,,416247.663,8,400,,,
break_continue,html.Screen,4_17_2,2023-09-13T23:16:11.412Z,,0,,,NaN,,,,,,false,,,,416239.5,416239.3999999985,,416239.200000003,,416247.663,8,400,,,
sequence,flow.Sequence,4_17,2023-09-13T23:16:11.412Z,,0,,,3775.326999998535,completion,,,,,false,,,,416239.700000003,416239.3999999985,412447.407,412464.799999997,412464.073,416247.663,8,400,,,
trial,html.Screen,4_18_0,2023-09-13T23:16:22.907Z,,0,1,,11516.694000000018,timeout,ISIC_0005377.JPG,8,ISIC_8127394.JPG,,false,,,500,427735,427734.5,416230.997,416239.799999997,416247.663,427764.357,8,400,19,,
break,html.Screen,4_18_1,2023-09-13T23:16:22.908Z,,0,,,NaN,,,,,,false,,,,427736.1000000015,427735.799999997,,427735.299999997,,427764.357,8,400,,,
break_continue,html.Screen,4_18_2,2023-09-13T23:16:22.909Z,,0,,,NaN,,,,,,false,,,,427736.3999999985,427736.200000003,,427736.1000000015,,427764.357,8,400,,,
sequence,flow.Sequence,4_18,2023-09-13T23:16:22.909Z,,0,,,11488.53700000298,completion,,,,,false,,,,427736.5,427736.200000003,416230.997,416239.799999997,416247.663,427764.357,8,400,,,
trial,html.Screen,4_19_0,2023-09-13T23:16:27.314Z,,0,1,,4377.243000001472,response,ISIC_6469202.JPG,7,ISIC_4938994.JPG,ISIC_4938994.JPG,false,0,keypress(z),500,432142,432141.6000000015,427747.691,427736.700000003,427764.357,432147.515,8,400,20,,ISIC_6469202.JPG
break,html.Screen,4_19_1,2023-09-13T23:16:27.315Z,,0,,,NaN,,,,,,false,,,,432143,432142.799999997,,432142.299999997,,432147.515,8,400,,,
break_continue,html.Screen,4_19_2,2023-09-13T23:16:27.315Z,,0,,,NaN,,,,,,false,,,,432143.3999999985,432143.299999997,,432143.1000000015,,432147.515,8,400,,,
sequence,flow.Sequence,4_19,2023-09-13T23:16:27.316Z,,0,,,4378.942999997002,completion,,,,,false,,,,432143.5,432143.299999997,427747.691,427736.6000000015,427764.357,432147.515,8,400,,,
trial,html.Screen,4_20_0,2023-09-13T23:16:30.649Z,,0,1,,3328.585000001476,response,ISIC_7967397.JPG,8,ISIC_0008393.JPG,ISIC_7967397.JPG,false,1,keypress(m),500,435476.6000000015,435476.1000000015,432130.849,432143.6000000015,432147.515,435480.715,8,400,21,,ISIC_0008393.JPG
break,html.Screen,4_20_1,2023-09-13T23:16:30.650Z,,0,,,NaN,,,,,,false,,,,435477.5,435477.299999997,,435476.799999997,,435480.715,8,400,,,
break_continue,html.Screen,4_20_2,2023-09-13T23:16:30.650Z,,0,,,NaN,,,,,,false,,,,435477.8999999985,435477.799999997,,435477.700000003,,435480.715,8,400,,,
sequence,flow.Sequence,4_20,2023-09-13T23:16:30.650Z,,0,,,3330.284999997006,completion,,,,,false,,,,435478.1000000015,435477.799999997,432130.849,432143.6000000015,432147.515,435480.715,8,400,,,
trial,html.Screen,4_21_0,2023-09-13T23:16:34.831Z,,0,1,,4178.284999999974,response,ISIC_0066506.JPG,7,ISIC_0062223.JPG,ISIC_0066506.JPG,false,1,keypress(m),500,439659.3999999985,439659,435464.049,435478.200000003,435480.715,439664.306,8,400,22,,ISIC_0062223.JPG
break,html.Screen,4_21_1,2023-09-13T23:16:34.832Z,,0,,,NaN,,,,,,false,,,,439660.3999999985,439660.200000003,,439659.700000003,,439664.306,8,400,,,
break_continue,html.Screen,4_21_2,2023-09-13T23:16:34.833Z,,0,,,NaN,,,,,,false,,,,439660.799999997,439660.700000003,,439660.5,,439664.306,8,400,,,
sequence,flow.Sequence,4_21,2023-09-13T23:16:34.833Z,,0,,,4179.985000002955,completion,,,,,false,,,,439661,439660.700000003,435464.049,435478.200000003,435480.715,439664.306,8,400,,,
trial,html.Screen,4_22_0,2023-09-13T23:16:38.584Z,,0,1,,3747.294000001508,response,ISIC_4838916.JPG,8,ISIC_0058016.JPG,ISIC_0058016.JPG,false,0,keypress(z),500,443412.1000000015,443411.6000000015,439647.64,439661,439664.306,443414.156,8,400,23,,ISIC_4838916.JPG
break,html.Screen,4_22_1,2023-09-13T23:16:38.585Z,,0,,,NaN,,,,,,false,,,,443413.1000000015,443412.799999997,,443412.3999999985,,443414.156,8,400,,,
break_continue,html.Screen,4_22_2,2023-09-13T23:16:38.585Z,,0,,,NaN,,,,,,false,,,,443413.3999999985,443413.299999997,,443413.200000003,,443414.156,8,400,,,
sequence,flow.Sequence,4_22,2023-09-13T23:16:38.587Z,,0,,,3748.9939999970375,completion,,,,,false,,,,443414.8999999985,443413.299999997,439647.64,439661,439664.306,443414.156,8,400,,,
trial,html.Screen,4_23_0,2023-09-13T23:16:42.398Z,,0,1,,3811.1439999970025,response,ISIC_7205745.JPG,8,ISIC_8651765.JPG,ISIC_7205745.JPG,false,1,keypress(m),500,447225.700000003,447225.299999997,443397.49,443415,443414.156,447231.149,8,400,24,,ISIC_8651765.JPG
break,html.Screen,4_23_1,2023-09-13T23:16:42.399Z,,0,,,NaN,,,,,,false,,,,447226.799999997,447226.5,,447226,,447231.149,8,400,,,
break_continue,html.Screen,4_23_2,2023-09-13T23:16:42.399Z,,0,,,NaN,,,,,,false,,,,447227.1000000015,447227,,447226.8999999985,,447231.149,8,400,,,
sequence,flow.Sequence,4_23,2023-09-13T23:16:42.399Z,,0,,,3812.8439999999828,completion,,,,,false,,,,447227.299999997,447227,443397.49,443414.8999999985,443414.156,447231.149,8,400,,,
trial,html.Screen,4_24_0,2023-09-13T23:16:45.921Z,,0,1,,3517.5510000030044,response,ISIC_8525786.JPG,7,ISIC_5207050.JPG,ISIC_5207050.JPG,false,0,keypress(z),500,450749.1000000015,450748.700000003,447214.483,447227.5,447231.149,450764.341,8,400,25,,ISIC_8525786.JPG
break,html.Screen,4_24_1,2023-09-13T23:16:45.922Z,,0,,,NaN,,,,,,false,,,,450750.1000000015,450749.799999997,,450749.299999997,,450764.341,8,400,,,
break_continue,html.Screen,4_24_2,2023-09-13T23:16:45.922Z,,0,,,NaN,,,,,,false,,,,450750.3999999985,450750.299999997,,450750.200000003,,450764.341,8,400,,,
sequence,flow.Sequence,4_24,2023-09-13T23:16:45.922Z,,0,,,3519.150999997044,completion,,,,,false,,,,450750.6000000015,450750.299999997,447214.483,447227.3999999985,447231.149,450764.341,8,400,,,
trial,html.Screen,4_25_0,2023-09-13T23:16:50.615Z,,0,1,,4678.558999998495,response,ISIC_0033713.JPG,9,ISIC_0063046.JPG,ISIC_0033713.JPG,false,1,keypress(m),500,455443.299999997,455442.8999999985,450747.675,450750.799999997,450764.341,455447.487,8,400,26,,ISIC_0063046.JPG
break,html.Screen,4_25_1,2023-09-13T23:16:50.616Z,,0,,,NaN,,,,,,false,,,,455444.299999997,455444,,455443.6000000015,,455447.487,8,400,,,
break_continue,html.Screen,4_25_2,2023-09-13T23:16:50.616Z,,0,,,NaN,,,,,,false,,,,455444.700000003,455444.5,,455444.5,,455447.487,8,400,,,
sequence,flow.Sequence,4_25,2023-09-13T23:16:50.617Z,,0,,,4680.158999999985,completion,,,,,false,,,,455444.8999999985,455444.5,450747.675,450750.700000003,450764.341,455447.487,8,400,,,
trial,html.Screen,4_26_0,2023-09-13T23:16:55.184Z,,0,1,,4563.812999996997,response,ISIC_4770073.JPG,8,ISIC_0033616.JPG,ISIC_4770073.JPG,false,1,keypress(m),500,460011.799999997,460011.299999997,455430.821,455444.8999999985,455447.487,460014.406,8,400,27,,ISIC_0033616.JPG
break,html.Screen,4_26_1,2023-09-13T23:16:55.185Z,,0,,,NaN,,,,,,false,,,,460012.700000003,460012.5,,460012,,460014.406,8,400,,,
break_continue,html.Screen,4_26_2,2023-09-13T23:16:55.185Z,,0,,,NaN,,,,,,false,,,,460013.1000000015,460013,,460012.8999999985,,460014.406,8,400,,,
sequence,flow.Sequence,4_26,2023-09-13T23:16:55.185Z,,0,,,4565.512999999977,completion,,,,,false,,,,460013.299999997,460013,455430.821,455444.8999999985,455447.487,460014.406,8,400,,,
trial,html.Screen,4_27_0,2023-09-13T23:16:58.488Z,,0,1,,3301.794000002963,response,ISIC_1977265.JPG,7,ISIC_0058513.JPG,ISIC_0058513.JPG,false,0,keypress(z),500,463316.700000003,463316.200000003,459997.74,460013.3999999985,460014.406,463330.94,8,400,28,,ISIC_1977265.JPG
break,html.Screen,4_27_1,2023-09-13T23:16:58.489Z,,0,,,NaN,,,,,,false,,,,463317.6000000015,463317.3999999985,,463316.8999999985,,463330.94,8,400,,,
break_continue,html.Screen,4_27_2,2023-09-13T23:16:58.490Z,,0,,,NaN,,,,,,false,,,,463318,463317.8999999985,,463317.799999997,,463330.94,8,400,,,
sequence,flow.Sequence,4_27,2023-09-13T23:16:58.490Z,,0,,,3303.4939999984927,completion,,,,,false,,,,463318.1000000015,463317.8999999985,459997.74,460013.3999999985,460014.406,463330.94,8,400,,,
trial,html.Screen,4_28_0,2023-09-13T23:17:01.646Z,,0,1,,3143.4599999985076,response,ISIC_8516223.JPG,8,ISIC_0011404.JPG,ISIC_0011404.JPG,false,0,keypress(z),500,466474.700000003,466474.3999999985,463314.274,463318.200000003,463330.94,466480.814,8,400,29,,ISIC_8516223.JPG
break,html.Screen,4_28_1,2023-09-13T23:17:01.647Z,,0,,,NaN,,,,,,false,,,,466475.700000003,466475.5,,466475,,466480.814,8,400,,,
break_continue,html.Screen,4_28_2,2023-09-13T23:17:01.648Z,,0,,,NaN,,,,,,false,,,,466476.1000000015,466475.8999999985,,466475.8999999985,,466480.814,8,400,,,
sequence,flow.Sequence,4_28,2023-09-13T23:17:01.648Z,,0,,,3144.9599999985076,completion,,,,,false,,,,466476.200000003,466475.8999999985,463314.274,463318.200000003,463330.94,466480.814,8,400,,,
trial,html.Screen,4_29_0,2023-09-13T23:17:05.542Z,,0,1,,3888.786000001477,response,ISIC_7491389.JPG,9,ISIC_5149162.JPG,ISIC_5149162.JPG,false,0,keypress(z),500,470369.8999999985,470369.6000000015,466464.148,466476.3999999985,466480.814,470381.105,8,400,30,,ISIC_7491389.JPG
break,html.Screen,4_29_1,2023-09-13T23:17:05.542Z,,0,,,NaN,,,,,,false,,,,470370.799999997,470370.6000000015,,470370.200000003,,470381.105,8,400,,,
break_continue,html.Screen,4_29_2,2023-09-13T23:17:05.543Z,,0,,,NaN,,,,,,false,,,,470371.200000003,470371.1000000015,,470371,,470381.105,8,400,,,
sequence,flow.Sequence,4_29,2023-09-13T23:17:05.543Z,,0,,,3890.286000001477,completion,,,,,false,,,,470371.3999999985,470371.1000000015,466464.148,466476.299999997,466480.814,470381.105,8,400,,,
trial,html.Screen,4_30_0,2023-09-13T23:17:09.821Z,,0,1,,4267.595000002999,response,ISIC_8406262.JPG,6,ISIC_0001743.JPG,ISIC_8406262.JPG,false,1,keypress(m),500,474649,474648.700000003,470364.439,470371.6000000015,470381.105,474664.267,8,400,31,,ISIC_0001743.JPG
break,html.Screen,4_30_1,2023-09-13T23:17:09.822Z,,0,,,NaN,,,,,,false,,,,474650,474649.700000003,,474649.299999997,,474664.267,8,400,,,
break_continue,html.Screen,4_30_2,2023-09-13T23:17:09.822Z,,0,,,NaN,,,,,,false,,,,474650.299999997,474650.299999997,,474650.1000000015,,474664.267,8,400,,,
sequence,flow.Sequence,4_30,2023-09-13T23:17:09.822Z,,0,,,4269.194999997038,completion,,,,,false,,,,474650.6000000015,474650.299999997,470364.439,470371.5,470381.105,474664.267,8,400,,,
trial,html.Screen,4_31_0,2023-09-13T23:17:13.268Z,,0,1,,3431.7330000000075,response,ISIC_0056440.JPG,8,ISIC_0013342.JPG,ISIC_0056440.JPG,false,1,keypress(m),500,478096.3999999985,478096,474647.601,474650.6000000015,474664.267,478097.889,8,400,32,,ISIC_0013342.JPG
break,html.Screen,4_31_1,2023-09-13T23:17:13.269Z,,0,,,NaN,,,,,,false,,,,478097.299999997,478097.1000000015,,478096.6000000015,,478097.889,8,400,,,
break_continue,html.Screen,4_31_2,2023-09-13T23:17:13.269Z,,0,,,NaN,,,,,,false,,,,478097.700000003,478097.6000000015,,478097.3999999985,,478097.889,8,400,,,
sequence,flow.Sequence,4_31,2023-09-13T23:17:13.269Z,,0,,,3433.3330000014976,completion,,,,,false,,,,478097.799999997,478097.6000000015,474647.601,474650.6000000015,474664.267,478097.889,8,400,,,
trial,html.Screen,4_32_0,2023-09-13T23:17:16.715Z,,0,1,,3445.1109999999753,response,ISIC_9052604.JPG,8,ISIC_4451735.JPG,ISIC_9052604.JPG,false,1,keypress(m),500,481543.299999997,481543,478081.223,478098,478097.889,481547.751,8,400,33,,ISIC_4451735.JPG
break,html.Screen,4_32_1,2023-09-13T23:17:16.716Z,,0,,,NaN,,,,,,false,,,,481544.299999997,481544.200000003,,481543.6000000015,,481547.751,8,400,,,
break_continue,html.Screen,4_32_2,2023-09-13T23:17:16.716Z,,0,,,NaN,,,,,,false,,,,481544.700000003,481544.6000000015,,481544.3999999985,,481547.751,8,400,,,
sequence,flow.Sequence,4_32,2023-09-13T23:17:16.716Z,,0,,,3446.7110000014654,completion,,,,,false,,,,481544.8999999985,481544.6000000015,478081.223,478097.8999999985,478097.889,481547.751,8,400,,,
trial,html.Screen,4_33_0,2023-09-13T23:17:21.552Z,,0,1,,4831.949000002991,response,ISIC_0027749.JPG,6,ISIC_7114660.JPG,ISIC_0027749.JPG,false,1,keypress(m),500,486380,486379.700000003,481531.085,481545,481547.751,486380.891,8,400,34,,ISIC_7114660.JPG
break,html.Screen,4_33_1,2023-09-13T23:17:21.552Z,,0,,,NaN,,,,,,false,,,,486381,486380.799999997,,486380.3999999985,,486380.891,8,400,,,
break_continue,html.Screen,4_33_2,2023-09-13T23:17:21.553Z,,0,,,NaN,,,,,,false,,,,486381.5,486381.299999997,,486381.200000003,,486380.891,8,400,,,
sequence,flow.Sequence,4_33,2023-09-13T23:17:21.553Z,,0,,,4833.5489999970305,completion,,,,,false,,,,486381.6000000015,486381.299999997,481531.085,481545,481547.751,486380.891,8,400,,,
trial,html.Screen,4_34_0,2023-09-13T23:17:25.256Z,,0,1,,3703.309000002977,response,ISIC_0065206.JPG,8,ISIC_0068460.JPG,ISIC_0068460.JPG,false,0,keypress(z),500,490084.6000000015,490084.200000003,486364.225,486381.700000003,486380.891,490097.83,8,400,35,,ISIC_0065206.JPG
break,html.Screen,4_34_1,2023-09-13T23:17:25.257Z,,0,,,NaN,,,,,,false,,,,490085.6000000015,490085.299999997,,490084.8999999985,,490097.83,8,400,,,
break_continue,html.Screen,4_34_2,2023-09-13T23:17:25.257Z,,0,,,NaN,,,,,,false,,,,490086,490085.799999997,,490085.700000003,,490097.83,8,400,,,
sequence,flow.Sequence,4_34,2023-09-13T23:17:25.258Z,,0,,,3704.9089999970165,completion,,,,,false,,,,490086.200000003,490085.799999997,486364.225,486381.700000003,486380.891,490097.83,8,400,,,
trial,html.Screen,4_35_0,2023-09-13T23:17:30.716Z,,0,1,,5446.169999999984,response,ISIC_3397174.JPG,6,ISIC_0059052.JPG,ISIC_3397174.JPG,false,1,keypress(m),500,495544.3999999985,495544,490081.164,490086.299999997,490097.83,495547.612,8,400,36,,ISIC_0059052.JPG
break,html.Screen,4_35_1,2023-09-13T23:17:30.717Z,,0,,,NaN,,,,,,false,,,,495545.3999999985,495545.200000003,,495544.700000003,,495547.612,8,400,,,
break_continue,html.Screen,4_35_2,2023-09-13T23:17:30.717Z,,0,,,NaN,,,,,,false,,,,495545.799999997,495545.700000003,,495545.6000000015,,495547.612,8,400,,,
sequence,flow.Sequence,4_35,2023-09-13T23:17:30.717Z,,0,,,5447.870000002964,completion,,,,,false,,,,495546,495545.700000003,490081.164,490086.200000003,490097.83,495547.612,8,400,,,
trial,html.Screen,4_36_0,2023-09-13T23:17:35.185Z,,0,1,,4465.887999999977,response,ISIC_0031325.JPG,8,ISIC_0000452.JPG,ISIC_0000452.JPG,false,0,keypress(z),500,500013.8999999985,500013.5,495530.946,495546.1000000015,495547.612,500031.176,8,400,37,,ISIC_0031325.JPG
break,html.Screen,4_36_1,2023-09-13T23:17:35.186Z,,0,,,NaN,,,,,,false,,,,500014.8999999985,500014.799999997,,500014.200000003,,500031.176,8,400,,,
break_continue,html.Screen,4_36_2,2023-09-13T23:17:35.187Z,,0,,,NaN,,,,,,false,,,,500015.299999997,500015.200000003,,500015,,500031.176,8,400,,,
sequence,flow.Sequence,4_36,2023-09-13T23:17:35.187Z,,0,,,4467.588000002957,completion,,,,,false,,,,500015.5,500015.200000003,495530.946,495546.1000000015,495547.612,500031.176,8,400,,,
trial,html.Screen,4_37_0,2023-09-13T23:17:38.360Z,,0,1,,3157.123999997042,response,ISIC_2333274.JPG,8,ISIC_0072173.JPG,ISIC_0072173.JPG,false,0,keypress(z),500,503188.5,503188.299999997,500014.51,500015.5,500031.176,503197.716,8,400,38,,ISIC_2333274.JPG
break,html.Screen,4_37_1,2023-09-13T23:17:38.360Z,,0,,,NaN,,,,,,false,,,,503188.8999999985,503188.8999999985,,503188.6000000015,,503197.716,8,400,,,
break_continue,html.Screen,4_37_2,2023-09-13T23:17:38.360Z,,0,,,NaN,,,,,,false,,,,503189.1000000015,503189,,503189,,503197.716,8,400,,,
sequence,flow.Sequence,4_37,2023-09-13T23:17:38.360Z,,0,,,3157.8240000000224,completion,,,,,false,,,,503189.1000000015,503189,500014.51,500015.5,500031.176,503197.716,8,400,,,
trial,html.Screen,4_38_0,2023-09-13T23:17:41.501Z,,0,1,,3131.9840000029653,response,ISIC_0027956.JPG,7,ISIC_0067172.JPG,ISIC_0027956.JPG,false,1,keypress(m),500,506330.200000003,506329.700000003,503181.05,503189.200000003,503197.716,506347.59,8,400,39,,ISIC_0067172.JPG
break,html.Screen,4_38_1,2023-09-13T23:17:41.502Z,,0,,,NaN,,,,,,false,,,,506331.1000000015,506330.8999999985,,506330.3999999985,,506347.59,8,400,,,
break_continue,html.Screen,4_38_2,2023-09-13T23:17:41.503Z,,0,,,NaN,,,,,,false,,,,506331.6000000015,506331.3999999985,,506331.299999997,,506347.59,8,400,,,
sequence,flow.Sequence,4_38,2023-09-13T23:17:41.503Z,,0,,,3133.683999998495,completion,,,,,false,,,,506331.700000003,506331.3999999985,503181.05,503189.1000000015,503197.716,506347.59,8,400,,,
trial,html.Screen,4_39_0,2023-09-13T23:17:44.596Z,,0,1,,3077.0100000014645,response,ISIC_7892362.JPG,8,ISIC_0056717.JPG,ISIC_0056717.JPG,false,0,keypress(z),500,509424.8999999985,509424.6000000015,506330.924,506331.8999999985,506347.59,509430.8,8,400,40,,ISIC_7892362.JPG
break,html.Screen,4_39_1,2023-09-13T23:17:44.597Z,,0,,,NaN,,,,,,false,,,,509426,509425.6000000015,,509425.1000000015,,509430.8,8,400,,,
break_continue,html.Screen,4_39_2,2023-09-13T23:17:44.598Z,,0,,,NaN,,,,,,false,,,,509426.5,509426.299999997,,509426.200000003,,509430.8,8,400,,,
sequence,flow.Sequence,4_39,2023-09-13T23:17:44.599Z,,0,,,3078.709999996994,completion,,,,,false,,,,509428.1000000015,509426.299999997,506330.924,506331.799999997,506347.59,509430.8,8,400,,,
trial,html.Screen,4_40_0,2023-09-13T23:17:47.405Z,,0,1,,2802.3000000015018,response,ISIC_5591622.JPG,6,ISIC_3236964.JPG,ISIC_3236964.JPG,false,0,keypress(z),500,512233.3999999985,512233.1000000015,509414.134,509428.299999997,509430.8,512247.879,8,400,41,,ISIC_5591622.JPG
break,html.Screen,4_40_1,2023-09-13T23:17:47.406Z,,0,,,NaN,,,,,,false,,,,512234.299999997,512234.1000000015,,512233.700000003,,512247.879,8,400,,,
break_continue,html.Screen,4_40_2,2023-09-13T23:17:47.406Z,,0,,,NaN,,,,,,false,,,,512234.799999997,512234.700000003,,512234.5,,512247.879,8,400,,,
sequence,flow.Sequence,4_40,2023-09-13T23:17:47.406Z,,0,,,2803.900000002992,completion,,,,,false,,,,512234.8999999985,512234.700000003,509414.134,509428.200000003,509430.8,512247.879,8,400,,,
trial,html.Screen,4_41_0,2023-09-13T23:17:50.113Z,,0,1,,2693.821000002965,response,ISIC_0069620.JPG,7,ISIC_0033117.JPG,ISIC_0069620.JPG,false,1,keypress(m),500,514942.1000000015,514941.700000003,512231.213,512235,512247.879,514947.771,8,400,42,,ISIC_0033117.JPG
break,html.Screen,4_41_1,2023-09-13T23:17:50.114Z,,0,,,NaN,,,,,,false,,,,514943,514942.799999997,,514942.3999999985,,514947.771,8,400,,,
break_continue,html.Screen,4_41_2,2023-09-13T23:17:50.115Z,,0,,,NaN,,,,,,false,,,,514943.3999999985,514943.299999997,,514943.200000003,,514947.771,8,400,,,
sequence,flow.Sequence,4_41,2023-09-13T23:17:50.115Z,,0,,,2695.4209999970044,completion,,,,,false,,,,514943.5,514943.299999997,512231.213,512235,512247.879,514947.771,8,400,,,
trial,html.Screen,4_42_0,2023-09-13T23:17:53.089Z,,0,1,,2969.9290000029723,response,ISIC_5156491.JPG,8,ISIC_8555379.JPG,ISIC_5156491.JPG,false,1,keypress(m),500,517918,517917.700000003,514931.105,514943.700000003,514947.771,517930.985,8,400,43,,ISIC_8555379.JPG
break,html.Screen,4_42_1,2023-09-13T23:17:53.090Z,,0,,,NaN,,,,,,false,,,,517919,517918.799999997,,517918.299999997,,517930.985,8,400,,,
break_continue,html.Screen,4_42_2,2023-09-13T23:17:53.090Z,,0,,,NaN,,,,,,false,,,,517919.3999999985,517919.299999997,,517919.1000000015,,517930.985,8,400,,,
sequence,flow.Sequence,4_42,2023-09-13T23:17:53.091Z,,0,,,2971.528999997012,completion,,,,,false,,,,517919.5,517919.299999997,514931.105,514943.700000003,514947.771,517930.985,8,400,,,
trial,html.Screen,4_43_0,2023-09-13T23:17:56.245Z,,0,1,,3142.8149999970337,response,ISIC_4938638.JPG,6,ISIC_0060297.JPG,ISIC_0060297.JPG,false,0,keypress(z),500,521074.200000003,521073.799999997,517914.319,517919.700000003,517930.985,521081.333,8,400,44,,ISIC_4938638.JPG
break,html.Screen,4_43_1,2023-09-13T23:17:56.246Z,,0,,,NaN,,,,,,false,,,,521075.1000000015,521074.8999999985,,521074.5,,521081.333,8,400,,,
break_continue,html.Screen,4_43_2,2023-09-13T23:17:56.247Z,,0,,,NaN,,,,,,false,,,,521075.5,521075.3999999985,,521075.299999997,,521081.333,8,400,,,
sequence,flow.Sequence,4_43,2023-09-13T23:17:56.247Z,,0,,,3144.414999998524,completion,,,,,false,,,,521075.700000003,521075.3999999985,517914.319,517919.6000000015,517930.985,521081.333,8,400,,,
trial,html.Screen,4_44_0,2023-09-13T23:18:00.812Z,,0,1,,4559.066999998526,response,ISIC_0009939.JPG,7,ISIC_0008447.JPG,ISIC_0008447.JPG,false,0,keypress(z),500,525640.8999999985,525640.3999999985,521064.667,521075.799999997,521081.333,525647.817,8,400,45,,ISIC_0009939.JPG
break,html.Screen,4_44_1,2023-09-13T23:18:00.813Z,,0,,,NaN,,,,,,false,,,,525641.8999999985,525641.700000003,,525641.1000000015,,525647.817,8,400,,,
break_continue,html.Screen,4_44_2,2023-09-13T23:18:00.813Z,,0,,,NaN,,,,,,false,,,,525642.200000003,525642.1000000015,,525641.8999999985,,525647.817,8,400,,,
sequence,flow.Sequence,4_44,2023-09-13T23:18:00.813Z,,0,,,4560.767000001506,completion,,,,,false,,,,525642.299999997,525642.1000000015,521064.667,521075.799999997,521081.333,525647.817,8,400,,,
trial,html.Screen,4_45_0,2023-09-13T23:18:05.255Z,,0,1,,4435.783000001451,response,ISIC_0010350.JPG,9,ISIC_0053540.JPG,ISIC_0053540.JPG,false,0,keypress(z),500,530084.1000000015,530083.6000000015,525631.151,525642.6000000015,525647.817,530097.639,8,400,46,,ISIC_0010350.JPG
break,html.Screen,4_45_1,2023-09-13T23:18:05.256Z,,0,,,NaN,,,,,,false,,,,530085.1000000015,530084.8999999985,,530084.299999997,,530097.639,8,400,,,
break_continue,html.Screen,4_45_2,2023-09-13T23:18:05.256Z,,0,,,NaN,,,,,,false,,,,530085.5,530085.3999999985,,530085.200000003,,530097.639,8,400,,,
sequence,flow.Sequence,4_45,2023-09-13T23:18:05.257Z,,0,,,4437.582999998471,completion,,,,,false,,,,530085.700000003,530085.3999999985,525631.151,525642.5,525647.817,530097.639,8,400,,,
trial,html.Screen,4_46_0,2023-09-13T23:18:08.923Z,,0,1,,3654.2609999985434,response,ISIC_0000279.JPG,9,ISIC_0010869.JPG,ISIC_0010869.JPG,false,0,keypress(z),500,533752.3999999985,533751.8999999985,530080.973,530085.799999997,530097.639,533764.563,8,400,47,,ISIC_0000279.JPG
break,html.Screen,4_46_1,2023-09-13T23:18:08.924Z,,0,,,NaN,,,,,,false,,,,533753.5,533753.200000003,,533752.700000003,,533764.563,8,400,,,
break_continue,html.Screen,4_46_2,2023-09-13T23:18:08.925Z,,0,,,NaN,,,,,,false,,,,533753.799999997,533753.700000003,,533753.6000000015,,533764.563,8,400,,,
sequence,flow.Sequence,4_46,2023-09-13T23:18:08.925Z,,0,,,3656.0610000030138,completion,,,,,false,,,,533754,533753.700000003,530080.973,530085.700000003,530097.639,533764.563,8,400,,,
trial,html.Screen,4_47_0,2023-09-13T23:18:12.338Z,,0,1,,3401.9370000000345,response,ISIC_0030666.JPG,6,ISIC_7212271.JPG,ISIC_7212271.JPG,false,0,keypress(z),500,537167.1000000015,537166.5,533747.897,533754.200000003,533764.563,537181.093,8,400,48,,ISIC_0030666.JPG
break,html.Screen,4_47_1,2023-09-13T23:18:12.339Z,,0,,,NaN,,,,,,false,,,,537168.1000000015,537167.799999997,,537167.299999997,,537181.093,8,400,,,
break_continue,html.Screen,4_47_2,2023-09-13T23:18:12.339Z,,0,,,NaN,,,,,,false,,,,537168.5,537168.3999999985,,537168.200000003,,537181.093,8,400,,,
sequence,flow.Sequence,4_47,2023-09-13T23:18:12.339Z,,0,,,3403.8369999985443,completion,,,,,false,,,,537168.700000003,537168.3999999985,533747.897,533754.1000000015,533764.563,537181.093,8,400,,,
trial,html.Screen,4_48_0,2023-09-13T23:18:15.665Z,,0,1,,3312.4070000000065,response,ISIC_0961235.JPG,8,ISIC_9226193.JPG,ISIC_9226193.JPG,false,0,keypress(z),500,540494,540493.5,537164.427,537168.799999997,537181.093,540497.627,8,400,49,,ISIC_0961235.JPG
break,html.Screen,4_48_1,2023-09-13T23:18:15.666Z,,0,,,NaN,,,,,,false,,,,540495,540494.799999997,,540494.299999997,,540497.627,8,400,,,
break_continue,html.Screen,4_48_2,2023-09-13T23:18:15.666Z,,0,,,NaN,,,,,,false,,,,540495.299999997,540495.200000003,,540495.1000000015,,540497.627,8,400,,,
sequence,flow.Sequence,4_48,2023-09-13T23:18:15.666Z,,0,,,3314.1070000029868,completion,,,,,false,,,,540495.5,540495.200000003,537164.427,537168.799999997,537181.093,540497.627,8,400,,,
trial,html.Screen,4_49_0,2023-09-13T23:18:21.840Z,,0,1,,6170.873000000021,response,ISIC_2625894.JPG,5,ISIC_9511832.JPG,ISIC_9511832.JPG,false,0,keypress(z),500,546668.799999997,546668.5,540480.961,540495.700000003,540497.627,546681.199,8,400,50,,ISIC_2625894.JPG
break,html.Screen,4_49_1,2023-09-13T23:18:31.840Z,,0,,,10000.025999999954,timeout,,,,,false,,,,556669.799999997,556664.559,546664.533,546669,546681.199,556681.225,8,400,,,
break_continue,html.Screen,4_49_2,2023-09-13T23:18:35.022Z,,0,,,3158.074999997043,response,,,,,false,continue,keypress(Space),,559851.1000000015,559839.299999997,556664.559,556669.8999999985,556681.225,559864.431,8,400,,,
sequence,flow.Sequence,4_49,2023-09-13T23:18:35.022Z,,0,,,19341.67299999704,completion,,,,,false,,,,559851.299999997,559839.299999997,540480.961,540495.6000000015,540497.627,559864.431,8,400,,,
trial,html.Screen,4_50_0,2023-09-13T23:18:38.449Z,,0,2,,3413.8689999970375,response,ISIC_0034133.JPG,8,ISIC_8869929.JPG,ISIC_8869929.JPG,false,0,keypress(z),500,563278.799999997,563278.299999997,559847.765,559851.5,559864.431,563281.439,8,400,1,,ISIC_0034133.JPG
break,html.Screen,4_50_1,2023-09-13T23:18:38.450Z,,0,,,NaN,,,,,,false,,,,563279.799999997,563279.6000000015,,563279.1000000015,,563281.439,8,400,,,
break_continue,html.Screen,4_50_2,2023-09-13T23:18:38.451Z,,0,,,NaN,,,,,,false,,,,563280.200000003,563280,,563280,,563281.439,8,400,,,
sequence,flow.Sequence,4_50,2023-09-13T23:18:38.451Z,,0,,,3415.5690000000177,completion,,,,,false,,,,563280.299999997,563280,559847.765,559851.5,559864.431,563281.439,8,400,,,
trial,html.Screen,4_51_0,2023-09-13T23:18:43.384Z,,0,2,,4931.661000001477,response,ISIC_8397077.JPG,5,ISIC_0031204.JPG,ISIC_8397077.JPG,false,1,keypress(m),500,568213.5,568213.1000000015,563264.773,563280.5,563281.439,568214.575,8,400,2,,ISIC_0031204.JPG
break,html.Screen,4_51_1,2023-09-13T23:18:43.385Z,,0,,,NaN,,,,,,false,,,,568214.5,568214.200000003,,568213.799999997,,568214.575,8,400,,,
break_continue,html.Screen,4_51_2,2023-09-13T23:18:43.385Z,,0,,,NaN,,,,,,false,,,,568214.8999999985,568214.700000003,,568214.6000000015,,568214.575,8,400,,,
sequence,flow.Sequence,4_51,2023-09-13T23:18:43.385Z,,0,,,4933.261000002967,completion,,,,,false,,,,568215,568214.700000003,563264.773,563280.5,563281.439,568214.575,8,400,,,
trial,html.Screen,4_52_0,2023-09-13T23:18:47.871Z,,0,2,,4485.625000003027,response,ISIC_7226381.JPG,8,ISIC_0064284.JPG,ISIC_7226381.JPG,false,1,keypress(m),500,572700.799999997,572700.200000003,568197.909,568215.200000003,568214.575,572714.395,8,400,3,,ISIC_0064284.JPG
break,html.Screen,4_52_1,2023-09-13T23:18:47.872Z,,0,,,NaN,,,,,,false,,,,572701.700000003,572701.5,,572701,,572714.395,8,400,,,
break_continue,html.Screen,4_52_2,2023-09-13T23:18:47.873Z,,0,,,NaN,,,,,,false,,,,572702.1000000015,572702,,572701.8999999985,,572714.395,8,400,,,
sequence,flow.Sequence,4_52,2023-09-13T23:18:47.873Z,,0,,,4487.425000000047,completion,,,,,false,,,,572702.299999997,572702,568197.909,568215.1000000015,568214.575,572714.395,8,400,,,
trial,html.Screen,4_53_0,2023-09-13T23:18:50.774Z,,0,2,,2889.0049999984913,response,ISIC_6258744.JPG,8,ISIC_0906465.JPG,ISIC_0906465.JPG,false,0,keypress(z),500,575603.8999999985,575603.3999999985,572697.729,572702.5,572714.395,575614.699,8,400,4,,ISIC_6258744.JPG
break,html.Screen,4_53_1,2023-09-13T23:18:50.775Z,,0,,,NaN,,,,,,false,,,,575605,575604.799999997,,575604.200000003,,575614.699,8,400,,,
break_continue,html.Screen,4_53_2,2023-09-13T23:18:50.776Z,,0,,,NaN,,,,,,false,,,,575605.3999999985,575605.299999997,,575605.200000003,,575614.699,8,400,,,
sequence,flow.Sequence,4_53,2023-09-13T23:18:50.776Z,,0,,,2890.904999997001,completion,,,,,false,,,,575605.6000000015,575605.299999997,572697.729,572702.5,572714.395,575614.699,8,400,,,
trial,html.Screen,4_54_0,2023-09-13T23:18:54.923Z,,0,2,,4137.2009999984875,response,ISIC_0001108.JPG,8,ISIC_4810500.JPG,ISIC_0001108.JPG,false,1,keypress(m),500,579752.3999999985,579751.8999999985,575598.033,575605.799999997,575614.699,579764.533,8,400,5,,ISIC_4810500.JPG
break,html.Screen,4_54_1,2023-09-13T23:18:54.924Z,,0,,,NaN,,,,,,false,,,,579753.3999999985,579753.200000003,,579752.799999997,,579764.533,8,400,,,
break_continue,html.Screen,4_54_2,2023-09-13T23:18:54.924Z,,0,,,NaN,,,,,,false,,,,579753.799999997,579753.700000003,,579753.6000000015,,579764.533,8,400,,,
sequence,flow.Sequence,4_54,2023-09-13T23:18:54.924Z,,0,,,4139.001000002958,completion,,,,,false,,,,579754,579753.700000003,575598.033,575605.700000003,575614.699,579764.533,8,400,,,
trial,html.Screen,4_55_0,2023-09-13T23:18:58.135Z,,0,2,,3199.966999999946,response,ISIC_0070419.JPG,8,ISIC_0026993.JPG,ISIC_0070419.JPG,false,1,keypress(m),500,582964.8999999985,582964.5,579747.867,579754.1000000015,579764.533,582981.071,8,400,6,,ISIC_0026993.JPG
break,html.Screen,4_55_1,2023-09-13T23:18:58.136Z,,0,,,NaN,,,,,,false,,,,582966,582965.799999997,,582965.299999997,,582981.071,8,400,,,
break_continue,html.Screen,4_55_2,2023-09-13T23:18:58.137Z,,0,,,NaN,,,,,,false,,,,582966.299999997,582966.200000003,,582966.1000000015,,582981.071,8,400,,,
sequence,flow.Sequence,4_55,2023-09-13T23:18:58.137Z,,0,,,3201.667000002926,completion,,,,,false,,,,582966.6000000015,582966.200000003,579747.867,579754,579764.533,582981.071,8,400,,,
trial,html.Screen,4_56_0,2023-09-13T23:19:02.360Z,,0,2,,4207.828999998514,response,ISIC_3679789.JPG,7,ISIC_0003593.JPG,ISIC_0003593.JPG,false,0,keypress(z),500,587189.299999997,587188.8999999985,582964.405,582966.700000003,582981.071,587198.007,8,400,7,,ISIC_3679789.JPG
break,html.Screen,4_56_1,2023-09-13T23:19:02.361Z,,0,,,NaN,,,,,,false,,,,587190.299999997,587190.1000000015,,587189.6000000015,,587198.007,8,400,,,
break_continue,html.Screen,4_56_2,2023-09-13T23:19:02.361Z,,0,,,NaN,,,,,,false,,,,587190.700000003,587190.6000000015,,587190.5,,587198.007,8,400,,,
sequence,flow.Sequence,4_56,2023-09-13T23:19:02.361Z,,0,,,4209.529000001494,completion,,,,,false,,,,587190.8999999985,587190.6000000015,582964.405,582966.6000000015,582981.071,587198.007,8,400,,,
trial,html.Screen,4_57_0,2023-09-13T23:19:06.013Z,,0,2,,3643.9930000000168,response,ISIC_6694724.JPG,8,ISIC_0059294.JPG,ISIC_6694724.JPG,false,1,keypress(m),500,590842.3999999985,590842,587181.341,587191,587198.007,590847.861,8,400,8,,ISIC_0059294.JPG
break,html.Screen,4_57_1,2023-09-13T23:19:06.014Z,,0,,,NaN,,,,,,false,,,,590843.5,590843.200000003,,590842.6000000015,,590847.861,8,400,,,
break_continue,html.Screen,4_57_2,2023-09-13T23:19:06.014Z,,0,,,NaN,,,,,,false,,,,590843.799999997,590843.700000003,,590843.5,,590847.861,8,400,,,
sequence,flow.Sequence,4_57,2023-09-13T23:19:06.014Z,,0,,,3645.693000002997,completion,,,,,false,,,,590844,590843.700000003,587181.341,587191,587198.007,590847.861,8,400,,,
trial,html.Screen,4_58_0,2023-09-13T23:19:10.148Z,,0,2,,4129.339000002947,response,ISIC_5602724.JPG,5,ISIC_8344196.JPG,ISIC_8344196.JPG,false,0,keypress(z),500,594977.6000000015,594977.200000003,590831.195,590844.1000000015,590847.861,594981.512,8,400,9,,ISIC_5602724.JPG
break,html.Screen,4_58_1,2023-09-13T23:19:10.149Z,,0,,,NaN,,,,,,false,,,,594978.6000000015,594978.3999999985,,594977.8999999985,,594981.512,8,400,,,
break_continue,html.Screen,4_58_2,2023-09-13T23:19:10.149Z,,0,,,NaN,,,,,,false,,,,594979,594978.8999999985,,594978.799999997,,594981.512,8,400,,,
sequence,flow.Sequence,4_58,2023-09-13T23:19:10.149Z,,0,,,4131.038999998476,completion,,,,,false,,,,594979.1000000015,594978.8999999985,590831.195,590844.1000000015,590847.861,594981.512,8,400,,,
trial,html.Screen,4_59_0,2023-09-13T23:19:14.153Z,,0,2,,4000.588000001502,response,ISIC_0013498.JPG,8,ISIC_0058753.JPG,ISIC_0058753.JPG,false,0,keypress(z),500,598982.5,598982.1000000015,594964.846,594979.299999997,594981.512,598998.018,8,400,10,,ISIC_0013498.JPG
break,html.Screen,4_59_1,2023-09-13T23:19:14.154Z,,0,,,NaN,,,,,,false,,,,598983.5,598983.299999997,,598982.799999997,,598998.018,8,400,,,
break_continue,html.Screen,4_59_2,2023-09-13T23:19:14.154Z,,0,,,NaN,,,,,,false,,,,598983.8999999985,598983.700000003,,598983.700000003,,598998.018,8,400,,,
sequence,flow.Sequence,4_59,2023-09-13T23:19:14.154Z,,0,,,4002.1880000029923,completion,,,,,false,,,,598984.200000003,598983.700000003,594964.846,594979.299999997,594981.512,598998.018,8,400,,,
trial,html.Screen,4_60_0,2023-09-13T23:19:17.623Z,,0,2,,3454.58200000145,response,ISIC_5457229.JPG,5,ISIC_0062524.JPG,ISIC_5457229.JPG,false,1,keypress(m),500,602453,602452.6000000015,598981.352,598984.200000003,598998.018,602464.546,8,400,11,,ISIC_0062524.JPG
break,html.Screen,4_60_1,2023-09-13T23:19:17.624Z,,0,,,NaN,,,,,,false,,,,602453.8999999985,602453.700000003,,602453.200000003,,602464.546,8,400,,,
break_continue,html.Screen,4_60_2,2023-09-13T23:19:17.624Z,,0,,,NaN,,,,,,false,,,,602454.299999997,602454.200000003,,602454,,602464.546,8,400,,,
sequence,flow.Sequence,4_60,2023-09-13T23:19:17.625Z,,0,,,3456.18200000294,completion,,,,,false,,,,602454.5,602454.200000003,598981.352,598984.200000003,598998.018,602464.546,8,400,,,
trial,html.Screen,4_61_0,2023-09-13T23:19:20.935Z,,0,2,,3300.253999997047,response,ISIC_0032603.JPG,6,ISIC_0046635.JPG,ISIC_0032603.JPG,false,1,keypress(m),500,605765.200000003,605764.799999997,602447.88,602454.6000000015,602464.546,605781.489,8,400,12,,ISIC_0046635.JPG
break,html.Screen,4_61_1,2023-09-13T23:19:20.936Z,,0,,,NaN,,,,,,false,,,,605766.200000003,605766,,605765.5,,605781.489,8,400,,,
break_continue,html.Screen,4_61_2,2023-09-13T23:19:20.937Z,,0,,,NaN,,,,,,false,,,,605766.6000000015,605766.3999999985,,605766.299999997,,605781.489,8,400,,,
sequence,flow.Sequence,4_61,2023-09-13T23:19:20.937Z,,0,,,3301.853999998537,completion,,,,,false,,,,605766.799999997,605766.3999999985,602447.88,602454.6000000015,602464.546,605781.489,8,400,,,
trial,html.Screen,4_62_0,2023-09-13T23:19:24.952Z,,0,2,,4000.011000000057,response,ISIC_1115013.JPG,8,ISIC_0206758.JPG,ISIC_0206758.JPG,false,0,keypress(z),500,609781.8999999985,609781.5,605764.823,605766.8999999985,605781.489,609797.995,8,400,13,,ISIC_1115013.JPG
break,html.Screen,4_62_1,2023-09-13T23:19:24.953Z,,0,,,NaN,,,,,,false,,,,609782.8999999985,609782.700000003,,609782.200000003,,609797.995,8,400,,,
break_continue,html.Screen,4_62_2,2023-09-13T23:19:24.953Z,,0,,,NaN,,,,,,false,,,,609783.299999997,609783.1000000015,,609783.1000000015,,609797.995,8,400,,,
sequence,flow.Sequence,4_62,2023-09-13T23:19:24.953Z,,0,,,4001.611000001547,completion,,,,,false,,,,609783.5,609783.1000000015,605764.823,605766.8999999985,605781.489,609797.995,8,400,,,
trial,html.Screen,4_63_0,2023-09-13T23:19:28.103Z,,0,2,,3134.705000002985,response,ISIC_0024565.JPG,7,ISIC_0014919.JPG,ISIC_0024565.JPG,false,1,keypress(m),500,612933.1000000015,612932.700000003,609781.329,609783.6000000015,609797.995,612947.869,8,400,14,,ISIC_0014919.JPG
break,html.Screen,4_63_1,2023-09-13T23:19:28.104Z,,0,,,NaN,,,,,,false,,,,612934.1000000015,612933.799999997,,612933.3999999985,,612947.869,8,400,,,
break_continue,html.Screen,4_63_2,2023-09-13T23:19:28.104Z,,0,,,NaN,,,,,,false,,,,612934.5,612934.299999997,,612934.200000003,,612947.869,8,400,,,
sequence,flow.Sequence,4_63,2023-09-13T23:19:28.105Z,,0,,,3136.3049999970244,completion,,,,,false,,,,612934.700000003,612934.299999997,609781.329,609783.6000000015,609797.995,612947.869,8,400,,,
trial,html.Screen,4_64_0,2023-09-13T23:19:31.245Z,,0,2,,3126.8310000030324,response,ISIC_3686179.JPG,9,ISIC_0010818.JPG,ISIC_0010818.JPG,false,0,keypress(z),500,616075.1000000015,616074.700000003,612931.203,612934.799999997,612947.869,616081.57,8,400,15,,ISIC_3686179.JPG
break,html.Screen,4_64_1,2023-09-13T23:19:31.246Z,,0,,,NaN,,,,,,false,,,,616076.1000000015,616075.8999999985,,616075.3999999985,,616081.57,8,400,,,
break_continue,html.Screen,4_64_2,2023-09-13T23:19:31.246Z,,0,,,NaN,,,,,,false,,,,616076.5,616076.3999999985,,616076.299999997,,616081.57,8,400,,,
sequence,flow.Sequence,4_64,2023-09-13T23:19:31.247Z,,0,,,3128.530999998562,completion,,,,,false,,,,616076.700000003,616076.3999999985,612931.203,612934.799999997,612947.869,616081.57,8,400,,,
trial,html.Screen,4_65_0,2023-09-13T23:19:34.116Z,,0,2,,2864.430000000051,response,ISIC_0010322.JPG,8,ISIC_2279679.JPG,ISIC_0010322.JPG,false,1,keypress(m),500,618946.3999999985,618946,616064.904,616076.799999997,616081.57,618948.122,8,400,16,,ISIC_2279679.JPG
break,html.Screen,4_65_1,2023-09-13T23:19:34.117Z,,0,,,NaN,,,,,,false,,,,618947.3999999985,618947.1000000015,,618946.6000000015,,618948.122,8,400,,,
break_continue,html.Screen,4_65_2,2023-09-13T23:19:34.118Z,,0,,,NaN,,,,,,false,,,,618947.700000003,618947.6000000015,,618947.3999999985,,618948.122,8,400,,,
sequence,flow.Sequence,4_65,2023-09-13T23:19:34.118Z,,0,,,2866.0300000015413,completion,,,,,false,,,,618947.8999999985,618947.6000000015,616064.904,616076.700000003,616081.57,618948.122,8,400,,,
trial,html.Screen,4_66_0,2023-09-13T23:19:39.034Z,,0,2,,4915.978000001516,response,ISIC_0011209.JPG,8,ISIC_0014219.JPG,ISIC_0014219.JPG,false,0,keypress(z),500,623864.5,623864.1000000015,618931.456,618948.1000000015,618948.122,623881.258,8,400,17,,ISIC_0011209.JPG
break,html.Screen,4_66_1,2023-09-13T23:19:39.035Z,,0,,,NaN,,,,,,false,,,,623865.6000000015,623865.3999999985,,623864.799999997,,623881.258,8,400,,,
break_continue,html.Screen,4_66_2,2023-09-13T23:19:39.036Z,,0,,,NaN,,,,,,false,,,,623866,623865.799999997,,623865.6000000015,,623881.258,8,400,,,
sequence,flow.Sequence,4_66,2023-09-13T23:19:39.036Z,,0,,,4917.677999997046,completion,,,,,false,,,,623866.1000000015,623865.799999997,618931.456,618948,618948.122,623881.258,8,400,,,
trial,html.Screen,4_67_0,2023-09-13T23:19:42.290Z,,0,2,,3238.141999998479,response,ISIC_0392105.JPG,8,ISIC_0010934.JPG,ISIC_0010934.JPG,false,0,keypress(z),500,627119.799999997,627119.3999999985,623864.592,623866.200000003,623881.258,627131.545,8,400,18,,ISIC_0392105.JPG
break,html.Screen,4_67_1,2023-09-13T23:19:42.290Z,,0,,,NaN,,,,,,false,,,,627120.700000003,627120.5,,627120,,627131.545,8,400,,,
break_continue,html.Screen,4_67_2,2023-09-13T23:19:42.291Z,,0,,,NaN,,,,,,false,,,,627121.1000000015,627121,,627120.8999999985,,627131.545,8,400,,,
sequence,flow.Sequence,4_67,2023-09-13T23:19:42.291Z,,0,,,3239.7419999999693,completion,,,,,false,,,,627121.299999997,627121,623864.592,623866.1000000015,623881.258,627131.545,8,400,,,
trial,html.Screen,4_68_0,2023-09-13T23:19:45.534Z,,0,2,,3232.454999999958,response,ISIC_2748736.JPG,8,ISIC_5363229.JPG,ISIC_2748736.JPG,false,1,keypress(m),500,630364.3999999985,630364,627114.879,627121.3999999985,627131.545,630381.415,8,400,19,,ISIC_5363229.JPG
break,html.Screen,4_68_1,2023-09-13T23:19:45.535Z,,0,,,NaN,,,,,,false,,,,630365.5,630365.299999997,,630364.799999997,,630381.415,8,400,,,
break_continue,html.Screen,4_68_2,2023-09-13T23:19:45.536Z,,0,,,NaN,,,,,,false,,,,630365.8999999985,630365.799999997,,630365.700000003,,630381.415,8,400,,,
sequence,flow.Sequence,4_68,2023-09-13T23:19:45.536Z,,0,,,3234.254999996978,completion,,,,,false,,,,630366.1000000015,630365.799999997,627114.879,627121.3999999985,627131.545,630381.415,8,400,,,
trial,html.Screen,4_69_0,2023-09-13T23:19:49.218Z,,0,2,,3666.785000002943,response,ISIC_7244604.JPG,7,ISIC_0010510.JPG,ISIC_7244604.JPG,false,1,keypress(m),500,634048.5,634048.200000003,630364.749,630366.200000003,630381.415,634064.601,8,400,20,,ISIC_0010510.JPG
break,html.Screen,4_69_1,2023-09-13T23:19:49.219Z,,0,,,NaN,,,,,,false,,,,634049.3999999985,634049.299999997,,634048.799999997,,634064.601,8,400,,,
break_continue,html.Screen,4_69_2,2023-09-13T23:19:49.219Z,,0,,,NaN,,,,,,false,,,,634049.8999999985,634049.700000003,,634049.6000000015,,634064.601,8,400,,,
sequence,flow.Sequence,4_69,2023-09-13T23:19:49.220Z,,0,,,3668.285000002943,completion,,,,,false,,,,634049.8999999985,634049.700000003,630364.749,630366.200000003,630381.415,634064.601,8,400,,,
trial,html.Screen,4_70_0,2023-09-13T23:19:52.494Z,,0,2,,3259.2989999984857,response,ISIC_2918128.JPG,5,ISIC_2228511.JPG,ISIC_2228511.JPG,false,0,keypress(z),500,637324.200000003,637323.8999999985,634047.935,634050.1000000015,634064.601,637331.619,8,400,21,,ISIC_2918128.JPG
break,html.Screen,4_70_1,2023-09-13T23:19:52.495Z,,0,,,NaN,,,,,,false,,,,637325.200000003,637325.1000000015,,637324.6000000015,,637331.619,8,400,,,
break_continue,html.Screen,4_70_2,2023-09-13T23:19:52.495Z,,0,,,NaN,,,,,,false,,,,637325.5,637325.5,,637325.3999999985,,637331.619,8,400,,,
sequence,flow.Sequence,4_70,2023-09-13T23:19:52.495Z,,0,,,3260.898999999976,completion,,,,,false,,,,637325.799999997,637325.5,634047.935,634050.1000000015,634064.601,637331.619,8,400,,,
trial,html.Screen,4_71_0,2023-09-13T23:19:56.047Z,,0,2,,3545.180999997072,response,ISIC_0000519.JPG,7,ISIC_9544832.JPG,ISIC_0000519.JPG,false,1,keypress(m),500,640877.1000000015,640876.799999997,637314.953,637325.8999999985,637331.619,640881.477,8,400,22,,ISIC_9544832.JPG
break,html.Screen,4_71_1,2023-09-13T23:19:56.048Z,,0,,,NaN,,,,,,false,,,,640878.1000000015,640877.8999999985,,640877.5,,640881.477,8,400,,,
break_continue,html.Screen,4_71_2,2023-09-13T23:19:56.048Z,,0,,,NaN,,,,,,false,,,,640878.5,640878.3999999985,,640878.200000003,,640881.477,8,400,,,
sequence,flow.Sequence,4_71,2023-09-13T23:19:56.048Z,,0,,,3546.780999998562,completion,,,,,false,,,,640878.6000000015,640878.3999999985,637314.953,637325.8999999985,637331.619,640881.477,8,400,,,
trial,html.Screen,4_72_0,2023-09-13T23:19:59.814Z,,0,2,,3762.223000003025,response,ISIC_0015167.JPG,8,ISIC_0000487.JPG,ISIC_0000487.JPG,false,0,keypress(z),500,644644.1000000015,644643.700000003,640864.811,640878.700000003,640881.477,644647.993,8,400,23,,ISIC_0015167.JPG
break,html.Screen,4_72_1,2023-09-13T23:19:59.815Z,,0,,,NaN,,,,,,false,,,,644645.1000000015,644644.8999999985,,644644.3999999985,,644647.993,8,400,,,
break_continue,html.Screen,4_72_2,2023-09-13T23:19:59.815Z,,0,,,NaN,,,,,,false,,,,644645.3999999985,644645.299999997,,644645.1000000015,,644647.993,8,400,,,
sequence,flow.Sequence,4_72,2023-09-13T23:19:59.815Z,,0,,,3763.8229999970645,completion,,,,,false,,,,644645.6000000015,644645.299999997,640864.811,640878.700000003,640881.477,644647.993,8,400,,,
trial,html.Screen,4_73_0,2023-09-13T23:20:04.007Z,,0,2,,4188.7070000029635,response,ISIC_1558504.JPG,7,ISIC_0029089.JPG,ISIC_0029089.JPG,false,0,keypress(z),500,648837.1000000015,648836.700000003,644631.327,644645.799999997,644647.993,648848.224,8,400,24,,ISIC_1558504.JPG
break,html.Screen,4_73_1,2023-09-13T23:20:04.008Z,,0,,,NaN,,,,,,false,,,,648838,648837.799999997,,648837.3999999985,,648848.224,8,400,,,
break_continue,html.Screen,4_73_2,2023-09-13T23:20:04.008Z,,0,,,NaN,,,,,,false,,,,648838.3999999985,648838.299999997,,648838.1000000015,,648848.224,8,400,,,
sequence,flow.Sequence,4_73,2023-09-13T23:20:04.008Z,,0,,,4190.306999997003,completion,,,,,false,,,,648838.6000000015,648838.299999997,644631.327,644645.700000003,644647.993,648848.224,8,400,,,
trial,html.Screen,4_74_0,2023-09-13T23:20:07.294Z,,0,2,,3275.6759999984642,response,ISIC_0012840.JPG,8,ISIC_8737794.JPG,ISIC_8737794.JPG,false,0,keypress(z),500,652124.299999997,652123.8999999985,648831.558,648838.700000003,648848.224,652131.426,8,400,25,,ISIC_0012840.JPG
break,html.Screen,4_74_1,2023-09-13T23:20:07.295Z,,0,,,NaN,,,,,,false,,,,652125.200000003,652125,,652124.5,,652131.426,8,400,,,
break_continue,html.Screen,4_74_2,2023-09-13T23:20:07.295Z,,0,,,NaN,,,,,,false,,,,652125.6000000015,652125.5,,652125.299999997,,652131.426,8,400,,,
sequence,flow.Sequence,4_74,2023-09-13T23:20:07.295Z,,0,,,3277.2759999999544,completion,,,,,false,,,,652125.799999997,652125.5,648831.558,648838.700000003,648848.224,652131.426,8,400,,,
trial,html.Screen,4_75_0,2023-09-13T23:20:11.775Z,,0,2,,4473.473999998532,response,ISIC_4613437.JPG,8,ISIC_1693458.JPG,ISIC_4613437.JPG,false,1,keypress(m),500,656605.299999997,656604.8999999985,652114.76,652125.8999999985,652131.426,656614.58,8,400,26,,ISIC_1693458.JPG
break,html.Screen,4_75_1,2023-09-13T23:20:11.776Z,,0,,,NaN,,,,,,false,,,,656606.200000003,656606,,656605.6000000015,,656614.58,8,400,,,
break_continue,html.Screen,4_75_2,2023-09-13T23:20:11.776Z,,0,,,NaN,,,,,,false,,,,656606.6000000015,656606.5,,656606.299999997,,656614.58,8,400,,,
sequence,flow.Sequence,4_75,2023-09-13T23:20:11.776Z,,0,,,4475.074000000022,completion,,,,,false,,,,656606.799999997,656606.5,652114.76,652125.8999999985,652131.426,656614.58,8,400,,,
trial,html.Screen,4_76_0,2023-09-13T23:20:16.277Z,,0,2,,4493.020000001532,response,ISIC_7147898.JPG,8,ISIC_9317483.JPG,ISIC_7147898.JPG,false,1,keypress(m),500,661108,661107.6000000015,656597.914,656607,656614.58,661114.889,8,400,27,,ISIC_9317483.JPG
break,html.Screen,4_76_1,2023-09-13T23:20:16.278Z,,0,,,NaN,,,,,,false,,,,661109,661108.700000003,,661108.299999997,,661114.889,8,400,,,
break_continue,html.Screen,4_76_2,2023-09-13T23:20:16.279Z,,0,,,NaN,,,,,,false,,,,661109.3999999985,661109.299999997,,661109.200000003,,661114.889,8,400,,,
sequence,flow.Sequence,4_76,2023-09-13T23:20:16.279Z,,0,,,4494.719999997062,completion,,,,,false,,,,661109.5,661109.299999997,656597.914,656606.8999999985,656614.58,661114.889,8,400,,,
trial,html.Screen,4_77_0,2023-09-13T23:20:19.932Z,,0,2,,3647.7110000015236,response,ISIC_0010749.JPG,8,ISIC_4208361.JPG,ISIC_0010749.JPG,false,1,keypress(m),500,664763.1000000015,664762.6000000015,661098.223,661109.700000003,661114.889,664764.743,8,400,28,,ISIC_4208361.JPG
break,html.Screen,4_77_1,2023-09-13T23:20:19.933Z,,0,,,NaN,,,,,,false,,,,664764.1000000015,664763.8999999985,,664763.5,,664764.743,8,400,,,
break_continue,html.Screen,4_77_2,2023-09-13T23:20:19.934Z,,0,,,NaN,,,,,,false,,,,664764.6000000015,664764.3999999985,,664764.200000003,,664764.743,8,400,,,
sequence,flow.Sequence,4_77,2023-09-13T23:20:19.934Z,,0,,,3649.5109999985434,completion,,,,,false,,,,664764.700000003,664764.3999999985,661098.223,661109.700000003,661114.889,664764.743,8,400,,,
trial,html.Screen,4_78_0,2023-09-13T23:20:22.852Z,,0,2,,2917.3570000014734,response,ISIC_0011057.JPG,7,ISIC_1814941.JPG,ISIC_1814941.JPG,false,0,keypress(z),500,667682.299999997,667682.1000000015,664748.077,664764.8999999985,664764.743,667697.959,8,400,29,,ISIC_0011057.JPG
break,html.Screen,4_78_1,2023-09-13T23:20:22.852Z,,0,,,NaN,,,,,,false,,,,667682.6000000015,667682.5,,667682.299999997,,667697.959,8,400,,,
break_continue,html.Screen,4_78_2,2023-09-13T23:20:22.852Z,,0,,,NaN,,,,,,false,,,,667682.700000003,667682.700000003,,667682.700000003,,667697.959,8,400,,,
sequence,flow.Sequence,4_78,2023-09-13T23:20:22.852Z,,0,,,2917.9570000029635,completion,,,,,false,,,,667682.700000003,667682.700000003,664748.077,664764.8999999985,664764.743,667697.959,8,400,,,
trial,html.Screen,4_79_0,2023-09-13T23:20:26.030Z,,0,2,,3162.0409999999683,response,ISIC_0053841.JPG,7,ISIC_0012395.JPG,ISIC_0053841.JPG,false,1,keypress(m),500,670860.299999997,670860,667681.293,667682.799999997,667697.959,670864.904,8,400,30,,ISIC_0012395.JPG
break,html.Screen,4_79_1,2023-09-13T23:20:26.030Z,,0,,,NaN,,,,,,false,,,,670861.200000003,670861,,670860.6000000015,,670864.904,8,400,,,
break_continue,html.Screen,4_79_2,2023-09-13T23:20:26.031Z,,0,,,NaN,,,,,,false,,,,670861.6000000015,670861.3999999985,,670861.299999997,,670864.904,8,400,,,
sequence,flow.Sequence,4_79,2023-09-13T23:20:26.031Z,,0,,,3163.440999998478,completion,,,,,false,,,,670861.700000003,670861.3999999985,667681.293,667682.799999997,667697.959,670864.904,8,400,,,
trial,html.Screen,4_80_0,2023-09-13T23:20:29.204Z,,0,2,,3169.4959999985294,response,ISIC_0054355.JPG,8,ISIC_1202785.JPG,ISIC_0054355.JPG,false,1,keypress(m),500,674034.700000003,674034.3999999985,670848.238,670861.8999999985,670864.904,674048.11,8,400,31,,ISIC_1202785.JPG
break,html.Screen,4_80_1,2023-09-13T23:20:29.205Z,,0,,,NaN,,,,,,false,,,,674035.6000000015,674035.3999999985,,674035,,674048.11,8,400,,,
break_continue,html.Screen,4_80_2,2023-09-13T23:20:29.205Z,,0,,,NaN,,,,,,false,,,,674036,674035.8999999985,,674035.799999997,,674048.11,8,400,,,
sequence,flow.Sequence,4_80,2023-09-13T23:20:29.205Z,,0,,,3170.9959999985294,completion,,,,,false,,,,674036.200000003,674035.8999999985,670848.238,670861.799999997,670864.904,674048.11,8,400,,,
trial,html.Screen,4_81_0,2023-09-13T23:20:32.154Z,,0,2,,2936.090000002994,response,ISIC_0046331.JPG,8,ISIC_0033416.JPG,ISIC_0033416.JPG,false,0,keypress(z),500,676984.700000003,676984.200000003,674031.444,674036.299999997,674048.11,676997.992,8,400,32,,ISIC_0046331.JPG
break,html.Screen,4_81_1,2023-09-13T23:20:32.155Z,,0,,,NaN,,,,,,false,,,,676985.700000003,676985.3999999985,,676985,,676997.992,8,400,,,
break_continue,html.Screen,4_81_2,2023-09-13T23:20:32.155Z,,0,,,NaN,,,,,,false,,,,676986,676985.8999999985,,676985.799999997,,676997.992,8,400,,,
sequence,flow.Sequence,4_81,2023-09-13T23:20:32.155Z,,0,,,2937.789999998524,completion,,,,,false,,,,676986.200000003,676985.8999999985,674031.444,674036.200000003,674048.11,676997.992,8,400,,,
trial,html.Screen,4_82_0,2023-09-13T23:20:35.296Z,,0,2,,3128.608000001521,response,ISIC_2520840.JPG,8,ISIC_0061336.JPG,ISIC_0061336.JPG,false,0,keypress(z),500,680127.1000000015,680126.6000000015,676981.326,676986.3999999985,676997.992,680131.661,8,400,33,,ISIC_2520840.JPG
break,html.Screen,4_82_1,2023-09-13T23:20:35.297Z,,0,,,NaN,,,,,,false,,,,680128,680127.799999997,,680127.299999997,,680131.661,8,400,,,
break_continue,html.Screen,4_82_2,2023-09-13T23:20:35.297Z,,0,,,NaN,,,,,,false,,,,680128.3999999985,680128.200000003,,680128.1000000015,,680131.661,8,400,,,
sequence,flow.Sequence,4_82,2023-09-13T23:20:35.298Z,,0,,,3130.208000003011,completion,,,,,false,,,,680128.5,680128.200000003,676981.326,676986.299999997,676997.992,680131.661,8,400,,,
trial,html.Screen,4_83_0,2023-09-13T23:20:39.967Z,,0,2,,4665.539000003017,response,ISIC_0054885.JPG,8,ISIC_0070822.JPG,ISIC_0054885.JPG,false,1,keypress(m),500,684797.6000000015,684797.200000003,680114.995,680128.700000003,680131.661,684814.807,8,400,34,,ISIC_0070822.JPG
break,html.Screen,4_83_1,2023-09-13T23:20:39.968Z,,0,,,NaN,,,,,,false,,,,684798.700000003,684798.3999999985,,684797.8999999985,,684814.807,8,400,,,
break_continue,html.Screen,4_83_2,2023-09-13T23:20:39.968Z,,0,,,NaN,,,,,,false,,,,684799,684798.8999999985,,684798.799999997,,684814.807,8,400,,,
sequence,flow.Sequence,4_83,2023-09-13T23:20:39.968Z,,0,,,4667.238999998546,completion,,,,,false,,,,684799.200000003,684798.8999999985,680114.995,680128.700000003,680131.661,684814.807,8,400,,,
trial,html.Screen,4_84_0,2023-09-13T23:20:43.686Z,,0,2,,3701.69299999997,response,ISIC_0059597.JPG,7,ISIC_9304022.JPG,ISIC_9304022.JPG,false,0,keypress(z),500,688517,688516.5,684798.141,684799.299999997,684814.807,688531.751,8,400,35,,ISIC_0059597.JPG
break,html.Screen,4_84_1,2023-09-13T23:20:43.687Z,,0,,,NaN,,,,,,false,,,,688518,688517.799999997,,688517.299999997,,688531.751,8,400,,,
break_continue,html.Screen,4_84_2,2023-09-13T23:20:43.687Z,,0,,,NaN,,,,,,false,,,,688518.3999999985,688518.200000003,,688518.1000000015,,688531.751,8,400,,,
sequence,flow.Sequence,4_84,2023-09-13T23:20:43.688Z,,0,,,3703.3930000029504,completion,,,,,false,,,,688518.5,688518.200000003,684798.141,684799.299999997,684814.807,688531.751,8,400,,,
trial,html.Screen,4_85_0,2023-09-13T23:20:47.658Z,,0,2,,3957.1489999984624,response,ISIC_7365889.JPG,6,ISIC_1115160.JPG,ISIC_1115160.JPG,false,0,keypress(z),500,692489.299999997,692488.8999999985,688515.085,688518.700000003,688531.751,692498.259,8,400,36,,ISIC_7365889.JPG
break,html.Screen,4_85_1,2023-09-13T23:20:47.659Z,,0,,,NaN,,,,,,false,,,,692490.3999999985,692490.200000003,,692489.5,,692498.259,8,400,,,
break_continue,html.Screen,4_85_2,2023-09-13T23:20:47.660Z,,0,,,NaN,,,,,,false,,,,692490.799999997,692490.700000003,,692490.6000000015,,692498.259,8,400,,,
sequence,flow.Sequence,4_85,2023-09-13T23:20:47.660Z,,0,,,3958.9490000029327,completion,,,,,false,,,,692491,692490.700000003,688515.085,688518.6000000015,688531.751,692498.259,8,400,,,
trial,html.Screen,4_86_0,2023-09-13T23:20:51.457Z,,0,2,,3789.241000000038,response,ISIC_8173531.JPG,8,ISIC_0054792.JPG,ISIC_0054792.JPG,false,0,keypress(z),500,696288,696287.5,692481.593,692491.200000003,692498.259,696298.107,8,400,37,,ISIC_8173531.JPG
break,html.Screen,4_86_1,2023-09-13T23:20:51.458Z,,0,,,NaN,,,,,,false,,,,696289,696288.700000003,,696288.200000003,,696298.107,8,400,,,
break_continue,html.Screen,4_86_2,2023-09-13T23:20:51.458Z,,0,,,NaN,,,,,,false,,,,696289.299999997,696289.200000003,,696289,,696298.107,8,400,,,
sequence,flow.Sequence,4_86,2023-09-13T23:20:51.458Z,,0,,,3790.9410000030184,completion,,,,,false,,,,696289.5,696289.200000003,692481.593,692491.1000000015,692498.259,696298.107,8,400,,,
trial,html.Screen,4_87_0,2023-09-13T23:20:57.525Z,,0,2,,6058.19299999706,response,ISIC_3413138.JPG,7,ISIC_0026475.JPG,ISIC_3413138.JPG,false,1,keypress(m),500,702356.6000000015,702356.299999997,696281.441,696289.6000000015,696298.107,702381.613,8,400,38,,ISIC_0026475.JPG
break,html.Screen,4_87_1,2023-09-13T23:20:57.526Z,,0,,,NaN,,,,,,false,,,,702357.6000000015,702357.3999999985,,702356.799999997,,702381.613,8,400,,,
break_continue,html.Screen,4_87_2,2023-09-13T23:20:57.527Z,,0,,,NaN,,,,,,false,,,,702358,702357.799999997,,702357.700000003,,702381.613,8,400,,,
sequence,flow.Sequence,4_87,2023-09-13T23:20:57.527Z,,0,,,6059.69299999706,completion,,,,,false,,,,702358.1000000015,702357.799999997,696281.441,696289.6000000015,696298.107,702381.613,8,400,,,
trial,html.Screen,4_88_0,2023-09-13T23:21:01.402Z,,0,2,,3850.886999999988,response,ISIC_0060508.JPG,8,ISIC_5176419.JPG,ISIC_0060508.JPG,false,1,keypress(m),500,706232.799999997,706232.5,702364.947,702358.200000003,702381.613,706248.125,8,400,39,,ISIC_5176419.JPG
break,html.Screen,4_88_1,2023-09-13T23:21:01.403Z,,0,,,NaN,,,,,,false,,,,706234,706233.700000003,,706233.200000003,,706248.125,8,400,,,
break_continue,html.Screen,4_88_2,2023-09-13T23:21:01.403Z,,0,,,NaN,,,,,,false,,,,706234.299999997,706234.200000003,,706234,,706248.125,8,400,,,
sequence,flow.Sequence,4_88,2023-09-13T23:21:01.403Z,,0,,,3852.587000002968,completion,,,,,false,,,,706234.3999999985,706234.200000003,702364.947,702358.200000003,702381.613,706248.125,8,400,,,
trial,html.Screen,4_89_0,2023-09-13T23:21:06.095Z,,0,2,,4677.57500000298,response,ISIC_0962787.JPG,7,ISIC_0000301.JPG,ISIC_0000301.JPG,false,0,keypress(z),500,710926.200000003,710925.700000003,706231.459,706234.6000000015,706248.125,710931.807,8,400,40,,ISIC_0962787.JPG
break,html.Screen,4_89_1,2023-09-13T23:21:06.096Z,,0,,,NaN,,,,,,false,,,,710927.200000003,710927,,710926.3999999985,,710931.807,8,400,,,
break_continue,html.Screen,4_89_2,2023-09-13T23:21:06.096Z,,0,,,NaN,,,,,,false,,,,710927.5,710927.3999999985,,710927.3999999985,,710931.807,8,400,,,
sequence,flow.Sequence,4_89,2023-09-13T23:21:06.096Z,,0,,,4679.27499999851,completion,,,,,false,,,,710927.700000003,710927.3999999985,706231.459,706234.6000000015,706248.125,710931.807,8,400,,,
trial,html.Screen,4_90_0,2023-09-13T23:21:10.951Z,,0,2,,4849.59299999848,response,ISIC_8995044.JPG,8,ISIC_0063988.JPG,ISIC_0063988.JPG,false,0,keypress(z),500,715781.8999999985,715781.3999999985,710915.141,710927.8999999985,710931.807,715798.279,8,400,41,,ISIC_8995044.JPG
break,html.Screen,4_90_1,2023-09-13T23:21:10.952Z,,0,,,NaN,,,,,,false,,,,715782.799999997,715782.6000000015,,715782.200000003,,715798.279,8,400,,,
break_continue,html.Screen,4_90_2,2023-09-13T23:21:10.952Z,,0,,,NaN,,,,,,false,,,,715783.200000003,715783.1000000015,,715783,,715798.279,8,400,,,
sequence,flow.Sequence,4_90,2023-09-13T23:21:10.952Z,,0,,,4851.29300000146,completion,,,,,false,,,,715783.3999999985,715783.1000000015,710915.141,710927.799999997,710931.807,715798.279,8,400,,,
trial,html.Screen,4_91_0,2023-09-13T23:21:14.446Z,,0,2,,3479.0209999970393,response,ISIC_0305800.JPG,8,ISIC_8348712.JPG,ISIC_8348712.JPG,false,0,keypress(z),500,719277.6000000015,719277.299999997,715781.613,715783.6000000015,715798.279,719281.473,8,400,42,,ISIC_0305800.JPG
break,html.Screen,4_91_1,2023-09-13T23:21:14.447Z,,0,,,NaN,,,,,,false,,,,719278.6000000015,719278.3999999985,,719277.8999999985,,719281.473,8,400,,,
break_continue,html.Screen,4_91_2,2023-09-13T23:21:14.448Z,,0,,,NaN,,,,,,false,,,,719279,719278.799999997,,719278.700000003,,719281.473,8,400,,,
sequence,flow.Sequence,4_91,2023-09-13T23:21:14.448Z,,0,,,3480.5209999970393,completion,,,,,false,,,,719279.1000000015,719278.799999997,715781.613,715783.5,715798.279,719281.473,8,400,,,
trial,html.Screen,4_92_0,2023-09-13T23:21:20.830Z,,0,2,,6379.127000001492,response,ISIC_0013491.JPG,4,ISIC_9049170.JPG,ISIC_0013491.JPG,false,1,keypress(m),500,725661,725660.6000000015,719264.807,719279.299999997,719281.473,725681.636,8,400,43,,ISIC_9049170.JPG
break,html.Screen,4_92_1,2023-09-13T23:21:20.831Z,,0,,,NaN,,,,,,false,,,,725662,725661.700000003,,725661.299999997,,725681.636,8,400,,,
break_continue,html.Screen,4_92_2,2023-09-13T23:21:20.831Z,,0,,,NaN,,,,,,false,,,,725662.299999997,725662.299999997,,725662.1000000015,,725681.636,8,400,,,
sequence,flow.Sequence,4_92,2023-09-13T23:21:20.831Z,,0,,,6380.826999997022,completion,,,,,false,,,,725662.5,725662.299999997,719264.807,719279.200000003,719281.473,725681.636,8,400,,,
trial,html.Screen,4_93_0,2023-09-13T23:21:24.020Z,,0,2,,3169.163999996963,response,ISIC_0031310.JPG,7,ISIC_0055253.JPG,ISIC_0055253.JPG,false,0,keypress(z),500,728851.200000003,728850.799999997,725664.97,725662.700000003,725681.636,728864.842,8,400,44,,ISIC_0031310.JPG
break,html.Screen,4_93_1,2023-09-13T23:21:24.021Z,,0,,,NaN,,,,,,false,,,,728852.200000003,728851.8999999985,,728851.5,,728864.842,8,400,,,
break_continue,html.Screen,4_93_2,2023-09-13T23:21:24.021Z,,0,,,NaN,,,,,,false,,,,728852.6000000015,728852.3999999985,,728852.299999997,,728864.842,8,400,,,
sequence,flow.Sequence,4_93,2023-09-13T23:21:24.021Z,,0,,,3170.763999998453,completion,,,,,false,,,,728852.799999997,728852.3999999985,725664.97,725662.6000000015,725681.636,728864.842,8,400,,,
trial,html.Screen,4_94_0,2023-09-13T23:21:27.227Z,,0,2,,3192.957999997074,response,ISIC_5150938.JPG,8,ISIC_8051628.JPG,ISIC_5150938.JPG,false,1,keypress(m),500,732058.1000000015,732057.799999997,728848.176,728853,728864.842,732065.193,8,400,45,,ISIC_8051628.JPG
break,html.Screen,4_94_1,2023-09-13T23:21:27.228Z,,0,,,NaN,,,,,,false,,,,732059.200000003,732059,,732058.3999999985,,732065.193,8,400,,,
break_continue,html.Screen,4_94_2,2023-09-13T23:21:27.228Z,,0,,,NaN,,,,,,false,,,,732059.6000000015,732059.299999997,,732059.299999997,,732065.193,8,400,,,
sequence,flow.Sequence,4_94,2023-09-13T23:21:27.228Z,,0,,,3194.457999997074,completion,,,,,false,,,,732059.700000003,732059.299999997,728848.176,728852.8999999985,728864.842,732065.193,8,400,,,
trial,html.Screen,4_95_0,2023-09-13T23:21:30.517Z,,0,2,,3282.90700000152,response,ISIC_0069933.JPG,8,ISIC_2603420.JPG,ISIC_0069933.JPG,false,1,keypress(m),500,735348.3999999985,735348.1000000015,732048.527,732059.799999997,732065.193,735365.061,8,400,46,,ISIC_2603420.JPG
break,html.Screen,4_95_1,2023-09-13T23:21:30.518Z,,0,,,NaN,,,,,,false,,,,735349.3999999985,735349.200000003,,735348.700000003,,735365.061,8,400,,,
break_continue,html.Screen,4_95_2,2023-09-13T23:21:30.518Z,,0,,,NaN,,,,,,false,,,,735349.799999997,735349.700000003,,735349.5,,735365.061,8,400,,,
sequence,flow.Sequence,4_95,2023-09-13T23:21:30.518Z,,0,,,3284.50700000301,completion,,,,,false,,,,735350,735349.700000003,732048.527,732059.700000003,732065.193,735365.061,8,400,,,
trial,html.Screen,4_96_0,2023-09-13T23:21:33.914Z,,0,2,,3379.939000000013,response,ISIC_0027282.JPG,7,ISIC_6052860.JPG,ISIC_0027282.JPG,false,1,keypress(m),500,738745.3999999985,738745,735348.395,735350.1000000015,735365.061,738764.925,8,400,47,,ISIC_6052860.JPG
break,html.Screen,4_96_1,2023-09-13T23:21:33.915Z,,0,,,NaN,,,,,,false,,,,738746.299999997,738746.1000000015,,738745.700000003,,738764.925,8,400,,,
break_continue,html.Screen,4_96_2,2023-09-13T23:21:33.915Z,,0,,,NaN,,,,,,false,,,,738746.700000003,738746.5,,738746.3999999985,,738764.925,8,400,,,
sequence,flow.Sequence,4_96,2023-09-13T23:21:33.915Z,,0,,,3381.439000000013,completion,,,,,false,,,,738746.8999999985,738746.5,735348.395,735350,735365.061,738764.925,8,400,,,
trial,html.Screen,4_97_0,2023-09-13T23:21:38.229Z,,0,2,,4295.675000001444,response,ISIC_0084086.JPG,9,ISIC_4563766.JPG,ISIC_4563766.JPG,false,0,keypress(z),500,743061.1000000015,743060.6000000015,738748.259,738747,738764.925,743065.123,8,400,48,,ISIC_0084086.JPG
break,html.Screen,4_97_1,2023-09-13T23:21:38.230Z,,0,,,NaN,,,,,,false,,,,743062.1000000015,743061.799999997,,743061.3999999985,,743065.123,8,400,,,
break_continue,html.Screen,4_97_2,2023-09-13T23:21:38.231Z,,0,,,NaN,,,,,,false,,,,743062.5,743062.299999997,,743062.200000003,,743065.123,8,400,,,
sequence,flow.Sequence,4_97,2023-09-13T23:21:38.231Z,,0,,,4297.374999996973,completion,,,,,false,,,,743062.700000003,743062.299999997,738748.259,738746.8999999985,738764.925,743065.123,8,400,,,
trial,html.Screen,4_98_0,2023-09-13T23:21:42.108Z,,0,2,,3873.8769999999786,response,ISIC_0004089.JPG,7,ISIC_4804158.JPG,ISIC_4804158.JPG,false,0,keypress(z),500,746939.5,746939,743048.457,743062.700000003,743065.123,746948.301,8,400,49,,ISIC_0004089.JPG
break,html.Screen,4_98_1,2023-09-13T23:21:42.109Z,,0,,,NaN,,,,,,false,,,,746940.6000000015,746940.299999997,,746939.799999997,,746948.301,8,400,,,
break_continue,html.Screen,4_98_2,2023-09-13T23:21:42.109Z,,0,,,NaN,,,,,,false,,,,746940.8999999985,746940.799999997,,746940.6000000015,,746948.301,8,400,,,
sequence,flow.Sequence,4_98,2023-09-13T23:21:42.109Z,,0,,,3875.6769999969983,completion,,,,,false,,,,746941.1000000015,746940.799999997,743048.457,743062.700000003,743065.123,746948.301,8,400,,,
trial,html.Screen,4_99_0,2023-09-13T23:21:45.762Z,,0,2,,3645.498999997042,response,ISIC_0001152.JPG,8,ISIC_3833013.JPG,ISIC_0001152.JPG,false,1,keypress(m),500,750594.200000003,750593.799999997,746931.635,746941.299999997,746948.301,750598.155,8,400,50,,ISIC_3833013.JPG
break,html.Screen,4_99_1,2023-09-13T23:21:55.754Z,,0,,,10000.09699999995,timeout,,,,,false,,,,760586.299999997,760581.586,750581.489,750594.5,750598.155,760598.252,8,400,,,
break_continue,html.Screen,4_99_2,2023-09-13T23:22:26.618Z,,0,,,30833.64799999853,response,,,,,false,continue,keypress(Space),,791449.8999999985,791431.8999999985,760581.586,760586.5,760598.252,791463.684,8,400,,,
sequence,flow.Sequence,4_99,2023-09-13T23:22:26.618Z,,0,,,44483.59899999853,completion,,,,,false,,,,791450.1000000015,791431.8999999985,746931.635,746941.200000003,746948.301,791463.684,8,400,,,
trial,html.Screen,4_100_0,2023-09-13T23:22:30.142Z,,0,3,,3509.9160000014817,response,ISIC_0059547.JPG,8,ISIC_0014684.JPG,ISIC_0059547.JPG,false,1,keypress(m),500,794974,794973.6000000015,791447.018,791450.200000003,791463.684,794980.758,8,400,1,,ISIC_0014684.JPG
break,html.Screen,4_100_1,2023-09-13T23:22:30.143Z,,0,,,NaN,,,,,,false,,,,794975,794974.700000003,,794974.299999997,,794980.758,8,400,,,
break_continue,html.Screen,4_100_2,2023-09-13T23:22:30.143Z,,0,,,NaN,,,,,,false,,,,794975.299999997,794975.299999997,,794975.1000000015,,794980.758,8,400,,,
sequence,flow.Sequence,4_100,2023-09-13T23:22:30.143Z,,0,,,3511.6159999970114,completion,,,,,false,,,,794975.6000000015,794975.299999997,791447.018,791450.200000003,791463.684,794980.758,8,400,,,
trial,html.Screen,4_101_0,2023-09-13T23:22:33.284Z,,0,3,,3135.3420000014594,response,ISIC_2105563.JPG,6,ISIC_0001140.JPG,ISIC_0001140.JPG,false,0,keypress(z),500,798116.6000000015,798116.1000000015,794964.092,794975.700000003,794980.758,798130.632,8,400,2,,ISIC_2105563.JPG
break,html.Screen,4_101_1,2023-09-13T23:22:33.285Z,,0,,,NaN,,,,,,false,,,,798117.5,798117.299999997,,798116.8999999985,,798130.632,8,400,,,
break_continue,html.Screen,4_101_2,2023-09-13T23:22:33.286Z,,0,,,NaN,,,,,,false,,,,798118.1000000015,798117.799999997,,798117.6000000015,,798130.632,8,400,,,
sequence,flow.Sequence,4_101,2023-09-13T23:22:33.286Z,,0,,,3137.041999996989,completion,,,,,false,,,,798118.200000003,798117.799999997,794964.092,794975.6000000015,794980.758,798130.632,8,400,,,
trial,html.Screen,4_102_0,2023-09-13T23:22:36.459Z,,0,3,,3160.1679999970365,response,ISIC_5063476.JPG,7,ISIC_0025900.JPG,ISIC_5063476.JPG,false,1,keypress(m),500,801291.299999997,801290.799999997,798113.966,798118.299999997,798130.632,801297.172,8,400,3,,ISIC_0025900.JPG
break,html.Screen,4_102_1,2023-09-13T23:22:36.460Z,,0,,,NaN,,,,,,false,,,,801292.200000003,801292.1000000015,,801291.6000000015,,801297.172,8,400,,,
break_continue,html.Screen,4_102_2,2023-09-13T23:22:36.460Z,,0,,,NaN,,,,,,false,,,,801292.6000000015,801292.6000000015,,801292.3999999985,,801297.172,8,400,,,
sequence,flow.Sequence,4_102,2023-09-13T23:22:36.461Z,,0,,,3161.968000001507,completion,,,,,false,,,,801292.8999999985,801292.6000000015,798113.966,798118.299999997,798130.632,801297.172,8,400,,,
trial,html.Screen,4_103_0,2023-09-13T23:22:40.446Z,,0,3,,3980.8279999999795,response,ISIC_0013184.JPG,8,ISIC_0006331.JPG,ISIC_0013184.JPG,false,1,keypress(m),500,805278.3999999985,805278,801280.506,801292.8999999985,801297.172,805281.896,8,400,4,,ISIC_0006331.JPG
break,html.Screen,4_103_1,2023-09-13T23:22:40.447Z,,0,,,NaN,,,,,,false,,,,805279.3999999985,805279.200000003,,805278.700000003,,805281.896,8,400,,,
break_continue,html.Screen,4_103_2,2023-09-13T23:22:40.447Z,,0,,,NaN,,,,,,false,,,,805279.700000003,805279.6000000015,,805279.6000000015,,805281.896,8,400,,,
sequence,flow.Sequence,4_103,2023-09-13T23:22:40.448Z,,0,,,3982.4280000014696,completion,,,,,false,,,,805279.8999999985,805279.6000000015,801280.506,801292.8999999985,801297.172,805281.896,8,400,,,
trial,html.Screen,4_104_0,2023-09-13T23:22:43.813Z,,0,3,,3363.00399999856,response,ISIC_1885174.JPG,6,ISIC_0004667.JPG,ISIC_1885174.JPG,false,1,keypress(m),500,808645.200000003,808644.8999999985,805265.23,805280.1000000015,805281.896,808648.428,8,400,5,,ISIC_0004667.JPG
break,html.Screen,4_104_1,2023-09-13T23:22:43.814Z,,0,,,NaN,,,,,,false,,,,808646.299999997,808646.1000000015,,808645.6000000015,,808648.428,8,400,,,
break_continue,html.Screen,4_104_2,2023-09-13T23:22:43.814Z,,0,,,NaN,,,,,,false,,,,808646.6000000015,808646.6000000015,,808646.3999999985,,808648.428,8,400,,,
sequence,flow.Sequence,4_104,2023-09-13T23:22:43.814Z,,0,,,3364.7040000015404,completion,,,,,false,,,,808646.8999999985,808646.6000000015,805265.23,805280,805281.896,808648.428,8,400,,,
trial,html.Screen,4_105_0,2023-09-13T23:22:47.196Z,,0,3,,3379.4719999985537,response,ISIC_2007396.JPG,8,ISIC_0032630.JPG,ISIC_2007396.JPG,false,1,keypress(m),500,812028.299999997,812027.8999999985,808631.762,808647,808648.428,812031.626,8,400,6,,ISIC_0032630.JPG
break,html.Screen,4_105_1,2023-09-13T23:22:47.197Z,,0,,,NaN,,,,,,false,,,,812029.299999997,812029.1000000015,,812028.700000003,,812031.626,8,400,,,
break_continue,html.Screen,4_105_2,2023-09-13T23:22:47.197Z,,0,,,NaN,,,,,,false,,,,812029.700000003,812029.6000000015,,812029.3999999985,,812031.626,8,400,,,
sequence,flow.Sequence,4_105,2023-09-13T23:22:47.197Z,,0,,,3381.172000001534,completion,,,,,false,,,,812029.8999999985,812029.6000000015,808631.762,808646.8999999985,808648.428,812031.626,8,400,,,
trial,html.Screen,4_106_0,2023-09-13T23:22:51.027Z,,0,3,,3827.9740000014426,response,ISIC_4898865.JPG,8,ISIC_0000024.JPG,ISIC_0000024.JPG,false,0,keypress(z),500,815860,815859.6000000015,812014.96,812030,812031.626,815865.305,8,400,7,,ISIC_4898865.JPG
break,html.Screen,4_106_1,2023-09-13T23:22:51.028Z,,0,,,NaN,,,,,,false,,,,815861,815860.799999997,,815860.299999997,,815865.305,8,400,,,
break_continue,html.Screen,4_106_2,2023-09-13T23:22:51.029Z,,0,,,NaN,,,,,,false,,,,815861.299999997,815861.200000003,,815861.1000000015,,815865.305,8,400,,,
sequence,flow.Sequence,4_106,2023-09-13T23:22:51.029Z,,0,,,3829.5740000029327,completion,,,,,false,,,,815861.6000000015,815861.200000003,812014.96,812030,812031.626,815865.305,8,400,,,
trial,html.Screen,4_107_0,2023-09-13T23:22:56.202Z,,0,3,,5168.4949999969685,response,ISIC_4350093.JPG,8,ISIC_3281565.JPG,ISIC_4350093.JPG,false,1,keypress(m),500,821034.299999997,821033.799999997,815848.639,815861.700000003,815865.305,821048.431,8,400,8,,ISIC_3281565.JPG
break,html.Screen,4_107_1,2023-09-13T23:22:56.203Z,,0,,,NaN,,,,,,false,,,,821035.200000003,821035.1000000015,,821034.5,,821048.431,8,400,,,
break_continue,html.Screen,4_107_2,2023-09-13T23:22:56.203Z,,0,,,NaN,,,,,,false,,,,821035.6000000015,821035.5,,821035.3999999985,,821048.431,8,400,,,
sequence,flow.Sequence,4_107,2023-09-13T23:22:56.203Z,,0,,,5170.194999999949,completion,,,,,false,,,,821035.799999997,821035.5,815848.639,815861.700000003,815865.305,821048.431,8,400,,,
trial,html.Screen,4_108_0,2023-09-13T23:22:59.009Z,,0,3,,2792.669000001508,response,ISIC_5157775.JPG,8,ISIC_3301933.JPG,ISIC_3301933.JPG,false,0,keypress(z),500,823841.5,823841.1000000015,821031.765,821035.8999999985,821048.431,823848.756,8,400,9,,ISIC_5157775.JPG
break,html.Screen,4_108_1,2023-09-13T23:22:59.010Z,,0,,,NaN,,,,,,false,,,,823842.5,823842.299999997,,823841.799999997,,823848.756,8,400,,,
break_continue,html.Screen,4_108_2,2023-09-13T23:22:59.010Z,,0,,,NaN,,,,,,false,,,,823842.8999999985,823842.700000003,,823842.6000000015,,823848.756,8,400,,,
sequence,flow.Sequence,4_108,2023-09-13T23:22:59.010Z,,0,,,2794.269000002998,completion,,,,,false,,,,823843.1000000015,823842.700000003,821031.765,821035.8999999985,821048.431,823848.756,8,400,,,
trial,html.Screen,4_109_0,2023-09-13T23:23:03.244Z,,0,3,,4227.143999998458,response,ISIC_5122220.JPG,8,ISIC_0034237.JPG,ISIC_0034237.JPG,false,0,keypress(z),500,828076.200000003,828075.8999999985,823832.09,823843.200000003,823848.756,828081.92,8,400,10,,ISIC_5122220.JPG
break,html.Screen,4_109_1,2023-09-13T23:23:03.245Z,,0,,,NaN,,,,,,false,,,,828077.200000003,828077,,828076.6000000015,,828081.92,8,400,,,
break_continue,html.Screen,4_109_2,2023-09-13T23:23:03.245Z,,0,,,NaN,,,,,,false,,,,828077.6000000015,828077.3999999985,,828077.3999999985,,828081.92,8,400,,,
sequence,flow.Sequence,4_109,2023-09-13T23:23:03.245Z,,0,,,4228.643999998458,completion,,,,,false,,,,828077.799999997,828077.3999999985,823832.09,823843.200000003,823848.756,828081.92,8,400,,,
trial,html.Screen,4_110_0,2023-09-13T23:23:07.378Z,,0,3,,4128.979999998468,response,ISIC_7491389.JPG,7,ISIC_2642873.JPG,ISIC_7491389.JPG,false,1,keypress(m),500,832211.200000003,832210.8999999985,828065.254,828077.8999999985,828081.92,832215.088,8,400,11,,ISIC_2642873.JPG
break,html.Screen,4_110_1,2023-09-13T23:23:07.379Z,,0,,,NaN,,,,,,false,,,,832211.8999999985,832211.700000003,,832211.3999999985,,832215.088,8,400,,,
break_continue,html.Screen,4_110_2,2023-09-13T23:23:07.379Z,,0,,,NaN,,,,,,false,,,,832212.1000000015,832212.1000000015,,832212,,832215.088,8,400,,,
sequence,flow.Sequence,4_110,2023-09-13T23:23:07.380Z,,0,,,4130.180000001448,completion,,,,,false,,,,832212.299999997,832212.1000000015,828065.254,828077.799999997,828081.92,832215.088,8,400,,,
trial,html.Screen,4_111_0,2023-09-13T23:23:10.219Z,,0,3,,2836.412000000011,response,ISIC_7475827.JPG,7,ISIC_1860707.JPG,ISIC_1860707.JPG,false,0,keypress(z),500,835051.8999999985,835051.5,832198.422,832212.299999997,832215.088,835065.395,8,400,12,,ISIC_7475827.JPG
break,html.Screen,4_111_1,2023-09-13T23:23:10.220Z,,0,,,NaN,,,,,,false,,,,835052.8999999985,835052.700000003,,835052.200000003,,835065.395,8,400,,,
break_continue,html.Screen,4_111_2,2023-09-13T23:23:10.221Z,,0,,,NaN,,,,,,false,,,,835053.299999997,835053.1000000015,,835053,,835065.395,8,400,,,
sequence,flow.Sequence,4_111,2023-09-13T23:23:10.221Z,,0,,,2838.0120000015013,completion,,,,,false,,,,835053.5,835053.1000000015,832198.422,832212.299999997,832215.088,835065.395,8,400,,,
trial,html.Screen,4_112_0,2023-09-13T23:23:14.156Z,,0,3,,3923.3050000029616,response,ISIC_0046224.JPG,8,ISIC_2152875.JPG,ISIC_0046224.JPG,false,1,keypress(m),500,838989.200000003,838988.700000003,835048.729,835053.6000000015,835065.395,838998.571,8,400,13,,ISIC_2152875.JPG
break,html.Screen,4_112_1,2023-09-13T23:23:14.157Z,,0,,,NaN,,,,,,false,,,,838990.200000003,838989.8999999985,,838989.3999999985,,838998.571,8,400,,,
break_continue,html.Screen,4_112_2,2023-09-13T23:23:14.158Z,,0,,,NaN,,,,,,false,,,,838990.5,838990.299999997,,838990.200000003,,838998.571,8,400,,,
sequence,flow.Sequence,4_112,2023-09-13T23:23:14.158Z,,0,,,3924.904999997001,completion,,,,,false,,,,838990.700000003,838990.299999997,835048.729,835053.6000000015,835065.395,838998.571,8,400,,,
trial,html.Screen,4_113_0,2023-09-13T23:23:18.035Z,,0,3,,3868.4290000000037,response,ISIC_0030481.JPG,8,ISIC_5391190.JPG,ISIC_5391190.JPG,false,0,keypress(z),500,842867.299999997,842867,838981.905,838990.799999997,838998.571,842881.749,8,400,14,,ISIC_0030481.JPG
break,html.Screen,4_113_1,2023-09-13T23:23:18.035Z,,0,,,NaN,,,,,,false,,,,842868.299999997,842868.1000000015,,842867.6000000015,,842881.749,8,400,,,
break_continue,html.Screen,4_113_2,2023-09-13T23:23:18.036Z,,0,,,NaN,,,,,,false,,,,842868.700000003,842868.6000000015,,842868.3999999985,,842881.749,8,400,,,
sequence,flow.Sequence,4_113,2023-09-13T23:23:18.036Z,,0,,,3870.029000001494,completion,,,,,false,,,,842868.8999999985,842868.6000000015,838981.905,838990.799999997,838998.571,842881.749,8,400,,,
trial,html.Screen,4_114_0,2023-09-13T23:23:22.329Z,,0,3,,4279.351000001538,response,ISIC_0033520.JPG,8,ISIC_0033119.JPG,ISIC_0033119.JPG,false,0,keypress(z),500,847161.5,847161.1000000015,842865.083,842869,842881.749,847165.319,8,400,15,,ISIC_0033520.JPG
break,html.Screen,4_114_1,2023-09-13T23:23:22.330Z,,0,,,NaN,,,,,,false,,,,847162.6000000015,847162.299999997,,847161.799999997,,847165.319,8,400,,,
break_continue,html.Screen,4_114_2,2023-09-13T23:23:22.330Z,,0,,,NaN,,,,,,false,,,,847162.8999999985,847162.799999997,,847162.700000003,,847165.319,8,400,,,
sequence,flow.Sequence,4_114,2023-09-13T23:23:22.330Z,,0,,,4281.050999997067,completion,,,,,false,,,,847163,847162.799999997,842865.083,842869,842881.749,847165.319,8,400,,,
trial,html.Screen,4_115_0,2023-09-13T23:23:26.448Z,,0,3,,4114.8810000029625,response,ISIC_6577632.JPG,7,ISIC_4552230.JPG,ISIC_4552230.JPG,false,0,keypress(z),500,851280.6000000015,851280.200000003,847148.653,847163.200000003,847165.319,851281.821,8,400,16,,ISIC_6577632.JPG
break,html.Screen,4_115_1,2023-09-13T23:23:26.449Z,,0,,,NaN,,,,,,false,,,,851281.6000000015,851281.3999999985,,851280.8999999985,,851281.821,8,400,,,
break_continue,html.Screen,4_115_2,2023-09-13T23:23:26.449Z,,0,,,NaN,,,,,,false,,,,851282,851281.8999999985,,851281.799999997,,851281.821,8,400,,,
sequence,flow.Sequence,4_115,2023-09-13T23:23:26.449Z,,0,,,4116.580999998492,completion,,,,,false,,,,851282.1000000015,851281.8999999985,847148.653,847163.200000003,847165.319,851281.821,8,400,,,
trial,html.Screen,4_116_0,2023-09-13T23:23:30.151Z,,0,3,,3701.1790000000037,response,ISIC_0624779.JPG,4,ISIC_1380069.JPG,ISIC_1380069.JPG,false,0,keypress(z),500,854983.6000000015,854983,851265.155,851282.299999997,851281.821,854998.834,8,400,17,,ISIC_0624779.JPG
break,html.Screen,4_116_1,2023-09-13T23:23:30.152Z,,0,,,NaN,,,,,,false,,,,854984.6000000015,854984.299999997,,854983.799999997,,854998.834,8,400,,,
break_continue,html.Screen,4_116_2,2023-09-13T23:23:30.152Z,,0,,,NaN,,,,,,false,,,,854984.8999999985,854984.799999997,,854984.700000003,,854998.834,8,400,,,
sequence,flow.Sequence,4_116,2023-09-13T23:23:30.152Z,,0,,,3702.9789999970235,completion,,,,,false,,,,854985,854984.799999997,851265.155,851282.200000003,851281.821,854998.834,8,400,,,
trial,html.Screen,4_117_0,2023-09-13T23:23:33.550Z,,0,3,,3383.3660000029486,response,ISIC_0027187.JPG,8,ISIC_0691454.JPG,ISIC_0027187.JPG,false,1,keypress(m),500,858382.700000003,858382.200000003,854982.168,854985.1000000015,854998.834,858398.698,8,400,18,,ISIC_0691454.JPG
break,html.Screen,4_117_1,2023-09-13T23:23:33.551Z,,0,,,NaN,,,,,,false,,,,858383.799999997,858383.5,,858383,,858398.698,8,400,,,
break_continue,html.Screen,4_117_2,2023-09-13T23:23:33.551Z,,0,,,NaN,,,,,,false,,,,858384.1000000015,858384,,858383.8999999985,,858398.698,8,400,,,
sequence,flow.Sequence,4_117,2023-09-13T23:23:33.551Z,,0,,,3385.1659999999683,completion,,,,,false,,,,858384.3999999985,858384,854982.168,854985,854998.834,858398.698,8,400,,,
trial,html.Screen,4_118_0,2023-09-13T23:23:38.493Z,,0,3,,4926.701999998535,response,ISIC_9593940.JPG,9,ISIC_0067511.JPG,ISIC_0067511.JPG,false,0,keypress(z),500,863325.799999997,863325.3999999985,858382.032,858384.3999999985,858398.698,863331.834,8,400,19,,ISIC_9593940.JPG
break,html.Screen,4_118_1,2023-09-13T23:23:38.494Z,,0,,,NaN,,,,,,false,,,,863326.799999997,863326.6000000015,,863326.1000000015,,863331.834,8,400,,,
break_continue,html.Screen,4_118_2,2023-09-13T23:23:38.494Z,,0,,,NaN,,,,,,false,,,,863327.5,863327.299999997,,863327.1000000015,,863331.834,8,400,,,
sequence,flow.Sequence,4_118,2023-09-13T23:23:38.495Z,,0,,,4928.601999997045,completion,,,,,false,,,,863327.700000003,863327.299999997,858382.032,858384.3999999985,858398.698,863331.834,8,400,,,
trial,html.Screen,4_119_0,2023-09-13T23:23:41.698Z,,0,3,,3198.8660000029486,response,ISIC_1532684.JPG,8,ISIC_0024229.JPG,ISIC_0024229.JPG,false,0,keypress(z),500,866531.200000003,866530.700000003,863315.168,863327.799999997,863331.834,866532.146,8,400,20,,ISIC_1532684.JPG
break,html.Screen,4_119_1,2023-09-13T23:23:41.699Z,,0,,,NaN,,,,,,false,,,,866532.200000003,866531.8999999985,,866531.3999999985,,866532.146,8,400,,,
break_continue,html.Screen,4_119_2,2023-09-13T23:23:41.699Z,,0,,,NaN,,,,,,false,,,,866532.6000000015,866532.3999999985,,866532.299999997,,866532.146,8,400,,,
sequence,flow.Sequence,4_119,2023-09-13T23:23:41.700Z,,0,,,3200.565999998478,completion,,,,,false,,,,866532.700000003,866532.3999999985,863315.168,863327.700000003,863331.834,866532.146,8,400,,,
trial,html.Screen,4_120_0,2023-09-13T23:23:46.329Z,,0,3,,4629.25399999856,response,ISIC_0025814.JPG,6,ISIC_0014229.JPG,ISIC_0025814.JPG,false,1,keypress(m),500,871161.8999999985,871161.3999999985,866515.48,866532.8999999985,866532.146,871165.294,8,400,21,,ISIC_0014229.JPG
break,html.Screen,4_120_1,2023-09-13T23:23:46.330Z,,0,,,NaN,,,,,,false,,,,871163,871162.799999997,,871162.299999997,,871165.294,8,400,,,
break_continue,html.Screen,4_120_2,2023-09-13T23:23:46.330Z,,0,,,NaN,,,,,,false,,,,871163.299999997,871163.299999997,,871163.200000003,,871165.294,8,400,,,
sequence,flow.Sequence,4_120,2023-09-13T23:23:46.330Z,,0,,,4631.15399999707,completion,,,,,false,,,,871163.3999999985,871163.299999997,866515.48,866532.8999999985,866532.146,871165.294,8,400,,,
trial,html.Screen,4_121_0,2023-09-13T23:23:49.535Z,,0,3,,3202.5059999970254,response,ISIC_6392089.JPG,7,ISIC_3945916.JPG,ISIC_3945916.JPG,false,0,keypress(z),500,874368.299999997,874367.799999997,871148.628,871163.6000000015,871165.294,874381.832,8,400,22,,ISIC_6392089.JPG
break,html.Screen,4_121_1,2023-09-13T23:23:49.536Z,,0,,,NaN,,,,,,false,,,,874369.299999997,874369.1000000015,,874368.6000000015,,874381.832,8,400,,,
break_continue,html.Screen,4_121_2,2023-09-13T23:23:49.537Z,,0,,,NaN,,,,,,false,,,,874369.700000003,874369.6000000015,,874369.5,,874381.832,8,400,,,
sequence,flow.Sequence,4_121,2023-09-13T23:23:49.537Z,,0,,,3204.3060000014957,completion,,,,,false,,,,874369.8999999985,874369.6000000015,871148.628,871163.6000000015,871165.294,874381.832,8,400,,,
trial,html.Screen,4_122_0,2023-09-13T23:23:52.582Z,,0,3,,3033.368000002927,response,ISIC_8297563.JPG,7,ISIC_0070342.JPG,ISIC_0070342.JPG,false,0,keypress(z),500,877415.700000003,877415.200000003,874365.166,874370,874381.832,877432.157,8,400,23,,ISIC_8297563.JPG
break,html.Screen,4_122_1,2023-09-13T23:23:52.583Z,,0,,,NaN,,,,,,false,,,,877416.5,877416.299999997,,877415.8999999985,,877432.157,8,400,,,
break_continue,html.Screen,4_122_2,2023-09-13T23:23:52.584Z,,0,,,NaN,,,,,,false,,,,877416.700000003,877416.6000000015,,877416.6000000015,,877432.157,8,400,,,
sequence,flow.Sequence,4_122,2023-09-13T23:23:52.584Z,,0,,,3034.768000001437,completion,,,,,false,,,,877416.8999999985,877416.6000000015,874365.166,874370,874381.832,877432.157,8,400,,,
trial,html.Screen,4_123_0,2023-09-13T23:23:56.020Z,,0,3,,3420.2429999985034,response,ISIC_5354827.JPG,5,ISIC_0034164.JPG,ISIC_0034164.JPG,false,0,keypress(z),500,880852.8999999985,880852.3999999985,877415.491,877416.8999999985,877432.157,880865.353,8,400,24,,ISIC_5354827.JPG
break,html.Screen,4_123_1,2023-09-13T23:23:56.021Z,,0,,,NaN,,,,,,false,,,,880853.8999999985,880853.700000003,,880853.200000003,,880865.353,8,400,,,
break_continue,html.Screen,4_123_2,2023-09-13T23:23:56.021Z,,0,,,NaN,,,,,,false,,,,880854.299999997,880854.200000003,,880854,,880865.353,8,400,,,
sequence,flow.Sequence,4_123,2023-09-13T23:23:56.021Z,,0,,,3422.0430000029737,completion,,,,,false,,,,880854.5,880854.200000003,877415.491,877416.8999999985,877432.157,880865.353,8,400,,,
trial,html.Screen,4_124_0,2023-09-13T23:23:59.018Z,,0,3,,2985.546999998507,response,ISIC_1247683.JPG,6,ISIC_0064979.JPG,ISIC_1247683.JPG,false,1,keypress(m),500,883851.299999997,883850.8999999985,880848.687,880854.6000000015,880865.353,883865.233,8,400,25,,ISIC_0064979.JPG
break,html.Screen,4_124_1,2023-09-13T23:23:59.019Z,,0,,,NaN,,,,,,false,,,,883852.299999997,883852.1000000015,,883851.700000003,,883865.233,8,400,,,
break_continue,html.Screen,4_124_2,2023-09-13T23:23:59.019Z,,0,,,NaN,,,,,,false,,,,883852.799999997,883852.6000000015,,883852.5,,883865.233,8,400,,,
sequence,flow.Sequence,4_124,2023-09-13T23:23:59.020Z,,0,,,2987.2470000014873,completion,,,,,false,,,,883852.8999999985,883852.6000000015,880848.687,880854.6000000015,880865.353,883865.233,8,400,,,
trial,html.Screen,4_125_0,2023-09-13T23:24:02.669Z,,0,3,,3636.7669999999925,response,ISIC_0062524.JPG,6,ISIC_5768602.JPG,ISIC_5768602.JPG,false,0,keypress(z),500,887502.3999999985,887502,883848.567,883853,883865.233,887515.581,8,400,26,,ISIC_0062524.JPG
break,html.Screen,4_125_1,2023-09-13T23:24:02.670Z,,0,,,NaN,,,,,,false,,,,887503.3999999985,887503.1000000015,,887502.700000003,,887515.581,8,400,,,
break_continue,html.Screen,4_125_2,2023-09-13T23:24:02.670Z,,0,,,NaN,,,,,,false,,,,887503.700000003,887503.6000000015,,887503.5,,887515.581,8,400,,,
sequence,flow.Sequence,4_125,2023-09-13T23:24:02.671Z,,0,,,3638.3670000014827,completion,,,,,false,,,,887503.8999999985,887503.6000000015,883848.567,883853,883865.233,887515.581,8,400,,,
trial,html.Screen,4_126_0,2023-09-13T23:24:06.644Z,,0,3,,3961.1190000029746,response,ISIC_3466769.JPG,8,ISIC_0002939.JPG,ISIC_0002939.JPG,false,0,keypress(z),500,891477.1000000015,891476.700000003,887498.915,887504.1000000015,887515.581,891482.089,8,400,27,,ISIC_3466769.JPG
break,html.Screen,4_126_1,2023-09-13T23:24:06.645Z,,0,,,NaN,,,,,,false,,,,891478.200000003,891477.8999999985,,891477.5,,891482.089,8,400,,,
break_continue,html.Screen,4_126_2,2023-09-13T23:24:06.645Z,,0,,,NaN,,,,,,false,,,,891478.5,891478.5,,891478.299999997,,891482.089,8,400,,,
sequence,flow.Sequence,4_126,2023-09-13T23:24:06.645Z,,0,,,3962.9189999999944,completion,,,,,false,,,,891478.700000003,891478.5,887498.915,887504,887515.581,891482.089,8,400,,,
trial,html.Screen,4_127_0,2023-09-13T23:24:10.648Z,,0,3,,3998.9109999999637,response,ISIC_0060946.JPG,7,ISIC_1150482.JPG,ISIC_0060946.JPG,false,1,keypress(m),500,895481.299999997,895481,891465.423,891478.8999999985,891482.089,895498.595,8,400,28,,ISIC_1150482.JPG
