sender,sender_type,sender_id,timestamp,meta,,blockNo,condition,duration,ended_on,img_left,img_reveal,img_right,loser,practice,response,response_action,selection_duration,time_commit,time_end,time_render,time_run,time_show,time_switch,total_blocks,total_trials,trialNo,url,winner
informed_consent,html.Screen,0,2023-09-13T00:01:07.010Z,"{""labjs_version"":""20.2.4"",""labjs_build"":{""flavor"":""production"",""commit"":""f5b4a49f956347addd546a832a3327688c2c0fef""},""location"":""https://run.pavlovia.org/MurrayBennett/melanoma-2afc/?participant=67319&platform=sona"",""userAgent"":""Mozilla/5.0 (Windows NT 10.0; Win64; x64) AppleWebKit/537.36 (KHTML, like Gecko) Chrome/116.0.0.0 Safari/537.36"",""platform"":""Win32"",""language"":""en-US"",""locale"":""en-US"",""timeZone"":""America/Chicago"",""timezoneOffset"":300,""screen_width"":1536,""screen_height"":864,""scroll_width"":1536,""scroll_height"":667,""window_innerWidth"":1536,""window_innerHeight"":715,""devicePixelRatio"":1.25}",,,,10831.43,response,,,,,,consent,click button,,15236,15221.5,4373.353,4377,4390.07,15272.931,,,,"{""participant"":""67319"",""platform"":""sona""}",
Welcome,html.Screen,1,2023-09-13T00:01:24.572Z,,,,symmetry,17520.86900114441,response,,,,,,continue,click button,,32798,32793.80000114441,15239.608,15236.80000114441,15272.931,32814.166,,,,,
trial,html.Screen,2_0_0,2023-09-13T00:01:36.066Z,,0,0,,11507.798999999999,timeout,ISIC_6997061.JPG,,ISIC_0069348.JPG,,true,,,500,44291.30000114441,44290.39999961853,32789.179,32799.5,32814.166,44321.965,1,6,1,,
sequence,flow.Sequence,2_0,2023-09-13T00:01:36.067Z,,0,,,11476.233999618533,completion,,,,,true,,,,44292.5,44290.39999961853,32789.179,32799.20000076294,32814.166,44321.965,1,6,,,
trial,html.Screen,2_1_0,2023-09-13T00:01:47.589Z,,0,0,,11524.513000000006,timeout,ISIC_0057368.JPG,,ISIC_0009529.JPG,,true,,,500,55814.70000076294,55814.20000076294,44305.392,44292.89999961853,44321.965,55846.478,1,6,2,,
sequence,flow.Sequence,2_1,2023-09-13T00:01:47.590Z,,0,,,11492.235000762943,completion,,,,,true,,,,55815.20000076294,55814.20000076294,44305.392,44292.80000114441,44321.965,55846.478,1,6,,,
trial,html.Screen,2_2_0,2023-09-13T00:01:52.420Z,,0,0,,4795.222000762937,response,ISIC_0064954.JPG,,ISIC_9758671.JPG,ISIC_9758671.JPG,true,0,keypress(Z),500,60642.39999961853,60641.70000076294,55829.78,55815.60000038147,55846.478,60654.666,1,6,3,,ISIC_0064954.JPG
sequence,flow.Sequence,2_2,2023-09-13T00:01:52.420Z,,0,,,4795.222000762937,completion,,,,,true,,,,60643.10000038147,60641.70000076294,55829.78,55815.39999961853,55846.478,60654.666,1,6,,,
trial,html.Screen,2_3_0,2023-09-13T00:01:55.529Z,,0,0,,3096.8340000000026,response,ISIC_0000080.JPG,,ISIC_0005785.JPG,ISIC_0005785.JPG,true,0,keypress(Z),500,63752,63751.5,60638.02,60643.60000038147,60654.666,63779.948,1,6,4,,ISIC_0000080.JPG
sequence,flow.Sequence,2_3,2023-09-13T00:01:55.530Z,,0,,,3096.8340000000026,completion,,,,,true,,,,63753.20000076294,63751.5,60638.02,60643.39999961853,60654.666,63779.948,1,6,,,
trial,html.Screen,2_4_0,2023-09-13T00:02:07.050Z,,0,0,,11524.235000000008,timeout,ISIC_5390060.JPG,,ISIC_7944028.JPG,,true,,,500,75272.5,75271.80000114441,63762.958,63753.60000038147,63779.948,75304.183,1,6,5,,
sequence,flow.Sequence,2_4,2023-09-13T00:02:07.051Z,,0,,,11491.852001144412,completion,,,,,true,,,,75273.39999961853,75271.80000114441,63762.958,63753.39999961853,63779.948,75304.183,1,6,,,
trial,html.Screen,2_5_0,2023-09-13T00:02:14.519Z,,0,0,,7436.517000762935,response,ISIC_0010188.JPG,,ISIC_0794216.JPG,ISIC_0010188.JPG,true,1,keypress(m),500,82741.39999961853,82740.70000076294,75287.509,75273.89999961853,75304.183,82745.611,1,6,6,,ISIC_0794216.JPG
sequence,flow.Sequence,2_5,2023-09-13T00:02:14.519Z,,0,,,7436.517000762935,completion,,,,,true,,,,82742,82740.70000076294,75287.509,75273.80000114441,75304.183,82745.611,1,6,,,
loop,flow.Loop,2,2023-09-13T00:02:14.520Z,,,,,49926.53400076294,completion,,,,,true,,,,82742.5,82740.70000076294,32789.179,32798.70000076294,32814.166,82745.611,1,6,,,
exp_instructions,html.Screen,3,2023-09-13T00:02:18.927Z,,,,,4401.989000381465,response,,,,,,continue,keypress(Space),,87149.39999961853,87147.60000038147,82737.52,82742.70000076294,82745.611,87170.496,,,,,
trial,html.Screen,4_0_0,2023-09-13T00:02:23.149Z,,0,1,,4201.004000000001,response,ISIC_0030254.JPG,12,ISIC_0063061.JPG,ISIC_0030254.JPG,false,1,keypress(m),500,91372,91371.5,87145.471,87149.89999961853,87170.496,91378.675,8,400,1,,ISIC_0063061.JPG
break,html.Screen,4_0_1,2023-09-13T00:02:23.153Z,,0,,,NaN,,,,,,false,,,,91375.20000076294,91374.20000076294,,91372.5,,91378.675,8,400,,,
break_continue,html.Screen,4_0_2,2023-09-13T00:02:23.154Z,,0,,,NaN,,,,,,false,,,,91377.10000038147,91376.80000114441,,91375.5,,91378.675,8,400,,,
sequence,flow.Sequence,4_0,2023-09-13T00:02:23.155Z,,0,,,4206.30400114441,completion,,,,,false,,,,91377.60000038147,91376.80000114441,87145.471,87149.89999961853,87170.496,91378.675,8,400,,,
trial,html.Screen,4_1_0,2023-09-13T00:02:26.671Z,,0,1,,3514.7249996185274,response,ISIC_0058063.JPG,7,ISIC_3170155.JPG,ISIC_0058063.JPG,false,1,keypress(m),500,94893.89999961853,94893.39999961853,91362.37,91377.89999961853,91378.675,94928.54,8,400,2,,ISIC_3170155.JPG
break,html.Screen,4_1_1,2023-09-13T00:02:26.674Z,,0,,,NaN,,,,,,false,,,,94896.5,94895.70000076294,,94894.30000114441,,94928.54,8,400,,,
break_continue,html.Screen,4_1_2,2023-09-13T00:02:26.675Z,,0,,,NaN,,,,,,false,,,,94898,94897.60000038147,,94896.70000076294,,94928.54,8,400,,,
sequence,flow.Sequence,4_1,2023-09-13T00:02:26.676Z,,0,,,3518.925000381467,completion,,,,,false,,,,94898.30000114441,94897.60000038147,91362.37,91377.89999961853,91378.675,94928.54,8,400,,,
trial,html.Screen,4_2_0,2023-09-13T00:02:29.715Z,,0,1,,3009.060000381476,response,ISIC_0030597.JPG,14,ISIC_4341261.JPG,ISIC_4341261.JPG,false,0,keypress(z),500,97937.89999961853,97937.60000038147,94911.928,94898.60000038147,94928.54,97953.555,8,400,3,,ISIC_0030597.JPG
break,html.Screen,4_2_1,2023-09-13T00:02:29.718Z,,0,,,NaN,,,,,,false,,,,97940.30000114441,97939.70000076294,,97938.30000114441,,97953.555,8,400,,,
break_continue,html.Screen,4_2_2,2023-09-13T00:02:29.719Z,,0,,,NaN,,,,,,false,,,,97941.70000076294,97941.5,,97940.60000038147,,97953.555,8,400,,,
sequence,flow.Sequence,4_2,2023-09-13T00:02:29.719Z,,0,,,3012.9600000000064,completion,,,,,false,,,,97942.10000038147,97941.5,94911.928,94898.5,94928.54,97953.555,8,400,,,
trial,html.Screen,4_3_0,2023-09-13T00:02:33.202Z,,0,1,,3470.5450003814767,response,ISIC_3706743.JPG,8,ISIC_4288845.JPG,ISIC_4288845.JPG,false,0,keypress(z),500,101424.60000038147,101424.10000038147,97937.102,97942.30000114441,97953.555,101428.354,8,400,4,,ISIC_3706743.JPG
break,html.Screen,4_3_1,2023-09-13T00:02:33.204Z,,0,,,NaN,,,,,,false,,,,101427.10000038147,101426.39999961853,,101425,,101428.354,8,400,,,
break_continue,html.Screen,4_3_2,2023-09-13T00:02:33.206Z,,0,,,NaN,,,,,,false,,,,101428.60000038147,101428.30000114441,,101427.30000114441,,101428.354,8,400,,,
sequence,flow.Sequence,4_3,2023-09-13T00:02:33.206Z,,0,,,3474.745001144416,completion,,,,,false,,,,101429,101428.30000114441,97937.102,97942.20000076294,97953.555,101428.354,8,400,,,
trial,html.Screen,4_4_0,2023-09-13T00:02:36.814Z,,0,1,,3608.4460011444025,response,ISIC_4232756.JPG,10,ISIC_0009048.JPG,ISIC_4232756.JPG,false,1,keypress(m),500,105037.10000038147,105036.80000114441,101412.043,101429.30000114441,101428.354,105053.255,8,400,5,,ISIC_0009048.JPG
break,html.Screen,4_4_1,2023-09-13T00:02:36.817Z,,0,,,NaN,,,,,,false,,,,105039.5,105038.70000076294,,105037.5,,105053.255,8,400,,,
break_continue,html.Screen,4_4_2,2023-09-13T00:02:36.818Z,,0,,,NaN,,,,,,false,,,,105041,105040.60000038147,,105039.80000114441,,105053.255,8,400,,,
sequence,flow.Sequence,4_4,2023-09-13T00:02:36.819Z,,0,,,3612.246000381463,completion,,,,,false,,,,105041.30000114441,105040.60000038147,101412.043,101429.20000076294,101428.354,105053.255,8,400,,,
trial,html.Screen,4_5_0,2023-09-13T00:02:41.192Z,,0,1,,4360.845000381465,response,ISIC_9022005.JPG,10,ISIC_0014233.JPG,ISIC_0014233.JPG,false,0,keypress(z),500,109414.5,109414.10000038147,105028.603,105041.60000038147,105053.255,109428.091,8,400,6,,ISIC_9022005.JPG
break,html.Screen,4_5_1,2023-09-13T00:02:41.195Z,,0,,,NaN,,,,,,false,,,,109417.30000114441,109416.5,,109415.10000038147,,109428.091,8,400,,,
break_continue,html.Screen,4_5_2,2023-09-13T00:02:41.196Z,,0,,,NaN,,,,,,false,,,,109418.89999961853,109418.70000076294,,109417.70000076294,,109428.091,8,400,,,
sequence,flow.Sequence,4_5,2023-09-13T00:02:41.197Z,,0,,,4365.445000762935,completion,,,,,false,,,,109419.30000114441,109418.70000076294,105028.603,105041.39999961853,105053.255,109428.091,8,400,,,
trial,html.Screen,4_6_0,2023-09-13T00:02:44.325Z,,0,1,,3119.0090003814694,response,ISIC_0046618.JPG,12,ISIC_2415803.JPG,ISIC_0046618.JPG,false,1,keypress(m),500,112547.5,112547.10000038147,109411.757,109419.70000076294,109428.091,112552.956,8,400,7,,ISIC_2415803.JPG
break,html.Screen,4_6_1,2023-09-13T00:02:44.327Z,,0,,,NaN,,,,,,false,,,,112549.80000114441,112549.10000038147,,112547.80000114441,,112552.956,8,400,,,
break_continue,html.Screen,4_6_2,2023-09-13T00:02:44.328Z,,0,,,NaN,,,,,,false,,,,112551.20000076294,112550.89999961853,,112550,,112552.956,8,400,,,
sequence,flow.Sequence,4_6,2023-09-13T00:02:44.329Z,,0,,,3122.80899961853,completion,,,,,false,,,,112551.5,112550.89999961853,109411.757,109419.5,109428.091,112552.956,8,400,,,
trial,html.Screen,4_7_0,2023-09-13T00:02:47.149Z,,0,1,,2818.744000762934,response,ISIC_6272501.JPG,9,ISIC_0239949.JPG,ISIC_0239949.JPG,false,0,keypress(z),500,115372.10000038147,115371.70000076294,112536.644,112551.80000114441,112552.956,115377.87,8,400,8,,ISIC_6272501.JPG
break,html.Screen,4_7_1,2023-09-13T00:02:47.153Z,,0,,,NaN,,,,,,false,,,,115375.20000076294,115374.30000114441,,115372.60000038147,,115377.87,8,400,,,
break_continue,html.Screen,4_7_2,2023-09-13T00:02:47.154Z,,0,,,NaN,,,,,,false,,,,115376.89999961853,115376.70000076294,,115375.60000038147,,115377.87,8,400,,,
sequence,flow.Sequence,4_7,2023-09-13T00:02:47.157Z,,0,,,2823.744000762934,completion,,,,,false,,,,115379.89999961853,115376.70000076294,112536.644,112551.60000038147,112552.956,115377.87,8,400,,,
trial,html.Screen,4_8_0,2023-09-13T00:02:49.874Z,,0,1,,2717.930001144414,response,ISIC_2011408.JPG,6,ISIC_9593940.JPG,ISIC_9593940.JPG,false,0,keypress(z),500,118096.20000076294,118095.80000114441,115369.549,115380.30000114441,115377.87,118102.797,8,400,9,,ISIC_2011408.JPG
break,html.Screen,4_8_1,2023-09-13T00:02:49.876Z,,0,,,NaN,,,,,,false,,,,118099,118098.10000038147,,118096.60000038147,,118102.797,8,400,,,
break_continue,html.Screen,4_8_2,2023-09-13T00:02:49.878Z,,0,,,NaN,,,,,,false,,,,118100.80000114441,118100.39999961853,,118099.39999961853,,118102.797,8,400,,,
sequence,flow.Sequence,4_8,2023-09-13T00:02:49.878Z,,0,,,2722.529999618535,completion,,,,,false,,,,118101.10000038147,118100.39999961853,115369.549,115380.20000076294,115377.87,118102.797,8,400,,,
trial,html.Screen,4_9_0,2023-09-13T00:02:53.507Z,,0,1,,3626.702999999994,response,ISIC_0070805.JPG,11,ISIC_7412559.JPG,ISIC_0070805.JPG,false,1,keypress(m),500,121730,121729.5,118094.779,118101.5,118102.797,121744.381,8,400,10,,ISIC_7412559.JPG
break,html.Screen,4_9_1,2023-09-13T00:02:53.510Z,,0,,,NaN,,,,,,false,,,,121732.70000076294,121731.89999961853,,121730.30000114441,,121744.381,8,400,,,
break_continue,html.Screen,4_9_2,2023-09-13T00:02:53.512Z,,0,,,NaN,,,,,,false,,,,121734.20000076294,121734,,121732.89999961853,,121744.381,8,400,,,
sequence,flow.Sequence,4_9,2023-09-13T00:02:53.512Z,,0,,,3631.202999999994,completion,,,,,false,,,,121734.60000038147,121734,118094.779,118101.39999961853,118102.797,121744.381,8,400,,,
trial,html.Screen,4_10_0,2023-09-13T00:02:56.229Z,,0,1,,2706.8190007629455,response,ISIC_7518524.JPG,10,ISIC_0000446.JPG,ISIC_0000446.JPG,false,0,keypress(z),500,124451.70000076294,124451.20000076294,121728.025,121734.89999961853,121744.381,124460.877,8,400,11,,ISIC_7518524.JPG
break,html.Screen,4_10_1,2023-09-13T00:02:56.232Z,,0,,,NaN,,,,,,false,,,,124454.80000114441,124454,,124452.20000076294,,124460.877,8,400,,,
break_continue,html.Screen,4_10_2,2023-09-13T00:02:56.234Z,,0,,,NaN,,,,,,false,,,,124456.89999961853,124456.60000038147,,124455.20000076294,,124460.877,8,400,,,
sequence,flow.Sequence,4_10,2023-09-13T00:02:56.235Z,,0,,,2712.219000381476,completion,,,,,false,,,,124457.20000076294,124456.60000038147,121728.025,121734.80000114441,121744.381,124460.877,8,400,,,
trial,html.Screen,4_11_0,2023-09-13T00:02:59.809Z,,0,1,,3570.123000000007,response,ISIC_5325805.JPG,14,ISIC_0069121.JPG,ISIC_0069121.JPG,false,0,keypress(z),500,128031.39999961853,128031,124444.595,124457.60000038147,124460.877,128052.709,8,400,12,,ISIC_5325805.JPG
break,html.Screen,4_11_1,2023-09-13T00:02:59.811Z,,0,,,NaN,,,,,,false,,,,128033.60000038147,128033,,128031.80000114441,,128052.709,8,400,,,
break_continue,html.Screen,4_11_2,2023-09-13T00:02:59.812Z,,0,,,NaN,,,,,,false,,,,128034.80000114441,128034.60000038147,,128033.80000114441,,128052.709,8,400,,,
sequence,flow.Sequence,4_11,2023-09-13T00:02:59.812Z,,0,,,3573.7230003814766,completion,,,,,false,,,,128035.10000038147,128034.60000038147,124444.595,124457.5,124460.877,128052.709,8,400,,,
trial,html.Screen,4_12_0,2023-09-13T00:03:02.915Z,,0,1,,3085.0910011444066,response,ISIC_0029574.JPG,9,ISIC_8383600.JPG,ISIC_8383600.JPG,false,0,keypress(z),500,131138.10000038147,131137.8000011444,128035.78,128035.39999961853,128052.709,131143.988,8,400,13,,ISIC_0029574.JPG
break,html.Screen,4_12_1,2023-09-13T00:03:02.918Z,,0,,,NaN,,,,,,false,,,,131140.39999961853,131139.8000011444,,131138.39999961853,,131143.988,8,400,,,
break_continue,html.Screen,4_12_2,2023-09-13T00:03:02.919Z,,0,,,NaN,,,,,,false,,,,131141.70000076294,131141.5,,131140.60000038147,,131143.988,8,400,,,
sequence,flow.Sequence,4_12,2023-09-13T00:03:02.919Z,,0,,,3088.7909999999974,completion,,,,,false,,,,131142.10000038147,131141.5,128035.78,128035.30000114441,128052.709,131143.988,8,400,,,
trial,html.Screen,4_13_0,2023-09-13T00:03:06.016Z,,0,1,,3094.011999999988,response,ISIC_0030060.JPG,6,ISIC_2954564.JPG,ISIC_0030060.JPG,false,1,keypress(m),500,134238.3000011444,134238,131127.697,131142.3000011444,131143.988,134243.885,8,400,14,,ISIC_2954564.JPG
break,html.Screen,4_13_1,2023-09-13T00:03:06.018Z,,0,,,NaN,,,,,,false,,,,134240.8000011444,134239.89999961853,,134238.70000076294,,134243.885,8,400,,,
break_continue,html.Screen,4_13_2,2023-09-13T00:03:06.020Z,,0,,,NaN,,,,,,false,,,,134242.20000076294,134241.89999961853,,134241.10000038147,,134243.885,8,400,,,
sequence,flow.Sequence,4_13,2023-09-13T00:03:06.020Z,,0,,,3097.911999618518,completion,,,,,false,,,,134242.5,134241.89999961853,131127.697,131142.20000076294,131143.988,134243.885,8,400,,,
trial,html.Screen,4_14_0,2023-09-13T00:03:09.942Z,,0,1,,3920.31500076293,response,ISIC_0010319.JPG,11,ISIC_2092911.JPG,ISIC_0010319.JPG,false,1,keypress(m),500,138164.60000038147,138164.20000076294,134227.525,134242.70000076294,134243.885,138185.468,8,400,15,,ISIC_2092911.JPG
break,html.Screen,4_14_1,2023-09-13T00:03:09.944Z,,0,,,NaN,,,,,,false,,,,138167.10000038147,138166.3000011444,,138165,,138185.468,8,400,,,
break_continue,html.Screen,4_14_2,2023-09-13T00:03:09.946Z,,0,,,NaN,,,,,,false,,,,138168.5,138168.3000011444,,138167.39999961853,,138185.468,8,400,,,
sequence,flow.Sequence,4_14,2023-09-13T00:03:09.946Z,,0,,,3924.4150011444,completion,,,,,false,,,,138168.8000011444,138168.3000011444,134227.525,134242.70000076294,134243.885,138185.468,8,400,,,
trial,html.Screen,4_15_0,2023-09-13T00:03:13.174Z,,0,1,,3210.732000762946,response,ISIC_0011800.JPG,10,ISIC_2029418.JPG,ISIC_0011800.JPG,false,1,keypress(m),500,141396.60000038147,141396.20000076294,138160.81,138169.10000038147,138185.468,141401.967,8,400,16,,ISIC_2029418.JPG
break,html.Screen,4_15_1,2023-09-13T00:03:13.176Z,,0,,,NaN,,,,,,false,,,,141398.8000011444,141398.20000076294,,141396.89999961853,,141401.967,8,400,,,
break_continue,html.Screen,4_15_2,2023-09-13T00:03:13.178Z,,0,,,NaN,,,,,,false,,,,141400.10000038147,141399.89999961853,,141399.10000038147,,141401.967,8,400,,,
sequence,flow.Sequence,4_15,2023-09-13T00:03:13.178Z,,0,,,3214.431999618537,completion,,,,,false,,,,141400.39999961853,141399.89999961853,138160.81,138169.10000038147,138185.468,141401.967,8,400,,,
trial,html.Screen,4_16_0,2023-09-13T00:03:16.050Z,,0,1,,2870.7330007629353,response,ISIC_5152859.JPG,14,ISIC_7349772.JPG,ISIC_7349772.JPG,false,0,keypress(z),500,144273.10000038147,144272.70000076294,141385.338,141400.70000076294,141401.967,144293.806,8,400,17,,ISIC_5152859.JPG
break,html.Screen,4_16_1,2023-09-13T00:03:16.053Z,,0,,,NaN,,,,,,false,,,,144275.60000038147,144275,,144273.5,,144293.806,8,400,,,
break_continue,html.Screen,4_16_2,2023-09-13T00:03:16.055Z,,0,,,NaN,,,,,,false,,,,144277.3000011444,144276.89999961853,,144275.89999961853,,144293.806,8,400,,,
sequence,flow.Sequence,4_16,2023-09-13T00:03:16.055Z,,0,,,2874.932999618526,completion,,,,,false,,,,144277.70000076294,144276.89999961853,141385.338,141400.60000038147,141401.967,144293.806,8,400,,,
trial,html.Screen,4_17_0,2023-09-13T00:03:19.757Z,,0,1,,3685.593999618519,response,ISIC_2521424.JPG,6,ISIC_0871853.JPG,ISIC_2521424.JPG,false,1,keypress(m),500,147979.89999961853,147979.39999961853,144276.897,144278.10000038147,144293.806,148001.801,8,400,18,,ISIC_0871853.JPG
break,html.Screen,4_17_1,2023-09-13T00:03:19.760Z,,0,,,NaN,,,,,,false,,,,147982.39999961853,147981.70000076294,,147980.20000076294,,148001.801,8,400,,,
break_continue,html.Screen,4_17_2,2023-09-13T00:03:19.761Z,,0,,,NaN,,,,,,false,,,,147984.10000038147,147983.8000011444,,147982.70000076294,,148001.801,8,400,,,
sequence,flow.Sequence,4_17,2023-09-13T00:03:19.762Z,,0,,,3689.9940011443978,completion,,,,,false,,,,147984.39999961853,147983.8000011444,144276.897,144277.89999961853,144293.806,148001.801,8,400,,,
trial,html.Screen,4_18_0,2023-09-13T00:03:22.726Z,,0,1,,2945.8990007629327,response,ISIC_0064836.JPG,7,ISIC_0034180.JPG,ISIC_0034180.JPG,false,0,keypress(z),500,150948.20000076294,150947.70000076294,147968.787,147984.70000076294,148001.801,150951.666,8,400,19,,ISIC_0064836.JPG
break,html.Screen,4_18_1,2023-09-13T00:03:22.728Z,,0,,,NaN,,,,,,false,,,,150950.89999961853,150950,,150948.60000038147,,150951.666,8,400,,,
break_continue,html.Screen,4_18_2,2023-09-13T00:03:22.730Z,,0,,,NaN,,,,,,false,,,,150952.8000011444,150952.39999961853,,150951.3000011444,,150951.666,8,400,,,
sequence,flow.Sequence,4_18,2023-09-13T00:03:22.730Z,,0,,,2950.5989996185235,completion,,,,,false,,,,150953.10000038147,150952.39999961853,147968.787,147984.70000076294,148001.801,150951.666,8,400,,,
trial,html.Screen,4_19_0,2023-09-13T00:03:25.876Z,,0,1,,3147.034000762942,response,ISIC_0010171.JPG,8,ISIC_9596388.JPG,ISIC_0010171.JPG,false,1,keypress(m),500,154099.10000038147,154098.70000076294,150935.335,150953.39999961853,150951.666,154118.283,8,400,20,,ISIC_9596388.JPG
break,html.Screen,4_19_1,2023-09-13T00:03:25.879Z,,0,,,NaN,,,,,,false,,,,154102,154101.20000076294,,154099.60000038147,,154118.283,8,400,,,
break_continue,html.Screen,4_19_2,2023-09-13T00:03:25.881Z,,0,,,NaN,,,,,,false,,,,154103.70000076294,154103.5,,154102.3000011444,,154118.283,8,400,,,
sequence,flow.Sequence,4_19,2023-09-13T00:03:25.881Z,,0,,,3151.8340000000026,completion,,,,,false,,,,154104,154103.5,150935.335,150953.39999961853,150951.666,154118.283,8,400,,,
trial,html.Screen,4_20_0,2023-09-13T00:03:28.783Z,,0,1,,2886.817000381474,response,ISIC_7492530.JPG,9,ISIC_8791744.JPG,ISIC_8791744.JPG,false,0,keypress(z),500,157005.60000038147,157005.10000038147,154085.19,154104.3000011444,154118.283,157018.156,8,400,21,,ISIC_7492530.JPG
break,html.Screen,4_20_1,2023-09-13T00:03:28.785Z,,0,,,NaN,,,,,,false,,,,157008,157007.20000076294,,157005.89999961853,,157018.156,8,400,,,
break_continue,html.Screen,4_20_2,2023-09-13T00:03:28.787Z,,0,,,NaN,,,,,,false,,,,157009.5,157009.20000076294,,157008.39999961853,,157018.156,8,400,,,
sequence,flow.Sequence,4_20,2023-09-13T00:03:28.787Z,,0,,,2890.9170007629436,completion,,,,,false,,,,157009.8000011444,157009.20000076294,154085.19,154104.20000076294,154118.283,157018.156,8,400,,,
trial,html.Screen,4_21_0,2023-09-13T00:03:32.030Z,,0,1,,3234.144001144421,response,ISIC_0028718.JPG,7,ISIC_9406275.JPG,ISIC_9406275.JPG,false,0,keypress(z),500,160252.39999961853,160252.3000011444,157001.465,157010.10000038147,157018.156,160259.656,8,400,22,,ISIC_0028718.JPG
break,html.Screen,4_21_1,2023-09-13T00:03:32.031Z,,0,,,NaN,,,,,,false,,,,160253.70000076294,160253.3000011444,,160252.70000076294,,160259.656,8,400,,,
break_continue,html.Screen,4_21_2,2023-09-13T00:03:32.032Z,,0,,,NaN,,,,,,false,,,,160254.5,160254.3000011444,,160253.89999961853,,160259.656,8,400,,,
sequence,flow.Sequence,4_21,2023-09-13T00:03:32.032Z,,0,,,3236.144001144421,completion,,,,,false,,,,160254.70000076294,160254.3000011444,157001.465,157009.89999961853,157018.156,160259.656,8,400,,,
trial,html.Screen,4_22_0,2023-09-13T00:03:34.707Z,,0,1,,2669.5440007629513,response,ISIC_0029106.JPG,11,ISIC_5961619.JPG,ISIC_5961619.JPG,false,0,keypress(z),500,162929.39999961853,162929.20000076294,160251.278,160254.8000011444,160259.656,162951.212,8,400,23,,ISIC_0029106.JPG
break,html.Screen,4_22_1,2023-09-13T00:03:34.708Z,,0,,,NaN,,,,,,false,,,,162930.89999961853,162930.5,,162929.70000076294,,162951.212,8,400,,,
break_continue,html.Screen,4_22_2,2023-09-13T00:03:34.709Z,,0,,,NaN,,,,,,false,,,,162931.89999961853,162931.8000011444,,162931.10000038147,,162951.212,8,400,,,
sequence,flow.Sequence,4_22,2023-09-13T00:03:34.710Z,,0,,,2672.144001144421,completion,,,,,false,,,,162932.10000038147,162931.8000011444,160251.278,160254.8000011444,160259.656,162951.212,8,400,,,
trial,html.Screen,4_23_0,2023-09-13T00:03:37.554Z,,0,1,,2824.88800038147,response,ISIC_0024586.JPG,7,ISIC_6620748.JPG,ISIC_6620748.JPG,false,0,keypress(z),500,165776.3000011444,165776.10000038147,162917.866,162932.3000011444,162951.212,165792.772,8,400,24,,ISIC_0024586.JPG
break,html.Screen,4_23_1,2023-09-13T00:03:37.555Z,,0,,,NaN,,,,,,false,,,,165777.5,165777.10000038147,,165776.39999961853,,165792.772,8,400,,,
break_continue,html.Screen,4_23_2,2023-09-13T00:03:37.555Z,,0,,,NaN,,,,,,false,,,,165778.10000038147,165778,,165777.70000076294,,165792.772,8,400,,,
sequence,flow.Sequence,4_23,2023-09-13T00:03:37.556Z,,0,,,2826.7880000000005,completion,,,,,false,,,,165778.3000011444,165778,162917.866,162932.3000011444,162951.212,165792.772,8,400,,,
trial,html.Screen,4_24_0,2023-09-13T00:03:40.327Z,,0,1,,2756.528001144412,response,ISIC_3878174.JPG,8,ISIC_0057496.JPG,ISIC_3878174.JPG,false,1,keypress(m),500,168549.39999961853,168549.3000011444,165776.084,165778.39999961853,165792.772,168574.682,8,400,25,,ISIC_0057496.JPG
break,html.Screen,4_24_1,2023-09-13T00:03:40.328Z,,0,,,NaN,,,,,,false,,,,168550.70000076294,168550.3000011444,,168549.70000076294,,168574.682,8,400,,,
break_continue,html.Screen,4_24_2,2023-09-13T00:03:40.329Z,,0,,,NaN,,,,,,false,,,,168551.70000076294,168551.60000038147,,168550.89999961853,,168574.682,8,400,,,
sequence,flow.Sequence,4_24,2023-09-13T00:03:40.329Z,,0,,,2758.8280003814725,completion,,,,,false,,,,168552,168551.60000038147,165776.084,165778.39999961853,165792.772,168574.682,8,400,,,
trial,html.Screen,4_25_0,2023-09-13T00:03:44.126Z,,0,1,,3773.918000381469,response,ISIC_0062762.JPG,8,ISIC_1499915.JPG,ISIC_0062762.JPG,false,1,keypress(m),500,172348.89999961853,172348.60000038147,168534.314,168552.20000076294,168574.682,172359.227,8,400,26,,ISIC_1499915.JPG
break,html.Screen,4_25_1,2023-09-13T00:03:44.128Z,,0,,,NaN,,,,,,false,,,,172350.3000011444,172349.89999961853,,172349.10000038147,,172359.227,8,400,,,
break_continue,html.Screen,4_25_2,2023-09-13T00:03:44.129Z,,0,,,NaN,,,,,,false,,,,172351.39999961853,172351.20000076294,,172350.5,,172359.227,8,400,,,
sequence,flow.Sequence,4_25,2023-09-13T00:03:44.129Z,,0,,,3776.5180007629388,completion,,,,,false,,,,172351.70000076294,172351.20000076294,168534.314,168552.10000038147,168574.682,172359.227,8,400,,,
trial,html.Screen,4_26_0,2023-09-13T00:03:47.801Z,,0,1,,3664.373000381456,response,ISIC_0060091.JPG,9,ISIC_0031214.JPG,ISIC_0060091.JPG,false,1,keypress(m),500,176023.70000076294,176023.60000038147,172334.234,172351.89999961853,172359.227,176025.724,8,400,27,,ISIC_0031214.JPG
break,html.Screen,4_26_1,2023-09-13T00:03:47.802Z,,0,,,NaN,,,,,,false,,,,176024.8000011444,176024.60000038147,,176023.89999961853,,176025.724,8,400,,,
break_continue,html.Screen,4_26_2,2023-09-13T00:03:47.803Z,,0,,,NaN,,,,,,false,,,,176025.60000038147,176025.39999961853,,176025,,176025.724,8,400,,,
sequence,flow.Sequence,4_26,2023-09-13T00:03:47.803Z,,0,,,3666.1729996185168,completion,,,,,false,,,,176025.70000076294,176025.39999961853,172334.234,172351.8000011444,172359.227,176025.724,8,400,,,
trial,html.Screen,4_27_0,2023-09-13T00:03:50.945Z,,0,1,,3141.976000762952,response,ISIC_8295306.JPG,12,ISIC_0193456.JPG,ISIC_0193456.JPG,false,0,keypress(z),500,179168,179167.70000076294,176017.409,176025.89999961853,176025.724,179192.349,8,400,28,,ISIC_8295306.JPG
break,html.Screen,4_27_1,2023-09-13T00:03:50.946Z,,0,,,NaN,,,,,,false,,,,179169,179168.8000011444,,179168.10000038147,,179192.349,8,400,,,
break_continue,html.Screen,4_27_2,2023-09-13T00:03:50.947Z,,0,,,NaN,,,,,,false,,,,179169.8000011444,179169.60000038147,,179169.20000076294,,179192.349,8,400,,,
sequence,flow.Sequence,4_27,2023-09-13T00:03:50.947Z,,0,,,3143.8760003814823,completion,,,,,false,,,,179170,179169.60000038147,176017.409,176025.8000011444,176025.724,179192.349,8,400,,,
trial,html.Screen,4_28_0,2023-09-13T00:03:53.615Z,,0,1,,2645.050999618543,response,ISIC_0072010.JPG,9,ISIC_0030913.JPG,ISIC_0072010.JPG,false,1,keypress(m),500,181837.70000076294,181837.39999961853,179167.289,179170.3000011444,179192.349,181850.565,8,400,29,,ISIC_0030913.JPG
break,html.Screen,4_28_1,2023-09-13T00:03:53.616Z,,0,,,NaN,,,,,,false,,,,181839,181838.60000038147,,181837.89999961853,,181850.565,8,400,,,
break_continue,html.Screen,4_28_2,2023-09-13T00:03:53.617Z,,0,,,NaN,,,,,,false,,,,181839.89999961853,181839.8000011444,,181839.10000038147,,181850.565,8,400,,,
sequence,flow.Sequence,4_28,2023-09-13T00:03:53.618Z,,0,,,2647.4510011444218,completion,,,,,false,,,,181840.20000076294,181839.8000011444,179167.289,179170.20000076294,179192.349,181850.565,8,400,,,
trial,html.Screen,4_29_0,2023-09-13T00:03:57.004Z,,0,1,,3375.334999618528,response,ISIC_0029982.JPG,10,ISIC_0069946.JPG,ISIC_0069946.JPG,false,0,keypress(z),500,185226.20000076294,185225.89999961853,181833.879,181840.39999961853,181850.565,185242.125,8,400,30,,ISIC_0029982.JPG
break,html.Screen,4_29_1,2023-09-13T00:03:57.005Z,,0,,,NaN,,,,,,false,,,,185227.60000038147,185227.20000076294,,185226.39999961853,,185242.125,8,400,,,
break_continue,html.Screen,4_29_2,2023-09-13T00:03:57.006Z,,0,,,NaN,,,,,,false,,,,185228.39999961853,185228.3000011444,,185227.8000011444,,185242.125,8,400,,,
sequence,flow.Sequence,4_29,2023-09-13T00:03:57.006Z,,0,,,3377.735001144407,completion,,,,,false,,,,185228.70000076294,185228.3000011444,181833.879,181840.3000011444,181850.565,185242.125,8,400,,,
trial,html.Screen,4_30_0,2023-09-13T00:03:59.895Z,,0,1,,2875.4750003814697,response,ISIC_4269227.JPG,13,ISIC_0027499.JPG,ISIC_4269227.JPG,false,1,keypress(m),500,188117.8000011444,188117.60000038147,185217.11,185228.8000011444,185242.125,188133.716,8,400,31,,ISIC_0027499.JPG
break,html.Screen,4_30_1,2023-09-13T00:03:59.897Z,,0,,,NaN,,,,,,false,,,,188119.3000011444,188118.70000076294,,188118,,188133.716,8,400,,,
break_continue,html.Screen,4_30_2,2023-09-13T00:03:59.898Z,,0,,,NaN,,,,,,false,,,,188120.10000038147,188119.89999961853,,188119.39999961853,,188133.716,8,400,,,
sequence,flow.Sequence,4_30,2023-09-13T00:03:59.898Z,,0,,,2877.7749996185303,completion,,,,,false,,,,188120.3000011444,188119.89999961853,185217.11,185228.8000011444,185242.125,188133.716,8,400,,,
trial,html.Screen,4_31_0,2023-09-13T00:04:03.990Z,,0,1,,4078.884000381484,response,ISIC_2378211.JPG,8,ISIC_0032995.JPG,ISIC_2378211.JPG,false,1,keypress(m),500,192212.89999961853,192212.60000038147,188116.998,188120.39999961853,188133.716,192225.26,8,400,32,,ISIC_0032995.JPG
break,html.Screen,4_31_1,2023-09-13T00:04:03.992Z,,0,,,NaN,,,,,,false,,,,192214.5,192214.10000038147,,192213.3000011444,,192225.26,8,400,,,
break_continue,html.Screen,4_31_2,2023-09-13T00:04:03.993Z,,0,,,NaN,,,,,,false,,,,192215.60000038147,192215.39999961853,,192214.70000076294,,192225.26,8,400,,,
sequence,flow.Sequence,4_31,2023-09-13T00:04:03.993Z,,0,,,4081.6839996185445,completion,,,,,false,,,,192215.89999961853,192215.39999961853,188116.998,188120.39999961853,188133.716,192225.26,8,400,,,
trial,html.Screen,4_32_0,2023-09-13T00:04:07.039Z,,0,1,,3035.639999618521,response,ISIC_0066470.JPG,6,ISIC_9204678.JPG,ISIC_0066470.JPG,false,1,keypress(m),500,195261.20000076294,195260.89999961853,192200.179,192216.10000038147,192225.26,195291.744,8,400,33,,ISIC_9204678.JPG
break,html.Screen,4_32_1,2023-09-13T00:04:07.040Z,,0,,,NaN,,,,,,false,,,,195262.5,195262.20000076294,,195261.39999961853,,195291.744,8,400,,,
break_continue,html.Screen,4_32_2,2023-09-13T00:04:07.041Z,,0,,,NaN,,,,,,false,,,,195263.20000076294,195263.10000038147,,195262.60000038147,,195291.744,8,400,,,
sequence,flow.Sequence,4_32,2023-09-13T00:04:07.041Z,,0,,,3037.8400003814604,completion,,,,,false,,,,195263.3000011444,195263.10000038147,192200.179,192216.10000038147,192225.26,195291.744,8,400,,,
trial,html.Screen,4_33_0,2023-09-13T00:04:10.248Z,,0,1,,3177.9560007629334,response,ISIC_0000553.JPG,5,ISIC_0029686.JPG,ISIC_0000553.JPG,false,1,keypress(m),500,198470,198469.70000076294,195275.097,195263.5,195291.744,198483.404,8,400,34,,ISIC_0029686.JPG
break,html.Screen,4_33_1,2023-09-13T00:04:10.250Z,,0,,,NaN,,,,,,false,,,,198472,198471.39999961853,,198470.3000011444,,198483.404,8,400,,,
break_continue,html.Screen,4_33_2,2023-09-13T00:04:10.251Z,,0,,,NaN,,,,,,false,,,,198473.3000011444,198473.10000038147,,198472.39999961853,,198483.404,8,400,,,
sequence,flow.Sequence,4_33,2023-09-13T00:04:10.251Z,,0,,,3181.3560003814637,completion,,,,,false,,,,198473.60000038147,198473.10000038147,195275.097,195263.5,195291.744,198483.404,8,400,,,
trial,html.Screen,4_34_0,2023-09-13T00:04:13.183Z,,0,1,,2921.8960011443996,response,ISIC_0059625.JPG,11,ISIC_0032717.JPG,ISIC_0032717.JPG,false,0,keypress(z),500,201405.70000076294,201405.3000011444,198458.505,198473.8000011444,198483.404,201425.067,8,400,35,,ISIC_0059625.JPG
break,html.Screen,4_34_1,2023-09-13T00:04:13.186Z,,0,,,NaN,,,,,,false,,,,201408.10000038147,201407.20000076294,,201406,,201425.067,8,400,,,
break_continue,html.Screen,4_34_2,2023-09-13T00:04:13.187Z,,0,,,NaN,,,,,,false,,,,201409.39999961853,201409.20000076294,,201408.39999961853,,201425.067,8,400,,,
sequence,flow.Sequence,4_34,2023-09-13T00:04:13.187Z,,0,,,2925.79600076293,completion,,,,,false,,,,201409.8000011444,201409.20000076294,198458.505,198473.8000011444,198483.404,201425.067,8,400,,,
trial,html.Screen,4_35_0,2023-09-13T00:04:15.843Z,,0,1,,2639.8329996185203,response,ISIC_0946787.JPG,7,ISIC_0030128.JPG,ISIC_0030128.JPG,false,0,keypress(z),500,204065.10000038147,204064.89999961853,201391.794,201410.10000038147,201425.067,204091.382,8,400,36,,ISIC_0946787.JPG
break,html.Screen,4_35_1,2023-09-13T00:04:15.845Z,,0,,,NaN,,,,,,false,,,,204067.60000038147,204066.10000038147,,204065.3000011444,,204091.382,8,400,,,
break_continue,html.Screen,4_35_2,2023-09-13T00:04:15.846Z,,0,,,NaN,,,,,,false,,,,204068.3000011444,204068.20000076294,,204067.70000076294,,204091.382,8,400,,,
sequence,flow.Sequence,4_35,2023-09-13T00:04:15.846Z,,0,,,2643.1330007629294,completion,,,,,false,,,,204068.39999961853,204068.20000076294,201391.794,201410,201425.067,204091.382,8,400,,,
trial,html.Screen,4_36_0,2023-09-13T00:04:18.917Z,,0,1,,3048.017999618518,response,ISIC_0001151.JPG,7,ISIC_1117369.JPG,ISIC_1117369.JPG,false,0,keypress(z),500,207139.8000011444,207139.39999961853,204049.786,204068.60000038147,204091.382,207158.076,8,400,37,,ISIC_0001151.JPG
break,html.Screen,4_36_1,2023-09-13T00:04:18.920Z,,0,,,NaN,,,,,,false,,,,207142.20000076294,207141.5,,207140.20000076294,,207158.076,8,400,,,
break_continue,html.Screen,4_36_2,2023-09-13T00:04:18.921Z,,0,,,NaN,,,,,,false,,,,207143.39999961853,207143.20000076294,,207142.5,,207158.076,8,400,,,
sequence,flow.Sequence,4_36,2023-09-13T00:04:18.921Z,,0,,,3051.818000762927,completion,,,,,false,,,,207143.8000011444,207143.20000076294,204049.786,204068.60000038147,204091.382,207158.076,8,400,,,
trial,html.Screen,4_37_0,2023-09-13T00:04:21.913Z,,0,1,,2977.423999999999,response,ISIC_0009950.JPG,15,ISIC_0025128.JPG,ISIC_0025128.JPG,false,0,keypress(z),500,210135.70000076294,210135.5,207124.744,207144.10000038147,207158.076,210157.924,8,400,38,,ISIC_0009950.JPG
break,html.Screen,4_37_1,2023-09-13T00:04:21.915Z,,0,,,NaN,,,,,,false,,,,210137.20000076294,210136.70000076294,,210135.89999961853,,210157.924,8,400,,,
break_continue,html.Screen,4_37_2,2023-09-13T00:04:21.915Z,,0,,,NaN,,,,,,false,,,,210138,210137.8000011444,,210137.39999961853,,210157.924,8,400,,,
sequence,flow.Sequence,4_37,2023-09-13T00:04:21.916Z,,0,,,2979.7240011444082,completion,,,,,false,,,,210138.20000076294,210137.8000011444,207124.744,207144,207158.076,210157.924,8,400,,,
trial,html.Screen,4_38_0,2023-09-13T00:04:24.600Z,,0,1,,2664.576000000001,response,ISIC_7454699.JPG,5,ISIC_0033228.JPG,ISIC_0033228.JPG,false,0,keypress(z),500,212822.70000076294,212822.5,210132.931,210138.39999961853,210157.924,212832.847,8,400,39,,ISIC_7454699.JPG
break,html.Screen,4_38_1,2023-09-13T00:04:24.603Z,,0,,,NaN,,,,,,false,,,,212825.10000038147,212824.5,,212823,,212832.847,8,400,,,
break_continue,html.Screen,4_38_2,2023-09-13T00:04:24.604Z,,0,,,NaN,,,,,,false,,,,212826.70000076294,212826.39999961853,,212825.5,,212832.847,8,400,,,
sequence,flow.Sequence,4_38,2023-09-13T00:04:24.605Z,,0,,,2668.475999618531,completion,,,,,false,,,,212827.10000038147,212826.39999961853,210132.931,210138.3000011444,210157.924,212832.847,8,400,,,
trial,html.Screen,4_39_0,2023-09-13T00:04:28.314Z,,0,1,,3703.652999999991,response,ISIC_0865706.JPG,10,ISIC_0026167.JPG,ISIC_0026167.JPG,false,0,keypress(z),500,216536.89999961853,216536.5,212808.108,212827.3000011444,212832.847,216557.79,8,400,40,,ISIC_0865706.JPG
break,html.Screen,4_39_1,2023-09-13T00:04:28.317Z,,0,,,NaN,,,,,,false,,,,216539.39999961853,216538.70000076294,,216537.39999961853,,216557.79,8,400,,,
break_continue,html.Screen,4_39_2,2023-09-13T00:04:28.318Z,,0,,,NaN,,,,,,false,,,,216540.60000038147,216540.39999961853,,216539.60000038147,,216557.79,8,400,,,
sequence,flow.Sequence,4_39,2023-09-13T00:04:28.318Z,,0,,,3707.5529996185214,completion,,,,,false,,,,216540.89999961853,216540.39999961853,212808.108,212827.3000011444,212832.847,216557.79,8,400,,,
trial,html.Screen,4_40_0,2023-09-13T00:04:31.150Z,,0,1,,2814.010001144401,response,ISIC_0030135.JPG,12,ISIC_0148751.JPG,ISIC_0148751.JPG,false,0,keypress(z),500,219372.10000038147,219371.8000011444,216524.696,216543.20000076294,216557.79,219382.634,8,400,41,,ISIC_0030135.JPG
break,html.Screen,4_40_1,2023-09-13T00:04:31.152Z,,0,,,NaN,,,,,,false,,,,219374.3000011444,219373.8000011444,,219372.5,,219382.634,8,400,,,
break_continue,html.Screen,4_40_2,2023-09-13T00:04:31.153Z,,0,,,NaN,,,,,,false,,,,219375.8000011444,219375.60000038147,,219374.70000076294,,219382.634,8,400,,,
sequence,flow.Sequence,4_40,2023-09-13T00:04:31.154Z,,0,,,2817.8100003814616,completion,,,,,false,,,,219376.20000076294,219375.60000038147,216524.696,216543.10000038147,216557.79,219382.634,8,400,,,
trial,html.Screen,4_41_0,2023-09-13T00:04:34.080Z,,0,1,,2919.466000381479,response,ISIC_0067933.JPG,14,ISIC_2714572.JPG,ISIC_0067933.JPG,false,1,keypress(m),500,222302.5,222302.10000038147,219366.354,219376.39999961853,219382.634,222307.558,8,400,42,,ISIC_2714572.JPG
break,html.Screen,4_41_1,2023-09-13T00:04:34.082Z,,0,,,NaN,,,,,,false,,,,222305,222304.3000011444,,222302.89999961853,,222307.558,8,400,,,
break_continue,html.Screen,4_41_2,2023-09-13T00:04:34.084Z,,0,,,NaN,,,,,,false,,,,222306.39999961853,222306.10000038147,,222305.20000076294,,222307.558,8,400,,,
sequence,flow.Sequence,4_41,2023-09-13T00:04:34.084Z,,0,,,2923.466000381479,completion,,,,,false,,,,222306.8000011444,222306.10000038147,219366.354,219376.39999961853,219382.634,222307.558,8,400,,,
trial,html.Screen,4_42_0,2023-09-13T00:04:37.041Z,,0,1,,2955.8419996185403,response,ISIC_6449065.JPG,14,ISIC_2893340.JPG,ISIC_6449065.JPG,false,1,keypress(m),500,225263.8000011444,225263.39999961853,222290.93,222307.10000038147,222307.558,225282.484,8,400,43,,ISIC_2893340.JPG
break,html.Screen,4_42_1,2023-09-13T00:04:37.044Z,,0,,,NaN,,,,,,false,,,,225266.5,225265.70000076294,,225264.20000076294,,225282.484,8,400,,,
break_continue,html.Screen,4_42_2,2023-09-13T00:04:37.045Z,,0,,,NaN,,,,,,false,,,,225267.89999961853,225267.60000038147,,225266.8000011444,,225282.484,8,400,,,
sequence,flow.Sequence,4_42,2023-09-13T00:04:37.046Z,,0,,,2960.0420003814797,completion,,,,,false,,,,225268.3000011444,225267.60000038147,222290.93,222307.10000038147,222307.558,225282.484,8,400,,,
trial,html.Screen,4_43_0,2023-09-13T00:04:40.434Z,,0,1,,3373.8160011444124,response,ISIC_0013840.JPG,13,ISIC_4873045.JPG,ISIC_0013840.JPG,false,1,keypress(m),500,228656.70000076294,228656.3000011444,225249.457,225268.60000038147,225282.484,228673.975,8,400,44,,ISIC_4873045.JPG
break,html.Screen,4_43_1,2023-09-13T00:04:40.437Z,,0,,,NaN,,,,,,false,,,,228659.60000038147,228658.70000076294,,228657.10000038147,,228673.975,8,400,,,
break_continue,html.Screen,4_43_2,2023-09-13T00:04:40.439Z,,0,,,NaN,,,,,,false,,,,228661.20000076294,228660.89999961853,,228660,,228673.975,8,400,,,
sequence,flow.Sequence,4_43,2023-09-13T00:04:40.439Z,,0,,,3378.4159996185335,completion,,,,,false,,,,228661.60000038147,228660.89999961853,225249.457,225268.5,225282.484,228673.975,8,400,,,
trial,html.Screen,4_44_0,2023-09-13T00:04:43.826Z,,0,1,,3374.4249996185245,response,ISIC_0026369.JPG,8,ISIC_2245709.JPG,ISIC_0026369.JPG,false,1,keypress(m),500,232048.89999961853,232048.39999961853,228657.673,228661.8000011444,228673.975,232057.229,8,400,45,,ISIC_2245709.JPG
break,html.Screen,4_44_1,2023-09-13T00:04:43.829Z,,0,,,NaN,,,,,,false,,,,232051.39999961853,232050.70000076294,,232049.20000076294,,232057.229,8,400,,,
break_continue,html.Screen,4_44_2,2023-09-13T00:04:43.830Z,,0,,,NaN,,,,,,false,,,,232052.8000011444,232052.60000038147,,232051.70000076294,,232057.229,8,400,,,
sequence,flow.Sequence,4_44,2023-09-13T00:04:43.831Z,,0,,,3378.625000381464,completion,,,,,false,,,,232053.3000011444,232052.60000038147,228657.673,228661.8000011444,228673.975,232057.229,8,400,,,
trial,html.Screen,4_45_0,2023-09-13T00:04:46.653Z,,0,1,,2818.3710003814776,response,ISIC_3967213.JPG,10,ISIC_4026540.JPG,ISIC_4026540.JPG,false,0,keypress(z),500,234876,234875.60000038147,232041.008,232053.5,232057.229,234882.088,8,400,46,,ISIC_3967213.JPG
break,html.Screen,4_45_1,2023-09-13T00:04:46.656Z,,0,,,NaN,,,,,,false,,,,234878.70000076294,234878,,234876.39999961853,,234882.088,8,400,,,
break_continue,html.Screen,4_45_2,2023-09-13T00:04:46.658Z,,0,,,NaN,,,,,,false,,,,234880.5,234880.10000038147,,234879.10000038147,,234882.088,8,400,,,
sequence,flow.Sequence,4_45,2023-09-13T00:04:46.658Z,,0,,,2822.8710003814776,completion,,,,,false,,,,234880.89999961853,234880.10000038147,232041.008,232053.5,232057.229,234882.088,8,400,,,
trial,html.Screen,4_46_0,2023-09-13T00:04:49.386Z,,0,1,,2725.8119996185414,response,ISIC_0067333.JPG,13,ISIC_7227223.JPG,ISIC_0067333.JPG,false,1,keypress(m),500,237608.39999961853,237607.89999961853,234865.791,234881.20000076294,234882.088,237623.668,8,400,47,,ISIC_7227223.JPG
break,html.Screen,4_46_1,2023-09-13T00:04:49.389Z,,0,,,NaN,,,,,,false,,,,237611,237610.20000076294,,237608.89999961853,,237623.668,8,400,,,
break_continue,html.Screen,4_46_2,2023-09-13T00:04:49.390Z,,0,,,NaN,,,,,,false,,,,237612.5,237612.20000076294,,237611.39999961853,,237623.668,8,400,,,
sequence,flow.Sequence,4_46,2023-09-13T00:04:49.390Z,,0,,,2730.1120007629506,completion,,,,,false,,,,237612.8000011444,237612.20000076294,234865.791,234881.20000076294,234882.088,237623.668,8,400,,,
trial,html.Screen,4_47_0,2023-09-13T00:04:52.342Z,,0,1,,2940.632001144404,response,ISIC_0058926.JPG,6,ISIC_2935987.JPG,ISIC_0058926.JPG,false,1,keypress(m),500,240564.8000011444,240564.3000011444,237607.378,237613.10000038147,237623.668,240590.327,8,400,48,,ISIC_2935987.JPG
break,html.Screen,4_47_1,2023-09-13T00:04:52.344Z,,0,,,NaN,,,,,,false,,,,240567.5,240566.60000038147,,240565.20000076294,,240590.327,8,400,,,
break_continue,html.Screen,4_47_2,2023-09-13T00:04:52.346Z,,0,,,NaN,,,,,,false,,,,240569,240568.70000076294,,240567.8000011444,,240590.327,8,400,,,
sequence,flow.Sequence,4_47,2023-09-13T00:04:52.346Z,,0,,,2945.0320007629343,completion,,,,,false,,,,240569.5,240568.70000076294,237607.378,237613,237623.668,240590.327,8,400,,,
trial,html.Screen,4_48_0,2023-09-13T00:04:55.141Z,,0,1,,2772.973001144419,response,ISIC_2826618.JPG,9,ISIC_0010705.JPG,ISIC_0010705.JPG,false,0,keypress(z),500,243363.8000011444,243363.3000011444,240565.633,240569.8000011444,240590.327,243406.812,8,400,49,,ISIC_2826618.JPG
break,html.Screen,4_48_1,2023-09-13T00:04:55.144Z,,0,,,NaN,,,,,,false,,,,243366.70000076294,243365.70000076294,,243364.20000076294,,243406.812,8,400,,,
break_continue,html.Screen,4_48_2,2023-09-13T00:04:55.145Z,,0,,,NaN,,,,,,false,,,,243368.39999961853,243368.10000038147,,243367.20000076294,,243406.812,8,400,,,
sequence,flow.Sequence,4_48,2023-09-13T00:04:55.146Z,,0,,,2777.7730003814795,completion,,,,,false,,,,243368.89999961853,243368.10000038147,240565.633,240569.70000076294,240590.327,243406.812,8,400,,,
trial,html.Screen,4_49_0,2023-09-13T00:04:58.770Z,,0,1,,3585.888000762934,response,ISIC_0031363.JPG,5,ISIC_9648812.JPG,ISIC_0031363.JPG,false,1,keypress(m),500,246993.3000011444,246992.70000076294,243390.218,243369.20000076294,243406.812,247015.103,8,400,50,,ISIC_9648812.JPG
break,html.Screen,4_49_1,2023-09-13T00:05:08.776Z,,0,,,9999.340999999986,timeout,,,,,false,,,,256999.39999961853,256997.965,246981.722,246993.70000076294,247015.103,257014.444,8,400,,,
break_continue,html.Screen,4_49_2,2023-09-13T00:05:10.603Z,,0,,,1787.4559996185417,response,,,,,false,continue,keypress(Space),,258826.20000076294,258801.89999961853,256997.965,256999.89999961853,257014.444,258847.7,8,400,,,
sequence,flow.Sequence,4_49,2023-09-13T00:05:10.604Z,,0,,,15395.087999618525,completion,,,,,false,,,,258826.60000038147,258801.89999961853,243390.218,243369.10000038147,243406.812,258847.7,8,400,,,
trial,html.Screen,4_50_0,2023-09-13T00:05:14.061Z,,0,2,,3435.900000381458,response,ISIC_0420249.JPG,9,ISIC_4912684.JPG,ISIC_0420249.JPG,false,1,keypress(m),500,262284.10000038147,262283.60000038147,258814.552,258826.89999961853,258847.7,262297.609,8,400,1,,ISIC_4912684.JPG
break,html.Screen,4_50_1,2023-09-13T00:05:14.064Z,,0,,,NaN,,,,,,false,,,,262286.60000038147,262285.89999961853,,262284.39999961853,,262297.609,8,400,,,
break_continue,html.Screen,4_50_2,2023-09-13T00:05:14.065Z,,0,,,NaN,,,,,,false,,,,262288.10000038147,262287.8000011444,,262286.89999961853,,262297.609,8,400,,,
sequence,flow.Sequence,4_50,2023-09-13T00:05:14.065Z,,0,,,3440.1000011443975,completion,,,,,false,,,,262288.39999961853,262287.8000011444,258814.552,258826.8000011444,258847.7,262297.609,8,400,,,
trial,html.Screen,4_51_0,2023-09-13T00:05:16.752Z,,0,2,,2677.2909996185335,response,ISIC_2720971.JPG,14,ISIC_0059037.JPG,ISIC_0059037.JPG,false,0,keypress(z),500,264975.39999961853,264974.89999961853,262281.235,262288.70000076294,262297.609,264989.21,8,400,2,,ISIC_2720971.JPG
break,html.Screen,4_51_1,2023-09-13T00:05:16.755Z,,0,,,NaN,,,,,,false,,,,264978,264977.10000038147,,264975.8000011444,,264989.21,8,400,,,
break_continue,html.Screen,4_51_2,2023-09-13T00:05:16.757Z,,0,,,NaN,,,,,,false,,,,264979.60000038147,264979.3000011444,,264978.39999961853,,264989.21,8,400,,,
sequence,flow.Sequence,4_51,2023-09-13T00:05:16.757Z,,0,,,2681.6910011444124,completion,,,,,false,,,,264980,264979.3000011444,262281.235,262288.70000076294,262297.609,264989.21,8,400,,,
trial,html.Screen,4_52_0,2023-09-13T00:05:19.418Z,,0,2,,2651.1899996185093,response,ISIC_0057199.JPG,5,ISIC_2354070.JPG,ISIC_2354070.JPG,false,0,keypress(z),500,267640.8000011444,267640.39999961853,264972.916,264980.3000011444,264989.21,267664.08,8,400,3,,ISIC_0057199.JPG
break,html.Screen,4_52_1,2023-09-13T00:05:19.420Z,,0,,,NaN,,,,,,false,,,,267643.3000011444,267642.5,,267641.20000076294,,267664.08,8,400,,,
break_continue,html.Screen,4_52_2,2023-09-13T00:05:19.422Z,,0,,,NaN,,,,,,false,,,,267644.70000076294,267644.39999961853,,267643.60000038147,,267664.08,8,400,,,
sequence,flow.Sequence,4_52,2023-09-13T00:05:19.422Z,,0,,,2655.1899996185093,completion,,,,,false,,,,267645.3000011444,267644.39999961853,264972.916,264980.20000076294,264989.21,267664.08,8,400,,,
trial,html.Screen,4_53_0,2023-09-13T00:05:22.043Z,,0,2,,2601.4199999999837,response,ISIC_8027899.JPG,13,ISIC_0024840.JPG,ISIC_0024840.JPG,false,0,keypress(z),500,270266.10000038147,270265.5,267639.433,267645.5,267664.08,270280.671,8,400,4,,ISIC_8027899.JPG
break,html.Screen,4_53_1,2023-09-13T00:05:22.045Z,,0,,,NaN,,,,,,false,,,,270268.5,270267.8000011444,,270266.39999961853,,270280.671,8,400,,,
break_continue,html.Screen,4_53_2,2023-09-13T00:05:22.047Z,,0,,,NaN,,,,,,false,,,,270269.89999961853,270269.60000038147,,270268.8000011444,,270280.671,8,400,,,
sequence,flow.Sequence,4_53,2023-09-13T00:05:22.047Z,,0,,,2605.5200003814534,completion,,,,,false,,,,270270.3000011444,270269.60000038147,267639.433,267645.39999961853,267664.08,270280.671,8,400,,,
trial,html.Screen,4_54_0,2023-09-13T00:05:24.871Z,,0,2,,2812.9290003814967,response,ISIC_2400177.JPG,6,ISIC_4524488.JPG,ISIC_4524488.JPG,false,0,keypress(z),500,273094.10000038147,273093.60000038147,270264.344,270270.60000038147,270280.671,273105.594,8,400,5,,ISIC_2400177.JPG
break,html.Screen,4_54_1,2023-09-13T00:05:24.874Z,,0,,,NaN,,,,,,false,,,,273097,273096.10000038147,,273094.5,,273105.594,8,400,,,
break_continue,html.Screen,4_54_2,2023-09-13T00:05:24.876Z,,0,,,NaN,,,,,,false,,,,273098.60000038147,273098.3000011444,,273097.20000076294,,273105.594,8,400,,,
sequence,flow.Sequence,4_54,2023-09-13T00:05:24.876Z,,0,,,2817.629001144436,completion,,,,,false,,,,273099,273098.3000011444,270264.344,270270.5,270280.671,273105.594,8,400,,,
trial,html.Screen,4_55_0,2023-09-13T00:05:27.633Z,,0,2,,2749.8059996185475,response,ISIC_0927854.JPG,11,ISIC_0057716.JPG,ISIC_0057716.JPG,false,0,keypress(z),500,275855.89999961853,275855.39999961853,273080.918,273099.39999961853,273105.594,275863.82,8,400,6,,ISIC_0927854.JPG
break,html.Screen,4_55_1,2023-09-13T00:05:27.636Z,,0,,,NaN,,,,,,false,,,,275858.8000011444,275857.89999961853,,275856.3000011444,,275863.82,8,400,,,
break_continue,html.Screen,4_55_2,2023-09-13T00:05:27.638Z,,0,,,NaN,,,,,,false,,,,275860.8000011444,275860.5,,275859.5,,275863.82,8,400,,,
sequence,flow.Sequence,4_55,2023-09-13T00:05:27.638Z,,0,,,2754.9060000000172,completion,,,,,false,,,,275861.3000011444,275860.5,273080.918,273099.20000076294,273105.594,275863.82,8,400,,,
trial,html.Screen,4_56_0,2023-09-13T00:05:30.164Z,,0,2,,2522.3800007629325,response,ISIC_4034644.JPG,11,ISIC_0010521.JPG,ISIC_4034644.JPG,false,1,keypress(m),500,278386.70000076294,278386.20000076294,275847.488,275861.60000038147,275863.82,278397.084,8,400,7,,ISIC_0010521.JPG
break,html.Screen,4_56_1,2023-09-13T00:05:30.166Z,,0,,,NaN,,,,,,false,,,,278389.3000011444,278388.60000038147,,278387.20000076294,,278397.084,8,400,,,
break_continue,html.Screen,4_56_2,2023-09-13T00:05:30.168Z,,0,,,NaN,,,,,,false,,,,278390.60000038147,278390.3000011444,,278389.5,,278397.084,8,400,,,
sequence,flow.Sequence,4_56,2023-09-13T00:05:30.168Z,,0,,,2526.480001144402,completion,,,,,false,,,,278391,278390.3000011444,275847.488,275861.39999961853,275863.82,278397.084,8,400,,,
trial,html.Screen,4_57_0,2023-09-13T00:05:32.900Z,,0,2,,2725.616000762966,response,ISIC_9574191.JPG,6,ISIC_9286292.JPG,ISIC_9574191.JPG,false,1,keypress(m),500,281123,281122.70000076294,278380.359,278391.20000076294,278397.084,281130.287,8,400,8,,ISIC_9286292.JPG
break,html.Screen,4_57_1,2023-09-13T00:05:32.902Z,,0,,,NaN,,,,,,false,,,,281125.5,281124.8000011444,,281123.39999961853,,281130.287,8,400,,,
break_continue,html.Screen,4_57_2,2023-09-13T00:05:32.904Z,,0,,,NaN,,,,,,false,,,,281127,281126.60000038147,,281125.89999961853,,281130.287,8,400,,,
sequence,flow.Sequence,4_57,2023-09-13T00:05:32.904Z,,0,,,2729.5160003814963,completion,,,,,false,,,,281127.3000011444,281126.60000038147,278380.359,278391.20000076294,278397.084,281130.287,8,400,,,
trial,html.Screen,4_58_0,2023-09-13T00:05:35.473Z,,0,2,,2564.9130007629283,response,ISIC_5595054.JPG,15,ISIC_2232442.JPG,ISIC_2232442.JPG,false,0,keypress(z),500,283695.60000038147,283695.20000076294,281113.939,281127.60000038147,281130.287,283721.889,8,400,9,,ISIC_5595054.JPG
break,html.Screen,4_58_1,2023-09-13T00:05:35.475Z,,0,,,NaN,,,,,,false,,,,283698.20000076294,283697.39999961853,,283696,,283721.889,8,400,,,
break_continue,html.Screen,4_58_2,2023-09-13T00:05:35.477Z,,0,,,NaN,,,,,,false,,,,283699.70000076294,283699.5,,283698.5,,283721.889,8,400,,,
sequence,flow.Sequence,4_58,2023-09-13T00:05:35.477Z,,0,,,2569.212999999989,completion,,,,,false,,,,283700.10000038147,283699.5,281113.939,281127.5,281130.287,283721.889,8,400,,,
trial,html.Screen,4_59_0,2023-09-13T00:05:38.481Z,,0,2,,2982.211000381445,response,ISIC_8108870.JPG,12,ISIC_6168754.JPG,ISIC_8108870.JPG,false,1,keypress(m),500,286704.3000011444,286704.10000038147,283688.84,283700.3000011444,283721.889,286713.392,8,400,10,,ISIC_6168754.JPG
break,html.Screen,4_59_1,2023-09-13T00:05:38.484Z,,0,,,NaN,,,,,,false,,,,286707,286706,,286704.70000076294,,286713.392,8,400,,,
break_continue,html.Screen,4_59_2,2023-09-13T00:05:38.486Z,,0,,,NaN,,,,,,false,,,,286708.60000038147,286708.20000076294,,286707.39999961853,,286713.392,8,400,,,
sequence,flow.Sequence,4_59,2023-09-13T00:05:38.486Z,,0,,,2986.311000762915,completion,,,,,false,,,,286709.10000038147,286708.20000076294,283688.84,283700.20000076294,283721.889,286713.392,8,400,,,
trial,html.Screen,4_60_0,2023-09-13T00:05:41.741Z,,0,2,,3249.808000762947,response,ISIC_2563948.JPG,9,ISIC_0030535.JPG,ISIC_2563948.JPG,false,1,keypress(m),500,289963.70000076294,289963.20000076294,286697.057,286709.3000011444,286713.392,289980.064,8,400,11,,ISIC_0030535.JPG
break,html.Screen,4_60_1,2023-09-13T00:05:41.743Z,,0,,,NaN,,,,,,false,,,,289966.20000076294,289965.60000038147,,289964.10000038147,,289980.064,8,400,,,
break_continue,html.Screen,4_60_2,2023-09-13T00:05:41.745Z,,0,,,NaN,,,,,,false,,,,289967.5,289967.3000011444,,289966.5,,289980.064,8,400,,,
sequence,flow.Sequence,4_60,2023-09-13T00:05:41.745Z,,0,,,3253.9080011444166,completion,,,,,false,,,,289967.89999961853,289967.3000011444,286697.057,286709.20000076294,286713.392,289980.064,8,400,,,
trial,html.Screen,4_61_0,2023-09-13T00:05:44.759Z,,0,2,,3001.236001144396,response,ISIC_9791275.JPG,11,ISIC_0011013.JPG,ISIC_0011013.JPG,false,0,keypress(z),500,292981.70000076294,292981.3000011444,289963.626,289968.20000076294,289980.064,292988.327,8,400,12,,ISIC_9791275.JPG
break,html.Screen,4_61_1,2023-09-13T00:05:44.762Z,,0,,,NaN,,,,,,false,,,,292985.5,292984,,292982.20000076294,,292988.327,8,400,,,
break_continue,html.Screen,4_61_2,2023-09-13T00:05:44.765Z,,0,,,NaN,,,,,,false,,,,292987.89999961853,292987.39999961853,,292985.89999961853,,292988.327,8,400,,,
sequence,flow.Sequence,4_61,2023-09-13T00:05:44.766Z,,0,,,3007.3359996185172,completion,,,,,false,,,,292988.60000038147,292987.39999961853,289963.626,289968.10000038147,289980.064,292988.327,8,400,,,
trial,html.Screen,4_62_0,2023-09-13T00:05:49.034Z,,0,2,,4268.57299961854,response,ISIC_0064010.JPG,9,ISIC_0064936.JPG,ISIC_0064010.JPG,false,1,keypress(m),500,297257.5,297256.89999961853,292979.915,292989.20000076294,292988.327,297271.396,8,400,13,,ISIC_0064936.JPG
break,html.Screen,4_62_1,2023-09-13T00:05:49.038Z,,0,,,NaN,,,,,,false,,,,297260.60000038147,297259.89999961853,,297258,,297271.396,8,400,,,
break_continue,html.Screen,4_62_2,2023-09-13T00:05:49.039Z,,0,,,NaN,,,,,,false,,,,297262.20000076294,297262,,297261,,297271.396,8,400,,,
sequence,flow.Sequence,4_62,2023-09-13T00:05:49.040Z,,0,,,4273.67300000001,completion,,,,,false,,,,297262.60000038147,297262,292979.915,292989,292988.327,297271.396,8,400,,,
trial,html.Screen,4_63_0,2023-09-13T00:05:52.080Z,,0,2,,3031.0039996185224,response,ISIC_0014973.JPG,8,ISIC_0013580.JPG,ISIC_0013580.JPG,false,0,keypress(z),500,300302.89999961853,300302.39999961853,297255.077,297262.89999961853,297271.396,300337.992,8,400,14,,ISIC_0014973.JPG
break,html.Screen,4_63_1,2023-09-13T00:05:52.083Z,,0,,,NaN,,,,,,false,,,,300306,300305.20000076294,,300303.39999961853,,300337.992,8,400,,,
break_continue,html.Screen,4_63_2,2023-09-13T00:05:52.085Z,,0,,,NaN,,,,,,false,,,,300307.60000038147,300307.3000011444,,300306.3000011444,,300337.992,8,400,,,
sequence,flow.Sequence,4_63,2023-09-13T00:05:52.085Z,,0,,,3035.9040011444013,completion,,,,,false,,,,300308,300307.3000011444,297255.077,297262.89999961853,297271.396,300337.992,8,400,,,
trial,html.Screen,4_64_0,2023-09-13T00:05:54.667Z,,0,2,,2551.0079999999725,response,ISIC_0011668.JPG,13,ISIC_0062765.JPG,ISIC_0062765.JPG,false,0,keypress(z),500,302889.5,302889,300321.344,300308.3000011444,300337.992,302904.497,8,400,15,,ISIC_0011668.JPG
break,html.Screen,4_64_1,2023-09-13T00:05:54.669Z,,0,,,NaN,,,,,,false,,,,302891.70000076294,302891.10000038147,,302889.89999961853,,302904.497,8,400,,,
break_continue,html.Screen,4_64_2,2023-09-13T00:05:54.670Z,,0,,,NaN,,,,,,false,,,,302893,302892.8000011444,,302892,,302904.497,8,400,,,
sequence,flow.Sequence,4_64,2023-09-13T00:05:54.671Z,,0,,,2554.8080011443817,completion,,,,,false,,,,302893.39999961853,302892.8000011444,300321.344,300308.20000076294,300337.992,302904.497,8,400,,,
trial,html.Screen,4_65_0,2023-09-13T00:05:57.452Z,,0,2,,2770.003000000026,response,ISIC_2805634.JPG,8,ISIC_0024894.JPG,ISIC_2805634.JPG,false,1,keypress(m),500,305674.89999961853,305674.5,302888.206,302893.8000011444,302904.497,305696.164,8,400,16,,ISIC_0024894.JPG
break,html.Screen,4_65_1,2023-09-13T00:05:57.455Z,,0,,,NaN,,,,,,false,,,,305677.60000038147,305676.8000011444,,305675.39999961853,,305696.164,8,400,,,
break_continue,html.Screen,4_65_2,2023-09-13T00:05:57.456Z,,0,,,NaN,,,,,,false,,,,305679.10000038147,305678.8000011444,,305677.89999961853,,305696.164,8,400,,,
sequence,flow.Sequence,4_65,2023-09-13T00:05:57.457Z,,0,,,2774.3030011444353,completion,,,,,false,,,,305679.39999961853,305678.8000011444,302888.206,302893.60000038147,302904.497,305696.164,8,400,,,
trial,html.Screen,4_66_0,2023-09-13T00:06:00.344Z,,0,2,,2870.43600038148,response,ISIC_0001111.JPG,10,ISIC_0046671.JPG,ISIC_0046671.JPG,false,0,keypress(z),500,308567,308566.60000038147,305663.053,305679.70000076294,305696.164,308579.328,8,400,17,,ISIC_0001111.JPG
break,html.Screen,4_66_1,2023-09-13T00:06:00.347Z,,0,,,NaN,,,,,,false,,,,308569.5,308568.8000011444,,308567.39999961853,,308579.328,8,400,,,
break_continue,html.Screen,4_66_2,2023-09-13T00:06:00.348Z,,0,,,NaN,,,,,,false,,,,308570.89999961853,308570.60000038147,,308569.89999961853,,308579.328,8,400,,,
sequence,flow.Sequence,4_66,2023-09-13T00:06:00.349Z,,0,,,2874.43600038148,completion,,,,,false,,,,308571.3000011444,308570.60000038147,305663.053,305679.70000076294,305696.164,308579.328,8,400,,,
trial,html.Screen,4_67_0,2023-09-13T00:06:03.115Z,,0,2,,2757.87200076296,response,ISIC_0032872.JPG,10,ISIC_1226882.JPG,ISIC_0032872.JPG,false,1,keypress(m),500,311337.70000076294,311337.20000076294,308563.03,308571.60000038147,308579.328,311362.628,8,400,18,,ISIC_1226882.JPG
break,html.Screen,4_67_1,2023-09-13T00:06:03.118Z,,0,,,NaN,,,,,,false,,,,311340.60000038147,311339.60000038147,,311338.10000038147,,311362.628,8,400,,,
break_continue,html.Screen,4_67_2,2023-09-13T00:06:03.120Z,,0,,,NaN,,,,,,false,,,,311342.5,311342.10000038147,,311341,,311362.628,8,400,,,
sequence,flow.Sequence,4_67,2023-09-13T00:06:03.120Z,,0,,,2762.77200038149,completion,,,,,false,,,,311342.8000011444,311342.10000038147,308563.03,308571.5,308579.328,311362.628,8,400,,,
trial,html.Screen,4_68_0,2023-09-13T00:06:05.701Z,,0,2,,2560.871999999974,response,ISIC_8353090.JPG,11,ISIC_7783346.JPG,ISIC_7783346.JPG,false,0,keypress(z),500,313923.89999961853,313923.5,311329.591,311343.10000038147,311362.628,313945.841,8,400,19,,ISIC_8353090.JPG
break,html.Screen,4_68_1,2023-09-13T00:06:05.704Z,,0,,,NaN,,,,,,false,,,,313926.89999961853,313926.10000038147,,313924.5,,313945.841,8,400,,,
break_continue,html.Screen,4_68_2,2023-09-13T00:06:05.706Z,,0,,,NaN,,,,,,false,,,,313928.5,313928.20000076294,,313927.3000011444,,313945.841,8,400,,,
sequence,flow.Sequence,4_68,2023-09-13T00:06:05.706Z,,0,,,2565.5720007629134,completion,,,,,false,,,,313928.89999961853,313928.20000076294,311329.591,311343,311362.628,313945.841,8,400,,,
trial,html.Screen,4_69_0,2023-09-13T00:06:08.375Z,,0,2,,2651.5589996185154,response,ISIC_8796968.JPG,8,ISIC_0025955.JPG,ISIC_8796968.JPG,false,1,keypress(m),500,316597.89999961853,316597.39999961853,313912.796,313929.20000076294,313945.841,316604.062,8,400,20,,ISIC_0025955.JPG
break,html.Screen,4_69_1,2023-09-13T00:06:08.378Z,,0,,,NaN,,,,,,false,,,,316600.8000011444,316599.89999961853,,316598.3000011444,,316604.062,8,400,,,
break_continue,html.Screen,4_69_2,2023-09-13T00:06:08.380Z,,0,,,NaN,,,,,,false,,,,316602.5,316602.20000076294,,316601.3000011444,,316604.062,8,400,,,
sequence,flow.Sequence,4_69,2023-09-13T00:06:08.380Z,,0,,,2656.3590007629246,completion,,,,,false,,,,316603,316602.20000076294,313912.796,313929.10000038147,313945.841,316604.062,8,400,,,
trial,html.Screen,4_70_0,2023-09-13T00:06:11.091Z,,0,2,,2709.5380003814935,response,ISIC_0218575.JPG,8,ISIC_0000150.JPG,ISIC_0000150.JPG,false,0,keypress(z),500,319314.10000038147,319313.60000038147,316587.731,316603.3000011444,316604.062,319329.002,8,400,21,,ISIC_0218575.JPG
break,html.Screen,4_70_1,2023-09-13T00:06:11.095Z,,0,,,NaN,,,,,,false,,,,319317.20000076294,319316.20000076294,,319314.60000038147,,319329.002,8,400,,,
break_continue,html.Screen,4_70_2,2023-09-13T00:06:11.096Z,,0,,,NaN,,,,,,false,,,,319318.8000011444,319318.5,,319317.60000038147,,319329.002,8,400,,,
sequence,flow.Sequence,4_70,2023-09-13T00:06:11.097Z,,0,,,2714.4380000000237,completion,,,,,false,,,,319319.20000076294,319318.5,316587.731,316603.20000076294,316604.062,319329.002,8,400,,,
trial,html.Screen,4_71_0,2023-09-13T00:06:13.722Z,,0,2,,2615.198000762961,response,ISIC_0033021.JPG,12,ISIC_0033782.JPG,ISIC_0033782.JPG,false,0,keypress(z),500,321944.8000011444,321944.20000076294,319312.6,319319.5,319329.002,321953.872,8,400,22,,ISIC_0033021.JPG
break,html.Screen,4_71_1,2023-09-13T00:06:13.725Z,,0,,,NaN,,,,,,false,,,,321947.39999961853,321946.70000076294,,321945.20000076294,,321953.872,8,400,,,
break_continue,html.Screen,4_71_2,2023-09-13T00:06:13.726Z,,0,,,NaN,,,,,,false,,,,321949,321948.70000076294,,321947.70000076294,,321953.872,8,400,,,
sequence,flow.Sequence,4_71,2023-09-13T00:06:13.727Z,,0,,,2619.698000762961,completion,,,,,false,,,,321949.39999961853,321948.70000076294,319312.6,319319.39999961853,319329.002,321953.872,8,400,,,
trial,html.Screen,4_72_0,2023-09-13T00:06:16.547Z,,0,2,,2815.128000000026,response,ISIC_8755163.JPG,9,ISIC_0027817.JPG,ISIC_0027817.JPG,false,0,keypress(z),500,324769.39999961853,324769,321937.482,321949.70000076294,321953.872,324778.769,8,400,23,,ISIC_8755163.JPG
break,html.Screen,4_72_1,2023-09-13T00:06:16.549Z,,0,,,NaN,,,,,,false,,,,324771.89999961853,324771.20000076294,,324769.8000011444,,324778.769,8,400,,,
break_continue,html.Screen,4_72_2,2023-09-13T00:06:16.551Z,,0,,,NaN,,,,,,false,,,,324773.3000011444,324773,,324772.10000038147,,324778.769,8,400,,,
sequence,flow.Sequence,4_72,2023-09-13T00:06:16.551Z,,0,,,2819.128000000026,completion,,,,,false,,,,324773.70000076294,324773,321937.482,321949.60000038147,321953.872,324778.769,8,400,,,
trial,html.Screen,4_73_0,2023-09-13T00:06:19.873Z,,0,2,,3316.630999618559,response,ISIC_0016013.JPG,8,ISIC_7428248.JPG,ISIC_0016013.JPG,false,1,keypress(m),500,328095.8000011444,328095.39999961853,324762.295,324774,324778.769,328103.647,8,400,24,,ISIC_7428248.JPG
break,html.Screen,4_73_1,2023-09-13T00:06:19.876Z,,0,,,NaN,,,,,,false,,,,328098.60000038147,328097.89999961853,,328096.3000011444,,328103.647,8,400,,,
break_continue,html.Screen,4_73_2,2023-09-13T00:06:19.878Z,,0,,,NaN,,,,,,false,,,,328100.20000076294,328099.89999961853,,328099,,328103.647,8,400,,,
sequence,flow.Sequence,4_73,2023-09-13T00:06:19.878Z,,0,,,3321.130999618559,completion,,,,,false,,,,328100.60000038147,328099.89999961853,324762.295,324773.89999961853,324778.769,328103.647,8,400,,,
trial,html.Screen,4_74_0,2023-09-13T00:06:23.131Z,,0,2,,3249.153001144412,response,ISIC_8725878.JPG,11,ISIC_0188432.JPG,ISIC_8725878.JPG,false,1,keypress(m),500,331353.20000076294,331352.8000011444,328087.268,328100.89999961853,328103.647,331370.254,8,400,25,,ISIC_0188432.JPG
break,html.Screen,4_74_1,2023-09-13T00:06:23.133Z,,0,,,NaN,,,,,,false,,,,331356.10000038147,331355.3000011444,,331353.60000038147,,331370.254,8,400,,,
break_continue,html.Screen,4_74_2,2023-09-13T00:06:23.135Z,,0,,,NaN,,,,,,false,,,,331357.70000076294,331357.3000011444,,331356.39999961853,,331370.254,8,400,,,
sequence,flow.Sequence,4_74,2023-09-13T00:06:23.135Z,,0,,,3253.653001144412,completion,,,,,false,,,,331358,331357.3000011444,328087.268,328100.89999961853,328103.647,331370.254,8,400,,,
trial,html.Screen,4_75_0,2023-09-13T00:06:25.718Z,,0,2,,2570.046001144394,response,ISIC_0064784.JPG,10,ISIC_6694724.JPG,ISIC_6694724.JPG,false,0,keypress(z),500,333940.8000011444,333940.3000011444,331345.367,331358.3000011444,331370.254,333953.5,8,400,26,,ISIC_0064784.JPG
break,html.Screen,4_75_1,2023-09-13T00:06:25.721Z,,0,,,NaN,,,,,,false,,,,333943.89999961853,333942.8000011444,,333941.20000076294,,333953.5,8,400,,,
break_continue,html.Screen,4_75_2,2023-09-13T00:06:25.723Z,,0,,,NaN,,,,,,false,,,,333945.5,333945.20000076294,,333944.20000076294,,333953.5,8,400,,,
sequence,flow.Sequence,4_75,2023-09-13T00:06:25.723Z,,0,,,2574.946000762924,completion,,,,,false,,,,333945.89999961853,333945.20000076294,331345.367,331358.20000076294,331370.254,333953.5,8,400,,,
trial,html.Screen,4_76_0,2023-09-13T00:06:28.303Z,,0,2,,2571.3999996185303,response,ISIC_0033771.JPG,7,ISIC_2957732.JPG,ISIC_0033771.JPG,false,1,keypress(m),500,336525.70000076294,336524.89999961853,333937.088,333946.3000011444,333953.5,336553.403,8,400,27,,ISIC_2957732.JPG
break,html.Screen,4_76_1,2023-09-13T00:06:28.306Z,,0,,,NaN,,,,,,false,,,,336528.60000038147,336527.70000076294,,336526.10000038147,,336553.403,8,400,,,
break_continue,html.Screen,4_76_2,2023-09-13T00:06:28.308Z,,0,,,NaN,,,,,,false,,,,336530.3000011444,336530.10000038147,,336529.10000038147,,336553.403,8,400,,,
sequence,flow.Sequence,4_76,2023-09-13T00:06:28.308Z,,0,,,2576.6000003814697,completion,,,,,false,,,,336530.8000011444,336530.10000038147,333937.088,333946.10000038147,333953.5,336553.403,8,400,,,
trial,html.Screen,4_77_0,2023-09-13T00:06:32.026Z,,0,2,,3695.097000000009,response,ISIC_6385074.JPG,7,ISIC_0005248.JPG,ISIC_6385074.JPG,false,1,keypress(m),500,340249,340248.5,336512.004,336531.10000038147,336553.403,340269.923,8,400,28,,ISIC_0005248.JPG
break,html.Screen,4_77_1,2023-09-13T00:06:32.029Z,,0,,,NaN,,,,,,false,,,,340251.8000011444,340250.89999961853,,340249.39999961853,,340269.923,8,400,,,
break_continue,html.Screen,4_77_2,2023-09-13T00:06:32.031Z,,0,,,NaN,,,,,,false,,,,340253.20000076294,340253,,340252,,340269.923,8,400,,,
sequence,flow.Sequence,4_77,2023-09-13T00:06:32.031Z,,0,,,3699.597000000009,completion,,,,,false,,,,340253.60000038147,340253,336512.004,336531,336553.403,340269.923,8,400,,,
trial,html.Screen,4_78_0,2023-09-13T00:06:34.614Z,,0,2,,2565.9769996185205,response,ISIC_3464344.JPG,12,ISIC_0033508.JPG,ISIC_3464344.JPG,false,1,keypress(m),500,342836.39999961853,342835.89999961853,340236.884,340253.89999961853,340269.923,342861.5,8,400,29,,ISIC_0033508.JPG
break,html.Screen,4_78_1,2023-09-13T00:06:34.616Z,,0,,,NaN,,,,,,false,,,,342838.89999961853,342838.20000076294,,342836.8000011444,,342861.5,8,400,,,
break_continue,html.Screen,4_78_2,2023-09-13T00:06:34.618Z,,0,,,NaN,,,,,,false,,,,342840.39999961853,342840.10000038147,,342839.20000076294,,342861.5,8,400,,,
sequence,flow.Sequence,4_78,2023-09-13T00:06:34.618Z,,0,,,2570.17700038146,completion,,,,,false,,,,342840.8000011444,342840.10000038147,340236.884,340253.8000011444,340269.923,342861.5,8,400,,,
trial,html.Screen,4_79_0,2023-09-13T00:06:37.172Z,,0,2,,2532.3999996185303,response,ISIC_0064821.JPG,7,ISIC_0011799.JPG,ISIC_0064821.JPG,false,1,keypress(m),500,345394.3000011444,345393.89999961853,342828.439,342841.10000038147,342861.5,345403.042,8,400,30,,ISIC_0011799.JPG
break,html.Screen,4_79_1,2023-09-13T00:06:37.174Z,,0,,,NaN,,,,,,false,,,,345396.39999961853,345395.89999961853,,345394.70000076294,,345403.042,8,400,,,
break_continue,html.Screen,4_79_2,2023-09-13T00:06:37.175Z,,0,,,NaN,,,,,,false,,,,345397.70000076294,345397.39999961853,,345396.70000076294,,345403.042,8,400,,,
sequence,flow.Sequence,4_79,2023-09-13T00:06:37.175Z,,0,,,2535.8999996185303,completion,,,,,false,,,,345398,345397.39999961853,342828.439,342841,342861.5,345403.042,8,400,,,
trial,html.Screen,4_80_0,2023-09-13T00:06:39.567Z,,0,2,,2385.957999999984,response,ISIC_0027327.JPG,6,ISIC_9719936.JPG,ISIC_9719936.JPG,false,0,keypress(z),500,347789.5,347789,345386.588,345398.20000076294,345403.042,347811.383,8,400,31,,ISIC_0027327.JPG
break,html.Screen,4_80_1,2023-09-13T00:06:39.570Z,,0,,,NaN,,,,,,false,,,,347792.20000076294,347791.39999961853,,347790,,347811.383,8,400,,,
break_continue,html.Screen,4_80_2,2023-09-13T00:06:39.571Z,,0,,,NaN,,,,,,false,,,,347793.70000076294,347793.39999961853,,347792.5,,347811.383,8,400,,,
sequence,flow.Sequence,4_80,2023-09-13T00:06:39.571Z,,0,,,2390.3579996185144,completion,,,,,false,,,,347794.10000038147,347793.39999961853,345386.588,345398.20000076294,345403.042,347811.383,8,400,,,
trial,html.Screen,4_81_0,2023-09-13T00:06:42.113Z,,0,2,,2523.9170011444367,response,ISIC_0070048.JPG,8,ISIC_2002605.JPG,ISIC_0070048.JPG,false,1,keypress(m),500,350335.8000011444,350335.3000011444,347778.19,347794.39999961853,347811.383,350352.861,8,400,32,,ISIC_2002605.JPG
break,html.Screen,4_81_1,2023-09-13T00:06:42.116Z,,0,,,NaN,,,,,,false,,,,350338.20000076294,350337.60000038147,,350336.3000011444,,350352.861,8,400,,,
break_continue,html.Screen,4_81_2,2023-09-13T00:06:42.117Z,,0,,,NaN,,,,,,false,,,,350339.5,350339.20000076294,,350338.5,,350352.861,8,400,,,
sequence,flow.Sequence,4_81,2023-09-13T00:06:42.117Z,,0,,,2527.817000762967,completion,,,,,false,,,,350339.8000011444,350339.20000076294,347778.19,347794.3000011444,347811.383,350352.861,8,400,,,
trial,html.Screen,4_82_0,2023-09-13T00:06:44.665Z,,0,2,,2534.7390003814944,response,ISIC_0000398.JPG,14,ISIC_8481979.JPG,ISIC_8481979.JPG,false,0,keypress(z),500,352888.10000038147,352887.60000038147,350336.194,350340,350352.861,352919.823,8,400,33,,ISIC_0000398.JPG
break,html.Screen,4_82_1,2023-09-13T00:06:44.668Z,,0,,,NaN,,,,,,false,,,,352890.70000076294,352889.89999961853,,352888.5,,352919.823,8,400,,,
break_continue,html.Screen,4_82_2,2023-09-13T00:06:44.669Z,,0,,,NaN,,,,,,false,,,,352892.10000038147,352891.89999961853,,352891,,352919.823,8,400,,,
sequence,flow.Sequence,4_82,2023-09-13T00:06:44.670Z,,0,,,2539.038999618555,completion,,,,,false,,,,352892.5,352891.89999961853,350336.194,350340,350352.861,352919.823,8,400,,,
trial,html.Screen,4_83_0,2023-09-13T00:06:47.626Z,,0,2,,2928.777000381495,response,ISIC_5388485.JPG,15,ISIC_0067614.JPG,ISIC_0067614.JPG,false,0,keypress(z),500,355849,355848.60000038147,352903.054,352892.8000011444,352919.823,355869.365,8,400,34,,ISIC_5388485.JPG
break,html.Screen,4_83_1,2023-09-13T00:06:47.629Z,,0,,,NaN,,,,,,false,,,,355851.70000076294,355850.8000011444,,355849.5,,355869.365,8,400,,,
break_continue,html.Screen,4_83_2,2023-09-13T00:06:47.631Z,,0,,,NaN,,,,,,false,,,,355853.3000011444,355852.89999961853,,355852.10000038147,,355869.365,8,400,,,
sequence,flow.Sequence,4_83,2023-09-13T00:06:47.631Z,,0,,,2933.0769996185554,completion,,,,,false,,,,355853.70000076294,355852.89999961853,352903.054,352892.70000076294,352919.823,355869.365,8,400,,,
trial,html.Screen,4_84_0,2023-09-13T00:06:50.633Z,,0,2,,2985.735000381479,response,ISIC_0013674.JPG,11,ISIC_0033724.JPG,ISIC_0013674.JPG,false,1,keypress(m),500,358855.60000038147,358855.10000038147,355844.33,355853.89999961853,355869.365,358860.9,8,400,35,,ISIC_0033724.JPG
break,html.Screen,4_84_1,2023-09-13T00:06:50.635Z,,0,,,NaN,,,,,,false,,,,358858.10000038147,358857.39999961853,,358856,,358860.9,8,400,,,
break_continue,html.Screen,4_84_2,2023-09-13T00:06:50.640Z,,0,,,NaN,,,,,,false,,,,358862.3000011444,358859.39999961853,,358858.39999961853,,358860.9,8,400,,,
sequence,flow.Sequence,4_84,2023-09-13T00:06:50.640Z,,0,,,2990.0349996185396,completion,,,,,false,,,,358862.89999961853,358859.39999961853,355844.33,355853.89999961853,355869.365,358860.9,8,400,,,
trial,html.Screen,4_85_0,2023-09-13T00:06:53.175Z,,0,2,,2536.499999618507,response,ISIC_1081430.JPG,9,ISIC_9727132.JPG,ISIC_9727132.JPG,false,0,keypress(z),500,361397.8000011444,361397.39999961853,358844.571,358863.3000011444,358860.9,361402.467,8,400,36,,ISIC_1081430.JPG
break,html.Screen,4_85_1,2023-09-13T00:06:53.178Z,,0,,,NaN,,,,,,false,,,,361400.20000076294,361399.60000038147,,361398.3000011444,,361402.467,8,400,,,
break_continue,html.Screen,4_85_2,2023-09-13T00:06:53.179Z,,0,,,NaN,,,,,,false,,,,361401.8000011444,361401.39999961853,,361400.60000038147,,361402.467,8,400,,,
sequence,flow.Sequence,4_85,2023-09-13T00:06:53.180Z,,0,,,2540.499999618507,completion,,,,,false,,,,361402.20000076294,361401.39999961853,358844.571,358863.10000038147,358860.9,361402.467,8,400,,,
trial,html.Screen,4_86_0,2023-09-13T00:06:55.801Z,,0,2,,2620.833001144405,response,ISIC_0000012.JPG,8,ISIC_4177043.JPG,ISIC_0000012.JPG,false,1,keypress(m),500,364023.70000076294,364023.3000011444,361386.142,361402.5,361402.467,364044.117,8,400,37,,ISIC_4177043.JPG
break,html.Screen,4_86_1,2023-09-13T00:06:55.804Z,,0,,,NaN,,,,,,false,,,,364026.20000076294,364025.60000038147,,364024.10000038147,,364044.117,8,400,,,
break_continue,html.Screen,4_86_2,2023-09-13T00:06:55.805Z,,0,,,NaN,,,,,,false,,,,364027.70000076294,364027.39999961853,,364026.60000038147,,364044.117,8,400,,,
sequence,flow.Sequence,4_86,2023-09-13T00:06:55.805Z,,0,,,2624.932999618526,completion,,,,,false,,,,364028.10000038147,364027.39999961853,361386.142,361402.39999961853,361402.467,364044.117,8,400,,,
trial,html.Screen,4_87_0,2023-09-13T00:06:58.794Z,,0,2,,2972.3829999999725,response,ISIC_0067418.JPG,13,ISIC_6373689.JPG,ISIC_0067418.JPG,false,1,keypress(m),500,367016.89999961853,367016.5,364011.091,364028.39999961853,364044.117,367043.996,8,400,38,,ISIC_6373689.JPG
break,html.Screen,4_87_1,2023-09-13T00:06:58.797Z,,0,,,NaN,,,,,,false,,,,367019.3000011444,367018.70000076294,,367017.3000011444,,367043.996,8,400,,,
break_continue,html.Screen,4_87_2,2023-09-13T00:06:58.798Z,,0,,,NaN,,,,,,false,,,,367020.8000011444,367020.39999961853,,367019.70000076294,,367043.996,8,400,,,
sequence,flow.Sequence,4_87,2023-09-13T00:06:58.799Z,,0,,,2976.282999618503,completion,,,,,false,,,,367021.20000076294,367020.39999961853,364011.091,364028.3000011444,364044.117,367043.996,8,400,,,
trial,html.Screen,4_88_0,2023-09-13T00:07:01.940Z,,0,2,,3118.4039996185456,response,ISIC_6961503.JPG,9,ISIC_0003333.JPG,ISIC_6961503.JPG,false,1,keypress(m),500,370162.89999961853,370162.39999961853,367002.603,367021.5,367043.996,370168.816,8,400,39,,ISIC_0003333.JPG
break,html.Screen,4_88_1,2023-09-13T00:07:01.942Z,,0,,,NaN,,,,,,false,,,,370165.10000038147,370164.39999961853,,370163.20000076294,,370168.816,8,400,,,
break_continue,html.Screen,4_88_2,2023-09-13T00:07:01.944Z,,0,,,NaN,,,,,,false,,,,370166.5,370166.20000076294,,370165.39999961853,,370168.816,8,400,,,
sequence,flow.Sequence,4_88,2023-09-13T00:07:01.944Z,,0,,,3122.204000762955,completion,,,,,false,,,,370166.89999961853,370166.20000076294,367002.603,367021.39999961853,367043.996,370168.816,8,400,,,
trial,html.Screen,4_89_0,2023-09-13T00:07:05.232Z,,0,2,,3285.5839996185387,response,ISIC_4949672.JPG,5,ISIC_7306131.JPG,ISIC_4949672.JPG,false,1,keypress(m),500,373454.89999961853,373454.39999961853,370152.098,370167.10000038147,370168.816,373477.121,8,400,40,,ISIC_7306131.JPG
break,html.Screen,4_89_1,2023-09-13T00:07:05.235Z,,0,,,NaN,,,,,,false,,,,373457.60000038147,373456.8000011444,,373455.20000076294,,373477.121,8,400,,,
break_continue,html.Screen,4_89_2,2023-09-13T00:07:05.236Z,,0,,,NaN,,,,,,false,,,,373459,373458.8000011444,,373457.89999961853,,373477.121,8,400,,,
sequence,flow.Sequence,4_89,2023-09-13T00:07:05.237Z,,0,,,3289.9840011444176,completion,,,,,false,,,,373459.5,373458.8000011444,370152.098,370167,370168.816,373477.121,8,400,,,
trial,html.Screen,4_90_0,2023-09-13T00:07:08.065Z,,0,2,,2809.6790011444245,response,ISIC_9335652.JPG,10,ISIC_6657600.JPG,ISIC_9335652.JPG,false,1,keypress(m),500,376287.3000011444,376286.8000011444,373444.027,373459.70000076294,373477.121,376301.999,8,400,41,,ISIC_6657600.JPG
break,html.Screen,4_90_1,2023-09-13T00:07:08.067Z,,0,,,NaN,,,,,,false,,,,376289.89999961853,376289.10000038147,,376287.70000076294,,376301.999,8,400,,,
break_continue,html.Screen,4_90_2,2023-09-13T00:07:08.069Z,,0,,,NaN,,,,,,false,,,,376291.3000011444,376291,,376290.20000076294,,376301.999,8,400,,,
sequence,flow.Sequence,4_90,2023-09-13T00:07:08.069Z,,0,,,2813.8790000000154,completion,,,,,false,,,,376291.70000076294,376291,373444.027,373459.60000038147,373477.121,376301.999,8,400,,,
trial,html.Screen,4_91_0,2023-09-13T00:07:10.797Z,,0,2,,2716.9009996185196,response,ISIC_0066411.JPG,11,ISIC_0060452.JPG,ISIC_0060452.JPG,false,0,keypress(z),500,379019.20000076294,379018.89999961853,376285.598,376292,376301.999,379035.211,8,400,42,,ISIC_0066411.JPG
break,html.Screen,4_91_1,2023-09-13T00:07:10.799Z,,0,,,NaN,,,,,,false,,,,379021.89999961853,379021,,379019.60000038147,,379035.211,8,400,,,
break_continue,html.Screen,4_91_2,2023-09-13T00:07:10.801Z,,0,,,NaN,,,,,,false,,,,379023.8000011444,379023.60000038147,,379022.3000011444,,379035.211,8,400,,,
sequence,flow.Sequence,4_91,2023-09-13T00:07:10.802Z,,0,,,2721.601000381459,completion,,,,,false,,,,379024.3000011444,379023.60000038147,376285.598,376292,376301.999,379035.211,8,400,,,
trial,html.Screen,4_92_0,2023-09-13T00:07:13.739Z,,0,2,,2925.489000762929,response,ISIC_0946787.JPG,10,ISIC_0025589.JPG,ISIC_0025589.JPG,false,0,keypress(z),500,381961.20000076294,381960.70000076294,379018.869,379024.60000038147,379035.211,381976.796,8,400,43,,ISIC_0946787.JPG
break,html.Screen,4_92_1,2023-09-13T00:07:13.742Z,,0,,,NaN,,,,,,false,,,,381964.70000076294,381963.39999961853,,381961.70000076294,,381976.796,8,400,,,
break_continue,html.Screen,4_92_2,2023-09-13T00:07:13.744Z,,0,,,NaN,,,,,,false,,,,381966.3000011444,381966,,381965,,381976.796,8,400,,,
sequence,flow.Sequence,4_92,2023-09-13T00:07:13.744Z,,0,,,2930.7889999999898,completion,,,,,false,,,,381966.60000038147,381966,379018.869,379024.5,379035.211,381976.796,8,400,,,
trial,html.Screen,4_93_0,2023-09-13T00:07:16.893Z,,0,2,,3138.504001144436,response,ISIC_1603834.JPG,7,ISIC_1532403.JPG,ISIC_1532403.JPG,false,0,keypress(z),500,385115.8000011444,385115.3000011444,381960.451,381967,381976.796,385143.359,8,400,44,,ISIC_1603834.JPG
break,html.Screen,4_93_1,2023-09-13T00:07:16.896Z,,0,,,NaN,,,,,,false,,,,385118.60000038147,385117.60000038147,,385116.20000076294,,385143.359,8,400,,,
break_continue,html.Screen,4_93_2,2023-09-13T00:07:16.898Z,,0,,,NaN,,,,,,false,,,,385120.20000076294,385119.70000076294,,385119,,385143.359,8,400,,,
sequence,flow.Sequence,4_93,2023-09-13T00:07:16.898Z,,0,,,3142.9040007629665,completion,,,,,false,,,,385120.89999961853,385119.70000076294,381960.451,381966.8000011444,381976.796,385143.359,8,400,,,
trial,html.Screen,4_94_0,2023-09-13T00:07:19.746Z,,0,2,,2824.8410007629427,response,ISIC_7185036.JPG,9,ISIC_0026910.JPG,ISIC_0026910.JPG,false,0,keypress(z),500,387968.70000076294,387968.20000076294,385101.97,385121.3000011444,385143.359,387984.922,8,400,45,,ISIC_7185036.JPG
break,html.Screen,4_94_1,2023-09-13T00:07:19.749Z,,0,,,NaN,,,,,,false,,,,387971.3000011444,387970.60000038147,,387969.10000038147,,387984.922,8,400,,,
break_continue,html.Screen,4_94_2,2023-09-13T00:07:19.750Z,,0,,,NaN,,,,,,false,,,,387972.8000011444,387972.5,,387971.60000038147,,387984.922,8,400,,,
sequence,flow.Sequence,4_94,2023-09-13T00:07:19.751Z,,0,,,2829.1410000000033,completion,,,,,false,,,,387973.3000011444,387972.5,385101.97,385121.20000076294,385143.359,387984.922,8,400,,,
trial,html.Screen,4_95_0,2023-09-13T00:07:22.695Z,,0,2,,2931.97799961851,response,ISIC_0025754.JPG,15,ISIC_0976232.JPG,ISIC_0976232.JPG,false,0,keypress(z),500,390917.39999961853,390916.89999961853,387968.593,387973.60000038147,387984.922,390926.466,8,400,46,,ISIC_0025754.JPG
break,html.Screen,4_95_1,2023-09-13T00:07:22.697Z,,0,,,NaN,,,,,,false,,,,390919.89999961853,390919.3000011444,,390917.8000011444,,390926.466,8,400,,,
break_continue,html.Screen,4_95_2,2023-09-13T00:07:22.699Z,,0,,,NaN,,,,,,false,,,,390921.39999961853,390921.10000038147,,390920.3000011444,,390926.466,8,400,,,
sequence,flow.Sequence,4_95,2023-09-13T00:07:22.699Z,,0,,,2936.1780003814492,completion,,,,,false,,,,390921.70000076294,390921.10000038147,387968.593,387973.39999961853,387984.922,390926.466,8,400,,,
trial,html.Screen,4_96_0,2023-09-13T00:07:25.461Z,,0,2,,2757.2340007629246,response,ISIC_0001157.JPG,10,ISIC_7052658.JPG,ISIC_0001157.JPG,false,1,keypress(m),500,393684.10000038147,393683.70000076294,390918.445,390922,390926.466,393693,8,400,47,,ISIC_7052658.JPG
break,html.Screen,4_96_1,2023-09-13T00:07:25.464Z,,0,,,NaN,,,,,,false,,,,393686.3000011444,393685.60000038147,,393684.39999961853,,393693,8,400,,,
break_continue,html.Screen,4_96_2,2023-09-13T00:07:25.465Z,,0,,,NaN,,,,,,false,,,,393687.39999961853,393687.3000011444,,393686.60000038147,,393693,8,400,,,
sequence,flow.Sequence,4_96,2023-09-13T00:07:25.465Z,,0,,,2760.8340011443943,completion,,,,,false,,,,393687.8000011444,393687.3000011444,390918.445,390922,390926.466,393693,8,400,,,
trial,html.Screen,4_97_0,2023-09-13T00:07:28.240Z,,0,2,,2769.6000003814697,response,ISIC_9947369.JPG,14,ISIC_0024990.JPG,ISIC_9947369.JPG,false,1,keypress(m),500,396463,396462.60000038147,393676.327,393688,393693,396476.247,8,400,48,,ISIC_0024990.JPG
break,html.Screen,4_97_1,2023-09-13T00:07:28.243Z,,0,,,NaN,,,,,,false,,,,396465.20000076294,396464.5,,396463.3000011444,,396476.247,8,400,,,
break_continue,html.Screen,4_97_2,2023-09-13T00:07:28.244Z,,0,,,NaN,,,,,,false,,,,396466.60000038147,396466.39999961853,,396465.60000038147,,396476.247,8,400,,,
sequence,flow.Sequence,4_97,2023-09-13T00:07:28.244Z,,0,,,2773.3999996185303,completion,,,,,false,,,,396466.89999961853,396466.39999961853,393676.327,393687.89999961853,393693,396476.247,8,400,,,
trial,html.Screen,4_98_0,2023-09-13T00:07:32.191Z,,0,2,,3936.9530007629655,response,ISIC_0070422.JPG,10,ISIC_0029868.JPG,ISIC_0070422.JPG,false,1,keypress(m),500,400413.60000038147,400413.20000076294,396459.909,396467.20000076294,396476.247,400434.511,8,400,49,,ISIC_0029868.JPG
break,html.Screen,4_98_1,2023-09-13T00:07:32.194Z,,0,,,NaN,,,,,,false,,,,400416.39999961853,400415.5,,400414,,400434.511,8,400,,,
break_continue,html.Screen,4_98_2,2023-09-13T00:07:32.195Z,,0,,,NaN,,,,,,false,,,,400418.10000038147,400417.8000011444,,400416.8000011444,,400434.511,8,400,,,
sequence,flow.Sequence,4_98,2023-09-13T00:07:32.196Z,,0,,,3941.5530011444353,completion,,,,,false,,,,400418.5,400417.8000011444,396459.909,396467.10000038147,396476.247,400434.511,8,400,,,
trial,html.Screen,4_99_0,2023-09-13T00:07:35.026Z,,0,2,,2813.089000381471,response,ISIC_8109460.JPG,8,ISIC_7809510.JPG,ISIC_7809510.JPG,false,0,keypress(z),500,403248.20000076294,403247.60000038147,400409.775,400418.8000011444,400434.511,403259.389,8,400,50,,ISIC_8109460.JPG
break,html.Screen,4_99_1,2023-09-13T00:07:45.021Z,,0,,,9999.360999999975,timeout,,,,,false,,,,413243.89999961853,413242.506,403243.003,403248.5,403259.389,413258.75,8,400,,,
break_continue,html.Screen,4_99_2,2023-09-13T00:09:58.137Z,,0,,,133055.95000076294,response,,,,,false,continue,keypress(Space),,546364.5,546314.7000007629,413242.506,413244.3000011444,413258.75,546380.159,8,400,,,
sequence,flow.Sequence,4_99,2023-09-13T00:09:58.137Z,,0,,,145880.18900076294,completion,,,,,false,,,,546364.8999996185,546314.7000007629,400409.775,400418.70000076294,400434.511,546380.159,8,400,,,
trial,html.Screen,4_100_0,2023-09-13T00:10:02.023Z,,0,3,,3869.9410003814846,response,ISIC_0055737.JPG,12,ISIC_4187627.JPG,ISIC_4187627.JPG,false,0,keypress(z),500,550250.5,550250.1000003815,546362.588,546365.1000003815,546380.159,550263.339,8,400,1,,ISIC_0055737.JPG
break,html.Screen,4_100_1,2023-09-13T00:10:02.025Z,,0,,,NaN,,,,,,false,,,,550252.6000003815,550252,,550250.8999996185,,550263.339,8,400,,,
break_continue,html.Screen,4_100_2,2023-09-13T00:10:02.026Z,,0,,,NaN,,,,,,false,,,,550253.8000011444,550253.5,,550252.8999996185,,550263.339,8,400,,,
sequence,flow.Sequence,4_100,2023-09-13T00:10:02.027Z,,0,,,3873.341000000015,completion,,,,,false,,,,550254.2000007629,550253.5,546362.588,546365.1000003815,546380.159,550263.339,8,400,,,
trial,html.Screen,4_101_0,2023-09-13T00:10:04.848Z,,0,3,,2811.461001144373,response,ISIC_1795529.JPG,7,ISIC_2171940.JPG,ISIC_2171940.JPG,false,0,keypress(z),500,553075.2000007629,553074.8000011444,550238.713,550254.3999996185,550263.339,553088.286,8,400,2,,ISIC_1795529.JPG
break,html.Screen,4_101_1,2023-09-13T00:10:04.850Z,,0,,,NaN,,,,,,false,,,,553077.5,553077,,553075.7000007629,,553088.286,8,400,,,
break_continue,html.Screen,4_101_2,2023-09-13T00:10:04.851Z,,0,,,NaN,,,,,,false,,,,553078.8999996185,553078.7000007629,,553077.8999996185,,553088.286,8,400,,,
sequence,flow.Sequence,4_101,2023-09-13T00:10:04.852Z,,0,,,2815.361000762903,completion,,,,,false,,,,553079.3000011444,553078.7000007629,550238.713,550254.3000011444,550263.339,553088.286,8,400,,,
trial,html.Screen,4_102_0,2023-09-13T00:10:07.697Z,,0,3,,2835.7140000000363,response,ISIC_4129376.JPG,13,ISIC_0029182.JPG,ISIC_0029182.JPG,false,0,keypress(z),500,555924.5,555924,553071.893,553079.5,553088.286,555938.198,8,400,3,,ISIC_4129376.JPG
break,html.Screen,4_102_1,2023-09-13T00:10:07.699Z,,0,,,NaN,,,,,,false,,,,555927.1000003815,555926.1000003815,,555924.8000011444,,555938.198,8,400,,,
break_continue,html.Screen,4_102_2,2023-09-13T00:10:07.701Z,,0,,,NaN,,,,,,false,,,,555928.8000011444,555928.5,,555927.3999996185,,555938.198,8,400,,,
sequence,flow.Sequence,4_102,2023-09-13T00:10:07.702Z,,0,,,2840.2140000000363,completion,,,,,false,,,,555929.2000007629,555928.5,553071.893,553079.5,553088.286,555938.198,8,400,,,
trial,html.Screen,4_103_0,2023-09-13T00:10:10.257Z,,0,3,,2545.7019996185554,response,ISIC_3157046.JPG,9,ISIC_7184722.JPG,ISIC_3157046.JPG,false,1,keypress(m),500,558484.3999996185,558483.8999996185,555921.544,555929.5,555938.198,558488.095,8,400,4,,ISIC_7184722.JPG
break,html.Screen,4_103_1,2023-09-13T00:10:10.259Z,,0,,,NaN,,,,,,false,,,,558487.1000003815,558486.2000007629,,558484.8999996185,,558488.095,8,400,,,
break_continue,html.Screen,4_103_2,2023-09-13T00:10:10.261Z,,0,,,NaN,,,,,,false,,,,558488.8999996185,558488.7000007629,,558487.3999996185,,558488.095,8,400,,,
sequence,flow.Sequence,4_103,2023-09-13T00:10:10.262Z,,0,,,2550.5020007629646,completion,,,,,false,,,,558489.3000011444,558488.7000007629,555921.544,555929.3999996185,555938.198,558488.095,8,400,,,
trial,html.Screen,4_104_0,2023-09-13T00:10:12.960Z,,0,3,,2699.304999618558,response,ISIC_0070061.JPG,7,ISIC_1352841.JPG,ISIC_1352841.JPG,false,0,keypress(z),500,561187.8999996185,561187.3999996185,558471.728,558489.7000007629,558488.095,561204.701,8,400,5,,ISIC_0070061.JPG
break,html.Screen,4_104_1,2023-09-13T00:10:12.963Z,,0,,,NaN,,,,,,false,,,,561190.7000007629,561189.8000011444,,561188.3000011444,,561204.701,8,400,,,
break_continue,html.Screen,4_104_2,2023-09-13T00:10:12.965Z,,0,,,NaN,,,,,,false,,,,561192.3999996185,561192,,561191.1000003815,,561204.701,8,400,,,
sequence,flow.Sequence,4_104,2023-09-13T00:10:12.965Z,,0,,,2703.905000000028,completion,,,,,false,,,,561192.8999996185,561192,558471.728,558489.6000003815,558488.095,561204.701,8,400,,,
trial,html.Screen,4_105_0,2023-09-13T00:10:15.686Z,,0,3,,2708.798999999999,response,ISIC_0028405.JPG,12,ISIC_3474472.JPG,ISIC_3474472.JPG,false,0,keypress(z),500,563914,563913.5,561179.976,561196.6000003815,561204.701,563937.964,8,400,6,,ISIC_0028405.JPG
break,html.Screen,4_105_1,2023-09-13T00:10:15.689Z,,0,,,NaN,,,,,,false,,,,563916.6000003815,563915.7000007629,,563914.3999996185,,563937.964,8,400,,,
break_continue,html.Screen,4_105_2,2023-09-13T00:10:15.690Z,,0,,,NaN,,,,,,false,,,,563918,563917.7000007629,,563916.8999996185,,563937.964,8,400,,,
sequence,flow.Sequence,4_105,2023-09-13T00:10:15.691Z,,0,,,2712.9990007629385,completion,,,,,false,,,,563918.3000011444,563917.7000007629,561179.976,561196.5,561204.701,563937.964,8,400,,,
trial,html.Screen,4_106_0,2023-09-13T00:10:18.362Z,,0,3,,2651.336001144373,response,ISIC_0000314.JPG,10,ISIC_0012369.JPG,ISIC_0012369.JPG,false,0,keypress(z),500,566589.8000011444,566589.3000011444,563913.259,563918.8999996185,563937.964,566604.5,8,400,7,,ISIC_0000314.JPG
break,html.Screen,4_106_1,2023-09-13T00:10:18.365Z,,0,,,NaN,,,,,,false,,,,566592.3999996185,566591.7000007629,,566590.3000011444,,566604.5,8,400,,,
break_continue,html.Screen,4_106_2,2023-09-13T00:10:18.366Z,,0,,,NaN,,,,,,false,,,,566594,566593.6000003815,,566592.7000007629,,566604.5,8,400,,,
sequence,flow.Sequence,4_106,2023-09-13T00:10:18.367Z,,0,,,2655.6360003814334,completion,,,,,false,,,,566594.3999996185,566593.6000003815,563913.259,563918.8000011444,563937.964,566604.5,8,400,,,
trial,html.Screen,4_107_0,2023-09-13T00:10:20.971Z,,0,3,,2593.8999996185303,response,ISIC_3944634.JPG,7,ISIC_5920470.JPG,ISIC_3944634.JPG,false,1,keypress(m),500,569198.8000011444,569198.3999996185,566588.095,566594.7000007629,566604.5,569221.072,8,400,8,,ISIC_5920470.JPG
break,html.Screen,4_107_1,2023-09-13T00:10:20.974Z,,0,,,NaN,,,,,,false,,,,569201.2000007629,569200.5,,569199.2000007629,,569221.072,8,400,,,
break_continue,html.Screen,4_107_2,2023-09-13T00:10:20.975Z,,0,,,NaN,,,,,,false,,,,569202.6000003815,569202.3000011444,,569201.5,,569221.072,8,400,,,
sequence,flow.Sequence,4_107,2023-09-13T00:10:20.975Z,,0,,,2597.800001144409,completion,,,,,false,,,,569203,569202.3000011444,566588.095,566594.6000003815,566604.5,569221.072,8,400,,,
trial,html.Screen,4_108_0,2023-09-13T00:10:23.485Z,,0,3,,2491.028000381426,response,ISIC_0030481.JPG,6,ISIC_0025305.JPG,ISIC_0025305.JPG,false,0,keypress(z),500,571712.3999996185,571712.1000003815,569188.043,569203.3000011444,569221.072,571729.317,8,400,9,,ISIC_0030481.JPG
break,html.Screen,4_108_1,2023-09-13T00:10:23.487Z,,0,,,NaN,,,,,,false,,,,571714.3999996185,571713.8999996185,,571712.7000007629,,571729.317,8,400,,,
break_continue,html.Screen,4_108_2,2023-09-13T00:10:23.488Z,,0,,,NaN,,,,,,false,,,,571715.6000003815,571715.3999996185,,571714.7000007629,,571729.317,8,400,,,
sequence,flow.Sequence,4_108,2023-09-13T00:10:23.488Z,,0,,,2494.3279996184865,completion,,,,,false,,,,571716,571715.3999996185,569188.043,569203.2000007629,569221.072,571729.317,8,400,,,
trial,html.Screen,4_109_0,2023-09-13T00:10:26.156Z,,0,3,,2653.7830003814306,response,ISIC_6356522.JPG,8,ISIC_0006321.JPG,ISIC_6356522.JPG,false,1,keypress(m),500,574383.6000003815,574383.1000003815,571704.566,571716.3000011444,571729.317,574404.208,8,400,10,,ISIC_0006321.JPG
break,html.Screen,4_109_1,2023-09-13T00:10:26.158Z,,0,,,NaN,,,,,,false,,,,574385.8999996185,574385.2000007629,,574383.8000011444,,574404.208,8,400,,,
break_continue,html.Screen,4_109_2,2023-09-13T00:10:26.160Z,,0,,,NaN,,,,,,false,,,,574387.3999996185,574387.1000003815,,574386.3000011444,,574404.208,8,400,,,
sequence,flow.Sequence,4_109,2023-09-13T00:10:26.160Z,,0,,,2657.7830003814306,completion,,,,,false,,,,574387.8000011444,574387.1000003815,571704.566,571716.1000003815,571729.317,574404.208,8,400,,,
trial,html.Screen,4_110_0,2023-09-13T00:10:28.331Z,,0,3,,2153.4920007629553,response,ISIC_0029716.JPG,12,ISIC_0033181.JPG,ISIC_0033181.JPG,false,0,keypress(z),500,576558.3000011444,576557.7000007629,574379.528,574388.1000003815,574404.208,576579.129,8,400,11,,ISIC_0029716.JPG
break,html.Screen,4_110_1,2023-09-13T00:10:28.333Z,,0,,,NaN,,,,,,false,,,,576560.7000007629,576560,,576558.7000007629,,576579.129,8,400,,,
break_continue,html.Screen,4_110_2,2023-09-13T00:10:28.335Z,,0,,,NaN,,,,,,false,,,,576562.3000011444,576562,,576560.8999996185,,576579.129,8,400,,,
sequence,flow.Sequence,4_110,2023-09-13T00:10:28.335Z,,0,,,2157.792000000016,completion,,,,,false,,,,576562.7000007629,576562,574379.528,574388,574404.208,576579.129,8,400,,,
trial,html.Screen,4_111_0,2023-09-13T00:10:31.293Z,,0,3,,2941.270999618573,response,ISIC_0065378.JPG,6,ISIC_1871890.JPG,ISIC_1871890.JPG,false,0,keypress(z),500,579520.8999996185,579520.3999996185,576562.472,576563.1000003815,576579.129,579529.008,8,400,12,,ISIC_0065378.JPG
break,html.Screen,4_111_1,2023-09-13T00:10:31.296Z,,0,,,NaN,,,,,,false,,,,579523.3999996185,579522.7000007629,,579521.2000007629,,579529.008,8,400,,,
break_continue,html.Screen,4_111_2,2023-09-13T00:10:31.297Z,,0,,,NaN,,,,,,false,,,,579524.7000007629,579524.5,,579523.6000003815,,579529.008,8,400,,,
sequence,flow.Sequence,4_111,2023-09-13T00:10:31.297Z,,0,,,2945.371000000043,completion,,,,,false,,,,579525.1000003815,579524.5,576562.472,576563,576579.129,579529.008,8,400,,,
trial,html.Screen,4_112_0,2023-09-13T00:10:34.177Z,,0,3,,2870.092000381439,response,ISIC_0009993.JPG,13,ISIC_3049506.JPG,ISIC_0009993.JPG,false,1,keypress(m),500,582399.6000003815,582399.1000003815,579512.702,579525.3999996185,579529.008,582403.91,8,400,13,,ISIC_3049506.JPG
break,html.Screen,4_112_1,2023-09-13T00:10:34.180Z,,0,,,NaN,,,,,,false,,,,582402.3999996185,582401.5,,582400,,582403.91,8,400,,,
break_continue,html.Screen,4_112_2,2023-09-13T00:10:34.181Z,,0,,,NaN,,,,,,false,,,,582404,582403.7000007629,,582402.8000011444,,582403.91,8,400,,,
sequence,flow.Sequence,4_112,2023-09-13T00:10:34.182Z,,0,,,2874.6920007629087,completion,,,,,false,,,,582404.3999996185,582403.7000007629,579512.702,579525.2000007629,579529.008,582403.91,8,400,,,
trial,html.Screen,4_113_0,2023-09-13T00:10:37.154Z,,0,3,,2972.290000762907,response,ISIC_9764973.JPG,8,ISIC_9521776.JPG,ISIC_9521776.JPG,false,0,keypress(z),500,585376.6000003815,585376.2000007629,582387.527,582404.7000007629,582403.91,585403.859,8,400,14,,ISIC_9764973.JPG
break,html.Screen,4_113_1,2023-09-13T00:10:37.156Z,,0,,,NaN,,,,,,false,,,,585378.8000011444,585378.2000007629,,585376.8999996185,,585403.859,8,400,,,
break_continue,html.Screen,4_113_2,2023-09-13T00:10:37.157Z,,0,,,NaN,,,,,,false,,,,585380.2000007629,585379.8999996185,,585379.1000003815,,585403.859,8,400,,,
sequence,flow.Sequence,4_113,2023-09-13T00:10:37.158Z,,0,,,2975.9899996184977,completion,,,,,false,,,,585380.5,585379.8999996185,582387.527,582404.6000003815,582403.91,585403.859,8,400,,,
trial,html.Screen,4_114_0,2023-09-13T00:10:39.840Z,,0,3,,2658.241000381415,response,ISIC_0032918.JPG,10,ISIC_3791309.JPG,ISIC_3791309.JPG,false,0,keypress(z),500,588062.6000003815,588062.1000003815,585362.375,585380.7000007629,585403.859,588078.805,8,400,15,,ISIC_0032918.JPG
break,html.Screen,4_114_1,2023-09-13T00:10:39.843Z,,0,,,NaN,,,,,,false,,,,588065.3000011444,588064.3000011444,,588063,,588078.805,8,400,,,
break_continue,html.Screen,4_114_2,2023-09-13T00:10:39.844Z,,0,,,NaN,,,,,,false,,,,588066.8000011444,588066.6000003815,,588065.6000003815,,588078.805,8,400,,,
sequence,flow.Sequence,4_114,2023-09-13T00:10:39.845Z,,0,,,2662.741000381415,completion,,,,,false,,,,588067.3000011444,588066.6000003815,585362.375,585380.7000007629,585403.859,588078.805,8,400,,,
trial,html.Screen,4_115_0,2023-09-13T00:10:42.641Z,,0,3,,2784.3950007628882,response,ISIC_3965087.JPG,4,ISIC_0030156.JPG,ISIC_0030156.JPG,false,0,keypress(z),500,590863.7000007629,590863.2000007629,588062.35,588067.6000003815,588078.805,590878.579,8,400,16,,ISIC_3965087.JPG
break,html.Screen,4_115_1,2023-09-13T00:10:42.643Z,,0,,,NaN,,,,,,false,,,,590866,590865.3999996185,,590864,,590878.579,8,400,,,
break_continue,html.Screen,4_115_2,2023-09-13T00:10:42.645Z,,0,,,NaN,,,,,,false,,,,590867.3999996185,590867.2000007629,,590866.3999996185,,590878.579,8,400,,,
sequence,flow.Sequence,4_115,2023-09-13T00:10:42.645Z,,0,,,2788.3950007628882,completion,,,,,false,,,,590867.8000011444,590867.2000007629,588062.35,588067.3999996185,588078.805,590878.579,8,400,,,
trial,html.Screen,4_116_0,2023-09-13T00:10:45.422Z,,0,3,,2766.1210007629124,response,ISIC_1522266.JPG,10,ISIC_0027305.JPG,ISIC_0027305.JPG,false,0,keypress(z),500,593645.1000003815,593644.7000007629,590862.202,590868,590878.579,593653.531,8,400,17,,ISIC_1522266.JPG
break,html.Screen,4_116_1,2023-09-13T00:10:45.425Z,,0,,,NaN,,,,,,false,,,,593647.2000007629,593646.7000007629,,593645.5,,593653.531,8,400,,,
break_continue,html.Screen,4_116_2,2023-09-13T00:10:45.426Z,,0,,,NaN,,,,,,false,,,,593648.3999996185,593648.1000003815,,593647.5,,593653.531,8,400,,,
sequence,flow.Sequence,4_116,2023-09-13T00:10:45.426Z,,0,,,2769.5210003814427,completion,,,,,false,,,,593648.8000011444,593648.1000003815,590862.202,590868,590878.579,593653.531,8,400,,,
trial,html.Screen,4_117_0,2023-09-13T00:10:48.201Z,,0,3,,2769.3689996185713,response,ISIC_0072768.JPG,9,ISIC_0010007.JPG,ISIC_0010007.JPG,false,0,keypress(z),500,596423.3000011444,596422.8999996185,593636.902,593649,593653.531,596445.124,8,400,18,,ISIC_0072768.JPG
break,html.Screen,4_117_1,2023-09-13T00:10:48.203Z,,0,,,NaN,,,,,,false,,,,596425.5,596424.8999996185,,596423.5,,596445.124,8,400,,,
break_continue,html.Screen,4_117_2,2023-09-13T00:10:48.204Z,,0,,,NaN,,,,,,false,,,,596426.6000003815,596426.3000011444,,596425.7000007629,,596445.124,8,400,,,
sequence,flow.Sequence,4_117,2023-09-13T00:10:48.204Z,,0,,,2772.76900114445,completion,,,,,false,,,,596426.8999996185,596426.3000011444,593636.902,593648.8999996185,593653.531,596445.124,8,400,,,
trial,html.Screen,4_118_0,2023-09-13T00:10:50.866Z,,0,3,,2642.8760000000475,response,ISIC_8140072.JPG,11,ISIC_0033640.JPG,ISIC_8140072.JPG,false,1,keypress(m),500,599088.3999996185,599088,596420.354,596427.2000007629,596445.124,599103.381,8,400,19,,ISIC_0033640.JPG
break,html.Screen,4_118_1,2023-09-13T00:10:50.869Z,,0,,,NaN,,,,,,false,,,,599091.3000011444,599090.3999996185,,599088.8999996185,,599103.381,8,400,,,
break_continue,html.Screen,4_118_2,2023-09-13T00:10:50.870Z,,0,,,NaN,,,,,,false,,,,599093,599092.6000003815,,599091.7000007629,,599103.381,8,400,,,
sequence,flow.Sequence,4_118,2023-09-13T00:10:50.871Z,,0,,,2647.476000381517,completion,,,,,false,,,,599093.3999996185,599092.6000003815,596420.354,596427,596445.124,599103.381,8,400,,,
trial,html.Screen,4_119_0,2023-09-13T00:10:53.818Z,,0,3,,2937.2190003814176,response,ISIC_6052437.JPG,11,ISIC_6985114.JPG,ISIC_6985114.JPG,false,0,keypress(z),500,602041,602040.6000003815,599086.97,599093.7000007629,599103.381,602053.213,8,400,20,,ISIC_6052437.JPG
break,html.Screen,4_119_1,2023-09-13T00:10:53.821Z,,0,,,NaN,,,,,,false,,,,602043.5,602042.8000011444,,602041.3999996185,,602053.213,8,400,,,
break_continue,html.Screen,4_119_2,2023-09-13T00:10:53.822Z,,0,,,NaN,,,,,,false,,,,602044.8999996185,602044.5,,602043.7000007629,,602053.213,8,400,,,
sequence,flow.Sequence,4_119,2023-09-13T00:10:53.823Z,,0,,,2941.118999999948,completion,,,,,false,,,,602045.2000007629,602044.5,599086.97,599093.6000003815,599103.381,602053.213,8,400,,,
trial,html.Screen,4_120_0,2023-09-13T00:10:56.525Z,,0,3,,2693.787000000011,response,ISIC_0014657.JPG,11,ISIC_0031561.JPG,ISIC_0031561.JPG,false,0,keypress(z),500,604747.5,604747,602036.912,602045.5,602053.213,604769.863,8,400,21,,ISIC_0014657.JPG
break,html.Screen,4_120_1,2023-09-13T00:10:56.528Z,,0,,,NaN,,,,,,false,,,,604750.3000011444,604749.3000011444,,604747.8999996185,,604769.863,8,400,,,
break_continue,html.Screen,4_120_2,2023-09-13T00:10:56.529Z,,0,,,NaN,,,,,,false,,,,604751.8999996185,604751.7000007629,,604750.8000011444,,604769.863,8,400,,,
sequence,flow.Sequence,4_120,2023-09-13T00:10:56.530Z,,0,,,2698.4870007629506,completion,,,,,false,,,,604752.3999996185,604751.7000007629,602036.912,602045.3999996185,602053.213,604769.863,8,400,,,
trial,html.Screen,4_121_0,2023-09-13T00:10:59.394Z,,0,3,,2846.8370007629273,response,ISIC_3989526.JPG,6,ISIC_7685920.JPG,ISIC_7685920.JPG,false,0,keypress(z),500,607617.1000003815,607616.7000007629,604744.843,604752.6000003815,604769.863,607636.716,8,400,22,,ISIC_3989526.JPG
break,html.Screen,4_121_1,2023-09-13T00:10:59.397Z,,0,,,NaN,,,,,,false,,,,607619.5,607618.7000007629,,607617.3999996185,,607636.716,8,400,,,
break_continue,html.Screen,4_121_2,2023-09-13T00:10:59.398Z,,0,,,NaN,,,,,,false,,,,607620.8999996185,607620.5,,607619.8000011444,,607636.716,8,400,,,
sequence,flow.Sequence,4_121,2023-09-13T00:10:59.399Z,,0,,,2850.636999999988,completion,,,,,false,,,,607621.2000007629,607620.5,604744.843,604752.6000003815,604769.863,607636.716,8,400,,,
trial,html.Screen,4_122_0,2023-09-13T00:11:02.413Z,,0,3,,2998.9840007629246,response,ISIC_8468512.JPG,12,ISIC_0027881.JPG,ISIC_8468512.JPG,false,1,keypress(m),500,610636.2000007629,610635.7000007629,607603.265,607621.5,607636.716,610661.298,8,400,23,,ISIC_0027881.JPG
break,html.Screen,4_122_1,2023-09-13T00:11:02.416Z,,0,,,NaN,,,,,,false,,,,610638.6000003815,610637.8000011444,,610636.5,,610661.298,8,400,,,
break_continue,html.Screen,4_122_2,2023-09-13T00:11:02.417Z,,0,,,NaN,,,,,,false,,,,610639.8999996185,610639.6000003815,,610638.8000011444,,610661.298,8,400,,,
sequence,flow.Sequence,4_122,2023-09-13T00:11:02.418Z,,0,,,3002.884000381455,completion,,,,,false,,,,610640.3000011444,610639.6000003815,607603.265,607621.3999996185,607636.716,610661.298,8,400,,,
trial,html.Screen,4_123_0,2023-09-13T00:11:05.231Z,,0,3,,2791.6019996185787,response,ISIC_4646228.JPG,8,ISIC_3114020.JPG,ISIC_4646228.JPG,false,1,keypress(m),500,613453.3000011444,613452.8999996185,610628.261,610640.6000003815,610661.298,613461.158,8,400,24,,ISIC_3114020.JPG
break,html.Screen,4_123_1,2023-09-13T00:11:05.233Z,,0,,,NaN,,,,,,false,,,,613455.8000011444,613454.8999996185,,613453.7000007629,,613461.158,8,400,,,
break_continue,html.Screen,4_123_2,2023-09-13T00:11:05.235Z,,0,,,NaN,,,,,,false,,,,613457.3000011444,613457.1000003815,,613456.2000007629,,613461.158,8,400,,,
sequence,flow.Sequence,4_123,2023-09-13T00:11:05.235Z,,0,,,2795.802000381518,completion,,,,,false,,,,613457.7000007629,613457.1000003815,610628.261,610640.3999996185,610661.298,613461.158,8,400,,,
trial,html.Screen,4_124_0,2023-09-13T00:11:08.417Z,,0,3,,3178.341999999946,response,ISIC_0067467.JPG,11,ISIC_0016014.JPG,ISIC_0016014.JPG,false,0,keypress(z),500,616639.8999996185,616639.5,613453.116,613458,613461.158,616661.126,8,400,25,,ISIC_0067467.JPG
break,html.Screen,4_124_1,2023-09-13T00:11:08.420Z,,0,,,NaN,,,,,,false,,,,616642.3999996185,616641.7000007629,,616640.3000011444,,616661.126,8,400,,,
break_continue,html.Screen,4_124_2,2023-09-13T00:11:08.421Z,,0,,,NaN,,,,,,false,,,,616643.8999996185,616643.6000003815,,616642.7000007629,,616661.126,8,400,,,
sequence,flow.Sequence,4_124,2023-09-13T00:11:08.422Z,,0,,,3182.4420003814157,completion,,,,,false,,,,616644.2000007629,616643.6000003815,613453.116,613457.8999996185,613461.158,616661.126,8,400,,,
trial,html.Screen,4_125_0,2023-09-13T00:11:11.697Z,,0,3,,3257.773999618483,response,ISIC_9956400.JPG,6,ISIC_8290994.JPG,ISIC_9956400.JPG,false,1,keypress(m),500,619919.3000011444,619918.8999996185,616628.046,616644.6000003815,616661.126,619927.614,8,400,26,,ISIC_8290994.JPG
