sender,sender_type,sender_id,timestamp,meta,,blockNo,condition,duration,ended_on,img_left,img_reveal,img_right,loser,practice,response,response_action,selection_duration,time_commit,time_end,time_render,time_run,time_show,time_switch,total_blocks,total_trials,trialNo,url,winner
informed_consent,html.Screen,0,2023-10-30T22:21:47.300Z,"{""labjs_version"":""20.2.4"",""labjs_build"":{""flavor"":""production"",""commit"":""f5b4a49f956347addd546a832a3327688c2c0fef""},""location"":""https://run.pavlovia.org/MurrayBennett/melanoma-2afc/?participant=66256&platform=sona"",""userAgent"":""Mozilla/5.0 (Macintosh; Intel Mac OS X 10_15_7) AppleWebKit/537.36 (KHTML, like Gecko) Chrome/116.0.0.0 Safari/537.36"",""platform"":""MacIntel"",""language"":""en-US"",""locale"":""en-US"",""timeZone"":""America/Chicago"",""timezoneOffset"":300,""screen_width"":1440,""screen_height"":900,""scroll_width"":1440,""scroll_height"":767,""window_innerWidth"":1440,""window_innerHeight"":815,""devicePixelRatio"":2}",,,,12122.049999904633,response,,,,,,consent,click button,,14469.799999952316,14467.599999904633,2328.884,2322.9000000953674,2345.55,14479.31,,,,"{""participant"":""66256"",""platform"":""sona""}",
Welcome,html.Screen,1,2023-10-30T22:22:26.618Z,,,,regular,39305.48999995232,response,,,,,,continue,click button,,53787.59999990463,53784.799999952316,14462.644,14469.900000095367,14479.31,53795.61,,,,,
trial,html.Screen,2_0_0,2023-10-30T22:22:31.457Z,,0,0,,4830.689999952316,response,ISIC_0061792.JPG,,ISIC_4679428.JPG,ISIC_0061792.JPG,true,1,keypress(m),500,58627,58626.299999952316,53778.944,53787.799999952316,53795.61,58628.75,1,6,1,,ISIC_4679428.JPG
sequence,flow.Sequence,2_0,2023-10-30T22:22:31.458Z,,0,,,4830.689999952316,completion,,,,,true,,,,58627.5,58626.299999952316,53778.944,53787.799999952316,53795.61,58628.75,1,6,,,
trial,html.Screen,2_1_0,2023-10-30T22:22:38.339Z,,0,0,,6879.549999952316,response,ISIC_0776486.JPG,,ISIC_5199497.JPG,ISIC_0776486.JPG,true,1,keypress(m),500,65508.799999952316,65508.299999952316,58612.084,58627.700000047684,58628.75,65513.59,1,6,2,,ISIC_5199497.JPG
sequence,flow.Sequence,2_1,2023-10-30T22:22:38.340Z,,0,,,6879.549999952316,completion,,,,,true,,,,65509.200000047684,65508.299999952316,58612.084,58627.59999990463,58628.75,65513.59,1,6,,,
trial,html.Screen,2_2_0,2023-10-30T22:22:48.466Z,,0,0,,10121.410000000003,response,ISIC_2556187.JPG,,ISIC_8575776.JPG,ISIC_8575776.JPG,true,0,keypress(z),500,75635.5,75635,65496.924,65509.5,65513.59,75647.322,1,6,3,,ISIC_2556187.JPG
sequence,flow.Sequence,2_2,2023-10-30T22:22:48.466Z,,0,,,10121.410000000003,completion,,,,,true,,,,75635.90000009537,75635,65496.924,65509.40000009537,65513.59,75647.322,1,6,,,
trial,html.Screen,2_3_0,2023-10-30T22:22:59.967Z,,0,0,,11516.843999999997,timeout,ISIC_9238366.JPG,,ISIC_8141769.JPG,,true,,,500,87136.79999995232,87136.29999995232,75630.656,75636.29999995232,75647.322,87164.166,1,6,4,,
sequence,flow.Sequence,2_3,2023-10-30T22:22:59.968Z,,0,,,11488.977999952316,completion,,,,,true,,,,87137.20000004768,87136.29999995232,75630.656,75636.09999990463,75647.322,87164.166,1,6,,,
trial,html.Screen,2_4_0,2023-10-30T22:23:03.397Z,,0,0,,3401.633999952319,response,ISIC_8949026.JPG,,ISIC_9959593.JPG,ISIC_8949026.JPG,true,1,keypress(m),500,90566.5,90565.79999995232,87147.5,87137.5,87164.166,90580.696,1,6,5,,ISIC_9959593.JPG
sequence,flow.Sequence,2_4,2023-10-30T22:23:03.397Z,,0,,,3401.633999952319,completion,,,,,true,,,,90567,90565.79999995232,87147.5,87137.40000009537,87164.166,90580.696,1,6,,,
trial,html.Screen,2_5_0,2023-10-30T22:23:07.594Z,,0,0,,4182.004000047687,response,ISIC_0010479.JPG,,ISIC_0460240.JPG,ISIC_0460240.JPG,true,0,keypress(z),500,94763.29999995232,94762.70000004768,90564.03,90567.20000004768,90580.696,94780.528,1,6,6,,ISIC_0010479.JPG
sequence,flow.Sequence,2_5,2023-10-30T22:23:07.594Z,,0,,,4182.004000047687,completion,,,,,true,,,,94763.70000004768,94762.70000004768,90564.03,90567.09999990463,90580.696,94780.528,1,6,,,
loop,flow.Loop,2,2023-10-30T22:23:07.594Z,,,,,40967.09000004768,completion,,,,,true,,,,94764,94762.70000004768,53778.944,53787.700000047684,53795.61,94780.528,1,6,,,
exp_instructions,html.Screen,3,2023-10-30T22:23:41.322Z,,,,,33707.27199995231,response,,,,,,continue,keypress(Space),,128491.90000009537,128487.79999995232,94763.862,94764.09999990463,94780.528,128495.846,,,,,
trial,html.Screen,4_0_0,2023-10-30T22:23:44.800Z,,0,1,,3473.8540000476787,response,ISIC_0061630.JPG,8,ISIC_0071434.JPG,ISIC_0061630.JPG,false,1,keypress(m),500,131970.20000004768,131969.70000004768,128479.18,128492.09999990463,128495.846,131981.271,8,400,1,,ISIC_0071434.JPG
break,html.Screen,4_0_1,2023-10-30T22:23:44.802Z,,0,,,NaN,,,,,,false,,,,131971.59999990463,131971.29999995232,,131970.5,,131981.271,8,400,,,
break_continue,html.Screen,4_0_2,2023-10-30T22:23:44.802Z,,0,,,NaN,,,,,,false,,,,131972,131971.90000009537,,131971.79999995232,,131981.271,8,400,,,
sequence,flow.Sequence,4_0,2023-10-30T22:23:44.802Z,,0,,,3476.0540000953624,completion,,,,,false,,,,131972.20000004768,131971.90000009537,128479.18,128492.09999990463,128495.846,131981.271,8,400,,,
trial,html.Screen,4_1_0,2023-10-30T22:23:48.903Z,,0,1,,4091.1290000953595,response,ISIC_0025748.JPG,5,ISIC_9955163.JPG,ISIC_9955163.JPG,false,0,keypress(z),500,136072.79999995232,136072.40000009537,131964.605,131972.29999995232,131981.271,136081.107,8,400,2,,ISIC_0025748.JPG
break,html.Screen,4_1_1,2023-10-30T22:23:48.904Z,,0,,,NaN,,,,,,false,,,,136073.90000009537,136073.70000004768,,136073.09999990463,,136081.107,8,400,,,
break_continue,html.Screen,4_1_2,2023-10-30T22:23:48.904Z,,0,,,NaN,,,,,,false,,,,136074.29999995232,136074.09999990463,,136074,,136081.107,8,400,,,
sequence,flow.Sequence,4_1,2023-10-30T22:23:48.905Z,,0,,,4092.8289999046247,completion,,,,,false,,,,136074.40000009537,136074.09999990463,131964.605,131972.29999995232,131981.271,136081.107,8,400,,,
trial,html.Screen,4_2_0,2023-10-30T22:23:52.654Z,,0,1,,3741.692999952327,response,ISIC_0014558.JPG,7,ISIC_7935007.JPG,ISIC_7935007.JPG,false,0,keypress(z),500,139823.29999995232,139822.79999995232,136064.441,136074.59999990463,136081.107,139831.538,8,400,3,,ISIC_0014558.JPG
break,html.Screen,4_2_1,2023-10-30T22:23:52.655Z,,0,,,NaN,,,,,,false,,,,139824.29999995232,139824.09999990463,,139823.59999990463,,139831.538,8,400,,,
break_continue,html.Screen,4_2_2,2023-10-30T22:23:52.655Z,,0,,,NaN,,,,,,false,,,,139824.59999990463,139824.59999990463,,139824.40000009537,,139831.538,8,400,,,
sequence,flow.Sequence,4_2,2023-10-30T22:23:52.655Z,,0,,,3743.4929999046435,completion,,,,,false,,,,139824.90000009537,139824.59999990463,136064.441,136074.59999990463,136081.107,139831.538,8,400,,,
trial,html.Screen,4_3_0,2023-10-30T22:23:56.436Z,,0,1,,3774.1620000476833,response,ISIC_5703909.JPG,6,ISIC_0072837.JPG,ISIC_5703909.JPG,false,1,keypress(m),500,143606.20000004768,143605.70000004768,139814.872,139825,139831.538,143614.72,8,400,4,,ISIC_0072837.JPG
break,html.Screen,4_3_1,2023-10-30T22:23:56.437Z,,0,,,NaN,,,,,,false,,,,143607.20000004768,143607.09999990463,,143606.5,,143614.72,8,400,,,
break_continue,html.Screen,4_3_2,2023-10-30T22:23:56.438Z,,0,,,NaN,,,,,,false,,,,143607.59999990463,143607.5,,143607.40000009537,,143614.72,8,400,,,
sequence,flow.Sequence,4_3,2023-10-30T22:23:56.438Z,,0,,,3775.9619999999995,completion,,,,,false,,,,143607.79999995232,143607.5,139814.872,139825,139831.538,143614.72,8,400,,,
trial,html.Screen,4_4_0,2023-10-30T22:23:59.586Z,,0,1,,3140.6800000953663,response,ISIC_3717983.JPG,6,ISIC_0010609.JPG,ISIC_3717983.JPG,false,1,keypress(m),500,146755.90000009537,146755.40000009537,143598.054,143608,143614.72,146764.594,8,400,5,,ISIC_0010609.JPG
break,html.Screen,4_4_1,2023-10-30T22:23:59.587Z,,0,,,NaN,,,,,,false,,,,146757,146756.79999995232,,146756.29999995232,,146764.594,8,400,,,
break_continue,html.Screen,4_4_2,2023-10-30T22:23:59.588Z,,0,,,NaN,,,,,,false,,,,146757.29999995232,146757.20000004768,,146757.09999990463,,146764.594,8,400,,,
sequence,flow.Sequence,4_4,2023-10-30T22:23:59.588Z,,0,,,3142.4800000476826,completion,,,,,false,,,,146757.5,146757.20000004768,143598.054,143607.90000009537,143614.72,146764.594,8,400,,,
trial,html.Screen,4_5_0,2023-10-30T22:24:03.897Z,,0,1,,4301.806000095356,response,ISIC_0033424.JPG,7,ISIC_0046828.JPG,ISIC_0046828.JPG,false,0,keypress(z),500,151066.79999995232,151066.40000009537,146747.928,146757.59999990463,146764.594,151081.57,8,400,6,,ISIC_0033424.JPG
break,html.Screen,4_5_1,2023-10-30T22:24:03.898Z,,0,,,NaN,,,,,,false,,,,151067.70000004768,151067.5,,151067.09999990463,,151081.57,8,400,,,
break_continue,html.Screen,4_5_2,2023-10-30T22:24:03.898Z,,0,,,NaN,,,,,,false,,,,151068.09999990463,151068,,151067.79999995232,,151081.57,8,400,,,
sequence,flow.Sequence,4_5,2023-10-30T22:24:03.899Z,,0,,,4303.405999999988,completion,,,,,false,,,,151068.40000009537,151068,146747.928,146757.59999990463,146764.594,151081.57,8,400,,,
trial,html.Screen,4_6_0,2023-10-30T22:24:06.975Z,,0,1,,3063.1300000476767,response,ISIC_8343285.JPG,5,ISIC_3833013.JPG,ISIC_8343285.JPG,false,1,keypress(m),500,154145.09999990463,154144.70000004768,151064.904,151068.5,151081.57,154148.114,8,400,7,,ISIC_3833013.JPG
break,html.Screen,4_6_1,2023-10-30T22:24:06.976Z,,0,,,NaN,,,,,,false,,,,154146.09999990463,154146,,154145.40000009537,,154148.114,8,400,,,
break_continue,html.Screen,4_6_2,2023-10-30T22:24:06.977Z,,0,,,NaN,,,,,,false,,,,154146.5,154146.29999995232,,154146.29999995232,,154148.114,8,400,,,
sequence,flow.Sequence,4_6,2023-10-30T22:24:06.977Z,,0,,,3064.7299999523093,completion,,,,,false,,,,154146.70000004768,154146.29999995232,151064.904,151068.5,151081.57,154148.114,8,400,,,
trial,html.Screen,4_7_0,2023-10-30T22:24:10.247Z,,0,1,,3267.786000095366,response,ISIC_0010034.JPG,7,ISIC_8575769.JPG,ISIC_0010034.JPG,false,1,keypress(m),500,157416.40000009537,157415.90000009537,154131.448,154146.90000009537,154148.114,157431.316,8,400,8,,ISIC_8575769.JPG
break,html.Screen,4_7_1,2023-10-30T22:24:10.248Z,,0,,,NaN,,,,,,false,,,,157417.29999995232,157417.09999990463,,157416.59999990463,,157431.316,8,400,,,
break_continue,html.Screen,4_7_2,2023-10-30T22:24:10.248Z,,0,,,NaN,,,,,,false,,,,157417.70000004768,157417.59999990463,,157417.5,,157431.316,8,400,,,
sequence,flow.Sequence,4_7,2023-10-30T22:24:10.248Z,,0,,,3269.485999904631,completion,,,,,false,,,,157417.90000009537,157417.59999990463,154131.448,154146.79999995232,154148.114,157431.316,8,400,,,
trial,html.Screen,4_8_0,2023-10-30T22:24:13.197Z,,0,1,,2935.1840000000084,response,ISIC_9947624.JPG,7,ISIC_0031589.JPG,ISIC_9947624.JPG,false,1,keypress(m),500,160366.90000009537,160366.5,157414.65,157418,157431.316,160381.772,8,400,9,,ISIC_0031589.JPG
break,html.Screen,4_8_1,2023-10-30T22:24:13.198Z,,0,,,NaN,,,,,,false,,,,160368,160367.79999995232,,160367.29999995232,,160381.772,8,400,,,
break_continue,html.Screen,4_8_2,2023-10-30T22:24:13.198Z,,0,,,NaN,,,,,,false,,,,160368.29999995232,160368.20000004768,,160368.09999990463,,160381.772,8,400,,,
sequence,flow.Sequence,4_8,2023-10-30T22:24:13.199Z,,0,,,2936.884000047692,completion,,,,,false,,,,160368.5,160368.20000004768,157414.65,157417.90000009537,157431.316,160381.772,8,400,,,
trial,html.Screen,4_9_0,2023-10-30T22:24:16.900Z,,0,1,,3687.728000000003,response,ISIC_6844752.JPG,8,ISIC_2523776.JPG,ISIC_2523776.JPG,false,0,keypress(z),500,164069.90000009537,164069.5,160365.106,160368.70000004768,160381.772,164098.29,8,400,10,,ISIC_6844752.JPG
break,html.Screen,4_9_1,2023-10-30T22:24:16.901Z,,0,,,NaN,,,,,,false,,,,164071,164070.79999995232,,164070.29999995232,,164098.29,8,400,,,
break_continue,html.Screen,4_9_2,2023-10-30T22:24:16.902Z,,0,,,NaN,,,,,,false,,,,164071.40000009537,164071.20000004768,,164071.09999990463,,164098.29,8,400,,,
sequence,flow.Sequence,4_9,2023-10-30T22:24:16.902Z,,0,,,3689.4280000476865,completion,,,,,false,,,,164071.5,164071.20000004768,160365.106,160368.59999990463,160381.772,164098.29,8,400,,,
trial,html.Screen,4_10_0,2023-10-30T22:24:20.498Z,,0,1,,3568.9100000476756,response,ISIC_4978039.JPG,8,ISIC_6616542.JPG,ISIC_4978039.JPG,false,1,keypress(m),500,167667.70000004768,167667.20000004768,164081.624,164071.70000004768,164098.29,167681.48,8,400,11,,ISIC_6616542.JPG
break,html.Screen,4_10_1,2023-10-30T22:24:20.499Z,,0,,,NaN,,,,,,false,,,,167668.79999995232,167668.59999990463,,167668,,167681.48,8,400,,,
break_continue,html.Screen,4_10_2,2023-10-30T22:24:20.499Z,,0,,,NaN,,,,,,false,,,,167669.09999990463,167669,,167668.90000009537,,167681.48,8,400,,,
sequence,flow.Sequence,4_10,2023-10-30T22:24:20.499Z,,0,,,3570.709999999992,completion,,,,,false,,,,167669.29999995232,167669,164081.624,164071.5,164098.29,167681.48,8,400,,,
trial,html.Screen,4_11_0,2023-10-30T22:24:24.329Z,,0,1,,3816.920000095357,response,ISIC_2704046.JPG,8,ISIC_0012434.JPG,ISIC_0012434.JPG,false,0,keypress(z),500,171498.90000009537,171498.40000009537,167664.814,167669.40000009537,167681.48,171515.211,8,400,12,,ISIC_2704046.JPG
break,html.Screen,4_11_1,2023-10-30T22:24:24.330Z,,0,,,NaN,,,,,,false,,,,171499.79999995232,171499.59999990463,,171499.20000004768,,171515.211,8,400,,,
break_continue,html.Screen,4_11_2,2023-10-30T22:24:24.330Z,,0,,,NaN,,,,,,false,,,,171500.20000004768,171500.20000004768,,171500,,171515.211,8,400,,,
sequence,flow.Sequence,4_11,2023-10-30T22:24:24.331Z,,0,,,3818.7200000476732,completion,,,,,false,,,,171500.40000009537,171500.20000004768,167664.814,167669.40000009537,167681.48,171515.211,8,400,,,
trial,html.Screen,4_12_0,2023-10-30T22:24:27.584Z,,0,1,,3238.088999952306,response,ISIC_7630208.JPG,7,ISIC_0010734.JPG,ISIC_0010734.JPG,false,0,keypress(z),500,174753.90000009537,174753.29999995232,171498.545,171500.59999990463,171515.211,174765.081,8,400,13,,ISIC_7630208.JPG
break,html.Screen,4_12_1,2023-10-30T22:24:27.585Z,,0,,,NaN,,,,,,false,,,,174754.90000009537,174754.70000004768,,174754.20000004768,,174765.081,8,400,,,
break_continue,html.Screen,4_12_2,2023-10-30T22:24:27.585Z,,0,,,NaN,,,,,,false,,,,174755.20000004768,174755.09999990463,,174755,,174765.081,8,400,,,
sequence,flow.Sequence,4_12,2023-10-30T22:24:27.586Z,,0,,,3239.8889999046223,completion,,,,,false,,,,174755.40000009537,174755.09999990463,171498.545,171500.59999990463,171515.211,174765.081,8,400,,,
trial,html.Screen,4_13_0,2023-10-30T22:24:32.902Z,,0,1,,5306.418999999994,response,ISIC_7972996.JPG,5,ISIC_6201338.JPG,ISIC_7972996.JPG,false,1,keypress(m),500,180072,180071.5,174748.415,174755.5,174765.081,180081.535,8,400,14,,ISIC_6201338.JPG
break,html.Screen,4_13_1,2023-10-30T22:24:32.903Z,,0,,,NaN,,,,,,false,,,,180073,180072.90000009537,,180072.40000009537,,180081.535,8,400,,,
break_continue,html.Screen,4_13_2,2023-10-30T22:24:32.904Z,,0,,,NaN,,,,,,false,,,,180073.40000009537,180073.29999995232,,180073.20000004768,,180081.535,8,400,,,
sequence,flow.Sequence,4_13,2023-10-30T22:24:32.904Z,,0,,,5308.218999952311,completion,,,,,false,,,,180073.59999990463,180073.29999995232,174748.415,174755.5,174765.081,180081.535,8,400,,,
trial,html.Screen,4_14_0,2023-10-30T22:24:36.972Z,,0,1,,4059.66500004768,response,ISIC_0030072.JPG,8,ISIC_0010618.JPG,ISIC_0010618.JPG,false,0,keypress(z),500,184141.79999995232,184141.20000004768,180064.869,180073.70000004768,180081.535,184148.678,8,400,15,,ISIC_0030072.JPG
break,html.Screen,4_14_1,2023-10-30T22:24:36.974Z,,0,,,NaN,,,,,,false,,,,184143.70000004768,184143.59999990463,,184142,,184148.678,8,400,,,
break_continue,html.Screen,4_14_2,2023-10-30T22:24:36.974Z,,0,,,NaN,,,,,,false,,,,184144.09999990463,184143.90000009537,,184143.90000009537,,184148.678,8,400,,,
sequence,flow.Sequence,4_14,2023-10-30T22:24:36.974Z,,0,,,4062.365000095364,completion,,,,,false,,,,184144.20000004768,184143.90000009537,180064.869,180073.59999990463,180081.535,184148.678,8,400,,,
trial,html.Screen,4_15_0,2023-10-30T22:24:43.425Z,,0,1,,6445.921999904618,response,ISIC_0067577.JPG,8,ISIC_5751956.JPG,ISIC_5751956.JPG,false,0,keypress(z),500,190595.09999990463,190594.59999990463,184132.012,184144.29999995232,184148.678,190598.42,8,400,16,,ISIC_0067577.JPG
break,html.Screen,4_15_1,2023-10-30T22:24:43.426Z,,0,,,NaN,,,,,,false,,,,190596.09999990463,190595.90000009537,,190595.5,,190598.42,8,400,,,
break_continue,html.Screen,4_15_2,2023-10-30T22:24:43.427Z,,0,,,NaN,,,,,,false,,,,190596.5,190596.29999995232,,190596.29999995232,,190598.42,8,400,,,
sequence,flow.Sequence,4_15,2023-10-30T22:24:43.427Z,,0,,,6447.621999952302,completion,,,,,false,,,,190596.59999990463,190596.29999995232,184132.012,184144.29999995232,184148.678,190598.42,8,400,,,
trial,html.Screen,4_16_0,2023-10-30T22:24:46.712Z,,0,1,,3283.579999999987,response,ISIC_6254731.JPG,5,ISIC_4973549.JPG,ISIC_4973549.JPG,false,0,keypress(z),500,193882.29999995232,193882,190581.754,190596.79999995232,190598.42,193898.8,8,400,17,,ISIC_6254731.JPG
break,html.Screen,4_16_1,2023-10-30T22:24:46.713Z,,0,,,NaN,,,,,,false,,,,193882.90000009537,193882.79999995232,,193882.5,,193898.8,8,400,,,
break_continue,html.Screen,4_16_2,2023-10-30T22:24:46.713Z,,0,,,NaN,,,,,,false,,,,193883.20000004768,193883.20000004768,,193883.09999990463,,193898.8,8,400,,,
sequence,flow.Sequence,4_16,2023-10-30T22:24:46.714Z,,0,,,3284.780000047671,completion,,,,,false,,,,193883.40000009537,193883.20000004768,190581.754,190596.70000004768,190598.42,193898.8,8,400,,,
trial,html.Screen,4_17_0,2023-10-30T22:24:50.142Z,,0,1,,3412.4000000476954,response,ISIC_0708552.JPG,8,ISIC_0058594.JPG,ISIC_0708552.JPG,false,1,keypress(m),500,197311.59999990463,197311.20000004768,193882.134,193883.5,193898.8,197315.33,8,400,18,,ISIC_0058594.JPG
break,html.Screen,4_17_1,2023-10-30T22:24:50.143Z,,0,,,NaN,,,,,,false,,,,197312.5,197312.29999995232,,197311.90000009537,,197315.33,8,400,,,
break_continue,html.Screen,4_17_2,2023-10-30T22:24:50.143Z,,0,,,NaN,,,,,,false,,,,197312.79999995232,197312.70000004768,,197312.59999990463,,197315.33,8,400,,,
sequence,flow.Sequence,4_17,2023-10-30T22:24:50.143Z,,0,,,3413.9000000476954,completion,,,,,false,,,,197312.90000009537,197312.70000004768,193882.134,193883.5,193898.8,197315.33,8,400,,,
trial,html.Screen,4_18_0,2023-10-30T22:24:53.762Z,,0,1,,3616.170000000013,response,ISIC_1233104.JPG,6,ISIC_4482610.JPG,ISIC_1233104.JPG,false,1,keypress(m),500,200931.90000009537,200931.5,197298.664,197313.09999990463,197315.33,200948.518,8,400,19,,ISIC_4482610.JPG
break,html.Screen,4_18_1,2023-10-30T22:24:53.763Z,,0,,,NaN,,,,,,false,,,,200933,200932.79999995232,,200932.20000004768,,200948.518,8,400,,,
break_continue,html.Screen,4_18_2,2023-10-30T22:24:53.763Z,,0,,,NaN,,,,,,false,,,,200933.29999995232,200933.29999995232,,200933.20000004768,,200948.518,8,400,,,
sequence,flow.Sequence,4_18,2023-10-30T22:24:53.764Z,,0,,,3617.969999952329,completion,,,,,false,,,,200933.5,200933.29999995232,197298.664,197313,197315.33,200948.518,8,400,,,
trial,html.Screen,4_19_0,2023-10-30T22:24:57.065Z,,0,1,,3286.0819999046216,response,ISIC_0055393.JPG,8,ISIC_0053617.JPG,ISIC_0055393.JPG,false,1,keypress(m),500,204235,204234.59999990463,200931.852,200933.70000004768,200948.518,204248.942,8,400,20,,ISIC_0053617.JPG
break,html.Screen,4_19_1,2023-10-30T22:24:57.066Z,,0,,,NaN,,,,,,false,,,,204236.09999990463,204235.90000009537,,204235.40000009537,,204248.942,8,400,,,
break_continue,html.Screen,4_19_2,2023-10-30T22:24:57.067Z,,0,,,NaN,,,,,,false,,,,204236.40000009537,204236.29999995232,,204236.20000004768,,204248.942,8,400,,,
sequence,flow.Sequence,4_19,2023-10-30T22:24:57.067Z,,0,,,3287.7819999523053,completion,,,,,false,,,,204236.59999990463,204236.29999995232,200931.852,200933.59999990463,200948.518,204248.942,8,400,,,
trial,html.Screen,4_20_0,2023-10-30T22:25:02.754Z,,0,1,,5674.258000047674,response,ISIC_0000547.JPG,8,ISIC_2126035.JPG,ISIC_2126035.JPG,false,0,keypress(z),500,209923.70000004768,209923.20000004768,204232.276,204236.79999995232,204248.942,209932.048,8,400,21,,ISIC_0000547.JPG
break,html.Screen,4_20_1,2023-10-30T22:25:02.755Z,,0,,,NaN,,,,,,false,,,,209924.70000004768,209924.5,,209924,,209932.048,8,400,,,
break_continue,html.Screen,4_20_2,2023-10-30T22:25:02.755Z,,0,,,NaN,,,,,,false,,,,209925.09999990463,209924.90000009537,,209924.79999995232,,209932.048,8,400,,,
sequence,flow.Sequence,4_20,2023-10-30T22:25:02.755Z,,0,,,5675.958000095357,completion,,,,,false,,,,209925.20000004768,209924.90000009537,204232.276,204236.70000004768,204248.942,209932.048,8,400,,,
trial,html.Screen,4_21_0,2023-10-30T22:25:06.039Z,,0,1,,3276.8520000953577,response,ISIC_0472513.JPG,7,ISIC_0010360.JPG,ISIC_0472513.JPG,false,1,keypress(m),500,213209.40000009537,213208.90000009537,209915.382,209925.40000009537,209932.048,213215.882,8,400,22,,ISIC_0010360.JPG
break,html.Screen,4_21_1,2023-10-30T22:25:06.040Z,,0,,,NaN,,,,,,false,,,,213210.29999995232,213210.09999990463,,213209.70000004768,,213215.882,8,400,,,
break_continue,html.Screen,4_21_2,2023-10-30T22:25:06.041Z,,0,,,NaN,,,,,,false,,,,213210.70000004768,213210.59999990463,,213210.5,,213215.882,8,400,,,
sequence,flow.Sequence,4_21,2023-10-30T22:25:06.041Z,,0,,,3278.551999904623,completion,,,,,false,,,,213210.90000009537,213210.59999990463,209915.382,209925.29999995232,209932.048,213215.882,8,400,,,
trial,html.Screen,4_22_0,2023-10-30T22:25:09.661Z,,0,1,,3614.8180000476714,response,ISIC_2948896.JPG,6,ISIC_0067274.JPG,ISIC_2948896.JPG,false,1,keypress(m),500,216831,216830.70000004768,213199.216,213211.09999990463,213215.882,216832.404,8,400,23,,ISIC_0067274.JPG
break,html.Screen,4_22_1,2023-10-30T22:25:09.662Z,,0,,,NaN,,,,,,false,,,,216831.70000004768,216831.5,,216831.20000004768,,216832.404,8,400,,,
break_continue,html.Screen,4_22_2,2023-10-30T22:25:09.662Z,,0,,,NaN,,,,,,false,,,,216831.90000009537,216831.79999995232,,216831.70000004768,,216832.404,8,400,,,
sequence,flow.Sequence,4_22,2023-10-30T22:25:09.662Z,,0,,,3615.917999952304,completion,,,,,false,,,,216832,216831.79999995232,213199.216,213211,213215.882,216832.404,8,400,,,
trial,html.Screen,4_23_0,2023-10-30T22:25:13.435Z,,0,1,,3771.8959999523067,response,ISIC_5278307.JPG,6,ISIC_0031960.JPG,ISIC_0031960.JPG,false,0,keypress(z),500,220604.79999995232,220604.29999995232,216815.738,216832.09999990463,216832.404,220615.586,8,400,24,,ISIC_5278307.JPG
break,html.Screen,4_23_1,2023-10-30T22:25:13.436Z,,0,,,NaN,,,,,,false,,,,220605.79999995232,220605.59999990463,,220605,,220615.586,8,400,,,
break_continue,html.Screen,4_23_2,2023-10-30T22:25:13.436Z,,0,,,NaN,,,,,,false,,,,220606.09999990463,220606,,220605.90000009537,,220615.586,8,400,,,
sequence,flow.Sequence,4_23,2023-10-30T22:25:13.436Z,,0,,,3773.5959999999905,completion,,,,,false,,,,220606.29999995232,220606,216815.738,216832.09999990463,216832.404,220615.586,8,400,,,
trial,html.Screen,4_24_0,2023-10-30T22:25:16.433Z,,0,1,,2987.0139999046223,response,ISIC_0014703.JPG,8,ISIC_0012049.JPG,ISIC_0014703.JPG,false,1,keypress(m),500,223603.09999990463,223602.59999990463,220598.92,220606.5,220615.586,223615.973,8,400,25,,ISIC_0012049.JPG
break,html.Screen,4_24_1,2023-10-30T22:25:16.434Z,,0,,,NaN,,,,,,false,,,,223604.09999990463,223603.90000009537,,223603.40000009537,,223615.973,8,400,,,
break_continue,html.Screen,4_24_2,2023-10-30T22:25:16.435Z,,0,,,NaN,,,,,,false,,,,223604.5,223604.40000009537,,223604.20000004768,,223615.973,8,400,,,
sequence,flow.Sequence,4_24,2023-10-30T22:25:16.435Z,,0,,,2988.814000095357,completion,,,,,false,,,,223604.59999990463,223604.40000009537,220598.92,220606.5,220615.586,223615.973,8,400,,,
trial,html.Screen,4_25_0,2023-10-30T22:25:19.463Z,,0,1,,3016.826999952318,response,ISIC_2864893.JPG,7,ISIC_1217314.JPG,ISIC_1217314.JPG,false,0,keypress(z),500,226633.29999995232,226632.79999995232,223599.307,223604.79999995232,223615.973,226649.185,8,400,26,,ISIC_2864893.JPG
break,html.Screen,4_25_1,2023-10-30T22:25:19.464Z,,0,,,NaN,,,,,,false,,,,226634.29999995232,226634.09999990463,,226633.59999990463,,226649.185,8,400,,,
break_continue,html.Screen,4_25_2,2023-10-30T22:25:19.465Z,,0,,,NaN,,,,,,false,,,,226634.59999990463,226634.59999990463,,226634.40000009537,,226649.185,8,400,,,
sequence,flow.Sequence,4_25,2023-10-30T22:25:19.465Z,,0,,,3018.6269999046344,completion,,,,,false,,,,226634.90000009537,226634.59999990463,223599.307,223604.79999995232,223615.973,226649.185,8,400,,,
trial,html.Screen,4_26_0,2023-10-30T22:25:22.673Z,,0,1,,3193.2150000953698,response,ISIC_7997132.JPG,8,ISIC_4532303.JPG,ISIC_4532303.JPG,false,0,keypress(z),500,229842.79999995232,229842.40000009537,226632.519,226635,226649.185,229849.057,8,400,27,,ISIC_7997132.JPG
break,html.Screen,4_26_1,2023-10-30T22:25:22.674Z,,0,,,NaN,,,,,,false,,,,229843.79999995232,229843.70000004768,,229843.20000004768,,229849.057,8,400,,,
break_continue,html.Screen,4_26_2,2023-10-30T22:25:22.674Z,,0,,,NaN,,,,,,false,,,,229844.20000004768,229844.09999990463,,229844,,229849.057,8,400,,,
sequence,flow.Sequence,4_26,2023-10-30T22:25:22.674Z,,0,,,3194.914999904635,completion,,,,,false,,,,229844.40000009537,229844.09999990463,226632.519,226635,226649.185,229849.057,8,400,,,
trial,html.Screen,4_27_0,2023-10-30T22:25:25.862Z,,0,1,,3182.4429999999993,response,ISIC_0067012.JPG,9,ISIC_5101111.JPG,ISIC_0067012.JPG,false,1,keypress(m),500,233031.79999995232,233031.5,229832.391,229844.59999990463,229849.057,233048.929,8,400,28,,ISIC_5101111.JPG
break,html.Screen,4_27_1,2023-10-30T22:25:25.863Z,,0,,,NaN,,,,,,false,,,,233032.59999990463,233032.40000009537,,233032,,233048.929,8,400,,,
break_continue,html.Screen,4_27_2,2023-10-30T22:25:25.863Z,,0,,,NaN,,,,,,false,,,,233032.70000004768,233032.70000004768,,233032.59999990463,,233048.929,8,400,,,
sequence,flow.Sequence,4_27,2023-10-30T22:25:25.863Z,,0,,,3183.643000047683,completion,,,,,false,,,,233032.90000009537,233032.70000004768,229832.391,229844.5,229849.057,233048.929,8,400,,,
trial,html.Screen,4_28_0,2023-10-30T22:25:29.450Z,,0,1,,3570.9710000953637,response,ISIC_0029244.JPG,8,ISIC_0026745.JPG,ISIC_0029244.JPG,false,1,keypress(m),500,236620.29999995232,236619.90000009537,233032.263,233033,233048.929,236632.706,8,400,29,,ISIC_0026745.JPG
break,html.Screen,4_28_1,2023-10-30T22:25:29.451Z,,0,,,NaN,,,,,,false,,,,236621.29999995232,236621.20000004768,,236620.59999990463,,236632.706,8,400,,,
break_continue,html.Screen,4_28_2,2023-10-30T22:25:29.452Z,,0,,,NaN,,,,,,false,,,,236621.70000004768,236621.5,,236621.40000009537,,236632.706,8,400,,,
sequence,flow.Sequence,4_28,2023-10-30T22:25:29.452Z,,0,,,3572.5709999999963,completion,,,,,false,,,,236621.90000009537,236621.5,233032.263,233032.90000009537,233048.929,236632.706,8,400,,,
trial,html.Screen,4_29_0,2023-10-30T22:25:33.953Z,,0,1,,4489.994000047678,response,ISIC_4193253.JPG,7,ISIC_0193907.JPG,ISIC_0193907.JPG,false,0,keypress(z),500,241123.20000004768,241122.70000004768,236616.04,236622,236632.706,241132.526,8,400,30,,ISIC_4193253.JPG
break,html.Screen,4_29_1,2023-10-30T22:25:33.954Z,,0,,,NaN,,,,,,false,,,,241124.20000004768,241124,,241123.5,,241132.526,8,400,,,
break_continue,html.Screen,4_29_2,2023-10-30T22:25:33.955Z,,0,,,NaN,,,,,,false,,,,241124.59999990463,241124.5,,241124.29999995232,,241132.526,8,400,,,
sequence,flow.Sequence,4_29,2023-10-30T22:25:33.955Z,,0,,,4491.793999999994,completion,,,,,false,,,,241124.90000009537,241124.5,236616.04,236622,236632.706,241132.526,8,400,,,
trial,html.Screen,4_30_0,2023-10-30T22:25:38.498Z,,0,1,,4534.874000095355,response,ISIC_0065421.JPG,7,ISIC_0060621.JPG,ISIC_0060621.JPG,false,0,keypress(z),500,245668,245667.40000009537,241115.86,241125,241132.526,245682.86,8,400,31,,ISIC_0065421.JPG
break,html.Screen,4_30_1,2023-10-30T22:25:38.499Z,,0,,,NaN,,,,,,false,,,,245668.90000009537,245668.79999995232,,245668.29999995232,,245682.86,8,400,,,
break_continue,html.Screen,4_30_2,2023-10-30T22:25:38.499Z,,0,,,NaN,,,,,,false,,,,245669.40000009537,245669.29999995232,,245669.09999990463,,245682.86,8,400,,,
sequence,flow.Sequence,4_30,2023-10-30T22:25:38.500Z,,0,,,4536.773999952304,completion,,,,,false,,,,245669.5,245669.29999995232,241115.86,241124.90000009537,241132.526,245682.86,8,400,,,
trial,html.Screen,4_31_0,2023-10-30T22:25:42.706Z,,0,1,,4192.540000095381,response,ISIC_4495099.JPG,7,ISIC_0016139.JPG,ISIC_4495099.JPG,false,1,keypress(m),500,249875.90000009537,249875.40000009537,245666.194,245669.59999990463,245682.86,249882.692,8,400,32,,ISIC_0016139.JPG
break,html.Screen,4_31_1,2023-10-30T22:25:42.707Z,,0,,,NaN,,,,,,false,,,,249876.79999995232,249876.70000004768,,249876.20000004768,,249882.692,8,400,,,
break_continue,html.Screen,4_31_2,2023-10-30T22:25:42.707Z,,0,,,NaN,,,,,,false,,,,249877.20000004768,249877,,249877,,249882.692,8,400,,,
sequence,flow.Sequence,4_31,2023-10-30T22:25:42.707Z,,0,,,4194.140000000014,completion,,,,,false,,,,249877.40000009537,249877,245666.194,245669.59999990463,245682.86,249882.692,8,400,,,
trial,html.Screen,4_32_0,2023-10-30T22:25:45.544Z,,0,1,,2830.30799999999,response,ISIC_0026402.JPG,9,ISIC_0069859.JPG,ISIC_0069859.JPG,false,0,keypress(z),500,252713.5,252713,249866.026,249877.5,249882.692,252715.912,8,400,33,,ISIC_0026402.JPG
break,html.Screen,4_32_1,2023-10-30T22:25:45.545Z,,0,,,NaN,,,,,,false,,,,252714.59999990463,252714.40000009537,,252713.90000009537,,252715.912,8,400,,,
break_continue,html.Screen,4_32_2,2023-10-30T22:25:45.545Z,,0,,,NaN,,,,,,false,,,,252714.90000009537,252714.79999995232,,252714.70000004768,,252715.912,8,400,,,
sequence,flow.Sequence,4_32,2023-10-30T22:25:45.545Z,,0,,,2832.1079999523063,completion,,,,,false,,,,252715.09999990463,252714.79999995232,249866.026,249877.5,249882.692,252715.912,8,400,,,
trial,html.Screen,4_33_0,2023-10-30T22:25:48.444Z,,0,1,,2897.887999952305,response,ISIC_0822116.JPG,8,ISIC_8353090.JPG,ISIC_0822116.JPG,false,1,keypress(m),500,255614.29999995232,255613.79999995232,252699.246,252715.29999995232,252715.912,255633.132,8,400,34,,ISIC_8353090.JPG
break,html.Screen,4_33_1,2023-10-30T22:25:48.445Z,,0,,,NaN,,,,,,false,,,,255615.29999995232,255615.09999990463,,255614.70000004768,,255633.132,8,400,,,
break_continue,html.Screen,4_33_2,2023-10-30T22:25:48.446Z,,0,,,NaN,,,,,,false,,,,255615.70000004768,255615.5,,255615.40000009537,,255633.132,8,400,,,
sequence,flow.Sequence,4_33,2023-10-30T22:25:48.446Z,,0,,,2899.587999999989,completion,,,,,false,,,,255615.90000009537,255615.5,252699.246,252715.20000004768,252715.912,255633.132,8,400,,,
trial,html.Screen,4_34_0,2023-10-30T22:25:51.451Z,,0,1,,2987.167999952304,response,ISIC_0000368.JPG,8,ISIC_8626909.JPG,ISIC_8626909.JPG,false,0,keypress(z),500,258620.59999990463,258620.29999995232,255616.466,255616.09999990463,255633.132,258633.012,8,400,35,,ISIC_0000368.JPG
break,html.Screen,4_34_1,2023-10-30T22:25:51.452Z,,0,,,NaN,,,,,,false,,,,258621.59999990463,258621.40000009537,,258620.90000009537,,258633.012,8,400,,,
break_continue,html.Screen,4_34_2,2023-10-30T22:25:51.452Z,,0,,,NaN,,,,,,false,,,,258622,258621.79999995232,,258621.70000004768,,258633.012,8,400,,,
sequence,flow.Sequence,4_34,2023-10-30T22:25:51.452Z,,0,,,2988.667999952304,completion,,,,,false,,,,258622.09999990463,258621.79999995232,255616.466,255616,255633.132,258633.012,8,400,,,
trial,html.Screen,4_35_0,2023-10-30T22:25:54.929Z,,0,1,,3465.7879999523284,response,ISIC_0011448.JPG,9,ISIC_0015245.JPG,ISIC_0015245.JPG,false,0,keypress(z),500,262099.29999995232,262098.79999995232,258616.346,258622.29999995232,258633.012,262116.206,8,400,36,,ISIC_0011448.JPG
break,html.Screen,4_35_1,2023-10-30T22:25:54.930Z,,0,,,NaN,,,,,,false,,,,262100.29999995232,262100.09999990463,,262099.59999990463,,262116.206,8,400,,,
break_continue,html.Screen,4_35_2,2023-10-30T22:25:54.931Z,,0,,,NaN,,,,,,false,,,,262100.70000004768,262100.59999990463,,262100.40000009537,,262116.206,8,400,,,
sequence,flow.Sequence,4_35,2023-10-30T22:25:54.931Z,,0,,,3467.5879999046447,completion,,,,,false,,,,262100.90000009537,262100.59999990463,258616.346,258622.20000004768,258633.012,262116.206,8,400,,,
trial,html.Screen,4_36_0,2023-10-30T22:25:57.955Z,,0,1,,3008.393999904627,response,ISIC_0034048.JPG,8,ISIC_6435644.JPG,ISIC_6435644.JPG,false,0,keypress(z),500,265125.09999990463,265124.59999990463,262099.54,262101,262116.206,265132.752,8,400,37,,ISIC_0034048.JPG
break,html.Screen,4_36_1,2023-10-30T22:25:57.956Z,,0,,,NaN,,,,,,false,,,,265126.2000000477,265126,,265125.40000009537,,265132.752,8,400,,,
break_continue,html.Screen,4_36_2,2023-10-30T22:25:57.956Z,,0,,,NaN,,,,,,false,,,,265126.59999990463,265126.40000009537,,265126.2999999523,,265132.752,8,400,,,
sequence,flow.Sequence,4_36,2023-10-30T22:25:57.957Z,,0,,,3010.194000095362,completion,,,,,false,,,,265126.7000000477,265126.40000009537,262099.54,262101,262116.206,265132.752,8,400,,,
trial,html.Screen,4_37_0,2023-10-30T22:26:00.786Z,,0,1,,2823.0479999523377,response,ISIC_0031674.JPG,5,ISIC_8806180.JPG,ISIC_8806180.JPG,false,0,keypress(z),500,267956.2000000477,267955.7999999523,265116.086,265126.90000009537,265132.752,267966.512,8,400,38,,ISIC_0031674.JPG
break,html.Screen,4_37_1,2023-10-30T22:26:00.787Z,,0,,,NaN,,,,,,false,,,,267957.2999999523,267957.09999990463,,267956.59999990463,,267966.512,8,400,,,
break_continue,html.Screen,4_37_2,2023-10-30T22:26:00.788Z,,0,,,NaN,,,,,,false,,,,267957.59999990463,267957.59999990463,,267957.40000009537,,267966.512,8,400,,,
sequence,flow.Sequence,4_37,2023-10-30T22:26:00.788Z,,0,,,2824.847999904654,completion,,,,,false,,,,267957.7999999523,267957.59999990463,265116.086,265126.7999999523,265132.752,267966.512,8,400,,,
trial,html.Screen,4_38_0,2023-10-30T22:26:03.834Z,,0,1,,3036.7879999523284,response,ISIC_4079108.JPG,6,ISIC_7260013.JPG,ISIC_4079108.JPG,false,1,keypress(m),500,271003.7999999523,271003.2999999523,267949.846,267958,267966.512,271016.39,8,400,39,,ISIC_7260013.JPG
break,html.Screen,4_38_1,2023-10-30T22:26:03.835Z,,0,,,NaN,,,,,,false,,,,271004.7999999523,271004.59999990463,,271004.09999990463,,271016.39,8,400,,,
break_continue,html.Screen,4_38_2,2023-10-30T22:26:03.835Z,,0,,,NaN,,,,,,false,,,,271005.2000000477,271005.09999990463,,271005,,271016.39,8,400,,,
sequence,flow.Sequence,4_38,2023-10-30T22:26:03.835Z,,0,,,3038.5879999046447,completion,,,,,false,,,,271005.40000009537,271005.09999990463,267949.846,267957.90000009537,267966.512,271016.39,8,400,,,
trial,html.Screen,4_39_0,2023-10-30T22:26:06.826Z,,0,1,,2978.9099999523023,response,ISIC_8865595.JPG,6,ISIC_0000291.JPG,ISIC_8865595.JPG,false,1,keypress(m),500,273995.7999999523,273995.2999999523,270999.724,271005.5,271016.39,273999.604,8,400,40,,ISIC_0000291.JPG
break,html.Screen,4_39_1,2023-10-30T22:26:06.827Z,,0,,,NaN,,,,,,false,,,,273996.7999999523,273996.5,,273996.2000000477,,273999.604,8,400,,,
break_continue,html.Screen,4_39_2,2023-10-30T22:26:06.827Z,,0,,,NaN,,,,,,false,,,,273997.09999990463,273997.09999990463,,273996.90000009537,,273999.604,8,400,,,
sequence,flow.Sequence,4_39,2023-10-30T22:26:06.827Z,,0,,,2980.7099999046186,completion,,,,,false,,,,273997.2999999523,273997.09999990463,270999.724,271005.5,271016.39,273999.604,8,400,,,
trial,html.Screen,4_40_0,2023-10-30T22:26:09.994Z,,0,1,,3163.896000000008,response,ISIC_0009230.JPG,9,ISIC_0029950.JPG,ISIC_0009230.JPG,false,1,keypress(m),500,277164,277163.5,273982.938,273997.5,273999.604,277166.763,8,400,41,,ISIC_0029950.JPG
break,html.Screen,4_40_1,2023-10-30T22:26:09.995Z,,0,,,NaN,,,,,,false,,,,277164.90000009537,277164.7000000477,,277164.2999999523,,277166.763,8,400,,,
break_continue,html.Screen,4_40_2,2023-10-30T22:26:09.995Z,,0,,,NaN,,,,,,false,,,,277165.2999999523,277165.2000000477,,277165.09999990463,,277166.763,8,400,,,
sequence,flow.Sequence,4_40,2023-10-30T22:26:09.995Z,,0,,,3165.5960000476916,completion,,,,,false,,,,277165.5,277165.2000000477,273982.938,273997.5,273999.604,277166.763,8,400,,,
trial,html.Screen,4_41_0,2023-10-30T22:26:13.041Z,,0,1,,3043.4370000477065,response,ISIC_0029950.JPG,8,ISIC_0001126.JPG,ISIC_0001126.JPG,false,0,keypress(z),500,280210.7000000477,280210.2000000477,277150.097,277165.7000000477,277166.763,280216.641,8,400,42,,ISIC_0029950.JPG
break,html.Screen,4_41_1,2023-10-30T22:26:13.042Z,,0,,,NaN,,,,,,false,,,,280211.7000000477,280211.5,,280210.90000009537,,280216.641,8,400,,,
break_continue,html.Screen,4_41_2,2023-10-30T22:26:13.042Z,,0,,,NaN,,,,,,false,,,,280212,280211.90000009537,,280211.90000009537,,280216.641,8,400,,,
sequence,flow.Sequence,4_41,2023-10-30T22:26:13.042Z,,0,,,3045.1370000953902,completion,,,,,false,,,,280212.2000000477,280211.90000009537,277150.097,277165.59999990463,277166.763,280216.641,8,400,,,
trial,html.Screen,4_42_0,2023-10-30T22:26:16.149Z,,0,1,,3101.5590000476805,response,ISIC_0063664.JPG,6,ISIC_0000371.JPG,ISIC_0063664.JPG,false,1,keypress(m),500,283318.7999999523,283318.2000000477,280199.975,280212.2999999523,280216.641,283333.183,8,400,43,,ISIC_0000371.JPG
break,html.Screen,4_42_1,2023-10-30T22:26:16.150Z,,0,,,NaN,,,,,,false,,,,283319.7000000477,283319.59999990463,,283319.09999990463,,283333.183,8,400,,,
break_continue,html.Screen,4_42_2,2023-10-30T22:26:16.150Z,,0,,,NaN,,,,,,false,,,,283320.09999990463,283320,,283319.90000009537,,283333.183,8,400,,,
sequence,flow.Sequence,4_42,2023-10-30T22:26:16.150Z,,0,,,3103.3589999999967,completion,,,,,false,,,,283320.2999999523,283320,280199.975,280212.2999999523,280216.641,283333.183,8,400,,,
trial,html.Screen,4_43_0,2023-10-30T22:26:19.275Z,,0,1,,3111.9169999046135,response,ISIC_1531204.JPG,8,ISIC_4853597.JPG,ISIC_1531204.JPG,false,1,keypress(m),500,286445.5,286445.09999990463,283316.517,283320.40000009537,283333.183,286449.725,8,400,44,,ISIC_4853597.JPG
break,html.Screen,4_43_1,2023-10-30T22:26:19.276Z,,0,,,NaN,,,,,,false,,,,286446.40000009537,286446.2999999523,,286445.7999999523,,286449.725,8,400,,,
break_continue,html.Screen,4_43_2,2023-10-30T22:26:19.277Z,,0,,,NaN,,,,,,false,,,,286446.7000000477,286446.7000000477,,286446.59999990463,,286449.725,8,400,,,
sequence,flow.Sequence,4_43,2023-10-30T22:26:19.277Z,,0,,,3113.5170000476646,completion,,,,,false,,,,286446.90000009537,286446.7000000477,283316.517,283320.40000009537,283333.183,286449.725,8,400,,,
trial,html.Screen,4_44_0,2023-10-30T22:26:22.266Z,,0,1,,2986.2750000000233,response,ISIC_5247383.JPG,8,ISIC_0011343.JPG,ISIC_5247383.JPG,false,1,keypress(m),500,289436.5,289436,286433.059,286447.09999990463,286449.725,289450.132,8,400,45,,ISIC_0011343.JPG
break,html.Screen,4_44_1,2023-10-30T22:26:22.267Z,,0,,,NaN,,,,,,false,,,,289437.5,289437.2999999523,,289436.7999999523,,289450.132,8,400,,,
break_continue,html.Screen,4_44_2,2023-10-30T22:26:22.268Z,,0,,,NaN,,,,,,false,,,,289437.90000009537,289437.7999999523,,289437.59999990463,,289450.132,8,400,,,
sequence,flow.Sequence,4_44,2023-10-30T22:26:22.268Z,,0,,,2988.0749999523396,completion,,,,,false,,,,289438.09999990463,289437.7999999523,286433.059,286447,286449.725,289450.132,8,400,,,
trial,html.Screen,4_45_0,2023-10-30T22:26:25.362Z,,0,1,,3081.3680000000168,response,ISIC_4369035.JPG,8,ISIC_9109361.JPG,ISIC_4369035.JPG,false,1,keypress(m),500,292531.7999999523,292531.5,289433.466,289438.2000000477,289450.132,292533.342,8,400,46,,ISIC_9109361.JPG
break,html.Screen,4_45_1,2023-10-30T22:26:25.363Z,,0,,,NaN,,,,,,false,,,,292532.59999990463,292532.5,,292532.09999990463,,292533.342,8,400,,,
break_continue,html.Screen,4_45_2,2023-10-30T22:26:25.363Z,,0,,,NaN,,,,,,false,,,,292533,292532.7999999523,,292532.7999999523,,292533.342,8,400,,,
sequence,flow.Sequence,4_45,2023-10-30T22:26:25.363Z,,0,,,3082.667999952333,completion,,,,,false,,,,292533.09999990463,292532.7999999523,289433.466,289438.2000000477,289450.132,292533.342,8,400,,,
trial,html.Screen,4_46_0,2023-10-30T22:26:28.362Z,,0,1,,2998.0580000953632,response,ISIC_0005686.JPG,7,ISIC_6406517.JPG,ISIC_6406517.JPG,false,0,keypress(z),500,295531.90000009537,295531.40000009537,292516.676,292533.2999999523,292533.342,295533.222,8,400,47,,ISIC_0005686.JPG
break,html.Screen,4_46_1,2023-10-30T22:26:28.363Z,,0,,,NaN,,,,,,false,,,,295532.90000009537,295532.7000000477,,295532.2000000477,,295533.222,8,400,,,
break_continue,html.Screen,4_46_2,2023-10-30T22:26:28.363Z,,0,,,NaN,,,,,,false,,,,295533.2000000477,295533.09999990463,,295533,,295533.222,8,400,,,
sequence,flow.Sequence,4_46,2023-10-30T22:26:28.363Z,,0,,,2999.7579999046284,completion,,,,,false,,,,295533.40000009537,295533.09999990463,292516.676,292533.2000000477,292533.342,295533.222,8,400,,,
trial,html.Screen,4_47_0,2023-10-30T22:26:31.217Z,,0,1,,2853.5779999523074,response,ISIC_5706956.JPG,8,ISIC_0028176.JPG,ISIC_5706956.JPG,false,1,keypress(m),500,298387.40000009537,298386.7999999523,295516.556,295533.59999990463,295533.222,298400.317,8,400,48,,ISIC_0028176.JPG
break,html.Screen,4_47_1,2023-10-30T22:26:31.218Z,,0,,,NaN,,,,,,false,,,,298388.40000009537,298388.2000000477,,298387.7000000477,,298400.317,8,400,,,
break_continue,html.Screen,4_47_2,2023-10-30T22:26:31.219Z,,0,,,NaN,,,,,,false,,,,298388.7000000477,298388.59999990463,,298388.5,,298400.317,8,400,,,
sequence,flow.Sequence,4_47,2023-10-30T22:26:31.219Z,,0,,,2855.3779999046237,completion,,,,,false,,,,298388.90000009537,298388.59999990463,295516.556,295533.5,295533.222,298400.317,8,400,,,
trial,html.Screen,4_48_0,2023-10-30T22:26:35.175Z,,0,1,,3944.7829999046517,response,ISIC_9740245.JPG,7,ISIC_0066143.JPG,ISIC_9740245.JPG,false,1,keypress(m),500,302345.5,302345.09999990463,298383.651,298389.09999990463,298400.317,302350.159,8,400,49,,ISIC_0066143.JPG
break,html.Screen,4_48_1,2023-10-30T22:26:35.176Z,,0,,,NaN,,,,,,false,,,,302346.59999990463,302346.40000009537,,302345.90000009537,,302350.159,8,400,,,
break_continue,html.Screen,4_48_2,2023-10-30T22:26:35.177Z,,0,,,NaN,,,,,,false,,,,302346.90000009537,302346.90000009537,,302346.7000000477,,302350.159,8,400,,,
sequence,flow.Sequence,4_48,2023-10-30T22:26:35.177Z,,0,,,3946.5830000953865,completion,,,,,false,,,,302347.2000000477,302346.90000009537,298383.651,298389,298400.317,302350.159,8,400,,,
trial,html.Screen,4_49_0,2023-10-30T22:26:40.626Z,,0,1,,5445.041000047699,response,ISIC_7641956.JPG,6,ISIC_0340453.JPG,ISIC_7641956.JPG,false,1,keypress(m),500,307795.7000000477,307795.2000000477,302333.493,302347.2999999523,302350.159,307800.515,8,400,50,,ISIC_0340453.JPG
break,html.Screen,4_49_1,2023-10-30T22:26:50.619Z,,0,,,10000.143999999971,timeout,,,,,false,,,,317789.09999990463,317783.993,307783.849,307796,307800.515,317800.659,8,400,,,
break_continue,html.Screen,4_49_2,2023-10-30T22:26:52.329Z,,0,,,1687.5410000476986,response,,,,,false,continue,keypress(Space),,319499,319488.2000000477,317783.993,317789.40000009537,317800.659,319500.591,8,400,,,
sequence,flow.Sequence,4_49,2023-10-30T22:26:52.329Z,,0,,,17138.0410000477,completion,,,,,false,,,,319499.2000000477,319488.2000000477,302333.493,302347.2999999523,302350.159,319500.591,8,400,,,
trial,html.Screen,4_50_0,2023-10-30T22:26:56.242Z,,0,2,,3910.609000047669,response,ISIC_1871890.JPG,7,ISIC_9596721.JPG,ISIC_9596721.JPG,false,0,keypress(z),500,323411.7000000477,323411.2000000477,319483.925,319499.2999999523,319500.591,323417.101,8,400,1,,ISIC_1871890.JPG
break,html.Screen,4_50_1,2023-10-30T22:26:56.243Z,,0,,,NaN,,,,,,false,,,,323412.7000000477,323412.5,,323412,,323417.101,8,400,,,
break_continue,html.Screen,4_50_2,2023-10-30T22:26:56.243Z,,0,,,NaN,,,,,,false,,,,323413.09999990463,323413,,323412.7999999523,,323417.101,8,400,,,
sequence,flow.Sequence,4_50,2023-10-30T22:26:56.243Z,,0,,,3912.408999999985,completion,,,,,false,,,,323413.2000000477,323413,319483.925,319499.2999999523,319500.591,323417.101,8,400,,,
trial,html.Screen,4_51_0,2023-10-30T22:26:59.541Z,,0,2,,3293.799000095343,response,ISIC_7581199.JPG,8,ISIC_0033320.JPG,ISIC_7581199.JPG,false,1,keypress(m),500,326711.40000009537,326710.90000009537,323400.435,323413.2999999523,323417.101,326716.969,8,400,2,,ISIC_0033320.JPG
break,html.Screen,4_51_1,2023-10-30T22:26:59.542Z,,0,,,NaN,,,,,,false,,,,326712.40000009537,326712.2999999523,,326711.7999999523,,326716.969,8,400,,,
break_continue,html.Screen,4_51_2,2023-10-30T22:26:59.543Z,,0,,,NaN,,,,,,false,,,,326712.7999999523,326712.7000000477,,326712.59999990463,,326716.969,8,400,,,
sequence,flow.Sequence,4_51,2023-10-30T22:26:59.543Z,,0,,,3295.5990000476595,completion,,,,,false,,,,326712.90000009537,326712.7000000477,323400.435,323413.2999999523,323417.101,326716.969,8,400,,,
trial,html.Screen,4_52_0,2023-10-30T22:27:03.931Z,,0,2,,4383.231000047701,response,ISIC_0011428.JPG,9,ISIC_0068744.JPG,ISIC_0068744.JPG,false,0,keypress(z),500,331100.7999999523,331100.2000000477,326700.303,326713,326716.969,331117.351,8,400,3,,ISIC_0011428.JPG
break,html.Screen,4_52_1,2023-10-30T22:27:03.932Z,,0,,,NaN,,,,,,false,,,,331101.90000009537,331101.7000000477,,331101.2000000477,,331117.351,8,400,,,
break_continue,html.Screen,4_52_2,2023-10-30T22:27:03.932Z,,0,,,NaN,,,,,,false,,,,331102.2999999523,331102.2000000477,,331102.09999990463,,331117.351,8,400,,,
sequence,flow.Sequence,4_52,2023-10-30T22:27:03.932Z,,0,,,4385.231000047701,completion,,,,,false,,,,331102.5,331102.2000000477,326700.303,326713,326716.969,331117.351,8,400,,,
trial,html.Screen,4_53_0,2023-10-30T22:27:09.985Z,,0,2,,6037.8490000476595,response,ISIC_0032779.JPG,8,ISIC_9196033.JPG,ISIC_0032779.JPG,false,1,keypress(m),500,337155.7000000477,337155.2000000477,331100.685,331102.7000000477,331117.351,337167.109,8,400,4,,ISIC_9196033.JPG
break,html.Screen,4_53_1,2023-10-30T22:27:09.986Z,,0,,,NaN,,,,,,false,,,,337156.7000000477,337156.40000009537,,337156,,337167.109,8,400,,,
break_continue,html.Screen,4_53_2,2023-10-30T22:27:09.987Z,,0,,,NaN,,,,,,false,,,,337157,337156.7999999523,,337156.7000000477,,337167.109,8,400,,,
sequence,flow.Sequence,4_53,2023-10-30T22:27:09.987Z,,0,,,6039.448999952292,completion,,,,,false,,,,337157.2000000477,337156.7999999523,331100.685,331102.59999990463,331117.351,337167.109,8,400,,,
trial,html.Screen,4_54_0,2023-10-30T22:27:13.265Z,,0,2,,3267.490999904636,response,ISIC_2864893.JPG,7,ISIC_3058627.JPG,ISIC_2864893.JPG,false,1,keypress(m),500,340435.09999990463,340434.59999990463,337150.443,337157.2999999523,337167.109,340450.872,8,400,5,,ISIC_3058627.JPG
break,html.Screen,4_54_1,2023-10-30T22:27:13.266Z,,0,,,NaN,,,,,,false,,,,340436,340435.7999999523,,340435.40000009537,,340450.872,8,400,,,
break_continue,html.Screen,4_54_2,2023-10-30T22:27:13.266Z,,0,,,NaN,,,,,,false,,,,340436.2999999523,340436.2000000477,,340436.2000000477,,340450.872,8,400,,,
sequence,flow.Sequence,4_54,2023-10-30T22:27:13.266Z,,0,,,3269.091000047687,completion,,,,,false,,,,340436.5,340436.2000000477,337150.443,337157.2000000477,337167.109,340450.872,8,400,,,
trial,html.Screen,4_55_0,2023-10-30T22:27:16.745Z,,0,2,,3463.82800004771,response,ISIC_5287679.JPG,8,ISIC_5324623.JPG,ISIC_5324623.JPG,false,0,keypress(z),500,343915.2999999523,343914.7000000477,340434.206,340436.7999999523,340450.872,343917.4,8,400,6,,ISIC_5287679.JPG
break,html.Screen,4_55_1,2023-10-30T22:27:16.746Z,,0,,,NaN,,,,,,false,,,,343916.2999999523,343916.09999990463,,343915.5,,343917.4,8,400,,,
break_continue,html.Screen,4_55_2,2023-10-30T22:27:16.746Z,,0,,,NaN,,,,,,false,,,,343916.59999990463,343916.5,,343916.40000009537,,343917.4,8,400,,,
sequence,flow.Sequence,4_55,2023-10-30T22:27:16.747Z,,0,,,3465.628000000026,completion,,,,,false,,,,343916.7999999523,343916.5,340434.206,340436.7000000477,340450.872,343917.4,8,400,,,
trial,html.Screen,4_56_0,2023-10-30T22:27:21.997Z,,0,2,,5249.30000004766,response,ISIC_9745492.JPG,7,ISIC_0651353.JPG,ISIC_0651353.JPG,false,0,keypress(z),500,349167.09999990463,349166.7000000477,343900.734,343917,343917.4,349184.417,8,400,7,,ISIC_9745492.JPG
break,html.Screen,4_56_1,2023-10-30T22:27:21.998Z,,0,,,NaN,,,,,,false,,,,349168.09999990463,349168,,349167.5,,349184.417,8,400,,,
break_continue,html.Screen,4_56_2,2023-10-30T22:27:21.998Z,,0,,,NaN,,,,,,false,,,,349168.5,349168.40000009537,,349168.2000000477,,349184.417,8,400,,,
sequence,flow.Sequence,4_56,2023-10-30T22:27:21.998Z,,0,,,5251.000000095344,completion,,,,,false,,,,349168.7000000477,349168.40000009537,343900.734,343916.90000009537,343917.4,349184.417,8,400,,,
trial,html.Screen,4_57_0,2023-10-30T22:27:26.869Z,,0,2,,4853.983000095352,response,ISIC_0027043.JPG,8,ISIC_5771106.JPG,ISIC_5771106.JPG,false,0,keypress(z),500,354038.7999999523,354038.40000009537,349167.751,349168.7999999523,349184.417,354050.889,8,400,8,,ISIC_0027043.JPG
break,html.Screen,4_57_1,2023-10-30T22:27:26.870Z,,0,,,NaN,,,,,,false,,,,354039.7999999523,354039.59999990463,,354039.09999990463,,354050.889,8,400,,,
break_continue,html.Screen,4_57_2,2023-10-30T22:27:26.870Z,,0,,,NaN,,,,,,false,,,,354040.09999990463,354040,,354039.90000009537,,354050.889,8,400,,,
sequence,flow.Sequence,4_57,2023-10-30T22:27:26.870Z,,0,,,4855.582999999984,completion,,,,,false,,,,354040.2999999523,354040,349167.751,349168.7999999523,349184.417,354050.889,8,400,,,
trial,html.Screen,4_58_0,2023-10-30T22:27:29.938Z,,0,2,,3056.6109999999753,response,ISIC_1334438.JPG,8,ISIC_3429835.JPG,ISIC_1334438.JPG,false,1,keypress(m),500,357108,357107.5,354034.223,354040.40000009537,354050.889,357117.433,8,400,9,,ISIC_3429835.JPG
break,html.Screen,4_58_1,2023-10-30T22:27:29.939Z,,0,,,NaN,,,,,,false,,,,357108.90000009537,357108.7999999523,,357108.2999999523,,357117.433,8,400,,,
break_continue,html.Screen,4_58_2,2023-10-30T22:27:29.939Z,,0,,,NaN,,,,,,false,,,,357109.2999999523,357109.2000000477,,357109.09999990463,,357117.433,8,400,,,
sequence,flow.Sequence,4_58,2023-10-30T22:27:29.939Z,,0,,,3058.311000047659,completion,,,,,false,,,,357109.40000009537,357109.2000000477,354034.223,354040.2999999523,354050.889,357117.433,8,400,,,
trial,html.Screen,4_59_0,2023-10-30T22:27:33.271Z,,0,2,,3323.366999952297,response,ISIC_2916677.JPG,8,ISIC_1768733.JPG,ISIC_1768733.JPG,false,0,keypress(z),500,360441.2000000477,360440.7999999523,357100.767,357109.59999990463,357117.433,360451.173,8,400,10,,ISIC_2916677.JPG
break,html.Screen,4_59_1,2023-10-30T22:27:33.272Z,,0,,,NaN,,,,,,false,,,,360442.2000000477,360442,,360441.59999990463,,360451.173,8,400,,,
break_continue,html.Screen,4_59_2,2023-10-30T22:27:33.272Z,,0,,,NaN,,,,,,false,,,,360442.59999990463,360442.40000009537,,360442.40000009537,,360451.173,8,400,,,
sequence,flow.Sequence,4_59,2023-10-30T22:27:33.273Z,,0,,,3324.9670000953483,completion,,,,,false,,,,360442.7999999523,360442.40000009537,357100.767,357109.59999990463,357117.433,360451.173,8,400,,,
trial,html.Screen,4_60_0,2023-10-30T22:27:36.626Z,,0,2,,3344.32699999999,response,ISIC_0026924.JPG,6,ISIC_0016082.JPG,ISIC_0026924.JPG,false,1,keypress(m),500,363796,363795.5,360434.507,360442.90000009537,360451.173,363801.039,8,400,11,,ISIC_0016082.JPG
break,html.Screen,4_60_1,2023-10-30T22:27:36.627Z,,0,,,NaN,,,,,,false,,,,363797,363796.90000009537,,363796.2999999523,,363801.039,8,400,,,
break_continue,html.Screen,4_60_2,2023-10-30T22:27:36.627Z,,0,,,NaN,,,,,,false,,,,363797.2999999523,363797.2000000477,,363797.09999990463,,363801.039,8,400,,,
sequence,flow.Sequence,4_60,2023-10-30T22:27:36.627Z,,0,,,3346.027000047674,completion,,,,,false,,,,363797.5,363797.2000000477,360434.507,360442.7999999523,360451.173,363801.039,8,400,,,
trial,html.Screen,4_61_0,2023-10-30T22:27:39.672Z,,0,2,,3041.2609999523265,response,ISIC_6927363.JPG,9,ISIC_0011219.JPG,ISIC_0011219.JPG,false,0,keypress(z),500,366842.7000000477,366842.2999999523,363784.373,363797.7000000477,363801.039,366850.917,8,400,12,,ISIC_6927363.JPG
break,html.Screen,4_61_1,2023-10-30T22:27:39.673Z,,0,,,NaN,,,,,,false,,,,366843.7000000477,366843.5,,366843,,366850.917,8,400,,,
break_continue,html.Screen,4_61_2,2023-10-30T22:27:39.674Z,,0,,,NaN,,,,,,false,,,,366844.09999990463,366844,,366843.90000009537,,366850.917,8,400,,,
sequence,flow.Sequence,4_61,2023-10-30T22:27:39.674Z,,0,,,3042.9610000000102,completion,,,,,false,,,,366844.40000009537,366844,363784.373,363797.7000000477,363801.039,366850.917,8,400,,,
trial,html.Screen,4_62_0,2023-10-30T22:27:44.108Z,,0,2,,4427.182999904617,response,ISIC_0006302.JPG,5,ISIC_9462738.JPG,ISIC_0006302.JPG,false,1,keypress(m),500,371278.7000000477,371278.09999990463,366834.251,366844.5,366850.917,371284.617,8,400,13,,ISIC_9462738.JPG
break,html.Screen,4_62_1,2023-10-30T22:27:44.109Z,,0,,,NaN,,,,,,false,,,,371279.59999990463,371279.40000009537,,371278.90000009537,,371284.617,8,400,,,
break_continue,html.Screen,4_62_2,2023-10-30T22:27:44.109Z,,0,,,NaN,,,,,,false,,,,371280,371279.7999999523,,371279.7000000477,,371284.617,8,400,,,
sequence,flow.Sequence,4_62,2023-10-30T22:27:44.110Z,,0,,,4428.8829999523,completion,,,,,false,,,,371280.2000000477,371279.7999999523,366834.251,366844.5,366850.917,371284.617,8,400,,,
trial,html.Screen,4_63_0,2023-10-30T22:27:49.132Z,,0,2,,5022.583000047656,response,ISIC_4718313.JPG,6,ISIC_6425888.JPG,ISIC_4718313.JPG,false,1,keypress(m),500,376307.7000000477,376307.2000000477,371267.951,371280.2999999523,371284.617,376317.749,8,400,14,,ISIC_6425888.JPG
break,html.Screen,4_63_1,2023-10-30T22:27:49.133Z,,0,,,NaN,,,,,,false,,,,376308.59999990463,376308.40000009537,,376307.90000009537,,376317.749,8,400,,,
break_continue,html.Screen,4_63_2,2023-10-30T22:27:49.133Z,,0,,,NaN,,,,,,false,,,,376309,376308.90000009537,,376308.7999999523,,376317.749,8,400,,,
sequence,flow.Sequence,4_63,2023-10-30T22:27:49.133Z,,0,,,5024.28300009534,completion,,,,,false,,,,376309.2000000477,376308.90000009537,371267.951,371280.2999999523,371284.617,376317.749,8,400,,,
trial,html.Screen,4_64_0,2023-10-30T22:27:53.082Z,,0,2,,3942.7509999999893,response,ISIC_7632525.JPG,5,ISIC_6320497.JPG,ISIC_6320497.JPG,false,0,keypress(z),500,380261,380260.5,376301.083,376309.2999999523,376317.749,380267.591,8,400,15,,ISIC_7632525.JPG
break,html.Screen,4_64_1,2023-10-30T22:27:53.083Z,,0,,,NaN,,,,,,false,,,,380262,380261.7999999523,,380261.2999999523,,380267.591,8,400,,,
break_continue,html.Screen,4_64_2,2023-10-30T22:27:53.084Z,,0,,,NaN,,,,,,false,,,,380262.2999999523,380262.2000000477,,380262.2000000477,,380267.591,8,400,,,
sequence,flow.Sequence,4_64,2023-10-30T22:27:53.084Z,,0,,,3944.451000047673,completion,,,,,false,,,,380262.59999990463,380262.2000000477,376301.083,376309.2999999523,376317.749,380267.591,8,400,,,
trial,html.Screen,4_65_0,2023-10-30T22:27:56.895Z,,0,2,,3807.609000047669,response,ISIC_5194705.JPG,4,ISIC_1732527.JPG,ISIC_5194705.JPG,false,1,keypress(m),500,384075.7000000477,384075.2000000477,380250.925,380262.7000000477,380267.591,384084.724,8,400,16,,ISIC_1732527.JPG
break,html.Screen,4_65_1,2023-10-30T22:27:56.896Z,,0,,,NaN,,,,,,false,,,,384076.7000000477,384076.5,,384076,,384084.724,8,400,,,
break_continue,html.Screen,4_65_2,2023-10-30T22:27:56.896Z,,0,,,NaN,,,,,,false,,,,384077,384076.90000009537,,384076.7999999523,,384084.724,8,400,,,
sequence,flow.Sequence,4_65,2023-10-30T22:27:56.896Z,,0,,,3809.3090000953525,completion,,,,,false,,,,384077.2000000477,384076.90000009537,380250.925,380262.7000000477,380267.591,384084.724,8,400,,,
trial,html.Screen,4_66_0,2023-10-30T22:27:59.886Z,,0,2,,2983.375999904645,response,ISIC_0031726.JPG,7,ISIC_1046678.JPG,ISIC_1046678.JPG,false,0,keypress(z),500,387068.5,387068.09999990463,384068.058,384077.2999999523,384084.724,387084.604,8,400,17,,ISIC_0031726.JPG
break,html.Screen,4_66_1,2023-10-30T22:27:59.887Z,,0,,,NaN,,,,,,false,,,,387069.5,387069.2999999523,,387068.7999999523,,387084.604,8,400,,,
break_continue,html.Screen,4_66_2,2023-10-30T22:27:59.887Z,,0,,,NaN,,,,,,false,,,,387069.90000009537,387069.7000000477,,387069.59999990463,,387084.604,8,400,,,
sequence,flow.Sequence,4_66,2023-10-30T22:27:59.888Z,,0,,,2984.9760000476963,completion,,,,,false,,,,387070,387069.7000000477,384068.058,384077.2999999523,384084.724,387084.604,8,400,,,
trial,html.Screen,4_67_0,2023-10-30T22:28:05.276Z,,0,2,,5375.296000095375,response,ISIC_0014366.JPG,7,ISIC_0010266.JPG,ISIC_0014366.JPG,false,1,keypress(m),500,392460.2999999523,392459.90000009537,387067.938,387070.2000000477,387084.604,392468.169,8,400,18,,ISIC_0010266.JPG
break,html.Screen,4_67_1,2023-10-30T22:28:05.277Z,,0,,,NaN,,,,,,false,,,,392461.40000009537,392461.2000000477,,392460.7000000477,,392468.169,8,400,,,
break_continue,html.Screen,4_67_2,2023-10-30T22:28:05.277Z,,0,,,NaN,,,,,,false,,,,392461.7000000477,392461.59999990463,,392461.5,,392468.169,8,400,,,
sequence,flow.Sequence,4_67,2023-10-30T22:28:05.277Z,,0,,,5376.9959999046405,completion,,,,,false,,,,392461.90000009537,392461.59999990463,387067.938,387070.2000000477,387084.604,392468.169,8,400,,,
trial,html.Screen,4_68_0,2023-10-30T22:28:09.921Z,,0,2,,4637.930999904638,response,ISIC_0062234.JPG,7,ISIC_6663112.JPG,ISIC_0062234.JPG,false,1,keypress(m),500,397106.40000009537,397106.09999990463,392451.503,392462.09999990463,392468.169,397117.983,8,400,19,,ISIC_6663112.JPG
break,html.Screen,4_68_1,2023-10-30T22:28:09.922Z,,0,,,NaN,,,,,,false,,,,397107.5,397107.2000000477,,397106.7999999523,,397117.983,8,400,,,
break_continue,html.Screen,4_68_2,2023-10-30T22:28:09.922Z,,0,,,NaN,,,,,,false,,,,397107.7999999523,397107.7000000477,,397107.59999990463,,397117.983,8,400,,,
sequence,flow.Sequence,4_68,2023-10-30T22:28:09.922Z,,0,,,4639.531000047689,completion,,,,,false,,,,397108,397107.7000000477,392451.503,392462,392468.169,397117.983,8,400,,,
trial,html.Screen,4_69_0,2023-10-30T22:28:13.607Z,,0,2,,3674.816999952309,response,ISIC_0055136.JPG,8,ISIC_2987677.JPG,ISIC_0055136.JPG,false,1,keypress(m),500,400793.2000000477,400792.7999999523,397101.317,397108.09999990463,397117.983,400801.169,8,400,20,,ISIC_2987677.JPG
break,html.Screen,4_69_1,2023-10-30T22:28:13.607Z,,0,,,NaN,,,,,,false,,,,400793.7999999523,400793.7999999523,,400793.40000009537,,400801.169,8,400,,,
break_continue,html.Screen,4_69_2,2023-10-30T22:28:13.608Z,,0,,,NaN,,,,,,false,,,,400794.09999990463,400794,,400793.90000009537,,400801.169,8,400,,,
sequence,flow.Sequence,4_69,2023-10-30T22:28:13.608Z,,0,,,3676.0169999999925,completion,,,,,false,,,,400794.2000000477,400794,397101.317,397108.09999990463,397117.983,400801.169,8,400,,,
trial,html.Screen,4_70_0,2023-10-30T22:28:18.459Z,,0,2,,4844.430999904638,response,ISIC_0192596.JPG,6,ISIC_3761253.JPG,ISIC_3761253.JPG,false,0,keypress(z),500,405646.2000000477,405645.59999990463,400784.503,400794.2999999523,400801.169,405651.713,8,400,21,,ISIC_0192596.JPG
break,html.Screen,4_70_1,2023-10-30T22:28:18.460Z,,0,,,NaN,,,,,,false,,,,405647.2000000477,405646.90000009537,,405646.5,,405651.713,8,400,,,
break_continue,html.Screen,4_70_2,2023-10-30T22:28:18.460Z,,0,,,NaN,,,,,,false,,,,405647.5,405647.40000009537,,405647.2000000477,,405651.713,8,400,,,
sequence,flow.Sequence,4_70,2023-10-30T22:28:18.460Z,,0,,,4846.231000095373,completion,,,,,false,,,,405647.7000000477,405647.40000009537,400784.503,400794.2000000477,400801.169,405651.713,8,400,,,
trial,html.Screen,4_71_0,2023-10-30T22:28:21.993Z,,0,2,,3528.5869999523275,response,ISIC_0013835.JPG,8,ISIC_0069633.JPG,ISIC_0013835.JPG,false,1,keypress(m),500,409180.7999999523,409180.2999999523,405635.047,405647.7999999523,405651.713,409184.905,8,400,22,,ISIC_0069633.JPG
break,html.Screen,4_71_1,2023-10-30T22:28:21.994Z,,0,,,NaN,,,,,,false,,,,409181.7000000477,409181.59999990463,,409181.09999990463,,409184.905,8,400,,,
break_continue,html.Screen,4_71_2,2023-10-30T22:28:21.994Z,,0,,,NaN,,,,,,false,,,,409182.09999990463,409182,,409181.90000009537,,409184.905,8,400,,,
sequence,flow.Sequence,4_71,2023-10-30T22:28:21.995Z,,0,,,3530.287000000011,completion,,,,,false,,,,409182.2999999523,409182,405635.047,405647.7999999523,405651.713,409184.905,8,400,,,
trial,html.Screen,4_72_0,2023-10-30T22:28:25.264Z,,0,2,,3266.6949999046046,response,ISIC_2321671.JPG,6,ISIC_2160913.JPG,ISIC_2160913.JPG,false,0,keypress(z),500,412452,412451.59999990463,409168.239,409182.5,409184.905,412468.107,8,400,23,,ISIC_2321671.JPG
break,html.Screen,4_72_1,2023-10-30T22:28:25.265Z,,0,,,NaN,,,,,,false,,,,412453,412452.7999999523,,412452.2999999523,,412468.107,8,400,,,
break_continue,html.Screen,4_72_2,2023-10-30T22:28:25.265Z,,0,,,NaN,,,,,,false,,,,412453.40000009537,412453.2000000477,,412453.2000000477,,412468.107,8,400,,,
sequence,flow.Sequence,4_72,2023-10-30T22:28:25.266Z,,0,,,3268.295000047656,completion,,,,,false,,,,412453.5,412453.2000000477,409168.239,409182.40000009537,409184.905,412468.107,8,400,,,
trial,html.Screen,4_73_0,2023-10-30T22:28:29.680Z,,0,2,,4399.692999952298,response,ISIC_0068627.JPG,8,ISIC_6507792.JPG,ISIC_0068627.JPG,false,1,keypress(m),500,416868.2000000477,416867.7999999523,412451.441,412453.7000000477,412468.107,416885.143,8,400,24,,ISIC_6507792.JPG
break,html.Screen,4_73_1,2023-10-30T22:28:29.681Z,,0,,,NaN,,,,,,false,,,,416869.2000000477,416869,,416868.5,,416885.143,8,400,,,
break_continue,html.Screen,4_73_2,2023-10-30T22:28:29.681Z,,0,,,NaN,,,,,,false,,,,416869.59999990463,416869.5,,416869.2999999523,,416885.143,8,400,,,
sequence,flow.Sequence,4_73,2023-10-30T22:28:29.681Z,,0,,,4401.392999999982,completion,,,,,false,,,,416869.7000000477,416869.5,412451.441,412453.59999990463,412468.107,416885.143,8,400,,,
trial,html.Screen,4_74_0,2023-10-30T22:28:32.960Z,,0,2,,3263.357000000018,response,ISIC_9542544.JPG,8,ISIC_0012681.JPG,ISIC_9542544.JPG,false,1,keypress(m),500,420149,420148.5,416868.477,416869.90000009537,416885.143,420151.679,8,400,25,,ISIC_0012681.JPG
break,html.Screen,4_74_1,2023-10-30T22:28:32.961Z,,0,,,NaN,,,,,,false,,,,420149.90000009537,420149.7999999523,,420149.2999999523,,420151.679,8,400,,,
break_continue,html.Screen,4_74_2,2023-10-30T22:28:32.962Z,,0,,,NaN,,,,,,false,,,,420150.2999999523,420150.2000000477,,420150.09999990463,,420151.679,8,400,,,
sequence,flow.Sequence,4_74,2023-10-30T22:28:32.962Z,,0,,,3265.057000047702,completion,,,,,false,,,,420150.5,420150.2000000477,416868.477,416869.90000009537,416885.143,420151.679,8,400,,,
trial,html.Screen,4_75_0,2023-10-30T22:28:36.206Z,,0,2,,3242.920999904629,response,ISIC_2126084.JPG,7,ISIC_2341100.JPG,ISIC_2341100.JPG,false,0,keypress(z),500,423395,423394.59999990463,420135.013,420150.59999990463,420151.679,423402.109,8,400,26,,ISIC_2126084.JPG
break,html.Screen,4_75_1,2023-10-30T22:28:36.207Z,,0,,,NaN,,,,,,false,,,,423396.09999990463,423395.90000009537,,423395.40000009537,,423402.109,8,400,,,
break_continue,html.Screen,4_75_2,2023-10-30T22:28:36.208Z,,0,,,NaN,,,,,,false,,,,423396.5,423396.2999999523,,423396.2000000477,,423402.109,8,400,,,
sequence,flow.Sequence,4_75,2023-10-30T22:28:36.208Z,,0,,,3244.6209999523126,completion,,,,,false,,,,423396.59999990463,423396.2999999523,420135.013,420150.59999990463,420151.679,423402.109,8,400,,,
trial,html.Screen,4_76_0,2023-10-30T22:28:39.831Z,,0,2,,3616.8910000000033,response,ISIC_1944650.JPG,8,ISIC_0046609.JPG,ISIC_0046609.JPG,false,0,keypress(z),500,427019.5,427019,423385.443,423396.7000000477,423402.109,427035.297,8,400,27,,ISIC_1944650.JPG
break,html.Screen,4_76_1,2023-10-30T22:28:39.832Z,,0,,,NaN,,,,,,false,,,,427020.40000009537,427020.2000000477,,427019.7999999523,,427035.297,8,400,,,
break_continue,html.Screen,4_76_2,2023-10-30T22:28:39.832Z,,0,,,NaN,,,,,,false,,,,427020.90000009537,427020.7000000477,,427020.59999990463,,427035.297,8,400,,,
sequence,flow.Sequence,4_76,2023-10-30T22:28:39.832Z,,0,,,3618.591000047687,completion,,,,,false,,,,427021,427020.7000000477,423385.443,423396.7000000477,423402.109,427035.297,8,400,,,
trial,html.Screen,4_77_0,2023-10-30T22:28:43.278Z,,0,2,,3431.002999952296,response,ISIC_0963536.JPG,7,ISIC_3518299.JPG,ISIC_0963536.JPG,false,1,keypress(m),500,430466.7999999523,430466.2999999523,427018.631,427021.09999990463,427035.297,430468.493,8,400,28,,ISIC_3518299.JPG
break,html.Screen,4_77_1,2023-10-30T22:28:43.279Z,,0,,,NaN,,,,,,false,,,,430467.7000000477,430467.59999990463,,430467.09999990463,,430468.493,8,400,,,
break_continue,html.Screen,4_77_2,2023-10-30T22:28:43.279Z,,0,,,NaN,,,,,,false,,,,430468.2000000477,430468.09999990463,,430467.90000009537,,430468.493,8,400,,,
sequence,flow.Sequence,4_77,2023-10-30T22:28:43.279Z,,0,,,3432.802999904612,completion,,,,,false,,,,430468.40000009537,430468.09999990463,427018.631,427021.09999990463,427035.297,430468.493,8,400,,,
trial,html.Screen,4_78_0,2023-10-30T22:28:48.384Z,,0,2,,5104.207000047667,response,ISIC_4875370.JPG,8,ISIC_5335139.JPG,ISIC_5335139.JPG,false,0,keypress(z),500,435573.09999990463,435572.7000000477,430451.827,430468.5,430468.493,435585.445,8,400,29,,ISIC_4875370.JPG
break,html.Screen,4_78_1,2023-10-30T22:28:48.385Z,,0,,,NaN,,,,,,false,,,,435574.2000000477,435574,,435573.5,,435585.445,8,400,,,
break_continue,html.Screen,4_78_2,2023-10-30T22:28:48.385Z,,0,,,NaN,,,,,,false,,,,435574.59999990463,435574.40000009537,,435574.2999999523,,435585.445,8,400,,,
sequence,flow.Sequence,4_78,2023-10-30T22:28:48.386Z,,0,,,5105.907000095351,completion,,,,,false,,,,435574.7999999523,435574.40000009537,430451.827,430468.40000009537,430468.493,435585.445,8,400,,,
trial,html.Screen,4_79_0,2023-10-30T22:28:51.976Z,,0,2,,3578.9550000953604,response,ISIC_8575769.JPG,5,ISIC_8779142.JPG,ISIC_8575769.JPG,false,1,keypress(m),500,439164.90000009537,439164.40000009537,435568.779,435574.90000009537,435585.445,439168.635,8,400,30,,ISIC_8779142.JPG
break,html.Screen,4_79_1,2023-10-30T22:28:51.977Z,,0,,,NaN,,,,,,false,,,,439165.90000009537,439165.7000000477,,439165.2000000477,,439168.635,8,400,,,
break_continue,html.Screen,4_79_2,2023-10-30T22:28:51.977Z,,0,,,NaN,,,,,,false,,,,439166.2999999523,439166.09999990463,,439166,,439168.635,8,400,,,
sequence,flow.Sequence,4_79,2023-10-30T22:28:51.977Z,,0,,,3580.6549999046256,completion,,,,,false,,,,439166.40000009537,439166.09999990463,435568.779,435574.90000009537,435585.445,439168.635,8,400,,,
trial,html.Screen,4_80_0,2023-10-30T22:28:55.180Z,,0,2,,3200.4649999046233,response,ISIC_0011778.JPG,6,ISIC_4341261.JPG,ISIC_0011778.JPG,false,1,keypress(m),500,442369.59999990463,442369.09999990463,439151.969,439166.59999990463,439168.635,442385.173,8,400,31,,ISIC_4341261.JPG
break,html.Screen,4_80_1,2023-10-30T22:28:55.181Z,,0,,,NaN,,,,,,false,,,,442370.5,442370.2999999523,,442369.90000009537,,442385.173,8,400,,,
break_continue,html.Screen,4_80_2,2023-10-30T22:28:55.182Z,,0,,,NaN,,,,,,false,,,,442371,442370.7999999523,,442370.7000000477,,442385.173,8,400,,,
sequence,flow.Sequence,4_80,2023-10-30T22:28:55.182Z,,0,,,3202.164999952307,completion,,,,,false,,,,442371.09999990463,442370.7999999523,439151.969,439166.5,439168.635,442385.173,8,400,,,
trial,html.Screen,4_81_0,2023-10-30T22:28:58.629Z,,0,2,,3433.2270000953577,response,ISIC_0789732.JPG,5,ISIC_0057287.JPG,ISIC_0789732.JPG,false,1,keypress(m),500,445818.7999999523,445818.40000009537,442368.507,442371.2000000477,442385.173,445835.646,8,400,32,,ISIC_0057287.JPG
break,html.Screen,4_81_1,2023-10-30T22:28:58.630Z,,0,,,NaN,,,,,,false,,,,445819.7999999523,445819.7000000477,,445819.2000000477,,445835.646,8,400,,,
break_continue,html.Screen,4_81_2,2023-10-30T22:28:58.631Z,,0,,,NaN,,,,,,false,,,,445820.2000000477,445820.09999990463,,445820,,445835.646,8,400,,,
sequence,flow.Sequence,4_81,2023-10-30T22:28:58.631Z,,0,,,3434.926999904623,completion,,,,,false,,,,445820.2999999523,445820.09999990463,442368.507,442371.2000000477,442385.173,445835.646,8,400,,,
trial,html.Screen,4_82_0,2023-10-30T22:29:01.996Z,,0,2,,3349.853999999992,response,ISIC_0024737.JPG,4,ISIC_0026531.JPG,ISIC_0026531.JPG,false,0,keypress(z),500,449185.90000009537,449185.5,445818.98,445820.5,445835.646,449185.512,8,400,33,,ISIC_0024737.JPG
break,html.Screen,4_82_1,2023-10-30T22:29:01.997Z,,0,,,NaN,,,,,,false,,,,449186.90000009537,449186.7000000477,,449186.2000000477,,449185.512,8,400,,,
break_continue,html.Screen,4_82_2,2023-10-30T22:29:01.998Z,,0,,,NaN,,,,,,false,,,,449187.2999999523,449187.2000000477,,449187.09999990463,,449185.512,8,400,,,
sequence,flow.Sequence,4_82,2023-10-30T22:29:01.998Z,,0,,,3351.554000047676,completion,,,,,false,,,,449187.40000009537,449187.2000000477,445818.98,445820.5,445835.646,449185.512,8,400,,,
trial,html.Screen,4_83_0,2023-10-30T22:29:05.696Z,,0,2,,3699.488000000012,response,ISIC_0029574.JPG,7,ISIC_2171940.JPG,ISIC_0029574.JPG,false,1,keypress(m),500,452885.5,452885,449168.846,449187.5,449185.512,452902.03,8,400,34,,ISIC_2171940.JPG
break,html.Screen,4_83_1,2023-10-30T22:29:05.697Z,,0,,,NaN,,,,,,false,,,,452886.5,452886.2999999523,,452885.7999999523,,452902.03,8,400,,,
break_continue,html.Screen,4_83_2,2023-10-30T22:29:05.697Z,,0,,,NaN,,,,,,false,,,,452886.7999999523,452886.7000000477,,452886.59999990463,,452902.03,8,400,,,
sequence,flow.Sequence,4_83,2023-10-30T22:29:05.698Z,,0,,,3701.188000047696,completion,,,,,false,,,,452887,452886.7000000477,449168.846,449187.5,449185.512,452902.03,8,400,,,
trial,html.Screen,4_84_0,2023-10-30T22:29:08.895Z,,0,2,,3182.0699999046046,response,ISIC_0026278.JPG,9,ISIC_8699796.JPG,ISIC_8699796.JPG,false,0,keypress(z),500,456084.59999990463,456084.09999990463,452885.364,452887.09999990463,452902.03,456085.748,8,400,35,,ISIC_0026278.JPG
break,html.Screen,4_84_1,2023-10-30T22:29:08.896Z,,0,,,NaN,,,,,,false,,,,456085.59999990463,456085.40000009537,,456084.90000009537,,456085.748,8,400,,,
break_continue,html.Screen,4_84_2,2023-10-30T22:29:08.896Z,,0,,,NaN,,,,,,false,,,,456085.90000009537,456085.7999999523,,456085.7000000477,,456085.748,8,400,,,
sequence,flow.Sequence,4_84,2023-10-30T22:29:08.897Z,,0,,,3183.7699999522883,completion,,,,,false,,,,456086.09999990463,456085.7999999523,452885.364,452887,452902.03,456085.748,8,400,,,
trial,html.Screen,4_85_0,2023-10-30T22:29:12.452Z,,0,2,,3555.2519999999786,response,ISIC_0061531.JPG,6,ISIC_0000292.JPG,ISIC_0000292.JPG,false,0,keypress(z),500,459641.59999990463,459641,456069.082,456086.2999999523,456085.748,459652.272,8,400,36,,ISIC_0061531.JPG
break,html.Screen,4_85_1,2023-10-30T22:29:12.453Z,,0,,,NaN,,,,,,false,,,,459642.5,459642.40000009537,,459641.7999999523,,459652.272,8,400,,,
break_continue,html.Screen,4_85_2,2023-10-30T22:29:12.453Z,,0,,,NaN,,,,,,false,,,,459642.90000009537,459642.7000000477,,459642.59999990463,,459652.272,8,400,,,
sequence,flow.Sequence,4_85,2023-10-30T22:29:12.453Z,,0,,,3556.9520000476623,completion,,,,,false,,,,459643.09999990463,459642.7000000477,456069.082,456086.2000000477,456085.748,459652.272,8,400,,,
trial,html.Screen,4_86_0,2023-10-30T22:29:15.516Z,,0,2,,3052.62800009537,response,ISIC_0024296.JPG,6,ISIC_0025289.JPG,ISIC_0024296.JPG,false,1,keypress(m),500,462705.40000009537,462704.90000009537,459635.606,459643.2000000477,459652.272,462718.816,8,400,37,,ISIC_0025289.JPG
break,html.Screen,4_86_1,2023-10-30T22:29:15.517Z,,0,,,NaN,,,,,,false,,,,462706.40000009537,462706.2000000477,,462705.7000000477,,462718.816,8,400,,,
break_continue,html.Screen,4_86_2,2023-10-30T22:29:15.517Z,,0,,,NaN,,,,,,false,,,,462706.7000000477,462706.59999990463,,462706.59999990463,,462718.816,8,400,,,
sequence,flow.Sequence,4_86,2023-10-30T22:29:15.517Z,,0,,,3054.3279999046354,completion,,,,,false,,,,462707,462706.59999990463,459635.606,459643.2000000477,459652.272,462718.816,8,400,,,
trial,html.Screen,4_87_0,2023-10-30T22:29:18.979Z,,0,2,,3449.283999904641,response,ISIC_0765973.JPG,8,ISIC_9879347.JPG,ISIC_0765973.JPG,false,1,keypress(m),500,466168.59999990463,466168.09999990463,462702.15,462707.09999990463,462718.816,466185.925,8,400,38,,ISIC_9879347.JPG
break,html.Screen,4_87_1,2023-10-30T22:29:18.980Z,,0,,,NaN,,,,,,false,,,,466169.59999990463,466169.2999999523,,466168.90000009537,,466185.925,8,400,,,
break_continue,html.Screen,4_87_2,2023-10-30T22:29:18.980Z,,0,,,NaN,,,,,,false,,,,466169.90000009537,466169.7999999523,,466169.7000000477,,466185.925,8,400,,,
sequence,flow.Sequence,4_87,2023-10-30T22:29:18.980Z,,0,,,3450.9839999523247,completion,,,,,false,,,,466170.09999990463,466169.7999999523,462702.15,462707.09999990463,462718.816,466185.925,8,400,,,
trial,html.Screen,4_88_0,2023-10-30T22:29:22.377Z,,0,2,,3380.174999904644,response,ISIC_8887039.JPG,8,ISIC_0027104.JPG,ISIC_0027104.JPG,false,0,keypress(z),500,469566.2999999523,469566.09999990463,466169.259,466170.2999999523,466185.925,469585.789,8,400,39,,ISIC_8887039.JPG
break,html.Screen,4_88_1,2023-10-30T22:29:22.377Z,,0,,,NaN,,,,,,false,,,,469566.7000000477,469566.7000000477,,469566.40000009537,,469585.789,8,400,,,
break_continue,html.Screen,4_88_2,2023-10-30T22:29:22.377Z,,0,,,NaN,,,,,,false,,,,469567,469566.90000009537,,469566.7999999523,,469585.789,8,400,,,
sequence,flow.Sequence,4_88,2023-10-30T22:29:22.377Z,,0,,,3380.975000095379,completion,,,,,false,,,,469567.09999990463,469566.90000009537,466169.259,466170.2999999523,466185.925,469585.789,8,400,,,
trial,html.Screen,4_89_0,2023-10-30T22:29:25.532Z,,0,2,,3135.1110000953777,response,ISIC_0066878.JPG,7,ISIC_0059722.JPG,ISIC_0066878.JPG,false,1,keypress(m),500,472721.2000000477,472720.90000009537,469569.123,469567.09999990463,469585.789,472735.663,8,400,40,,ISIC_0059722.JPG
break,html.Screen,4_89_1,2023-10-30T22:29:25.533Z,,0,,,NaN,,,,,,false,,,,472722.2000000477,472722.09999990463,,472721.5,,472735.663,8,400,,,
break_continue,html.Screen,4_89_2,2023-10-30T22:29:25.533Z,,0,,,NaN,,,,,,false,,,,472722.59999990463,472722.40000009537,,472722.40000009537,,472735.663,8,400,,,
sequence,flow.Sequence,4_89,2023-10-30T22:29:25.533Z,,0,,,3136.6110000953777,completion,,,,,false,,,,472722.7999999523,472722.40000009537,469569.123,469567.09999990463,469585.789,472735.663,8,400,,,
trial,html.Screen,4_90_0,2023-10-30T22:29:28.833Z,,0,2,,3287.136999952316,response,ISIC_7131689.JPG,8,ISIC_3503213.JPG,ISIC_3503213.JPG,false,0,keypress(z),500,476023.2000000477,476022.7999999523,472718.997,472723,472735.663,476036.097,8,400,41,,ISIC_7131689.JPG
break,html.Screen,4_90_1,2023-10-30T22:29:28.834Z,,0,,,NaN,,,,,,false,,,,476024.2000000477,476024,,476023.5,,476036.097,8,400,,,
break_continue,html.Screen,4_90_2,2023-10-30T22:29:28.835Z,,0,,,NaN,,,,,,false,,,,476024.59999990463,476024.40000009537,,476024.2999999523,,476036.097,8,400,,,
sequence,flow.Sequence,4_90,2023-10-30T22:29:28.835Z,,0,,,3288.737000095367,completion,,,,,false,,,,476024.7000000477,476024.40000009537,472718.997,472722.90000009537,472735.663,476036.097,8,400,,,
trial,html.Screen,4_91_0,2023-10-30T22:29:33.880Z,,0,2,,5033.103000047675,response,ISIC_0000531.JPG,7,ISIC_0032192.JPG,ISIC_0032192.JPG,false,0,keypress(z),500,481069.7000000477,481069.2000000477,476019.431,476024.7999999523,476036.097,481085.895,8,400,42,,ISIC_0000531.JPG
break,html.Screen,4_91_1,2023-10-30T22:29:33.881Z,,0,,,NaN,,,,,,false,,,,481070.7999999523,481070.5,,481070,,481085.895,8,400,,,
break_continue,html.Screen,4_91_2,2023-10-30T22:29:33.881Z,,0,,,NaN,,,,,,false,,,,481071.2000000477,481071,,481070.90000009537,,481085.895,8,400,,,
sequence,flow.Sequence,4_91,2023-10-30T22:29:33.882Z,,0,,,5034.902999999991,completion,,,,,false,,,,481071.2999999523,481071,476019.431,476024.7999999523,476036.097,481085.895,8,400,,,
trial,html.Screen,4_92_0,2023-10-30T22:29:37.718Z,,0,2,,3821.805000047665,response,ISIC_0000296.JPG,6,ISIC_0033083.JPG,ISIC_0000296.JPG,false,1,keypress(m),500,484908.2000000477,484907.7000000477,481069.229,481071.5,481085.895,484919.62,8,400,43,,ISIC_0033083.JPG
break,html.Screen,4_92_1,2023-10-30T22:29:37.719Z,,0,,,NaN,,,,,,false,,,,484909.2000000477,484909,,484908.5,,484919.62,8,400,,,
break_continue,html.Screen,4_92_2,2023-10-30T22:29:37.720Z,,0,,,NaN,,,,,,false,,,,484909.59999990463,484909.40000009537,,484909.2999999523,,484919.62,8,400,,,
sequence,flow.Sequence,4_92,2023-10-30T22:29:37.720Z,,0,,,3823.505000095349,completion,,,,,false,,,,484909.7000000477,484909.40000009537,481069.229,481071.5,481085.895,484919.62,8,400,,,
trial,html.Screen,4_93_0,2023-10-30T22:29:41.867Z,,0,2,,4136.080000047688,response,ISIC_7935007.JPG,8,ISIC_5010212.JPG,ISIC_5010212.JPG,false,0,keypress(z),500,489056.40000009537,489055.7000000477,484902.954,484909.7999999523,484919.62,489069.454,8,400,44,,ISIC_7935007.JPG
break,html.Screen,4_93_1,2023-10-30T22:29:41.868Z,,0,,,NaN,,,,,,false,,,,489057.40000009537,489057.2000000477,,489056.7999999523,,489069.454,8,400,,,
break_continue,html.Screen,4_93_2,2023-10-30T22:29:41.868Z,,0,,,NaN,,,,,,false,,,,489057.7000000477,489057.59999990463,,489057.5,,489069.454,8,400,,,
sequence,flow.Sequence,4_93,2023-10-30T22:29:41.868Z,,0,,,4137.979999904637,completion,,,,,false,,,,489057.90000009537,489057.59999990463,484902.954,484909.7999999523,484919.62,489069.454,8,400,,,
trial,html.Screen,4_94_0,2023-10-30T22:29:45.570Z,,0,2,,3689.4460000953404,response,ISIC_0057287.JPG,6,ISIC_5442834.JPG,ISIC_5442834.JPG,false,0,keypress(z),500,492759.40000009537,492758.90000009537,489052.788,489058.09999990463,489069.454,492769.306,8,400,45,,ISIC_0057287.JPG
break,html.Screen,4_94_1,2023-10-30T22:29:45.571Z,,0,,,NaN,,,,,,false,,,,492760.40000009537,492760.2000000477,,492759.7999999523,,492769.306,8,400,,,
break_continue,html.Screen,4_94_2,2023-10-30T22:29:45.571Z,,0,,,NaN,,,,,,false,,,,492760.7000000477,492760.7000000477,,492760.5,,492769.306,8,400,,,
sequence,flow.Sequence,4_94,2023-10-30T22:29:45.571Z,,0,,,3691.2460000476567,completion,,,,,false,,,,492761,492760.7000000477,489052.788,489058,489069.454,492769.306,8,400,,,
trial,html.Screen,4_95_0,2023-10-30T22:29:50.344Z,,0,2,,4764.29399990465,response,ISIC_4463086.JPG,7,ISIC_8535943.JPG,ISIC_8535943.JPG,false,0,keypress(z),500,497534,497533.59999990463,492752.64,492761.09999990463,492769.306,497536.315,8,400,46,,ISIC_4463086.JPG
break,html.Screen,4_95_1,2023-10-30T22:29:50.345Z,,0,,,NaN,,,,,,false,,,,497535.09999990463,497534.90000009537,,497534.40000009537,,497536.315,8,400,,,
break_continue,html.Screen,4_95_2,2023-10-30T22:29:50.346Z,,0,,,NaN,,,,,,false,,,,497535.40000009537,497535.2999999523,,497535.2000000477,,497536.315,8,400,,,
sequence,flow.Sequence,4_95,2023-10-30T22:29:50.346Z,,0,,,4765.993999952334,completion,,,,,false,,,,497535.59999990463,497535.2999999523,492752.64,492761,492769.306,497536.315,8,400,,,
trial,html.Screen,4_96_0,2023-10-30T22:29:54.366Z,,0,2,,4018.7849999046302,response,ISIC_0053513.JPG,5,ISIC_5706908.JPG,ISIC_5706908.JPG,false,0,keypress(z),500,501555.5,501555.09999990463,497519.649,497535.7999999523,497536.315,501569.487,8,400,47,,ISIC_0053513.JPG
break,html.Screen,4_96_1,2023-10-30T22:29:54.367Z,,0,,,NaN,,,,,,false,,,,501556.59999990463,501556.2999999523,,501555.7999999523,,501569.487,8,400,,,
break_continue,html.Screen,4_96_2,2023-10-30T22:29:54.367Z,,0,,,NaN,,,,,,false,,,,501557,501556.7999999523,,501556.7000000477,,501569.487,8,400,,,
sequence,flow.Sequence,4_96,2023-10-30T22:29:54.367Z,,0,,,4020.484999952314,completion,,,,,false,,,,501557.09999990463,501556.7999999523,497519.649,497535.7000000477,497536.315,501569.487,8,400,,,
trial,html.Screen,4_97_0,2023-10-30T22:29:57.651Z,,0,2,,3270.6129999046098,response,ISIC_7373074.JPG,7,ISIC_9382494.JPG,ISIC_7373074.JPG,false,1,keypress(m),500,504840.59999990463,504840.09999990463,501552.821,501557.2000000477,501569.487,504852.689,8,400,48,,ISIC_9382494.JPG
break,html.Screen,4_97_1,2023-10-30T22:29:57.652Z,,0,,,NaN,,,,,,false,,,,504841.5,504841.40000009537,,504840.90000009537,,504852.689,8,400,,,
break_continue,html.Screen,4_97_2,2023-10-30T22:29:57.652Z,,0,,,NaN,,,,,,false,,,,504842,504841.90000009537,,504841.7000000477,,504852.689,8,400,,,
sequence,flow.Sequence,4_97,2023-10-30T22:29:57.652Z,,0,,,3272.4130000953446,completion,,,,,false,,,,504842.2000000477,504841.90000009537,501552.821,501557.2000000477,501569.487,504852.689,8,400,,,
trial,html.Screen,4_98_0,2023-10-30T22:30:00.991Z,,0,2,,3327.7110000953544,response,ISIC_2928274.JPG,8,ISIC_8175453.JPG,ISIC_8175453.JPG,false,0,keypress(z),500,508180.90000009537,508180.40000009537,504836.023,504842.2999999523,504852.689,508186.456,8,400,49,,ISIC_2928274.JPG
break,html.Screen,4_98_1,2023-10-30T22:30:00.992Z,,0,,,NaN,,,,,,false,,,,508181.90000009537,508181.7000000477,,508181.09999990463,,508186.456,8,400,,,
break_continue,html.Screen,4_98_2,2023-10-30T22:30:00.992Z,,0,,,NaN,,,,,,false,,,,508182.2000000477,508182.09999990463,,508182,,508186.456,8,400,,,
sequence,flow.Sequence,4_98,2023-10-30T22:30:00.992Z,,0,,,3329.4109999046195,completion,,,,,false,,,,508182.40000009537,508182.09999990463,504836.023,504842.2999999523,504852.689,508186.456,8,400,,,
trial,html.Screen,4_99_0,2023-10-30T22:30:05.277Z,,0,2,,4280.244000047678,response,ISIC_0028306.JPG,6,ISIC_0776189.JPG,ISIC_0028306.JPG,false,1,keypress(m),500,512467.09999990463,512466.7000000477,508169.79,508182.59999990463,508186.456,512469.618,8,400,50,,ISIC_0776189.JPG
break,html.Screen,4_99_1,2023-10-30T22:30:15.267Z,,0,,,10000.138999999966,timeout,,,,,false,,,,522457.5,522453.091,512452.952,512467.2999999523,512469.618,522469.757,8,400,,,
break_continue,html.Screen,4_99_2,2023-10-30T22:30:19.689Z,,0,,,4394.9430000477005,response,,,,,false,continue,keypress(Space),,526879,526864.7000000477,522453.091,522457.7000000477,522469.757,526886.247,8,400,,,
sequence,flow.Sequence,4_99,2023-10-30T22:30:19.689Z,,0,,,18678.244000047678,completion,,,,,false,,,,526879.0999999046,526864.7000000477,508169.79,508182.5,508186.456,526886.247,8,400,,,
trial,html.Screen,4_100_0,2023-10-30T22:30:24.366Z,,0,3,,4669.352999904659,response,ISIC_8659639.JPG,8,ISIC_0031386.JPG,ISIC_8659639.JPG,false,1,keypress(m),500,531556,531555.5999999046,526869.581,526879.2000000477,526886.247,531569.801,8,400,1,,ISIC_0031386.JPG
break,html.Screen,4_100_1,2023-10-30T22:30:24.367Z,,0,,,NaN,,,,,,false,,,,531557,531556.7999999523,,531556.2999999523,,531569.801,8,400,,,
break_continue,html.Screen,4_100_2,2023-10-30T22:30:24.367Z,,0,,,NaN,,,,,,false,,,,531557.4000000954,531557.2999999523,,531557.2000000477,,531569.801,8,400,,,
sequence,flow.Sequence,4_100,2023-10-30T22:30:24.367Z,,0,,,4671.052999952342,completion,,,,,false,,,,531557.5999999046,531557.2999999523,526869.581,526879.0999999046,526886.247,531569.801,8,400,,,
trial,html.Screen,4_101_0,2023-10-30T22:30:27.587Z,,0,3,,3207.09900009539,response,ISIC_0014857.JPG,7,ISIC_8244535.JPG,ISIC_0014857.JPG,false,1,keypress(m),500,534777.4000000954,534776.9000000954,531553.135,531557.7999999523,531569.801,534786.339,8,400,2,,ISIC_8244535.JPG
break,html.Screen,4_101_1,2023-10-30T22:30:27.588Z,,0,,,NaN,,,,,,false,,,,534778.4000000954,534778.2000000477,,534777.7999999523,,534786.339,8,400,,,
break_continue,html.Screen,4_101_2,2023-10-30T22:30:27.589Z,,0,,,NaN,,,,,,false,,,,534778.7999999523,534778.5999999046,,534778.5,,534786.339,8,400,,,
sequence,flow.Sequence,4_101,2023-10-30T22:30:27.589Z,,0,,,3208.798999904655,completion,,,,,false,,,,534779,534778.5999999046,531553.135,531557.7999999523,531569.801,534786.339,8,400,,,
trial,html.Screen,4_102_0,2023-10-30T22:30:30.682Z,,0,3,,3085.561000095331,response,ISIC_5709878.JPG,7,ISIC_0032396.JPG,ISIC_0032396.JPG,false,0,keypress(z),500,537872.4000000954,537871.9000000954,534769.673,534779.2000000477,534786.339,537887.014,8,400,3,,ISIC_5709878.JPG
break,html.Screen,4_102_1,2023-10-30T22:30:30.683Z,,0,,,NaN,,,,,,false,,,,537873.4000000954,537873.2000000477,,537872.7999999523,,537887.014,8,400,,,
break_continue,html.Screen,4_102_2,2023-10-30T22:30:30.684Z,,0,,,NaN,,,,,,false,,,,537873.7999999523,537873.7000000477,,537873.5999999046,,537887.014,8,400,,,
sequence,flow.Sequence,4_102,2023-10-30T22:30:30.684Z,,0,,,3087.3610000476474,completion,,,,,false,,,,537873.9000000954,537873.7000000477,534769.673,534779.0999999046,534786.339,537887.014,8,400,,,
trial,html.Screen,4_103_0,2023-10-30T22:30:33.550Z,,0,3,,2852.386000095401,response,ISIC_0033051.JPG,8,ISIC_3736075.JPG,ISIC_3736075.JPG,false,0,keypress(z),500,540739.9000000954,540739.4000000954,537870.348,537874.0999999046,537887.014,540753.566,8,400,4,,ISIC_0033051.JPG
break,html.Screen,4_103_1,2023-10-30T22:30:33.551Z,,0,,,NaN,,,,,,false,,,,540741,540740.7999999523,,540740.2999999523,,540753.566,8,400,,,
break_continue,html.Screen,4_103_2,2023-10-30T22:30:33.551Z,,0,,,NaN,,,,,,false,,,,540741.4000000954,540741.2000000477,,540741.0999999046,,540753.566,8,400,,,
sequence,flow.Sequence,4_103,2023-10-30T22:30:33.551Z,,0,,,2854.1860000477172,completion,,,,,false,,,,540741.5,540741.2000000477,537870.348,537874,537887.014,540753.566,8,400,,,
trial,html.Screen,4_104_0,2023-10-30T22:30:36.868Z,,0,3,,3304.634000047692,response,ISIC_0939648.JPG,6,ISIC_0032820.JPG,ISIC_0032820.JPG,false,0,keypress(z),500,544058.5999999046,544058.2000000477,540736.9,540741.7000000477,540753.566,544070.1,8,400,5,,ISIC_0939648.JPG
break,html.Screen,4_104_1,2023-10-30T22:30:36.869Z,,0,,,NaN,,,,,,false,,,,544059.7000000477,544059.5,,544059,,544070.1,8,400,,,
break_continue,html.Screen,4_104_2,2023-10-30T22:30:36.870Z,,0,,,NaN,,,,,,false,,,,544060.0999999046,544059.9000000954,,544059.7999999523,,544070.1,8,400,,,
sequence,flow.Sequence,4_104,2023-10-30T22:30:36.870Z,,0,,,3306.334000095376,completion,,,,,false,,,,544060.2000000477,544059.9000000954,540736.9,540741.7000000477,540753.566,544070.1,8,400,,,
trial,html.Screen,4_105_0,2023-10-30T22:30:39.640Z,,0,3,,2759.9000000000233,response,ISIC_0028220.JPG,5,ISIC_0024718.JPG,ISIC_0028220.JPG,false,1,keypress(m),500,546830.2000000477,546830,544053.434,544060.5,544070.1,546836.656,8,400,6,,ISIC_0024718.JPG
break,html.Screen,4_105_1,2023-10-30T22:30:39.641Z,,0,,,NaN,,,,,,false,,,,546830.9000000954,546830.7999999523,,546830.4000000954,,546836.656,8,400,,,
break_continue,html.Screen,4_105_2,2023-10-30T22:30:39.641Z,,0,,,NaN,,,,,,false,,,,546831.0999999046,546831.0999999046,,546831,,546836.656,8,400,,,
sequence,flow.Sequence,4_105,2023-10-30T22:30:39.641Z,,0,,,2760.999999904656,completion,,,,,false,,,,546831.2000000477,546831.0999999046,544053.434,544060.4000000954,544070.1,546836.656,8,400,,,
trial,html.Screen,4_106_0,2023-10-30T22:30:43.804Z,,0,3,,4156.844000000041,response,ISIC_9560298.JPG,8,ISIC_1308081.JPG,ISIC_1308081.JPG,false,0,keypress(z),500,550994,550993.5,546819.99,546831.2999999523,546836.656,551003.667,8,400,7,,ISIC_9560298.JPG
break,html.Screen,4_106_1,2023-10-30T22:30:43.805Z,,0,,,NaN,,,,,,false,,,,550995,550994.7000000477,,550994.2999999523,,551003.667,8,400,,,
break_continue,html.Screen,4_106_2,2023-10-30T22:30:43.805Z,,0,,,NaN,,,,,,false,,,,550995.2999999523,550995.2000000477,,550995.0999999046,,551003.667,8,400,,,
sequence,flow.Sequence,4_106,2023-10-30T22:30:43.805Z,,0,,,4158.544000047725,completion,,,,,false,,,,550995.5,550995.2000000477,546819.99,546831.2999999523,546836.656,551003.667,8,400,,,
trial,html.Screen,4_107_0,2023-10-30T22:30:47.810Z,,0,3,,3996.533000047668,response,ISIC_0006829.JPG,7,ISIC_0026089.JPG,ISIC_0026089.JPG,false,0,keypress(z),500,555000.7999999523,555000.2000000477,550987.001,550995.5999999046,551003.667,555003.507,8,400,8,,ISIC_0006829.JPG
break,html.Screen,4_107_1,2023-10-30T22:30:47.811Z,,0,,,NaN,,,,,,false,,,,555001.7000000477,555001.5999999046,,555001.0999999046,,555003.507,8,400,,,
break_continue,html.Screen,4_107_2,2023-10-30T22:30:47.812Z,,0,,,NaN,,,,,,false,,,,555002.0999999046,555002,,555001.9000000954,,555003.507,8,400,,,
sequence,flow.Sequence,4_107,2023-10-30T22:30:47.812Z,,0,,,3998.332999999984,completion,,,,,false,,,,555002.2999999523,555002,550987.001,550995.5,551003.667,555003.507,8,400,,,
trial,html.Screen,4_108_0,2023-10-30T22:30:50.840Z,,0,3,,3026.6930000477005,response,ISIC_0473135.JPG,7,ISIC_0025877.JPG,ISIC_0473135.JPG,false,1,keypress(m),500,558030.7000000477,558030.2000000477,554986.841,555002.5,555003.507,558036.719,8,400,9,,ISIC_0025877.JPG
break,html.Screen,4_108_1,2023-10-30T22:30:50.841Z,,0,,,NaN,,,,,,false,,,,558031.7000000477,558031.5,,558031,,558036.719,8,400,,,
break_continue,html.Screen,4_108_2,2023-10-30T22:30:50.842Z,,0,,,NaN,,,,,,false,,,,558032.0999999046,558032,,558031.9000000954,,558036.719,8,400,,,
sequence,flow.Sequence,4_108,2023-10-30T22:30:50.842Z,,0,,,3028.4930000000168,completion,,,,,false,,,,558032.2000000477,558032,554986.841,555002.4000000954,555003.507,558036.719,8,400,,,
trial,html.Screen,4_109_0,2023-10-30T22:30:56.224Z,,0,3,,5376.681000095326,response,ISIC_0979974.JPG,6,ISIC_0028755.JPG,ISIC_0028755.JPG,false,0,keypress(z),500,563413.9000000954,563413.4000000954,558020.053,558032.4000000954,558036.719,563420.41,8,400,10,,ISIC_0979974.JPG
break,html.Screen,4_109_1,2023-10-30T22:30:56.225Z,,0,,,NaN,,,,,,false,,,,563415,563414.7000000477,,563414.2000000477,,563420.41,8,400,,,
break_continue,html.Screen,4_109_2,2023-10-30T22:30:56.225Z,,0,,,NaN,,,,,,false,,,,563415.4000000954,563415.2000000477,,563415.0999999046,,563420.41,8,400,,,
sequence,flow.Sequence,4_109,2023-10-30T22:30:56.225Z,,0,,,5378.481000047643,completion,,,,,false,,,,563415.5999999046,563415.2000000477,558020.053,558032.4000000954,558036.719,563420.41,8,400,,,
trial,html.Screen,4_110_0,2023-10-30T22:30:59.272Z,,0,3,,3041.3899999522837,response,ISIC_7218890.JPG,7,ISIC_0025956.JPG,ISIC_7218890.JPG,false,1,keypress(m),500,566462.2999999523,566461.7999999523,563403.744,563415.7000000477,563420.41,566470.288,8,400,11,,ISIC_0025956.JPG
break,html.Screen,4_110_1,2023-10-30T22:30:59.273Z,,0,,,NaN,,,,,,false,,,,566463.4000000954,566463.2000000477,,566462.7000000477,,566470.288,8,400,,,
break_continue,html.Screen,4_110_2,2023-10-30T22:30:59.273Z,,0,,,NaN,,,,,,false,,,,566463.7000000477,566463.5999999046,,566463.5999999046,,566470.288,8,400,,,
sequence,flow.Sequence,4_110,2023-10-30T22:30:59.273Z,,0,,,3043.1899999046,completion,,,,,false,,,,566463.9000000954,566463.5999999046,563403.744,563415.7000000477,563420.41,566470.288,8,400,,,
trial,html.Screen,4_111_0,2023-10-30T22:31:02.477Z,,0,3,,3197.112000095425,response,ISIC_0030623.JPG,9,ISIC_8384985.JPG,ISIC_8384985.JPG,false,0,keypress(z),500,569667.9000000954,569667.4000000954,566453.622,566464.0999999046,566470.288,569670.785,8,400,12,,ISIC_0030623.JPG
break,html.Screen,4_111_1,2023-10-30T22:31:02.478Z,,0,,,NaN,,,,,,false,,,,569669,569668.7999999523,,569668.2999999523,,569670.785,8,400,,,
break_continue,html.Screen,4_111_2,2023-10-30T22:31:02.479Z,,0,,,NaN,,,,,,false,,,,569669.2999999523,569669.2000000477,,569669.0999999046,,569670.785,8,400,,,
sequence,flow.Sequence,4_111,2023-10-30T22:31:02.479Z,,0,,,3198.9120000477415,completion,,,,,false,,,,569669.5,569669.2000000477,566453.622,566464.0999999046,566470.288,569670.785,8,400,,,
trial,html.Screen,4_112_0,2023-10-30T22:31:05.507Z,,0,3,,3025.915000047651,response,ISIC_0027063.JPG,8,ISIC_4374944.JPG,ISIC_4374944.JPG,false,0,keypress(z),500,572697.2000000477,572696.7000000477,569654.119,569669.5999999046,569670.785,572703.997,8,400,13,,ISIC_0027063.JPG
break,html.Screen,4_112_1,2023-10-30T22:31:05.508Z,,0,,,NaN,,,,,,false,,,,572698.2000000477,572697.9000000954,,572697.5,,572703.997,8,400,,,
break_continue,html.Screen,4_112_2,2023-10-30T22:31:05.508Z,,0,,,NaN,,,,,,false,,,,572698.5999999046,572698.4000000954,,572698.2999999523,,572703.997,8,400,,,
sequence,flow.Sequence,4_112,2023-10-30T22:31:05.508Z,,0,,,3027.615000095335,completion,,,,,false,,,,572698.7999999523,572698.4000000954,569654.119,569669.5,569670.785,572703.997,8,400,,,
trial,html.Screen,4_113_0,2023-10-30T22:31:08.445Z,,0,3,,2931.20300004771,response,ISIC_7755096.JPG,7,ISIC_6037869.JPG,ISIC_7755096.JPG,false,1,keypress(m),500,575635.7000000477,575635.2000000477,572687.331,572698.9000000954,572703.997,575637.213,8,400,14,,ISIC_6037869.JPG
break,html.Screen,4_113_1,2023-10-30T22:31:08.446Z,,0,,,NaN,,,,,,false,,,,575636.7000000477,575636.5999999046,,575636,,575637.213,8,400,,,
break_continue,html.Screen,4_113_2,2023-10-30T22:31:08.447Z,,0,,,NaN,,,,,,false,,,,575637.2000000477,575637,,575636.9000000954,,575637.213,8,400,,,
sequence,flow.Sequence,4_113,2023-10-30T22:31:08.447Z,,0,,,2933.003000000026,completion,,,,,false,,,,575637.2999999523,575637,572687.331,572698.9000000954,572703.997,575637.213,8,400,,,
trial,html.Screen,4_114_0,2023-10-30T22:31:11.764Z,,0,3,,3317.3869999046437,response,ISIC_2234076.JPG,7,ISIC_6093728.JPG,ISIC_2234076.JPG,false,1,keypress(m),500,578954.7999999523,578954.5999999046,575620.547,575637.4000000954,575637.213,578970.413,8,400,15,,ISIC_6093728.JPG
break,html.Screen,4_114_1,2023-10-30T22:31:11.765Z,,0,,,NaN,,,,,,false,,,,578955.2999999523,578955.0999999046,,578954.9000000954,,578970.413,8,400,,,
break_continue,html.Screen,4_114_2,2023-10-30T22:31:11.765Z,,0,,,NaN,,,,,,false,,,,578955.5,578955.4000000954,,578955.4000000954,,578970.413,8,400,,,
sequence,flow.Sequence,4_114,2023-10-30T22:31:11.765Z,,0,,,3318.1870000953786,completion,,,,,false,,,,578955.5999999046,578955.4000000954,575620.547,575637.4000000954,575637.213,578970.413,8,400,,,
trial,html.Screen,4_115_0,2023-10-30T22:31:15.645Z,,0,3,,3864.5870000000577,response,ISIC_5546488.JPG,8,ISIC_0012512.JPG,ISIC_0012512.JPG,false,0,keypress(z),500,582835.4000000954,582835,578953.747,578955.7000000477,578970.413,582837.453,8,400,16,,ISIC_5546488.JPG
break,html.Screen,4_115_1,2023-10-30T22:31:15.646Z,,0,,,NaN,,,,,,false,,,,582836.5,582836.2000000477,,582835.7999999523,,582837.453,8,400,,,
break_continue,html.Screen,4_115_2,2023-10-30T22:31:15.646Z,,0,,,NaN,,,,,,false,,,,582836.7999999523,582836.7000000477,,582836.5999999046,,582837.453,8,400,,,
sequence,flow.Sequence,4_115,2023-10-30T22:31:15.646Z,,0,,,3866.2870000477415,completion,,,,,false,,,,582837,582836.7000000477,578953.747,578955.7000000477,578970.413,582837.453,8,400,,,
trial,html.Screen,4_116_0,2023-10-30T22:31:18.657Z,,0,3,,3009.346999952337,response,ISIC_4459125.JPG,9,ISIC_3431915.JPG,ISIC_4459125.JPG,false,1,keypress(m),500,585847.2999999523,585846.7999999523,582820.787,582837.0999999046,582837.453,585853.999,8,400,17,,ISIC_3431915.JPG
break,html.Screen,4_116_1,2023-10-30T22:31:18.658Z,,0,,,NaN,,,,,,false,,,,585848.2999999523,585848.0999999046,,585847.5999999046,,585853.999,8,400,,,
break_continue,html.Screen,4_116_2,2023-10-30T22:31:18.658Z,,0,,,NaN,,,,,,false,,,,585848.7000000477,585848.5,,585848.5,,585853.999,8,400,,,
sequence,flow.Sequence,4_116,2023-10-30T22:31:18.658Z,,0,,,3011.0470000000205,completion,,,,,false,,,,585848.7999999523,585848.5,582820.787,582837.0999999046,582837.453,585853.999,8,400,,,
trial,html.Screen,4_117_0,2023-10-30T22:31:21.709Z,,0,3,,3044.901000095415,response,ISIC_3218227.JPG,5,ISIC_5191344.JPG,ISIC_5191344.JPG,false,0,keypress(z),500,588899.4000000954,588898.9000000954,585837.333,585848.9000000954,585853.999,588920.543,8,400,18,,ISIC_3218227.JPG
break,html.Screen,4_117_1,2023-10-30T22:31:21.710Z,,0,,,NaN,,,,,,false,,,,588900.4000000954,588900.2000000477,,588899.7000000477,,588920.543,8,400,,,
break_continue,html.Screen,4_117_2,2023-10-30T22:31:21.710Z,,0,,,NaN,,,,,,false,,,,588900.7999999523,588900.7000000477,,588900.5999999046,,588920.543,8,400,,,
sequence,flow.Sequence,4_117,2023-10-30T22:31:21.710Z,,0,,,3046.701000047731,completion,,,,,false,,,,588901.0999999046,588900.7000000477,585837.333,585848.7999999523,585853.999,588920.543,8,400,,,
trial,html.Screen,4_118_0,2023-10-30T22:31:24.724Z,,0,3,,2993.457000000053,response,ISIC_0061870.JPG,8,ISIC_4673648.JPG,ISIC_0061870.JPG,false,1,keypress(m),500,591914.4000000954,591914,588903.877,588901.2000000477,588920.543,591921.011,8,400,19,,ISIC_4673648.JPG
break,html.Screen,4_118_1,2023-10-30T22:31:24.725Z,,0,,,NaN,,,,,,false,,,,591915.4000000954,591915.2000000477,,591914.7000000477,,591921.011,8,400,,,
break_continue,html.Screen,4_118_2,2023-10-30T22:31:24.725Z,,0,,,NaN,,,,,,false,,,,591915.7999999523,591915.5999999046,,591915.5,,591921.011,8,400,,,
sequence,flow.Sequence,4_118,2023-10-30T22:31:24.725Z,,0,,,2995.0569999046857,completion,,,,,false,,,,591916,591915.5999999046,588903.877,588901.0999999046,588920.543,591921.011,8,400,,,
trial,html.Screen,4_119_0,2023-10-30T22:31:27.686Z,,0,3,,2955.189000047627,response,ISIC_0394140.JPG,7,ISIC_9571842.JPG,ISIC_9571842.JPG,false,0,keypress(z),500,594876.7000000477,594876.2000000477,591904.345,591916.0999999046,591921.011,594887.559,8,400,20,,ISIC_0394140.JPG
break,html.Screen,4_119_1,2023-10-30T22:31:27.687Z,,0,,,NaN,,,,,,false,,,,594877.7999999523,594877.5999999046,,594877.0999999046,,594887.559,8,400,,,
break_continue,html.Screen,4_119_2,2023-10-30T22:31:27.687Z,,0,,,NaN,,,,,,false,,,,594878.2000000477,594878.0999999046,,594878,,594887.559,8,400,,,
sequence,flow.Sequence,4_119,2023-10-30T22:31:27.688Z,,0,,,2957.0889999045758,completion,,,,,false,,,,594878.2000000477,594878.0999999046,591904.345,591916,591921.011,594887.559,8,400,,,
trial,html.Screen,4_120_0,2023-10-30T22:31:30.822Z,,0,3,,3124.9409999999916,response,ISIC_2861793.JPG,8,ISIC_0065740.JPG,ISIC_0065740.JPG,false,0,keypress(z),500,598013,598012.5,594870.893,594878.4000000954,594887.559,598020.767,8,400,21,,ISIC_2861793.JPG
break,html.Screen,4_120_1,2023-10-30T22:31:30.823Z,,0,,,NaN,,,,,,false,,,,598014,598013.7999999523,,598013.2999999523,,598020.767,8,400,,,
break_continue,html.Screen,4_120_2,2023-10-30T22:31:30.824Z,,0,,,NaN,,,,,,false,,,,598014.4000000954,598014.2999999523,,598014.2000000477,,598020.767,8,400,,,
sequence,flow.Sequence,4_120,2023-10-30T22:31:30.824Z,,0,,,3126.740999952308,completion,,,,,false,,,,598014.5999999046,598014.2999999523,594870.893,594878.4000000954,594887.559,598020.767,8,400,,,
trial,html.Screen,4_121_0,2023-10-30T22:31:33.797Z,,0,3,,2966.7330000000075,response,ISIC_6535558.JPG,8,ISIC_0057009.JPG,ISIC_0057009.JPG,false,0,keypress(z),500,600987.9000000954,600987.5,598004.101,598014.7999999523,598020.767,601004.498,8,400,22,,ISIC_6535558.JPG
break,html.Screen,4_121_1,2023-10-30T22:31:33.798Z,,0,,,NaN,,,,,,false,,,,600988.9000000954,600988.7999999523,,600988.2999999523,,601004.498,8,400,,,
break_continue,html.Screen,4_121_2,2023-10-30T22:31:33.799Z,,0,,,NaN,,,,,,false,,,,600989.2999999523,600989.2000000477,,600989.0999999046,,601004.498,8,400,,,
sequence,flow.Sequence,4_121,2023-10-30T22:31:33.799Z,,0,,,2968.433000047691,completion,,,,,false,,,,600989.5,600989.2000000477,598004.101,598014.7000000477,598020.767,601004.498,8,400,,,
trial,html.Screen,4_122_0,2023-10-30T22:31:37.849Z,,0,3,,4035.301999952295,response,ISIC_0011959.JPG,8,ISIC_0698821.JPG,ISIC_0698821.JPG,false,0,keypress(z),500,605040.2000000477,605039.7999999523,600987.832,600989.7000000477,601004.498,605054.336,8,400,23,,ISIC_0011959.JPG
break,html.Screen,4_122_1,2023-10-30T22:31:37.851Z,,0,,,NaN,,,,,,false,,,,605041.5,605041.2000000477,,605040.5,,605054.336,8,400,,,
break_continue,html.Screen,4_122_2,2023-10-30T22:31:37.851Z,,0,,,NaN,,,,,,false,,,,605041.9000000954,605041.7999999523,,605041.7000000477,,605054.336,8,400,,,
sequence,flow.Sequence,4_122,2023-10-30T22:31:37.851Z,,0,,,4037.301999952295,completion,,,,,false,,,,605042.0999999046,605041.7999999523,600987.832,600989.5999999046,601004.498,605054.336,8,400,,,
trial,html.Screen,4_123_0,2023-10-30T22:31:40.832Z,,0,3,,2968.1639999999898,response,ISIC_6803432.JPG,5,ISIC_0030457.JPG,ISIC_6803432.JPG,false,1,keypress(m),500,608022.9000000954,608022.5,605037.67,605042.2000000477,605054.336,608037.55,8,400,24,,ISIC_0030457.JPG
break,html.Screen,4_123_1,2023-10-30T22:31:40.833Z,,0,,,NaN,,,,,,false,,,,608023.9000000954,608023.7000000477,,608023.2999999523,,608037.55,8,400,,,
break_continue,html.Screen,4_123_2,2023-10-30T22:31:40.834Z,,0,,,NaN,,,,,,false,,,,608024.4000000954,608024.2999999523,,608024.0999999046,,608037.55,8,400,,,
sequence,flow.Sequence,4_123,2023-10-30T22:31:40.834Z,,0,,,2969.963999952306,completion,,,,,false,,,,608024.7000000477,608024.2999999523,605037.67,605042.2000000477,605054.336,608037.55,8,400,,,
trial,html.Screen,4_124_0,2023-10-30T22:31:43.693Z,,0,3,,2845.850000095321,response,ISIC_0031926.JPG,8,ISIC_0033594.JPG,ISIC_0031926.JPG,false,1,keypress(m),500,610883.9000000954,610883.4000000954,608020.884,608024.9000000954,608037.55,610904.709,8,400,25,,ISIC_0033594.JPG
break,html.Screen,4_124_1,2023-10-30T22:31:43.694Z,,0,,,NaN,,,,,,false,,,,610884.9000000954,610884.7000000477,,610884.2000000477,,610904.709,8,400,,,
break_continue,html.Screen,4_124_2,2023-10-30T22:31:43.694Z,,0,,,NaN,,,,,,false,,,,610885.2000000477,610885.0999999046,,610885,,610904.709,8,400,,,
sequence,flow.Sequence,4_124,2023-10-30T22:31:43.695Z,,0,,,2847.549999904586,completion,,,,,false,,,,610885.4000000954,610885.0999999046,608020.884,608024.7999999523,608037.55,610904.709,8,400,,,
trial,html.Screen,4_125_0,2023-10-30T22:31:46.701Z,,0,3,,2986.7909999999683,response,ISIC_2596574.JPG,7,ISIC_1731109.JPG,ISIC_1731109.JPG,false,0,keypress(z),500,613892,613891.5,610888.043,610885.5,610904.709,613904.589,8,400,26,,ISIC_2596574.JPG
break,html.Screen,4_125_1,2023-10-30T22:31:46.702Z,,0,,,NaN,,,,,,false,,,,613893,613892.9000000954,,613892.2999999523,,613904.589,8,400,,,
break_continue,html.Screen,4_125_2,2023-10-30T22:31:46.703Z,,0,,,NaN,,,,,,false,,,,613893.4000000954,613893.2999999523,,613893.2000000477,,613904.589,8,400,,,
