sender,sender_type,sender_id,timestamp,meta,,blockNo,condition,duration,ended_on,img_left,img_reveal,img_right,loser,practice,response,response_action,selection_duration,time_commit,time_end,time_render,time_run,time_show,time_switch,total_blocks,total_trials,trialNo,url,winner
informed_consent,html.Screen,0,2023-09-08T20:42:58.181Z,"{""labjs_version"":""20.2.4"",""labjs_build"":{""flavor"":""production"",""commit"":""f5b4a49f956347addd546a832a3327688c2c0fef""},""location"":""https://run.pavlovia.org/MurrayBennett/melanoma-2afc/?participant=63eda5a4a87d8bd73853fa8e&STUDY_ID=64f8c92207ba404bcb356c90&SESSION_ID=64fb873df38f525a959f2c33&platform=prolific"",""userAgent"":""Mozilla/5.0 (Windows NT 10.0; Win64; x64) AppleWebKit/537.36 (KHTML, like Gecko) Chrome/116.0.0.0 Safari/537.36"",""platform"":""Win32"",""language"":""en-US"",""locale"":""en-US"",""timeZone"":""America/Los_Angeles"",""timezoneOffset"":420,""screen_width"":2560,""screen_height"":1440,""scroll_width"":1598,""scroll_height"":1539,""window_innerWidth"":1597,""window_innerHeight"":1587,""devicePixelRatio"":0.800000011920929}",,,,1811.955999988079,response,,,,,,consent,click button,,5514.5,5513.699999988079,3693.392,3693.599999964237,3701.744,5518.371,,,,"{""participant"":""63eda5a4a87d8bd73853fa8e"",""STUDY_ID"":""64f8c92207ba404bcb356c90"",""SESSION_ID"":""64fb873df38f525a959f2c33"",""platform"":""prolific""}",
Welcome,html.Screen,1,2023-09-08T20:44:29.183Z,,,,irregular,90998.22899996424,response,,,,,,continue,click button,,96517,96516.59999996424,5510.03,5514.599999964237,5518.371,96526.537,,,,,
trial,html.Screen,2_0_0,2023-09-08T20:44:33.427Z,,0,0,,4234.3629999761615,response,ISIC_0061792.JPG,,ISIC_4679428.JPG,ISIC_4679428.JPG,true,0,keypress(z),500,100761.09999996424,100760.89999997616,96518.359,96517.09999996424,96526.537,100768.205,1,6,1,,ISIC_0061792.JPG
sequence,flow.Sequence,2_0,2023-09-08T20:44:33.428Z,,0,,,4234.3629999761615,completion,,,,,true,,,,100761.19999998808,100760.89999997616,96518.359,96517.09999996424,96526.537,100768.205,1,6,,,
trial,html.Screen,2_1_0,2023-09-08T20:44:40.278Z,,0,0,,6843.095000011919,response,ISIC_0776486.JPG,,ISIC_5199497.JPG,ISIC_5199497.JPG,true,0,keypress(z),500,107611.39999997616,107611.30000001192,100760.01,100761.30000001192,100768.205,107618.202,1,6,2,,ISIC_0776486.JPG
sequence,flow.Sequence,2_1,2023-09-08T20:44:40.278Z,,0,,,6843.095000011919,completion,,,,,true,,,,107611.5,107611.30000001192,100760.01,100761.30000001192,100768.205,107618.202,1,6,,,
trial,html.Screen,2_2_0,2023-09-08T20:44:44.299Z,,0,0,,4014.297999999995,response,ISIC_8575776.JPG,,ISIC_2556187.JPG,ISIC_8575776.JPG,true,1,keypress(m),500,111632.69999998808,111632.5,107610.039,107611.59999996424,107618.202,111634.996,1,6,3,,ISIC_2556187.JPG
sequence,flow.Sequence,2_2,2023-09-08T20:44:44.299Z,,0,,,4014.297999999995,completion,,,,,true,,,,111632.80000001192,111632.5,107610.039,107611.59999996424,107618.202,111634.996,1,6,,,
trial,html.Screen,2_3_0,2023-09-08T20:44:48.668Z,,0,0,,4366.603999964238,response,ISIC_9238366.JPG,,ISIC_8141769.JPG,ISIC_9238366.JPG,true,1,keypress(m),500,116001.80000001192,116001.59999996424,111626.649,111632.80000001192,111634.996,116009.841,1,6,4,,ISIC_8141769.JPG
sequence,flow.Sequence,2_3,2023-09-08T20:44:48.668Z,,0,,,4366.603999964238,completion,,,,,true,,,,116002,116001.59999996424,111626.649,111632.80000001192,111634.996,116009.841,1,6,,,
trial,html.Screen,2_4_0,2023-09-08T20:44:51.685Z,,0,0,,3008.558999976158,response,ISIC_8949026.JPG,,ISIC_9959593.JPG,ISIC_8949026.JPG,true,1,keypress(m),500,119018.5,119018.39999997616,116001.645,116002.09999996424,116009.841,119026.499,1,6,5,,ISIC_9959593.JPG
sequence,flow.Sequence,2_4,2023-09-08T20:44:51.685Z,,0,,,3008.558999976158,completion,,,,,true,,,,119018.59999996424,119018.39999997616,116001.645,116002.09999996424,116009.841,119026.499,1,6,,,
trial,html.Screen,2_5_0,2023-09-08T20:44:54.822Z,,0,0,,3129.400999976162,response,ISIC_0460240.JPG,,ISIC_0010479.JPG,ISIC_0460240.JPG,true,1,keypress(m),500,122156.09999996424,122155.89999997616,119018.142,119018.69999998808,119026.499,122159.829,1,6,6,,ISIC_0010479.JPG
sequence,flow.Sequence,2_5,2023-09-08T20:44:54.823Z,,0,,,3129.400999976162,completion,,,,,true,,,,122156.19999998808,122155.89999997616,119018.142,119018.69999998808,119026.499,122159.829,1,6,,,
loop,flow.Loop,2,2023-09-08T20:44:54.823Z,,,,,25629.36299997616,completion,,,,,true,,,,122156.30000001192,122155.89999997616,96518.359,96517.09999996424,96526.537,122159.829,1,6,,,
exp_instructions,html.Screen,3,2023-09-08T20:45:12.189Z,,,,,17362.87099998808,response,,,,,,continue,keypress(Space),,139523,139522.69999998808,122151.642,122156.39999997616,122159.829,139526.457,,,,,
trial,html.Screen,4_0_0,2023-09-08T20:45:15.183Z,,0,1,,2989.843000011926,response,ISIC_0066203.JPG,4,ISIC_5063476.JPG,ISIC_0066203.JPG,false,1,keypress(m),500,142516.39999997616,142516.30000001192,139518.115,139523.09999996424,139526.457,142518.119,8,400,1,,ISIC_5063476.JPG
break,html.Screen,4_0_1,2023-09-08T20:45:15.183Z,,0,,,NaN,,,,,,false,,,,142516.89999997616,142516.80000001192,,142516.5,,142518.119,8,400,,,
break_continue,html.Screen,4_0_2,2023-09-08T20:45:15.183Z,,0,,,NaN,,,,,,false,,,,142517,142516.89999997616,,142516.89999997616,,142518.119,8,400,,,
sequence,flow.Sequence,4_0,2023-09-08T20:45:15.183Z,,0,,,2990.4429999761633,completion,,,,,false,,,,142517,142516.89999997616,139518.115,139523.09999996424,139526.457,142518.119,8,400,,,
trial,html.Screen,4_1_0,2023-09-08T20:45:19.313Z,,0,1,,4128.780999976152,response,ISIC_8255784.JPG,4,ISIC_0010784.JPG,ISIC_0010784.JPG,false,0,keypress(z),500,146647,146646.89999997616,142509.778,142517.09999996424,142518.119,146651.45,8,400,2,,ISIC_8255784.JPG
break,html.Screen,4_1_1,2023-09-08T20:45:19.314Z,,0,,,NaN,,,,,,false,,,,146647.30000001192,146647.30000001192,,146647,,146651.45,8,400,,,
break_continue,html.Screen,4_1_2,2023-09-08T20:45:19.314Z,,0,,,NaN,,,,,,false,,,,146647.39999997616,146647.39999997616,,146647.30000001192,,146651.45,8,400,,,
sequence,flow.Sequence,4_1,2023-09-08T20:45:19.314Z,,0,,,4129.280999976152,completion,,,,,false,,,,146647.39999997616,146647.39999997616,142509.778,142517.09999996424,142518.119,146651.45,8,400,,,
trial,html.Screen,4_2_0,2023-09-08T20:45:23.875Z,,0,1,,4557.049999999988,response,ISIC_0000801.JPG,5,ISIC_0031953.JPG,ISIC_0000801.JPG,false,1,keypress(m),500,151208.59999996424,151208.5,146643.109,146647.5,146651.45,151209.77,8,400,3,,ISIC_0031953.JPG
break,html.Screen,4_2_1,2023-09-08T20:45:23.875Z,,0,,,NaN,,,,,,false,,,,151208.89999997616,151208.89999997616,,151208.69999998808,,151209.77,8,400,,,
break_continue,html.Screen,4_2_2,2023-09-08T20:45:23.875Z,,0,,,NaN,,,,,,false,,,,151209,151209,,151209,,151209.77,8,400,,,
sequence,flow.Sequence,4_2,2023-09-08T20:45:23.875Z,,0,,,4557.549999999988,completion,,,,,false,,,,151209,151209,146643.109,146647.39999997616,146651.45,151209.77,8,400,,,
trial,html.Screen,4_3_0,2023-09-08T20:45:27.957Z,,0,1,,4081.1299999761686,response,ISIC_1115013.JPG,4,ISIC_0058863.JPG,ISIC_0058863.JPG,false,0,keypress(z),500,155291,155290.89999997616,151201.434,151209.09999996424,151209.77,155293.098,8,400,4,,ISIC_1115013.JPG
break,html.Screen,4_3_1,2023-09-08T20:45:27.958Z,,0,,,NaN,,,,,,false,,,,155291.30000001192,155291.19999998808,,155291,,155293.098,8,400,,,
break_continue,html.Screen,4_3_2,2023-09-08T20:45:27.958Z,,0,,,NaN,,,,,,false,,,,155291.30000001192,155291.30000001192,,155291.30000001192,,155293.098,8,400,,,
sequence,flow.Sequence,4_3,2023-09-08T20:45:27.958Z,,0,,,4081.5300000119314,completion,,,,,false,,,,155291.5,155291.30000001192,151201.434,151209.09999996424,151209.77,155293.098,8,400,,,
trial,html.Screen,4_4_0,2023-09-08T20:45:31.259Z,,0,1,,3299.402000000002,response,ISIC_2234076.JPG,5,ISIC_0024826.JPG,ISIC_2234076.JPG,false,1,keypress(m),500,158592.5,158592.5,155284.763,155291.5,155293.098,158593.096,8,400,5,,ISIC_0024826.JPG
break,html.Screen,4_4_1,2023-09-08T20:45:31.259Z,,0,,,NaN,,,,,,false,,,,158592.89999997616,158592.69999998808,,158592.69999998808,,158593.096,8,400,,,
break_continue,html.Screen,4_4_2,2023-09-08T20:45:31.259Z,,0,,,NaN,,,,,,false,,,,158593,158592.89999997616,,158592.89999997616,,158593.096,8,400,,,
sequence,flow.Sequence,4_4,2023-09-08T20:45:31.260Z,,0,,,3299.80199997616,completion,,,,,false,,,,158593.09999996424,158592.89999997616,155284.763,155291.5,155293.098,158593.096,8,400,,,
trial,html.Screen,4_5_0,2023-09-08T20:45:36.684Z,,0,1,,5424.803999976168,response,ISIC_0068217.JPG,5,ISIC_0067789.JPG,ISIC_0068217.JPG,false,1,keypress(m),500,164018,164017.89999997616,158584.75,158593.09999996424,158593.096,164026.42,8,400,6,,ISIC_0067789.JPG
break,html.Screen,4_5_1,2023-09-08T20:45:36.685Z,,0,,,NaN,,,,,,false,,,,164018.30000001192,164018.30000001192,,164018,,164026.42,8,400,,,
break_continue,html.Screen,4_5_2,2023-09-08T20:45:36.685Z,,0,,,NaN,,,,,,false,,,,164018.5,164018.39999997616,,164018.30000001192,,164026.42,8,400,,,
sequence,flow.Sequence,4_5,2023-09-08T20:45:36.685Z,,0,,,5425.303999976168,completion,,,,,false,,,,164018.5,164018.39999997616,158584.75,158593.09999996424,158593.096,164026.42,8,400,,,
trial,html.Screen,4_6_0,2023-09-08T20:45:41.234Z,,0,1,,4541.380000011908,response,ISIC_0072893.JPG,5,ISIC_1315123.JPG,ISIC_1315123.JPG,false,0,keypress(z),500,168567.80000001192,168567.80000001192,164018.08,164018.59999996424,164026.42,168576.417,8,400,7,,ISIC_0072893.JPG
break,html.Screen,4_6_1,2023-09-08T20:45:41.235Z,,0,,,NaN,,,,,,false,,,,168568.19999998808,168568.09999996424,,168567.89999997616,,168576.417,8,400,,,
break_continue,html.Screen,4_6_2,2023-09-08T20:45:41.235Z,,0,,,NaN,,,,,,false,,,,168568.30000001192,168568.30000001192,,168568.19999998808,,168576.417,8,400,,,
sequence,flow.Sequence,4_6,2023-09-08T20:45:41.235Z,,0,,,4541.880000011908,completion,,,,,false,,,,168568.30000001192,168568.30000001192,164018.08,164018.5,164026.42,168576.417,8,400,,,
trial,html.Screen,4_7_0,2023-09-08T20:45:44.772Z,,0,1,,3528.6829999642505,response,ISIC_0030017.JPG,5,ISIC_0015390.JPG,ISIC_0030017.JPG,false,1,keypress(m),500,172105.19999998808,172105.09999996424,168568.08,168568.39999997616,168576.417,172109.735,8,400,8,,ISIC_0015390.JPG
break,html.Screen,4_7_1,2023-09-08T20:45:44.772Z,,0,,,NaN,,,,,,false,,,,172105.39999997616,172105.39999997616,,172105.30000001192,,172109.735,8,400,,,
break_continue,html.Screen,4_7_2,2023-09-08T20:45:44.772Z,,0,,,NaN,,,,,,false,,,,172105.5,172105.5,,172105.5,,172109.735,8,400,,,
sequence,flow.Sequence,4_7,2023-09-08T20:45:44.772Z,,0,,,3529.0830000000133,completion,,,,,false,,,,172105.59999996424,172105.5,168568.08,168568.39999997616,168576.417,172109.735,8,400,,,
trial,html.Screen,4_8_0,2023-09-08T20:45:47.829Z,,0,1,,3053.164999976172,response,ISIC_0046526.JPG,5,ISIC_8650269.JPG,ISIC_8650269.JPG,false,0,keypress(z),500,175163,175162.89999997616,172101.562,172105.59999996424,172109.735,175168.069,8,400,9,,ISIC_0046526.JPG
break,html.Screen,4_8_1,2023-09-08T20:45:47.830Z,,0,,,NaN,,,,,,false,,,,175163.30000001192,175163.30000001192,,175163.09999996424,,175168.069,8,400,,,
break_continue,html.Screen,4_8_2,2023-09-08T20:45:47.830Z,,0,,,NaN,,,,,,false,,,,175163.39999997616,175163.30000001192,,175163.30000001192,,175168.069,8,400,,,
sequence,flow.Sequence,4_8,2023-09-08T20:45:47.830Z,,0,,,3053.565000011935,completion,,,,,false,,,,175163.39999997616,175163.30000001192,172101.562,172105.59999996424,172109.735,175168.069,8,400,,,
trial,html.Screen,4_9_0,2023-09-08T20:45:51.398Z,,0,1,,3563.8309999761696,response,ISIC_0011858.JPG,4,ISIC_4293419.JPG,ISIC_4293419.JPG,false,0,keypress(z),500,178732,178731.89999997616,175159.717,175163.5,175168.069,178734.721,8,400,10,,ISIC_0011858.JPG
break,html.Screen,4_9_1,2023-09-08T20:45:51.399Z,,0,,,NaN,,,,,,false,,,,178732.30000001192,178732.19999998808,,178732.09999996424,,178734.721,8,400,,,
break_continue,html.Screen,4_9_2,2023-09-08T20:45:51.399Z,,0,,,NaN,,,,,,false,,,,178732.39999997616,178732.39999997616,,178732.30000001192,,178734.721,8,400,,,
sequence,flow.Sequence,4_9,2023-09-08T20:45:51.399Z,,0,,,3564.3309999761696,completion,,,,,false,,,,178732.5,178732.39999997616,175159.717,175163.5,175168.069,178734.721,8,400,,,
trial,html.Screen,4_10_0,2023-09-08T20:45:55.342Z,,0,1,,3940.4789999880886,response,ISIC_0024918.JPG,5,ISIC_8344345.JPG,ISIC_8344345.JPG,false,0,keypress(z),500,182675.39999997616,182675.19999998808,178726.539,178732.5,178734.721,182676.535,8,400,11,,ISIC_0024918.JPG
break,html.Screen,4_10_1,2023-09-08T20:45:55.342Z,,0,,,NaN,,,,,,false,,,,182675.59999996424,182675.5,,182675.39999997616,,182676.535,8,400,,,
break_continue,html.Screen,4_10_2,2023-09-08T20:45:55.342Z,,0,,,NaN,,,,,,false,,,,182675.80000001192,182675.69999998808,,182675.69999998808,,182676.535,8,400,,,
sequence,flow.Sequence,4_10,2023-09-08T20:45:55.342Z,,0,,,3940.9789999880886,completion,,,,,false,,,,182675.80000001192,182675.69999998808,178726.539,178732.5,178734.721,182676.535,8,400,,,
trial,html.Screen,4_11_0,2023-09-08T20:45:59.360Z,,0,1,,4016.6649999880756,response,ISIC_9244393.JPG,5,ISIC_0011924.JPG,ISIC_9244393.JPG,false,1,keypress(m),500,186693.39999997616,186693.19999998808,182668.19,182675.80000001192,182676.535,186702.948,8,400,12,,ISIC_0011924.JPG
break,html.Screen,4_11_1,2023-09-08T20:45:59.360Z,,0,,,NaN,,,,,,false,,,,186693.59999996424,186693.59999996424,,186693.39999997616,,186702.948,8,400,,,
break_continue,html.Screen,4_11_2,2023-09-08T20:45:59.360Z,,0,,,NaN,,,,,,false,,,,186693.80000001192,186693.80000001192,,186693.80000001192,,186702.948,8,400,,,
sequence,flow.Sequence,4_11,2023-09-08T20:45:59.360Z,,0,,,4017.2650000119174,completion,,,,,false,,,,186693.80000001192,186693.80000001192,182668.19,182675.80000001192,182676.535,186702.948,8,400,,,
trial,html.Screen,4_12_0,2023-09-08T20:46:03.186Z,,0,1,,3816.1519999642333,response,ISIC_0009975.JPG,5,ISIC_1585511.JPG,ISIC_1585511.JPG,false,0,keypress(z),500,190519.19999998808,190519.09999996424,186693.187,186693.89999997616,186702.948,190526.375,8,400,13,,ISIC_0009975.JPG
break,html.Screen,4_12_1,2023-09-08T20:46:03.186Z,,0,,,NaN,,,,,,false,,,,190519.39999997616,190519.39999997616,,190519.30000001192,,190526.375,8,400,,,
break_continue,html.Screen,4_12_2,2023-09-08T20:46:03.186Z,,0,,,NaN,,,,,,false,,,,190519.5,190519.5,,190519.5,,190526.375,8,400,,,
sequence,flow.Sequence,4_12,2023-09-08T20:46:03.186Z,,0,,,3816.551999999996,completion,,,,,false,,,,190519.59999996424,190519.5,186693.187,186693.89999997616,186702.948,190526.375,8,400,,,
trial,html.Screen,4_13_0,2023-09-08T20:46:06.742Z,,0,1,,3548.625,response,ISIC_0068176.JPG,4,ISIC_3329255.JPG,ISIC_0068176.JPG,false,1,keypress(m),500,194075.19999998808,194075,190518.189,190519.69999998808,190526.375,194076.524,8,400,14,,ISIC_3329255.JPG
break,html.Screen,4_13_1,2023-09-08T20:46:06.742Z,,0,,,NaN,,,,,,false,,,,194075.5,194075.39999997616,,194075.30000001192,,194076.524,8,400,,,
break_continue,html.Screen,4_13_2,2023-09-08T20:46:06.742Z,,0,,,NaN,,,,,,false,,,,194075.59999996424,194075.5,,194075.5,,194076.524,8,400,,,
sequence,flow.Sequence,4_13,2023-09-08T20:46:06.742Z,,0,,,3549.125,completion,,,,,false,,,,194075.59999996424,194075.5,190518.189,190519.69999998808,190526.375,194076.524,8,400,,,
trial,html.Screen,4_14_0,2023-09-08T20:46:10.284Z,,0,1,,3541.3759999761533,response,ISIC_5736624.JPG,5,ISIC_9187876.JPG,ISIC_9187876.JPG,false,0,keypress(z),500,197617.89999997616,197617.89999997616,194068.162,194075.69999998808,194076.524,197619.35,8,400,15,,ISIC_5736624.JPG
break,html.Screen,4_14_1,2023-09-08T20:46:10.285Z,,0,,,NaN,,,,,,false,,,,197618.30000001192,197618.19999998808,,197618.09999996424,,197619.35,8,400,,,
break_continue,html.Screen,4_14_2,2023-09-08T20:46:10.285Z,,0,,,NaN,,,,,,false,,,,197618.39999997616,197618.30000001192,,197618.30000001192,,197619.35,8,400,,,
sequence,flow.Sequence,4_14,2023-09-08T20:46:10.285Z,,0,,,3541.776000011916,completion,,,,,false,,,,197618.39999997616,197618.30000001192,194068.162,194075.69999998808,194076.524,197619.35,8,400,,,
trial,html.Screen,4_15_0,2023-09-08T20:46:13.565Z,,0,1,,3279.5499999761523,response,ISIC_0032780.JPG,4,ISIC_0002288.JPG,ISIC_0002288.JPG,false,0,keypress(z),500,200899.09999996424,200898.89999997616,197618.18,197618.5,197619.35,200901.507,8,400,16,,ISIC_0032780.JPG
break,html.Screen,4_15_1,2023-09-08T20:46:13.566Z,,0,,,NaN,,,,,,false,,,,200899.30000001192,200899.30000001192,,200899.09999996424,,200901.507,8,400,,,
break_continue,html.Screen,4_15_2,2023-09-08T20:46:13.566Z,,0,,,NaN,,,,,,false,,,,200899.39999997616,200899.39999997616,,200899.30000001192,,200901.507,8,400,,,
sequence,flow.Sequence,4_15,2023-09-08T20:46:13.566Z,,0,,,3280.0499999761523,completion,,,,,false,,,,200899.5,200899.39999997616,197618.18,197618.39999997616,197619.35,200901.507,8,400,,,
trial,html.Screen,4_16_0,2023-09-08T20:46:16.515Z,,0,1,,2946.7930000119086,response,ISIC_0011219.JPG,4,ISIC_0070217.JPG,ISIC_0011219.JPG,false,1,keypress(m),500,203848.39999997616,203848.30000001192,200893.157,200899.5,200901.507,203851.355,8,400,17,,ISIC_0070217.JPG
break,html.Screen,4_16_1,2023-09-08T20:46:16.515Z,,0,,,NaN,,,,,,false,,,,203848.80000001192,203848.69999998808,,203848.5,,203851.355,8,400,,,
break_continue,html.Screen,4_16_2,2023-09-08T20:46:16.515Z,,0,,,NaN,,,,,,false,,,,203848.89999997616,203848.89999997616,,203848.80000001192,,203851.355,8,400,,,
sequence,flow.Sequence,4_16,2023-09-08T20:46:16.515Z,,0,,,2947.392999976146,completion,,,,,false,,,,203848.89999997616,203848.89999997616,200893.157,200899.5,200901.507,203851.355,8,400,,,
trial,html.Screen,4_17_0,2023-09-08T20:46:20.020Z,,0,1,,3502.5449999761477,response,ISIC_6254731.JPG,4,ISIC_2268341.JPG,ISIC_2268341.JPG,false,0,keypress(z),500,207354,207353.89999997616,203843.162,203849,203851.355,207359.673,8,400,18,,ISIC_6254731.JPG
break,html.Screen,4_17_1,2023-09-08T20:46:20.021Z,,0,,,NaN,,,,,,false,,,,207354.30000001192,207354.19999998808,,207354.09999996424,,207359.673,8,400,,,
break_continue,html.Screen,4_17_2,2023-09-08T20:46:20.021Z,,0,,,NaN,,,,,,false,,,,207354.39999997616,207354.30000001192,,207354.30000001192,,207359.673,8,400,,,
sequence,flow.Sequence,4_17,2023-09-08T20:46:20.021Z,,0,,,3502.9450000119105,completion,,,,,false,,,,207354.39999997616,207354.30000001192,203843.162,203849,203851.355,207359.673,8,400,,,
trial,html.Screen,4_18_0,2023-09-08T20:46:22.812Z,,0,1,,2786.2269999761484,response,ISIC_1384527.JPG,5,ISIC_3448630.JPG,ISIC_1384527.JPG,false,1,keypress(m),500,210146.09999996424,210145.89999997616,207351.492,207354.39999997616,207359.673,210151.491,8,400,19,,ISIC_3448630.JPG
break,html.Screen,4_18_1,2023-09-08T20:46:22.813Z,,0,,,NaN,,,,,,false,,,,210146.39999997616,210146.30000001192,,210146.09999996424,,210151.491,8,400,,,
break_continue,html.Screen,4_18_2,2023-09-08T20:46:22.813Z,,0,,,NaN,,,,,,false,,,,210146.5,210146.5,,210146.5,,210151.491,8,400,,,
sequence,flow.Sequence,4_18,2023-09-08T20:46:22.813Z,,0,,,2786.82699999999,completion,,,,,false,,,,210146.5,210146.5,207351.492,207354.39999997616,207359.673,210151.491,8,400,,,
trial,html.Screen,4_19_0,2023-09-08T20:46:26.110Z,,0,1,,3292.008999999991,response,ISIC_0034233.JPG,5,ISIC_9014036.JPG,ISIC_9014036.JPG,false,0,keypress(z),500,213443.59999996424,213443.5,210143.151,210146.59999996424,210151.491,213451.341,8,400,20,,ISIC_0034233.JPG
break,html.Screen,4_19_1,2023-09-08T20:46:26.110Z,,0,,,NaN,,,,,,false,,,,213443.89999997616,213443.89999997616,,213443.69999998808,,213451.341,8,400,,,
break_continue,html.Screen,4_19_2,2023-09-08T20:46:26.110Z,,0,,,NaN,,,,,,false,,,,213444,213444,,213443.89999997616,,213451.341,8,400,,,
sequence,flow.Sequence,4_19,2023-09-08T20:46:26.111Z,,0,,,3292.508999999991,completion,,,,,false,,,,213444.09999996424,213444,210143.151,210146.5,210151.491,213451.341,8,400,,,
trial,html.Screen,4_20_0,2023-09-08T20:46:28.831Z,,0,1,,2713.5589999761723,response,ISIC_3506204.JPG,5,ISIC_0030435.JPG,ISIC_3506204.JPG,false,1,keypress(m),500,216165,216164.89999997616,213443.125,213444.09999996424,213451.341,216168.005,8,400,21,,ISIC_0030435.JPG
break,html.Screen,4_20_1,2023-09-08T20:46:28.832Z,,0,,,NaN,,,,,,false,,,,216165.39999997616,216165.30000001192,,216165.09999996424,,216168.005,8,400,,,
break_continue,html.Screen,4_20_2,2023-09-08T20:46:28.832Z,,0,,,NaN,,,,,,false,,,,216165.39999997616,216165.39999997616,,216165.39999997616,,216168.005,8,400,,,
sequence,flow.Sequence,4_20,2023-09-08T20:46:28.832Z,,0,,,2714.0589999761723,completion,,,,,false,,,,216165.5,216165.39999997616,213443.125,213444.09999996424,213451.341,216168.005,8,400,,,
trial,html.Screen,4_21_0,2023-09-08T20:46:31.697Z,,0,1,,2862.2950000119163,response,ISIC_0010156.JPG,5,ISIC_9699426.JPG,ISIC_0010156.JPG,false,1,keypress(m),500,219030.30000001192,219030.30000001192,216159.797,216165.5,216168.005,219034.657,8,400,22,,ISIC_9699426.JPG
break,html.Screen,4_21_1,2023-09-08T20:46:31.697Z,,0,,,NaN,,,,,,false,,,,219030.69999998808,219030.59999996424,,219030.39999997616,,219034.657,8,400,,,
break_continue,html.Screen,4_21_2,2023-09-08T20:46:31.697Z,,0,,,NaN,,,,,,false,,,,219030.80000001192,219030.69999998808,,219030.69999998808,,219034.657,8,400,,,
sequence,flow.Sequence,4_21,2023-09-08T20:46:31.697Z,,0,,,2862.6949999880744,completion,,,,,false,,,,219030.80000001192,219030.69999998808,216159.797,216165.5,216168.005,219034.657,8,400,,,
trial,html.Screen,4_22_0,2023-09-08T20:46:36.327Z,,0,1,,4625.3429999999935,response,ISIC_7651944.JPG,4,ISIC_0357043.JPG,ISIC_7651944.JPG,false,1,keypress(m),500,223660.09999996424,223660,219026.465,219030.80000001192,219034.657,223667.98,8,400,23,,ISIC_0357043.JPG
break,html.Screen,4_22_1,2023-09-08T20:46:36.327Z,,0,,,NaN,,,,,,false,,,,223660.39999997616,223660.30000001192,,223660.19999998808,,223667.98,8,400,,,
break_continue,html.Screen,4_22_2,2023-09-08T20:46:36.327Z,,0,,,NaN,,,,,,false,,,,223660.5,223660.5,,223660.39999997616,,223667.98,8,400,,,
sequence,flow.Sequence,4_22,2023-09-08T20:46:36.327Z,,0,,,4625.8429999999935,completion,,,,,false,,,,223660.59999996424,223660.5,219026.465,219030.80000001192,219034.657,223667.98,8,400,,,
trial,html.Screen,4_23_0,2023-09-08T20:46:39.401Z,,0,1,,3065.9199999761477,response,ISIC_9947369.JPG,5,ISIC_9395707.JPG,ISIC_9947369.JPG,false,1,keypress(m),500,226734.09999996424,226733.89999997616,223659.788,223660.59999996424,223667.98,226743.811,8,400,24,,ISIC_9395707.JPG
break,html.Screen,4_23_1,2023-09-08T20:46:39.401Z,,0,,,NaN,,,,,,false,,,,226734.30000001192,226734.19999998808,,226734.09999996424,,226743.811,8,400,,,
break_continue,html.Screen,4_23_2,2023-09-08T20:46:39.401Z,,0,,,NaN,,,,,,false,,,,226734.5,226734.39999997616,,226734.39999997616,,226743.811,8,400,,,
sequence,flow.Sequence,4_23,2023-09-08T20:46:39.401Z,,0,,,3066.4199999761477,completion,,,,,false,,,,226734.59999996424,226734.39999997616,223659.788,223660.59999996424,223667.98,226743.811,8,400,,,
trial,html.Screen,4_24_0,2023-09-08T20:46:42.016Z,,0,1,,2605.489000011934,response,ISIC_1868816.JPG,5,ISIC_4320200.JPG,ISIC_4320200.JPG,false,0,keypress(z),500,229349.39999997616,229349.30000001192,226726.453,226734.59999996424,226743.811,229351.457,8,400,25,,ISIC_1868816.JPG
break,html.Screen,4_24_1,2023-09-08T20:46:42.016Z,,0,,,NaN,,,,,,false,,,,229349.80000001192,229349.69999998808,,229349.59999996424,,229351.457,8,400,,,
break_continue,html.Screen,4_24_2,2023-09-08T20:46:42.016Z,,0,,,NaN,,,,,,false,,,,229349.89999997616,229349.89999997616,,229349.80000001192,,229351.457,8,400,,,
sequence,flow.Sequence,4_24,2023-09-08T20:46:42.016Z,,0,,,2606.088999976171,completion,,,,,false,,,,229349.89999997616,229349.89999997616,226726.453,226734.59999996424,226743.811,229351.457,8,400,,,
trial,html.Screen,4_25_0,2023-09-08T20:46:44.866Z,,0,1,,2847.6429999642423,response,ISIC_8222254.JPG,4,ISIC_9397126.JPG,ISIC_8222254.JPG,false,1,keypress(m),500,232199.19999998808,232199.09999996424,229343.106,229349.89999997616,229351.457,232201.45,8,400,26,,ISIC_9397126.JPG
break,html.Screen,4_25_1,2023-09-08T20:46:44.866Z,,0,,,NaN,,,,,,false,,,,232199.5,232199.5,,232199.19999998808,,232201.45,8,400,,,
break_continue,html.Screen,4_25_2,2023-09-08T20:46:44.866Z,,0,,,NaN,,,,,,false,,,,232199.5,232199.5,,232199.5,,232201.45,8,400,,,
sequence,flow.Sequence,4_25,2023-09-08T20:46:44.866Z,,0,,,2848.043000000005,completion,,,,,false,,,,232199.69999998808,232199.5,229343.106,229349.89999997616,229351.457,232201.45,8,400,,,
trial,html.Screen,4_26_0,2023-09-08T20:46:47.587Z,,0,1,,2718.9499999761465,response,ISIC_8048668.JPG,6,ISIC_1452314.JPG,ISIC_8048668.JPG,false,1,keypress(m),500,234920.5,234920.39999997616,232193.101,232199.69999998808,232201.45,234926.3,8,400,27,,ISIC_1452314.JPG
break,html.Screen,4_26_1,2023-09-08T20:46:47.587Z,,0,,,NaN,,,,,,false,,,,234920.80000001192,234920.69999998808,,234920.59999996424,,234926.3,8,400,,,
break_continue,html.Screen,4_26_2,2023-09-08T20:46:47.587Z,,0,,,NaN,,,,,,false,,,,234920.89999997616,234920.89999997616,,234920.80000001192,,234926.3,8,400,,,
sequence,flow.Sequence,4_26,2023-09-08T20:46:47.587Z,,0,,,2719.4499999761465,completion,,,,,false,,,,234921,234920.89999997616,232193.101,232199.69999998808,232201.45,234926.3,8,400,,,
trial,html.Screen,4_27_0,2023-09-08T20:46:50.283Z,,0,1,,2690.59999997617,response,ISIC_0033603.JPG,4,ISIC_0033804.JPG,ISIC_0033603.JPG,false,1,keypress(m),500,237617,237616.89999997616,234918.104,234921,234926.3,237618.122,8,400,28,,ISIC_0033804.JPG
break,html.Screen,4_27_1,2023-09-08T20:46:50.284Z,,0,,,NaN,,,,,,false,,,,237617.30000001192,237617.30000001192,,237617.09999996424,,237618.122,8,400,,,
break_continue,html.Screen,4_27_2,2023-09-08T20:46:50.284Z,,0,,,NaN,,,,,,false,,,,237617.5,237617.5,,237617.39999997616,,237618.122,8,400,,,
sequence,flow.Sequence,4_27,2023-09-08T20:46:50.284Z,,0,,,2691.2000000000116,completion,,,,,false,,,,237617.5,237617.5,234918.104,234921,234926.3,237618.122,8,400,,,
trial,html.Screen,4_28_0,2023-09-08T20:46:52.975Z,,0,1,,2690.678000011918,response,ISIC_0032036.JPG,5,ISIC_0030911.JPG,ISIC_0032036.JPG,false,1,keypress(m),500,240308.89999997616,240308.80000001192,237609.759,237617.59999996424,237618.122,240318.793,8,400,29,,ISIC_0030911.JPG
break,html.Screen,4_28_1,2023-09-08T20:46:52.976Z,,0,,,NaN,,,,,,false,,,,240309.09999996424,240309.09999996424,,240308.89999997616,,240318.793,8,400,,,
break_continue,html.Screen,4_28_2,2023-09-08T20:46:52.976Z,,0,,,NaN,,,,,,false,,,,240309.30000001192,240309.19999998808,,240309.09999996424,,240318.793,8,400,,,
sequence,flow.Sequence,4_28,2023-09-08T20:46:52.976Z,,0,,,2691.077999988076,completion,,,,,false,,,,240309.30000001192,240309.19999998808,237609.759,237617.59999996424,237618.122,240318.793,8,400,,,
trial,html.Screen,4_29_0,2023-09-08T20:46:55.731Z,,0,1,,2745.507000011916,response,ISIC_0032425.JPG,5,ISIC_0914251.JPG,ISIC_0032425.JPG,false,1,keypress(m),500,243064.39999997616,243064.30000001192,240301.415,240309.30000001192,240318.793,243067.96,8,400,30,,ISIC_0914251.JPG
break,html.Screen,4_29_1,2023-09-08T20:46:55.731Z,,0,,,NaN,,,,,,false,,,,243064.69999998808,243064.59999996424,,243064.39999997616,,243067.96,8,400,,,
break_continue,html.Screen,4_29_2,2023-09-08T20:46:55.731Z,,0,,,NaN,,,,,,false,,,,243064.80000001192,243064.80000001192,,243064.69999998808,,243067.96,8,400,,,
sequence,flow.Sequence,4_29,2023-09-08T20:46:55.731Z,,0,,,2746.007000011916,completion,,,,,false,,,,243064.89999997616,243064.80000001192,240301.415,240309.30000001192,240318.793,243067.96,8,400,,,
trial,html.Screen,4_30_0,2023-09-08T20:46:58.508Z,,0,1,,2773.4399999761663,response,ISIC_3503302.JPG,4,ISIC_0010550.JPG,ISIC_0010550.JPG,false,0,keypress(z),500,245841.5,245841.39999997616,243059.763,243065,243067.96,245843.093,8,400,31,,ISIC_3503302.JPG
break,html.Screen,4_30_1,2023-09-08T20:46:58.508Z,,0,,,NaN,,,,,,false,,,,245841.89999997616,245841.80000001192,,245841.59999996424,,245843.093,8,400,,,
break_continue,html.Screen,4_30_2,2023-09-08T20:46:58.508Z,,0,,,NaN,,,,,,false,,,,245841.89999997616,245841.89999997616,,245841.89999997616,,245843.093,8,400,,,
sequence,flow.Sequence,4_30,2023-09-08T20:46:58.508Z,,0,,,2773.9399999761663,completion,,,,,false,,,,245842,245841.89999997616,243059.763,243064.89999997616,243067.96,245843.093,8,400,,,
trial,html.Screen,4_31_0,2023-09-08T20:47:01.214Z,,0,1,,2704.8069999761647,response,ISIC_4640181.JPG,4,ISIC_0031680.JPG,ISIC_4640181.JPG,false,1,keypress(m),500,248548,248547.89999997616,245834.748,245842.09999996424,245843.093,248551.285,8,400,32,,ISIC_0031680.JPG
break,html.Screen,4_31_1,2023-09-08T20:47:01.215Z,,0,,,NaN,,,,,,false,,,,248548.30000001192,248548.19999998808,,248548.09999996424,,248551.285,8,400,,,
break_continue,html.Screen,4_31_2,2023-09-08T20:47:01.215Z,,0,,,NaN,,,,,,false,,,,248548.5,248548.39999997616,,248548.39999997616,,248551.285,8,400,,,
sequence,flow.Sequence,4_31,2023-09-08T20:47:01.215Z,,0,,,2705.3069999761647,completion,,,,,false,,,,248548.5,248548.39999997616,245834.748,245842,245843.093,248551.285,8,400,,,
trial,html.Screen,4_32_0,2023-09-08T20:47:04.416Z,,0,1,,3198.0150000119174,response,ISIC_0013636.JPG,5,ISIC_6714923.JPG,ISIC_6714923.JPG,false,0,keypress(z),500,251749.39999997616,251749.30000001192,248543.084,248548.59999996424,248551.285,251751.419,8,400,33,,ISIC_0013636.JPG
break,html.Screen,4_32_1,2023-09-08T20:47:04.416Z,,0,,,NaN,,,,,,false,,,,251749.59999996424,251749.59999996424,,251749.39999997616,,251751.419,8,400,,,
break_continue,html.Screen,4_32_2,2023-09-08T20:47:04.416Z,,0,,,NaN,,,,,,false,,,,251749.80000001192,251749.80000001192,,251749.69999998808,,251751.419,8,400,,,
sequence,flow.Sequence,4_32,2023-09-08T20:47:04.416Z,,0,,,3198.5150000119174,completion,,,,,false,,,,251749.80000001192,251749.80000001192,248543.084,248548.5,248551.285,251751.419,8,400,,,
trial,html.Screen,4_33_0,2023-09-08T20:47:07.096Z,,0,1,,2678.2809999880847,response,ISIC_8011058.JPG,4,ISIC_0766328.JPG,ISIC_8011058.JPG,false,1,keypress(m),500,254429.80000001192,254429.69999998808,251743.096,251749.89999997616,251751.419,254434.588,8,400,34,,ISIC_0766328.JPG
break,html.Screen,4_33_1,2023-09-08T20:47:07.097Z,,0,,,NaN,,,,,,false,,,,254430.09999996424,254430.09999996424,,254429.80000001192,,254434.588,8,400,,,
break_continue,html.Screen,4_33_2,2023-09-08T20:47:07.097Z,,0,,,NaN,,,,,,false,,,,254430.19999998808,254430.19999998808,,254430.19999998808,,254434.588,8,400,,,
sequence,flow.Sequence,4_33,2023-09-08T20:47:07.097Z,,0,,,2678.7809999880847,completion,,,,,false,,,,254430.19999998808,254430.19999998808,251743.096,251749.80000001192,251751.419,254434.588,8,400,,,
trial,html.Screen,4_34_0,2023-09-08T20:47:09.791Z,,0,1,,2689.712000011932,response,ISIC_0014392.JPG,5,ISIC_0058496.JPG,ISIC_0014392.JPG,false,1,keypress(m),500,257124.30000001192,257124.30000001192,254426.403,254430.30000001192,254434.588,257126.247,8,400,35,,ISIC_0058496.JPG
break,html.Screen,4_34_1,2023-09-08T20:47:09.791Z,,0,,,NaN,,,,,,false,,,,257124.59999996424,257124.59999996424,,257124.5,,257126.247,8,400,,,
break_continue,html.Screen,4_34_2,2023-09-08T20:47:09.791Z,,0,,,NaN,,,,,,false,,,,257124.80000001192,257124.69999998808,,257124.69999998808,,257126.247,8,400,,,
sequence,flow.Sequence,4_34,2023-09-08T20:47:09.791Z,,0,,,2690.1119999880902,completion,,,,,false,,,,257124.80000001192,257124.69999998808,254426.403,254430.30000001192,254434.588,257126.247,8,400,,,
trial,html.Screen,4_35_0,2023-09-08T20:47:12.449Z,,0,1,,2656.252999999997,response,ISIC_4358550.JPG,5,ISIC_2241388.JPG,ISIC_2241388.JPG,false,0,keypress(z),500,259782.59999996424,259782.5,257118.05,257124.89999997616,257126.247,259784.735,8,400,36,,ISIC_4358550.JPG
break,html.Screen,4_35_1,2023-09-08T20:47:12.449Z,,0,,,NaN,,,,,,false,,,,259782.80000001192,259782.80000001192,,259782.59999996424,,259784.735,8,400,,,
break_continue,html.Screen,4_35_2,2023-09-08T20:47:12.449Z,,0,,,NaN,,,,,,false,,,,259782.89999997616,259782.89999997616,,259782.89999997616,,259784.735,8,400,,,
sequence,flow.Sequence,4_35,2023-09-08T20:47:12.449Z,,0,,,2656.652999976155,completion,,,,,false,,,,259783,259782.89999997616,257118.05,257124.80000001192,257126.247,259784.735,8,400,,,
trial,html.Screen,4_36_0,2023-09-08T20:47:15.636Z,,0,1,,3184.664999976172,response,ISIC_0055140.JPG,4,ISIC_9126343.JPG,ISIC_9126343.JPG,false,0,keypress(z),500,262969.5,262969.39999997616,259776.398,259783.09999996424,259784.735,262976.262,8,400,37,,ISIC_0055140.JPG
break,html.Screen,4_36_1,2023-09-08T20:47:15.636Z,,0,,,NaN,,,,,,false,,,,262969.6999999881,262969.6999999881,,262969.5,,262976.262,8,400,,,
break_continue,html.Screen,4_36_2,2023-09-08T20:47:15.636Z,,0,,,NaN,,,,,,false,,,,262969.8000000119,262969.8000000119,,262969.8000000119,,262976.262,8,400,,,
sequence,flow.Sequence,4_36,2023-09-08T20:47:15.636Z,,0,,,3185.065000011935,completion,,,,,false,,,,262969.89999997616,262969.8000000119,259776.398,259783.09999996424,259784.735,262976.262,8,400,,,
trial,html.Screen,4_37_0,2023-09-08T20:47:19.190Z,,0,1,,3547.1379999761702,response,ISIC_0009236.JPG,4,ISIC_9059311.JPG,ISIC_0009236.JPG,false,1,keypress(m),500,266523.59999996424,266523.39999997616,262968.051,262969.89999997616,262976.262,266526.239,8,400,38,,ISIC_9059311.JPG
break,html.Screen,4_37_1,2023-09-08T20:47:19.190Z,,0,,,NaN,,,,,,false,,,,266523.8000000119,266523.6999999881,,266523.59999996424,,266526.239,8,400,,,
break_continue,html.Screen,4_37_2,2023-09-08T20:47:19.190Z,,0,,,NaN,,,,,,false,,,,266524,266523.89999997616,,266523.89999997616,,266526.239,8,400,,,
sequence,flow.Sequence,4_37,2023-09-08T20:47:19.190Z,,0,,,3547.6379999761702,completion,,,,,false,,,,266524,266523.89999997616,262968.051,262969.89999997616,262976.262,266526.239,8,400,,,
trial,html.Screen,4_38_0,2023-09-08T20:47:21.806Z,,0,1,,2613.1609999761567,response,ISIC_9130157.JPG,5,ISIC_4936610.JPG,ISIC_9130157.JPG,false,1,keypress(m),500,269139.5,269139.39999997616,266518.068,266524.09999996424,266526.239,269142.902,8,400,39,,ISIC_4936610.JPG
break,html.Screen,4_38_1,2023-09-08T20:47:21.806Z,,0,,,NaN,,,,,,false,,,,269139.8000000119,269139.6999999881,,269139.59999996424,,269142.902,8,400,,,
break_continue,html.Screen,4_38_2,2023-09-08T20:47:21.806Z,,0,,,NaN,,,,,,false,,,,269139.89999997616,269139.89999997616,,269139.8000000119,,269142.902,8,400,,,
sequence,flow.Sequence,4_38,2023-09-08T20:47:21.806Z,,0,,,2613.6609999761567,completion,,,,,false,,,,269140,269139.89999997616,266518.068,266524,266526.239,269142.902,8,400,,,
trial,html.Screen,4_39_0,2023-09-08T20:47:24.607Z,,0,1,,2797.797999988077,response,ISIC_0030501.JPG,4,ISIC_0011135.JPG,ISIC_0030501.JPG,false,1,keypress(m),500,271940.8000000119,271940.6999999881,269134.715,269140.09999996424,269142.902,271943.051,8,400,40,,ISIC_0011135.JPG
break,html.Screen,4_39_1,2023-09-08T20:47:24.608Z,,0,,,NaN,,,,,,false,,,,271941.1999999881,271941.09999996424,,271941,,271943.051,8,400,,,
break_continue,html.Screen,4_39_2,2023-09-08T20:47:24.608Z,,0,,,NaN,,,,,,false,,,,271941.1999999881,271941.1999999881,,271941.1999999881,,271943.051,8,400,,,
sequence,flow.Sequence,4_39,2023-09-08T20:47:24.608Z,,0,,,2798.297999988077,completion,,,,,false,,,,271941.1999999881,271941.1999999881,269134.715,269140.09999996424,269142.902,271943.051,8,400,,,
trial,html.Screen,4_40_0,2023-09-08T20:47:27.217Z,,0,1,,2607.4490000000224,response,ISIC_0028070.JPG,4,ISIC_0033007.JPG,ISIC_0028070.JPG,false,1,keypress(m),500,274550.59999996424,274550.5,271934.7,271941.3000000119,271943.051,274551.226,8,400,41,,ISIC_0033007.JPG
break,html.Screen,4_40_1,2023-09-08T20:47:27.217Z,,0,,,NaN,,,,,,false,,,,274550.8000000119,274550.8000000119,,274550.6999999881,,274551.226,8,400,,,
break_continue,html.Screen,4_40_2,2023-09-08T20:47:27.217Z,,0,,,NaN,,,,,,false,,,,274551,274550.89999997616,,274550.89999997616,,274551.226,8,400,,,
sequence,flow.Sequence,4_40,2023-09-08T20:47:27.217Z,,0,,,2607.8489999761805,completion,,,,,false,,,,274551,274550.89999997616,271934.7,271941.3000000119,271943.051,274551.226,8,400,,,
trial,html.Screen,4_41_0,2023-09-08T20:47:29.810Z,,0,1,,2592.673999976134,response,ISIC_5527224.JPG,5,ISIC_5721110.JPG,ISIC_5721110.JPG,false,0,keypress(z),500,277144,277143.89999997616,274543.032,274551,274551.226,277151.214,8,400,42,,ISIC_5527224.JPG
break,html.Screen,4_41_1,2023-09-08T20:47:29.811Z,,0,,,NaN,,,,,,false,,,,277144.3000000119,277144.1999999881,,277144.09999996424,,277151.214,8,400,,,
break_continue,html.Screen,4_41_2,2023-09-08T20:47:29.811Z,,0,,,NaN,,,,,,false,,,,277144.39999997616,277144.39999997616,,277144.3000000119,,277151.214,8,400,,,
sequence,flow.Sequence,4_41,2023-09-08T20:47:29.811Z,,0,,,2593.173999976134,completion,,,,,false,,,,277144.39999997616,277144.39999997616,274543.032,274551,274551.226,277151.214,8,400,,,
trial,html.Screen,4_42_0,2023-09-08T20:47:32.484Z,,0,1,,2665.985999988101,response,ISIC_0069669.JPG,5,ISIC_3169133.JPG,ISIC_0069669.JPG,false,1,keypress(m),500,279817.3000000119,279817.1999999881,277143.021,277144.5,277151.214,279818.034,8,400,43,,ISIC_3169133.JPG
break,html.Screen,4_42_1,2023-09-08T20:47:32.484Z,,0,,,NaN,,,,,,false,,,,279817.59999996424,279817.5,,279817.39999997616,,279818.034,8,400,,,
break_continue,html.Screen,4_42_2,2023-09-08T20:47:32.484Z,,0,,,NaN,,,,,,false,,,,279817.6999999881,279817.6999999881,,279817.6999999881,,279818.034,8,400,,,
sequence,flow.Sequence,4_42,2023-09-08T20:47:32.484Z,,0,,,2666.485999988101,completion,,,,,false,,,,279817.8000000119,279817.6999999881,277143.021,277144.5,277151.214,279818.034,8,400,,,
trial,html.Screen,4_43_0,2023-09-08T20:47:35.174Z,,0,1,,2689.165999988094,response,ISIC_0031742.JPG,5,ISIC_0011086.JPG,ISIC_0031742.JPG,false,1,keypress(m),500,282507.39999997616,282507.1999999881,279809.724,279817.8000000119,279818.034,282509.691,8,400,44,,ISIC_0011086.JPG
break,html.Screen,4_43_1,2023-09-08T20:47:35.174Z,,0,,,NaN,,,,,,false,,,,282507.6999999881,282507.59999996424,,282507.5,,282509.691,8,400,,,
break_continue,html.Screen,4_43_2,2023-09-08T20:47:35.174Z,,0,,,NaN,,,,,,false,,,,282507.8000000119,282507.6999999881,,282507.6999999881,,282509.691,8,400,,,
sequence,flow.Sequence,4_43,2023-09-08T20:47:35.174Z,,0,,,2689.665999988094,completion,,,,,false,,,,282507.89999997616,282507.6999999881,279809.724,279817.8000000119,279818.034,282509.691,8,400,,,
trial,html.Screen,4_44_0,2023-09-08T20:47:37.802Z,,0,1,,2625.7089999761665,response,ISIC_4232756.JPG,4,ISIC_0000150.JPG,ISIC_4232756.JPG,false,1,keypress(m),500,285135.5,285135.39999997616,282501.354,282507.89999997616,282509.691,285142.869,8,400,45,,ISIC_0000150.JPG
break,html.Screen,4_44_1,2023-09-08T20:47:37.802Z,,0,,,NaN,,,,,,false,,,,285135.8000000119,285135.6999999881,,285135.59999996424,,285142.869,8,400,,,
break_continue,html.Screen,4_44_2,2023-09-08T20:47:37.802Z,,0,,,NaN,,,,,,false,,,,285135.89999997616,285135.89999997616,,285135.8000000119,,285142.869,8,400,,,
sequence,flow.Sequence,4_44,2023-09-08T20:47:37.802Z,,0,,,2626.2089999761665,completion,,,,,false,,,,285136,285135.89999997616,282501.354,282507.89999997616,282509.691,285142.869,8,400,,,
trial,html.Screen,4_45_0,2023-09-08T20:47:40.363Z,,0,1,,2554.030999976152,response,ISIC_0056309.JPG,5,ISIC_8849004.JPG,ISIC_8849004.JPG,false,0,keypress(z),500,287697,287696.89999997616,285134.527,285136.09999996424,285142.869,287701.187,8,400,46,,ISIC_0056309.JPG
break,html.Screen,4_45_1,2023-09-08T20:47:40.364Z,,0,,,NaN,,,,,,false,,,,287697.3000000119,287697.1999999881,,287697.09999996424,,287701.187,8,400,,,
break_continue,html.Screen,4_45_2,2023-09-08T20:47:40.364Z,,0,,,NaN,,,,,,false,,,,287697.5,287697.39999997616,,287697.3000000119,,287701.187,8,400,,,
sequence,flow.Sequence,4_45,2023-09-08T20:47:40.364Z,,0,,,2554.530999976152,completion,,,,,false,,,,287697.5,287697.39999997616,285134.527,285136.09999996424,285142.869,287701.187,8,400,,,
trial,html.Screen,4_46_0,2023-09-08T20:47:43.059Z,,0,1,,2691.712999976182,response,ISIC_0011699.JPG,5,ISIC_6876281.JPG,ISIC_6876281.JPG,false,0,keypress(z),500,290393,290392.89999997616,287693.02,287697.5,287701.187,290401.198,8,400,47,,ISIC_0011699.JPG
break,html.Screen,4_46_1,2023-09-08T20:47:43.060Z,,0,,,NaN,,,,,,false,,,,290393.3000000119,290393.3000000119,,290393.09999996424,,290401.198,8,400,,,
break_continue,html.Screen,4_46_2,2023-09-08T20:47:43.060Z,,0,,,NaN,,,,,,false,,,,290393.39999997616,290393.39999997616,,290393.39999997616,,290401.198,8,400,,,
sequence,flow.Sequence,4_46,2023-09-08T20:47:43.060Z,,0,,,2692.212999976182,completion,,,,,false,,,,290393.5,290393.39999997616,287693.02,287697.5,287701.187,290401.198,8,400,,,
trial,html.Screen,4_47_0,2023-09-08T20:47:45.748Z,,0,1,,2680.7019999761833,response,ISIC_7364041.JPG,5,ISIC_0032140.JPG,ISIC_7364041.JPG,false,1,keypress(m),500,293082.09999996424,293081.89999997616,290393.009,290393.59999996424,290401.198,293084.599,8,400,48,,ISIC_0032140.JPG
break,html.Screen,4_47_1,2023-09-08T20:47:45.749Z,,0,,,NaN,,,,,,false,,,,293082.3000000119,293082.1999999881,,293082.09999996424,,293084.599,8,400,,,
break_continue,html.Screen,4_47_2,2023-09-08T20:47:45.749Z,,0,,,NaN,,,,,,false,,,,293082.5,293082.39999997616,,293082.39999997616,,293084.599,8,400,,,
sequence,flow.Sequence,4_47,2023-09-08T20:47:45.749Z,,0,,,2681.2019999761833,completion,,,,,false,,,,293082.5,293082.39999997616,290393.009,290393.59999996424,290401.198,293084.599,8,400,,,
trial,html.Screen,4_48_0,2023-09-08T20:47:48.886Z,,0,1,,3134.8009999761707,response,ISIC_0060829.JPG,5,ISIC_0028998.JPG,ISIC_0028998.JPG,false,0,keypress(z),500,296219.5,296219.39999997616,293076.339,293082.5,293084.599,296226.186,8,400,49,,ISIC_0060829.JPG
break,html.Screen,4_48_1,2023-09-08T20:47:48.886Z,,0,,,NaN,,,,,,false,,,,296219.6999999881,296219.6999999881,,296219.59999996424,,296226.186,8,400,,,
break_continue,html.Screen,4_48_2,2023-09-08T20:47:48.886Z,,0,,,NaN,,,,,,false,,,,296219.89999997616,296219.8000000119,,296219.8000000119,,296226.186,8,400,,,
sequence,flow.Sequence,4_48,2023-09-08T20:47:48.886Z,,0,,,3135.2010000119335,completion,,,,,false,,,,296220,296219.8000000119,293076.339,293082.5,293084.599,296226.186,8,400,,,
trial,html.Screen,4_49_0,2023-09-08T20:47:51.991Z,,0,1,,3098.314000000013,response,ISIC_0061085.JPG,4,ISIC_9072034.JPG,ISIC_9072034.JPG,false,0,keypress(z),500,299324.5,299324.5,296217.868,296220,296226.186,299326.329,8,400,50,,ISIC_0061085.JPG
break,html.Screen,4_49_1,2023-09-08T20:48:01.985Z,,0,,,9999.993999999948,timeout,,,,,false,,,,309318,309317.835,299317.984,299324.6999999881,299326.329,309326.323,8,400,,,
break_continue,html.Screen,4_49_2,2023-09-08T20:52:12.433Z,,0,,,250436.07699997618,response,,,,,false,continue,keypress(Space),,559766.5999999642,559762.3999999762,309317.835,309318.09999996424,309326.323,559767.485,8,400,,,
sequence,flow.Sequence,4_49,2023-09-08T20:52:12.433Z,,0,,,263536.2139999762,completion,,,,,false,,,,559766.6999999881,559762.3999999762,296217.868,296220,296226.186,559767.485,8,400,,,
trial,html.Screen,4_50_0,2023-09-08T20:52:16.834Z,,0,2,,4400.414999976172,response,ISIC_1608727.JPG,5,ISIC_9304022.JPG,ISIC_9304022.JPG,false,0,keypress(z),500,564168.0999999642,564167.8999999762,559759.133,559766.6999999881,559767.485,564175.856,8,400,1,,ISIC_1608727.JPG
break,html.Screen,4_50_1,2023-09-08T20:52:16.835Z,,0,,,NaN,,,,,,false,,,,564168.3999999762,564168.3999999762,,564168.1999999881,,564175.856,8,400,,,
break_continue,html.Screen,4_50_2,2023-09-08T20:52:16.835Z,,0,,,NaN,,,,,,false,,,,564168.5999999642,564168.5999999642,,564168.3999999762,,564175.856,8,400,,,
sequence,flow.Sequence,4_50,2023-09-08T20:52:16.835Z,,0,,,4401.114999964251,completion,,,,,false,,,,564168.5999999642,564168.5999999642,559759.133,559766.6999999881,559767.485,564175.856,8,400,,,
trial,html.Screen,4_51_0,2023-09-08T20:52:19.862Z,,0,2,,3019.944000011892,response,ISIC_0055087.JPG,5,ISIC_0068776.JPG,ISIC_0055087.JPG,false,1,keypress(m),500,567195.8999999762,567195.8000000119,564167.497,564168.5999999642,564175.856,567200.683,8,400,2,,ISIC_0068776.JPG
break,html.Screen,4_51_1,2023-09-08T20:52:19.862Z,,0,,,NaN,,,,,,false,,,,567196.1999999881,567196.0999999642,,567196,,567200.683,8,400,,,
break_continue,html.Screen,4_51_2,2023-09-08T20:52:19.863Z,,0,,,NaN,,,,,,false,,,,567196.3000000119,567196.1999999881,,567196.1999999881,,567200.683,8,400,,,
sequence,flow.Sequence,4_51,2023-09-08T20:52:19.863Z,,0,,,3020.34399998805,completion,,,,,false,,,,567196.3000000119,567196.1999999881,564167.497,564168.5999999642,564175.856,567200.683,8,400,,,
trial,html.Screen,4_52_0,2023-09-08T20:52:25.080Z,,0,2,,5213.317000000039,response,ISIC_0029303.JPG,5,ISIC_2797576.JPG,ISIC_2797576.JPG,false,0,keypress(z),500,572414.0999999642,572414,567192.499,567196.3999999762,567200.683,572417.337,8,400,3,,ISIC_0029303.JPG
break,html.Screen,4_52_1,2023-09-08T20:52:25.081Z,,0,,,NaN,,,,,,false,,,,572414.3999999762,572414.3999999762,,572414.3000000119,,572417.337,8,400,,,
break_continue,html.Screen,4_52_2,2023-09-08T20:52:25.081Z,,0,,,NaN,,,,,,false,,,,572414.5,572414.5,,572414.5,,572417.337,8,400,,,
sequence,flow.Sequence,4_52,2023-09-08T20:52:25.081Z,,0,,,5213.817000000039,completion,,,,,false,,,,572414.5999999642,572414.5,567192.499,567196.3999999762,567200.683,572417.337,8,400,,,
trial,html.Screen,4_53_0,2023-09-08T20:52:30.335Z,,0,2,,5251.7629999641795,response,ISIC_5885403.JPG,5,ISIC_0027492.JPG,ISIC_0027492.JPG,false,0,keypress(z),500,577669.1999999881,577669.0999999642,572409.138,572414.5999999642,572417.337,577675.633,8,400,4,,ISIC_5885403.JPG
break,html.Screen,4_53_1,2023-09-08T20:52:30.336Z,,0,,,NaN,,,,,,false,,,,577669.5,577669.3999999762,,577669.3000000119,,577675.633,8,400,,,
break_continue,html.Screen,4_53_2,2023-09-08T20:52:30.336Z,,0,,,NaN,,,,,,false,,,,577669.5999999642,577669.5999999642,,577669.5,,577675.633,8,400,,,
sequence,flow.Sequence,4_53,2023-09-08T20:52:30.336Z,,0,,,5252.2629999641795,completion,,,,,false,,,,577669.5999999642,577669.5999999642,572409.138,572414.5999999642,572417.337,577675.633,8,400,,,
trial,html.Screen,4_54_0,2023-09-08T20:52:41.834Z,,0,2,,11508.483000000007,timeout,ISIC_9227392.JPG,5,ISIC_6548307.JPG,,false,,,500,589167.8999999762,589167.6999999881,577667.437,577669.6999999881,577675.633,589184.116,8,400,5,,
break,html.Screen,4_54_1,2023-09-08T20:52:41.835Z,,0,,,NaN,,,,,,false,,,,589168.0999999642,589168,,589167.8999999762,,589184.116,8,400,,,
break_continue,html.Screen,4_54_2,2023-09-08T20:52:41.835Z,,0,,,NaN,,,,,,false,,,,589168.1999999881,589168.0999999642,,589168.0999999642,,589184.116,8,400,,,
sequence,flow.Sequence,4_54,2023-09-08T20:52:41.835Z,,0,,,11492.466999964206,completion,,,,,false,,,,589168.1999999881,589168.0999999642,577667.437,577669.5999999642,577675.633,589184.116,8,400,,,
trial,html.Screen,4_55_0,2023-09-08T20:52:44.651Z,,0,2,,2800.78399997612,response,ISIC_0031246.JPG,4,ISIC_0010749.JPG,ISIC_0010749.JPG,false,0,keypress(z),500,591984.8999999762,591984.8999999762,589175.743,589168.1999999881,589184.116,592000.603,8,400,6,,ISIC_0031246.JPG
break,html.Screen,4_55_1,2023-09-08T20:52:44.652Z,,0,,,NaN,,,,,,false,,,,591985.3000000119,591985.1999999881,,591985.0999999642,,592000.603,8,400,,,
break_continue,html.Screen,4_55_2,2023-09-08T20:52:44.652Z,,0,,,NaN,,,,,,false,,,,591985.3999999762,591985.3000000119,,591985.3000000119,,592000.603,8,400,,,
sequence,flow.Sequence,4_55,2023-09-08T20:52:44.652Z,,0,,,2801.1840000118827,completion,,,,,false,,,,591985.3999999762,591985.3000000119,589175.743,589168.1999999881,589184.116,592000.603,8,400,,,
trial,html.Screen,4_56_0,2023-09-08T20:52:48.365Z,,0,2,,3697.4969999642344,response,ISIC_2746860.JPG,5,ISIC_0046222.JPG,ISIC_2746860.JPG,false,1,keypress(m),500,595698.3000000119,595698.0999999642,591992.424,591985.3999999762,592000.603,595700.593,8,400,7,,ISIC_0046222.JPG
break,html.Screen,4_56_1,2023-09-08T20:52:48.365Z,,0,,,NaN,,,,,,false,,,,595698.5999999642,595698.5,,595698.3999999762,,595700.593,8,400,,,
break_continue,html.Screen,4_56_2,2023-09-08T20:52:48.365Z,,0,,,NaN,,,,,,false,,,,595698.6999999881,595698.6999999881,,595698.5999999642,,595700.593,8,400,,,
sequence,flow.Sequence,4_56,2023-09-08T20:52:48.365Z,,0,,,3698.0969999880763,completion,,,,,false,,,,595698.6999999881,595698.6999999881,591992.424,591985.3999999762,592000.603,595700.593,8,400,,,
trial,html.Screen,4_57_0,2023-09-08T20:52:53.072Z,,0,2,,4705.006999964244,response,ISIC_1925623.JPG,5,ISIC_0016094.JPG,ISIC_1925623.JPG,false,1,keypress(m),500,600405.8000000119,600405.5999999642,595692.242,595698.6999999881,595700.593,600408.929,8,400,8,,ISIC_0016094.JPG
break,html.Screen,4_57_1,2023-09-08T20:52:53.072Z,,0,,,NaN,,,,,,false,,,,600406,600406,,600405.8000000119,,600408.929,8,400,,,
break_continue,html.Screen,4_57_2,2023-09-08T20:52:53.073Z,,0,,,NaN,,,,,,false,,,,600406.1999999881,600406.0999999642,,600406.0999999642,,600408.929,8,400,,,
sequence,flow.Sequence,4_57,2023-09-08T20:52:53.073Z,,0,,,4705.506999964244,completion,,,,,false,,,,600406.1999999881,600406.0999999642,595692.242,595698.6999999881,595700.593,600408.929,8,400,,,
trial,html.Screen,4_58_0,2023-09-08T20:52:56.594Z,,0,2,,3518.4709999761544,response,ISIC_8562820.JPG,4,ISIC_0034210.JPG,ISIC_8562820.JPG,false,1,keypress(m),500,603927.5,603927.3999999762,600400.739,600406.1999999881,600408.929,603933.918,8,400,9,,ISIC_0034210.JPG
break,html.Screen,4_58_1,2023-09-08T20:52:56.594Z,,0,,,NaN,,,,,,false,,,,603927.8999999762,603927.6999999881,,603927.6999999881,,603933.918,8,400,,,
break_continue,html.Screen,4_58_2,2023-09-08T20:52:56.594Z,,0,,,NaN,,,,,,false,,,,603927.8999999762,603927.8999999762,,603927.8999999762,,603933.918,8,400,,,
sequence,flow.Sequence,4_58,2023-09-08T20:52:56.594Z,,0,,,3518.9709999761544,completion,,,,,false,,,,603927.8999999762,603927.8999999762,600400.739,600406.1999999881,600408.929,603933.918,8,400,,,
trial,html.Screen,4_59_0,2023-09-08T20:53:02.724Z,,0,2,,6123.082000000053,response,ISIC_7185036.JPG,4,ISIC_0011793.JPG,ISIC_7185036.JPG,false,1,keypress(m),500,610057.0999999642,610057,603925.723,603928,603933.918,610058.899,8,400,10,,ISIC_0011793.JPG
break,html.Screen,4_59_1,2023-09-08T20:53:02.724Z,,0,,,NaN,,,,,,false,,,,610057.5,610057.3999999762,,610057.1999999881,,610058.899,8,400,,,
break_continue,html.Screen,4_59_2,2023-09-08T20:53:02.724Z,,0,,,NaN,,,,,,false,,,,610057.5,610057.5,,610057.5,,610058.899,8,400,,,
sequence,flow.Sequence,4_59,2023-09-08T20:53:02.724Z,,0,,,6123.582000000053,completion,,,,,false,,,,610057.5999999642,610057.5,603925.723,603927.8999999762,603933.918,610058.899,8,400,,,
trial,html.Screen,4_60_0,2023-09-08T20:53:07.494Z,,0,2,,4768.200999964261,response,ISIC_5867911.JPG,5,ISIC_0066094.JPG,ISIC_0066094.JPG,false,0,keypress(z),500,614827.0999999642,614827.0999999642,610050.581,610057.6999999881,610058.899,614833.901,8,400,11,,ISIC_5867911.JPG
break,html.Screen,4_60_1,2023-09-08T20:53:07.494Z,,0,,,NaN,,,,,,false,,,,614827.3999999762,614827.3999999762,,614827.1999999881,,614833.901,8,400,,,
break_continue,html.Screen,4_60_2,2023-09-08T20:53:07.494Z,,0,,,NaN,,,,,,false,,,,614827.5,614827.5,,614827.3999999762,,614833.901,8,400,,,
sequence,flow.Sequence,4_60,2023-09-08T20:53:07.494Z,,0,,,4768.601000000024,completion,,,,,false,,,,614827.5,614827.5,610050.581,610057.6999999881,610058.899,614833.901,8,400,,,
trial,html.Screen,4_61_0,2023-09-08T20:53:11.656Z,,0,2,,4155.198999964283,response,ISIC_3961647.JPG,4,ISIC_5203791.JPG,ISIC_5203791.JPG,false,0,keypress(z),500,618989.1999999881,618989.0999999642,614825.699,614827.5999999642,614833.901,618992.216,8,400,12,,ISIC_3961647.JPG
break,html.Screen,4_61_1,2023-09-08T20:53:11.656Z,,0,,,NaN,,,,,,false,,,,618989.5,618989.3999999762,,618989.3000000119,,618992.216,8,400,,,
break_continue,html.Screen,4_61_2,2023-09-08T20:53:11.656Z,,0,,,NaN,,,,,,false,,,,618989.5,618989.5,,618989.5,,618992.216,8,400,,,
sequence,flow.Sequence,4_61,2023-09-08T20:53:11.656Z,,0,,,4155.599000000046,completion,,,,,false,,,,618989.6999999881,618989.5,614825.699,614827.5,614833.901,618992.216,8,400,,,
trial,html.Screen,4_62_0,2023-09-08T20:53:15.881Z,,0,2,,4222.283999999985,response,ISIC_0076742.JPG,5,ISIC_5634573.JPG,ISIC_0076742.JPG,false,1,keypress(m),500,623214.5999999642,623214.5,618983.877,618989.6999999881,618992.216,623217.216,8,400,13,,ISIC_5634573.JPG
break,html.Screen,4_62_1,2023-09-08T20:53:15.881Z,,0,,,NaN,,,,,,false,,,,623214.8000000119,623214.8000000119,,623214.6999999881,,623217.216,8,400,,,
break_continue,html.Screen,4_62_2,2023-09-08T20:53:15.881Z,,0,,,NaN,,,,,,false,,,,623215,623214.8999999762,,623214.8999999762,,623217.216,8,400,,,
sequence,flow.Sequence,4_62,2023-09-08T20:53:15.882Z,,0,,,4222.683999976143,completion,,,,,false,,,,623215,623214.8999999762,618983.877,618989.6999999881,618992.216,623217.216,8,400,,,
trial,html.Screen,4_63_0,2023-09-08T20:53:20.316Z,,0,2,,4431.783999999985,response,ISIC_1595658.JPG,5,ISIC_0066878.JPG,ISIC_1595658.JPG,false,1,keypress(m),500,627649.0999999642,627649,623209.019,623215.0999999642,623217.216,627658.871,8,400,14,,ISIC_0066878.JPG
break,html.Screen,4_63_1,2023-09-08T20:53:20.316Z,,0,,,NaN,,,,,,false,,,,627649.3999999762,627649.3000000119,,627649.1999999881,,627658.871,8,400,,,
break_continue,html.Screen,4_63_2,2023-09-08T20:53:20.316Z,,0,,,NaN,,,,,,false,,,,627649.5,627649.5,,627649.3999999762,,627658.871,8,400,,,
sequence,flow.Sequence,4_63,2023-09-08T20:53:20.316Z,,0,,,4432.283999999985,completion,,,,,false,,,,627649.5,627649.5,623209.019,623215.0999999642,623217.216,627658.871,8,400,,,
trial,html.Screen,4_64_0,2023-09-08T20:53:23.885Z,,0,2,,3559.2289999641944,response,ISIC_1630301.JPG,4,ISIC_0014181.JPG,ISIC_0014181.JPG,false,0,keypress(z),500,631218.0999999642,631218.0999999642,627650.537,627649.5999999642,627658.871,631225.689,8,400,15,,ISIC_1630301.JPG
break,html.Screen,4_64_1,2023-09-08T20:53:23.885Z,,0,,,NaN,,,,,,false,,,,631218.3999999762,631218.3999999762,,631218.1999999881,,631225.689,8,400,,,
break_continue,html.Screen,4_64_2,2023-09-08T20:53:23.885Z,,0,,,NaN,,,,,,false,,,,631218.5,631218.5,,631218.3999999762,,631225.689,8,400,,,
sequence,flow.Sequence,4_64,2023-09-08T20:53:23.885Z,,0,,,3559.628999999957,completion,,,,,false,,,,631218.5,631218.5,627650.537,627649.5,627658.871,631225.689,8,400,,,
trial,html.Screen,4_65_0,2023-09-08T20:53:28.143Z,,0,2,,4250.910999964224,response,ISIC_0025544.JPG,5,ISIC_2860618.JPG,ISIC_0025544.JPG,false,1,keypress(m),500,635476.6999999881,635476.5999999642,631217.349,631218.5999999642,631225.689,635483.859,8,400,16,,ISIC_2860618.JPG
break,html.Screen,4_65_1,2023-09-08T20:53:28.144Z,,0,,,NaN,,,,,,false,,,,635477.0999999642,635477,,635476.8000000119,,635483.859,8,400,,,
break_continue,html.Screen,4_65_2,2023-09-08T20:53:28.144Z,,0,,,NaN,,,,,,false,,,,635477.1999999881,635477.1999999881,,635477.0999999642,,635483.859,8,400,,,
sequence,flow.Sequence,4_65,2023-09-08T20:53:28.144Z,,0,,,4251.510999988066,completion,,,,,false,,,,635477.3000000119,635477.1999999881,631217.349,631218.5999999642,631225.689,635483.859,8,400,,,
trial,html.Screen,4_66_0,2023-09-08T20:53:31.537Z,,0,2,,3386.2409999641823,response,ISIC_0000507.JPG,5,ISIC_0005062.JPG,ISIC_0005062.JPG,false,0,keypress(z),500,638870.1999999881,638870.0999999642,635475.508,635477.3000000119,635483.859,638875.517,8,400,17,,ISIC_0000507.JPG
break,html.Screen,4_66_1,2023-09-08T20:53:31.537Z,,0,,,NaN,,,,,,false,,,,638870.5,638870.3999999762,,638870.3000000119,,638875.517,8,400,,,
break_continue,html.Screen,4_66_2,2023-09-08T20:53:31.537Z,,0,,,NaN,,,,,,false,,,,638870.5999999642,638870.5999999642,,638870.5999999642,,638875.517,8,400,,,
sequence,flow.Sequence,4_66,2023-09-08T20:53:31.537Z,,0,,,3386.7409999641823,completion,,,,,false,,,,638870.6999999881,638870.5999999642,635475.508,635477.3000000119,635483.859,638875.517,8,400,,,
trial,html.Screen,4_67_0,2023-09-08T20:53:35.960Z,,0,2,,4417.6829999880865,response,ISIC_0033589.JPG,5,ISIC_5983500.JPG,ISIC_0033589.JPG,false,1,keypress(m),500,643293.3000000119,643293.1999999881,638867.322,638870.6999999881,638875.517,643300.516,8,400,18,,ISIC_5983500.JPG
break,html.Screen,4_67_1,2023-09-08T20:53:35.960Z,,0,,,NaN,,,,,,false,,,,643293.5999999642,643293.5999999642,,643293.5,,643300.516,8,400,,,
break_continue,html.Screen,4_67_2,2023-09-08T20:53:35.960Z,,0,,,NaN,,,,,,false,,,,643293.6999999881,643293.6999999881,,643293.6999999881,,643300.516,8,400,,,
sequence,flow.Sequence,4_67,2023-09-08T20:53:35.960Z,,0,,,4418.1829999880865,completion,,,,,false,,,,643293.8000000119,643293.6999999881,638867.322,638870.6999999881,638875.517,643300.516,8,400,,,
trial,html.Screen,4_68_0,2023-09-08T20:53:41.609Z,,0,2,,5642.083999964292,response,ISIC_0024739.JPG,4,ISIC_0033807.JPG,ISIC_0024739.JPG,false,1,keypress(m),500,648942.6999999881,648942.5999999642,643292.157,643293.8000000119,643300.516,648950.517,8,400,19,,ISIC_0033807.JPG
break,html.Screen,4_68_1,2023-09-08T20:53:41.609Z,,0,,,NaN,,,,,,false,,,,648943,648942.8999999762,,648942.8000000119,,648950.517,8,400,,,
break_continue,html.Screen,4_68_2,2023-09-08T20:53:41.610Z,,0,,,NaN,,,,,,false,,,,648943.0999999642,648943,,648943,,648950.517,8,400,,,
sequence,flow.Sequence,4_68,2023-09-08T20:53:41.610Z,,0,,,5642.484000000055,completion,,,,,false,,,,648943.0999999642,648943,643292.157,643293.8000000119,643300.516,648950.517,8,400,,,
trial,html.Screen,4_69_0,2023-09-08T20:53:44.554Z,,0,2,,2937.2830000119284,response,ISIC_0009918.JPG,5,ISIC_0029626.JPG,ISIC_0029626.JPG,false,0,keypress(z),500,651888,651887.8000000119,648942.322,648943.0999999642,648950.517,651892.208,8,400,20,,ISIC_0009918.JPG
break,html.Screen,4_69_1,2023-09-08T20:53:44.555Z,,0,,,NaN,,,,,,false,,,,651888.3000000119,651888.1999999881,,651888.0999999642,,651892.208,8,400,,,
break_continue,html.Screen,4_69_2,2023-09-08T20:53:44.555Z,,0,,,NaN,,,,,,false,,,,651888.3999999762,651888.3000000119,,651888.3000000119,,651892.208,8,400,,,
sequence,flow.Sequence,4_69,2023-09-08T20:53:44.555Z,,0,,,2937.7830000119284,completion,,,,,false,,,,651888.5,651888.3000000119,648942.322,648943.0999999642,648950.517,651892.208,8,400,,,
trial,html.Screen,4_70_0,2023-09-08T20:53:47.471Z,,0,2,,2912.0920000119368,response,ISIC_0067418.JPG,5,ISIC_0025735.JPG,ISIC_0025735.JPG,false,0,keypress(z),500,654804.3999999762,654804.3000000119,651883.977,651888.5,651892.208,654808.833,8,400,21,,ISIC_0067418.JPG
break,html.Screen,4_70_1,2023-09-08T20:53:47.471Z,,0,,,NaN,,,,,,false,,,,654804.8000000119,654804.6999999881,,654804.5,,654808.833,8,400,,,
break_continue,html.Screen,4_70_2,2023-09-08T20:53:47.471Z,,0,,,NaN,,,,,,false,,,,654804.8999999762,654804.8000000119,,654804.8000000119,,654808.833,8,400,,,
sequence,flow.Sequence,4_70,2023-09-08T20:53:47.471Z,,0,,,2912.5920000119368,completion,,,,,false,,,,654804.8999999762,654804.8000000119,651883.977,651888.5,651892.208,654808.833,8,400,,,
trial,html.Screen,4_71_0,2023-09-08T20:53:52.259Z,,0,2,,4783.766999964253,response,ISIC_2418276.JPG,4,ISIC_0350472.JPG,ISIC_0350472.JPG,false,0,keypress(z),500,659592.6999999881,659592.5999999642,654800.635,654805,654808.833,659600.484,8,400,22,,ISIC_2418276.JPG
break,html.Screen,4_71_1,2023-09-08T20:53:52.259Z,,0,,,NaN,,,,,,false,,,,659593,659593,,659592.8000000119,,659600.484,8,400,,,
break_continue,html.Screen,4_71_2,2023-09-08T20:53:52.260Z,,0,,,NaN,,,,,,false,,,,659593.0999999642,659593.0999999642,,659593.0999999642,,659600.484,8,400,,,
sequence,flow.Sequence,4_71,2023-09-08T20:53:52.260Z,,0,,,4784.266999964253,completion,,,,,false,,,,659593.0999999642,659593.0999999642,654800.635,654805,654808.833,659600.484,8,400,,,
trial,html.Screen,4_72_0,2023-09-08T20:53:55.845Z,,0,2,,3578.215999988024,response,ISIC_0620587.JPG,4,ISIC_0033174.JPG,ISIC_0620587.JPG,false,1,keypress(m),500,663178.8000000119,663178.6999999881,659592.151,659593.1999999881,659600.484,663183.813,8,400,23,,ISIC_0033174.JPG
break,html.Screen,4_72_1,2023-09-08T20:53:55.845Z,,0,,,NaN,,,,,,false,,,,663179,663179,,663178.8000000119,,663183.813,8,400,,,
break_continue,html.Screen,4_72_2,2023-09-08T20:53:55.846Z,,0,,,NaN,,,,,,false,,,,663179.0999999642,663179.0999999642,,663179,,663183.813,8,400,,,
sequence,flow.Sequence,4_72,2023-09-08T20:53:55.846Z,,0,,,3578.6159999641823,completion,,,,,false,,,,663179.1999999881,663179.0999999642,659592.151,659593.1999999881,659600.484,663183.813,8,400,,,
trial,html.Screen,4_73_0,2023-09-08T20:53:59.238Z,,0,2,,3387.7869999642717,response,ISIC_0067808.JPG,4,ISIC_0009916.JPG,ISIC_0009916.JPG,false,0,keypress(z),500,666571.8000000119,666571.5999999642,663175.617,663179.1999999881,663183.813,666575.477,8,400,24,,ISIC_0067808.JPG
break,html.Screen,4_73_1,2023-09-08T20:53:59.238Z,,0,,,NaN,,,,,,false,,,,666572,666571.8999999762,,666571.8000000119,,666575.477,8,400,,,
break_continue,html.Screen,4_73_2,2023-09-08T20:53:59.239Z,,0,,,NaN,,,,,,false,,,,666572.0999999642,666572.0999999642,,666572,,666575.477,8,400,,,
sequence,flow.Sequence,4_73,2023-09-08T20:53:59.239Z,,0,,,3388.2869999642717,completion,,,,,false,,,,666572.0999999642,666572.0999999642,663175.617,663179.1999999881,663183.813,666575.477,8,400,,,
trial,html.Screen,4_74_0,2023-09-08T20:54:02.696Z,,0,2,,3453.622999964282,response,ISIC_6642608.JPG,5,ISIC_0031877.JPG,ISIC_6642608.JPG,false,1,keypress(m),500,670029.3000000119,670029.0999999642,666567.305,666572.1999999881,666575.477,670033.799,8,400,25,,ISIC_0031877.JPG
break,html.Screen,4_74_1,2023-09-08T20:54:02.696Z,,0,,,NaN,,,,,,false,,,,670029.6999999881,670029.6999999881,,670029.3999999762,,670033.799,8,400,,,
break_continue,html.Screen,4_74_2,2023-09-08T20:54:02.696Z,,0,,,NaN,,,,,,false,,,,670029.8000000119,670029.6999999881,,670029.6999999881,,670033.799,8,400,,,
sequence,flow.Sequence,4_74,2023-09-08T20:54:02.696Z,,0,,,3454.222999988124,completion,,,,,false,,,,670029.8999999762,670029.6999999881,666567.305,666572.1999999881,666575.477,670033.799,8,400,,,
trial,html.Screen,4_75_0,2023-09-08T20:54:05.328Z,,0,2,,2627.300999964238,response,ISIC_0068128.JPG,4,ISIC_6517663.JPG,ISIC_6517663.JPG,false,0,keypress(z),500,672661.1999999881,672661.0999999642,670025.463,670029.8999999762,670033.799,672667.138,8,400,26,,ISIC_0068128.JPG
break,html.Screen,4_75_1,2023-09-08T20:54:05.328Z,,0,,,NaN,,,,,,false,,,,672661.5,672661.3999999762,,672661.3000000119,,672667.138,8,400,,,
break_continue,html.Screen,4_75_2,2023-09-08T20:54:05.328Z,,0,,,NaN,,,,,,false,,,,672661.6999999881,672661.5999999642,,672661.5,,672667.138,8,400,,,
sequence,flow.Sequence,4_75,2023-09-08T20:54:05.328Z,,0,,,2627.800999964238,completion,,,,,false,,,,672661.6999999881,672661.5999999642,670025.463,670029.8999999762,670033.799,672667.138,8,400,,,
trial,html.Screen,4_76_0,2023-09-08T20:54:10.164Z,,0,2,,4830.461999964202,response,ISIC_0068628.JPG,5,ISIC_9943579.JPG,ISIC_9943579.JPG,false,0,keypress(z),500,677497.6999999881,677497.5999999642,672658.781,672661.6999999881,672667.138,677500.462,8,400,27,,ISIC_0068628.JPG
break,html.Screen,4_76_1,2023-09-08T20:54:10.164Z,,0,,,NaN,,,,,,false,,,,677498,677498,,677497.8000000119,,677500.462,8,400,,,
break_continue,html.Screen,4_76_2,2023-09-08T20:54:10.165Z,,0,,,NaN,,,,,,false,,,,677498.0999999642,677498,,677498,,677500.462,8,400,,,
sequence,flow.Sequence,4_76,2023-09-08T20:54:10.165Z,,0,,,4830.861999999965,completion,,,,,false,,,,677498.1999999881,677498,672658.781,672661.6999999881,672667.138,677500.462,8,400,,,
trial,html.Screen,4_77_0,2023-09-08T20:54:13.225Z,,0,2,,3058.1379999641795,response,ISIC_0066001.JPG,4,ISIC_0015206.JPG,ISIC_0066001.JPG,false,1,keypress(m),500,680558.6999999881,680558.5999999642,677492.287,677498.1999999881,677500.462,680567.13,8,400,28,,ISIC_0015206.JPG
break,html.Screen,4_77_1,2023-09-08T20:54:13.225Z,,0,,,NaN,,,,,,false,,,,680559,680558.8999999762,,680558.8999999762,,680567.13,8,400,,,
break_continue,html.Screen,4_77_2,2023-09-08T20:54:13.226Z,,0,,,NaN,,,,,,false,,,,680559.0999999642,680559.0999999642,,680559,,680567.13,8,400,,,
sequence,flow.Sequence,4_77,2023-09-08T20:54:13.226Z,,0,,,3058.6379999641795,completion,,,,,false,,,,680559.1999999881,680559.0999999642,677492.287,677498.1999999881,677500.462,680567.13,8,400,,,
trial,html.Screen,4_78_0,2023-09-08T20:54:17.697Z,,0,2,,4463.469999964233,response,ISIC_9895220.JPG,5,ISIC_4011169.JPG,ISIC_4011169.JPG,false,0,keypress(z),500,685030.6999999881,685030.5999999642,680558.943,680559.3000000119,680567.13,685033.78,8,400,29,,ISIC_9895220.JPG
break,html.Screen,4_78_1,2023-09-08T20:54:17.697Z,,0,,,NaN,,,,,,false,,,,685031,685031,,685030.8000000119,,685033.78,8,400,,,
break_continue,html.Screen,4_78_2,2023-09-08T20:54:17.698Z,,0,,,NaN,,,,,,false,,,,685031.0999999642,685031,,685031,,685033.78,8,400,,,
sequence,flow.Sequence,4_78,2023-09-08T20:54:17.698Z,,0,,,4463.869999999995,completion,,,,,false,,,,685031.0999999642,685031,680558.943,680559.3000000119,680567.13,685033.78,8,400,,,
trial,html.Screen,4_79_0,2023-09-08T20:54:24.056Z,,0,2,,6355.719999999972,response,ISIC_0025589.JPG,4,ISIC_5176419.JPG,ISIC_0025589.JPG,false,1,keypress(m),500,691389.6999999881,691389.5,685025.45,685031.1999999881,685033.78,691392.103,8,400,30,,ISIC_5176419.JPG
break,html.Screen,4_79_1,2023-09-08T20:54:24.056Z,,0,,,NaN,,,,,,false,,,,691389.8999999762,691389.8999999762,,691389.6999999881,,691392.103,8,400,,,
break_continue,html.Screen,4_79_2,2023-09-08T20:54:24.057Z,,0,,,NaN,,,,,,false,,,,691390.0999999642,691390,,691389.8999999762,,691392.103,8,400,,,
sequence,flow.Sequence,4_79,2023-09-08T20:54:24.057Z,,0,,,6356.219999999972,completion,,,,,false,,,,691390.0999999642,691390,685025.45,685031.1999999881,685033.78,691392.103,8,400,,,
trial,html.Screen,4_80_0,2023-09-08T20:54:28.492Z,,0,2,,4433.496999964234,response,ISIC_6777714.JPG,4,ISIC_4460849.JPG,ISIC_4460849.JPG,false,0,keypress(z),500,695825.8000000119,695825.5999999642,691383.76,691390.0999999642,691392.103,695833.9,8,400,31,,ISIC_6777714.JPG
break,html.Screen,4_80_1,2023-09-08T20:54:28.492Z,,0,,,NaN,,,,,,false,,,,695826,695826,,695825.8000000119,,695833.9,8,400,,,
break_continue,html.Screen,4_80_2,2023-09-08T20:54:28.493Z,,0,,,NaN,,,,,,false,,,,695826.1999999881,695826.0999999642,,695826.0999999642,,695833.9,8,400,,,
sequence,flow.Sequence,4_80,2023-09-08T20:54:28.493Z,,0,,,4433.996999964234,completion,,,,,false,,,,695826.1999999881,695826.0999999642,691383.76,691390.0999999642,691392.103,695833.9,8,400,,,
trial,html.Screen,4_81_0,2023-09-08T20:54:33.389Z,,0,2,,4888.699999964214,response,ISIC_0014708.JPG,4,ISIC_3777798.JPG,ISIC_3777798.JPG,false,0,keypress(z),500,700722.6999999881,700722.5999999642,695825.591,695826.1999999881,695833.9,700725.439,8,400,32,,ISIC_0014708.JPG
break,html.Screen,4_81_1,2023-09-08T20:54:33.389Z,,0,,,NaN,,,,,,false,,,,700723.0999999642,700723,,700722.8999999762,,700725.439,8,400,,,
break_continue,html.Screen,4_81_2,2023-09-08T20:54:33.389Z,,0,,,NaN,,,,,,false,,,,700723.1999999881,700723.1999999881,,700723.0999999642,,700725.439,8,400,,,
sequence,flow.Sequence,4_81,2023-09-08T20:54:33.389Z,,0,,,4889.299999988056,completion,,,,,false,,,,700723.1999999881,700723.1999999881,695825.591,695826.1999999881,695833.9,700725.439,8,400,,,
trial,html.Screen,4_82_0,2023-09-08T20:54:37.424Z,,0,2,,4032.560999999987,response,ISIC_5948805.JPG,4,ISIC_0062298.JPG,ISIC_0062298.JPG,false,0,keypress(z),500,704758.0999999642,704758,700717.25,700723.3999999762,700725.439,704767.087,8,400,33,,ISIC_5948805.JPG
break,html.Screen,4_82_1,2023-09-08T20:54:37.425Z,,0,,,NaN,,,,,,false,,,,704758.3999999762,704758.3999999762,,704758.3000000119,,704767.087,8,400,,,
break_continue,html.Screen,4_82_2,2023-09-08T20:54:37.425Z,,0,,,NaN,,,,,,false,,,,704758.5,704758.3999999762,,704758.3999999762,,704767.087,8,400,,,
sequence,flow.Sequence,4_82,2023-09-08T20:54:37.425Z,,0,,,4032.960999976145,completion,,,,,false,,,,704758.5,704758.3999999762,700717.25,700723.3000000119,700725.439,704767.087,8,400,,,
trial,html.Screen,4_83_0,2023-09-08T20:54:42.182Z,,0,2,,4748.5129999641795,response,ISIC_0033616.JPG,4,ISIC_7702857.JPG,ISIC_7702857.JPG,false,0,keypress(z),500,709515.8000000119,709515.5999999642,704758.75,704758.5999999642,704767.087,709517.252,8,400,34,,ISIC_0033616.JPG
break,html.Screen,4_83_1,2023-09-08T20:54:42.182Z,,0,,,NaN,,,,,,false,,,,709516,709515.8999999762,,709515.8000000119,,709517.252,8,400,,,
break_continue,html.Screen,4_83_2,2023-09-08T20:54:42.182Z,,0,,,NaN,,,,,,false,,,,709516.0999999642,709516.0999999642,,709516,,709517.252,8,400,,,
sequence,flow.Sequence,4_83,2023-09-08T20:54:42.182Z,,0,,,4749.0129999641795,completion,,,,,false,,,,709516.1999999881,709516.0999999642,704758.75,704758.5,704767.087,709517.252,8,400,,,
trial,html.Screen,4_84_0,2023-09-08T20:54:45.468Z,,0,2,,3284.1479999761796,response,ISIC_2808622.JPG,4,ISIC_1367610.JPG,ISIC_1367610.JPG,false,0,keypress(z),500,712801.5,712801.3999999762,709508.9,709516.1999999881,709517.252,712808.943,8,400,35,,ISIC_2808622.JPG
break,html.Screen,4_84_1,2023-09-08T20:54:45.468Z,,0,,,NaN,,,,,,false,,,,712801.8999999762,712801.8999999762,,712801.5999999642,,712808.943,8,400,,,
break_continue,html.Screen,4_84_2,2023-09-08T20:54:45.468Z,,0,,,NaN,,,,,,false,,,,712802,712802,,712802,,712808.943,8,400,,,
sequence,flow.Sequence,4_84,2023-09-08T20:54:45.468Z,,0,,,3284.7480000000214,completion,,,,,false,,,,712802.0999999642,712802,709508.9,709516.1999999881,709517.252,712808.943,8,400,,,
trial,html.Screen,4_85_0,2023-09-08T20:54:48.510Z,,0,2,,3034.756999988109,response,ISIC_0033564.JPG,5,ISIC_0067339.JPG,ISIC_0067339.JPG,false,0,keypress(z),500,715843.8000000119,715843.6999999881,712800.613,712802.0999999642,712808.943,715850.427,8,400,36,,ISIC_0033564.JPG
break,html.Screen,4_85_1,2023-09-08T20:54:48.510Z,,0,,,NaN,,,,,,false,,,,715844.1999999881,715844.0999999642,,715843.8999999762,,715850.427,8,400,,,
break_continue,html.Screen,4_85_2,2023-09-08T20:54:48.510Z,,0,,,NaN,,,,,,false,,,,715844.1999999881,715844.1999999881,,715844.1999999881,,715850.427,8,400,,,
sequence,flow.Sequence,4_85,2023-09-08T20:54:48.510Z,,0,,,3035.256999988109,completion,,,,,false,,,,715844.3000000119,715844.1999999881,712800.613,712802.0999999642,712808.943,715850.427,8,400,,,
trial,html.Screen,4_86_0,2023-09-08T20:54:51.330Z,,0,2,,2813.172999964212,response,ISIC_4960406.JPG,5,ISIC_3495799.JPG,ISIC_3495799.JPG,false,0,keypress(z),500,718663.8000000119,718663.5999999642,715842.127,715844.3999999762,715850.427,718667.159,8,400,37,,ISIC_4960406.JPG
break,html.Screen,4_86_1,2023-09-08T20:54:51.330Z,,0,,,NaN,,,,,,false,,,,718664.0999999642,718664,,718663.8999999762,,718667.159,8,400,,,
break_continue,html.Screen,4_86_2,2023-09-08T20:54:51.330Z,,0,,,NaN,,,,,,false,,,,718664.1999999881,718664.1999999881,,718664.1999999881,,718667.159,8,400,,,
sequence,flow.Sequence,4_86,2023-09-08T20:54:51.330Z,,0,,,2813.772999988054,completion,,,,,false,,,,718664.3000000119,718664.1999999881,715842.127,715844.3999999762,715850.427,718667.159,8,400,,,
trial,html.Screen,4_87_0,2023-09-08T20:54:54.536Z,,0,2,,3202.341000000015,response,ISIC_0060955.JPG,5,ISIC_0055742.JPG,ISIC_0055742.JPG,false,0,keypress(z),500,721869.5999999642,721869.5,718658.893,718664.3000000119,718667.159,721875.409,8,400,38,,ISIC_0060955.JPG
break,html.Screen,4_87_1,2023-09-08T20:54:54.536Z,,0,,,NaN,,,,,,false,,,,721869.8999999762,721869.8999999762,,721869.6999999881,,721875.409,8,400,,,
break_continue,html.Screen,4_87_2,2023-09-08T20:54:54.536Z,,0,,,NaN,,,,,,false,,,,721870,721869.8999999762,,721869.8999999762,,721875.409,8,400,,,
sequence,flow.Sequence,4_87,2023-09-08T20:54:54.536Z,,0,,,3202.740999976173,completion,,,,,false,,,,721870,721869.8999999762,718658.893,718664.3000000119,718667.159,721875.409,8,400,,,
trial,html.Screen,4_88_0,2023-09-08T20:54:57.433Z,,0,2,,2890.990999976173,response,ISIC_5073160.JPG,5,ISIC_0061625.JPG,ISIC_0061625.JPG,false,0,keypress(z),500,724766.5,724766.3999999762,721867.221,721870.0999999642,721875.409,724775.405,8,400,39,,ISIC_5073160.JPG
break,html.Screen,4_88_1,2023-09-08T20:54:57.433Z,,0,,,NaN,,,,,,false,,,,724766.8000000119,724766.6999999881,,724766.5999999642,,724775.405,8,400,,,
break_continue,html.Screen,4_88_2,2023-09-08T20:54:57.433Z,,0,,,NaN,,,,,,false,,,,724766.8999999762,724766.8999999762,,724766.8999999762,,724775.405,8,400,,,
sequence,flow.Sequence,4_88,2023-09-08T20:54:57.433Z,,0,,,2891.490999976173,completion,,,,,false,,,,724766.8999999762,724766.8999999762,721867.221,721870.0999999642,721875.409,724775.405,8,400,,,
trial,html.Screen,4_89_0,2023-09-08T20:55:00.730Z,,0,2,,3288.49499997613,response,ISIC_0006118.JPG,5,ISIC_3941123.JPG,ISIC_3941123.JPG,false,0,keypress(z),500,728064,728063.8999999762,724767.227,724766.8999999762,724775.405,728067.065,8,400,40,,ISIC_0006118.JPG
break,html.Screen,4_89_1,2023-09-08T20:55:00.731Z,,0,,,NaN,,,,,,false,,,,728064.3000000119,728064.1999999881,,728064.0999999642,,728067.065,8,400,,,
break_continue,html.Screen,4_89_2,2023-09-08T20:55:00.731Z,,0,,,NaN,,,,,,false,,,,728064.5,728064.3999999762,,728064.3999999762,,728067.065,8,400,,,
sequence,flow.Sequence,4_89,2023-09-08T20:55:00.731Z,,0,,,3288.99499997613,completion,,,,,false,,,,728064.5,728064.3999999762,724767.227,724766.8999999762,724775.405,728067.065,8,400,,,
trial,html.Screen,4_90_0,2023-09-08T20:55:03.995Z,,0,2,,3262.034999964293,response,ISIC_6640227.JPG,5,ISIC_7138875.JPG,ISIC_7138875.JPG,false,0,keypress(z),500,731329.0999999642,731329.0999999642,728058.956,728064.5999999642,728067.065,731333.728,8,400,41,,ISIC_6640227.JPG
break,html.Screen,4_90_1,2023-09-08T20:55:03.996Z,,0,,,NaN,,,,,,false,,,,731329.3999999762,731329.3999999762,,731329.3000000119,,731333.728,8,400,,,
break_continue,html.Screen,4_90_2,2023-09-08T20:55:03.996Z,,0,,,NaN,,,,,,false,,,,731329.5999999642,731329.5999999642,,731329.3999999762,,731333.728,8,400,,,
sequence,flow.Sequence,4_90,2023-09-08T20:55:03.996Z,,0,,,3262.534999964293,completion,,,,,false,,,,731329.5999999642,731329.5999999642,728058.956,728064.5999999642,728067.065,731333.728,8,400,,,
trial,html.Screen,4_91_0,2023-09-08T20:55:07.693Z,,0,2,,3693.3719999642344,response,ISIC_3797095.JPG,5,ISIC_2563948.JPG,ISIC_2563948.JPG,false,0,keypress(z),500,735027.0999999642,735027.0999999642,731325.539,731329.6999999881,731333.728,735033.727,8,400,42,,ISIC_3797095.JPG
break,html.Screen,4_91_1,2023-09-08T20:55:07.694Z,,0,,,NaN,,,,,,false,,,,735027.5,735027.3999999762,,735027.1999999881,,735033.727,8,400,,,
break_continue,html.Screen,4_91_2,2023-09-08T20:55:07.694Z,,0,,,NaN,,,,,,false,,,,735027.5999999642,735027.5,,735027.5,,735033.727,8,400,,,
sequence,flow.Sequence,4_91,2023-09-08T20:55:07.694Z,,0,,,3693.771999999997,completion,,,,,false,,,,735027.6999999881,735027.5,731325.539,731329.6999999881,731333.728,735033.727,8,400,,,
trial,html.Screen,4_92_0,2023-09-08T20:55:11.023Z,,0,2,,3323.2730000000447,response,ISIC_4182801.JPG,4,ISIC_1708591.JPG,ISIC_1708591.JPG,false,0,keypress(z),500,738357.1999999881,738357,735025.551,735027.6999999881,735033.727,738358.875,8,400,43,,ISIC_4182801.JPG
break,html.Screen,4_92_1,2023-09-08T20:55:11.024Z,,0,,,NaN,,,,,,false,,,,738357.5,738357.3999999762,,738357.1999999881,,738358.875,8,400,,,
break_continue,html.Screen,4_92_2,2023-09-08T20:55:11.024Z,,0,,,NaN,,,,,,false,,,,738357.6999999881,738357.5999999642,,738357.5,,738358.875,8,400,,,
sequence,flow.Sequence,4_92,2023-09-08T20:55:11.024Z,,0,,,3323.872999964282,completion,,,,,false,,,,738357.6999999881,738357.5999999642,735025.551,735027.6999999881,735033.727,738358.875,8,400,,,
trial,html.Screen,4_93_0,2023-09-08T20:55:14.616Z,,0,2,,3591.224999964237,response,ISIC_6487069.JPG,4,ISIC_0027839.JPG,ISIC_6487069.JPG,false,1,keypress(m),500,741950.0999999642,741950.0999999642,738350.528,738357.6999999881,738358.875,741958.869,8,400,44,,ISIC_0027839.JPG
break,html.Screen,4_93_1,2023-09-08T20:55:14.617Z,,0,,,NaN,,,,,,false,,,,741950.3999999762,741950.3999999762,,741950.1999999881,,741958.869,8,400,,,
break_continue,html.Screen,4_93_2,2023-09-08T20:55:14.617Z,,0,,,NaN,,,,,,false,,,,741950.5999999642,741950.5,,741950.5,,741958.869,8,400,,,
sequence,flow.Sequence,4_93,2023-09-08T20:55:14.617Z,,0,,,3591.625,completion,,,,,false,,,,741950.5999999642,741950.5,738350.528,738357.6999999881,738358.875,741958.869,8,400,,,
trial,html.Screen,4_94_0,2023-09-08T20:55:17.935Z,,0,2,,3309.631000000052,response,ISIC_9613570.JPG,5,ISIC_0029538.JPG,ISIC_9613570.JPG,false,1,keypress(m),500,745268.6999999881,745268.5,741942.2,741950.5999999642,741958.869,745275.394,8,400,45,,ISIC_0029538.JPG
break,html.Screen,4_94_1,2023-09-08T20:55:17.935Z,,0,,,NaN,,,,,,false,,,,745268.8999999762,745268.8000000119,,745268.8000000119,,745275.394,8,400,,,
break_continue,html.Screen,4_94_2,2023-09-08T20:55:17.935Z,,0,,,NaN,,,,,,false,,,,745269.0999999642,745269.0999999642,,745269,,745275.394,8,400,,,
sequence,flow.Sequence,4_94,2023-09-08T20:55:17.935Z,,0,,,3310.2309999642894,completion,,,,,false,,,,745269.0999999642,745269.0999999642,741942.2,741950.5999999642,741958.869,745275.394,8,400,,,
trial,html.Screen,4_95_0,2023-09-08T20:55:21.152Z,,0,2,,3210.305999988108,response,ISIC_0016085.JPG,5,ISIC_2670619.JPG,ISIC_0016085.JPG,false,1,keypress(m),500,748485.8000000119,748485.6999999881,745267.192,745269.0999999642,745275.394,748492.037,8,400,46,,ISIC_2670619.JPG
break,html.Screen,4_95_1,2023-09-08T20:55:21.152Z,,0,,,NaN,,,,,,false,,,,748486.0999999642,748486.0999999642,,748485.8000000119,,748492.037,8,400,,,
break_continue,html.Screen,4_95_2,2023-09-08T20:55:21.152Z,,0,,,NaN,,,,,,false,,,,748486.1999999881,748486.1999999881,,748486.1999999881,,748492.037,8,400,,,
sequence,flow.Sequence,4_95,2023-09-08T20:55:21.152Z,,0,,,3210.805999988108,completion,,,,,false,,,,748486.3000000119,748486.1999999881,745267.192,745269.0999999642,745275.394,748492.037,8,400,,,
trial,html.Screen,4_96_0,2023-09-08T20:55:24.081Z,,0,2,,2923.062999964226,response,ISIC_0032630.JPG,4,ISIC_5338721.JPG,ISIC_5338721.JPG,false,0,keypress(z),500,751415.1999999881,751415.0999999642,748483.855,748486.3000000119,748492.037,751417.2,8,400,47,,ISIC_0032630.JPG
break,html.Screen,4_96_1,2023-09-08T20:55:24.082Z,,0,,,NaN,,,,,,false,,,,751415.5,751415.3999999762,,751415.3000000119,,751417.2,8,400,,,
break_continue,html.Screen,4_96_2,2023-09-08T20:55:24.082Z,,0,,,NaN,,,,,,false,,,,751415.5999999642,751415.5999999642,,751415.5,,751417.2,8,400,,,
sequence,flow.Sequence,4_96,2023-09-08T20:55:24.082Z,,0,,,2923.562999964226,completion,,,,,false,,,,751415.6999999881,751415.5999999642,748483.855,748486.3000000119,748492.037,751417.2,8,400,,,
trial,html.Screen,4_97_0,2023-09-08T20:55:26.739Z,,0,2,,2655.399999964284,response,ISIC_0025589.JPG,4,ISIC_0027104.JPG,ISIC_0025589.JPG,false,1,keypress(m),500,754072.6999999881,754072.5999999642,751408.845,751415.6999999881,751417.2,754075.359,8,400,48,,ISIC_0027104.JPG
break,html.Screen,4_97_1,2023-09-08T20:55:26.739Z,,0,,,NaN,,,,,,false,,,,754072.8999999762,754072.8999999762,,754072.6999999881,,754075.359,8,400,,,
break_continue,html.Screen,4_97_2,2023-09-08T20:55:26.739Z,,0,,,NaN,,,,,,false,,,,754073.0999999642,754073.0999999642,,754073,,754075.359,8,400,,,
sequence,flow.Sequence,4_97,2023-09-08T20:55:26.739Z,,0,,,2655.899999964284,completion,,,,,false,,,,754073.0999999642,754073.0999999642,751408.845,751415.6999999881,751417.2,754075.359,8,400,,,
trial,html.Screen,4_98_0,2023-09-08T20:55:29.525Z,,0,2,,2783.2409999641823,response,ISIC_0004509.JPG,5,ISIC_0046683.JPG,ISIC_0004509.JPG,false,1,keypress(m),500,756858.5999999642,756858.5999999642,754067.185,754073.0999999642,754075.359,756867.033,8,400,49,,ISIC_0046683.JPG
break,html.Screen,4_98_1,2023-09-08T20:55:29.525Z,,0,,,NaN,,,,,,false,,,,756859,756858.8999999762,,756858.8000000119,,756867.033,8,400,,,
break_continue,html.Screen,4_98_2,2023-09-08T20:55:29.525Z,,0,,,NaN,,,,,,false,,,,756859.0999999642,756859.0999999642,,756859,,756867.033,8,400,,,
sequence,flow.Sequence,4_98,2023-09-08T20:55:29.525Z,,0,,,2783.7409999641823,completion,,,,,false,,,,756859.1999999881,756859.0999999642,754067.185,754073.0999999642,754075.359,756867.033,8,400,,,
trial,html.Screen,4_99_0,2023-09-08T20:55:32.407Z,,0,2,,2873.166999988025,response,ISIC_0028919.JPG,5,ISIC_0002774.JPG,ISIC_0002774.JPG,false,0,keypress(z),500,759740.3000000119,759740.1999999881,756858.849,756859.1999999881,756867.033,759742.03,8,400,50,,ISIC_0028919.JPG
break,html.Screen,4_99_1,2023-09-08T20:55:43.075Z,,0,,,10774.979999999981,timeout,,,,,false,,,,770409.3999999762,770409.1999999881,759733.84,759740.3999999762,759742.03,770517.01,8,400,,,
break_continue,html.Screen,4_99_2,2023-09-08T20:55:43.799Z,,0,,,610.9899999999907,response,,,,,false,continue,keypress(Space),,771132.6999999881,771128,770409.1999999881,770409.3999999762,770517.01,771142.019,8,400,,,
sequence,flow.Sequence,4_99,2023-09-08T20:55:43.799Z,,0,,,14260.966999999946,completion,,,,,false,,,,771132.8000000119,771128,756858.849,756859.1999999881,756867.033,771142.019,8,400,,,
trial,html.Screen,4_100_0,2023-09-08T20:55:47.016Z,,0,3,,3208.180999988108,response,ISIC_0029021.JPG,5,ISIC_0055297.JPG,ISIC_0029021.JPG,false,1,keypress(m),500,774350.3000000119,774350.1999999881,771133.675,771132.8000000119,771142.019,774358.741,8,400,1,,ISIC_0055297.JPG
break,html.Screen,4_100_1,2023-09-08T20:55:47.017Z,,0,,,NaN,,,,,,false,,,,774350.5999999642,774350.5999999642,,774350.3999999762,,774358.741,8,400,,,
break_continue,html.Screen,4_100_2,2023-09-08T20:55:47.017Z,,0,,,NaN,,,,,,false,,,,774350.8000000119,774350.6999999881,,774350.6999999881,,774358.741,8,400,,,
sequence,flow.Sequence,4_100,2023-09-08T20:55:47.017Z,,0,,,3208.680999988108,completion,,,,,false,,,,774350.8000000119,774350.6999999881,771133.675,771132.8000000119,771142.019,774358.741,8,400,,,
trial,html.Screen,4_101_0,2023-09-08T20:55:50.302Z,,0,3,,3277.458999988041,response,ISIC_0012260.JPG,4,ISIC_0067097.JPG,ISIC_0012260.JPG,false,1,keypress(m),500,777636.3999999762,777636.1999999881,774350.325,774350.8000000119,774358.741,777642.025,8,400,2,,ISIC_0067097.JPG
break,html.Screen,4_101_1,2023-09-08T20:55:50.303Z,,0,,,NaN,,,,,,false,,,,777636.6999999881,777636.6999999881,,777636.5,,777642.025,8,400,,,
break_continue,html.Screen,4_101_2,2023-09-08T20:55:50.303Z,,0,,,NaN,,,,,,false,,,,777636.8000000119,777636.8000000119,,777636.8000000119,,777642.025,8,400,,,
sequence,flow.Sequence,4_101,2023-09-08T20:55:50.303Z,,0,,,3278.0590000118827,completion,,,,,false,,,,777636.8999999762,777636.8000000119,774350.325,774350.8000000119,774358.741,777642.025,8,400,,,
trial,html.Screen,4_102_0,2023-09-08T20:55:55.488Z,,0,3,,5179.874999976135,response,ISIC_4509925.JPG,5,ISIC_0057815.JPG,ISIC_0057815.JPG,false,0,keypress(z),500,782822.0999999642,782821.8999999762,777633.679,777637,777642.025,782825.337,8,400,3,,ISIC_4509925.JPG
break,html.Screen,4_102_1,2023-09-08T20:55:55.488Z,,0,,,NaN,,,,,,false,,,,782822.3999999762,782822.3000000119,,782822.1999999881,,782825.337,8,400,,,
break_continue,html.Screen,4_102_2,2023-09-08T20:55:55.489Z,,0,,,NaN,,,,,,false,,,,782822.6999999881,782822.5999999642,,782822.5,,782825.337,8,400,,,
sequence,flow.Sequence,4_102,2023-09-08T20:55:55.489Z,,0,,,5180.574999964214,completion,,,,,false,,,,782822.6999999881,782822.5999999642,777633.679,777637,777642.025,782825.337,8,400,,,
trial,html.Screen,4_103_0,2023-09-08T20:55:58.883Z,,0,3,,3391.2629999641795,response,ISIC_0024624.JPG,4,ISIC_3919752.JPG,ISIC_3919752.JPG,false,0,keypress(z),500,786216.6999999881,786216.5999999642,782816.986,782822.6999999881,782825.337,786225.351,8,400,4,,ISIC_0024624.JPG
break,html.Screen,4_103_1,2023-09-08T20:55:58.883Z,,0,,,NaN,,,,,,false,,,,786217,786217,,786216.8000000119,,786225.351,8,400,,,
break_continue,html.Screen,4_103_2,2023-09-08T20:55:58.883Z,,0,,,NaN,,,,,,false,,,,786217.0999999642,786217.0999999642,,786217.0999999642,,786225.351,8,400,,,
sequence,flow.Sequence,4_103,2023-09-08T20:55:58.883Z,,0,,,3391.7629999641795,completion,,,,,false,,,,786217.0999999642,786217.0999999642,782816.986,782822.6999999881,782825.337,786225.351,8,400,,,
trial,html.Screen,4_104_0,2023-09-08T20:56:02.010Z,,0,3,,3118.648999999976,response,ISIC_1254469.JPG,5,ISIC_0032587.JPG,ISIC_1254469.JPG,false,1,keypress(m),500,789344.0999999642,789344,786217.034,786217.1999999881,786225.351,789358.656,8,400,5,,ISIC_0032587.JPG
break,html.Screen,4_104_1,2023-09-08T20:56:02.010Z,,0,,,NaN,,,,,,false,,,,789344.3999999762,789344.3000000119,,789344.1999999881,,789358.656,8,400,,,
break_continue,html.Screen,4_104_2,2023-09-08T20:56:02.011Z,,0,,,NaN,,,,,,false,,,,789344.5,789344.3999999762,,789344.3999999762,,789358.656,8,400,,,
sequence,flow.Sequence,4_104,2023-09-08T20:56:02.011Z,,0,,,3119.048999976134,completion,,,,,false,,,,789344.5,789344.3999999762,786217.034,786217.1999999881,786225.351,789358.656,8,400,,,
trial,html.Screen,4_105_0,2023-09-08T20:56:05.084Z,,0,3,,3058.743999976199,response,ISIC_7533216.JPG,4,ISIC_3059367.JPG,ISIC_3059367.JPG,false,0,keypress(z),500,792417.5,792417.3999999762,789350.319,789344.5999999642,789358.656,792433.657,8,400,6,,ISIC_7533216.JPG
break,html.Screen,4_105_1,2023-09-08T20:56:05.084Z,,0,,,NaN,,,,,,false,,,,792417.8999999762,792417.6999999881,,792417.5999999642,,792433.657,8,400,,,
break_continue,html.Screen,4_105_2,2023-09-08T20:56:05.084Z,,0,,,NaN,,,,,,false,,,,792417.8999999762,792417.8999999762,,792417.8999999762,,792433.657,8,400,,,
sequence,flow.Sequence,4_105,2023-09-08T20:56:05.084Z,,0,,,3059.243999976199,completion,,,,,false,,,,792418,792417.8999999762,789350.319,789344.5999999642,789358.656,792433.657,8,400,,,
trial,html.Screen,4_106_0,2023-09-08T20:56:08.580Z,,0,3,,3480.4429999642307,response,ISIC_0055608.JPG,5,ISIC_6951506.JPG,ISIC_6951506.JPG,false,0,keypress(z),500,795914.3000000119,795914.0999999642,792425.332,792418,792433.657,795916.976,8,400,7,,ISIC_0055608.JPG
break,html.Screen,4_106_1,2023-09-08T20:56:08.581Z,,0,,,NaN,,,,,,false,,,,795914.5,795914.5,,795914.3000000119,,795916.976,8,400,,,
break_continue,html.Screen,4_106_2,2023-09-08T20:56:08.581Z,,0,,,NaN,,,,,,false,,,,795914.5999999642,795914.5999999642,,795914.5,,795916.976,8,400,,,
sequence,flow.Sequence,4_106,2023-09-08T20:56:08.581Z,,0,,,3480.9429999642307,completion,,,,,false,,,,795914.6999999881,795914.5999999642,792425.332,792418,792433.657,795916.976,8,400,,,
trial,html.Screen,4_107_0,2023-09-08T20:56:11.846Z,,0,3,,3262.623999964213,response,ISIC_0060586.JPG,4,ISIC_0064763.JPG,ISIC_0064763.JPG,false,0,keypress(z),500,799179.6999999881,799179.5999999642,795908.662,795914.6999999881,795916.976,799183.644,8,400,8,,ISIC_0060586.JPG
break,html.Screen,4_107_1,2023-09-08T20:56:11.846Z,,0,,,NaN,,,,,,false,,,,799180,799179.8999999762,,799179.8000000119,,799183.644,8,400,,,
break_continue,html.Screen,4_107_2,2023-09-08T20:56:11.846Z,,0,,,NaN,,,,,,false,,,,799180.0999999642,799180,,799180,,799183.644,8,400,,,
sequence,flow.Sequence,4_107,2023-09-08T20:56:11.846Z,,0,,,3263.023999999976,completion,,,,,false,,,,799180.0999999642,799180,795908.662,795914.6999999881,795916.976,799183.644,8,400,,,
trial,html.Screen,4_108_0,2023-09-08T20:56:14.727Z,,0,3,,2876.955999964266,response,ISIC_7387061.JPG,5,ISIC_1693458.JPG,ISIC_1693458.JPG,false,0,keypress(z),500,802060.8000000119,802060.5999999642,799175.32,799180.0999999642,799183.644,802066.949,8,400,9,,ISIC_7387061.JPG
break,html.Screen,4_108_1,2023-09-08T20:56:14.727Z,,0,,,NaN,,,,,,false,,,,802061.0999999642,802061.0999999642,,802060.8999999762,,802066.949,8,400,,,
break_continue,html.Screen,4_108_2,2023-09-08T20:56:14.727Z,,0,,,NaN,,,,,,false,,,,802061.1999999881,802061.0999999642,,802061.0999999642,,802066.949,8,400,,,
sequence,flow.Sequence,4_108,2023-09-08T20:56:14.727Z,,0,,,2877.455999964266,completion,,,,,false,,,,802061.3000000119,802061.0999999642,799175.32,799180.0999999642,799183.644,802066.949,8,400,,,
trial,html.Screen,4_109_0,2023-09-08T20:56:18.056Z,,0,3,,3323.2509999880567,response,ISIC_0003703.JPG,4,ISIC_0030002.JPG,ISIC_0003703.JPG,false,1,keypress(m),500,805390.3000000119,805390.1999999881,802058.623,802061.3999999762,802066.949,805392.129,8,400,10,,ISIC_0030002.JPG
break,html.Screen,4_109_1,2023-09-08T20:56:18.057Z,,0,,,NaN,,,,,,false,,,,805390.5999999642,805390.5,,805390.3000000119,,805392.129,8,400,,,
break_continue,html.Screen,4_109_2,2023-09-08T20:56:18.057Z,,0,,,NaN,,,,,,false,,,,805390.6999999881,805390.5999999642,,805390.5999999642,,805392.129,8,400,,,
sequence,flow.Sequence,4_109,2023-09-08T20:56:18.057Z,,0,,,3323.650999964215,completion,,,,,false,,,,805390.6999999881,805390.5999999642,802058.623,802061.3000000119,802066.949,805392.129,8,400,,,
trial,html.Screen,4_110_0,2023-09-08T20:56:22.656Z,,0,3,,4597.171000011964,response,ISIC_5628615.JPG,5,ISIC_1323048.JPG,ISIC_1323048.JPG,false,0,keypress(z),500,809989.3999999762,809989.3000000119,805384.244,805390.6999999881,805392.129,809992.143,8,400,11,,ISIC_5628615.JPG
break,html.Screen,4_110_1,2023-09-08T20:56:22.656Z,,0,,,NaN,,,,,,false,,,,809989.8999999762,809989.6999999881,,809989.5999999642,,809992.143,8,400,,,
break_continue,html.Screen,4_110_2,2023-09-08T20:56:22.656Z,,0,,,NaN,,,,,,false,,,,809990,809989.8999999762,,809989.8999999762,,809992.143,8,400,,,
sequence,flow.Sequence,4_110,2023-09-08T20:56:22.656Z,,0,,,4597.770999976201,completion,,,,,false,,,,809990,809989.8999999762,805384.244,805390.6999999881,805392.129,809992.143,8,400,,,
trial,html.Screen,4_111_0,2023-09-08T20:56:25.767Z,,0,3,,3108.556999988039,response,ISIC_6176182.JPG,5,ISIC_7312551.JPG,ISIC_7312551.JPG,false,0,keypress(z),500,813100.8999999762,813100.6999999881,809983.775,809990.0999999642,809992.143,813108.646,8,400,12,,ISIC_6176182.JPG
break,html.Screen,4_111_1,2023-09-08T20:56:25.767Z,,0,,,NaN,,,,,,false,,,,813101.1999999881,813101.1999999881,,813101,,813108.646,8,400,,,
break_continue,html.Screen,4_111_2,2023-09-08T20:56:25.767Z,,0,,,NaN,,,,,,false,,,,813101.3999999762,813101.3000000119,,813101.3000000119,,813108.646,8,400,,,
sequence,flow.Sequence,4_111,2023-09-08T20:56:25.767Z,,0,,,3109.157000011881,completion,,,,,false,,,,813101.3999999762,813101.3000000119,809983.775,809990.0999999642,809992.143,813108.646,8,400,,,
trial,html.Screen,4_112_0,2023-09-08T20:56:29.513Z,,0,3,,3738.4539999642875,response,ISIC_6105084.JPG,4,ISIC_0070136.JPG,ISIC_0070136.JPG,false,0,keypress(z),500,816847.1999999881,816847.0999999642,813100.454,813101.3999999762,813108.646,816850.298,8,400,13,,ISIC_6105084.JPG
break,html.Screen,4_112_1,2023-09-08T20:56:29.514Z,,0,,,NaN,,,,,,false,,,,816847.3999999762,816847.3999999762,,816847.3000000119,,816850.298,8,400,,,
break_continue,html.Screen,4_112_2,2023-09-08T20:56:29.514Z,,0,,,NaN,,,,,,false,,,,816847.5,816847.5,,816847.5,,816850.298,8,400,,,
sequence,flow.Sequence,4_112,2023-09-08T20:56:29.514Z,,0,,,3738.8540000000503,completion,,,,,false,,,,816847.6999999881,816847.5,813100.454,813101.3999999762,813108.646,816850.298,8,400,,,
trial,html.Screen,4_113_0,2023-09-08T20:56:33.323Z,,0,3,,3806.0020000119694,response,ISIC_0054341.JPG,5,ISIC_0046729.JPG,ISIC_0046729.JPG,false,0,keypress(z),500,820656.3999999762,820656.3000000119,816842.107,816847.6999999881,816850.298,820658.774,8,400,14,,ISIC_0054341.JPG
break,html.Screen,4_113_1,2023-09-08T20:56:33.323Z,,0,,,NaN,,,,,,false,,,,820656.8000000119,820656.6999999881,,820656.5999999642,,820658.774,8,400,,,
break_continue,html.Screen,4_113_2,2023-09-08T20:56:33.323Z,,0,,,NaN,,,,,,false,,,,820656.8999999762,820656.8999999762,,820656.8000000119,,820658.774,8,400,,,
sequence,flow.Sequence,4_113,2023-09-08T20:56:33.323Z,,0,,,3806.6019999762066,completion,,,,,false,,,,820657,820656.8999999762,816842.107,816847.6999999881,816850.298,820658.774,8,400,,,
trial,html.Screen,4_114_0,2023-09-08T20:56:36.577Z,,0,3,,3251.8259999642614,response,ISIC_8740331.JPG,6,ISIC_0054640.JPG,ISIC_8740331.JPG,false,1,keypress(m),500,823910.8000000119,823910.5999999642,820650.437,820657,820658.774,823916.952,8,400,15,,ISIC_0054640.JPG
break,html.Screen,4_114_1,2023-09-08T20:56:36.578Z,,0,,,NaN,,,,,,false,,,,823911.3000000119,823911.1999999881,,823910.8999999762,,823916.952,8,400,,,
break_continue,html.Screen,4_114_2,2023-09-08T20:56:36.578Z,,0,,,NaN,,,,,,false,,,,823911.5,823911.5,,823911.3999999762,,823916.952,8,400,,,
sequence,flow.Sequence,4_114,2023-09-08T20:56:36.578Z,,0,,,3252.726000000024,completion,,,,,false,,,,823911.5999999642,823911.5,820650.437,820657,820658.774,823916.952,8,400,,,
trial,html.Screen,4_115_0,2023-09-08T20:56:41.097Z,,0,3,,4513.247999988031,response,ISIC_0066470.JPG,6,ISIC_0027636.JPG,ISIC_0027636.JPG,false,0,keypress(z),500,828430.3000000119,828430.1999999881,823908.606,823911.5999999642,823916.952,828433.605,8,400,16,,ISIC_0066470.JPG
break,html.Screen,4_115_1,2023-09-08T20:56:41.097Z,,0,,,NaN,,,,,,false,,,,828430.5999999642,828430.5,,828430.3999999762,,828433.605,8,400,,,
break_continue,html.Screen,4_115_2,2023-09-08T20:56:41.097Z,,0,,,NaN,,,,,,false,,,,828430.6999999881,828430.6999999881,,828430.6999999881,,828433.605,8,400,,,
sequence,flow.Sequence,4_115,2023-09-08T20:56:41.097Z,,0,,,4513.747999988031,completion,,,,,false,,,,828430.8999999762,828430.6999999881,823908.606,823911.5999999642,823916.952,828433.605,8,400,,,
trial,html.Screen,4_116_0,2023-09-08T20:56:45.658Z,,0,3,,4558.094999988098,response,ISIC_3582787.JPG,4,ISIC_0032845.JPG,ISIC_0032845.JPG,false,0,keypress(z),500,832991.8000000119,832991.6999999881,828425.442,828430.8999999762,828433.605,833000.262,8,400,17,,ISIC_3582787.JPG
break,html.Screen,4_116_1,2023-09-08T20:56:45.659Z,,0,,,NaN,,,,,,false,,,,832992,832992,,832991.8999999762,,833000.262,8,400,,,
break_continue,html.Screen,4_116_2,2023-09-08T20:56:45.659Z,,0,,,NaN,,,,,,false,,,,832992.0999999642,832992.0999999642,,832992.0999999642,,833000.262,8,400,,,
sequence,flow.Sequence,4_116,2023-09-08T20:56:45.659Z,,0,,,4558.494999964256,completion,,,,,false,,,,832992.1999999881,832992.0999999642,828425.442,828430.8999999762,828433.605,833000.262,8,400,,,
trial,html.Screen,4_117_0,2023-09-08T20:56:51.164Z,,0,3,,5496.937999988091,response,ISIC_2178689.JPG,5,ISIC_4220326.JPG,ISIC_4220326.JPG,false,0,keypress(z),500,838497.3000000119,838497.1999999881,832991.918,832992.1999999881,833000.262,838500.255,8,400,18,,ISIC_2178689.JPG
break,html.Screen,4_117_1,2023-09-08T20:56:51.164Z,,0,,,NaN,,,,,,false,,,,838497.5999999642,838497.5,,838497.3999999762,,838500.255,8,400,,,
break_continue,html.Screen,4_117_2,2023-09-08T20:56:51.164Z,,0,,,NaN,,,,,,false,,,,838497.6999999881,838497.5999999642,,838497.5999999642,,838500.255,8,400,,,
sequence,flow.Sequence,4_117,2023-09-08T20:56:51.164Z,,0,,,5497.337999964249,completion,,,,,false,,,,838497.8000000119,838497.5999999642,832991.918,832992.1999999881,833000.262,838500.255,8,400,,,
trial,html.Screen,4_118_0,2023-09-08T20:56:55.037Z,,0,3,,3870.0450000119163,response,ISIC_0024244.JPG,5,ISIC_8036544.JPG,ISIC_8036544.JPG,false,0,keypress(z),500,842370.3999999762,842370.3000000119,838492.063,838497.8000000119,838500.255,842375.275,8,400,19,,ISIC_0024244.JPG
break,html.Screen,4_118_1,2023-09-08T20:56:55.037Z,,0,,,NaN,,,,,,false,,,,842370.8000000119,842370.6999999881,,842370.5999999642,,842375.275,8,400,,,
break_continue,html.Screen,4_118_2,2023-09-08T20:56:55.037Z,,0,,,NaN,,,,,,false,,,,842371,842370.8999999762,,842370.8000000119,,842375.275,8,400,,,
sequence,flow.Sequence,4_118,2023-09-08T20:56:55.037Z,,0,,,3870.6449999761535,completion,,,,,false,,,,842371,842370.8999999762,838492.063,838497.8000000119,838500.255,842375.275,8,400,,,
trial,html.Screen,4_119_0,2023-09-08T20:57:00.014Z,,0,3,,4972.424999988056,response,ISIC_0006983.JPG,5,ISIC_0067789.JPG,ISIC_0067789.JPG,false,0,keypress(z),500,847347.8000000119,847347.6999999881,842366.912,842371,842375.275,847358.593,8,400,20,,ISIC_0006983.JPG
break,html.Screen,4_119_1,2023-09-08T20:57:00.015Z,,0,,,NaN,,,,,,false,,,,847348.0999999642,847348.0999999642,,847347.8999999762,,847358.593,8,400,,,
break_continue,html.Screen,4_119_2,2023-09-08T20:57:00.015Z,,0,,,NaN,,,,,,false,,,,847348.1999999881,847348.1999999881,,847348.1999999881,,847358.593,8,400,,,
sequence,flow.Sequence,4_119,2023-09-08T20:57:00.015Z,,0,,,4972.924999988056,completion,,,,,false,,,,847348.1999999881,847348.1999999881,842366.912,842371,842375.275,847358.593,8,400,,,
trial,html.Screen,4_120_0,2023-09-08T20:57:04.464Z,,0,3,,4439.006999964244,response,ISIC_5992826.JPG,5,ISIC_0060154.JPG,ISIC_5992826.JPG,false,1,keypress(m),500,851797.6999999881,851797.5999999642,847350.252,847348.3000000119,847358.593,851800.481,8,400,21,,ISIC_0060154.JPG
break,html.Screen,4_120_1,2023-09-08T20:57:04.464Z,,0,,,NaN,,,,,,false,,,,851798,851797.8999999762,,851797.8000000119,,851800.481,8,400,,,
break_continue,html.Screen,4_120_2,2023-09-08T20:57:04.465Z,,0,,,NaN,,,,,,false,,,,851798.0999999642,851798.0999999642,,851798,,851800.481,8,400,,,
sequence,flow.Sequence,4_120,2023-09-08T20:57:04.465Z,,0,,,4439.506999964244,completion,,,,,false,,,,851798.0999999642,851798.0999999642,847350.252,847348.3000000119,847358.593,851800.481,8,400,,,
trial,html.Screen,4_121_0,2023-09-08T20:57:10.968Z,,0,3,,6501.319000011892,response,ISIC_7619234.JPG,5,ISIC_2271767.JPG,ISIC_2271767.JPG,false,0,keypress(z),500,858302,858301.8000000119,851791.892,851798.1999999881,851800.481,858308.561,8,400,22,,ISIC_7619234.JPG
break,html.Screen,4_121_1,2023-09-08T20:57:10.969Z,,0,,,NaN,,,,,,false,,,,858302.3000000119,858302.1999999881,,858302.0999999642,,858308.561,8,400,,,
break_continue,html.Screen,4_121_2,2023-09-08T20:57:10.969Z,,0,,,NaN,,,,,,false,,,,858302.3999999762,858302.3999999762,,858302.3000000119,,858308.561,8,400,,,
sequence,flow.Sequence,4_121,2023-09-08T20:57:10.969Z,,0,,,6501.918999976129,completion,,,,,false,,,,858302.5,858302.3999999762,851791.892,851798.1999999881,851800.481,858308.561,8,400,,,
trial,html.Screen,4_122_0,2023-09-08T20:57:14.874Z,,0,3,,3898.338999976171,response,ISIC_0778327.JPG,5,ISIC_0029825.JPG,ISIC_0778327.JPG,false,1,keypress(m),500,862207.0999999642,862206.8999999762,858300.222,858302.5,858308.561,862208.567,8,400,23,,ISIC_0029825.JPG
break,html.Screen,4_122_1,2023-09-08T20:57:14.874Z,,0,,,NaN,,,,,,false,,,,862207.3999999762,862207.3000000119,,862207.0999999642,,862208.567,8,400,,,
break_continue,html.Screen,4_122_2,2023-09-08T20:57:14.874Z,,0,,,NaN,,,,,,false,,,,862207.5,862207.5,,862207.3999999762,,862208.567,8,400,,,
sequence,flow.Sequence,4_122,2023-09-08T20:57:14.874Z,,0,,,3898.939000000013,completion,,,,,false,,,,862207.5999999642,862207.5,858300.222,858302.5,858308.561,862208.567,8,400,,,
trial,html.Screen,4_123_0,2023-09-08T20:57:18.011Z,,0,3,,3136.13299998804,response,ISIC_3623368.JPG,5,ISIC_4350093.JPG,ISIC_3623368.JPG,false,1,keypress(m),500,865344.8999999762,865344.6999999881,862200.254,862207.5999999642,862208.567,865350.221,8,400,24,,ISIC_4350093.JPG
break,html.Screen,4_123_1,2023-09-08T20:57:18.012Z,,0,,,NaN,,,,,,false,,,,865345.0999999642,865345.0999999642,,865345,,865350.221,8,400,,,
break_continue,html.Screen,4_123_2,2023-09-08T20:57:18.012Z,,0,,,NaN,,,,,,false,,,,865345.1999999881,865345.1999999881,,865345.0999999642,,865350.221,8,400,,,
sequence,flow.Sequence,4_123,2023-09-08T20:57:18.012Z,,0,,,3136.63299998804,completion,,,,,false,,,,865345.1999999881,865345.1999999881,862200.254,862207.5999999642,862208.567,865350.221,8,400,,,
trial,html.Screen,4_124_0,2023-09-08T20:57:22.350Z,,0,3,,4333.4789999880595,response,ISIC_5330187.JPG,5,ISIC_2226940.JPG,ISIC_2226940.JPG,false,0,keypress(z),500,869683.8000000119,869683.6999999881,865341.878,865345.3000000119,865350.221,869696.098,8,400,25,,ISIC_5330187.JPG
break,html.Screen,4_124_1,2023-09-08T20:57:22.351Z,,0,,,NaN,,,,,,false,,,,869684.0999999642,869684,,869683.8999999762,,869696.098,8,400,,,
break_continue,html.Screen,4_124_2,2023-09-08T20:57:22.351Z,,0,,,NaN,,,,,,false,,,,869684.1999999881,869684.1999999881,,869684.1999999881,,869696.098,8,400,,,
sequence,flow.Sequence,4_124,2023-09-08T20:57:22.351Z,,0,,,4333.9789999880595,completion,,,,,false,,,,869684.1999999881,869684.1999999881,865341.878,865345.3000000119,865350.221,869696.098,8,400,,,
trial,html.Screen,4_125_0,2023-09-08T20:57:26.498Z,,0,3,,4135.80199997616,response,ISIC_6535558.JPG,4,ISIC_0069260.JPG,ISIC_6535558.JPG,false,1,keypress(m),500,873832,873831.8999999762,869683.699,869684.3000000119,869696.098,873833.697,8,400,26,,ISIC_0069260.JPG
break,html.Screen,4_125_1,2023-09-08T20:57:26.499Z,,0,,,NaN,,,,,,false,,,,873832.3000000119,873832.3000000119,,873832.0999999642,,873833.697,8,400,,,
break_continue,html.Screen,4_125_2,2023-09-08T20:57:26.499Z,,0,,,NaN,,,,,,false,,,,873832.3999999762,873832.3000000119,,873832.3000000119,,873833.697,8,400,,,
