sender,sender_type,sender_id,timestamp,meta,,blockNo,condition,duration,ended_on,img_left,img_reveal,img_right,loser,practice,response,response_action,selection_duration,time_commit,time_end,time_render,time_run,time_show,time_switch,total_blocks,total_trials,trialNo,url,winner
informed_consent,html.Screen,0,2023-09-15T21:48:14.469Z,"{""labjs_version"":""20.2.4"",""labjs_build"":{""flavor"":""production"",""commit"":""f5b4a49f956347addd546a832a3327688c2c0fef""},""location"":""https://run.pavlovia.org/MurrayBennett/melanoma-2afc/?participant=67623&platform=sona"",""userAgent"":""Mozilla/5.0 (Windows NT 10.0; Win64; x64) AppleWebKit/537.36 (KHTML, like Gecko) Chrome/116.0.0.0 Safari/537.36 Edg/116.0.1938.81"",""platform"":""Win32"",""language"":""en-US"",""locale"":""en-US"",""timeZone"":""America/Chicago"",""timezoneOffset"":300,""screen_width"":1536,""screen_height"":960,""scroll_width"":1488,""scroll_height"":756,""window_innerWidth"":1488,""window_innerHeight"":804,""devicePixelRatio"":1.25}",,,,114781.529,response,,,,,,consent,click button,,118078.39999999851,118075,3260.126,3240.60000000149,3293.471,118111.233,,,,"{""participant"":""67623"",""platform"":""sona""}",
Welcome,html.Screen,1,2023-09-15T21:50:18.715Z,,,,asymmetry,124211.96699999926,response,,,,,,continue,click button,,242325,242323.19999999925,118077.132,118078.69999999925,118111.233,242356.952,,,,,
trial,html.Screen,2_0_0,2023-09-15T21:50:31.048Z,,0,0,,12330.931000000011,timeout,ISIC_6997061.JPG,,ISIC_0069348.JPG,,true,,,500,254657.30000000075,254656.80000000075,242313.668,242325.19999999925,242356.952,254687.883,1,6,1,,
sequence,flow.Sequence,2_0,2023-09-15T21:50:31.048Z,,0,,,12299.848000000755,completion,,,,,true,,,,254657.6000000015,254656.80000000075,242313.668,242325.19999999925,242356.952,254687.883,1,6,,,
trial,html.Screen,2_1_0,2023-09-15T21:50:41.913Z,,0,0,,10834.417000000743,response,ISIC_0057368.JPG,,ISIC_0009529.JPG,ISIC_0009529.JPG,true,0,keypress(z),500,265522.6000000015,265522.30000000075,254651.736,254657.69999999925,254687.883,265579.2,1,6,2,,ISIC_0057368.JPG
sequence,flow.Sequence,2_1,2023-09-15T21:50:41.913Z,,0,,,10834.417000000743,completion,,,,,true,,,,265522.8999999985,265522.30000000075,254651.736,254657.69999999925,254687.883,265579.2,1,6,,,
trial,html.Screen,2_2_0,2023-09-15T21:50:53.459Z,,0,0,,11520.548999999999,timeout,ISIC_9758671.JPG,,ISIC_0064954.JPG,,true,,,500,277068.8999999985,277068.6000000015,265514.432,265523,265579.2,277099.749,1,6,3,,
sequence,flow.Sequence,2_2,2023-09-15T21:50:53.459Z,,0,,,11489.400000001478,completion,,,,,true,,,,277069.1000000015,277068.6000000015,265514.432,265522.8999999985,265579.2,277099.749,1,6,,,
trial,html.Screen,2_3_0,2023-09-15T21:51:03.273Z,,0,0,,9782.75099999999,response,ISIC_0005785.JPG,,ISIC_0000080.JPG,ISIC_0005785.JPG,true,1,keypress(m),500,286882.80000000075,286882.5,277059.517,277069.19999999925,277099.749,286904.958,1,6,4,,ISIC_0000080.JPG
sequence,flow.Sequence,2_3,2023-09-15T21:51:03.274Z,,0,,,9782.75099999999,completion,,,,,true,,,,286883.3999999985,286882.5,277059.517,277069.19999999925,277099.749,286904.958,1,6,,,
trial,html.Screen,2_4_0,2023-09-15T21:51:15.045Z,,0,0,,11780.440999999992,timeout,ISIC_5390060.JPG,,ISIC_7944028.JPG,,true,,,500,298654.8999999985,298654.5,286871.259,286883.6000000015,286904.958,298685.399,1,6,5,,
sequence,flow.Sequence,2_4,2023-09-15T21:51:15.046Z,,0,,,11749.542000000016,completion,,,,,true,,,,298655.30000000075,298654.5,286871.259,286883.6000000015,286904.958,298685.399,1,6,,,
trial,html.Screen,2_5_0,2023-09-15T21:51:22.588Z,,0,0,,7511.800999999279,response,ISIC_0010188.JPG,,ISIC_0794216.JPG,ISIC_0794216.JPG,true,0,keypress(z),500,306197.5,306197.19999999925,298650.677,298655.5,298685.399,306263.02,1,6,6,,ISIC_0010188.JPG
sequence,flow.Sequence,2_5,2023-09-15T21:51:22.588Z,,0,,,7511.800999999279,completion,,,,,true,,,,306197.80000000075,306197.19999999925,298650.677,298655.3999999985,298685.399,306263.02,1,6,,,
loop,flow.Loop,2,2023-09-15T21:51:22.588Z,,,,,63840.247999999265,completion,,,,,true,,,,306197.8999999985,306197.19999999925,242313.668,242325.19999999925,242356.952,306263.02,1,6,,,
exp_instructions,html.Screen,3,2023-09-15T21:52:45.565Z,,,,,82911.28000000073,response,,,,,,continue,keypress(Space),,389174.69999999925,389174.30000000075,306229.492,306198,306263.02,389177.03,,,,,
trial,html.Screen,4_0_0,2023-09-15T21:52:54.864Z,,0,1,,9296.070000001462,response,ISIC_1330008.JPG,6,ISIC_7555812.JPG,ISIC_1330008.JPG,false,1,keypress(m),500,398473.30000000075,398473.1000000015,389173.983,389174.8999999985,389177.03,398635.477,8,400,1,,ISIC_7555812.JPG
break,html.Screen,4_0_1,2023-09-15T21:52:54.865Z,,0,,,NaN,,,,,,false,,,,398473.8999999985,398473.69999999925,,398473.30000000075,,398635.477,8,400,,,
break_continue,html.Screen,4_0_2,2023-09-15T21:52:54.865Z,,0,,,NaN,,,,,,false,,,,398474,398474,,398473.8999999985,,398635.477,8,400,,,
sequence,flow.Sequence,4_0,2023-09-15T21:52:54.865Z,,0,,,9296.969999999972,completion,,,,,false,,,,398474,398474,389173.983,389174.8999999985,389177.03,398635.477,8,400,,,
trial,html.Screen,4_1_0,2023-09-15T21:53:01.465Z,,0,1,,6438.323000000732,response,ISIC_3211915.JPG,5,ISIC_6988514.JPG,ISIC_3211915.JPG,false,1,keypress(m),500,405074,405073.80000000075,398490.606,398474.1000000015,398635.477,405086.874,8,400,2,,ISIC_6988514.JPG
break,html.Screen,4_1_1,2023-09-15T21:53:01.465Z,,0,,,NaN,,,,,,false,,,,405074.6000000015,405074.3999999985,,405074.1000000015,,405086.874,8,400,,,
break_continue,html.Screen,4_1_2,2023-09-15T21:53:01.465Z,,0,,,NaN,,,,,,false,,,,405074.6000000015,405074.6000000015,,405074.6000000015,,405086.874,8,400,,,
sequence,flow.Sequence,4_1,2023-09-15T21:53:01.465Z,,0,,,6439.123000001477,completion,,,,,false,,,,405074.69999999925,405074.6000000015,398490.606,398474.1000000015,398635.477,405086.874,8,400,,,
trial,html.Screen,4_2_0,2023-09-15T21:53:13.037Z,,0,1,,11581.173999999999,timeout,ISIC_6674653.JPG,5,ISIC_0031935.JPG,,false,,,500,416646,416645.8999999985,405075.51,405075.1000000015,405086.874,416668.048,8,400,3,,
break,html.Screen,4_2_1,2023-09-15T21:53:13.037Z,,0,,,NaN,,,,,,false,,,,416646.5,416646.30000000075,,416646.1000000015,,416668.048,8,400,,,
break_continue,html.Screen,4_2_2,2023-09-15T21:53:13.037Z,,0,,,NaN,,,,,,false,,,,416646.80000000075,416646.69999999925,,416646.6000000015,,416668.048,8,400,,,
sequence,flow.Sequence,4_2,2023-09-15T21:53:13.038Z,,0,,,11559.825999999244,completion,,,,,false,,,,416646.8999999985,416646.69999999925,405075.51,405075.1000000015,405086.874,416668.048,8,400,,,
trial,html.Screen,4_3_0,2023-09-15T21:53:21.376Z,,0,1,,8317.252000000735,response,ISIC_7898061.JPG,5,ISIC_4326917.JPG,ISIC_4326917.JPG,false,0,keypress(z),500,424985.5,424985.30000000075,416651.223,416646.8999999985,416668.048,425628.318,8,400,4,,ISIC_7898061.JPG
break,html.Screen,4_3_1,2023-09-15T21:53:21.377Z,,0,,,NaN,,,,,,false,,,,424986.1000000015,424985.8999999985,,424985.6000000015,,425628.318,8,400,,,
break_continue,html.Screen,4_3_2,2023-09-15T21:53:21.377Z,,0,,,NaN,,,,,,false,,,,424986.30000000075,424986.30000000075,,424986.19999999925,,425628.318,8,400,,,
sequence,flow.Sequence,4_3,2023-09-15T21:53:21.377Z,,0,,,8318.252000000735,completion,,,,,false,,,,424986.3999999985,424986.30000000075,416651.223,416646.8999999985,416668.048,425628.318,8,400,,,
trial,html.Screen,4_4_0,2023-09-15T21:53:28.195Z,,0,1,,6175.5819999984815,response,ISIC_9803747.JPG,5,ISIC_8036175.JPG,ISIC_9803747.JPG,false,1,keypress(m),500,431804.30000000075,431803.8999999985,425399.388,424986.3999999985,425628.318,431808.704,8,400,5,,ISIC_8036175.JPG
break,html.Screen,4_4_1,2023-09-15T21:53:28.197Z,,0,,,NaN,,,,,,false,,,,431806.30000000075,431805.8999999985,,431804.69999999925,,431808.704,8,400,,,
break_continue,html.Screen,4_4_2,2023-09-15T21:53:28.198Z,,0,,,NaN,,,,,,false,,,,431807.1000000015,431806.8999999985,,431806.69999999925,,431808.704,8,400,,,
sequence,flow.Sequence,4_4,2023-09-15T21:53:28.198Z,,0,,,6178.5819999984815,completion,,,,,false,,,,431807.30000000075,431806.8999999985,425399.388,424986.3999999985,425628.318,431808.704,8,400,,,
trial,html.Screen,4_5_0,2023-09-15T21:53:35.516Z,,0,1,,7315.896000001463,response,ISIC_0031104.JPG,5,ISIC_7960321.JPG,ISIC_0031104.JPG,false,1,keypress(m),500,439125,439124.6000000015,431791.947,431807.5,431808.704,439138.721,8,400,6,,ISIC_7960321.JPG
break,html.Screen,4_5_1,2023-09-15T21:53:35.517Z,,0,,,NaN,,,,,,false,,,,439126,439125.80000000075,,439125.30000000075,,439138.721,8,400,,,
break_continue,html.Screen,4_5_2,2023-09-15T21:53:35.517Z,,0,,,NaN,,,,,,false,,,,439126.80000000075,439126.6000000015,,439126.3999999985,,439138.721,8,400,,,
sequence,flow.Sequence,4_5,2023-09-15T21:53:35.518Z,,0,,,7317.896000001463,completion,,,,,false,,,,439126.8999999985,439126.6000000015,431791.947,431807.5,431808.704,439138.721,8,400,,,
trial,html.Screen,4_6_0,2023-09-15T21:53:43.875Z,,0,1,,8345.079000000726,response,ISIC_0015226.JPG,5,ISIC_0025343.JPG,ISIC_0015226.JPG,false,1,keypress(m),500,447484,447483.80000000075,439122.65,439127.1000000015,439138.721,447501.82,8,400,7,,ISIC_0025343.JPG
break,html.Screen,4_6_1,2023-09-15T21:53:43.876Z,,0,,,NaN,,,,,,false,,,,447484.8999999985,447484.80000000075,,447484.19999999925,,447501.82,8,400,,,
break_continue,html.Screen,4_6_2,2023-09-15T21:53:43.876Z,,0,,,NaN,,,,,,false,,,,447485.30000000075,447485.19999999925,,447485.1000000015,,447501.82,8,400,,,
sequence,flow.Sequence,4_6,2023-09-15T21:53:43.876Z,,0,,,8346.478999999235,completion,,,,,false,,,,447485.3999999985,447485.19999999925,439122.65,439127,439138.721,447501.82,8,400,,,
trial,html.Screen,4_7_0,2023-09-15T21:53:49.719Z,,0,1,,5826.179999999993,response,ISIC_0014366.JPG,4,ISIC_0064606.JPG,ISIC_0014366.JPG,false,1,keypress(m),500,453328.19999999925,453328,447485.653,447485.5,447501.82,453332.644,8,400,8,,ISIC_0064606.JPG
break,html.Screen,4_7_1,2023-09-15T21:53:49.719Z,,0,,,NaN,,,,,,false,,,,453328.5,453328.3999999985,,453328.19999999925,,453332.644,8,400,,,
break_continue,html.Screen,4_7_2,2023-09-15T21:53:49.719Z,,0,,,NaN,,,,,,false,,,,453328.6000000015,453328.6000000015,,453328.6000000015,,453332.644,8,400,,,
sequence,flow.Sequence,4_7,2023-09-15T21:53:49.719Z,,0,,,5826.780000001483,completion,,,,,false,,,,453328.69999999925,453328.6000000015,447485.653,447485.5,447501.82,453332.644,8,400,,,
trial,html.Screen,4_8_0,2023-09-15T21:53:54.392Z,,0,1,,4669.156000000774,response,ISIC_0182020.JPG,6,ISIC_0008114.JPG,ISIC_0008114.JPG,false,0,keypress(z),500,458002,458001.80000000075,453316.078,453328.69999999925,453332.644,458031.098,8,400,9,,ISIC_0182020.JPG
break,html.Screen,4_8_1,2023-09-15T21:53:54.393Z,,0,,,NaN,,,,,,false,,,,458002.6000000015,458002.5,,458002.1000000015,,458031.098,8,400,,,
break_continue,html.Screen,4_8_2,2023-09-15T21:53:54.393Z,,0,,,NaN,,,,,,false,,,,458002.8999999985,458002.80000000075,,458002.69999999925,,458031.098,8,400,,,
sequence,flow.Sequence,4_8,2023-09-15T21:53:54.393Z,,0,,,4670.156000000774,completion,,,,,false,,,,458002.8999999985,458002.80000000075,453316.078,453328.69999999925,453332.644,458031.098,8,400,,,
trial,html.Screen,4_9_0,2023-09-15T21:53:59.998Z,,0,1,,5576.202000000747,response,ISIC_1444154.JPG,5,ISIC_0014722.JPG,ISIC_0014722.JPG,false,0,keypress(z),500,463607.6000000015,463607.30000000075,458004.34,458003,458031.098,463611.599,8,400,10,,ISIC_1444154.JPG
break,html.Screen,4_9_1,2023-09-15T21:53:59.999Z,,0,,,NaN,,,,,,false,,,,463608.69999999925,463608.5,,463607.8999999985,,463611.599,8,400,,,
break_continue,html.Screen,4_9_2,2023-09-15T21:54:00.000Z,,0,,,NaN,,,,,,false,,,,463609.30000000075,463609.19999999925,,463609,,463611.599,8,400,,,
sequence,flow.Sequence,4_9,2023-09-15T21:54:00.000Z,,0,,,5578.101999999257,completion,,,,,false,,,,463609.6000000015,463609.19999999925,458004.34,458003,458031.098,463611.599,8,400,,,
trial,html.Screen,4_10_0,2023-09-15T21:54:08.216Z,,0,1,,8213.501000001503,response,ISIC_3136228.JPG,4,ISIC_5218530.JPG,ISIC_5218530.JPG,false,0,keypress(z),500,471825.30000000075,471825.1000000015,463595.192,463609.69999999925,463611.599,471874.848,8,400,11,,ISIC_3136228.JPG
break,html.Screen,4_10_1,2023-09-15T21:54:08.217Z,,0,,,NaN,,,,,,false,,,,471826.19999999925,471826,,471825.5,,471874.848,8,400,,,
break_continue,html.Screen,4_10_2,2023-09-15T21:54:08.217Z,,0,,,NaN,,,,,,false,,,,471826.30000000075,471826.30000000075,,471826.19999999925,,471874.848,8,400,,,
sequence,flow.Sequence,4_10,2023-09-15T21:54:08.217Z,,0,,,8214.701000000758,completion,,,,,false,,,,471826.3999999985,471826.30000000075,463595.192,463609.69999999925,463611.599,471874.848,8,400,,,
trial,html.Screen,4_11_0,2023-09-15T21:54:13.450Z,,0,1,,5184.652000000002,response,ISIC_0028126.JPG,5,ISIC_0023811.JPG,ISIC_0028126.JPG,false,1,keypress(m),500,477059.69999999925,477059.5,471841.896,471826.5,471874.848,477092.33,8,400,12,,ISIC_0023811.JPG
break,html.Screen,4_11_1,2023-09-15T21:54:13.451Z,,0,,,NaN,,,,,,false,,,,477060.19999999925,477060.1000000015,,477059.80000000075,,477092.33,8,400,,,
break_continue,html.Screen,4_11_2,2023-09-15T21:54:13.451Z,,0,,,NaN,,,,,,false,,,,477060.3999999985,477060.3999999985,,477060.30000000075,,477092.33,8,400,,,
sequence,flow.Sequence,4_11,2023-09-15T21:54:13.451Z,,0,,,5185.551999998512,completion,,,,,false,,,,477060.3999999985,477060.3999999985,471841.896,471826.5,471874.848,477092.33,8,400,,,
trial,html.Screen,4_12_0,2023-09-15T21:54:21.372Z,,0,1,,7888.770000001474,response,ISIC_0002821.JPG,6,ISIC_0012512.JPG,ISIC_0002821.JPG,false,1,keypress(m),500,484981.5,484981.1000000015,477055.756,477060.5,477092.33,485003.801,8,400,13,,ISIC_0012512.JPG
break,html.Screen,4_12_1,2023-09-15T21:54:21.374Z,,0,,,NaN,,,,,,false,,,,484983.19999999925,484982.8999999985,,484982,,485003.801,8,400,,,
break_continue,html.Screen,4_12_2,2023-09-15T21:54:21.374Z,,0,,,NaN,,,,,,false,,,,484983.69999999925,484983.6000000015,,484983.3999999985,,485003.801,8,400,,,
sequence,flow.Sequence,4_12,2023-09-15T21:54:21.375Z,,0,,,7891.270000001474,completion,,,,,false,,,,484984,484983.6000000015,477055.756,477060.5,477092.33,485003.801,8,400,,,
trial,html.Screen,4_13_0,2023-09-15T21:54:30.212Z,,0,1,,8817.199000000022,response,ISIC_4183816.JPG,5,ISIC_0013702.JPG,ISIC_4183816.JPG,false,1,keypress(m),500,493821.30000000075,493821,484985.908,484984.1000000015,485003.801,493851.284,8,400,14,,ISIC_0013702.JPG
break,html.Screen,4_13_1,2023-09-15T21:54:30.213Z,,0,,,NaN,,,,,,false,,,,493822.19999999925,493822,,493821.5,,493851.284,8,400,,,
break_continue,html.Screen,4_13_2,2023-09-15T21:54:30.213Z,,0,,,NaN,,,,,,false,,,,493822.3999999985,493822.30000000075,,493822.19999999925,,493851.284,8,400,,,
sequence,flow.Sequence,4_13,2023-09-15T21:54:30.213Z,,0,,,8818.499000000767,completion,,,,,false,,,,493822.5,493822.30000000075,484985.908,484984.1000000015,485003.801,493851.284,8,400,,,
trial,html.Screen,4_14_0,2023-09-15T21:54:34.983Z,,0,1,,4740.51600000076,response,ISIC_4642695.JPG,5,ISIC_7779155.JPG,ISIC_7779155.JPG,false,0,keypress(z),500,498592,498591.80000000075,493815.636,493822.6000000015,493851.284,498614.419,8,400,15,,ISIC_4642695.JPG
break,html.Screen,4_14_1,2023-09-15T21:54:34.983Z,,0,,,NaN,,,,,,false,,,,498592.8999999985,498592.80000000075,,498592.19999999925,,498614.419,8,400,,,
break_continue,html.Screen,4_14_2,2023-09-15T21:54:34.984Z,,0,,,NaN,,,,,,false,,,,498593.19999999925,498593.1000000015,,498593,,498614.419,8,400,,,
sequence,flow.Sequence,4_14,2023-09-15T21:54:34.984Z,,0,,,4741.816000001505,completion,,,,,false,,,,498593.30000000075,498593.1000000015,493815.636,493822.5,493851.284,498614.419,8,400,,,
trial,html.Screen,4_15_0,2023-09-15T21:54:40.506Z,,0,1,,5501.081000000006,response,ISIC_0024980.JPG,5,ISIC_7145788.JPG,ISIC_7145788.JPG,false,0,keypress(z),500,504115.80000000075,504115.5,498580.25,498593.3999999985,498614.419,504127.447,8,400,16,,ISIC_0024980.JPG
break,html.Screen,4_15_1,2023-09-15T21:54:40.508Z,,0,,,NaN,,,,,,false,,,,504117.19999999925,504117,,504116.30000000075,,504127.447,8,400,,,
break_continue,html.Screen,4_15_2,2023-09-15T21:54:40.508Z,,0,,,NaN,,,,,,false,,,,504117.6000000015,504117.5,,504117.3999999985,,504127.447,8,400,,,
sequence,flow.Sequence,4_15,2023-09-15T21:54:40.508Z,,0,,,5503.081000000006,completion,,,,,false,,,,504117.80000000075,504117.5,498580.25,498593.3999999985,498614.419,504127.447,8,400,,,
trial,html.Screen,4_16_0,2023-09-15T21:54:49.697Z,,0,1,,9178.452999998524,response,ISIC_0000135.JPG,5,ISIC_1269461.JPG,ISIC_0000135.JPG,false,1,keypress(m),500,513306.19999999925,513305.8999999985,504116.194,504117.8999999985,504127.447,513324.017,8,400,17,,ISIC_1269461.JPG
break,html.Screen,4_16_1,2023-09-15T21:54:49.698Z,,0,,,NaN,,,,,,false,,,,513307.69999999925,513307.3999999985,,513306.6000000015,,513324.017,8,400,,,
break_continue,html.Screen,4_16_2,2023-09-15T21:54:49.699Z,,0,,,NaN,,,,,,false,,,,513308.3999999985,513308.19999999925,,513307.8999999985,,513324.017,8,400,,,
sequence,flow.Sequence,4_16,2023-09-15T21:54:49.699Z,,0,,,9180.75299999927,completion,,,,,false,,,,513308.6000000015,513308.19999999925,504116.194,504117.80000000075,504127.447,513324.017,8,400,,,
trial,html.Screen,4_17_0,2023-09-15T21:54:55.093Z,,0,1,,5378.382999998517,response,ISIC_4771769.JPG,5,ISIC_4950467.JPG,ISIC_4950467.JPG,false,0,keypress(z),500,518702.6000000015,518702.3999999985,513306.879,513308.69999999925,513324.017,518725.369,8,400,18,,ISIC_4771769.JPG
break,html.Screen,4_17_1,2023-09-15T21:54:55.094Z,,0,,,NaN,,,,,,false,,,,518703.5,518703.3999999985,,518702.80000000075,,518725.369,8,400,,,
break_continue,html.Screen,4_17_2,2023-09-15T21:54:55.094Z,,0,,,NaN,,,,,,false,,,,518703.80000000075,518703.6000000015,,518703.6000000015,,518725.369,8,400,,,
sequence,flow.Sequence,4_17,2023-09-15T21:54:55.094Z,,0,,,5379.583000001498,completion,,,,,false,,,,518703.80000000075,518703.6000000015,513306.879,513308.69999999925,513324.017,518725.369,8,400,,,
trial,html.Screen,4_18_0,2023-09-15T21:55:05.384Z,,0,1,,10268.431000000739,response,ISIC_9337870.JPG,5,ISIC_0033168.JPG,ISIC_9337870.JPG,false,1,keypress(m),500,528994,528993.8000000007,518704.845,518704,518725.369,529006.039,8,400,19,,ISIC_0033168.JPG
break,html.Screen,4_18_1,2023-09-15T21:55:05.385Z,,0,,,NaN,,,,,,false,,,,528994.8000000007,528994.6000000015,,528994.1999999993,,529006.039,8,400,,,
break_continue,html.Screen,4_18_2,2023-09-15T21:55:05.386Z,,0,,,NaN,,,,,,false,,,,528995.1000000015,528995.1000000015,,528995,,529006.039,8,400,,,
sequence,flow.Sequence,4_18,2023-09-15T21:55:05.386Z,,0,,,10269.731000001484,completion,,,,,false,,,,528995.6000000015,528995.1000000015,518704.845,518704,518725.369,529006.039,8,400,,,
trial,html.Screen,4_19_0,2023-09-15T21:55:12.108Z,,0,1,,6711.5610000015,response,ISIC_2864893.JPG,7,ISIC_4955457.JPG,ISIC_2864893.JPG,false,1,keypress(m),500,535717.8999999985,535717.6000000015,528983.553,528995.8000000007,529006.039,535730.539,8,400,20,,ISIC_4955457.JPG
break,html.Screen,4_19_1,2023-09-15T21:55:12.110Z,,0,,,NaN,,,,,,false,,,,535719,535718.8000000007,,535718.1999999993,,535730.539,8,400,,,
break_continue,html.Screen,4_19_2,2023-09-15T21:55:12.110Z,,0,,,NaN,,,,,,false,,,,535719.3999999985,535719.3000000007,,535719.1000000015,,535730.539,8,400,,,
sequence,flow.Sequence,4_19,2023-09-15T21:55:12.110Z,,0,,,6713.261000000755,completion,,,,,false,,,,535719.5,535719.3000000007,528983.553,528995.8000000007,529006.039,535730.539,8,400,,,
trial,html.Screen,4_20_0,2023-09-15T21:55:17.360Z,,0,1,,5239.160999999265,response,ISIC_0029562.JPG,5,ISIC_0000173.JPG,ISIC_0029562.JPG,false,1,keypress(m),500,540969.8000000007,540969.6999999993,535713.652,535719.6000000015,535730.539,540996.134,8,400,21,,ISIC_0000173.JPG
break,html.Screen,4_20_1,2023-09-15T21:55:17.361Z,,0,,,NaN,,,,,,false,,,,540970.6000000015,540970.5,,540970,,540996.134,8,400,,,
break_continue,html.Screen,4_20_2,2023-09-15T21:55:17.361Z,,0,,,NaN,,,,,,false,,,,540970.8999999985,540970.8000000007,,540970.6999999993,,540996.134,8,400,,,
sequence,flow.Sequence,4_20,2023-09-15T21:55:17.362Z,,0,,,5240.261000000755,completion,,,,,false,,,,540971,540970.8000000007,535713.652,535719.6000000015,535730.539,540996.134,8,400,,,
trial,html.Screen,4_21_0,2023-09-15T21:55:22.643Z,,0,1,,5255.866000000038,response,ISIC_0033180.JPG,5,ISIC_2200197.JPG,ISIC_0033180.JPG,false,1,keypress(m),500,546252,546252,540961.822,540971.1000000015,540996.134,546276.462,8,400,22,,ISIC_2200197.JPG
break,html.Screen,4_21_1,2023-09-15T21:55:22.643Z,,0,,,NaN,,,,,,false,,,,546252.6000000015,546252.5,,546252.1999999993,,546276.462,8,400,,,
break_continue,html.Screen,4_21_2,2023-09-15T21:55:22.643Z,,0,,,NaN,,,,,,false,,,,546252.8999999985,546252.8000000007,,546252.6999999993,,546276.462,8,400,,,
sequence,flow.Sequence,4_21,2023-09-15T21:55:22.643Z,,0,,,5256.666000000783,completion,,,,,false,,,,546253,546252.8000000007,540961.822,540971.1000000015,540996.134,546276.462,8,400,,,
trial,html.Screen,4_22_0,2023-09-15T21:55:26.471Z,,0,1,,3803.5379999999423,response,ISIC_3094758.JPG,5,ISIC_0053574.JPG,ISIC_0053574.JPG,false,0,keypress(z),500,550080.1000000015,550080,546242.541,546253,546276.462,550090.868,8,400,23,,ISIC_3094758.JPG
break,html.Screen,4_22_1,2023-09-15T21:55:26.472Z,,0,,,NaN,,,,,,false,,,,550081.3999999985,550081.1999999993,,550080.3000000007,,550090.868,8,400,,,
break_continue,html.Screen,4_22_2,2023-09-15T21:55:26.472Z,,0,,,NaN,,,,,,false,,,,550081.6999999993,550081.6000000015,,550081.5,,550090.868,8,400,,,
sequence,flow.Sequence,4_22,2023-09-15T21:55:26.472Z,,0,,,3805.1380000014324,completion,,,,,false,,,,550081.8000000007,550081.6000000015,546242.541,546253,546276.462,550090.868,8,400,,,
trial,html.Screen,4_23_0,2023-09-15T21:55:34.097Z,,0,1,,7616.031999998493,response,ISIC_1641823.JPG,6,ISIC_0034048.JPG,ISIC_1641823.JPG,false,1,keypress(m),500,557706.8999999985,557706.8999999985,550067.301,550081.8999999985,550090.868,557721.938,8,400,24,,ISIC_0034048.JPG
break,html.Screen,4_23_1,2023-09-15T21:55:34.098Z,,0,,,NaN,,,,,,false,,,,557707.3999999985,557707.3000000007,,557707.1000000015,,557721.938,8,400,,,
break_continue,html.Screen,4_23_2,2023-09-15T21:55:34.098Z,,0,,,NaN,,,,,,false,,,,557707.6000000015,557707.5,,557707.5,,557721.938,8,400,,,
sequence,flow.Sequence,4_23,2023-09-15T21:55:34.098Z,,0,,,7616.631999999983,completion,,,,,false,,,,557707.6999999993,557707.5,550067.301,550081.8999999985,550090.868,557721.938,8,400,,,
trial,html.Screen,4_24_0,2023-09-15T21:55:40.316Z,,0,1,,6202.761999999289,response,ISIC_7253401.JPG,6,ISIC_0025093.JPG,ISIC_0025093.JPG,false,0,keypress(z),500,563925.1999999993,563924.6999999993,557704.401,557707.6999999993,557721.938,564008.902,8,400,25,,ISIC_7253401.JPG
break,html.Screen,4_24_1,2023-09-15T21:55:40.317Z,,0,,,NaN,,,,,,false,,,,563926.5,563926.1999999993,,563925.3999999985,,564008.902,8,400,,,
break_continue,html.Screen,4_24_2,2023-09-15T21:55:40.317Z,,0,,,NaN,,,,,,false,,,,563926.8999999985,563926.8999999985,,563926.6000000015,,564008.902,8,400,,,
sequence,flow.Sequence,4_24,2023-09-15T21:55:40.318Z,,0,,,6204.961999998544,completion,,,,,false,,,,563927.1000000015,563926.8999999985,557704.401,557707.6999999993,557721.938,564008.902,8,400,,,
trial,html.Screen,4_25_0,2023-09-15T21:55:51.015Z,,0,1,,10615.398000000743,response,ISIC_9114539.JPG,5,ISIC_4099428.JPG,ISIC_4099428.JPG,false,0,keypress(z),500,574624.5,574624.3000000007,563985.338,563927.1999999993,564008.902,574649.155,8,400,26,,ISIC_9114539.JPG
break,html.Screen,4_25_1,2023-09-15T21:55:51.016Z,,0,,,NaN,,,,,,false,,,,574626.1000000015,574625,,574624.6000000015,,574649.155,8,400,,,
break_continue,html.Screen,4_25_2,2023-09-15T21:55:51.017Z,,0,,,NaN,,,,,,false,,,,574626.3000000007,574626.1999999993,,574626.1000000015,,574649.155,8,400,,,
sequence,flow.Sequence,4_25,2023-09-15T21:55:51.017Z,,0,,,10617.297999999253,completion,,,,,false,,,,574626.3999999985,574626.1999999993,563985.338,563927.1000000015,564008.902,574649.155,8,400,,,
trial,html.Screen,4_26_0,2023-09-15T21:55:55.995Z,,0,1,,4955.145000000717,response,ISIC_6613150.JPG,6,ISIC_3181358.JPG,ISIC_3181358.JPG,false,0,keypress(z),500,579604.5,579604.3000000007,574614.696,574626.5,574649.155,579629.406,8,400,27,,ISIC_6613150.JPG
break,html.Screen,4_26_1,2023-09-15T21:55:55.996Z,,0,,,NaN,,,,,,false,,,,579605.3999999985,579605.1999999993,,579604.8000000007,,579629.406,8,400,,,
break_continue,html.Screen,4_26_2,2023-09-15T21:55:55.996Z,,0,,,NaN,,,,,,false,,,,579605.6000000015,579605.6000000015,,579605.5,,579629.406,8,400,,,
sequence,flow.Sequence,4_26,2023-09-15T21:55:55.996Z,,0,,,4956.445000001462,completion,,,,,false,,,,579605.8000000007,579605.6000000015,574614.696,574626.3999999985,574649.155,579629.406,8,400,,,
trial,html.Screen,4_27_0,2023-09-15T21:56:02.734Z,,0,1,,6714.094000000041,response,ISIC_7533983.JPG,5,ISIC_4691943.JPG,ISIC_7533983.JPG,false,1,keypress(m),500,586343.8000000007,586343.5,579594.945,579605.8000000007,579629.406,586358.729,8,400,28,,ISIC_4691943.JPG
break,html.Screen,4_27_1,2023-09-15T21:56:02.735Z,,0,,,NaN,,,,,,false,,,,586344.6999999993,586344.5,,586344,,586358.729,8,400,,,
break_continue,html.Screen,4_27_2,2023-09-15T21:56:02.735Z,,0,,,NaN,,,,,,false,,,,586344.8999999985,586344.8000000007,,586344.8000000007,,586358.729,8,400,,,
sequence,flow.Sequence,4_27,2023-09-15T21:56:02.735Z,,0,,,6715.394000000786,completion,,,,,false,,,,586345,586344.8000000007,579594.945,579605.8000000007,579629.406,586358.729,8,400,,,
trial,html.Screen,4_28_0,2023-09-15T21:56:08.465Z,,0,1,,5715.37100000144,response,ISIC_0009903.JPG,5,ISIC_9073150.JPG,ISIC_9073150.JPG,false,0,keypress(z),500,592074.3999999985,592074.1000000015,586342.257,586345.1000000015,586358.729,592089.643,8,400,29,,ISIC_0009903.JPG
break,html.Screen,4_28_1,2023-09-15T21:56:08.465Z,,0,,,NaN,,,,,,false,,,,592075.1000000015,592075,,592074.5,,592089.643,8,400,,,
break_continue,html.Screen,4_28_2,2023-09-15T21:56:08.466Z,,0,,,NaN,,,,,,false,,,,592075.3000000007,592075.1999999993,,592075.1999999993,,592089.643,8,400,,,
sequence,flow.Sequence,4_28,2023-09-15T21:56:08.466Z,,0,,,5716.470999999205,completion,,,,,false,,,,592075.3999999985,592075.1999999993,586342.257,586345.1000000015,586358.729,592089.643,8,400,,,
trial,html.Screen,4_29_0,2023-09-15T21:56:16.490Z,,0,1,,8010.25699999847,response,ISIC_4372519.JPG,5,ISIC_1081051.JPG,ISIC_4372519.JPG,false,1,keypress(m),500,600100,600099.8999999985,592072.519,592075.5,592089.643,600137.747,8,400,30,,ISIC_1081051.JPG
break,html.Screen,4_29_1,2023-09-15T21:56:16.491Z,,0,,,NaN,,,,,,false,,,,600100.5,600100.3999999985,,600100.1000000015,,600137.747,8,400,,,
break_continue,html.Screen,4_29_2,2023-09-15T21:56:16.491Z,,0,,,NaN,,,,,,false,,,,600100.6000000015,600100.6000000015,,600100.5,,600137.747,8,400,,,
sequence,flow.Sequence,4_29,2023-09-15T21:56:16.491Z,,0,,,8010.95700000145,completion,,,,,false,,,,600100.6999999993,600100.6000000015,592072.519,592075.5,592089.643,600137.747,8,400,,,
trial,html.Screen,4_30_0,2023-09-15T21:56:25.105Z,,0,1,,8577.053000000771,response,ISIC_5732374.JPG,5,ISIC_0060390.JPG,ISIC_5732374.JPG,false,1,keypress(m),500,608715,608714.8000000007,600103.238,600100.6999999993,600137.747,608732.369,8,400,31,,ISIC_0060390.JPG
break,html.Screen,4_30_1,2023-09-15T21:56:25.106Z,,0,,,NaN,,,,,,false,,,,608715.8999999985,608715.8000000007,,608715.1999999993,,608732.369,8,400,,,
break_continue,html.Screen,4_30_2,2023-09-15T21:56:25.106Z,,0,,,NaN,,,,,,false,,,,608716.1000000015,608716.1000000015,,608716,,608732.369,8,400,,,
sequence,flow.Sequence,4_30,2023-09-15T21:56:25.107Z,,0,,,8578.353000001516,completion,,,,,false,,,,608716.1999999993,608716.1000000015,600103.238,600100.6999999993,600137.747,608732.369,8,400,,,
trial,html.Screen,4_31_0,2023-09-15T21:56:36.602Z,,0,1,,11564.283000000054,timeout,ISIC_0031386.JPG,4,ISIC_0066358.JPG,,false,,,500,620212.1000000015,620211.8000000007,608715.968,608716.3000000007,608732.369,620296.652,8,400,32,,
break,html.Screen,4_31_1,2023-09-15T21:56:36.603Z,,0,,,NaN,,,,,,false,,,,620212.6999999993,620212.6000000015,,620212.1999999993,,620296.652,8,400,,,
break_continue,html.Screen,4_31_2,2023-09-15T21:56:36.603Z,,0,,,NaN,,,,,,false,,,,620213,620213,,620212.8999999985,,620296.652,8,400,,,
sequence,flow.Sequence,4_31,2023-09-15T21:56:36.603Z,,0,,,11480.631000000052,completion,,,,,false,,,,620213.1999999993,620213,608715.968,608716.1999999993,608732.369,620296.652,8,400,,,
trial,html.Screen,4_32_0,2023-09-15T21:56:41.677Z,,0,1,,4989.747999998508,response,ISIC_3496800.JPG,5,ISIC_0024256.JPG,ISIC_0024256.JPG,false,0,keypress(z),500,625286.6000000015,625286.3999999985,620229.686,620213.3000000007,620296.652,625449.418,8,400,33,,ISIC_3496800.JPG
break,html.Screen,4_32_1,2023-09-15T21:56:41.678Z,,0,,,NaN,,,,,,false,,,,625287.3000000007,625287.1000000015,,625286.6000000015,,625449.418,8,400,,,
break_continue,html.Screen,4_32_2,2023-09-15T21:56:41.678Z,,0,,,NaN,,,,,,false,,,,625287.5,625287.5,,625287.3999999985,,625449.418,8,400,,,
sequence,flow.Sequence,4_32,2023-09-15T21:56:41.678Z,,0,,,4990.847999999998,completion,,,,,false,,,,625287.6999999993,625287.5,620229.686,620213.1999999993,620296.652,625449.418,8,400,,,
trial,html.Screen,4_33_0,2023-09-15T21:56:46.672Z,,0,1,,4831.582000000053,response,ISIC_5354827.JPG,6,ISIC_0014347.JPG,ISIC_0014347.JPG,false,0,keypress(z),500,630281.1000000015,630281,625425.522,625287.6999999993,625449.418,630344.451,8,400,34,,ISIC_5354827.JPG
break,html.Screen,4_33_1,2023-09-15T21:56:46.672Z,,0,,,NaN,,,,,,false,,,,630281.8000000007,630281.8000000007,,630281.6000000015,,630344.451,8,400,,,
break_continue,html.Screen,4_33_2,2023-09-15T21:56:46.673Z,,0,,,NaN,,,,,,false,,,,630281.8999999985,630281.8999999985,,630281.8999999985,,630344.451,8,400,,,
sequence,flow.Sequence,4_33,2023-09-15T21:56:46.673Z,,0,,,4832.481999998563,completion,,,,,false,,,,630282,630281.8999999985,625425.522,625287.6999999993,625449.418,630344.451,8,400,,,
trial,html.Screen,4_34_0,2023-09-15T21:56:53.701Z,,0,1,,6966.149000001489,response,ISIC_4153542.JPG,5,ISIC_1509635.JPG,ISIC_4153542.JPG,false,1,keypress(m),500,637310.6999999993,637310.6000000015,630289.926,630282,630344.451,637320.201,8,400,35,,ISIC_1509635.JPG
break,html.Screen,4_34_1,2023-09-15T21:56:53.702Z,,0,,,NaN,,,,,,false,,,,637311.3000000007,637311.1999999993,,637310.8000000007,,637320.201,8,400,,,
break_continue,html.Screen,4_34_2,2023-09-15T21:56:53.702Z,,0,,,NaN,,,,,,false,,,,637311.6000000015,637311.5,,637311.3999999985,,637320.201,8,400,,,
sequence,flow.Sequence,4_34,2023-09-15T21:56:53.702Z,,0,,,6967.048999999999,completion,,,,,false,,,,637311.6999999993,637311.5,630289.926,630282,630344.451,637320.201,8,400,,,
trial,html.Screen,4_35_0,2023-09-15T21:56:59.592Z,,0,1,,5880.498999999254,response,ISIC_0032762.JPG,5,ISIC_7973296.JPG,ISIC_7973296.JPG,false,0,keypress(z),500,643200.8999999985,643200.6999999993,637303.633,637311.6999999993,637320.201,643217.548,8,400,36,,ISIC_0032762.JPG
break,html.Screen,4_35_1,2023-09-15T21:56:59.593Z,,0,,,NaN,,,,,,false,,,,643202.1999999993,643202,,643201.1999999993,,643217.548,8,400,,,
break_continue,html.Screen,4_35_2,2023-09-15T21:56:59.593Z,,0,,,NaN,,,,,,false,,,,643202.6999999993,643202.6000000015,,643202.5,,643217.548,8,400,,,
sequence,flow.Sequence,4_35,2023-09-15T21:56:59.593Z,,0,,,5882.399000001489,completion,,,,,false,,,,643202.8999999985,643202.6000000015,637303.633,637311.6999999993,637320.201,643217.548,8,400,,,
trial,html.Screen,4_36_0,2023-09-15T21:57:06.303Z,,0,1,,6694.2520000007935,response,ISIC_0061085.JPG,5,ISIC_9699238.JPG,ISIC_9699238.JPG,false,0,keypress(Z),500,649912,649911.8000000007,643200.753,643203.1000000015,643217.548,649914.517,8,400,37,,ISIC_0061085.JPG
break,html.Screen,4_36_1,2023-09-15T21:57:06.304Z,,0,,,NaN,,,,,,false,,,,649913,649912.8000000007,,649912.3000000007,,649914.517,8,400,,,
break_continue,html.Screen,4_36_2,2023-09-15T21:57:06.304Z,,0,,,NaN,,,,,,false,,,,649913.3999999985,649913.3000000007,,649913.1000000015,,649914.517,8,400,,,
sequence,flow.Sequence,4_36,2023-09-15T21:57:06.304Z,,0,,,6695.7520000007935,completion,,,,,false,,,,649913.5,649913.3000000007,643200.753,643203,643217.548,649914.517,8,400,,,
trial,html.Screen,4_37_0,2023-09-15T21:57:11.444Z,,0,1,,5138.382999998517,response,ISIC_0068382.JPG,4,ISIC_0014428.JPG,ISIC_0014428.JPG,false,0,keypress(Z),500,655053.1000000015,655052.8999999985,649898.08,649913.6000000015,649914.517,655095.804,8,400,38,,ISIC_0068382.JPG
break,html.Screen,4_37_1,2023-09-15T21:57:11.444Z,,0,,,NaN,,,,,,false,,,,655053.6999999993,655053.6000000015,,655053.3000000007,,655095.804,8,400,,,
break_continue,html.Screen,4_37_2,2023-09-15T21:57:11.445Z,,0,,,NaN,,,,,,false,,,,655054,655053.8999999985,,655053.8000000007,,655095.804,8,400,,,
sequence,flow.Sequence,4_37,2023-09-15T21:57:11.445Z,,0,,,5139.382999998517,completion,,,,,false,,,,655054,655053.8999999985,649898.08,649913.6000000015,649914.517,655095.804,8,400,,,
trial,html.Screen,4_38_0,2023-09-15T21:57:17.194Z,,0,1,,5707.095999998506,response,ISIC_0029214.JPG,5,ISIC_5706192.JPG,ISIC_5706192.JPG,false,0,keypress(Z),500,660803.1999999993,660802.8999999985,655062.664,655054.1000000015,655095.804,660815.588,8,400,39,,ISIC_0029214.JPG
break,html.Screen,4_38_1,2023-09-15T21:57:17.195Z,,0,,,NaN,,,,,,false,,,,660804.3999999985,660804.1000000015,,660803.5,,660815.588,8,400,,,
break_continue,html.Screen,4_38_2,2023-09-15T21:57:17.196Z,,0,,,NaN,,,,,,false,,,,660805.1999999993,660804.6000000015,,660804.5,,660815.588,8,400,,,
sequence,flow.Sequence,4_38,2023-09-15T21:57:17.196Z,,0,,,5708.796000001486,completion,,,,,false,,,,660805.3999999985,660804.6000000015,655062.664,655054.1000000015,655095.804,660815.588,8,400,,,
trial,html.Screen,4_39_0,2023-09-15T21:57:28.697Z,,0,1,,11715.83600000001,timeout,ISIC_5414609.JPG,5,ISIC_1344537.JPG,,false,,,500,672306.8999999985,672306.8000000007,660794.004,660805.6000000015,660815.588,672531.424,8,400,40,,
break,html.Screen,4_39_1,2023-09-15T21:57:28.698Z,,0,,,NaN,,,,,,false,,,,672307.1000000015,672307.1000000015,,672307,,672531.424,8,400,,,
break_continue,html.Screen,4_39_2,2023-09-15T21:57:28.698Z,,0,,,NaN,,,,,,false,,,,672307.1999999993,672307.1999999993,,672307.1999999993,,672531.424,8,400,,,
sequence,flow.Sequence,4_39,2023-09-15T21:57:28.698Z,,0,,,11491.611999999266,completion,,,,,false,,,,672307.1999999993,672307.1999999993,660794.004,660805.6000000015,660815.588,672531.424,8,400,,,
trial,html.Screen,4_40_0,2023-09-15T21:57:38.495Z,,0,1,,9572.376000000746,response,ISIC_0011700.JPG,6,ISIC_0065324.JPG,ISIC_0065324.JPG,false,0,keypress(Z),500,682104.1000000015,682103.8000000007,672321.523,672307.3000000007,672531.424,682117.511,8,400,41,,ISIC_0011700.JPG
break,html.Screen,4_40_1,2023-09-15T21:57:38.497Z,,0,,,NaN,,,,,,false,,,,682106.6000000015,682104.6000000015,,682104.1999999993,,682117.511,8,400,,,
break_continue,html.Screen,4_40_2,2023-09-15T21:57:38.497Z,,0,,,NaN,,,,,,false,,,,682106.8000000007,682106.8000000007,,682106.6000000015,,682117.511,8,400,,,
sequence,flow.Sequence,4_40,2023-09-15T21:57:38.497Z,,0,,,9575.376000000746,completion,,,,,false,,,,682106.8999999985,682106.8000000007,672321.523,672307.3000000007,672531.424,682117.511,8,400,,,
trial,html.Screen,4_41_0,2023-09-15T21:57:45.395Z,,0,1,,6886.789000000688,response,ISIC_0027576.JPG,5,ISIC_1883330.JPG,ISIC_1883330.JPG,false,0,keypress(Z),500,689004.6999999993,689004.3000000007,682101.277,682107,682117.511,689016.146,8,400,42,,ISIC_0027576.JPG
break,html.Screen,4_41_1,2023-09-15T21:57:45.396Z,,0,,,NaN,,,,,,false,,,,689005.8000000007,689005.5,,689005,,689016.146,8,400,,,
break_continue,html.Screen,4_41_2,2023-09-15T21:57:45.397Z,,0,,,NaN,,,,,,false,,,,689006.1999999993,689006.1999999993,,689006,,689016.146,8,400,,,
sequence,flow.Sequence,4_41,2023-09-15T21:57:45.397Z,,0,,,6888.688999999198,completion,,,,,false,,,,689006.3999999985,689006.1999999993,682101.277,682107,682117.511,689016.146,8,400,,,
trial,html.Screen,4_42_0,2023-09-15T21:57:51.192Z,,0,1,,5784.75399999856,response,ISIC_0029885.JPG,5,ISIC_0064033.JPG,ISIC_0064033.JPG,false,0,keypress(Z),500,694801.1000000015,694800.8999999985,688997.835,689006.6000000015,689016.146,694811.934,8,400,43,,ISIC_0029885.JPG
break,html.Screen,4_42_1,2023-09-15T21:57:51.192Z,,0,,,NaN,,,,,,false,,,,694801.8999999985,694801.8000000007,,694801.1999999993,,694811.934,8,400,,,
break_continue,html.Screen,4_42_2,2023-09-15T21:57:51.193Z,,0,,,NaN,,,,,,false,,,,694802.1999999993,694802.1000000015,,694802.1000000015,,694811.934,8,400,,,
sequence,flow.Sequence,4_42,2023-09-15T21:57:51.193Z,,0,,,5785.95400000154,completion,,,,,false,,,,694802.1999999993,694802.1000000015,688997.835,689006.6000000015,689016.146,694811.934,8,400,,,
trial,html.Screen,4_43_0,2023-09-15T21:57:55.786Z,,0,1,,4583.666000001482,response,ISIC_0000040.JPG,5,ISIC_0033463.JPG,ISIC_0033463.JPG,false,0,keypress(Z),500,699395.6999999993,699395.6000000015,694803.132,694802.3999999985,694811.934,699410.479,8,400,44,,ISIC_0000040.JPG
break,html.Screen,4_43_1,2023-09-15T21:57:55.787Z,,0,,,NaN,,,,,,false,,,,699396.6000000015,699396.3999999985,,699395.8999999985,,699410.479,8,400,,,
break_continue,html.Screen,4_43_2,2023-09-15T21:57:55.787Z,,0,,,NaN,,,,,,false,,,,699396.8000000007,699396.8000000007,,699396.6999999993,,699410.479,8,400,,,
sequence,flow.Sequence,4_43,2023-09-15T21:57:55.787Z,,0,,,4584.866000000737,completion,,,,,false,,,,699397,699396.8000000007,694803.132,694802.3000000007,694811.934,699410.479,8,400,,,
trial,html.Screen,4_44_0,2023-09-15T21:58:05.301Z,,0,1,,9499.52099999995,response,ISIC_1809444.JPG,5,ISIC_0067417.JPG,ISIC_0067417.JPG,false,0,keypress(Z),500,708910.1999999993,708910,699393.316,699397,699410.479,708982.947,8,400,45,,ISIC_1809444.JPG
break,html.Screen,4_44_1,2023-09-15T21:58:05.301Z,,0,,,NaN,,,,,,false,,,,708911,708910.8000000007,,708910.3999999985,,708982.947,8,400,,,
break_continue,html.Screen,4_44_2,2023-09-15T21:58:05.302Z,,0,,,NaN,,,,,,false,,,,708911.3000000007,708911.1999999993,,708911.1000000015,,708982.947,8,400,,,
sequence,flow.Sequence,4_44,2023-09-15T21:58:05.302Z,,0,,,9500.720999999205,completion,,,,,false,,,,708911.3000000007,708911.1999999993,699393.316,699397,699410.479,708982.947,8,400,,,
trial,html.Screen,4_45_0,2023-09-15T21:58:13.997Z,,0,1,,8623.552999999956,response,ISIC_4347535.JPG,10,ISIC_6162545.JPG,ISIC_6162545.JPG,false,0,keypress(Z),500,717606.6000000015,717606.5,708905.895,708911.3999999985,708982.947,717618.685,8,400,46,,ISIC_4347535.JPG
break,html.Screen,4_45_1,2023-09-15T21:58:13.998Z,,0,,,NaN,,,,,,false,,,,717607.5,717607.1000000015,,717606.6999999993,,717618.685,8,400,,,
break_continue,html.Screen,4_45_2,2023-09-15T21:58:13.998Z,,0,,,NaN,,,,,,false,,,,717607.8000000007,717607.6999999993,,717607.6999999993,,717618.685,8,400,,,
sequence,flow.Sequence,4_45,2023-09-15T21:58:13.998Z,,0,,,8624.752999999211,completion,,,,,false,,,,717607.8999999985,717607.6999999993,708905.895,708911.3999999985,708982.947,717618.685,8,400,,,
trial,html.Screen,4_46_0,2023-09-15T21:58:23.319Z,,0,1,,9309.61500000069,response,ISIC_2366727.JPG,4,ISIC_0027867.JPG,ISIC_0027867.JPG,false,0,keypress(Z),500,726928.5,726928.3000000007,717602.153,717607.8999999985,717618.685,726950.773,8,400,47,,ISIC_2366727.JPG
break,html.Screen,4_46_1,2023-09-15T21:58:23.320Z,,0,,,NaN,,,,,,false,,,,726929.1000000015,726929,,726928.6000000015,,726950.773,8,400,,,
break_continue,html.Screen,4_46_2,2023-09-15T21:58:23.320Z,,0,,,NaN,,,,,,false,,,,726929.3999999985,726929.3000000007,,726929.1999999993,,726950.773,8,400,,,
sequence,flow.Sequence,4_46,2023-09-15T21:58:23.320Z,,0,,,9310.61500000069,completion,,,,,false,,,,726929.5,726929.3000000007,717602.153,717607.8999999985,717618.685,726950.773,8,400,,,
trial,html.Screen,4_47_0,2023-09-15T21:58:29.934Z,,0,1,,6592.0270000007,response,ISIC_0011728.JPG,5,ISIC_6113524.JPG,ISIC_6113524.JPG,false,0,keypress(Z),500,733543.3000000007,733542.8000000007,726915.448,726929.5,726950.773,733561.763,8,400,48,,ISIC_0011728.JPG
break,html.Screen,4_47_1,2023-09-15T21:58:29.935Z,,0,,,NaN,,,,,,false,,,,733544.8000000007,733544.5,,733543.5,,733561.763,8,400,,,
break_continue,html.Screen,4_47_2,2023-09-15T21:58:29.936Z,,0,,,NaN,,,,,,false,,,,733545.3000000007,733545.1999999993,,733545.1000000015,,733561.763,8,400,,,
sequence,flow.Sequence,4_47,2023-09-15T21:58:29.936Z,,0,,,6594.42699999921,completion,,,,,false,,,,733545.5,733545.1999999993,726915.448,726929.5,726950.773,733561.763,8,400,,,
trial,html.Screen,4_48_0,2023-09-15T21:58:36.546Z,,0,1,,6593.6369999984745,response,ISIC_0032413.JPG,5,ISIC_1396767.JPG,ISIC_1396767.JPG,false,0,keypress(Z),500,740155.5,740155.3999999985,733545.548,733545.6000000015,733561.763,740176.827,8,400,49,,ISIC_0032413.JPG
break,html.Screen,4_48_1,2023-09-15T21:58:36.546Z,,0,,,NaN,,,,,,false,,,,740155.8999999985,740155.8999999985,,740155.6000000015,,740176.827,8,400,,,
break_continue,html.Screen,4_48_2,2023-09-15T21:58:36.547Z,,0,,,NaN,,,,,,false,,,,740156.1000000015,740156,,740156,,740176.827,8,400,,,
sequence,flow.Sequence,4_48,2023-09-15T21:58:36.547Z,,0,,,6594.236999999965,completion,,,,,false,,,,740156.1000000015,740156,733545.548,733545.6000000015,733561.763,740176.827,8,400,,,
trial,html.Screen,4_49_0,2023-09-15T21:58:44.180Z,,0,1,,7612.672999999952,response,ISIC_0000421.JPG,5,ISIC_0054559.JPG,ISIC_0054559.JPG,false,0,keypress(Z),500,747789.6999999993,747789.5,740142.45,740156.1000000015,740176.827,747805.933,8,400,50,,ISIC_0000421.JPG
break,html.Screen,4_49_1,2023-09-15T21:58:54.177Z,,0,,,9995.506999999983,timeout,,,,,false,,,,757786,757785.226,747788.979,747789.8000000007,747805.933,757801.44,8,400,,,
break_continue,html.Screen,4_49_2,2023-09-15T21:59:00.950Z,,0,,,6754.160000001546,response,,,,,false,continue,keypress(Space),,764559.5,764555.6000000015,757785.226,757786.1000000015,757801.44,764565.671,8,400,,,
sequence,flow.Sequence,4_49,2023-09-15T21:59:00.950Z,,0,,,24378.77300000144,completion,,,,,false,,,,764559.6000000015,764555.6000000015,740142.45,740156.1000000015,740176.827,764565.671,8,400,,,
trial,html.Screen,4_50_0,2023-09-15T21:59:10.760Z,,0,2,,9804.129000000772,response,ISIC_0069373.JPG,5,ISIC_0612080.JPG,ISIC_0612080.JPG,false,0,keypress(Z),500,774370,774369.8000000007,764548.357,764559.6999999993,764565.671,774377.784,8,400,1,,ISIC_0069373.JPG
break,html.Screen,4_50_1,2023-09-15T21:59:10.761Z,,0,,,NaN,,,,,,false,,,,774370.6000000015,774370.5,,774370.1000000015,,774377.784,8,400,,,
break_continue,html.Screen,4_50_2,2023-09-15T21:59:10.761Z,,0,,,NaN,,,,,,false,,,,774370.8000000007,774370.8000000007,,774370.6999999993,,774377.784,8,400,,,
sequence,flow.Sequence,4_50,2023-09-15T21:59:10.761Z,,0,,,9805.129000000772,completion,,,,,false,,,,774371,774370.8000000007,764548.357,764559.6999999993,764565.671,774377.784,8,400,,,
trial,html.Screen,4_51_0,2023-09-15T21:59:21.803Z,,0,2,,11034.816000001505,response,ISIC_3072311.JPG,4,ISIC_0067308.JPG,ISIC_0067308.JPG,false,0,keypress(Z),500,785412.6000000015,785412.6000000015,774361.112,774371,774377.784,785422.938,8,400,2,,ISIC_3072311.JPG
break,html.Screen,4_51_1,2023-09-15T21:59:21.804Z,,0,,,NaN,,,,,,false,,,,785413,785413,,785412.6999999993,,785422.938,8,400,,,
break_continue,html.Screen,4_51_2,2023-09-15T21:59:21.804Z,,0,,,NaN,,,,,,false,,,,785413.3000000007,785413.3000000007,,785413.1000000015,,785422.938,8,400,,,
sequence,flow.Sequence,4_51,2023-09-15T21:59:21.804Z,,0,,,11035.51600000076,completion,,,,,false,,,,785413.3000000007,785413.3000000007,774361.112,774371,774377.784,785422.938,8,400,,,
trial,html.Screen,4_52_0,2023-09-15T21:59:25.716Z,,0,2,,3902.3620000007795,response,ISIC_6756517.JPG,4,ISIC_9223679.JPG,ISIC_9223679.JPG,false,0,keypress(Z),500,789325.5,789325.3000000007,785406.348,785413.5,785422.938,789361.199,8,400,3,,ISIC_6756517.JPG
break,html.Screen,4_52_1,2023-09-15T21:59:25.717Z,,0,,,NaN,,,,,,false,,,,789326.5,789326.3999999985,,789325.6999999993,,789361.199,8,400,,,
break_continue,html.Screen,4_52_2,2023-09-15T21:59:25.718Z,,0,,,NaN,,,,,,false,,,,789327,789326.8000000007,,789326.6000000015,,789361.199,8,400,,,
sequence,flow.Sequence,4_52,2023-09-15T21:59:25.718Z,,0,,,3903.8620000007795,completion,,,,,false,,,,789327.1000000015,789326.8000000007,785406.348,785413.3999999985,785422.938,789361.199,8,400,,,
trial,html.Screen,4_53_0,2023-09-15T21:59:31.773Z,,0,2,,6020.7009999984875,response,ISIC_7783346.JPG,5,ISIC_0025409.JPG,ISIC_0025409.JPG,false,0,keypress(Z),500,795382.3000000007,795381.8999999985,789321.233,789327.3000000007,789361.199,795402.355,8,400,4,,ISIC_7783346.JPG
break,html.Screen,4_53_1,2023-09-15T21:59:31.774Z,,0,,,NaN,,,,,,false,,,,795383.3000000007,795383.1000000015,,795382.3999999985,,795402.355,8,400,,,
break_continue,html.Screen,4_53_2,2023-09-15T21:59:31.774Z,,0,,,NaN,,,,,,false,,,,795383.6999999993,795383.5,,795383.3999999985,,795402.355,8,400,,,
sequence,flow.Sequence,4_53,2023-09-15T21:59:31.774Z,,0,,,6022.300999999978,completion,,,,,false,,,,795383.8000000007,795383.5,789321.233,789327.1999999993,789361.199,795402.355,8,400,,,
trial,html.Screen,4_54_0,2023-09-15T21:59:37.665Z,,0,2,,5871.5449999985285,response,ISIC_8630818.JPG,5,ISIC_5688950.JPG,ISIC_5688950.JPG,false,0,keypress(Z),500,801274.1000000015,801273.8999999985,795386.365,795383.8999999985,795402.355,801283.476,8,400,5,,ISIC_8630818.JPG
break,html.Screen,4_54_1,2023-09-15T21:59:37.666Z,,0,,,NaN,,,,,,false,,,,801275,801274.8999999985,,801274.3000000007,,801283.476,8,400,,,
break_continue,html.Screen,4_54_2,2023-09-15T21:59:37.666Z,,0,,,NaN,,,,,,false,,,,801275.3999999985,801275.3999999985,,801275.1999999993,,801283.476,8,400,,,
sequence,flow.Sequence,4_54,2023-09-15T21:59:37.666Z,,0,,,5873.0449999985285,completion,,,,,false,,,,801275.6000000015,801275.3999999985,795386.365,795383.8999999985,795402.355,801283.476,8,400,,,
trial,html.Screen,4_55_0,2023-09-15T21:59:45.556Z,,0,2,,7881.324000000721,response,ISIC_9072309.JPG,4,ISIC_1234463.JPG,ISIC_1234463.JPG,false,0,keypress(Z),500,809165.1000000015,809164.8000000007,801266.105,801275.6999999993,801283.476,809179.343,8,400,6,,ISIC_9072309.JPG
break,html.Screen,4_55_1,2023-09-15T21:59:45.556Z,,0,,,NaN,,,,,,false,,,,809165.8000000007,809165.6000000015,,809165.3000000007,,809179.343,8,400,,,
break_continue,html.Screen,4_55_2,2023-09-15T21:59:45.557Z,,0,,,NaN,,,,,,false,,,,809166.1000000015,809166.1000000015,,809165.8999999985,,809179.343,8,400,,,
sequence,flow.Sequence,4_55,2023-09-15T21:59:45.557Z,,0,,,7882.624000001466,completion,,,,,false,,,,809166.1000000015,809166.1000000015,801266.105,801275.6000000015,801283.476,809179.343,8,400,,,
trial,html.Screen,4_56_0,2023-09-15T21:59:57.049Z,,0,2,,11512.550999999978,timeout,ISIC_0004691.JPG,5,ISIC_0054080.JPG,,false,,,500,820658.3000000007,820658,809162.572,809166.1999999993,809179.343,820691.894,8,400,7,,
break,html.Screen,4_56_1,2023-09-15T21:59:57.049Z,,0,,,NaN,,,,,,false,,,,820658.8999999985,820658.8000000007,,820658.3999999985,,820691.894,8,400,,,
break_continue,html.Screen,4_56_2,2023-09-15T21:59:57.050Z,,0,,,NaN,,,,,,false,,,,820659.1999999993,820659.1999999993,,820659,,820691.894,8,400,,,
sequence,flow.Sequence,4_56,2023-09-15T21:59:57.050Z,,0,,,11479.856999999261,completion,,,,,false,,,,820659.3000000007,820659.1999999993,809162.572,809166.1999999993,809179.343,820691.894,8,400,,,
trial,html.Screen,4_57_0,2023-09-15T22:00:02.003Z,,0,2,,4920.305999999284,response,ISIC_0011698.JPG,5,ISIC_0315631.JPG,ISIC_0315631.JPG,false,0,keypress(Z),500,825612.5,825612.1999999993,820676.324,820659.3000000007,820691.894,825638.955,8,400,8,,ISIC_0011698.JPG
break,html.Screen,4_57_1,2023-09-15T22:00:02.004Z,,0,,,NaN,,,,,,false,,,,825613.6000000015,825613.5,,825612.6999999993,,825638.955,8,400,,,
break_continue,html.Screen,4_57_2,2023-09-15T22:00:02.004Z,,0,,,NaN,,,,,,false,,,,825614,825613.8999999985,,825613.6999999993,,825638.955,8,400,,,
sequence,flow.Sequence,4_57,2023-09-15T22:00:02.005Z,,0,,,4922.005999998539,completion,,,,,false,,,,825614.1000000015,825613.8999999985,820676.324,820659.3000000007,820691.894,825638.955,8,400,,,
trial,html.Screen,4_58_0,2023-09-15T22:00:09.223Z,,0,2,,7192.845000000787,response,ISIC_0054287.JPG,5,ISIC_0029942.JPG,ISIC_0054287.JPG,false,1,keypress(m),500,832832.1999999993,832831.8000000007,825605.753,825614.1000000015,825638.955,832835.829,8,400,9,,ISIC_0029942.JPG
break,html.Screen,4_58_1,2023-09-15T22:00:09.224Z,,0,,,NaN,,,,,,false,,,,832833.5,832833.1000000015,,832832.3999999985,,832835.829,8,400,,,
break_continue,html.Screen,4_58_2,2023-09-15T22:00:09.225Z,,0,,,NaN,,,,,,false,,,,832834,832833.8999999985,,832833.6999999993,,832835.829,8,400,,,
sequence,flow.Sequence,4_58,2023-09-15T22:00:09.225Z,,0,,,7194.944999998552,completion,,,,,false,,,,832834.1999999993,832833.8999999985,825605.753,825614.1000000015,825638.955,832835.829,8,400,,,
trial,html.Screen,4_59_0,2023-09-15T22:00:17.420Z,,0,2,,8193.471000000718,response,ISIC_9271800.JPG,6,ISIC_0053854.JPG,ISIC_9271800.JPG,false,1,keypress(m),500,841029.6999999993,841029.3000000007,832820.985,832834.3999999985,832835.829,841051.626,8,400,10,,ISIC_0053854.JPG
break,html.Screen,4_59_1,2023-09-15T22:00:17.421Z,,0,,,NaN,,,,,,false,,,,841030.6999999993,841030.5,,841029.8999999985,,841051.626,8,400,,,
break_continue,html.Screen,4_59_2,2023-09-15T22:00:17.421Z,,0,,,NaN,,,,,,false,,,,841031,841030.8999999985,,841030.8000000007,,841051.626,8,400,,,
sequence,flow.Sequence,4_59,2023-09-15T22:00:17.422Z,,0,,,8195.070999998483,completion,,,,,false,,,,841031.1000000015,841030.8999999985,832820.985,832834.3000000007,832835.829,841051.626,8,400,,,
trial,html.Screen,4_60_0,2023-09-15T22:00:23.488Z,,0,2,,6045.773999998462,response,ISIC_0033344.JPG,6,ISIC_3922602.JPG,ISIC_3922602.JPG,false,0,keypress(z),500,847097.6999999993,847097.3999999985,841032.346,841031.3000000007,841051.626,847113.299,8,400,11,,ISIC_0033344.JPG
break,html.Screen,4_60_1,2023-09-15T22:00:23.489Z,,0,,,NaN,,,,,,false,,,,847098.8999999985,847098.6000000015,,847098,,847113.299,8,400,,,
break_continue,html.Screen,4_60_2,2023-09-15T22:00:23.490Z,,0,,,NaN,,,,,,false,,,,847099.6999999993,847099.5,,847099.1999999993,,847113.299,8,400,,,
sequence,flow.Sequence,4_60,2023-09-15T22:00:23.490Z,,0,,,6047.8739999999525,completion,,,,,false,,,,847099.8999999985,847099.5,841032.346,841031.3000000007,841051.626,847113.299,8,400,,,
trial,html.Screen,4_61_0,2023-09-15T22:00:30.987Z,,0,2,,7482.600999998511,response,ISIC_0032840.JPG,5,ISIC_5921777.JPG,ISIC_5921777.JPG,false,0,keypress(z),500,854596.1000000015,854595.8999999985,847096.337,847100,847113.299,854634.461,8,400,12,,ISIC_0032840.JPG
break,html.Screen,4_61_1,2023-09-15T22:00:30.987Z,,0,,,NaN,,,,,,false,,,,854596.5,854596.5,,854596.1999999993,,854634.461,8,400,,,
break_continue,html.Screen,4_61_2,2023-09-15T22:00:30.987Z,,0,,,NaN,,,,,,false,,,,854596.6999999993,854596.6999999993,,854596.6000000015,,854634.461,8,400,,,
sequence,flow.Sequence,4_61,2023-09-15T22:00:30.987Z,,0,,,7483.400999999256,completion,,,,,false,,,,854596.8000000007,854596.6999999993,847096.337,847099.8999999985,847113.299,854634.461,8,400,,,
trial,html.Screen,4_62_0,2023-09-15T22:00:36.228Z,,0,2,,5202.53899999999,response,ISIC_7262685.JPG,4,ISIC_0031499.JPG,ISIC_7262685.JPG,false,1,keypress(m),500,859837.1999999993,859837,854609.623,854596.8000000007,854634.461,859860.78,8,400,13,,ISIC_0031499.JPG
break,html.Screen,4_62_1,2023-09-15T22:00:36.228Z,,0,,,NaN,,,,,,false,,,,859838,859837.8999999985,,859837.3999999985,,859860.78,8,400,,,
break_continue,html.Screen,4_62_2,2023-09-15T22:00:36.229Z,,0,,,NaN,,,,,,false,,,,859838.1999999993,859838.1000000015,,859838.1000000015,,859860.78,8,400,,,
sequence,flow.Sequence,4_62,2023-09-15T22:00:36.229Z,,0,,,5203.63900000148,completion,,,,,false,,,,859838.3000000007,859838.1000000015,854609.623,854596.8000000007,854634.461,859860.78,8,400,,,
trial,html.Screen,4_63_0,2023-09-15T22:00:43.447Z,,0,2,,7195.619999998482,response,ISIC_2670475.JPG,5,ISIC_0008774.JPG,ISIC_0008774.JPG,false,0,keypress(z),500,867056.8000000007,867056.3999999985,859824.262,859838.3999999985,859860.78,867071.002,8,400,14,,ISIC_2670475.JPG
break,html.Screen,4_63_1,2023-09-15T22:00:43.449Z,,0,,,NaN,,,,,,false,,,,867058.1000000015,867057.8000000007,,867057.1999999993,,867071.002,8,400,,,
break_continue,html.Screen,4_63_2,2023-09-15T22:00:43.449Z,,0,,,NaN,,,,,,false,,,,867058.5,867058.3999999985,,867058.1999999993,,867071.002,8,400,,,
sequence,flow.Sequence,4_63,2023-09-15T22:00:43.449Z,,0,,,7197.619999998482,completion,,,,,false,,,,867059,867058.3999999985,859824.262,859838.3999999985,859860.78,867071.002,8,400,,,
trial,html.Screen,4_64_0,2023-09-15T22:00:50.755Z,,0,2,,7293.197999999276,response,ISIC_0011012.JPG,4,ISIC_3797095.JPG,ISIC_3797095.JPG,false,0,keypress(z),500,874364.3999999985,874364.1999999993,867054.393,867060.3999999985,867071.002,874467.652,8,400,15,,ISIC_0011012.JPG
break,html.Screen,4_64_1,2023-09-15T22:00:50.756Z,,0,,,NaN,,,,,,false,,,,874365.1000000015,874364.8999999985,,874364.5,,874467.652,8,400,,,
break_continue,html.Screen,4_64_2,2023-09-15T22:00:50.756Z,,0,,,NaN,,,,,,false,,,,874365.3999999985,874365.3000000007,,874365.1999999993,,874467.652,8,400,,,
sequence,flow.Sequence,4_64,2023-09-15T22:00:50.756Z,,0,,,7294.2980000007665,completion,,,,,false,,,,874365.5,874365.3000000007,867054.393,867060.3999999985,867071.002,874467.652,8,400,,,
trial,html.Screen,4_65_0,2023-09-15T22:01:00.181Z,,0,2,,9322.948000001488,response,ISIC_8730617.JPG,4,ISIC_0238570.JPG,ISIC_0238570.JPG,false,0,keypress(z),500,883790.6999999993,883790.6000000015,874361.668,874365.6000000015,874467.652,883798.934,8,400,16,,ISIC_8730617.JPG
break,html.Screen,4_65_1,2023-09-15T22:01:00.182Z,,0,,,NaN,,,,,,false,,,,883791.3999999985,883791.3000000007,,883790.8000000007,,883798.934,8,400,,,
break_continue,html.Screen,4_65_2,2023-09-15T22:01:00.182Z,,0,,,NaN,,,,,,false,,,,883791.6000000015,883791.5,,883791.5,,883798.934,8,400,,,
sequence,flow.Sequence,4_65,2023-09-15T22:01:00.182Z,,0,,,9323.847999999998,completion,,,,,false,,,,883791.6999999993,883791.5,874361.668,874365.6000000015,874467.652,883798.934,8,400,,,
trial,html.Screen,4_66_0,2023-09-15T22:01:07.360Z,,0,2,,7169.866000000737,response,ISIC_9767255.JPG,5,ISIC_1772828.JPG,ISIC_9767255.JPG,false,1,keypress(m),500,890969.1000000015,890968.8000000007,883780.536,883791.6999999993,883798.934,890996.338,8,400,17,,ISIC_1772828.JPG
break,html.Screen,4_66_1,2023-09-15T22:01:07.361Z,,0,,,NaN,,,,,,false,,,,890969.8999999985,890969.6999999993,,890969.3000000007,,890996.338,8,400,,,
break_continue,html.Screen,4_66_2,2023-09-15T22:01:07.361Z,,0,,,NaN,,,,,,false,,,,890970.1999999993,890970.1000000015,,890970,,890996.338,8,400,,,
sequence,flow.Sequence,4_66,2023-09-15T22:01:07.361Z,,0,,,7171.166000001482,completion,,,,,false,,,,890970.1999999993,890970.1000000015,883780.536,883791.6999999993,883798.934,890996.338,8,400,,,
trial,html.Screen,4_67_0,2023-09-15T22:01:13.479Z,,0,2,,6091.262000001501,response,ISIC_0033950.JPG,5,ISIC_0054025.JPG,ISIC_0033950.JPG,false,1,keypress(m),500,897088,897087.6000000015,890960.551,890970.3000000007,890996.338,897111.232,8,400,18,,ISIC_0054025.JPG
break,html.Screen,4_67_1,2023-09-15T22:01:13.480Z,,0,,,NaN,,,,,,false,,,,897089.6999999993,897089.5,,897088.3999999985,,897111.232,8,400,,,
break_continue,html.Screen,4_67_2,2023-09-15T22:01:13.481Z,,0,,,NaN,,,,,,false,,,,897090.3000000007,897090.1000000015,,897089.8999999985,,897111.232,8,400,,,
sequence,flow.Sequence,4_67,2023-09-15T22:01:13.481Z,,0,,,6093.762000001501,completion,,,,,false,,,,897090.5,897090.1000000015,890960.551,890970.1999999993,890996.338,897111.232,8,400,,,
trial,html.Screen,4_68_0,2023-09-15T22:01:19.900Z,,0,2,,6397.967999999295,response,ISIC_1784613.JPG,5,ISIC_0061252.JPG,ISIC_1784613.JPG,false,1,keypress(m),500,903509.6000000015,903509.1999999993,897091.553,897090.6000000015,897111.232,903522.026,8,400,19,,ISIC_0061252.JPG
break,html.Screen,4_68_1,2023-09-15T22:01:19.901Z,,0,,,NaN,,,,,,false,,,,903510.8000000007,903510.5,,903509.8000000007,,903522.026,8,400,,,
break_continue,html.Screen,4_68_2,2023-09-15T22:01:19.902Z,,0,,,NaN,,,,,,false,,,,903511.5,903511.3000000007,,903511,,903522.026,8,400,,,
sequence,flow.Sequence,4_68,2023-09-15T22:01:19.902Z,,0,,,6400.068000000785,completion,,,,,false,,,,903511.8000000007,903511.3000000007,897091.553,897090.5,897111.232,903522.026,8,400,,,
trial,html.Screen,4_69_0,2023-09-15T22:01:27.472Z,,0,2,,7559.3739999985555,response,ISIC_0065590.JPG,5,ISIC_0011435.JPG,ISIC_0065590.JPG,false,1,keypress(m),500,911081.6000000015,911081.3999999985,903506.13,903511.8999999985,903522.026,911102.351,8,400,20,,ISIC_0011435.JPG
break,html.Screen,4_69_1,2023-09-15T22:01:27.473Z,,0,,,NaN,,,,,,false,,,,911082.3999999985,911082.3000000007,,911081.8000000007,,911102.351,8,400,,,
break_continue,html.Screen,4_69_2,2023-09-15T22:01:27.473Z,,0,,,NaN,,,,,,false,,,,911082.6000000015,911082.5,,911082.5,,911102.351,8,400,,,
sequence,flow.Sequence,4_69,2023-09-15T22:01:27.473Z,,0,,,7560.474000000046,completion,,,,,false,,,,911082.6999999993,911082.5,903506.13,903511.8999999985,903522.026,911102.351,8,400,,,
trial,html.Screen,4_70_0,2023-09-15T22:01:34.890Z,,0,2,,7396.848999999231,response,ISIC_0027260.JPG,5,ISIC_0645477.JPG,ISIC_0645477.JPG,false,0,keypress(z),500,918499.3000000007,918499.1999999993,911068.916,911082.8000000007,911102.351,918515.394,8,400,21,,ISIC_0027260.JPG
break,html.Screen,4_70_1,2023-09-15T22:01:34.891Z,,0,,,NaN,,,,,,false,,,,918500.1000000015,918500,,918499.5,,918515.394,8,400,,,
break_continue,html.Screen,4_70_2,2023-09-15T22:01:34.891Z,,0,,,NaN,,,,,,false,,,,918500.3000000007,918500.3000000007,,918500.1999999993,,918515.394,8,400,,,
sequence,flow.Sequence,4_70,2023-09-15T22:01:34.891Z,,0,,,7397.949000000721,completion,,,,,false,,,,918500.3999999985,918500.3000000007,911068.916,911082.8000000007,911102.351,918515.394,8,400,,,
trial,html.Screen,4_71_0,2023-09-15T22:01:40.645Z,,0,2,,5738.906000000774,response,ISIC_0033967.JPG,4,ISIC_1850196.JPG,ISIC_0033967.JPG,false,1,keypress(m),500,924254.5,924254.3000000007,918499.085,918500.5,918515.394,924262.976,8,400,22,,ISIC_1850196.JPG
break,html.Screen,4_71_1,2023-09-15T22:01:40.646Z,,0,,,NaN,,,,,,false,,,,924255.1999999993,924255,,924254.6999999993,,924262.976,8,400,,,
break_continue,html.Screen,4_71_2,2023-09-15T22:01:40.646Z,,0,,,NaN,,,,,,false,,,,924255.3999999985,924255.3000000007,,924255.3000000007,,924262.976,8,400,,,
sequence,flow.Sequence,4_71,2023-09-15T22:01:40.646Z,,0,,,5739.906000000774,completion,,,,,false,,,,924255.5,924255.3000000007,918499.085,918500.5,918515.394,924262.976,8,400,,,
trial,html.Screen,4_72_0,2023-09-15T22:01:51.656Z,,0,2,,11001.82400000072,response,ISIC_0071771.JPG,5,ISIC_0064472.JPG,ISIC_0064472.JPG,false,0,keypress(z),500,935265.1999999993,935264.8000000007,924246.445,924255.6999999993,924262.976,935275.499,8,400,23,,ISIC_0071771.JPG
break,html.Screen,4_72_1,2023-09-15T22:01:51.657Z,,0,,,NaN,,,,,,false,,,,935266.3000000007,935266.1999999993,,935265.3999999985,,935275.499,8,400,,,
break_continue,html.Screen,4_72_2,2023-09-15T22:01:51.657Z,,0,,,NaN,,,,,,false,,,,935266.8000000007,935266.6000000015,,935266.5,,935275.499,8,400,,,
sequence,flow.Sequence,4_72,2023-09-15T22:01:51.657Z,,0,,,11003.624000001466,completion,,,,,false,,,,935266.8999999985,935266.6000000015,924246.445,924255.6999999993,924262.976,935275.499,8,400,,,
trial,html.Screen,4_73_0,2023-09-15T22:01:57.595Z,,0,2,,5929.0010000000475,response,ISIC_7766007.JPG,4,ISIC_4606646.JPG,ISIC_7766007.JPG,false,1,keypress(m),500,941204.6999999993,941204.5,935258.47,935266.8999999985,935275.499,941222.413,8,400,24,,ISIC_4606646.JPG
break,html.Screen,4_73_1,2023-09-15T22:01:57.596Z,,0,,,NaN,,,,,,false,,,,941205.6999999993,941205.3999999985,,941204.8999999985,,941222.413,8,400,,,
break_continue,html.Screen,4_73_2,2023-09-15T22:01:57.596Z,,0,,,NaN,,,,,,false,,,,941205.8999999985,941205.8000000007,,941205.6999999993,,941222.413,8,400,,,
sequence,flow.Sequence,4_73,2023-09-15T22:01:57.596Z,,0,,,5930.301000000793,completion,,,,,false,,,,941206,941205.8000000007,935258.47,935266.8999999985,935275.499,941222.413,8,400,,,
trial,html.Screen,4_74_0,2023-09-15T22:02:05.678Z,,0,2,,8064.986999998568,response,ISIC_9685480.JPG,5,ISIC_1069587.JPG,ISIC_9685480.JPG,false,1,keypress(m),500,949287.5,949287.3999999985,941205.908,941206.1000000015,941222.413,949303.449,8,400,25,,ISIC_1069587.JPG
break,html.Screen,4_74_1,2023-09-15T22:02:05.679Z,,0,,,NaN,,,,,,false,,,,949288.3000000007,949288.1000000015,,949287.6999999993,,949303.449,8,400,,,
break_continue,html.Screen,4_74_2,2023-09-15T22:02:05.679Z,,0,,,NaN,,,,,,false,,,,949288.6000000015,949288.3999999985,,949288.3999999985,,949303.449,8,400,,,
sequence,flow.Sequence,4_74,2023-09-15T22:02:05.679Z,,0,,,8065.986999998568,completion,,,,,false,,,,949288.6000000015,949288.3999999985,941205.908,941206.1000000015,941222.413,949303.449,8,400,,,
trial,html.Screen,4_75_0,2023-09-15T22:02:10.832Z,,0,2,,5138.250999999233,response,ISIC_0028618.JPG,5,ISIC_0012887.JPG,ISIC_0028618.JPG,false,1,keypress(m),500,954442,954441.6999999993,949285.742,949288.6999999993,949303.449,954467.007,8,400,26,,ISIC_0012887.JPG
break,html.Screen,4_75_1,2023-09-15T22:02:10.834Z,,0,,,NaN,,,,,,false,,,,954443.3000000007,954443,,954442.3000000007,,954467.007,8,400,,,
break_continue,html.Screen,4_75_2,2023-09-15T22:02:10.834Z,,0,,,NaN,,,,,,false,,,,954443.6999999993,954443.6000000015,,954443.3999999985,,954467.007,8,400,,,
sequence,flow.Sequence,4_75,2023-09-15T22:02:10.834Z,,0,,,5140.151000001468,completion,,,,,false,,,,954443.8999999985,954443.6000000015,949285.742,949288.6999999993,949303.449,954467.007,8,400,,,
trial,html.Screen,4_76_0,2023-09-15T22:02:20.852Z,,0,2,,9994.392999998527,response,ISIC_0069189.JPG,5,ISIC_9088073.JPG,ISIC_9088073.JPG,false,0,keypress(z),500,964461.6999999993,964461.3999999985,954450.136,954444,954467.007,964479.104,8,400,27,,ISIC_0069189.JPG
break,html.Screen,4_76_1,2023-09-15T22:02:20.853Z,,0,,,NaN,,,,,,false,,,,964462.6000000015,964462.3999999985,,964461.8999999985,,964479.104,8,400,,,
break_continue,html.Screen,4_76_2,2023-09-15T22:02:20.853Z,,0,,,NaN,,,,,,false,,,,964462.8999999985,964462.8999999985,,964462.6999999993,,964479.104,8,400,,,
sequence,flow.Sequence,4_76,2023-09-15T22:02:20.853Z,,0,,,9995.892999998527,completion,,,,,false,,,,964463.1000000015,964462.8999999985,954450.136,954443.8999999985,954467.007,964479.104,8,400,,,
trial,html.Screen,4_77_0,2023-09-15T22:02:26.343Z,,0,2,,5473.595999999205,response,ISIC_0010551.JPG,5,ISIC_0645116.JPG,ISIC_0645116.JPG,false,0,keypress(z),500,969953,969952.6999999993,964464.815,964463.1999999993,964479.104,969978.576,8,400,28,,ISIC_0010551.JPG
break,html.Screen,4_77_1,2023-09-15T22:02:26.345Z,,0,,,NaN,,,,,,false,,,,969954.5,969954.3000000007,,969953.3999999985,,969978.576,8,400,,,
break_continue,html.Screen,4_77_2,2023-09-15T22:02:26.345Z,,0,,,NaN,,,,,,false,,,,969954.8999999985,969954.8999999985,,969954.6000000015,,969978.576,8,400,,,
sequence,flow.Sequence,4_77,2023-09-15T22:02:26.345Z,,0,,,5475.79599999846,completion,,,,,false,,,,969955.1000000015,969954.8999999985,964464.815,964463.1000000015,964479.104,969978.576,8,400,,,
trial,html.Screen,4_78_0,2023-09-15T22:02:37.846Z,,0,2,,11509.78899999999,timeout,ISIC_6703027.JPG,5,ISIC_0067167.JPG,,false,,,500,981455.8000000007,981455.6000000015,969943.265,969955.1999999993,969978.576,981488.365,8,400,29,,
break,html.Screen,4_78_1,2023-09-15T22:02:37.847Z,,0,,,NaN,,,,,,false,,,,981456.5,981456.3000000007,,981455.8999999985,,981488.365,8,400,,,
break_continue,html.Screen,4_78_2,2023-09-15T22:02:37.847Z,,0,,,NaN,,,,,,false,,,,981456.8000000007,981456.6000000015,,981456.6000000015,,981488.365,8,400,,,
sequence,flow.Sequence,4_78,2023-09-15T22:02:37.847Z,,0,,,11478.02400000149,completion,,,,,false,,,,981456.8999999985,981456.6000000015,969943.265,969955.1999999993,969978.576,981488.365,8,400,,,
trial,html.Screen,4_79_0,2023-09-15T22:02:41.786Z,,0,2,,3906.6350000000093,response,ISIC_0032690.JPG,5,ISIC_4494516.JPG,ISIC_4494516.JPG,false,0,keypress(z),500,985395.3999999985,985395,981473.186,981456.8999999985,981488.365,985420.045,8,400,30,,ISIC_0032690.JPG
break,html.Screen,4_79_1,2023-09-15T22:02:41.787Z,,0,,,NaN,,,,,,false,,,,985396.8000000007,985396.5,,985395.6999999993,,985420.045,8,400,,,
break_continue,html.Screen,4_79_2,2023-09-15T22:02:41.788Z,,0,,,NaN,,,,,,false,,,,985397.1999999993,985397.1000000015,,985396.8999999985,,985420.045,8,400,,,
sequence,flow.Sequence,4_79,2023-09-15T22:02:41.788Z,,0,,,3908.7350000014994,completion,,,,,false,,,,985397.3000000007,985397.1000000015,981473.186,981456.8999999985,981488.365,985420.045,8,400,,,
trial,html.Screen,4_80_0,2023-09-15T22:02:51.822Z,,0,2,,10011.454999999958,response,ISIC_7268804.JPG,5,ISIC_4119029.JPG,ISIC_7268804.JPG,false,1,keypress(m),500,995431.8000000007,995431.5,985387.495,985397.5,985420.045,995438.734,8,400,31,,ISIC_4119029.JPG
break,html.Screen,4_80_1,2023-09-15T22:02:51.823Z,,0,,,NaN,,,,,,false,,,,995432.6000000015,995432.3999999985,,995431.8999999985,,995438.734,8,400,,,
break_continue,html.Screen,4_80_2,2023-09-15T22:02:51.823Z,,0,,,NaN,,,,,,false,,,,995432.8000000007,995432.8000000007,,995432.6999999993,,995438.734,8,400,,,
sequence,flow.Sequence,4_80,2023-09-15T22:02:51.823Z,,0,,,10012.755000000703,completion,,,,,false,,,,995432.8999999985,995432.8000000007,985387.495,985397.3999999985,985420.045,995438.734,8,400,,,
trial,html.Screen,4_81_0,2023-09-15T22:02:57.074Z,,0,2,,5244.265999999945,response,ISIC_0006757.JPG,5,ISIC_7980339.JPG,ISIC_0006757.JPG,false,1,keypress(m),500,1000683.5,1000683,995415.579,995433,995438.734,1000698.077,8,400,32,,ISIC_7980339.JPG
break,html.Screen,4_81_1,2023-09-15T22:02:57.075Z,,0,,,NaN,,,,,,false,,,,1000684.8000000007,1000684.6000000015,,1000683.8999999985,,1000698.077,8,400,,,
break_continue,html.Screen,4_81_2,2023-09-15T22:02:57.076Z,,0,,,NaN,,,,,,false,,,,1000685.1999999993,1000685.1000000015,,1000685,,1000698.077,8,400,,,
sequence,flow.Sequence,4_81,2023-09-15T22:02:57.076Z,,0,,,5246.366000001435,completion,,,,,false,,,,1000685.6999999993,1000685.1000000015,995415.579,995432.8999999985,995438.734,1000698.077,8,400,,,
trial,html.Screen,4_82_0,2023-09-15T22:03:05.463Z,,0,2,,8374.523000001442,response,ISIC_8366864.JPG,5,ISIC_9155465.JPG,ISIC_8366864.JPG,false,1,keypress(m),500,1009072.8999999985,1009072.6000000015,1000684.792,1000686,1000698.077,1009076.565,8,400,33,,ISIC_9155465.JPG
break,html.Screen,4_82_1,2023-09-15T22:03:05.464Z,,0,,,NaN,,,,,,false,,,,1009073.8000000007,1009073.6000000015,,1009073.1000000015,,1009076.565,8,400,,,
break_continue,html.Screen,4_82_2,2023-09-15T22:03:05.465Z,,0,,,NaN,,,,,,false,,,,1009074,1009073.8999999985,,1009073.8999999985,,1009076.565,8,400,,,
sequence,flow.Sequence,4_82,2023-09-15T22:03:05.465Z,,0,,,8375.822999998461,completion,,,,,false,,,,1009074.3000000007,1009073.8999999985,1000684.792,1000686,1000698.077,1009076.565,8,400,,,
trial,html.Screen,4_83_0,2023-09-15T22:03:09.883Z,,0,2,,4415.935000000056,response,ISIC_0289478.JPG,6,ISIC_6088194.JPG,ISIC_0289478.JPG,false,1,keypress(m),500,1013492.6999999993,1013492.5,1009068.643,1009074.3000000007,1009076.565,1013507.841,8,400,34,,ISIC_6088194.JPG
break,html.Screen,4_83_1,2023-09-15T22:03:09.884Z,,0,,,NaN,,,,,,false,,,,1013493.3000000007,1013493.3000000007,,1013492.8999999985,,1013507.841,8,400,,,
break_continue,html.Screen,4_83_2,2023-09-15T22:03:09.884Z,,0,,,NaN,,,,,,false,,,,1013493.6000000015,1013493.5,,1013493.3999999985,,1013507.841,8,400,,,
sequence,flow.Sequence,4_83,2023-09-15T22:03:09.884Z,,0,,,4416.935000000056,completion,,,,,false,,,,1013493.6999999993,1013493.5,1009068.643,1009074.3000000007,1009076.565,1013507.841,8,400,,,
trial,html.Screen,4_84_0,2023-09-15T22:03:19.262Z,,0,2,,9363.158999999985,response,ISIC_2456538.JPG,5,ISIC_0012047.JPG,ISIC_2456538.JPG,false,1,keypress(m),500,1022871.1999999993,1022871,1013491.107,1013493.8000000007,1013507.841,1022886.98,8,400,35,,ISIC_0012047.JPG
break,html.Screen,4_84_1,2023-09-15T22:03:19.262Z,,0,,,NaN,,,,,,false,,,,1022871.5,1022871.3999999985,,1022871.1999999993,,1022886.98,8,400,,,
break_continue,html.Screen,4_84_2,2023-09-15T22:03:19.262Z,,0,,,NaN,,,,,,false,,,,1022871.5,1022871.5,,1022871.5,,1022886.98,8,400,,,
sequence,flow.Sequence,4_84,2023-09-15T22:03:19.262Z,,0,,,9363.658999999985,completion,,,,,false,,,,1022871.6000000015,1022871.5,1013491.107,1013493.6999999993,1013507.841,1022886.98,8,400,,,
trial,html.Screen,4_85_0,2023-09-15T22:03:25.904Z,,0,2,,6626.020000000019,response,ISIC_4363603.JPG,5,ISIC_6381785.JPG,ISIC_6381785.JPG,false,0,keypress(z),500,1029513.6999999993,1029513,1022870.565,1022871.6000000015,1022886.98,1029517.522,8,400,36,,ISIC_4363603.JPG
break,html.Screen,4_85_1,2023-09-15T22:03:25.905Z,,0,,,NaN,,,,,,false,,,,1029514,1029513.8999999985,,1029513.6999999993,,1029517.522,8,400,,,
break_continue,html.Screen,4_85_2,2023-09-15T22:03:25.905Z,,0,,,NaN,,,,,,false,,,,1029514.1999999993,1029514.1000000015,,1029514,,1029517.522,8,400,,,
sequence,flow.Sequence,4_85,2023-09-15T22:03:25.905Z,,0,,,6627.120000001509,completion,,,,,false,,,,1029514.3000000007,1029514.1000000015,1022870.565,1022871.6000000015,1022886.98,1029517.522,8,400,,,
trial,html.Screen,4_86_0,2023-09-15T22:03:30.580Z,,0,2,,4670.677999999258,response,ISIC_8173531.JPG,5,ISIC_0053554.JPG,ISIC_8173531.JPG,false,1,keypress(m),500,1034189,1034188.1999999993,1029501.953,1029514.3000000007,1029517.522,1034198.986,8,400,37,,ISIC_0053554.JPG
break,html.Screen,4_86_1,2023-09-15T22:03:30.581Z,,0,,,NaN,,,,,,false,,,,1034190.3999999985,1034190.1000000015,,1034189.1999999993,,1034198.986,8,400,,,
break_continue,html.Screen,4_86_2,2023-09-15T22:03:30.582Z,,0,,,NaN,,,,,,false,,,,1034191.1000000015,1034190.8999999985,,1034190.6999999993,,1034198.986,8,400,,,
sequence,flow.Sequence,4_86,2023-09-15T22:03:30.582Z,,0,,,4673.377999998513,completion,,,,,false,,,,1034191.3000000007,1034190.8999999985,1029501.953,1029514.3000000007,1029517.522,1034198.986,8,400,,,
trial,html.Screen,4_87_0,2023-09-15T22:03:35.799Z,,0,2,,5209.614000001457,response,ISIC_4015508.JPG,4,ISIC_7933945.JPG,ISIC_7933945.JPG,false,0,keypress(z),500,1039408.8999999985,1039408.6000000015,1034182.51,1034191.3999999985,1034198.986,1039430.161,8,400,38,,ISIC_4015508.JPG
break,html.Screen,4_87_1,2023-09-15T22:03:35.801Z,,0,,,NaN,,,,,,false,,,,1039410.3000000007,1039409.8999999985,,1039409.1999999993,,1039430.161,8,400,,,
break_continue,html.Screen,4_87_2,2023-09-15T22:03:35.801Z,,0,,,NaN,,,,,,false,,,,1039410.6999999993,1039410.5,,1039410.3999999985,,1039430.161,8,400,,,
sequence,flow.Sequence,4_87,2023-09-15T22:03:35.801Z,,0,,,5211.5139999999665,completion,,,,,false,,,,1039410.6999999993,1039410.5,1034182.51,1034191.3999999985,1034198.986,1039430.161,8,400,,,
trial,html.Screen,4_88_0,2023-09-15T22:03:42.544Z,,0,2,,6722.839000000036,response,ISIC_2612661.JPG,4,ISIC_5703909.JPG,ISIC_2612661.JPG,false,1,keypress(m),500,1046153.1999999993,1046153,1039413.714,1039410.8999999985,1039430.161,1046177.129,8,400,39,,ISIC_5703909.JPG
break,html.Screen,4_88_1,2023-09-15T22:03:42.544Z,,0,,,NaN,,,,,,false,,,,1046153.8000000007,1046153.6999999993,,1046153.3000000007,,1046177.129,8,400,,,
break_continue,html.Screen,4_88_2,2023-09-15T22:03:42.545Z,,0,,,NaN,,,,,,false,,,,1046154.6000000015,1046154.5,,1046154.3999999985,,1046177.129,8,400,,,
sequence,flow.Sequence,4_88,2023-09-15T22:03:42.545Z,,0,,,6724.339000000036,completion,,,,,false,,,,1046154.6999999993,1046154.5,1039413.714,1039410.8999999985,1039430.161,1046177.129,8,400,,,
trial,html.Screen,4_89_0,2023-09-15T22:03:49.251Z,,0,2,,6682.770999998553,response,ISIC_8521610.JPG,4,ISIC_0067167.JPG,ISIC_0067167.JPG,false,0,keypress(z),500,1052860.1999999993,1052859.8999999985,1046160.441,1046154.6999999993,1046177.129,1052874.244,8,400,40,,ISIC_8521610.JPG
break,html.Screen,4_89_1,2023-09-15T22:03:49.252Z,,0,,,NaN,,,,,,false,,,,1052861.1999999993,1052861,,1052860.3999999985,,1052874.244,8,400,,,
break_continue,html.Screen,4_89_2,2023-09-15T22:03:49.253Z,,0,,,NaN,,,,,,false,,,,1052862.5,1052861.5,,1052861.3999999985,,1052874.244,8,400,,,
sequence,flow.Sequence,4_89,2023-09-15T22:03:49.253Z,,0,,,6684.371000000043,completion,,,,,false,,,,1052862.6000000015,1052861.5,1046160.441,1046154.6999999993,1046177.129,1052874.244,8,400,,,
trial,html.Screen,4_90_0,2023-09-15T22:03:55.880Z,,0,2,,6615.056000000797,response,ISIC_7441957.JPG,4,ISIC_0033250.JPG,ISIC_0033250.JPG,false,0,keypress(z),500,1059489.5,1059489.3000000007,1052857.749,1052862.6999999993,1052874.244,1059504.872,8,400,41,,ISIC_7441957.JPG
break,html.Screen,4_90_1,2023-09-15T22:03:55.881Z,,0,,,NaN,,,,,,false,,,,1059490.1000000015,1059490,,1059489.6000000015,,1059504.872,8,400,,,
break_continue,html.Screen,4_90_2,2023-09-15T22:03:55.881Z,,0,,,NaN,,,,,,false,,,,1059490.3000000007,1059490.3000000007,,1059490.1999999993,,1059504.872,8,400,,,
sequence,flow.Sequence,4_90,2023-09-15T22:03:55.881Z,,0,,,6616.056000000797,completion,,,,,false,,,,1059490.3999999985,1059490.3000000007,1052857.749,1052862.6999999993,1052874.244,1059504.872,8,400,,,
trial,html.Screen,4_91_0,2023-09-15T22:04:05.088Z,,0,2,,9191.928000000771,response,ISIC_0033374.JPG,6,ISIC_0033925.JPG,ISIC_0033925.JPG,false,0,keypress(z),500,1068697,1068696.8000000007,1059487.984,1059490.5,1059504.872,1068851.574,8,400,42,,ISIC_0033374.JPG
break,html.Screen,4_91_1,2023-09-15T22:04:05.088Z,,0,,,NaN,,,,,,false,,,,1068697.3000000007,1068697.3000000007,,1068697.1000000015,,1068851.574,8,400,,,
break_continue,html.Screen,4_91_2,2023-09-15T22:04:05.088Z,,0,,,NaN,,,,,,false,,,,1068697.3999999985,1068697.3999999985,,1068697.3999999985,,1068851.574,8,400,,,
sequence,flow.Sequence,4_91,2023-09-15T22:04:05.088Z,,0,,,9192.527999998536,completion,,,,,false,,,,1068697.3999999985,1068697.3999999985,1059487.984,1059490.5,1059504.872,1068851.574,8,400,,,
trial,html.Screen,4_92_0,2023-09-15T22:04:13.222Z,,0,2,,7979.925999999978,response,ISIC_0011626.JPG,5,ISIC_1225511.JPG,ISIC_1225511.JPG,false,0,keypress(z),500,1076831.8000000007,1076831.5,1068717.486,1068697.5,1068851.574,1076847.281,8,400,43,,ISIC_0011626.JPG
break,html.Screen,4_92_1,2023-09-15T22:04:13.224Z,,0,,,NaN,,,,,,false,,,,1076833.1000000015,1076833,,1076831.8999999985,,1076847.281,8,400,,,
break_continue,html.Screen,4_92_2,2023-09-15T22:04:13.224Z,,0,,,NaN,,,,,,false,,,,1076833.3999999985,1076833.3999999985,,1076833.1999999993,,1076847.281,8,400,,,
sequence,flow.Sequence,4_92,2023-09-15T22:04:13.224Z,,0,,,7981.8259999984875,completion,,,,,false,,,,1076833.5,1076833.3999999985,1068717.486,1068697.5,1068851.574,1076847.281,8,400,,,
trial,html.Screen,4_93_0,2023-09-15T22:04:17.600Z,,0,2,,4362.319000001531,response,ISIC_0010901.JPG,5,ISIC_8603734.JPG,ISIC_8603734.JPG,false,0,keypress(z),500,1081209.8000000007,1081209.6000000015,1076830.65,1076833.6999999993,1076847.281,1081229.542,8,400,44,,ISIC_0010901.JPG
break,html.Screen,4_93_1,2023-09-15T22:04:17.601Z,,0,,,NaN,,,,,,false,,,,1081210.3000000007,1081210.3000000007,,1081209.8000000007,,1081229.542,8,400,,,
break_continue,html.Screen,4_93_2,2023-09-15T22:04:17.601Z,,0,,,NaN,,,,,,false,,,,1081210.6000000015,1081210.6000000015,,1081210.5,,1081229.542,8,400,,,
sequence,flow.Sequence,4_93,2023-09-15T22:04:17.601Z,,0,,,4363.319000001531,completion,,,,,false,,,,1081210.6999999993,1081210.6000000015,1076830.65,1076833.6000000015,1076847.281,1081229.542,8,400,,,
trial,html.Screen,4_94_0,2023-09-15T22:04:21.683Z,,0,2,,4062.7580000008456,response,ISIC_2864893.JPG,5,ISIC_0053846.JPG,ISIC_0053846.JPG,false,0,keypress(z),500,1085292.5,1085292.3000000007,1081204.125,1081210.6999999993,1081229.542,1085310.838,8,400,45,,ISIC_2864893.JPG
break,html.Screen,4_94_1,2023-09-15T22:04:21.684Z,,0,,,NaN,,,,,,false,,,,1085293.6999999993,1085293.3999999985,,1085292.8000000007,,1085310.838,8,400,,,
break_continue,html.Screen,4_94_2,2023-09-15T22:04:21.685Z,,0,,,NaN,,,,,,false,,,,1085294.3000000007,1085294.1999999993,,1085294,,1085310.838,8,400,,,
sequence,flow.Sequence,4_94,2023-09-15T22:04:21.685Z,,0,,,4064.6579999993555,completion,,,,,false,,,,1085294.5,1085294.1999999993,1081204.125,1081210.6999999993,1081229.542,1085310.838,8,400,,,
trial,html.Screen,4_95_0,2023-09-15T22:04:25.386Z,,0,2,,3684.361999999266,response,ISIC_0032602.JPG,5,ISIC_3716504.JPG,ISIC_0032602.JPG,false,1,keypress(m),500,1088995.5,1088995.1999999993,1085277.586,1085294.6000000015,1085310.838,1089040.158,8,400,46,,ISIC_3716504.JPG
break,html.Screen,4_95_1,2023-09-15T22:04:25.387Z,,0,,,NaN,,,,,,false,,,,1088996.1000000015,1088996.1000000015,,1088995.6000000015,,1089040.158,8,400,,,
break_continue,html.Screen,4_95_2,2023-09-15T22:04:25.387Z,,0,,,NaN,,,,,,false,,,,1088996.3999999985,1088996.3999999985,,1088996.1999999993,,1089040.158,8,400,,,
sequence,flow.Sequence,4_95,2023-09-15T22:04:25.387Z,,0,,,3685.561999998521,completion,,,,,false,,,,1088996.3999999985,1088996.3999999985,1085277.586,1085294.6000000015,1085310.838,1089040.158,8,400,,,
trial,html.Screen,4_96_0,2023-09-15T22:04:30.349Z,,0,2,,4918.442000001436,response,ISIC_2977718.JPG,5,ISIC_0013501.JPG,ISIC_2977718.JPG,false,1,keypress(m),500,1093958.8000000007,1093958.6000000015,1088992.201,1088996.6999999993,1089040.158,1094014.417,8,400,47,,ISIC_0013501.JPG
break,html.Screen,4_96_1,2023-09-15T22:04:30.350Z,,0,,,NaN,,,,,,false,,,,1093959.1999999993,1093959.1000000015,,1093958.8999999985,,1094014.417,8,400,,,
break_continue,html.Screen,4_96_2,2023-09-15T22:04:30.350Z,,0,,,NaN,,,,,,false,,,,1093959.3999999985,1093959.3999999985,,1093959.3000000007,,1094014.417,8,400,,,
sequence,flow.Sequence,4_96,2023-09-15T22:04:30.350Z,,0,,,4919.241999998456,completion,,,,,false,,,,1093959.5,1093959.3999999985,1088992.201,1088996.6000000015,1089040.158,1094014.417,8,400,,,
trial,html.Screen,4_97_0,2023-09-15T22:04:36.480Z,,0,2,,6074.583000000101,response,ISIC_0029056.JPG,5,ISIC_0032342.JPG,ISIC_0032342.JPG,false,0,keypress(z),500,1100089.1999999993,1100089,1093990.024,1093959.6000000015,1094014.417,1100103.849,8,400,48,,ISIC_0029056.JPG
break,html.Screen,4_97_1,2023-09-15T22:04:36.480Z,,0,,,NaN,,,,,,false,,,,1100089.8999999985,1100089.8000000007,,1100089.3999999985,,1100103.849,8,400,,,
break_continue,html.Screen,4_97_2,2023-09-15T22:04:36.481Z,,0,,,NaN,,,,,,false,,,,1100090.1000000015,1100090,,1100089.8999999985,,1100103.849,8,400,,,
sequence,flow.Sequence,4_97,2023-09-15T22:04:36.481Z,,0,,,6075.583000000101,completion,,,,,false,,,,1100090.1999999993,1100090,1093990.024,1093959.6000000015,1094014.417,1100103.849,8,400,,,
trial,html.Screen,4_98_0,2023-09-15T22:04:42.227Z,,0,2,,5732.251000001561,response,ISIC_0029868.JPG,5,ISIC_1578399.JPG,ISIC_1578399.JPG,false,0,keypress(z),500,1105836.3000000007,1105836.1000000015,1100077.789,1100090.1999999993,1100103.849,1105868.679,8,400,49,,ISIC_0029868.JPG
break,html.Screen,4_98_1,2023-09-15T22:04:42.227Z,,0,,,NaN,,,,,,false,,,,1105836.5,1105836.5,,1105836.3000000007,,1105868.679,8,400,,,
break_continue,html.Screen,4_98_2,2023-09-15T22:04:42.227Z,,0,,,NaN,,,,,,false,,,,1105836.6999999993,1105836.6000000015,,1105836.6000000015,,1105868.679,8,400,,,
sequence,flow.Sequence,4_98,2023-09-15T22:04:42.227Z,,0,,,5732.751000001561,completion,,,,,false,,,,1105836.8000000007,1105836.6000000015,1100077.789,1100090.1999999993,1100103.849,1105868.679,8,400,,,
trial,html.Screen,4_99_0,2023-09-15T22:04:48.260Z,,0,2,,6000.720999998506,response,ISIC_0001149.JPG,4,ISIC_8747095.JPG,ISIC_8747095.JPG,false,0,keypress(z),500,1111869.6000000015,1111869.3999999985,1105839.931,1105836.8000000007,1105868.679,1111882.026,8,400,50,,ISIC_0001149.JPG
break,html.Screen,4_99_1,2023-09-15T22:04:58.236Z,,0,,,9979.32899999991,timeout,,,,,false,,,,1121845.1999999993,1121844.597,1111865.658,1111869.8000000007,1111882.026,1121861.355,8,400,,,
break_continue,html.Screen,4_99_2,2023-09-15T22:05:08.985Z,,0,,,10726.544999998529,response,,,,,false,continue,keypress(Space),,1132594,1132587.8999999985,1121844.597,1121845.1999999993,1121861.355,1132606.814,8,400,,,
sequence,flow.Sequence,4_99,2023-09-15T22:05:08.985Z,,0,,,26719.220999998506,completion,,,,,false,,,,1132594.1999999993,1132587.8999999985,1105839.931,1105836.8000000007,1105868.679,1132606.814,8,400,,,
trial,html.Screen,4_100_0,2023-09-15T22:05:15.643Z,,0,3,,6645.185999999987,response,ISIC_2376016.JPG,6,ISIC_7803114.JPG,ISIC_7803114.JPG,false,0,keypress(z),500,1139252.1999999993,1139252,1132588.985,1132594.1999999993,1132606.814,1139304.388,8,400,1,,ISIC_2376016.JPG
break,html.Screen,4_100_1,2023-09-15T22:05:15.643Z,,0,,,NaN,,,,,,false,,,,1139252.6999999993,1139252.5,,1139252.3000000007,,1139304.388,8,400,,,
break_continue,html.Screen,4_100_2,2023-09-15T22:05:15.643Z,,0,,,NaN,,,,,,false,,,,1139252.8999999985,1139252.8000000007,,1139252.6999999993,,1139304.388,8,400,,,
sequence,flow.Sequence,4_100,2023-09-15T22:05:15.643Z,,0,,,6645.986000000732,completion,,,,,false,,,,1139253,1139252.8000000007,1132588.985,1132594.1999999993,1132606.814,1139304.388,8,400,,,
trial,html.Screen,4_101_0,2023-09-15T22:05:20.018Z,,0,3,,4323.31199999922,response,ISIC_4129376.JPG,4,ISIC_1552232.JPG,ISIC_4129376.JPG,false,1,keypress(m),500,1143627.8999999985,1143627.6999999993,1139270.194,1139253,1139304.388,1143635.131,8,400,2,,ISIC_1552232.JPG
break,html.Screen,4_101_1,2023-09-15T22:05:20.019Z,,0,,,NaN,,,,,,false,,,,1143628.3999999985,1143628.3000000007,,1143627.8999999985,,1143635.131,8,400,,,
break_continue,html.Screen,4_101_2,2023-09-15T22:05:20.019Z,,0,,,NaN,,,,,,false,,,,1143628.8999999985,1143628.6999999993,,1143628.5,,1143635.131,8,400,,,
sequence,flow.Sequence,4_101,2023-09-15T22:05:20.020Z,,0,,,4324.31199999922,completion,,,,,false,,,,1143629,1143628.6999999993,1139270.194,1139253,1139304.388,1143635.131,8,400,,,
trial,html.Screen,4_102_0,2023-09-15T22:05:25.764Z,,0,3,,5738.568999999203,response,ISIC_0000135.JPG,5,ISIC_3690890.JPG,ISIC_0000135.JPG,false,1,keypress(m),500,1149373.8999999985,1149373.6999999993,1143618.563,1143629.1999999993,1143635.131,1149382.924,8,400,3,,ISIC_3690890.JPG
break,html.Screen,4_102_1,2023-09-15T22:05:25.765Z,,0,,,NaN,,,,,,false,,,,1149374.3000000007,1149374.1999999993,,1149373.8999999985,,1149382.924,8,400,,,
break_continue,html.Screen,4_102_2,2023-09-15T22:05:25.765Z,,0,,,NaN,,,,,,false,,,,1149374.3999999985,1149374.3999999985,,1149374.3999999985,,1149382.924,8,400,,,
sequence,flow.Sequence,4_102,2023-09-15T22:05:25.765Z,,0,,,5739.268999998458,completion,,,,,false,,,,1149374.3999999985,1149374.3999999985,1143618.563,1143629.1000000015,1143635.131,1149382.924,8,400,,,
trial,html.Screen,4_103_0,2023-09-15T22:05:31.321Z,,0,3,,5547.37600000063,response,ISIC_0010707.JPG,5,ISIC_0351547.JPG,ISIC_0351547.JPG,false,0,keypress(z),500,1154930.3999999985,1154930.3000000007,1149365.978,1149374.6000000015,1149382.924,1154946.959,8,400,4,,ISIC_0010707.JPG
break,html.Screen,4_103_1,2023-09-15T22:05:31.321Z,,0,,,NaN,,,,,,false,,,,1154930.8999999985,1154930.8000000007,,1154930.5,,1154946.959,8,400,,,
break_continue,html.Screen,4_103_2,2023-09-15T22:05:31.321Z,,0,,,NaN,,,,,,false,,,,1154931.1000000015,1154931,,1154931,,1154946.959,8,400,,,
sequence,flow.Sequence,4_103,2023-09-15T22:05:31.322Z,,0,,,5548.0759999998845,completion,,,,,false,,,,1154931.1000000015,1154931,1149365.978,1149374.5,1149382.924,1154946.959,8,400,,,
trial,html.Screen,4_104_0,2023-09-15T22:05:36.859Z,,0,3,,5521.141000001458,response,ISIC_0030913.JPG,4,ISIC_0034104.JPG,ISIC_0030913.JPG,false,1,keypress(m),500,1160468.1999999993,1160468.1000000015,1154930.282,1154931.1000000015,1154946.959,1160477.843,8,400,5,,ISIC_0034104.JPG
break,html.Screen,4_104_1,2023-09-15T22:05:36.859Z,,0,,,NaN,,,,,,false,,,,1160468.8999999985,1160468.8000000007,,1160468.3999999985,,1160477.843,8,400,,,
break_continue,html.Screen,4_104_2,2023-09-15T22:05:36.860Z,,0,,,NaN,,,,,,false,,,,1160469.1999999993,1160469.1000000015,,1160469.1000000015,,1160477.843,8,400,,,
sequence,flow.Sequence,4_104,2023-09-15T22:05:36.860Z,,0,,,5522.141000001458,completion,,,,,false,,,,1160469.1999999993,1160469.1000000015,1154930.282,1154931.1000000015,1154946.959,1160477.843,8,400,,,
trial,html.Screen,4_105_0,2023-09-15T22:05:42.192Z,,0,3,,5323.15699999989,response,ISIC_4187627.JPG,4,ISIC_6701139.JPG,ISIC_6701139.JPG,false,0,keypress(z),500,1165801.1999999993,1165801,1160461.206,1160469.3000000007,1160477.843,1165842.863,8,400,6,,ISIC_4187627.JPG
break,html.Screen,4_105_1,2023-09-15T22:05:42.193Z,,0,,,NaN,,,,,,false,,,,1165802.3999999985,1165802.1999999993,,1165801.3000000007,,1165842.863,8,400,,,
break_continue,html.Screen,4_105_2,2023-09-15T22:05:42.193Z,,0,,,NaN,,,,,,false,,,,1165802.6999999993,1165802.5,,1165802.3999999985,,1165842.863,8,400,,,
sequence,flow.Sequence,4_105,2023-09-15T22:05:42.193Z,,0,,,5324.65699999989,completion,,,,,false,,,,1165802.6999999993,1165802.5,1160461.206,1160469.3000000007,1160477.843,1165842.863,8,400,,,
trial,html.Screen,4_106_0,2023-09-15T22:05:49.498Z,,0,3,,7264.336999999359,response,ISIC_3198731.JPG,5,ISIC_5867911.JPG,ISIC_3198731.JPG,false,1,keypress(m),500,1173107.6000000015,1173107.1999999993,1165825.529,1165802.8000000007,1165842.863,1173122.282,8,400,7,,ISIC_5867911.JPG
break,html.Screen,4_106_1,2023-09-15T22:05:49.500Z,,0,,,NaN,,,,,,false,,,,1173109.3000000007,1173108.8999999985,,1173107.8999999985,,1173122.282,8,400,,,
break_continue,html.Screen,4_106_2,2023-09-15T22:05:49.500Z,,0,,,NaN,,,,,,false,,,,1173109.8999999985,1173109.8000000007,,1173109.6000000015,,1173122.282,8,400,,,
sequence,flow.Sequence,4_106,2023-09-15T22:05:49.501Z,,0,,,7266.937000000849,completion,,,,,false,,,,1173110.1000000015,1173109.8000000007,1165825.529,1165802.6999999993,1165842.863,1173122.282,8,400,,,
trial,html.Screen,4_107_0,2023-09-15T22:05:55.790Z,,0,3,,6277.417999999365,response,ISIC_0010349.JPG,6,ISIC_0014133.JPG,ISIC_0014133.JPG,false,0,keypress(z),500,1179400,1179399.6999999993,1173106.142,1173110.1999999993,1173122.282,1179402.942,8,400,8,,ISIC_0010349.JPG
break,html.Screen,4_107_1,2023-09-15T22:05:55.792Z,,0,,,NaN,,,,,,false,,,,1179401.1999999993,1179400.6999999993,,1179400.1999999993,,1179402.942,8,400,,,
break_continue,html.Screen,4_107_2,2023-09-15T22:05:55.792Z,,0,,,NaN,,,,,,false,,,,1179401.6999999993,1179401.6000000015,,1179401.3999999985,,1179402.942,8,400,,,
sequence,flow.Sequence,4_107,2023-09-15T22:05:55.792Z,,0,,,6279.3180000016,completion,,,,,false,,,,1179402,1179401.6000000015,1173106.142,1173110.1999999993,1173122.282,1179402.942,8,400,,,
trial,html.Screen,4_108_0,2023-09-15T22:06:00.230Z,,0,3,,4436.658000001451,response,ISIC_0029216.JPG,6,ISIC_8147189.JPG,ISIC_8147189.JPG,false,0,keypress(z),500,1183839.8000000007,1183839.6000000015,1179386.276,1179402.3999999985,1179402.942,1183853.722,8,400,9,,ISIC_0029216.JPG
break,html.Screen,4_108_1,2023-09-15T22:06:00.231Z,,0,,,NaN,,,,,,false,,,,1183840.1999999993,1183840.1000000015,,1183839.8000000007,,1183853.722,8,400,,,
break_continue,html.Screen,4_108_2,2023-09-15T22:06:00.231Z,,0,,,NaN,,,,,,false,,,,1183840.3000000007,1183840.1999999993,,1183840.1999999993,,1183853.722,8,400,,,
sequence,flow.Sequence,4_108,2023-09-15T22:06:00.231Z,,0,,,4437.257999999216,completion,,,,,false,,,,1183840.3000000007,1183840.1999999993,1179386.276,1179402.3999999985,1179402.942,1183853.722,8,400,,,
trial,html.Screen,4_109_0,2023-09-15T22:06:04.984Z,,0,3,,4739.777999999933,response,ISIC_0069093.JPG,5,ISIC_0046921.JPG,ISIC_0069093.JPG,false,1,keypress(m),500,1188593.6000000015,1188593.5,1183834.364,1183840.3999999985,1183853.722,1188618.128,8,400,10,,ISIC_0046921.JPG
break,html.Screen,4_109_1,2023-09-15T22:06:04.985Z,,0,,,NaN,,,,,,false,,,,1188594.3000000007,1188594.1000000015,,1188593.6999999993,,1188618.128,8,400,,,
break_continue,html.Screen,4_109_2,2023-09-15T22:06:04.985Z,,0,,,NaN,,,,,,false,,,,1188594.5,1188594.5,,1188594.3000000007,,1188618.128,8,400,,,
sequence,flow.Sequence,4_109,2023-09-15T22:06:04.985Z,,0,,,4740.777999999933,completion,,,,,false,,,,1188594.6000000015,1188594.5,1183834.364,1183840.3000000007,1183853.722,1188618.128,8,400,,,
trial,html.Screen,4_110_0,2023-09-15T22:06:10.859Z,,0,3,,5850.271999998484,response,ISIC_0010401.JPG,5,ISIC_4269227.JPG,ISIC_4269227.JPG,false,0,keypress(z),500,1194468.6999999993,1194468.3999999985,1188582.429,1188594.6999999993,1188618.128,1194480.243,8,400,11,,ISIC_0010401.JPG
break,html.Screen,4_110_1,2023-09-15T22:06:10.860Z,,0,,,NaN,,,,,,false,,,,1194469.8000000007,1194469.6000000015,,1194469,,1194480.243,8,400,,,
break_continue,html.Screen,4_110_2,2023-09-15T22:06:10.862Z,,0,,,NaN,,,,,,false,,,,1194472,1194470.3999999985,,1194470.1000000015,,1194480.243,8,400,,,
sequence,flow.Sequence,4_110,2023-09-15T22:06:10.863Z,,0,,,5852.271999998484,completion,,,,,false,,,,1194472.3999999985,1194470.3999999985,1188582.429,1188594.6999999993,1188618.128,1194480.243,8,400,,,
trial,html.Screen,4_111_0,2023-09-15T22:06:17.625Z,,0,3,,6753.256999999983,response,ISIC_0011863.JPG,6,ISIC_9254433.JPG,ISIC_9254433.JPG,false,0,keypress(z),500,1201234.3000000007,1201233.5,1194463.317,1194472.3999999985,1194480.243,1201261.041,8,400,12,,ISIC_0011863.JPG
break,html.Screen,4_111_1,2023-09-15T22:06:17.626Z,,0,,,NaN,,,,,,false,,,,1201235.1999999993,1201235,,1201234.6000000015,,1201261.041,8,400,,,
break_continue,html.Screen,4_111_2,2023-09-15T22:06:17.626Z,,0,,,NaN,,,,,,false,,,,1201235.6000000015,1201235.5,,1201235.3999999985,,1201261.041,8,400,,,
sequence,flow.Sequence,4_111,2023-09-15T22:06:17.626Z,,0,,,6755.256999999983,completion,,,,,false,,,,1201235.6999999993,1201235.5,1194463.317,1194472.3999999985,1194480.243,1201261.041,8,400,,,
trial,html.Screen,4_112_0,2023-09-15T22:06:29.130Z,,0,3,,11511.033999999985,timeout,ISIC_0914251.JPG,4,ISIC_0033429.JPG,,false,,,500,1212739.5,1212739.3000000007,1201227.732,1201235.8000000007,1201261.041,1212772.075,8,400,13,,
break,html.Screen,4_112_1,2023-09-15T22:06:29.130Z,,0,,,NaN,,,,,,false,,,,1212739.8999999985,1212739.8000000007,,1212739.6000000015,,1212772.075,8,400,,,
break_continue,html.Screen,4_112_2,2023-09-15T22:06:29.130Z,,0,,,NaN,,,,,,false,,,,1212740.1000000015,1212740.1000000015,,1212740,,1212772.075,8,400,,,
sequence,flow.Sequence,4_112,2023-09-15T22:06:29.131Z,,0,,,11479.059000001522,completion,,,,,false,,,,1212740.1999999993,1212740.1000000015,1201227.732,1201235.6999999993,1201261.041,1212772.075,8,400,,,
trial,html.Screen,4_113_0,2023-09-15T22:06:32.849Z,,0,3,,3686.0250000015367,response,ISIC_0008724.JPG,5,ISIC_4253346.JPG,ISIC_4253346.JPG,false,0,keypress(z),500,1216458.6999999993,1216458.1000000015,1212755.488,1212740.3000000007,1212772.075,1216470.493,8,400,14,,ISIC_0008724.JPG
break,html.Screen,4_113_1,2023-09-15T22:06:32.850Z,,0,,,NaN,,,,,,false,,,,1216459.6000000015,1216459.3999999985,,1216458.8999999985,,1216470.493,8,400,,,
break_continue,html.Screen,4_113_2,2023-09-15T22:06:32.851Z,,0,,,NaN,,,,,,false,,,,1216460.1000000015,1216460,,1216459.6999999993,,1216470.493,8,400,,,
sequence,flow.Sequence,4_113,2023-09-15T22:06:32.851Z,,0,,,3687.9250000000466,completion,,,,,false,,,,1216460.3000000007,1216460,1212755.488,1212740.1999999993,1212772.075,1216470.493,8,400,,,
trial,html.Screen,4_114_0,2023-09-15T22:06:37.525Z,,0,3,,4663.506999999983,response,ISIC_0059412.JPG,6,ISIC_0034170.JPG,ISIC_0034170.JPG,false,0,keypress(z),500,1221134.1000000015,1221134,1216453.66,1216460.3999999985,1216470.493,1221152.798,8,400,15,,ISIC_0059412.JPG
break,html.Screen,4_114_1,2023-09-15T22:06:37.525Z,,0,,,NaN,,,,,,false,,,,1221134.8000000007,1221134.6000000015,,1221134.3000000007,,1221152.798,8,400,,,
break_continue,html.Screen,4_114_2,2023-09-15T22:06:37.525Z,,0,,,NaN,,,,,,false,,,,1221135,1221134.8999999985,,1221134.8000000007,,1221152.798,8,400,,,
sequence,flow.Sequence,4_114,2023-09-15T22:06:37.526Z,,0,,,4664.406999998493,completion,,,,,false,,,,1221135.1999999993,1221134.8999999985,1216453.66,1216460.3000000007,1216470.493,1221152.798,8,400,,,
trial,html.Screen,4_115_0,2023-09-15T22:06:42.599Z,,0,3,,5055.202000000048,response,ISIC_5179620.JPG,4,ISIC_0011892.JPG,ISIC_0011892.JPG,false,0,keypress(z),500,1226208.1000000015,1226208,1221119.128,1221135.3000000007,1221152.798,1226249.621,8,400,16,,ISIC_5179620.JPG
break,html.Screen,4_115_1,2023-09-15T22:06:42.599Z,,0,,,NaN,,,,,,false,,,,1226209,1226208.8000000007,,1226208.3000000007,,1226249.621,8,400,,,
break_continue,html.Screen,4_115_2,2023-09-15T22:06:42.600Z,,0,,,NaN,,,,,,false,,,,1226209.1999999993,1226209.1999999993,,1226209,,1226249.621,8,400,,,
sequence,flow.Sequence,4_115,2023-09-15T22:06:42.600Z,,0,,,5056.401999999303,completion,,,,,false,,,,1226209.3000000007,1226209.1999999993,1221119.128,1221135.3000000007,1221152.798,1226249.621,8,400,,,
trial,html.Screen,4_116_0,2023-09-15T22:06:48.538Z,,0,3,,5897.278999998467,response,ISIC_0060962.JPG,5,ISIC_2200924.JPG,ISIC_0060962.JPG,false,1,keypress(m),500,1232147.1999999993,1232146.8999999985,1226199.421,1226209.3000000007,1226249.621,1232163.647,8,400,17,,ISIC_2200924.JPG
break,html.Screen,4_116_1,2023-09-15T22:06:48.539Z,,0,,,NaN,,,,,,false,,,,1232147.8999999985,1232147.8000000007,,1232147.3000000007,,1232163.647,8,400,,,
break_continue,html.Screen,4_116_2,2023-09-15T22:06:48.539Z,,0,,,NaN,,,,,,false,,,,1232148.1999999993,1232148.1000000015,,1232148,,1232163.647,8,400,,,
sequence,flow.Sequence,4_116,2023-09-15T22:06:48.539Z,,0,,,5898.479000001447,completion,,,,,false,,,,1232148.3000000007,1232148.1000000015,1226199.421,1226209.3000000007,1226249.621,1232163.647,8,400,,,
trial,html.Screen,4_117_0,2023-09-15T22:06:53.758Z,,0,3,,5202.352999999886,response,ISIC_7293518.JPG,5,ISIC_3688407.JPG,ISIC_3688407.JPG,false,0,keypress(z),500,1237367,1237366,1232147.035,1232148.3000000007,1232163.647,1237395.872,8,400,18,,ISIC_7293518.JPG
break,html.Screen,4_117_1,2023-09-15T22:06:53.759Z,,0,,,NaN,,,,,,false,,,,1237368.1000000015,1237367.8999999985,,1237367.1999999993,,1237395.872,8,400,,,
break_continue,html.Screen,4_117_2,2023-09-15T22:06:53.759Z,,0,,,NaN,,,,,,false,,,,1237368.3000000007,1237368.3000000007,,1237368.1999999993,,1237395.872,8,400,,,
sequence,flow.Sequence,4_117,2023-09-15T22:06:53.759Z,,0,,,5204.653000000631,completion,,,,,false,,,,1237368.5,1237368.3000000007,1232147.035,1232148.3000000007,1232163.647,1237395.872,8,400,,,
trial,html.Screen,4_118_0,2023-09-15T22:07:01.201Z,,0,3,,7414.728000001516,response,ISIC_0062161.JPG,4,ISIC_4026540.JPG,ISIC_4026540.JPG,false,0,keypress(z),500,1244810.6999999993,1244810.6000000015,1237361.075,1237368.6000000015,1237395.872,1244841.641,8,400,19,,ISIC_0062161.JPG
break,html.Screen,4_118_1,2023-09-15T22:07:01.202Z,,0,,,NaN,,,,,,false,,,,1244811,1244810.8999999985,,1244810.6999999993,,1244841.641,8,400,,,
break_continue,html.Screen,4_118_2,2023-09-15T22:07:01.202Z,,0,,,NaN,,,,,,false,,,,1244811.1000000015,1244811.1000000015,,1244811,,1244841.641,8,400,,,
sequence,flow.Sequence,4_118,2023-09-15T22:07:01.202Z,,0,,,7415.228000001516,completion,,,,,false,,,,1244811.1000000015,1244811.1000000015,1237361.075,1237368.6000000015,1237395.872,1244841.641,8,400,,,
trial,html.Screen,4_119_0,2023-09-15T22:07:08.393Z,,0,3,,7160.258999998448,response,ISIC_4163686.JPG,7,ISIC_0055859.JPG,ISIC_4163686.JPG,false,1,keypress(m),500,1252002.1999999993,1252001.8999999985,1244808.241,1244811.1999999993,1244841.641,1252005.542,8,400,20,,ISIC_0055859.JPG
break,html.Screen,4_119_1,2023-09-15T22:07:08.394Z,,0,,,NaN,,,,,,false,,,,1252003.8000000007,1252003.3000000007,,1252002.5,,1252005.542,8,400,,,
break_continue,html.Screen,4_119_2,2023-09-15T22:07:08.395Z,,0,,,NaN,,,,,,false,,,,1252004.3999999985,1252004.1999999993,,1252004,,1252005.542,8,400,,,
sequence,flow.Sequence,4_119,2023-09-15T22:07:08.395Z,,0,,,7162.5589999991935,completion,,,,,false,,,,1252004.5,1252004.1999999993,1244808.241,1244811.1999999993,1244841.641,1252005.542,8,400,,,
trial,html.Screen,4_120_0,2023-09-15T22:07:14.657Z,,0,3,,6260.458000000101,response,ISIC_7484771.JPG,5,ISIC_0068126.JPG,ISIC_7484771.JPG,false,1,keypress(m),500,1258266.3000000007,1258266,1251988.563,1252004.6999999993,1252005.542,1258290.154,8,400,21,,ISIC_0068126.JPG
break,html.Screen,4_120_1,2023-09-15T22:07:14.658Z,,0,,,NaN,,,,,,false,,,,1258267.6999999993,1258267.3999999985,,1258266.6000000015,,1258290.154,8,400,,,
break_continue,html.Screen,4_120_2,2023-09-15T22:07:14.659Z,,0,,,NaN,,,,,,false,,,,1258268.1000000015,1258267.8999999985,,1258267.8000000007,,1258290.154,8,400,,,
sequence,flow.Sequence,4_120,2023-09-15T22:07:14.659Z,,0,,,6262.3579999986105,completion,,,,,false,,,,1258268.1999999993,1258267.8999999985,1251988.563,1252004.6999999993,1252005.542,1258290.154,8,400,,,
trial,html.Screen,4_121_0,2023-09-15T22:07:22.197Z,,0,3,,7516.245999998413,response,ISIC_4960784.JPG,4,ISIC_4756979.JPG,ISIC_4756979.JPG,false,0,keypress(z),500,1265806.8000000007,1265806.3999999985,1258269.154,1258268.3000000007,1258290.154,1265815.673,8,400,22,,ISIC_4960784.JPG
break,html.Screen,4_121_1,2023-09-15T22:07:22.198Z,,0,,,NaN,,,,,,false,,,,1265807.8000000007,1265807.5,,1265807,,1265815.673,8,400,,,
break_continue,html.Screen,4_121_2,2023-09-15T22:07:22.199Z,,0,,,NaN,,,,,,false,,,,1265808.3999999985,1265808.1000000015,,1265807.8999999985,,1265815.673,8,400,,,
sequence,flow.Sequence,4_121,2023-09-15T22:07:22.199Z,,0,,,7517.946000001393,completion,,,,,false,,,,1265808.6000000015,1265808.1000000015,1258269.154,1258268.3000000007,1258290.154,1265815.673,8,400,,,
trial,html.Screen,4_122_0,2023-09-15T22:07:28.441Z,,0,3,,6234.1270000007935,response,ISIC_1843053.JPG,5,ISIC_3084322.JPG,ISIC_3084322.JPG,false,0,keypress(z),500,1272050,1272049.8000000007,1265799.146,1265808.6999999993,1265815.673,1272063.056,8,400,23,,ISIC_1843053.JPG
break,html.Screen,4_122_1,2023-09-15T22:07:28.441Z,,0,,,NaN,,,,,,false,,,,1272050.6999999993,1272050.5,,1272050.1000000015,,1272063.056,8,400,,,
break_continue,html.Screen,4_122_2,2023-09-15T22:07:28.442Z,,0,,,NaN,,,,,,false,,,,1272050.8999999985,1272050.8000000007,,1272050.8000000007,,1272063.056,8,400,,,
sequence,flow.Sequence,4_122,2023-09-15T22:07:28.442Z,,0,,,6235.1270000007935,completion,,,,,false,,,,1272051,1272050.8000000007,1265799.146,1265808.6999999993,1265815.673,1272063.056,8,400,,,
trial,html.Screen,4_123_0,2023-09-15T22:07:35.932Z,,0,3,,7478.244000000646,response,ISIC_0024214.JPG,5,ISIC_0013634.JPG,ISIC_0013634.JPG,false,0,keypress(z),500,1279541.5,1279541.3000000007,1272046.574,1272051,1272063.056,1279559.672,8,400,24,,ISIC_0024214.JPG
break,html.Screen,4_123_1,2023-09-15T22:07:35.933Z,,0,,,NaN,,,,,,false,,,,1279542,1279542,,1279541.5,,1279559.672,8,400,,,
break_continue,html.Screen,4_123_2,2023-09-15T22:07:35.933Z,,0,,,NaN,,,,,,false,,,,1279542.6999999993,1279542.6000000015,,1279542.6000000015,,1279559.672,8,400,,,
sequence,flow.Sequence,4_123,2023-09-15T22:07:35.933Z,,0,,,7479.544000001391,completion,,,,,false,,,,1279542.6999999993,1279542.6000000015,1272046.574,1272051,1272063.056,1279559.672,8,400,,,
trial,html.Screen,4_124_0,2023-09-15T22:07:40.966Z,,0,3,,5015.227999998489,response,ISIC_0437978.JPG,5,ISIC_9709101.JPG,ISIC_0437978.JPG,false,1,keypress(m),500,1284575.1000000015,1284574.8999999985,1279548.407,1279542.8000000007,1279559.672,1284591.179,8,400,25,,ISIC_9709101.JPG
break,html.Screen,4_124_1,2023-09-15T22:07:40.966Z,,0,,,NaN,,,,,,false,,,,1284575.8000000007,1284575.6999999993,,1284575.3000000007,,1284591.179,8,400,,,
break_continue,html.Screen,4_124_2,2023-09-15T22:07:40.967Z,,0,,,NaN,,,,,,false,,,,1284576,1284576,,1284575.8999999985,,1284591.179,8,400,,,
sequence,flow.Sequence,4_124,2023-09-15T22:07:40.967Z,,0,,,5016.3279999999795,completion,,,,,false,,,,1284576.1000000015,1284576,1279548.407,1279542.8000000007,1279559.672,1284591.179,8,400,,,
trial,html.Screen,4_125_0,2023-09-15T22:07:46.896Z,,0,3,,5913.921000001486,response,ISIC_0033464.JPG,6,ISIC_0565743.JPG,ISIC_0033464.JPG,false,1,keypress(m),500,1290505.5,1290505.1000000015,1284574.54,1284576.1000000015,1284591.179,1290521.861,8,400,26,,ISIC_0565743.JPG
break,html.Screen,4_125_1,2023-09-15T22:07:46.897Z,,0,,,NaN,,,,,,false,,,,1290506.6000000015,1290506.3000000007,,1290505.6999999993,,1290521.861,8,400,,,
break_continue,html.Screen,4_125_2,2023-09-15T22:07:46.898Z,,0,,,NaN,,,,,,false,,,,1290507.6000000015,1290507.3999999985,,1290507.1999999993,,1290521.861,8,400,,,
sequence,flow.Sequence,4_125,2023-09-15T22:07:46.898Z,,0,,,5916.220999998506,completion,,,,,false,,,,1290507.8000000007,1290507.3999999985,1284574.54,1284576.1000000015,1284591.179,1290521.861,8,400,,,
