sender,sender_type,sender_id,timestamp,meta,,blockNo,condition,duration,ended_on,img_left,img_reveal,img_right,loser,practice,response,response_action,selection_duration,time_commit,time_end,time_render,time_run,time_show,time_switch,total_blocks,total_trials,trialNo,url,winner
informed_consent,html.Screen,0,2023-09-16T04:18:17.259Z,"{""labjs_version"":""20.2.4"",""labjs_build"":{""flavor"":""production"",""commit"":""f5b4a49f956347addd546a832a3327688c2c0fef""},""location"":""https://run.pavlovia.org/MurrayBennett/melanoma-2afc/?participant=67605&platform=sona"",""userAgent"":""Mozilla/5.0 (Windows NT 10.0; Win64; x64) AppleWebKit/537.36 (KHTML, like Gecko) Chrome/116.0.0.0 Safari/537.36"",""platform"":""Win32"",""language"":""en-US"",""locale"":""en-US"",""timeZone"":""America/Chicago"",""timezoneOffset"":300,""screen_width"":1366,""screen_height"":768,""scroll_width"":1366,""scroll_height"":595,""window_innerWidth"":1366,""window_innerHeight"":643,""devicePixelRatio"":1}",,,,17632.140000023843,response,,,,,,consent,click button,,28170.600000023842,28138.100000023842,10422.564,10409,10505.96,29057.707,,,,"{""participant"":""67605"",""platform"":""sona""}",
Welcome,html.Screen,1,2023-09-16T04:19:44.702Z,,,,symmetry,86552.09300007153,response,,,,,,continue,click button,,115614.30000007153,115609.80000007153,28174.369,28172.300000071526,29057.707,115633.005,,,,,
trial,html.Screen,2_0_0,2023-09-16T04:19:49.686Z,,0,0,,4964.795000071521,response,ISIC_0069348.JPG,,ISIC_6997061.JPG,ISIC_0069348.JPG,true,1,keypress(m),500,120598.60000002384,120597.80000007153,115599.702,115615,115633.005,120616.951,1,6,1,,ISIC_6997061.JPG
sequence,flow.Sequence,2_0,2023-09-16T04:19:49.687Z,,0,,,4964.795000071521,completion,,,,,true,,,,120599.60000002384,120597.80000007153,115599.702,115615,115633.005,120616.951,1,6,,,
trial,html.Screen,2_1_0,2023-09-16T04:19:52.955Z,,0,0,,3249.649000023841,response,ISIC_0009529.JPG,,ISIC_0057368.JPG,ISIC_0057368.JPG,true,0,keypress(z),500,123867.20000004768,123866.60000002384,120600.211,120600.10000002384,120616.951,123883.864,1,6,2,,ISIC_0009529.JPG
sequence,flow.Sequence,2_1,2023-09-16T04:19:52.956Z,,0,,,3249.649000023841,completion,,,,,true,,,,123867.80000007153,123866.60000002384,120600.211,120600,120616.951,123883.864,1,6,,,
trial,html.Screen,2_2_0,2023-09-16T04:19:58.370Z,,0,0,,5397.836000047682,response,ISIC_0064954.JPG,,ISIC_9758671.JPG,ISIC_9758671.JPG,true,0,keypress(z),500,129282.30000007153,129281.70000004768,123867.484,123868.39999997616,123883.864,129301.435,1,6,3,,ISIC_0064954.JPG
sequence,flow.Sequence,2_2,2023-09-16T04:19:58.371Z,,0,,,5397.836000047682,completion,,,,,true,,,,129283.20000004768,129281.70000004768,123867.484,123868.30000007153,123883.864,129301.435,1,6,,,
trial,html.Screen,2_3_0,2023-09-16T04:20:01.182Z,,0,0,,2791.4649999761605,response,ISIC_0005785.JPG,,ISIC_0000080.JPG,ISIC_0005785.JPG,true,1,keypress(m),500,132093.60000002384,132092.89999997616,129284.587,129283.89999997616,129301.435,132101.328,1,6,4,,ISIC_0000080.JPG
sequence,flow.Sequence,2_3,2023-09-16T04:20:01.183Z,,0,,,2791.4649999761605,completion,,,,,true,,,,132094.60000002384,132092.89999997616,129284.587,129283.60000002384,129301.435,132101.328,1,6,,,
trial,html.Screen,2_4_0,2023-09-16T04:20:04.195Z,,0,0,,3004.872000047675,response,ISIC_5390060.JPG,,ISIC_7944028.JPG,ISIC_5390060.JPG,true,1,keypress(m),500,135106.89999997616,135106.20000004768,132084.672,132095.30000007153,132101.328,135118.337,1,6,5,,ISIC_7944028.JPG
sequence,flow.Sequence,2_4,2023-09-16T04:20:04.196Z,,0,,,3004.872000047675,completion,,,,,true,,,,135107.70000004768,135106.20000004768,132084.672,132095.10000002384,132101.328,135118.337,1,6,,,
trial,html.Screen,2_5_0,2023-09-16T04:20:07.133Z,,0,0,,2926.2630000238423,response,ISIC_0794216.JPG,,ISIC_0010188.JPG,ISIC_0010188.JPG,true,0,keypress(z),500,138045.30000007153,138044.60000002384,135101.844,135108.30000007153,135118.337,138051.917,1,6,6,,ISIC_0794216.JPG
sequence,flow.Sequence,2_5,2023-09-16T04:20:07.134Z,,0,,,2926.2630000238423,completion,,,,,true,,,,138046.30000007153,138044.60000002384,135101.844,135108.20000004768,135118.337,138051.917,1,6,,,
loop,flow.Loop,2,2023-09-16T04:20:07.135Z,,,,,22411.595000023837,completion,,,,,true,,,,138047,138044.60000002384,115599.702,115614.89999997616,115633.005,138051.917,1,6,,,
exp_instructions,html.Screen,3,2023-09-16T04:20:29.353Z,,,,,22210.38300007154,response,,,,,,continue,keypress(Space),,160264.70000004768,160262.30000007153,138035.407,138047.39999997616,138051.917,160270.788,,,,,
trial,html.Screen,4_0_0,2023-09-16T04:20:37.012Z,,0,1,,7652.812000023841,response,ISIC_0010940.JPG,5,ISIC_0011699.JPG,ISIC_0010940.JPG,false,1,keypress(m),500,167924.10000002384,167923.60000002384,160256.422,160265.30000007153,160270.788,167938.245,8,400,1,,ISIC_0011699.JPG
break,html.Screen,4_0_1,2023-09-16T04:20:37.015Z,,0,,,NaN,,,,,,false,,,,167927,167926.30000007153,,167924.60000002384,,167938.245,8,400,,,
break_continue,html.Screen,4_0_2,2023-09-16T04:20:37.016Z,,0,,,NaN,,,,,,false,,,,167928.20000004768,167927.70000004768,,167927.30000007153,,167938.245,8,400,,,
sequence,flow.Sequence,4_0,2023-09-16T04:20:37.017Z,,0,,,7656.912000047683,completion,,,,,false,,,,167928.80000007153,167927.70000004768,160256.422,160265.10000002384,160270.788,167938.245,8,400,,,
trial,html.Screen,4_1_0,2023-09-16T04:20:42.575Z,,0,1,,5548.55500007153,response,ISIC_8414396.JPG,5,ISIC_0025744.JPG,ISIC_0025744.JPG,false,0,keypress(z),500,173487.39999997616,173486.80000007153,167921.539,167929.20000004768,167938.245,173522.169,8,400,2,,ISIC_8414396.JPG
break,html.Screen,4_1_1,2023-09-16T04:20:42.578Z,,0,,,NaN,,,,,,false,,,,173489.70000004768,173489.20000004768,,173487.80000007153,,173522.169,8,400,,,
break_continue,html.Screen,4_1_2,2023-09-16T04:20:42.579Z,,0,,,NaN,,,,,,false,,,,173490.60000002384,173490.30000007153,,173490,,173522.169,8,400,,,
sequence,flow.Sequence,4_1,2023-09-16T04:20:42.579Z,,0,,,5552.05500007153,completion,,,,,false,,,,173491.10000002384,173490.30000007153,167921.539,167929.10000002384,167938.245,173522.169,8,400,,,
trial,html.Screen,4_2_0,2023-09-16T04:20:46.652Z,,0,1,,4040.9310000238474,response,ISIC_2232883.JPG,5,ISIC_2198823.JPG,ISIC_2198823.JPG,false,0,keypress(z),500,177563.60000002384,177563.10000002384,173505.714,173491.5,173522.169,177572.546,8,400,3,,ISIC_2232883.JPG
break,html.Screen,4_2_1,2023-09-16T04:20:46.654Z,,0,,,NaN,,,,,,false,,,,177565.70000004768,177565.20000004768,,177564.10000002384,,177572.546,8,400,,,
break_continue,html.Screen,4_2_2,2023-09-16T04:20:46.655Z,,0,,,NaN,,,,,,false,,,,177566.70000004768,177566.30000007153,,177566,,177572.546,8,400,,,
sequence,flow.Sequence,4_2,2023-09-16T04:20:46.655Z,,0,,,4044.131000071531,completion,,,,,false,,,,177567.20000004768,177566.30000007153,173505.714,173491.39999997616,173522.169,177572.546,8,400,,,
trial,html.Screen,4_3_0,2023-09-16T04:20:54.265Z,,0,1,,7603.654000047682,response,ISIC_6488658.JPG,6,ISIC_0030995.JPG,ISIC_6488658.JPG,false,1,keypress(m),500,185176.80000007153,185176.20000004768,177556.102,177567.5,177572.546,185190.191,8,400,4,,ISIC_0030995.JPG
break,html.Screen,4_3_1,2023-09-16T04:20:54.267Z,,0,,,NaN,,,,,,false,,,,185178.80000007153,185178.5,,185177.30000007153,,185190.191,8,400,,,
break_continue,html.Screen,4_3_2,2023-09-16T04:20:54.268Z,,0,,,NaN,,,,,,false,,,,185179.80000007153,185179.5,,185179.20000004768,,185190.191,8,400,,,
sequence,flow.Sequence,4_3,2023-09-16T04:20:54.268Z,,0,,,7606.953999999998,completion,,,,,false,,,,185180.39999997616,185179.5,177556.102,177567.39999997616,177572.546,185190.191,8,400,,,
trial,html.Screen,4_4_0,2023-09-16T04:21:01.296Z,,0,1,,7017.309000000008,response,ISIC_0027391.JPG,6,ISIC_7351443.JPG,ISIC_7351443.JPG,false,0,keypress(z),500,192208,192207.5,185173.82,185180.70000004768,185190.191,192224.239,8,400,5,,ISIC_0027391.JPG
break,html.Screen,4_4_1,2023-09-16T04:21:01.298Z,,0,,,NaN,,,,,,false,,,,192209.89999997616,192209.5,,192208.39999997616,,192224.239,8,400,,,
break_continue,html.Screen,4_4_2,2023-09-16T04:21:01.299Z,,0,,,NaN,,,,,,false,,,,192210.89999997616,192210.60000002384,,192210.30000007153,,192224.239,8,400,,,
sequence,flow.Sequence,4_4,2023-09-16T04:21:01.299Z,,0,,,7020.40900002385,completion,,,,,false,,,,192211.39999997616,192210.60000002384,185173.82,185180.60000002384,185190.191,192224.239,8,400,,,
trial,html.Screen,4_5_0,2023-09-16T04:21:04.316Z,,0,1,,3003.6609999761567,response,ISIC_2558816.JPG,4,ISIC_0679781.JPG,ISIC_0679781.JPG,false,0,keypress(z),500,195228.30000007153,195227.89999997616,192207.406,192211.80000007153,192224.239,195240.96,8,400,6,,ISIC_2558816.JPG
break,html.Screen,4_5_1,2023-09-16T04:21:04.319Z,,0,,,NaN,,,,,,false,,,,195230.60000002384,195230.10000002384,,195228.89999997616,,195240.96,8,400,,,
break_continue,html.Screen,4_5_2,2023-09-16T04:21:04.320Z,,0,,,NaN,,,,,,false,,,,195231.70000004768,195231.30000007153,,195231.10000002384,,195240.96,8,400,,,
sequence,flow.Sequence,4_5,2023-09-16T04:21:04.320Z,,0,,,3007.061000071524,completion,,,,,false,,,,195232.10000002384,195231.30000007153,192207.406,192211.70000004768,192224.239,195240.96,8,400,,,
trial,html.Screen,4_6_0,2023-09-16T04:21:09.142Z,,0,1,,4812.240000047692,response,ISIC_8241457.JPG,6,ISIC_9130157.JPG,ISIC_8241457.JPG,false,1,keypress(m),500,200053.60000002384,200053.20000004768,195224.319,195232.60000002384,195240.96,200058.105,8,400,7,,ISIC_9130157.JPG
break,html.Screen,4_6_1,2023-09-16T04:21:09.144Z,,0,,,NaN,,,,,,false,,,,200055.70000004768,200055.39999997616,,200054.10000002384,,200058.105,8,400,,,
break_continue,html.Screen,4_6_2,2023-09-16T04:21:09.145Z,,0,,,NaN,,,,,,false,,,,200056.70000004768,200056.30000007153,,200056.10000002384,,200058.105,8,400,,,
sequence,flow.Sequence,4_6,2023-09-16T04:21:09.145Z,,0,,,4815.340000071534,completion,,,,,false,,,,200057.10000002384,200056.30000007153,195224.319,195232.5,195240.96,200058.105,8,400,,,
trial,html.Screen,4_7_0,2023-09-16T04:21:12.973Z,,0,1,,3826.5950000476732,response,ISIC_0010730.JPG,4,ISIC_0032828.JPG,ISIC_0010730.JPG,false,1,keypress(m),500,203885.20000004768,203884.70000004768,200041.496,200057.5,200058.105,203891.798,8,400,8,,ISIC_0032828.JPG
break,html.Screen,4_7_1,2023-09-16T04:21:12.975Z,,0,,,NaN,,,,,,false,,,,203887.30000007153,203886.80000007153,,203885.70000004768,,203891.798,8,400,,,
break_continue,html.Screen,4_7_2,2023-09-16T04:21:12.976Z,,0,,,NaN,,,,,,false,,,,203888.10000002384,203887.80000007153,,203887.5,,203891.798,8,400,,,
sequence,flow.Sequence,4_7,2023-09-16T04:21:12.977Z,,0,,,3829.695000071515,completion,,,,,false,,,,203888.5,203887.80000007153,200041.496,200057.30000007153,200058.105,203891.798,8,400,,,
trial,html.Screen,4_8_0,2023-09-16T04:21:17.740Z,,0,1,,4759.601999976148,response,ISIC_0024732.JPG,5,ISIC_8588957.JPG,ISIC_0024732.JPG,false,1,keypress(m),500,208652,208651.39999997616,203875.48,203889,203891.798,208658.968,8,400,9,,ISIC_8588957.JPG
break,html.Screen,4_8_1,2023-09-16T04:21:17.742Z,,0,,,NaN,,,,,,false,,,,208654.10000002384,208653.70000004768,,208652.39999997616,,208658.968,8,400,,,
break_continue,html.Screen,4_8_2,2023-09-16T04:21:17.743Z,,0,,,NaN,,,,,,false,,,,208655.10000002384,208654.80000007153,,208654.5,,208658.968,8,400,,,
sequence,flow.Sequence,4_8,2023-09-16T04:21:17.744Z,,0,,,4763.002000071516,completion,,,,,false,,,,208655.5,208654.80000007153,203875.48,203889,203891.798,208658.968,8,400,,,
trial,html.Screen,4_9_0,2023-09-16T04:21:22.307Z,,0,1,,4559.73200004769,response,ISIC_8945395.JPG,5,ISIC_0026401.JPG,ISIC_8945395.JPG,false,1,keypress(m),500,213219.20000004768,213218.70000004768,208642.375,208655.89999997616,208658.968,213226.092,8,400,10,,ISIC_0026401.JPG
break,html.Screen,4_9_1,2023-09-16T04:21:22.309Z,,0,,,NaN,,,,,,false,,,,213221.20000004768,213220.70000004768,,213219.70000004768,,213226.092,8,400,,,
break_continue,html.Screen,4_9_2,2023-09-16T04:21:22.310Z,,0,,,NaN,,,,,,false,,,,213222.20000004768,213221.89999997616,,213221.5,,213226.092,8,400,,,
sequence,flow.Sequence,4_9,2023-09-16T04:21:22.311Z,,0,,,4562.931999976165,completion,,,,,false,,,,213222.60000002384,213221.89999997616,208642.375,208655.80000007153,208658.968,213226.092,8,400,,,
trial,html.Screen,4_10_0,2023-09-16T04:21:26.145Z,,0,1,,3829.907999999996,response,ISIC_0026207.JPG,5,ISIC_0212774.JPG,ISIC_0212774.JPG,false,0,keypress(z),500,217056.5,217056,213209.71,213222.89999997616,213226.092,217059.79,8,400,11,,ISIC_0026207.JPG
break,html.Screen,4_10_1,2023-09-16T04:21:26.147Z,,0,,,NaN,,,,,,false,,,,217058.5,217058.10000002384,,217057,,217059.79,8,400,,,
break_continue,html.Screen,4_10_2,2023-09-16T04:21:26.148Z,,0,,,NaN,,,,,,false,,,,217059.5,217059.20000004768,,217058.80000007153,,217059.79,8,400,,,
sequence,flow.Sequence,4_10,2023-09-16T04:21:26.148Z,,0,,,3833.1080000476795,completion,,,,,false,,,,217060.20000004768,217059.20000004768,213209.71,213222.89999997616,213226.092,217059.79,8,400,,,
trial,html.Screen,4_11_0,2023-09-16T04:21:31.192Z,,0,1,,5043.510000071517,response,ISIC_2724278.JPG,5,ISIC_1241817.JPG,ISIC_1241817.JPG,false,0,keypress(z),500,222103.80000007153,222103.30000007153,217043.483,217060.60000002384,217059.79,222110.291,8,400,12,,ISIC_2724278.JPG
break,html.Screen,4_11_1,2023-09-16T04:21:31.194Z,,0,,,NaN,,,,,,false,,,,222106,222105.5,,222104.30000007153,,222110.291,8,400,,,
break_continue,html.Screen,4_11_2,2023-09-16T04:21:31.195Z,,0,,,NaN,,,,,,false,,,,222106.89999997616,222106.5,,222106.20000004768,,222110.291,8,400,,,
sequence,flow.Sequence,4_11,2023-09-16T04:21:31.195Z,,0,,,5046.709999999992,completion,,,,,false,,,,222107.30000007153,222106.5,217043.483,217060.60000002384,217059.79,222110.291,8,400,,,
trial,html.Screen,4_12_0,2023-09-16T04:21:35.809Z,,0,1,,4610.509000071528,response,ISIC_7210296.JPG,4,ISIC_7059794.JPG,ISIC_7059794.JPG,false,0,keypress(z),500,226721.30000007153,226720.80000007153,222093.621,222107.70000004768,222110.291,226727.422,8,400,13,,ISIC_7210296.JPG
break,html.Screen,4_12_1,2023-09-16T04:21:35.811Z,,0,,,NaN,,,,,,false,,,,226723.39999997616,226723,,226721.80000007153,,226727.422,8,400,,,
break_continue,html.Screen,4_12_2,2023-09-16T04:21:35.813Z,,0,,,NaN,,,,,,false,,,,226725,226724.70000004768,,226723.70000004768,,226727.422,8,400,,,
sequence,flow.Sequence,4_12,2023-09-16T04:21:35.814Z,,0,,,4614.409000047686,completion,,,,,false,,,,226725.5,226724.70000004768,222093.621,222107.60000002384,222110.291,226727.422,8,400,,,
trial,html.Screen,4_13_0,2023-09-16T04:21:40.944Z,,0,1,,5127.778000047692,response,ISIC_5290521.JPG,6,ISIC_4358550.JPG,ISIC_4358550.JPG,false,0,keypress(z),500,231855.80000007153,231855.20000004768,226710.928,226725.89999997616,226727.422,231861.271,8,400,14,,ISIC_5290521.JPG
break,html.Screen,4_13_1,2023-09-16T04:21:40.946Z,,0,,,NaN,,,,,,false,,,,231857.80000007153,231857.39999997616,,231856.30000007153,,231861.271,8,400,,,
break_continue,html.Screen,4_13_2,2023-09-16T04:21:40.947Z,,0,,,NaN,,,,,,false,,,,231858.80000007153,231858.39999997616,,231858.20000004768,,231861.271,8,400,,,
sequence,flow.Sequence,4_13,2023-09-16T04:21:40.947Z,,0,,,5130.977999976167,completion,,,,,false,,,,231859.30000007153,231858.39999997616,226710.928,226725.80000007153,226727.422,231861.271,8,400,,,
trial,html.Screen,4_14_0,2023-09-16T04:21:49.447Z,,0,1,,8497.529000071518,response,ISIC_7788318.JPG,4,ISIC_1744817.JPG,ISIC_7788318.JPG,false,1,keypress(m),500,240359.30000007153,240358.80000007153,231844.745,231859.70000004768,231861.271,240362.086,8,400,15,,ISIC_1744817.JPG
break,html.Screen,4_14_1,2023-09-16T04:21:49.450Z,,0,,,NaN,,,,,,false,,,,240361.5,240361,,240359.80000007153,,240362.086,8,400,,,
break_continue,html.Screen,4_14_2,2023-09-16T04:21:49.451Z,,0,,,NaN,,,,,,false,,,,240363.10000002384,240362.70000004768,,240362,,240362.086,8,400,,,
sequence,flow.Sequence,4_14,2023-09-16T04:21:49.452Z,,0,,,8501.429000047676,completion,,,,,false,,,,240363.89999997616,240362.70000004768,231844.745,231859.60000002384,231861.271,240362.086,8,400,,,
trial,html.Screen,4_15_0,2023-09-16T04:21:54.096Z,,0,1,,4645.514000023832,response,ISIC_4139260.JPG,5,ISIC_6356803.JPG,ISIC_6356803.JPG,false,0,keypress(z),500,245008.10000002384,245007.60000002384,240345.958,240364.30000007153,240362.086,245012.568,8,400,16,,ISIC_4139260.JPG
break,html.Screen,4_15_1,2023-09-16T04:21:54.098Z,,0,,,NaN,,,,,,false,,,,245010.10000002384,245009.70000004768,,245008.5,,245012.568,8,400,,,
break_continue,html.Screen,4_15_2,2023-09-16T04:21:54.099Z,,0,,,NaN,,,,,,false,,,,245011,245010.80000007153,,245010.39999997616,,245012.568,8,400,,,
sequence,flow.Sequence,4_15,2023-09-16T04:21:54.100Z,,0,,,4648.714000071515,completion,,,,,false,,,,245011.60000002384,245010.80000007153,240345.958,240364.20000004768,240362.086,245012.568,8,400,,,
trial,html.Screen,4_16_0,2023-09-16T04:21:58.808Z,,0,1,,4707.232000071526,response,ISIC_2394780.JPG,4,ISIC_0010809.JPG,ISIC_0010809.JPG,false,0,keypress(z),500,249720.30000007153,249719.80000007153,244996.234,245012,245012.568,249729.746,8,400,17,,ISIC_2394780.JPG
break,html.Screen,4_16_1,2023-09-16T04:21:58.810Z,,0,,,NaN,,,,,,false,,,,249722.30000007153,249721.89999997616,,249720.80000007153,,249729.746,8,400,,,
break_continue,html.Screen,4_16_2,2023-09-16T04:21:58.811Z,,0,,,NaN,,,,,,false,,,,249723.30000007153,249723,,249722.70000004768,,249729.746,8,400,,,
sequence,flow.Sequence,4_16,2023-09-16T04:21:58.812Z,,0,,,4710.432000000001,completion,,,,,false,,,,249723.80000007153,249723,244996.234,245011.89999997616,245012.568,249729.746,8,400,,,
trial,html.Screen,4_17_0,2023-09-16T04:22:02.528Z,,0,1,,3709.554000071512,response,ISIC_0054239.JPG,5,ISIC_0058063.JPG,ISIC_0058063.JPG,false,0,keypress(z),500,253439.70000004768,253439.30000007153,249713.351,249724.30000007153,249729.746,253446.745,8,400,18,,ISIC_0054239.JPG
break,html.Screen,4_17_1,2023-09-16T04:22:02.530Z,,0,,,NaN,,,,,,false,,,,253441.89999997616,253441.5,,253440.30000007153,,253446.745,8,400,,,
break_continue,html.Screen,4_17_2,2023-09-16T04:22:02.531Z,,0,,,NaN,,,,,,false,,,,253442.89999997616,253442.5,,253442.30000007153,,253446.745,8,400,,,
sequence,flow.Sequence,4_17,2023-09-16T04:22:02.531Z,,0,,,3712.7539999999863,completion,,,,,false,,,,253443.39999997616,253442.5,249713.351,249724.20000004768,249729.746,253446.745,8,400,,,
trial,html.Screen,4_18_0,2023-09-16T04:22:11.928Z,,0,1,,9392.355000023847,response,ISIC_0799535.JPG,5,ISIC_0005762.JPG,ISIC_0799535.JPG,false,1,keypress(m),500,262839.60000002384,262839.10000002384,253430.294,253443.70000004768,253446.745,262847.691,8,400,19,,ISIC_0005762.JPG
break,html.Screen,4_18_1,2023-09-16T04:22:11.930Z,,0,,,NaN,,,,,,false,,,,262841.8000000715,262841.3000000715,,262840.10000002384,,262847.691,8,400,,,
break_continue,html.Screen,4_18_2,2023-09-16T04:22:11.931Z,,0,,,NaN,,,,,,false,,,,262842.7000000477,262842.3000000715,,262842,,262847.691,8,400,,,
sequence,flow.Sequence,4_18,2023-09-16T04:22:11.931Z,,0,,,9395.55500007153,completion,,,,,false,,,,262843.10000002384,262842.3000000715,253430.294,253443.60000002384,253446.745,262847.691,8,400,,,
trial,html.Screen,4_19_0,2023-09-16T04:22:15.638Z,,0,1,,3702.109000071534,response,ISIC_7454679.JPG,5,ISIC_0071289.JPG,ISIC_0071289.JPG,false,0,keypress(z),500,266550,266549.8000000715,262830.921,262843.60000002384,262847.691,266564.717,8,400,20,,ISIC_7454679.JPG
break,html.Screen,4_19_1,2023-09-16T04:22:15.639Z,,0,,,NaN,,,,,,false,,,,266550.89999997616,266550.7000000477,,266550.10000002384,,266564.717,8,400,,,
break_continue,html.Screen,4_19_2,2023-09-16T04:22:15.639Z,,0,,,NaN,,,,,,false,,,,266551.10000002384,266551,,266551,,266564.717,8,400,,,
sequence,flow.Sequence,4_19,2023-09-16T04:22:15.639Z,,0,,,3703.3090000000084,completion,,,,,false,,,,266551.39999997616,266551,262830.921,262843.5,262847.691,266564.717,8,400,,,
trial,html.Screen,4_20_0,2023-09-16T04:22:19.981Z,,0,1,,4327.583000071521,response,ISIC_4433832.JPG,5,ISIC_0069204.JPG,ISIC_0069204.JPG,false,0,keypress(z),500,270892.89999997616,270892.3000000715,266548.332,266551.39999997616,266564.717,270898.485,8,400,21,,ISIC_4433832.JPG
break,html.Screen,4_20_1,2023-09-16T04:22:19.983Z,,0,,,NaN,,,,,,false,,,,270895.10000002384,270894.60000002384,,270893.3000000715,,270898.485,8,400,,,
break_continue,html.Screen,4_20_2,2023-09-16T04:22:19.984Z,,0,,,NaN,,,,,,false,,,,270895.89999997616,270895.7000000477,,270895.39999997616,,270898.485,8,400,,,
sequence,flow.Sequence,4_20,2023-09-16T04:22:19.985Z,,0,,,4330.9830000476795,completion,,,,,false,,,,270896.5,270895.7000000477,266548.332,266551.39999997616,266564.717,270898.485,8,400,,,
trial,html.Screen,4_21_0,2023-09-16T04:22:29.621Z,,0,1,,9634.015000000014,response,ISIC_6628544.JPG,6,ISIC_1674754.JPG,ISIC_1674754.JPG,false,0,keypress(z),500,280533,280532.5,270882.11,270896.89999997616,270898.485,280549.538,8,400,22,,ISIC_6628544.JPG
break,html.Screen,4_21_1,2023-09-16T04:22:29.623Z,,0,,,NaN,,,,,,false,,,,280535.3000000715,280534.8000000715,,280533.60000002384,,280549.538,8,400,,,
break_continue,html.Screen,4_21_2,2023-09-16T04:22:29.624Z,,0,,,NaN,,,,,,false,,,,280536.2000000477,280535.89999997616,,280535.60000002384,,280549.538,8,400,,,
sequence,flow.Sequence,4_21,2023-09-16T04:22:29.625Z,,0,,,9637.414999976172,completion,,,,,false,,,,280536.7000000477,280535.89999997616,270882.11,270896.7000000477,270898.485,280549.538,8,400,,,
trial,html.Screen,4_22_0,2023-09-16T04:22:34.076Z,,0,1,,4438.262000071525,response,ISIC_0003217.JPG,5,ISIC_8516223.JPG,ISIC_0003217.JPG,false,1,keypress(m),500,284988.2000000477,284987.8000000715,280533.229,280537.10000002384,280549.538,284999.908,8,400,23,,ISIC_8516223.JPG
break,html.Screen,4_22_1,2023-09-16T04:22:34.079Z,,0,,,NaN,,,,,,false,,,,284990.5,284989.89999997616,,284988.8000000715,,284999.908,8,400,,,
break_continue,html.Screen,4_22_2,2023-09-16T04:22:34.080Z,,0,,,NaN,,,,,,false,,,,284991.5,284991.2000000477,,284990.89999997616,,284999.908,8,400,,,
sequence,flow.Sequence,4_22,2023-09-16T04:22:34.080Z,,0,,,4441.662000047683,completion,,,,,false,,,,284992,284991.2000000477,280533.229,280537,280549.538,284999.908,8,400,,,
trial,html.Screen,4_23_0,2023-09-16T04:22:37.975Z,,0,1,,3886.792000047688,response,ISIC_0000371.JPG,5,ISIC_0030128.JPG,ISIC_0030128.JPG,false,0,keypress(z),500,288886.89999997616,288886.7000000477,284983.6,284992.39999997616,284999.908,288900.329,8,400,24,,ISIC_0000371.JPG
break,html.Screen,4_23_1,2023-09-16T04:22:37.976Z,,0,,,NaN,,,,,,false,,,,288887.8000000715,288887.7000000477,,288887.2000000477,,288900.329,8,400,,,
break_continue,html.Screen,4_23_2,2023-09-16T04:22:37.976Z,,0,,,NaN,,,,,,false,,,,288888.2000000477,288888.2000000477,,288888,,288900.329,8,400,,,
sequence,flow.Sequence,4_23,2023-09-16T04:22:37.976Z,,0,,,3888.292000047688,completion,,,,,false,,,,288888.39999997616,288888.2000000477,284983.6,284992.3000000715,284999.908,288900.329,8,400,,,
trial,html.Screen,4_24_0,2023-09-16T04:22:41.919Z,,0,1,,3930.3710000476567,response,ISIC_0034211.JPG,5,ISIC_5837098.JPG,ISIC_5837098.JPG,false,0,keypress(z),500,292831.3000000715,292830.7000000477,288884.013,288888.5,288900.329,292833.997,8,400,25,,ISIC_0034211.JPG
break,html.Screen,4_24_1,2023-09-16T04:22:41.922Z,,0,,,NaN,,,,,,false,,,,292833.39999997616,292832.89999997616,,292831.8000000715,,292833.997,8,400,,,
break_continue,html.Screen,4_24_2,2023-09-16T04:22:41.923Z,,0,,,NaN,,,,,,false,,,,292834.7000000477,292834.39999997616,,292833.8000000715,,292833.997,8,400,,,
sequence,flow.Sequence,4_24,2023-09-16T04:22:41.923Z,,0,,,3934.070999976131,completion,,,,,false,,,,292835.2000000477,292834.39999997616,288884.013,288888.5,288900.329,292833.997,8,400,,,
trial,html.Screen,4_25_0,2023-09-16T04:22:47.272Z,,0,1,,5349.402999976184,response,ISIC_0063369.JPG,4,ISIC_0016145.JPG,ISIC_0063369.JPG,false,1,keypress(m),500,298183.89999997616,298183.39999997616,292817.698,292835.89999997616,292833.997,298202.972,8,400,26,,ISIC_0016145.JPG
break,html.Screen,4_25_1,2023-09-16T04:22:47.274Z,,0,,,NaN,,,,,,false,,,,298186.2000000477,298185.7000000477,,298184.3000000715,,298202.972,8,400,,,
break_continue,html.Screen,4_25_2,2023-09-16T04:22:47.275Z,,0,,,NaN,,,,,,false,,,,298187,298186.8000000715,,298186.5,,298202.972,8,400,,,
sequence,flow.Sequence,4_25,2023-09-16T04:22:47.276Z,,0,,,5352.803000071552,completion,,,,,false,,,,298187.5,298186.8000000715,292817.698,292835.8000000715,292833.997,298202.972,8,400,,,
trial,html.Screen,4_26_0,2023-09-16T04:22:53.044Z,,0,1,,5752.128000023833,response,ISIC_0065727.JPG,4,ISIC_9948815.JPG,ISIC_0065727.JPG,false,1,keypress(m),500,303955.60000002384,303955.10000002384,298184.853,298187.89999997616,298202.972,303968.875,8,400,27,,ISIC_9948815.JPG
break,html.Screen,4_26_1,2023-09-16T04:22:53.046Z,,0,,,NaN,,,,,,false,,,,303957.60000002384,303957.2000000477,,303956.10000002384,,303968.875,8,400,,,
break_continue,html.Screen,4_26_2,2023-09-16T04:22:53.047Z,,0,,,NaN,,,,,,false,,,,303958.60000002384,303958.2000000477,,303958,,303968.875,8,400,,,
sequence,flow.Sequence,4_26,2023-09-16T04:22:53.047Z,,0,,,5755.228000047675,completion,,,,,false,,,,303959.10000002384,303958.2000000477,298184.853,298187.8000000715,298202.972,303968.875,8,400,,,
trial,html.Screen,4_27_0,2023-09-16T04:22:59.115Z,,0,1,,6057.725000023842,response,ISIC_0003159.JPG,5,ISIC_7138875.JPG,ISIC_7138875.JPG,false,0,keypress(z),500,310027.10000002384,310026.60000002384,303951.788,303959.5,303968.875,310035.738,8,400,28,,ISIC_0003159.JPG
break,html.Screen,4_27_1,2023-09-16T04:22:59.117Z,,0,,,NaN,,,,,,false,,,,310029.2000000477,310028.60000002384,,310027.5,,310035.738,8,400,,,
break_continue,html.Screen,4_27_2,2023-09-16T04:22:59.118Z,,0,,,NaN,,,,,,false,,,,310030.10000002384,310029.89999997616,,310029.60000002384,,310035.738,8,400,,,
sequence,flow.Sequence,4_27,2023-09-16T04:22:59.119Z,,0,,,6061.024999976158,completion,,,,,false,,,,310030.60000002384,310029.89999997616,303951.788,303959.39999997616,303968.875,310035.738,8,400,,,
trial,html.Screen,4_28_0,2023-09-16T04:23:04.179Z,,0,1,,5054.5620000715135,response,ISIC_2085855.JPG,4,ISIC_0034118.JPG,ISIC_2085855.JPG,false,1,keypress(m),500,315090.8000000715,315090.3000000715,310019.216,310031.10000002384,310035.738,315102.893,8,400,29,,ISIC_0034118.JPG
break,html.Screen,4_28_1,2023-09-16T04:23:04.181Z,,0,,,NaN,,,,,,false,,,,315093,315092.7000000477,,315091.39999997616,,315102.893,8,400,,,
break_continue,html.Screen,4_28_2,2023-09-16T04:23:04.182Z,,0,,,NaN,,,,,,false,,,,315094.2000000477,315093.7000000477,,315093.39999997616,,315102.893,8,400,,,
sequence,flow.Sequence,4_28,2023-09-16T04:23:04.183Z,,0,,,5057.962000047672,completion,,,,,false,,,,315094.60000002384,315093.7000000477,310019.216,310030.89999997616,310035.738,315102.893,8,400,,,
trial,html.Screen,4_29_0,2023-09-16T04:23:08.412Z,,0,1,,4220.907000071544,response,ISIC_7535412.JPG,6,ISIC_0011256.JPG,ISIC_7535412.JPG,false,1,keypress(m),500,319324.2000000477,319323.8000000715,315086.496,315095.7000000477,315102.893,319336.634,8,400,30,,ISIC_0011256.JPG
break,html.Screen,4_29_1,2023-09-16T04:23:08.414Z,,0,,,NaN,,,,,,false,,,,319326.39999997616,319326,,319324.8000000715,,319336.634,8,400,,,
break_continue,html.Screen,4_29_2,2023-09-16T04:23:08.415Z,,0,,,NaN,,,,,,false,,,,319327.3000000715,319327,,319326.8000000715,,319336.634,8,400,,,
sequence,flow.Sequence,4_29,2023-09-16T04:23:08.416Z,,0,,,4224.107000000018,completion,,,,,false,,,,319327.89999997616,319327,315086.496,315095,315102.893,319336.634,8,400,,,
trial,html.Screen,4_30_0,2023-09-16T04:23:13.739Z,,0,1,,5314.066000047664,response,ISIC_9913573.JPG,5,ISIC_4298761.JPG,ISIC_4298761.JPG,false,0,keypress(z),500,324651.2000000477,324650.7000000477,319320.137,319328.2000000477,319336.634,324653.837,8,400,31,,ISIC_9913573.JPG
break,html.Screen,4_30_1,2023-09-16T04:23:13.742Z,,0,,,NaN,,,,,,false,,,,324653.5,324653.10000002384,,324651.7000000477,,324653.837,8,400,,,
break_continue,html.Screen,4_30_2,2023-09-16T04:23:13.743Z,,0,,,NaN,,,,,,false,,,,324654.8000000715,324654.39999997616,,324653.8000000715,,324653.837,8,400,,,
sequence,flow.Sequence,4_30,2023-09-16T04:23:13.743Z,,0,,,5317.765999976138,completion,,,,,false,,,,324655.3000000715,324654.39999997616,319320.137,319328.10000002384,319336.634,324653.837,8,400,,,
trial,html.Screen,4_31_0,2023-09-16T04:23:18.676Z,,0,1,,4933.763000023842,response,ISIC_0027214.JPG,5,ISIC_0068128.JPG,ISIC_0068128.JPG,false,0,keypress(z),500,329587.89999997616,329587.60000002384,324637.142,324655.7000000477,324653.837,329604.375,8,400,32,,ISIC_0027214.JPG
break,html.Screen,4_31_1,2023-09-16T04:23:18.677Z,,0,,,NaN,,,,,,false,,,,329588.89999997616,329588.8000000715,,329588.2000000477,,329604.375,8,400,,,
break_continue,html.Screen,4_31_2,2023-09-16T04:23:18.677Z,,0,,,NaN,,,,,,false,,,,329589.3000000715,329589.2000000477,,329589.10000002384,,329604.375,8,400,,,
sequence,flow.Sequence,4_31,2023-09-16T04:23:18.678Z,,0,,,4935.363000047684,completion,,,,,false,,,,329589.5,329589.2000000477,324637.142,324655.60000002384,324653.837,329604.375,8,400,,,
trial,html.Screen,4_32_0,2023-09-16T04:23:23.465Z,,0,1,,4771.925000071526,response,ISIC_0046597.JPG,5,ISIC_9714746.JPG,ISIC_9714746.JPG,false,0,keypress(z),500,334376.8000000715,334376.3000000715,329587.908,329589.60000002384,329604.375,334388.178,8,400,33,,ISIC_0046597.JPG
break,html.Screen,4_32_1,2023-09-16T04:23:23.467Z,,0,,,NaN,,,,,,false,,,,334379.10000002384,334378.60000002384,,334377.3000000715,,334388.178,8,400,,,
break_continue,html.Screen,4_32_2,2023-09-16T04:23:23.468Z,,0,,,NaN,,,,,,false,,,,334380,334379.7000000477,,334379.39999997616,,334388.178,8,400,,,
sequence,flow.Sequence,4_32,2023-09-16T04:23:23.469Z,,0,,,4775.325000047684,completion,,,,,false,,,,334380.5,334379.7000000477,329587.908,329589.5,329604.375,334388.178,8,400,,,
trial,html.Screen,4_33_0,2023-09-16T04:23:29.969Z,,0,1,,6492.522000047669,response,ISIC_8174881.JPG,5,ISIC_2482061.JPG,ISIC_2482061.JPG,false,0,keypress(z),500,340881.2000000477,340880.7000000477,334371.8,334381,334388.178,340888.8,8,400,34,,ISIC_8174881.JPG
break,html.Screen,4_33_1,2023-09-16T04:23:29.972Z,,0,,,NaN,,,,,,false,,,,340883.89999997616,340883.5,,340881.7000000477,,340888.8,8,400,,,
break_continue,html.Screen,4_33_2,2023-09-16T04:23:29.973Z,,0,,,NaN,,,,,,false,,,,340884.89999997616,340884.60000002384,,340884.3000000715,,340888.8,8,400,,,
sequence,flow.Sequence,4_33,2023-09-16T04:23:29.973Z,,0,,,6496.422000023827,completion,,,,,false,,,,340885.39999997616,340884.60000002384,334371.8,334380.8000000715,334388.178,340888.8,8,400,,,
trial,html.Screen,4_34_0,2023-09-16T04:23:35.065Z,,0,1,,5088.000000071537,response,ISIC_0033569.JPG,5,ISIC_0011951.JPG,ISIC_0011951.JPG,false,0,keypress(z),500,345977.3000000715,345976.8000000715,340872.236,340885.8000000715,340888.8,345989.303,8,400,35,,ISIC_0033569.JPG
break,html.Screen,4_34_1,2023-09-16T04:23:35.067Z,,0,,,NaN,,,,,,false,,,,345979.39999997616,345979,,345977.8000000715,,345989.303,8,400,,,
break_continue,html.Screen,4_34_2,2023-09-16T04:23:35.069Z,,0,,,NaN,,,,,,false,,,,345980.5,345980.10000002384,,345979.7000000477,,345989.303,8,400,,,
sequence,flow.Sequence,4_34,2023-09-16T04:23:35.069Z,,0,,,5091.3000000238535,completion,,,,,false,,,,345980.89999997616,345980.10000002384,340872.236,340885.8000000715,340888.8,345989.303,8,400,,,
trial,html.Screen,4_35_0,2023-09-16T04:23:39.809Z,,0,1,,4731.696999999986,response,ISIC_3025889.JPG,5,ISIC_0504165.JPG,ISIC_3025889.JPG,false,1,keypress(m),500,350721.2000000477,350721,345972.884,345981.3000000715,345989.303,350723.039,8,400,36,,ISIC_0504165.JPG
break,html.Screen,4_35_1,2023-09-16T04:23:39.810Z,,0,,,NaN,,,,,,false,,,,350722,350721.7000000477,,350721.3000000715,,350723.039,8,400,,,
break_continue,html.Screen,4_35_2,2023-09-16T04:23:39.810Z,,0,,,NaN,,,,,,false,,,,350722.3000000715,350722.2000000477,,350722.10000002384,,350723.039,8,400,,,
sequence,flow.Sequence,4_35,2023-09-16T04:23:39.811Z,,0,,,4732.897000047669,completion,,,,,false,,,,350722.39999997616,350722.2000000477,345972.884,345981.2000000477,345989.303,350723.039,8,400,,,
trial,html.Screen,4_36_0,2023-09-16T04:23:44.026Z,,0,1,,4214.46100000001,response,ISIC_1952599.JPG,5,ISIC_9538004.JPG,ISIC_1952599.JPG,false,1,keypress(m),500,354938.10000002384,354937.5,350706.6,350722.60000002384,350723.039,354957.724,8,400,37,,ISIC_9538004.JPG
break,html.Screen,4_36_1,2023-09-16T04:23:44.028Z,,0,,,NaN,,,,,,false,,,,354940.3000000715,354939.7000000477,,354938.60000002384,,354957.724,8,400,,,
break_continue,html.Screen,4_36_2,2023-09-16T04:23:44.029Z,,0,,,NaN,,,,,,false,,,,354941.2000000477,354941,,354940.60000002384,,354957.724,8,400,,,
sequence,flow.Sequence,4_36,2023-09-16T04:23:44.032Z,,0,,,4217.96100000001,completion,,,,,false,,,,354943.7000000477,354941,350706.6,350722.5,350723.039,354957.724,8,400,,,
trial,html.Screen,4_37_0,2023-09-16T04:23:48.777Z,,0,1,,4730.876000023854,response,ISIC_0058823.JPG,5,ISIC_3019509.JPG,ISIC_3019509.JPG,false,0,keypress(z),500,359688.89999997616,359688.60000002384,354923.904,354944.10000002384,354957.724,359690.746,8,400,38,,ISIC_0058823.JPG
break,html.Screen,4_37_1,2023-09-16T04:23:48.778Z,,0,,,NaN,,,,,,false,,,,359689.7000000477,359689.5,,359689,,359690.746,8,400,,,
break_continue,html.Screen,4_37_2,2023-09-16T04:23:48.778Z,,0,,,NaN,,,,,,false,,,,359690.10000002384,359689.89999997616,,359689.8000000715,,359690.746,8,400,,,
sequence,flow.Sequence,4_37,2023-09-16T04:23:48.778Z,,0,,,4732.175999976171,completion,,,,,false,,,,359690.2000000477,359689.89999997616,354923.904,354944,354957.724,359690.746,8,400,,,
trial,html.Screen,4_38_0,2023-09-16T04:23:57.440Z,,0,1,,8660.754000000015,response,ISIC_0011095.JPG,5,ISIC_0011490.JPG,ISIC_0011095.JPG,false,1,keypress(m),500,368351.7000000477,368351.5,359673.995,359690.39999997616,359690.746,368358.368,8,400,39,,ISIC_0011490.JPG
break,html.Screen,4_38_1,2023-09-16T04:23:57.441Z,,0,,,NaN,,,,,,false,,,,368352.5,368352.3000000715,,368351.89999997616,,368358.368,8,400,,,
break_continue,html.Screen,4_38_2,2023-09-16T04:23:57.441Z,,0,,,NaN,,,,,,false,,,,368352.89999997616,368352.8000000715,,368352.7000000477,,368358.368,8,400,,,
sequence,flow.Sequence,4_38,2023-09-16T04:23:57.441Z,,0,,,8662.054000071541,completion,,,,,false,,,,368353.10000002384,368352.8000000715,359673.995,359690.3000000715,359690.746,368358.368,8,400,,,
trial,html.Screen,4_39_0,2023-09-16T04:24:04.867Z,,0,1,,7420.232000023825,response,ISIC_0071651.JPG,5,ISIC_3310364.JPG,ISIC_3310364.JPG,false,0,keypress(z),500,375778.89999997616,375778.60000002384,368341.29,368353.2000000477,368358.368,375792.23,8,400,40,,ISIC_0071651.JPG
break,html.Screen,4_39_1,2023-09-16T04:24:04.868Z,,0,,,NaN,,,,,,false,,,,375779.7000000477,375779.5,,375779,,375792.23,8,400,,,
break_continue,html.Screen,4_39_2,2023-09-16T04:24:04.868Z,,0,,,NaN,,,,,,false,,,,375780.10000002384,375779.89999997616,,375779.89999997616,,375792.23,8,400,,,
sequence,flow.Sequence,4_39,2023-09-16T04:24:04.868Z,,0,,,7421.531999976141,completion,,,,,false,,,,375780.2000000477,375779.89999997616,368341.29,368353.10000002384,368358.368,375792.23,8,400,,,
trial,html.Screen,4_40_0,2023-09-16T04:24:09.271Z,,0,1,,4389.570000071544,response,ISIC_1782911.JPG,6,ISIC_2316159.JPG,ISIC_2316159.JPG,false,0,keypress(z),500,380182.39999997616,380181.8000000715,375777.818,375780.3000000715,375792.23,380192.72,8,400,41,,ISIC_1782911.JPG
break,html.Screen,4_40_1,2023-09-16T04:24:09.273Z,,0,,,NaN,,,,,,false,,,,380184.39999997616,380183.89999997616,,380182.8000000715,,380192.72,8,400,,,
break_continue,html.Screen,4_40_2,2023-09-16T04:24:09.273Z,,0,,,NaN,,,,,,false,,,,380185.39999997616,380185.10000002384,,380184.8000000715,,380192.72,8,400,,,
sequence,flow.Sequence,4_40,2023-09-16T04:24:09.274Z,,0,,,4392.8700000238605,completion,,,,,false,,,,380185.8000000715,380185.10000002384,375777.818,375780.2000000477,375792.23,380192.72,8,400,,,
trial,html.Screen,4_41_0,2023-09-16T04:24:15.150Z,,0,1,,5868.480000047712,response,ISIC_1554992.JPG,5,ISIC_1956504.JPG,ISIC_1956504.JPG,false,0,keypress(z),500,386061.7000000477,386061.2000000477,380176.169,380186.2000000477,380192.72,386078.262,8,400,42,,ISIC_1554992.JPG
break,html.Screen,4_41_1,2023-09-16T04:24:15.152Z,,0,,,NaN,,,,,,false,,,,386064,386063.60000002384,,386062.2000000477,,386078.262,8,400,,,
break_continue,html.Screen,4_41_2,2023-09-16T04:24:15.153Z,,0,,,NaN,,,,,,false,,,,386065,386064.60000002384,,386064.3000000715,,386078.262,8,400,,,
sequence,flow.Sequence,4_41,2023-09-16T04:24:15.154Z,,0,,,5871.88000002387,completion,,,,,false,,,,386065.5,386064.60000002384,380176.169,380186.2000000477,380192.72,386078.262,8,400,,,
trial,html.Screen,4_42_0,2023-09-16T04:24:20.919Z,,0,1,,5751.63799997617,response,ISIC_0030393.JPG,4,ISIC_0010933.JPG,ISIC_0010933.JPG,false,0,keypress(z),500,391830.5,391829.89999997616,386060.08,386066,386078.262,391843.85,8,400,43,,ISIC_0030393.JPG
break,html.Screen,4_42_1,2023-09-16T04:24:20.921Z,,0,,,NaN,,,,,,false,,,,391832.7000000477,391832.3000000715,,391830.89999997616,,391843.85,8,400,,,
break_continue,html.Screen,4_42_2,2023-09-16T04:24:20.922Z,,0,,,NaN,,,,,,false,,,,391833.7000000477,391833.2000000477,,391833,,391843.85,8,400,,,
sequence,flow.Sequence,4_42,2023-09-16T04:24:20.922Z,,0,,,5754.938000047696,completion,,,,,false,,,,391834.2000000477,391833.2000000477,386060.08,386065.8000000715,386078.262,391843.85,8,400,,,
trial,html.Screen,4_43_0,2023-09-16T04:24:25.471Z,,0,1,,4538.150000000023,response,ISIC_0026498.JPG,5,ISIC_0033359.JPG,ISIC_0033359.JPG,false,0,keypress(z),500,396382.5,396382,391827.19,391834.7000000477,391843.85,396394.328,8,400,44,,ISIC_0026498.JPG
break,html.Screen,4_43_1,2023-09-16T04:24:25.473Z,,0,,,NaN,,,,,,false,,,,396384.89999997616,396384.39999997616,,396383.2000000477,,396394.328,8,400,,,
break_continue,html.Screen,4_43_2,2023-09-16T04:24:25.474Z,,0,,,NaN,,,,,,false,,,,396385.8000000715,396385.5,,396385.3000000715,,396394.328,8,400,,,
sequence,flow.Sequence,4_43,2023-09-16T04:24:25.475Z,,0,,,4541.650000000023,completion,,,,,false,,,,396386.39999997616,396385.5,391827.19,391834.5,391843.85,396394.328,8,400,,,
trial,html.Screen,4_44_0,2023-09-16T04:24:31.628Z,,0,1,,6145.272000023862,response,ISIC_8359258.JPG,5,ISIC_0012721.JPG,ISIC_8359258.JPG,false,1,keypress(m),500,402540.2000000477,402539.60000002384,396377.728,396386.8000000715,396394.328,402544.958,8,400,45,,ISIC_0012721.JPG
break,html.Screen,4_44_1,2023-09-16T04:24:31.631Z,,0,,,NaN,,,,,,false,,,,402542.5,402542.10000002384,,402540.7000000477,,402544.958,8,400,,,
break_continue,html.Screen,4_44_2,2023-09-16T04:24:31.632Z,,0,,,NaN,,,,,,false,,,,402543.60000002384,402543.3000000715,,402542.89999997616,,402544.958,8,400,,,
sequence,flow.Sequence,4_44,2023-09-16T04:24:31.632Z,,0,,,6148.972000071546,completion,,,,,false,,,,402544.10000002384,402543.3000000715,396377.728,396386.60000002384,396394.328,402544.958,8,400,,,
trial,html.Screen,4_45_0,2023-09-16T04:24:35.432Z,,0,1,,3798.1420000238577,response,ISIC_0006327.JPG,4,ISIC_0071508.JPG,ISIC_0006327.JPG,false,1,keypress(m),500,406343.60000002384,406343.10000002384,402528.204,402544.39999997616,402544.958,406362.056,8,400,46,,ISIC_0071508.JPG
break,html.Screen,4_45_1,2023-09-16T04:24:35.433Z,,0,,,NaN,,,,,,false,,,,406345.10000002384,406344.8000000715,,406344.10000002384,,406362.056,8,400,,,
break_continue,html.Screen,4_45_2,2023-09-16T04:24:35.435Z,,0,,,NaN,,,,,,false,,,,406346.39999997616,406346.10000002384,,406345.8000000715,,406362.056,8,400,,,
sequence,flow.Sequence,4_45,2023-09-16T04:24:35.435Z,,0,,,3801.1420000238577,completion,,,,,false,,,,406346.89999997616,406346.10000002384,402528.204,402544.39999997616,402544.958,406362.056,8,400,,,
trial,html.Screen,4_46_0,2023-09-16T04:24:41.518Z,,0,1,,6067.144000047701,response,ISIC_1508215.JPG,6,ISIC_0025755.JPG,ISIC_1508215.JPG,false,1,keypress(m),500,412429.5,412429.2000000477,406345.347,406347.3000000715,406362.056,412466.14,8,400,47,,ISIC_0025755.JPG
break,html.Screen,4_46_1,2023-09-16T04:24:41.518Z,,0,,,NaN,,,,,,false,,,,412430.10000002384,412429.89999997616,,412429.7000000477,,412466.14,8,400,,,
break_continue,html.Screen,4_46_2,2023-09-16T04:24:41.519Z,,0,,,NaN,,,,,,false,,,,412431,412430.3000000715,,412430.10000002384,,412466.14,8,400,,,
sequence,flow.Sequence,4_46,2023-09-16T04:24:41.519Z,,0,,,6068.244000071543,completion,,,,,false,,,,412431.10000002384,412430.3000000715,406345.347,406347.2000000477,406362.056,412466.14,8,400,,,
trial,html.Screen,4_47_0,2023-09-16T04:24:48.419Z,,0,1,,6863.859999999986,response,ISIC_5122042.JPG,6,ISIC_7583134.JPG,ISIC_5122042.JPG,false,1,keypress(m),500,419330.60000002384,419330,412448.11,412433.60000002384,412466.14,419347.68,8,400,48,,ISIC_7583134.JPG
break,html.Screen,4_47_1,2023-09-16T04:24:48.421Z,,0,,,NaN,,,,,,false,,,,419332.8000000715,419332.39999997616,,419331.10000002384,,419347.68,8,400,,,
break_continue,html.Screen,4_47_2,2023-09-16T04:24:48.422Z,,0,,,NaN,,,,,,false,,,,419333.8000000715,419333.39999997616,,419333.2000000477,,419347.68,8,400,,,
sequence,flow.Sequence,4_47,2023-09-16T04:24:48.422Z,,0,,,6867.259999976144,completion,,,,,false,,,,419334.2000000477,419333.39999997616,412448.11,412432,412466.14,419347.68,8,400,,,
trial,html.Screen,4_48_0,2023-09-16T04:24:52.939Z,,0,1,,4502.420000023849,response,ISIC_0033232.JPG,7,ISIC_0002821.JPG,ISIC_0002821.JPG,false,0,keypress(z),500,423850.3000000715,423850.10000002384,419329.79,419334.60000002384,419347.68,423863.709,8,400,49,,ISIC_0033232.JPG
break,html.Screen,4_48_1,2023-09-16T04:24:52.939Z,,0,,,NaN,,,,,,false,,,,423851.2000000477,423850.8000000715,,423850.39999997616,,423863.709,8,400,,,
break_continue,html.Screen,4_48_2,2023-09-16T04:24:52.940Z,,0,,,NaN,,,,,,false,,,,423851.5,423851.3000000715,,423851.3000000715,,423863.709,8,400,,,
sequence,flow.Sequence,4_48,2023-09-16T04:24:52.940Z,,0,,,4503.620000071533,completion,,,,,false,,,,423851.60000002384,423851.3000000715,419329.79,419334.5,419347.68,423863.709,8,400,,,
trial,html.Screen,4_49_0,2023-09-16T04:24:57.087Z,,0,1,,4134.091000071552,response,ISIC_7572137.JPG,5,ISIC_0062524.JPG,ISIC_7572137.JPG,false,1,keypress(m),500,427998.39999997616,427997.8000000715,423846.984,423851.7000000477,423863.709,428014.125,8,400,50,,ISIC_0062524.JPG
break,html.Screen,4_49_1,2023-09-16T04:25:07.089Z,,0,,,10000.987000000023,timeout,,,,,false,,,,438000.3000000715,437998.718,427997.76,427998.89999997616,428014.125,438015.112,8,400,,,
break_continue,html.Screen,4_49_2,2023-09-16T04:25:12.673Z,,0,,,5531.287999976135,response,,,,,false,continue,keypress(Space),,443584.39999997616,443546.39999997616,437998.718,438000.5,438015.112,443598.98,8,400,,,
sequence,flow.Sequence,4_49,2023-09-16T04:25:12.673Z,,0,,,19682.690999976185,completion,,,,,false,,,,443584.60000002384,443546.39999997616,423846.984,423851.7000000477,423863.709,443598.98,8,400,,,
trial,html.Screen,4_50_0,2023-09-16T04:25:20.299Z,,0,2,,7610.720000047702,response,ISIC_0025413.JPG,5,ISIC_8398000.JPG,ISIC_8398000.JPG,false,0,keypress(z),500,451210.39999997616,451209.7000000477,443581.878,443584.8000000715,443598.98,451216.436,8,400,1,,ISIC_0025413.JPG
break,html.Screen,4_50_1,2023-09-16T04:25:20.301Z,,0,,,NaN,,,,,,false,,,,451212.5,451212,,451210.8000000715,,451216.436,8,400,,,
break_continue,html.Screen,4_50_2,2023-09-16T04:25:20.302Z,,0,,,NaN,,,,,,false,,,,451213.39999997616,451213.10000002384,,451212.89999997616,,451216.436,8,400,,,
sequence,flow.Sequence,4_50,2023-09-16T04:25:20.302Z,,0,,,7614.1200000238605,completion,,,,,false,,,,451213.89999997616,451213.10000002384,443581.878,443584.8000000715,443598.98,451216.436,8,400,,,
trial,html.Screen,4_51_0,2023-09-16T04:25:24.450Z,,0,2,,4144.463999976171,response,ISIC_0011097.JPG,6,ISIC_8561963.JPG,ISIC_8561963.JPG,false,0,keypress(z),500,455361.5,455360.89999997616,451200.14,451214.3000000715,451216.436,455366.854,8,400,2,,ISIC_0011097.JPG
break,html.Screen,4_51_1,2023-09-16T04:25:24.452Z,,0,,,NaN,,,,,,false,,,,455363.5,455363,,455361.89999997616,,455366.854,8,400,,,
break_continue,html.Screen,4_51_2,2023-09-16T04:25:24.453Z,,0,,,NaN,,,,,,false,,,,455364.39999997616,455364.10000002384,,455363.8000000715,,455366.854,8,400,,,
sequence,flow.Sequence,4_51,2023-09-16T04:25:24.453Z,,0,,,4147.664000023855,completion,,,,,false,,,,455364.89999997616,455364.10000002384,451200.14,451214.10000002384,451216.436,455366.854,8,400,,,
trial,html.Screen,4_52_0,2023-09-16T04:25:29.200Z,,0,2,,4744.74600002385,response,ISIC_0033017.JPG,4,ISIC_6913272.JPG,ISIC_0033017.JPG,false,1,keypress(m),500,460112.2000000477,460111.60000002384,455350.504,455365.39999997616,455366.854,460117.329,8,400,3,,ISIC_6913272.JPG
break,html.Screen,4_52_1,2023-09-16T04:25:29.202Z,,0,,,NaN,,,,,,false,,,,460114.2000000477,460113.8000000715,,460112.60000002384,,460117.329,8,400,,,
break_continue,html.Screen,4_52_2,2023-09-16T04:25:29.203Z,,0,,,NaN,,,,,,false,,,,460115.2000000477,460114.89999997616,,460114.60000002384,,460117.329,8,400,,,
sequence,flow.Sequence,4_52,2023-09-16T04:25:29.204Z,,0,,,4748.045999976166,completion,,,,,false,,,,460115.7000000477,460114.89999997616,455350.504,455365.2000000477,455366.854,460117.329,8,400,,,
trial,html.Screen,4_53_0,2023-09-16T04:25:33.535Z,,0,2,,4328.670999999973,response,ISIC_9544832.JPG,5,ISIC_0046645.JPG,ISIC_0046645.JPG,false,0,keypress(z),500,464446.60000002384,464446,460101.083,460116.10000002384,460117.329,464451.07,8,400,4,,ISIC_9544832.JPG
break,html.Screen,4_53_1,2023-09-16T04:25:33.537Z,,0,,,NaN,,,,,,false,,,,464449.2000000477,464448.7000000477,,464447.2000000477,,464451.07,8,400,,,
break_continue,html.Screen,4_53_2,2023-09-16T04:25:33.539Z,,0,,,NaN,,,,,,false,,,,464450.3000000715,464449.89999997616,,464449.60000002384,,464451.07,8,400,,,
sequence,flow.Sequence,4_53,2023-09-16T04:25:33.539Z,,0,,,4332.570999976131,completion,,,,,false,,,,464450.8000000715,464449.89999997616,460101.083,460115.89999997616,460117.329,464451.07,8,400,,,
trial,html.Screen,4_54_0,2023-09-16T04:25:36.810Z,,0,2,,3270.6300000476767,response,ISIC_0057192.JPG,6,ISIC_0210998.JPG,ISIC_0057192.JPG,false,1,keypress(m),500,467722.10000002384,467721.7000000477,464434.699,464451.5,464451.07,467734.742,8,400,5,,ISIC_0210998.JPG
break,html.Screen,4_54_1,2023-09-16T04:25:36.812Z,,0,,,NaN,,,,,,false,,,,467724.10000002384,467723.7000000477,,467722.60000002384,,467734.742,8,400,,,
break_continue,html.Screen,4_54_2,2023-09-16T04:25:36.813Z,,0,,,NaN,,,,,,false,,,,467725,467724.7000000477,,467724.39999997616,,467734.742,8,400,,,
sequence,flow.Sequence,4_54,2023-09-16T04:25:36.814Z,,0,,,3273.6300000476767,completion,,,,,false,,,,467725.5,467724.7000000477,464434.699,464451.3000000715,464451.07,467734.742,8,400,,,
trial,html.Screen,4_55_0,2023-09-16T04:25:41.042Z,,0,2,,4218.358000023814,response,ISIC_6334958.JPG,4,ISIC_2915747.JPG,ISIC_6334958.JPG,false,1,keypress(m),500,471953.7000000477,471953.10000002384,467718.301,467725.89999997616,467734.742,471971.56,8,400,6,,ISIC_2915747.JPG
break,html.Screen,4_55_1,2023-09-16T04:25:41.044Z,,0,,,NaN,,,,,,false,,,,471955.89999997616,471955.39999997616,,471954.2000000477,,471971.56,8,400,,,
break_continue,html.Screen,4_55_2,2023-09-16T04:25:41.045Z,,0,,,NaN,,,,,,false,,,,471956.8000000715,471956.39999997616,,471956.2000000477,,471971.56,8,400,,,
sequence,flow.Sequence,4_55,2023-09-16T04:25:41.046Z,,0,,,4221.657999976131,completion,,,,,false,,,,471957.3000000715,471956.39999997616,467718.301,467725.8000000715,467734.742,471971.56,8,400,,,
trial,html.Screen,4_56_0,2023-09-16T04:25:45.885Z,,0,2,,4824.740000071528,response,ISIC_6811363.JPG,5,ISIC_1870309.JPG,ISIC_1870309.JPG,false,0,keypress(z),500,476796.8000000715,476796.3000000715,471952.078,471957.7000000477,471971.56,476802.319,8,400,7,,ISIC_6811363.JPG
break,html.Screen,4_56_1,2023-09-16T04:25:45.887Z,,0,,,NaN,,,,,,false,,,,476798.89999997616,476798.60000002384,,476797.2000000477,,476802.319,8,400,,,
break_continue,html.Screen,4_56_2,2023-09-16T04:25:45.888Z,,0,,,NaN,,,,,,false,,,,476799.89999997616,476799.60000002384,,476799.3000000715,,476802.319,8,400,,,
sequence,flow.Sequence,4_56,2023-09-16T04:25:45.889Z,,0,,,4828.040000023844,completion,,,,,false,,,,476800.39999997616,476799.60000002384,471952.078,471957.5,471971.56,476802.319,8,400,,,
trial,html.Screen,4_57_0,2023-09-16T04:25:53.572Z,,0,2,,7681.481000071508,response,ISIC_0014144.JPG,6,ISIC_5934239.JPG,ISIC_0014144.JPG,false,1,keypress(m),500,484484,484483.8000000715,476785.703,476800.7000000477,476802.319,484486.361,8,400,8,,ISIC_5934239.JPG
break,html.Screen,4_57_1,2023-09-16T04:25:53.573Z,,0,,,NaN,,,,,,false,,,,484485,484484.8000000715,,484484.2000000477,,484486.361,8,400,,,
break_continue,html.Screen,4_57_2,2023-09-16T04:25:53.573Z,,0,,,NaN,,,,,,false,,,,484485.2000000477,484485.2000000477,,484485.10000002384,,484486.361,8,400,,,
sequence,flow.Sequence,4_57,2023-09-16T04:25:53.573Z,,0,,,7682.881000047666,completion,,,,,false,,,,484485.39999997616,484485.2000000477,476785.703,476800.60000002384,476802.319,484486.361,8,400,,,
trial,html.Screen,4_58_0,2023-09-16T04:25:57.289Z,,0,2,,3714.3390000477084,response,ISIC_3336353.JPG,5,ISIC_5298608.JPG,ISIC_5298608.JPG,false,0,keypress(z),500,488201.2000000477,488200.7000000477,484469.727,484485.5,484486.361,488220.629,8,400,9,,ISIC_3336353.JPG
break,html.Screen,4_58_1,2023-09-16T04:25:57.291Z,,0,,,NaN,,,,,,false,,,,488203.3000000715,488202.89999997616,,488201.7000000477,,488220.629,8,400,,,
break_continue,html.Screen,4_58_2,2023-09-16T04:25:57.292Z,,0,,,NaN,,,,,,false,,,,488204.3000000715,488204,,488203.7000000477,,488220.629,8,400,,,
sequence,flow.Sequence,4_58,2023-09-16T04:25:57.293Z,,0,,,3717.6390000000247,completion,,,,,false,,,,488204.7000000477,488204,484469.727,484485.5,484486.361,488220.629,8,400,,,
trial,html.Screen,4_59_0,2023-09-16T04:26:01.495Z,,0,2,,4185.770999976143,response,ISIC_8194371.JPG,6,ISIC_5791954.JPG,ISIC_8194371.JPG,false,1,keypress(m),500,492407,492406.39999997616,488187.021,488205.39999997616,488220.629,492420.623,8,400,10,,ISIC_5791954.JPG
break,html.Screen,4_59_1,2023-09-16T04:26:01.497Z,,0,,,NaN,,,,,,false,,,,492409,492408.60000002384,,492407.39999997616,,492420.623,8,400,,,
break_continue,html.Screen,4_59_2,2023-09-16T04:26:01.498Z,,0,,,NaN,,,,,,false,,,,492409.89999997616,492409.5,,492409.3000000715,,492420.623,8,400,,,
sequence,flow.Sequence,4_59,2023-09-16T04:26:01.498Z,,0,,,4188.870999999985,completion,,,,,false,,,,492410.3000000715,492409.5,488187.021,488205,488220.629,492420.623,8,400,,,
trial,html.Screen,4_60_0,2023-09-16T04:26:05.614Z,,0,2,,4104.47700002382,response,ISIC_1706912.JPG,5,ISIC_0029303.JPG,ISIC_0029303.JPG,false,0,keypress(z),500,496525.8000000715,496525.10000002384,492404.341,492410.7000000477,492420.623,496537.606,8,400,11,,ISIC_1706912.JPG
break,html.Screen,4_60_1,2023-09-16T04:26:05.616Z,,0,,,NaN,,,,,,false,,,,496527.7000000477,496527.3000000715,,496526.2000000477,,496537.606,8,400,,,
break_continue,html.Screen,4_60_2,2023-09-16T04:26:05.617Z,,0,,,NaN,,,,,,false,,,,496528.60000002384,496528.2000000477,,496528,,496537.606,8,400,,,
sequence,flow.Sequence,4_60,2023-09-16T04:26:05.617Z,,0,,,4107.577000047662,completion,,,,,false,,,,496529,496528.2000000477,492404.341,492410.60000002384,492420.623,496537.606,8,400,,,
trial,html.Screen,4_61_0,2023-09-16T04:26:10.005Z,,0,2,,4378.793999976129,response,ISIC_6517663.JPG,5,ISIC_0072553.JPG,ISIC_6517663.JPG,false,1,keypress(m),500,500917,500916.39999997616,496521.203,496529.39999997616,496537.606,500921.385,8,400,12,,ISIC_0072553.JPG
break,html.Screen,4_61_1,2023-09-16T04:26:10.007Z,,0,,,NaN,,,,,,false,,,,500919,500918.60000002384,,500917.39999997616,,500921.385,8,400,,,
break_continue,html.Screen,4_61_2,2023-09-16T04:26:10.008Z,,0,,,NaN,,,,,,false,,,,500919.89999997616,500919.60000002384,,500919.3000000715,,500921.385,8,400,,,
sequence,flow.Sequence,4_61,2023-09-16T04:26:10.008Z,,0,,,4381.994000023813,completion,,,,,false,,,,500920.39999997616,500919.60000002384,496521.203,496529.3000000715,496537.606,500921.385,8,400,,,
trial,html.Screen,4_62_0,2023-09-16T04:26:13.852Z,,0,2,,3842.8150000476744,response,ISIC_9418196.JPG,5,ISIC_0064472.JPG,ISIC_9418196.JPG,false,1,keypress(m),500,504764.39999997616,504764.2000000477,500905.014,500920.8000000715,500921.385,504772.264,8,400,13,,ISIC_0064472.JPG
break,html.Screen,4_62_1,2023-09-16T04:26:13.853Z,,0,,,NaN,,,,,,false,,,,504765.3000000715,504765.2000000477,,504764.60000002384,,504772.264,8,400,,,
break_continue,html.Screen,4_62_2,2023-09-16T04:26:13.854Z,,0,,,NaN,,,,,,false,,,,504765.60000002384,504765.60000002384,,504765.39999997616,,504772.264,8,400,,,
sequence,flow.Sequence,4_62,2023-09-16T04:26:13.854Z,,0,,,3844.2150000238325,completion,,,,,false,,,,504765.89999997616,504765.60000002384,500905.014,500920.60000002384,500921.385,504772.264,8,400,,,
trial,html.Screen,4_63_0,2023-09-16T04:26:18.295Z,,0,2,,4434.235999999975,response,ISIC_3559222.JPG,5,ISIC_5356775.JPG,ISIC_3559222.JPG,false,1,keypress(m),500,509206.8000000715,509206.5,504755.182,504765.89999997616,504772.264,509222.246,8,400,14,,ISIC_5356775.JPG
break,html.Screen,4_63_1,2023-09-16T04:26:18.296Z,,0,,,NaN,,,,,,false,,,,509207.7000000477,509207.5,,509206.89999997616,,509222.246,8,400,,,
break_continue,html.Screen,4_63_2,2023-09-16T04:26:18.296Z,,0,,,NaN,,,,,,false,,,,509207.89999997616,509207.8000000715,,509207.7000000477,,509222.246,8,400,,,
sequence,flow.Sequence,4_63,2023-09-16T04:26:18.296Z,,0,,,4435.536000071501,completion,,,,,false,,,,509208.10000002384,509207.8000000715,504755.182,504765.89999997616,504772.264,509222.246,8,400,,,
trial,html.Screen,4_64_0,2023-09-16T04:26:22.859Z,,0,2,,4548.054000071541,response,ISIC_0027266.JPG,5,ISIC_0013671.JPG,ISIC_0027266.JPG,false,1,keypress(m),500,513770.8000000715,513770.3000000715,509205.526,509208.10000002384,509222.246,513789.986,8,400,15,,ISIC_0013671.JPG
break,html.Screen,4_64_1,2023-09-16T04:26:22.861Z,,0,,,NaN,,,,,,false,,,,513772.8000000715,513772.39999997616,,513771.3000000715,,513789.986,8,400,,,
break_continue,html.Screen,4_64_2,2023-09-16T04:26:22.862Z,,0,,,NaN,,,,,,false,,,,513774.2000000477,513773.7000000477,,513773.3000000715,,513789.986,8,400,,,
sequence,flow.Sequence,4_64,2023-09-16T04:26:22.863Z,,0,,,4551.454000047699,completion,,,,,false,,,,513775,513773.7000000477,509205.526,509208.10000002384,509222.246,513789.986,8,400,,,
trial,html.Screen,4_65_0,2023-09-16T04:26:27.802Z,,0,2,,4923.913999976183,response,ISIC_0011607.JPG,5,ISIC_1223648.JPG,ISIC_1223648.JPG,false,0,keypress(z),500,518714.5,518713.89999997616,513756.311,513775.60000002384,513789.986,518723.189,8,400,16,,ISIC_0011607.JPG
break,html.Screen,4_65_1,2023-09-16T04:26:27.804Z,,0,,,NaN,,,,,,false,,,,518716.39999997616,518715.89999997616,,518714.89999997616,,518723.189,8,400,,,
break_continue,html.Screen,4_65_2,2023-09-16T04:26:27.805Z,,0,,,NaN,,,,,,false,,,,518717.5,518717,,518716.7000000477,,518723.189,8,400,,,
sequence,flow.Sequence,4_65,2023-09-16T04:26:27.806Z,,0,,,4927.014000000025,completion,,,,,false,,,,518717.8000000715,518717,513756.311,513775.39999997616,513789.986,518723.189,8,400,,,
trial,html.Screen,4_66_0,2023-09-16T04:26:32.258Z,,0,2,,4446.011000047671,response,ISIC_0027507.JPG,5,ISIC_6507412.JPG,ISIC_6507412.JPG,false,0,keypress(z),500,523169.7000000477,523169.2000000477,518706.725,518718.3000000715,518723.189,523173.603,8,400,17,,ISIC_0027507.JPG
break,html.Screen,4_66_1,2023-09-16T04:26:32.260Z,,0,,,NaN,,,,,,false,,,,523171.89999997616,523171.39999997616,,523170.2000000477,,523173.603,8,400,,,
break_continue,html.Screen,4_66_2,2023-09-16T04:26:32.261Z,,0,,,NaN,,,,,,false,,,,523173.3000000715,523173,,523172.10000002384,,523173.603,8,400,,,
sequence,flow.Sequence,4_66,2023-09-16T04:26:32.262Z,,0,,,4449.810999999987,completion,,,,,false,,,,523174.2000000477,523173,518706.725,518718.2000000477,518723.189,523173.603,8,400,,,
trial,html.Screen,4_67_0,2023-09-16T04:26:37.792Z,,0,2,,5529.497000023839,response,ISIC_0033275.JPG,6,ISIC_1615996.JPG,ISIC_1615996.JPG,false,0,keypress(z),500,528703.7000000477,528703.1000000238,523157.301,523174.60000002384,523173.603,528724.153,8,400,18,,ISIC_0033275.JPG
break,html.Screen,4_67_1,2023-09-16T04:26:37.793Z,,0,,,NaN,,,,,,false,,,,528705.2000000477,528704.8000000715,,528704.2000000477,,528724.153,8,400,,,
break_continue,html.Screen,4_67_2,2023-09-16T04:26:37.794Z,,0,,,NaN,,,,,,false,,,,528706.2000000477,528705.8000000715,,528705.5,,528724.153,8,400,,,
sequence,flow.Sequence,4_67,2023-09-16T04:26:37.795Z,,0,,,5532.197000071523,completion,,,,,false,,,,528706.6000000238,528705.8000000715,523157.301,523174.5,523173.603,528724.153,8,400,,,
trial,html.Screen,4_68_0,2023-09-16T04:26:42.041Z,,0,2,,4228.746999976109,response,ISIC_6201695.JPG,5,ISIC_0189336.JPG,ISIC_6201695.JPG,false,1,keypress(m),500,532953.3999999762,532952.8999999762,528707.525,528707,528724.153,532957.909,8,400,19,,ISIC_0189336.JPG
break,html.Screen,4_68_1,2023-09-16T04:26:42.044Z,,0,,,NaN,,,,,,false,,,,532955.7000000477,532955.3000000715,,532954,,532957.909,8,400,,,
break_continue,html.Screen,4_68_2,2023-09-16T04:26:42.045Z,,0,,,NaN,,,,,,false,,,,532956.7000000477,532956.3000000715,,532956.1000000238,,532957.909,8,400,,,
sequence,flow.Sequence,4_68,2023-09-16T04:26:42.045Z,,0,,,4232.147000071476,completion,,,,,false,,,,532957.1000000238,532956.3000000715,528707.525,528706.8999999762,528724.153,532957.909,8,400,,,
trial,html.Screen,4_69_0,2023-09-16T04:26:46.497Z,,0,2,,4450.791000047699,response,ISIC_0025006.JPG,5,ISIC_3152541.JPG,ISIC_3152541.JPG,false,0,keypress(z),500,537409.3000000715,537408.7000000477,532941.344,532957.5,532957.909,537426.685,8,400,20,,ISIC_0025006.JPG
break,html.Screen,4_69_1,2023-09-16T04:26:46.499Z,,0,,,NaN,,,,,,false,,,,537411.3000000715,537410.8999999762,,537409.8000000715,,537426.685,8,400,,,
break_continue,html.Screen,4_69_2,2023-09-16T04:26:46.500Z,,0,,,NaN,,,,,,false,,,,537412.3000000715,537411.8999999762,,537411.7000000477,,537426.685,8,400,,,
sequence,flow.Sequence,4_69,2023-09-16T04:26:46.501Z,,0,,,4453.990999976173,completion,,,,,false,,,,537412.7000000477,537411.8999999762,532941.344,532957.3999999762,532957.909,537426.685,8,400,,,
trial,html.Screen,4_70_0,2023-09-16T04:26:51.640Z,,0,2,,5124.61500007147,response,ISIC_0013766.JPG,5,ISIC_0028081.JPG,ISIC_0013766.JPG,false,1,keypress(m),500,542551.8999999762,542551.3000000715,537408.382,537413.1000000238,537426.685,542558.812,8,400,21,,ISIC_0028081.JPG
break,html.Screen,4_70_1,2023-09-16T04:26:51.642Z,,0,,,NaN,,,,,,false,,,,542553.8999999762,542553.5,,542552.3000000715,,542558.812,8,400,,,
break_continue,html.Screen,4_70_2,2023-09-16T04:26:51.643Z,,0,,,NaN,,,,,,false,,,,542554.6000000238,542554.3999999762,,542554.3000000715,,542558.812,8,400,,,
sequence,flow.Sequence,4_70,2023-09-16T04:26:51.643Z,,0,,,5127.714999976102,completion,,,,,false,,,,542554.7000000477,542554.3999999762,537408.382,537413,537426.685,542558.812,8,400,,,
trial,html.Screen,4_71_0,2023-09-16T04:26:56.301Z,,0,2,,4653.488000071491,response,ISIC_0015044.JPG,6,ISIC_1205826.JPG,ISIC_1205826.JPG,false,0,keypress(z),500,547212.6000000238,547212.3000000715,542542.511,542554.8000000715,542558.812,547225.941,8,400,22,,ISIC_0015044.JPG
break,html.Screen,4_71_1,2023-09-16T04:26:56.302Z,,0,,,NaN,,,,,,false,,,,547213.5,547213.3000000715,,547212.8000000715,,547225.941,8,400,,,
break_continue,html.Screen,4_71_2,2023-09-16T04:26:56.302Z,,0,,,NaN,,,,,,false,,,,547213.8999999762,547213.7000000477,,547213.6000000238,,547225.941,8,400,,,
sequence,flow.Sequence,4_71,2023-09-16T04:26:56.302Z,,0,,,4654.888000047649,completion,,,,,false,,,,547214,547213.7000000477,542542.511,542554.8000000715,542558.812,547225.941,8,400,,,
trial,html.Screen,4_72_0,2023-09-16T04:27:00.564Z,,0,2,,4249.359000071534,response,ISIC_5097947.JPG,5,ISIC_0028616.JPG,ISIC_0028616.JPG,false,0,keypress(z),500,551475.8000000715,551475.3000000715,547209.299,547214.2000000477,547225.941,551493.221,8,400,23,,ISIC_5097947.JPG
break,html.Screen,4_72_1,2023-09-16T04:27:00.567Z,,0,,,NaN,,,,,,false,,,,551478.7000000477,551478.1000000238,,551476.3000000715,,551493.221,8,400,,,
break_continue,html.Screen,4_72_2,2023-09-16T04:27:00.568Z,,0,,,NaN,,,,,,false,,,,551479.5,551479.2000000477,,551479,,551493.221,8,400,,,
sequence,flow.Sequence,4_72,2023-09-16T04:27:00.568Z,,0,,,4253.259000047692,completion,,,,,false,,,,551480.1000000238,551479.2000000477,547209.299,547214.2000000477,547225.941,551493.221,8,400,,,
trial,html.Screen,4_73_0,2023-09-16T04:27:07.756Z,,0,2,,7174.27899999998,response,ISIC_0031941.JPG,6,ISIC_4417495.JPG,ISIC_0031941.JPG,false,1,keypress(m),500,558667.8000000715,558667.5,551476.339,551480.3999999762,551493.221,558677.088,8,400,24,,ISIC_4417495.JPG
break,html.Screen,4_73_1,2023-09-16T04:27:07.758Z,,0,,,NaN,,,,,,false,,,,558669.5,558669,,558668.1000000238,,558677.088,8,400,,,
break_continue,html.Screen,4_73_2,2023-09-16T04:27:07.758Z,,0,,,NaN,,,,,,false,,,,558669.8999999762,558669.7000000477,,558669.6000000238,,558677.088,8,400,,,
sequence,flow.Sequence,4_73,2023-09-16T04:27:07.758Z,,0,,,7176.479000047664,completion,,,,,false,,,,558670,558669.7000000477,551476.339,551480.3000000715,551493.221,558677.088,8,400,,,
trial,html.Screen,4_74_0,2023-09-16T04:27:11.395Z,,0,2,,3629.112000047695,response,ISIC_1740912.JPG,5,ISIC_2769292.JPG,ISIC_1740912.JPG,false,1,keypress(m),500,562306.8000000715,562306.2000000477,558660.419,558670.2000000477,558677.088,562310.833,8,400,25,,ISIC_2769292.JPG
break,html.Screen,4_74_1,2023-09-16T04:27:11.397Z,,0,,,NaN,,,,,,false,,,,562309,562308.5,,562307.3000000715,,562310.833,8,400,,,
break_continue,html.Screen,4_74_2,2023-09-16T04:27:11.398Z,,0,,,NaN,,,,,,false,,,,562309.8000000715,562309.5,,562309.3000000715,,562310.833,8,400,,,
sequence,flow.Sequence,4_74,2023-09-16T04:27:11.399Z,,0,,,3632.412000000011,completion,,,,,false,,,,562310.3999999762,562309.5,558660.419,558670.2000000477,558677.088,562310.833,8,400,,,
trial,html.Screen,4_75_0,2023-09-16T04:27:19.594Z,,0,2,,8195.066999976174,response,ISIC_0030417.JPG,5,ISIC_9940466.JPG,ISIC_9940466.JPG,false,0,keypress(z),500,570506.2000000477,570505.8999999762,562294.246,562311.1000000238,562310.833,570511.61,8,400,26,,ISIC_0030417.JPG
break,html.Screen,4_75_1,2023-09-16T04:27:19.595Z,,0,,,NaN,,,,,,false,,,,570507,570506.8000000715,,570506.3000000715,,570511.61,8,400,,,
break_continue,html.Screen,4_75_2,2023-09-16T04:27:19.596Z,,0,,,NaN,,,,,,false,,,,570507.3999999762,570507.2000000477,,570507.2000000477,,570511.61,8,400,,,
sequence,flow.Sequence,4_75,2023-09-16T04:27:19.597Z,,0,,,8196.3670000477,completion,,,,,false,,,,570508.3999999762,570507.2000000477,562294.246,562310.6000000238,562310.833,570511.61,8,400,,,
trial,html.Screen,4_76_0,2023-09-16T04:27:25.071Z,,0,2,,5470.490000023856,response,ISIC_1083681.JPG,5,ISIC_0014985.JPG,ISIC_0014985.JPG,false,0,keypress(z),500,575982.6000000238,575982.1000000238,570494.909,570508.5,570511.61,575996.059,8,400,27,,ISIC_1083681.JPG
break,html.Screen,4_76_1,2023-09-16T04:27:25.073Z,,0,,,NaN,,,,,,false,,,,575984.7000000477,575984.3000000715,,575983.2000000477,,575996.059,8,400,,,
break_continue,html.Screen,4_76_2,2023-09-16T04:27:25.074Z,,0,,,NaN,,,,,,false,,,,575985.7000000477,575985.3999999762,,575985.1000000238,,575996.059,8,400,,,
sequence,flow.Sequence,4_76,2023-09-16T04:27:25.074Z,,0,,,5473.789999976172,completion,,,,,false,,,,575986.2000000477,575985.3999999762,570494.909,570508.5,570511.61,575996.059,8,400,,,
trial,html.Screen,4_77_0,2023-09-16T04:27:36.570Z,,0,2,,11517.381999999983,timeout,ISIC_0012701.JPG,6,ISIC_0032856.JPG,ISIC_0032856.JPG,false,,,500,587481.8000000715,587481.2000000477,575979.151,575986.6000000238,575996.059,587513.441,8,400,28,,ISIC_0012701.JPG
break,html.Screen,4_77_1,2023-09-16T04:27:36.572Z,,0,,,NaN,,,,,,false,,,,587483.3999999762,587483,,587482.3000000715,,587513.441,8,400,,,
break_continue,html.Screen,4_77_2,2023-09-16T04:27:36.572Z,,0,,,NaN,,,,,,false,,,,587484.2000000477,587484,,587483.7000000477,,587513.441,8,400,,,
sequence,flow.Sequence,4_77,2023-09-16T04:27:36.573Z,,0,,,11487.940999999992,completion,,,,,false,,,,587484.7000000477,587484,575979.151,575986.5,575996.059,587513.441,8,400,,,
trial,html.Screen,4_78_0,2023-09-16T04:27:39.921Z,,0,2,,3318.5590000000084,response,ISIC_3928910.JPG,5,ISIC_1777398.JPG,ISIC_3928910.JPG,false,1,keypress(m),500,590832.7000000477,590832,587496.866,587485.1000000238,587513.441,590847.008,8,400,29,,ISIC_1777398.JPG
break,html.Screen,4_78_1,2023-09-16T04:27:39.923Z,,0,,,NaN,,,,,,false,,,,590834.7000000477,590834.2000000477,,590833.1000000238,,590847.008,8,400,,,
break_continue,html.Screen,4_78_2,2023-09-16T04:27:39.924Z,,0,,,NaN,,,,,,false,,,,590835.8000000715,590835.5,,590835.2000000477,,590847.008,8,400,,,
sequence,flow.Sequence,4_78,2023-09-16T04:27:39.924Z,,0,,,3322.0590000000084,completion,,,,,false,,,,590836.2000000477,590835.5,587496.866,587485,587513.441,590847.008,8,400,,,
trial,html.Screen,4_79_0,2023-09-16T04:27:44.952Z,,0,2,,5016.092000023811,response,ISIC_0024496.JPG,5,ISIC_0054673.JPG,ISIC_0054673.JPG,false,0,keypress(z),500,595863.6000000238,595863.1000000238,590830.547,590836.7000000477,590847.008,595883.337,8,400,30,,ISIC_0024496.JPG
break,html.Screen,4_79_1,2023-09-16T04:27:44.954Z,,0,,,NaN,,,,,,false,,,,595865.8000000715,595865.3000000715,,595864.2000000477,,595883.337,8,400,,,
break_continue,html.Screen,4_79_2,2023-09-16T04:27:44.955Z,,0,,,NaN,,,,,,false,,,,595866.7000000477,595866.3999999762,,595866.1000000238,,595883.337,8,400,,,
sequence,flow.Sequence,4_79,2023-09-16T04:27:44.955Z,,0,,,5019.391999976127,completion,,,,,false,,,,595867.2000000477,595866.3999999762,590830.547,590836.6000000238,590847.008,595883.337,8,400,,,
trial,html.Screen,4_80_0,2023-09-16T04:27:48.770Z,,0,2,,3798.263000023784,response,ISIC_0059181.JPG,5,ISIC_9544832.JPG,ISIC_9544832.JPG,false,0,keypress(z),500,599682.1000000238,599681.6000000238,595864.556,595867.5,595883.337,599697.942,8,400,31,,ISIC_0059181.JPG
break,html.Screen,4_80_1,2023-09-16T04:27:48.772Z,,0,,,NaN,,,,,,false,,,,599684.3999999762,599683.8000000715,,599682.6000000238,,599697.942,8,400,,,
break_continue,html.Screen,4_80_2,2023-09-16T04:27:48.773Z,,0,,,NaN,,,,,,false,,,,599685.2000000477,599684.8999999762,,599684.6000000238,,599697.942,8,400,,,
sequence,flow.Sequence,4_80,2023-09-16T04:27:48.774Z,,0,,,3801.5629999761004,completion,,,,,false,,,,599685.7000000477,599684.8999999762,595864.556,595867.3999999762,595883.337,599697.942,8,400,,,
trial,html.Screen,4_81_0,2023-09-16T04:27:52.426Z,,0,2,,3639.1580000238027,response,ISIC_4697037.JPG,5,ISIC_8799674.JPG,ISIC_4697037.JPG,false,1,keypress(m),500,603337.6000000238,603337.1000000238,599681.426,599686.1000000238,599697.942,603348.254,8,400,32,,ISIC_8799674.JPG
break,html.Screen,4_81_1,2023-09-16T04:27:52.428Z,,0,,,NaN,,,,,,false,,,,603339.8000000715,603339.3999999762,,603338.2000000477,,603348.254,8,400,,,
break_continue,html.Screen,4_81_2,2023-09-16T04:27:52.429Z,,0,,,NaN,,,,,,false,,,,603340.7000000477,603340.3999999762,,603340.1000000238,,603348.254,8,400,,,
sequence,flow.Sequence,4_81,2023-09-16T04:27:52.429Z,,0,,,3642.457999976119,completion,,,,,false,,,,603341.2000000477,603340.3999999762,599681.426,599685.8999999762,599697.942,603348.254,8,400,,,
trial,html.Screen,4_82_0,2023-09-16T04:27:56.040Z,,0,2,,3603.145999976201,response,ISIC_3026660.JPG,5,ISIC_2902328.JPG,ISIC_2902328.JPG,false,0,keypress(z),500,606951.8999999762,606951.3999999762,603331.656,603341.6000000238,603348.254,606967.255,8,400,33,,ISIC_3026660.JPG
break,html.Screen,4_82_1,2023-09-16T04:27:56.042Z,,0,,,NaN,,,,,,false,,,,606954,606953.5,,606952.3999999762,,606967.255,8,400,,,
break_continue,html.Screen,4_82_2,2023-09-16T04:27:56.043Z,,0,,,NaN,,,,,,false,,,,606954.8999999762,606954.5,,606954.3000000715,,606967.255,8,400,,,
sequence,flow.Sequence,4_82,2023-09-16T04:27:56.043Z,,0,,,3606.246000000043,completion,,,,,false,,,,606955.3999999762,606954.5,603331.656,603341.5,603348.254,606967.255,8,400,,,
trial,html.Screen,4_83_0,2023-09-16T04:28:02.818Z,,0,2,,6761.945000047679,response,ISIC_0030119.JPG,6,ISIC_0071951.JPG,ISIC_0071951.JPG,false,0,keypress(z),500,613729.8000000715,613729.2000000477,606949.002,606955.8000000715,606967.255,613732.62,8,400,34,,ISIC_0030119.JPG
break,html.Screen,4_83_1,2023-09-16T04:28:02.820Z,,0,,,NaN,,,,,,false,,,,613732,613731.6000000238,,613730.3000000715,,613732.62,8,400,,,
break_continue,html.Screen,4_83_2,2023-09-16T04:28:02.821Z,,0,,,NaN,,,,,,false,,,,613733.3999999762,613732.8999999762,,613732.3000000715,,613732.62,8,400,,,
sequence,flow.Sequence,4_83,2023-09-16T04:28:02.822Z,,0,,,6765.6449999761535,completion,,,,,false,,,,613733.8000000715,613732.8999999762,606949.002,606955.7000000477,606967.255,613732.62,8,400,,,
trial,html.Screen,4_84_0,2023-09-16T04:28:06.713Z,,0,2,,3892.1800000715302,response,ISIC_3303825.JPG,5,ISIC_7254359.JPG,ISIC_7254359.JPG,false,0,keypress(z),500,617625.3000000715,617624.8000000715,613715.969,613734.2000000477,613732.62,617633.022,8,400,35,,ISIC_3303825.JPG
break,html.Screen,4_84_1,2023-09-16T04:28:06.715Z,,0,,,NaN,,,,,,false,,,,617627.3999999762,617626.8999999762,,617625.7000000477,,617633.022,8,400,,,
break_continue,html.Screen,4_84_2,2023-09-16T04:28:06.716Z,,0,,,NaN,,,,,,false,,,,617628.3000000715,617627.8999999762,,617627.6000000238,,617633.022,8,400,,,
sequence,flow.Sequence,4_84,2023-09-16T04:28:06.717Z,,0,,,3895.279999976163,completion,,,,,false,,,,617628.7000000477,617627.8999999762,613715.969,613734.1000000238,613732.62,617633.022,8,400,,,
trial,html.Screen,4_85_0,2023-09-16T04:28:10.260Z,,0,2,,3538.1780000476865,response,ISIC_0981639.JPG,6,ISIC_7600621.JPG,ISIC_7600621.JPG,false,0,keypress(z),500,621171.7000000477,621171.2000000477,617616.682,617629.1000000238,617633.022,621183.367,8,400,36,,ISIC_0981639.JPG
break,html.Screen,4_85_1,2023-09-16T04:28:10.262Z,,0,,,NaN,,,,,,false,,,,621174,621173.5,,621172.2000000477,,621183.367,8,400,,,
break_continue,html.Screen,4_85_2,2023-09-16T04:28:10.263Z,,0,,,NaN,,,,,,false,,,,621174.8999999762,621174.6000000238,,621174.3000000715,,621183.367,8,400,,,
sequence,flow.Sequence,4_85,2023-09-16T04:28:10.264Z,,0,,,3541.5780000238447,completion,,,,,false,,,,621175.6000000238,621174.6000000238,617616.682,617629,617633.022,621183.367,8,400,,,
trial,html.Screen,4_86_0,2023-09-16T04:28:13.455Z,,0,2,,3182.6330000000307,response,ISIC_5910975.JPG,5,ISIC_6448312.JPG,ISIC_5910975.JPG,false,1,keypress(m),500,624366.5,624366,621166.967,621175.8999999762,621183.367,624383.882,8,400,37,,ISIC_6448312.JPG
break,html.Screen,4_86_1,2023-09-16T04:28:13.457Z,,0,,,NaN,,,,,,false,,,,624369.2000000477,624368.7000000477,,624367.2000000477,,624383.882,8,400,,,
break_continue,html.Screen,4_86_2,2023-09-16T04:28:13.458Z,,0,,,NaN,,,,,,false,,,,624370.2000000477,624369.8000000715,,624369.6000000238,,624383.882,8,400,,,
sequence,flow.Sequence,4_86,2023-09-16T04:28:13.459Z,,0,,,3186.4330000715563,completion,,,,,false,,,,624370.7000000477,624369.8000000715,621166.967,621175.8000000715,621183.367,624383.882,8,400,,,
trial,html.Screen,4_87_0,2023-09-16T04:28:16.967Z,,0,2,,3494.7180000238586,response,ISIC_8205879.JPG,5,ISIC_3021188.JPG,ISIC_8205879.JPG,false,1,keypress(m),500,627879.1000000238,627878.6000000238,624367.084,624371.1000000238,624383.882,627884.03,8,400,38,,ISIC_3021188.JPG
break,html.Screen,4_87_1,2023-09-16T04:28:16.969Z,,0,,,NaN,,,,,,false,,,,627881.2000000477,627880.6000000238,,627879.6000000238,,627884.03,8,400,,,
break_continue,html.Screen,4_87_2,2023-09-16T04:28:16.970Z,,0,,,NaN,,,,,,false,,,,627882.1000000238,627881.7000000477,,627881.3999999762,,627884.03,8,400,,,
sequence,flow.Sequence,4_87,2023-09-16T04:28:16.971Z,,0,,,3497.8180000477005,completion,,,,,false,,,,627882.5,627881.7000000477,624367.084,624371,624383.882,627884.03,8,400,,,
trial,html.Screen,4_88_0,2023-09-16T04:28:19.876Z,,0,2,,2903.670000047656,response,ISIC_0010591.JPG,6,ISIC_0010208.JPG,ISIC_0010208.JPG,false,0,keypress(z),500,630788.2000000477,630787.7000000477,627867.634,627882.8999999762,627884.03,630801.582,8,400,39,,ISIC_0010591.JPG
break,html.Screen,4_88_1,2023-09-16T04:28:19.878Z,,0,,,NaN,,,,,,false,,,,630790.2000000477,630789.8000000715,,630788.7000000477,,630801.582,8,400,,,
break_continue,html.Screen,4_88_2,2023-09-16T04:28:19.879Z,,0,,,NaN,,,,,,false,,,,630791,630790.7000000477,,630790.5,,630801.582,8,400,,,
sequence,flow.Sequence,4_88,2023-09-16T04:28:19.880Z,,0,,,2906.670000047656,completion,,,,,false,,,,630791.5,630790.7000000477,627867.634,627882.7000000477,627884.03,630801.582,8,400,,,
trial,html.Screen,4_89_0,2023-09-16T04:28:24.799Z,,0,2,,4908.317999976105,response,ISIC_5377977.JPG,5,ISIC_3565564.JPG,ISIC_3565564.JPG,false,0,keypress(z),500,635710.6000000238,635709.8999999762,630784.579,630792,630801.582,635718.165,8,400,40,,ISIC_5377977.JPG
break,html.Screen,4_89_1,2023-09-16T04:28:24.801Z,,0,,,NaN,,,,,,false,,,,635712.6000000238,635712.1000000238,,635711,,635718.165,8,400,,,
break_continue,html.Screen,4_89_2,2023-09-16T04:28:24.802Z,,0,,,NaN,,,,,,false,,,,635713.3999999762,635713.2000000477,,635712.8000000715,,635718.165,8,400,,,
sequence,flow.Sequence,4_89,2023-09-16T04:28:24.802Z,,0,,,4911.618000047631,completion,,,,,false,,,,635713.8999999762,635713.2000000477,630784.579,630791.7000000477,630801.582,635718.165,8,400,,,
trial,html.Screen,4_90_0,2023-09-16T04:28:30.438Z,,0,2,,5631.135000071488,response,ISIC_0013232.JPG,5,ISIC_4141315.JPG,ISIC_0013232.JPG,false,1,keypress(m),500,641349.8000000715,641349.3000000715,635701.521,635714.2000000477,635718.165,641352.033,8,400,41,,ISIC_4141315.JPG
break,html.Screen,4_90_1,2023-09-16T04:28:30.440Z,,0,,,NaN,,,,,,false,,,,641351.8000000715,641351.3000000715,,641350.2000000477,,641352.033,8,400,,,
break_continue,html.Screen,4_90_2,2023-09-16T04:28:30.441Z,,0,,,NaN,,,,,,false,,,,641352.8000000715,641352.5,,641352.1000000238,,641352.033,8,400,,,
sequence,flow.Sequence,4_90,2023-09-16T04:28:30.441Z,,0,,,5634.334999999963,completion,,,,,false,,,,641353.2000000477,641352.5,635701.521,635714.1000000238,635718.165,641352.033,8,400,,,
trial,html.Screen,4_91_0,2023-09-16T04:28:34.541Z,,0,2,,4100.567000023788,response,ISIC_0028325.JPG,5,ISIC_0011460.JPG,ISIC_0028325.JPG,false,1,keypress(m),500,645453.2000000477,645452.6000000238,641335.604,641353.6000000238,641352.033,645469.312,8,400,42,,ISIC_0011460.JPG
break,html.Screen,4_91_1,2023-09-16T04:28:34.543Z,,0,,,NaN,,,,,,false,,,,645455.3999999762,645454.8999999762,,645453.7000000477,,645469.312,8,400,,,
break_continue,html.Screen,4_91_2,2023-09-16T04:28:34.544Z,,0,,,NaN,,,,,,false,,,,645456.3000000715,645455.8999999762,,645455.7000000477,,645469.312,8,400,,,
sequence,flow.Sequence,4_91,2023-09-16T04:28:34.545Z,,0,,,4103.866999976104,completion,,,,,false,,,,645456.6000000238,645455.8999999762,641335.604,641353.3999999762,641352.033,645469.312,8,400,,,
trial,html.Screen,4_92_0,2023-09-16T04:28:40.085Z,,0,2,,5526.888000047649,response,ISIC_2772217.JPG,5,ISIC_9713706.JPG,ISIC_9713706.JPG,false,0,keypress(z),500,650996.8000000715,650996.2000000477,645452.774,645457,645469.312,651003.009,8,400,43,,ISIC_2772217.JPG
break,html.Screen,4_92_1,2023-09-16T04:28:40.087Z,,0,,,NaN,,,,,,false,,,,650998.8999999762,650998.3999999762,,650997.2000000477,,651003.009,8,400,,,
break_continue,html.Screen,4_92_2,2023-09-16T04:28:40.088Z,,0,,,NaN,,,,,,false,,,,650999.7000000477,650999.3999999762,,650999.2000000477,,651003.009,8,400,,,
sequence,flow.Sequence,4_92,2023-09-16T04:28:40.088Z,,0,,,5530.087999976124,completion,,,,,false,,,,651000.2000000477,650999.3999999762,645452.774,645456.8999999762,645469.312,651003.009,8,400,,,
trial,html.Screen,4_93_0,2023-09-16T04:28:43.646Z,,0,2,,3554.191000047722,response,ISIC_2123159.JPG,5,ISIC_6019374.JPG,ISIC_2123159.JPG,false,1,keypress(m),500,654557.8000000715,654557.2000000477,650986.478,651000.6000000238,651003.009,654570.528,8,400,44,,ISIC_6019374.JPG
break,html.Screen,4_93_1,2023-09-16T04:28:43.648Z,,0,,,NaN,,,,,,false,,,,654559.8000000715,654559.5,,654558.3000000715,,654570.528,8,400,,,
break_continue,html.Screen,4_93_2,2023-09-16T04:28:43.649Z,,0,,,NaN,,,,,,false,,,,654560.7000000477,654560.5,,654560.1000000238,,654570.528,8,400,,,
sequence,flow.Sequence,4_93,2023-09-16T04:28:43.649Z,,0,,,3557.491000000038,completion,,,,,false,,,,654561.2000000477,654560.5,650986.478,651000.5,651003.009,654570.528,8,400,,,
trial,html.Screen,4_94_0,2023-09-16T04:28:47.141Z,,0,2,,3481.9719999999506,response,ISIC_0072694.JPG,5,ISIC_0030829.JPG,ISIC_0030829.JPG,false,0,keypress(z),500,658053.2000000477,658052.5,654553.673,654561.6000000238,654570.528,658070.46,8,400,45,,ISIC_0072694.JPG
break,html.Screen,4_94_1,2023-09-16T04:28:47.143Z,,0,,,NaN,,,,,,false,,,,658055.2000000477,658054.7000000477,,658053.6000000238,,658070.46,8,400,,,
break_continue,html.Screen,4_94_2,2023-09-16T04:28:47.144Z,,0,,,NaN,,,,,,false,,,,658056,658055.7000000477,,658055.3999999762,,658070.46,8,400,,,
sequence,flow.Sequence,4_94,2023-09-16T04:28:47.145Z,,0,,,3485.1720000476344,completion,,,,,false,,,,658056.3999999762,658055.7000000477,654553.673,654561.5,654570.528,658070.46,8,400,,,
trial,html.Screen,4_95_0,2023-09-16T04:28:50.956Z,,0,2,,3797.4399999761954,response,ISIC_0025791.JPG,6,ISIC_3552318.JPG,ISIC_0025791.JPG,false,1,keypress(m),500,661868.3999999762,661867.8999999762,658053.762,658056.8000000715,658070.46,661870.744,8,400,46,,ISIC_3552318.JPG
break,html.Screen,4_95_1,2023-09-16T04:28:50.959Z,,0,,,NaN,,,,,,false,,,,661870.5,661870,,661868.8999999762,,661870.744,8,400,,,
break_continue,html.Screen,4_95_2,2023-09-16T04:28:50.960Z,,0,,,NaN,,,,,,false,,,,661871.6000000238,661871.3000000715,,661871.1000000238,,661870.744,8,400,,,
sequence,flow.Sequence,4_95,2023-09-16T04:28:50.960Z,,0,,,3800.840000071563,completion,,,,,false,,,,661872.1000000238,661871.3000000715,658053.762,658056.7000000477,658070.46,661870.744,8,400,,,
trial,html.Screen,4_96_0,2023-09-16T04:28:53.950Z,,0,2,,2991.1559999762103,response,ISIC_0055859.JPG,5,ISIC_0027110.JPG,ISIC_0027110.JPG,false,0,keypress(z),500,664862.1000000238,664861.8999999762,661854.442,661872.6000000238,661870.744,664871.083,8,400,47,,ISIC_0055859.JPG
break,html.Screen,4_96_1,2023-09-16T04:28:53.955Z,,0,,,NaN,,,,,,false,,,,664866.6000000238,664865.6000000238,,664863.5,,664871.083,8,400,,,
break_continue,html.Screen,4_96_2,2023-09-16T04:28:53.963Z,,0,,,NaN,,,,,,false,,,,664875.1000000238,664868.5,,664867.6000000238,,664871.083,8,400,,,
sequence,flow.Sequence,4_96,2023-09-16T04:28:53.963Z,,0,,,2997.756000000052,completion,,,,,false,,,,664875.3999999762,664868.5,661854.442,661872.3999999762,661870.744,664871.083,8,400,,,
trial,html.Screen,4_97_0,2023-09-16T04:28:59.502Z,,0,2,,5542.6170000477,response,ISIC_9685931.JPG,4,ISIC_0032559.JPG,ISIC_9685931.JPG,false,1,keypress(m),500,670414,670413.7000000477,664854.775,664875.5,664871.083,670421.732,8,400,48,,ISIC_0032559.JPG
break,html.Screen,4_97_1,2023-09-16T04:28:59.503Z,,0,,,NaN,,,,,,false,,,,670414.7000000477,670414.5,,670414,,670421.732,8,400,,,
break_continue,html.Screen,4_97_2,2023-09-16T04:28:59.503Z,,0,,,NaN,,,,,,false,,,,670415,670414.8999999762,,670414.8000000715,,670421.732,8,400,,,
sequence,flow.Sequence,4_97,2023-09-16T04:28:59.503Z,,0,,,5543.816999976174,completion,,,,,false,,,,670415.1000000238,670414.8999999762,664854.775,664875.3999999762,664871.083,670421.732,8,400,,,
trial,html.Screen,4_98_0,2023-09-16T04:29:03.649Z,,0,2,,4139.068000071566,response,ISIC_6609379.JPG,5,ISIC_6228963.JPG,ISIC_6228963.JPG,false,0,keypress(z),500,674561.3000000715,674560.8000000715,670404.888,670415.2000000477,670421.732,674572.01,8,400,49,,ISIC_6609379.JPG
break,html.Screen,4_98_1,2023-09-16T04:29:03.652Z,,0,,,NaN,,,,,,false,,,,674563.3999999762,674562.8999999762,,674561.8000000715,,674572.01,8,400,,,
break_continue,html.Screen,4_98_2,2023-09-16T04:29:03.652Z,,0,,,NaN,,,,,,false,,,,674564.3999999762,674563.8999999762,,674563.7000000477,,674572.01,8,400,,,
sequence,flow.Sequence,4_98,2023-09-16T04:29:03.653Z,,0,,,4142.167999976198,completion,,,,,false,,,,674564.8999999762,674563.8999999762,670404.888,670415.2000000477,670421.732,674572.01,8,400,,,
trial,html.Screen,4_99_0,2023-09-16T04:29:06.761Z,,0,2,,3100.6900000476744,response,ISIC_7877488.JPG,5,ISIC_0013341.JPG,ISIC_0013341.JPG,false,0,keypress(z),500,677673.3000000715,677672.7000000477,674555.499,674565.3000000715,674572.01,677689.028,8,400,50,,ISIC_7877488.JPG
break,html.Screen,4_99_1,2023-09-16T04:29:16.763Z,,0,,,10000.909999999916,timeout,,,,,false,,,,687674.7000000477,687673.619,677672.554,677673.7000000477,677689.028,687689.938,8,400,,,
break_continue,html.Screen,4_99_2,2023-09-16T04:29:24.239Z,,0,,,7421.5620000000345,response,,,,,false,continue,keypress(Space),,695150.8999999762,695111.5,687673.619,687674.8999999762,687689.938,695157.342,8,400,,,
sequence,flow.Sequence,4_99,2023-09-16T04:29:24.239Z,,0,,,20539.48999999999,completion,,,,,false,,,,695151.1000000238,695111.5,674555.499,674565.2000000477,674572.01,695157.342,8,400,,,
trial,html.Screen,4_100_0,2023-09-16T04:29:29.254Z,,0,3,,5007.557999976212,response,ISIC_0033687.JPG,7,ISIC_0032925.JPG,ISIC_0033687.JPG,false,1,keypress(m),500,700165.3999999762,700164.8999999762,695140.854,695151.3000000715,695157.342,700174.589,8,400,1,,ISIC_0032925.JPG
break,html.Screen,4_100_1,2023-09-16T04:29:29.255Z,,0,,,NaN,,,,,,false,,,,700167.3999999762,700166.8999999762,,700165.8000000715,,700174.589,8,400,,,
break_continue,html.Screen,4_100_2,2023-09-16T04:29:29.256Z,,0,,,NaN,,,,,,false,,,,700168.3000000715,700167.8999999762,,700167.7000000477,,700174.589,8,400,,,
sequence,flow.Sequence,4_100,2023-09-16T04:29:29.257Z,,0,,,5010.557999976212,completion,,,,,false,,,,700168.8000000715,700167.8999999762,695140.854,695151.2000000477,695157.342,700174.589,8,400,,,
trial,html.Screen,4_101_0,2023-09-16T04:29:32.496Z,,0,3,,3232.5110000238055,response,ISIC_6613079.JPG,5,ISIC_0057484.JPG,ISIC_6613079.JPG,false,1,keypress(m),500,703407.7000000477,703407.1000000238,700157.964,700169.2000000477,700174.589,703426.582,8,400,2,,ISIC_0057484.JPG
break,html.Screen,4_101_1,2023-09-16T04:29:32.498Z,,0,,,NaN,,,,,,false,,,,703409.7000000477,703409.3999999762,,703408.1000000238,,703426.582,8,400,,,
break_continue,html.Screen,4_101_2,2023-09-16T04:29:32.499Z,,0,,,NaN,,,,,,false,,,,703410.7000000477,703410.3999999762,,703410.2000000477,,703426.582,8,400,,,
sequence,flow.Sequence,4_101,2023-09-16T04:29:32.499Z,,0,,,3235.810999976122,completion,,,,,false,,,,703411.3000000715,703410.3999999762,700157.964,700169,700174.589,703426.582,8,400,,,
trial,html.Screen,4_102_0,2023-09-16T04:29:36.247Z,,0,3,,3732.0180000237888,response,ISIC_0065013.JPG,5,ISIC_0647224.JPG,ISIC_0065013.JPG,false,1,keypress(m),500,707159,707158.6000000238,703408.294,703411.5,703426.582,707175.333,8,400,3,,ISIC_0647224.JPG
break,html.Screen,4_102_1,2023-09-16T04:29:36.249Z,,0,,,NaN,,,,,,false,,,,707161.1000000238,707160.6000000238,,707159.5,,707175.333,8,400,,,
break_continue,html.Screen,4_102_2,2023-09-16T04:29:36.250Z,,0,,,NaN,,,,,,false,,,,707162,707161.6000000238,,707161.3999999762,,707175.333,8,400,,,
sequence,flow.Sequence,4_102,2023-09-16T04:29:36.251Z,,0,,,3735.0180000237888,completion,,,,,false,,,,707162.6000000238,707161.6000000238,703408.294,703411.5,703426.582,707175.333,8,400,,,
trial,html.Screen,4_103_0,2023-09-16T04:29:39.343Z,,0,3,,3078.7670000238577,response,ISIC_6382207.JPG,5,ISIC_5284935.JPG,ISIC_5284935.JPG,false,0,keypress(z),500,710254.6000000238,710254.1000000238,707158.969,707162.8999999762,707175.333,710258.901,8,400,4,,ISIC_6382207.JPG
break,html.Screen,4_103_1,2023-09-16T04:29:39.345Z,,0,,,NaN,,,,,,false,,,,710256.8000000715,710256.3000000715,,710255,,710258.901,8,400,,,
break_continue,html.Screen,4_103_2,2023-09-16T04:29:39.346Z,,0,,,NaN,,,,,,false,,,,710258.2000000477,710257.8999999762,,710257.1000000238,,710258.901,8,400,,,
sequence,flow.Sequence,4_103,2023-09-16T04:29:39.347Z,,0,,,3082.566999976174,completion,,,,,false,,,,710258.7000000477,710257.8999999762,707158.969,707162.8000000715,707175.333,710258.901,8,400,,,
trial,html.Screen,4_104_0,2023-09-16T04:29:43.836Z,,0,3,,4488.1990000238875,response,ISIC_0002566.JPG,5,ISIC_9667908.JPG,ISIC_9667908.JPG,false,0,keypress(z),500,714747.6000000238,714747.1000000238,710242.55,710259.5,710258.901,714759.397,8,400,5,,ISIC_0002566.JPG
break,html.Screen,4_104_1,2023-09-16T04:29:43.838Z,,0,,,NaN,,,,,,false,,,,714749.7000000477,714748.8000000715,,714748.1000000238,,714759.397,8,400,,,
break_continue,html.Screen,4_104_2,2023-09-16T04:29:43.839Z,,0,,,NaN,,,,,,false,,,,714750.7000000477,714750.3000000715,,714750.1000000238,,714759.397,8,400,,,
sequence,flow.Sequence,4_104,2023-09-16T04:29:43.839Z,,0,,,4491.399000071571,completion,,,,,false,,,,714751.2000000477,714750.3000000715,710242.55,710259.3999999762,710258.901,714759.397,8,400,,,
trial,html.Screen,4_105_0,2023-09-16T04:29:47.779Z,,0,3,,3931.2030000238447,response,ISIC_2031626.JPG,5,ISIC_0010723.JPG,ISIC_2031626.JPG,false,1,keypress(m),500,718691.1000000238,718690.6000000238,714742.772,714751.3999999762,714759.397,718710.232,8,400,6,,ISIC_0010723.JPG
break,html.Screen,4_105_1,2023-09-16T04:29:47.782Z,,0,,,NaN,,,,,,false,,,,718693.3999999762,718692.7000000477,,718691.5,,718710.232,8,400,,,
break_continue,html.Screen,4_105_2,2023-09-16T04:29:47.783Z,,0,,,NaN,,,,,,false,,,,718694.3000000715,718694,,718693.8000000715,,718710.232,8,400,,,
sequence,flow.Sequence,4_105,2023-09-16T04:29:47.783Z,,0,,,3934.603000000003,completion,,,,,false,,,,718694.8000000715,718694,714742.772,714751.3000000715,714759.397,718710.232,8,400,,,
trial,html.Screen,4_106_0,2023-09-16T04:29:51.197Z,,0,3,,3397.868000023882,response,ISIC_9244047.JPG,6,ISIC_7539727.JPG,ISIC_9244047.JPG,false,1,keypress(m),500,722108.7000000477,722108.1000000238,718676.681,718695.5,718710.232,722143.812,8,400,7,,ISIC_7539727.JPG
break,html.Screen,4_106_1,2023-09-16T04:29:51.199Z,,0,,,NaN,,,,,,false,,,,722111,722110.6000000238,,722109.1000000238,,722143.812,8,400,,,
break_continue,html.Screen,4_106_2,2023-09-16T04:29:51.200Z,,0,,,NaN,,,,,,false,,,,722111.8999999762,722111.6000000238,,722111.3999999762,,722143.812,8,400,,,
sequence,flow.Sequence,4_106,2023-09-16T04:29:51.201Z,,0,,,3401.368000023882,completion,,,,,false,,,,722112.3999999762,722111.6000000238,718676.681,718695.3999999762,718710.232,722143.812,8,400,,,
trial,html.Screen,4_107_0,2023-09-16T04:29:54.600Z,,0,3,,3367.0879999761237,response,ISIC_0033287.JPG,5,ISIC_0911264.JPG,ISIC_0033287.JPG,false,1,keypress(m),500,725511.5,725510.8999999762,722127.008,722112.8000000715,722143.812,725527.106,8,400,8,,ISIC_0911264.JPG
break,html.Screen,4_107_1,2023-09-16T04:29:54.602Z,,0,,,NaN,,,,,,false,,,,725513.8000000715,725513.2000000477,,725512,,725527.106,8,400,,,
break_continue,html.Screen,4_107_2,2023-09-16T04:29:54.603Z,,0,,,NaN,,,,,,false,,,,725515.3999999762,725514.6000000238,,725514.2000000477,,725527.106,8,400,,,
sequence,flow.Sequence,4_107,2023-09-16T04:29:54.604Z,,0,,,3370.7880000238074,completion,,,,,false,,,,725515.8999999762,725514.6000000238,722127.008,722112.6000000238,722143.812,725527.106,8,400,,,
trial,html.Screen,4_108_0,2023-09-16T04:29:58.689Z,,0,3,,4073.2939999761293,response,ISIC_8627293.JPG,5,ISIC_6566042.JPG,ISIC_6566042.JPG,false,0,keypress(z),500,729600.8999999762,729600.3999999762,725510.45,725516.2000000477,725527.106,729610.848,8,400,9,,ISIC_8627293.JPG
break,html.Screen,4_108_1,2023-09-16T04:29:58.691Z,,0,,,NaN,,,,,,false,,,,729603,729602.5,,729601.3999999762,,729610.848,8,400,,,
break_continue,html.Screen,4_108_2,2023-09-16T04:29:58.692Z,,0,,,NaN,,,,,,false,,,,729604.2000000477,729603.6000000238,,729603.3000000715,,729610.848,8,400,,,
sequence,flow.Sequence,4_108,2023-09-16T04:29:58.693Z,,0,,,4076.494000023813,completion,,,,,false,,,,729604.6000000238,729603.6000000238,725510.45,725516.1000000238,725527.106,729610.848,8,400,,,
trial,html.Screen,4_109_0,2023-09-16T04:30:02.361Z,,0,3,,3661.3520000476856,response,ISIC_0064023.JPG,5,ISIC_5776158.JPG,ISIC_0064023.JPG,false,1,keypress(m),500,733272.6000000238,733272.2000000477,729594.307,729605.1000000238,729610.848,733277.874,8,400,10,,ISIC_5776158.JPG
break,html.Screen,4_109_1,2023-09-16T04:30:02.363Z,,0,,,NaN,,,,,,false,,,,733275,733274.3999999762,,733273,,733277.874,8,400,,,
break_continue,html.Screen,4_109_2,2023-09-16T04:30:02.364Z,,0,,,NaN,,,,,,false,,,,733275.8999999762,733275.5,,733275.2000000477,,733277.874,8,400,,,
sequence,flow.Sequence,4_109,2023-09-16T04:30:02.364Z,,0,,,3664.652000000002,completion,,,,,false,,,,733276.3000000715,733275.5,729594.307,729604.8999999762,729610.848,733277.874,8,400,,,
trial,html.Screen,4_110_0,2023-09-16T04:30:06.208Z,,0,3,,3841.7260000238894,response,ISIC_0000466.JPG,5,ISIC_7104307.JPG,ISIC_7104307.JPG,false,0,keypress(z),500,737120.1000000238,737119.6000000238,733261.493,733276.7000000477,733277.874,737128.265,8,400,11,,ISIC_0000466.JPG
break,html.Screen,4_110_1,2023-09-16T04:30:06.210Z,,0,,,NaN,,,,,,false,,,,737122.1000000238,737121.6000000238,,737120.5,,737128.265,8,400,,,
break_continue,html.Screen,4_110_2,2023-09-16T04:30:06.211Z,,0,,,NaN,,,,,,false,,,,737123,737122.7000000477,,737122.3999999762,,737128.265,8,400,,,
sequence,flow.Sequence,4_110,2023-09-16T04:30:06.212Z,,0,,,3844.826000047731,completion,,,,,false,,,,737123.5,737122.7000000477,733261.493,733276.6000000238,733277.874,737128.265,8,400,,,
trial,html.Screen,4_111_0,2023-09-16T04:30:09.607Z,,0,3,,3390.234999999986,response,ISIC_1499915.JPG,4,ISIC_0033725.JPG,ISIC_1499915.JPG,false,1,keypress(m),500,740519.3000000715,740518.5,737111.781,737123.8000000715,737128.265,740528.612,8,400,12,,ISIC_0033725.JPG
break,html.Screen,4_111_1,2023-09-16T04:30:09.610Z,,0,,,NaN,,,,,,false,,,,740521.5,740521,,740519.8999999762,,740528.612,8,400,,,
break_continue,html.Screen,4_111_2,2023-09-16T04:30:09.611Z,,0,,,NaN,,,,,,false,,,,740522.3999999762,740522.1000000238,,740521.8999999762,,740528.612,8,400,,,
sequence,flow.Sequence,4_111,2023-09-16T04:30:09.611Z,,0,,,3393.835000023828,completion,,,,,false,,,,740523,740522.1000000238,737111.781,737123.7000000477,737128.265,740528.612,8,400,,,
trial,html.Screen,4_112_0,2023-09-16T04:30:13.280Z,,0,3,,3662.4880000238772,response,ISIC_4375524.JPG,5,ISIC_0172020.JPG,ISIC_0172020.JPG,false,0,keypress(z),500,744191.7000000477,744191.1000000238,740512.202,740523.3999999762,740528.612,744195.613,8,400,13,,ISIC_4375524.JPG
break,html.Screen,4_112_1,2023-09-16T04:30:13.282Z,,0,,,NaN,,,,,,false,,,,744193.7000000477,744193.3000000715,,744192.1000000238,,744195.613,8,400,,,
break_continue,html.Screen,4_112_2,2023-09-16T04:30:13.283Z,,0,,,NaN,,,,,,false,,,,744194.6000000238,744194.2000000477,,744194,,744195.613,8,400,,,
sequence,flow.Sequence,4_112,2023-09-16T04:30:13.283Z,,0,,,3665.588000047719,completion,,,,,false,,,,744195.1000000238,744194.2000000477,740512.202,740523.3000000715,740528.612,744195.613,8,400,,,
trial,html.Screen,4_113_0,2023-09-16T04:30:16.839Z,,0,3,,3554.6870000715135,response,ISIC_8591425.JPG,6,ISIC_0070137.JPG,ISIC_0070137.JPG,false,0,keypress(z),500,747750.8999999762,747750.3000000715,744179.182,744195.5,744195.613,747762.672,8,400,14,,ISIC_8591425.JPG
break,html.Screen,4_113_1,2023-09-16T04:30:16.841Z,,0,,,NaN,,,,,,false,,,,747752.8000000715,747752.3999999762,,747751.2000000477,,747762.672,8,400,,,
break_continue,html.Screen,4_113_2,2023-09-16T04:30:16.842Z,,0,,,NaN,,,,,,false,,,,747753.7000000477,747753.3999999762,,747753.1000000238,,747762.672,8,400,,,
sequence,flow.Sequence,4_113,2023-09-16T04:30:16.842Z,,0,,,3557.786999976146,completion,,,,,false,,,,747754.3000000715,747753.3999999762,744179.182,744195.3999999762,744195.613,747762.672,8,400,,,
trial,html.Screen,4_114_0,2023-09-16T04:30:20.302Z,,0,3,,3451.128000071505,response,ISIC_0032162.JPG,5,ISIC_0027879.JPG,ISIC_0027879.JPG,false,0,keypress(z),500,751214.3999999762,751213.8000000715,747746.122,747754.6000000238,747762.672,751231.269,8,400,15,,ISIC_0032162.JPG
break,html.Screen,4_114_1,2023-09-16T04:30:20.305Z,,0,,,NaN,,,,,,false,,,,751216.6000000238,751216.1000000238,,751214.8999999762,,751231.269,8,400,,,
break_continue,html.Screen,4_114_2,2023-09-16T04:30:20.306Z,,0,,,NaN,,,,,,false,,,,751218,751217.1000000238,,751216.8999999762,,751231.269,8,400,,,
sequence,flow.Sequence,4_114,2023-09-16T04:30:20.307Z,,0,,,3454.4280000238214,completion,,,,,false,,,,751218.5,751217.1000000238,747746.122,747754.5,747762.672,751231.269,8,400,,,
trial,html.Screen,4_115_0,2023-09-16T04:30:25.933Z,,0,3,,5613.331000023871,response,ISIC_4699066.JPG,6,ISIC_6988514.JPG,ISIC_6988514.JPG,false,0,keypress(z),500,756845.1000000238,756844.6000000238,751212.973,751218.8000000715,751231.269,756863.927,8,400,16,,ISIC_4699066.JPG
break,html.Screen,4_115_1,2023-09-16T04:30:25.936Z,,0,,,NaN,,,,,,false,,,,756847.5,756846.8999999762,,756845.6000000238,,756863.927,8,400,,,
break_continue,html.Screen,4_115_2,2023-09-16T04:30:25.936Z,,0,,,NaN,,,,,,false,,,,756848.3999999762,756848,,756847.7000000477,,756863.927,8,400,,,
sequence,flow.Sequence,4_115,2023-09-16T04:30:25.937Z,,0,,,5616.731000000029,completion,,,,,false,,,,756849,756848,751212.973,751218.8000000715,751231.269,756863.927,8,400,,,
trial,html.Screen,4_116_0,2023-09-16T04:30:29.467Z,,0,3,,3514.2730000476586,response,ISIC_0029675.JPG,5,ISIC_0025592.JPG,ISIC_0029675.JPG,false,1,keypress(m),500,760378.8000000715,760378.2000000477,756830.511,756849.3999999762,756863.927,760398.414,8,400,17,,ISIC_0025592.JPG
break,html.Screen,4_116_1,2023-09-16T04:30:29.469Z,,0,,,NaN,,,,,,false,,,,760381,760380.3000000715,,760379.2000000477,,760398.414,8,400,,,
break_continue,html.Screen,4_116_2,2023-09-16T04:30:29.470Z,,0,,,NaN,,,,,,false,,,,760381.8999999762,760381.6000000238,,760381.3000000715,,760398.414,8,400,,,
sequence,flow.Sequence,4_116,2023-09-16T04:30:29.470Z,,0,,,3517.6730000238167,completion,,,,,false,,,,760382.3999999762,760381.6000000238,756830.511,756849.3000000715,756863.927,760398.414,8,400,,,
trial,html.Screen,4_117_0,2023-09-16T04:30:33.731Z,,0,3,,4243.686000023852,response,ISIC_4007322.JPG,4,ISIC_1737600.JPG,ISIC_4007322.JPG,false,1,keypress(m),500,764642.6000000238,764642.1000000238,760364.278,760382.8000000715,760398.414,764647.656,8,400,18,,ISIC_1737600.JPG
break,html.Screen,4_117_1,2023-09-16T04:30:33.733Z,,0,,,NaN,,,,,,false,,,,764644.6000000238,764644.2000000477,,764643.1000000238,,764647.656,8,400,,,
break_continue,html.Screen,4_117_2,2023-09-16T04:30:33.734Z,,0,,,NaN,,,,,,false,,,,764645.6000000238,764645.2000000477,,764645,,764647.656,8,400,,,
sequence,flow.Sequence,4_117,2023-09-16T04:30:33.734Z,,0,,,4246.786000047694,completion,,,,,false,,,,764646,764645.2000000477,760364.278,760382.6000000238,760398.414,764647.656,8,400,,,
trial,html.Screen,4_118_0,2023-09-16T04:30:37.610Z,,0,3,,3873.6440000715666,response,ISIC_8664718.JPG,6,ISIC_0054229.JPG,ISIC_8664718.JPG,false,1,keypress(m),500,768521.8000000715,768521.3000000715,764631.154,764646.3000000715,764647.656,768531.408,8,400,19,,ISIC_0054229.JPG
break,html.Screen,4_118_1,2023-09-16T04:30:37.612Z,,0,,,NaN,,,,,,false,,,,768524.1000000238,768523.7000000477,,768522.3000000715,,768531.408,8,400,,,
break_continue,html.Screen,4_118_2,2023-09-16T04:30:37.613Z,,0,,,NaN,,,,,,false,,,,768525,768524.6000000238,,768524.3999999762,,768531.408,8,400,,,
sequence,flow.Sequence,4_118,2023-09-16T04:30:37.613Z,,0,,,3876.944000023883,completion,,,,,false,,,,768525.3999999762,768524.6000000238,764631.154,764646.2000000477,764647.656,768531.408,8,400,,,
trial,html.Screen,4_119_0,2023-09-16T04:30:41.569Z,,0,3,,3949.2920000476297,response,ISIC_0069705.JPG,6,ISIC_1566215.JPG,ISIC_0069705.JPG,false,1,keypress(m),500,772481.2000000477,772480.7000000477,768514.737,768525.8000000715,768531.408,772499.026,8,400,20,,ISIC_1566215.JPG
break,html.Screen,4_119_1,2023-09-16T04:30:41.571Z,,0,,,NaN,,,,,,false,,,,772483.3999999762,772482.8999999762,,772481.6000000238,,772499.026,8,400,,,
break_continue,html.Screen,4_119_2,2023-09-16T04:30:41.572Z,,0,,,NaN,,,,,,false,,,,772484.2000000477,772484,,772483.7000000477,,772499.026,8,400,,,
sequence,flow.Sequence,4_119,2023-09-16T04:30:41.573Z,,0,,,3952.591999999946,completion,,,,,false,,,,772484.6000000238,772484,768514.737,768525.7000000477,768531.408,772499.026,8,400,,,
trial,html.Screen,4_120_0,2023-09-16T04:30:47.129Z,,0,3,,5540.974000000046,response,ISIC_0032759.JPG,5,ISIC_0069952.JPG,ISIC_0032759.JPG,false,1,keypress(m),500,778040.6000000238,778040,772482.102,772485,772499.026,778048.98,8,400,21,,ISIC_0069952.JPG
break,html.Screen,4_120_1,2023-09-16T04:30:47.131Z,,0,,,NaN,,,,,,false,,,,778042.5,778042.1000000238,,778041,,778048.98,8,400,,,
break_continue,html.Screen,4_120_2,2023-09-16T04:30:47.131Z,,0,,,NaN,,,,,,false,,,,778043.3999999762,778043.1000000238,,778042.8000000715,,778048.98,8,400,,,
sequence,flow.Sequence,4_120,2023-09-16T04:30:47.132Z,,0,,,5544.0740000238875,completion,,,,,false,,,,778043.8999999762,778043.1000000238,772482.102,772484.8999999762,772499.026,778048.98,8,400,,,
trial,html.Screen,4_121_0,2023-09-16T04:30:51.472Z,,0,3,,4334.6200000238605,response,ISIC_7980387.JPG,6,ISIC_6072777.JPG,ISIC_7980387.JPG,false,1,keypress(m),500,782384.1000000238,782383.6000000238,778032.404,778044.3999999762,778048.98,782399.629,8,400,22,,ISIC_6072777.JPG
break,html.Screen,4_121_1,2023-09-16T04:30:51.474Z,,0,,,NaN,,,,,,false,,,,782385.7000000477,782385.2000000477,,782384.5,,782399.629,8,400,,,
break_continue,html.Screen,4_121_2,2023-09-16T04:30:51.475Z,,0,,,NaN,,,,,,false,,,,782386.5,782386.1000000238,,782385.8999999762,,782399.629,8,400,,,
sequence,flow.Sequence,4_121,2023-09-16T04:30:51.475Z,,0,,,4337.1200000238605,completion,,,,,false,,,,782386.8999999762,782386.1000000238,778032.404,778044.3000000715,778048.98,782399.629,8,400,,,
trial,html.Screen,4_122_0,2023-09-16T04:30:55.678Z,,0,3,,4190.171000071568,response,ISIC_0031507.JPG,5,ISIC_6710411.JPG,ISIC_6710411.JPG,false,0,keypress(z),500,786590.3000000715,786589.8000000715,782382.991,782387.3000000715,782399.629,786599.869,8,400,23,,ISIC_0031507.JPG
break,html.Screen,4_122_1,2023-09-16T04:30:55.680Z,,0,,,NaN,,,,,,false,,,,786592.3000000715,786591.8999999762,,786590.7000000477,,786599.869,8,400,,,
break_continue,html.Screen,4_122_2,2023-09-16T04:30:55.681Z,,0,,,NaN,,,,,,false,,,,786593.1000000238,786592.8999999762,,786592.6000000238,,786599.869,8,400,,,
sequence,flow.Sequence,4_122,2023-09-16T04:30:55.682Z,,0,,,4193.270999976201,completion,,,,,false,,,,786593.6000000238,786592.8999999762,782382.991,782387.2000000477,782399.629,786599.869,8,400,,,
trial,html.Screen,4_123_0,2023-09-16T04:30:59.534Z,,0,3,,3845.631000000052,response,ISIC_9301346.JPG,4,ISIC_0028326.JPG,ISIC_0028326.JPG,false,0,keypress(z),500,790446.1000000238,790445.5,786583.471,786594,786599.869,790450.213,8,400,24,,ISIC_9301346.JPG
break,html.Screen,4_123_1,2023-09-16T04:30:59.536Z,,0,,,NaN,,,,,,false,,,,790448.1000000238,790447.7000000477,,790446.5,,790450.213,8,400,,,
break_continue,html.Screen,4_123_2,2023-09-16T04:30:59.537Z,,0,,,NaN,,,,,,false,,,,790448.8999999762,790448.7000000477,,790448.3999999762,,790450.213,8,400,,,
sequence,flow.Sequence,4_123,2023-09-16T04:30:59.537Z,,0,,,3848.831000047736,completion,,,,,false,,,,790449.3999999762,790448.7000000477,786583.471,786593.8000000715,786599.869,790450.213,8,400,,,
trial,html.Screen,4_124_0,2023-09-16T04:31:02.949Z,,0,3,,3410.6869999761693,response,ISIC_0024585.JPG,5,ISIC_9482251.JPG,ISIC_9482251.JPG,false,0,keypress(z),500,793861.5,793860.8999999762,790433.803,790449.7000000477,790450.213,793867.266,8,400,25,,ISIC_0024585.JPG
break,html.Screen,4_124_1,2023-09-16T04:31:02.952Z,,0,,,NaN,,,,,,false,,,,793863.3999999762,793863,,793861.8999999762,,793867.266,8,400,,,
break_continue,html.Screen,4_124_2,2023-09-16T04:31:02.952Z,,0,,,NaN,,,,,,false,,,,793864.3999999762,793864,,793863.8000000715,,793867.266,8,400,,,
sequence,flow.Sequence,4_124,2023-09-16T04:31:02.953Z,,0,,,3413.787000000011,completion,,,,,false,,,,793865,793864,790433.803,790449.6000000238,790450.213,793867.266,8,400,,,
trial,html.Screen,4_125_0,2023-09-16T04:31:06.561Z,,0,3,,3605.133999976213,response,ISIC_0053846.JPG,5,ISIC_6811363.JPG,ISIC_6811363.JPG,false,0,keypress(z),500,797473,797472.3999999762,793850.842,793865.3000000715,793867.266,797484.282,8,400,26,,ISIC_0053846.JPG
break,html.Screen,4_125_1,2023-09-16T04:31:06.563Z,,0,,,NaN,,,,,,false,,,,797475.2000000477,797474.7000000477,,797473.3999999762,,797484.282,8,400,,,
