sender,sender_type,sender_id,timestamp,meta,,blockNo,condition,duration,ended_on,img_left,img_reveal,img_right,loser,practice,response,response_action,selection_duration,time_commit,time_end,time_render,time_run,time_show,time_switch,total_blocks,total_trials,trialNo,url,winner
informed_consent,html.Screen,0,2023-05-01T21:59:51.929Z,"{""labjs_version"":""20.2.4"",""labjs_build"":{""flavor"":""production"",""commit"":""f5b4a49f956347addd546a832a3327688c2c0fef""},""location"":""https://run.pavlovia.org/MurrayBennett/melanoma-2afc/?participant=64627"",""userAgent"":""Mozilla/5.0 (Macintosh; Intel Mac OS X 10_15_7) AppleWebKit/537.36 (KHTML, like Gecko) Chrome/109.0.0.0 Safari/537.36"",""platform"":""MacIntel"",""language"":""en-US"",""locale"":""en-US"",""timeZone"":""America/Chicago"",""timezoneOffset"":300,""screen_width"":1440,""screen_height"":900,""scroll_width"":1440,""scroll_height"":655,""window_innerWidth"":1440,""window_innerHeight"":703,""devicePixelRatio"":2}",,,,2854.5190000953676,response,,,,,,consent,click button,,3692.800000190735,3689.9000000953674,818.715,821.2000000476837,835.381,3701.933,,,,"{""participant"":""64627""}",
Welcome,html.Screen,1,2023-05-01T21:59:52.462Z,,,,irregular,521.1670001430512,response,,,,,,continue,click button,,4225.900000095367,4223.100000143051,3685.267,3693.100000143051,3701.933,4235.245,,,,,
trial,html.Screen,2_0_0,2023-05-01T22:00:04.322Z,,0,0,,28684.438,timeout,ISIC_0061792.JPG,,ISIC_4679428.JPG,,true,,,500,16086.5,16086.200000047684,4218.579,4226.100000143051,4235.245,32919.683,1,6,1,,
sequence,flow.Sequence,2_0,2023-05-01T22:00:04.323Z,,0,,,11850.955000047685,completion,,,,,true,,,,16086.600000143051,16086.200000047684,4218.579,4226.100000143051,4235.245,32919.683,1,6,,,
trial,html.Screen,2_1_0,2023-05-01T22:00:32.640Z,,0,0,,11517.111000000004,timeout,ISIC_0776486.JPG,,ISIC_5199497.JPG,,true,,,500,44404.700000047684,44404,32903.017,16086.600000143051,32919.683,44436.794,1,6,2,,
sequence,flow.Sequence,2_1,2023-05-01T22:00:32.641Z,,0,,,11484.317000000003,completion,,,,,true,,,,44405.200000047684,44404,32903.017,16086.600000143051,32919.683,44436.794,1,6,,,
trial,html.Screen,2_2_0,2023-05-01T22:00:44.157Z,,0,0,,11516.992999999995,timeout,ISIC_2556187.JPG,,ISIC_8575776.JPG,,true,,,500,55921.60000014305,55921.10000014305,44419.223,44405.40000009537,44436.794,55953.787,1,6,3,,
sequence,flow.Sequence,2_2,2023-05-01T22:00:44.157Z,,0,,,11484.30600014305,completion,,,,,true,,,,55922.10000014305,55921.10000014305,44419.223,44405.300000190735,44436.794,55953.787,1,6,,,
trial,html.Screen,2_3_0,2023-05-01T22:00:53.830Z,,0,0,,9640.11300009537,response,ISIC_8141769.JPG,,ISIC_9238366.JPG,ISIC_8141769.JPG,true,1,keypress(m),500,65594.70000004768,65593.90000009537,55936.334,55922.300000190735,55953.787,65620.067,1,6,4,,ISIC_9238366.JPG
sequence,flow.Sequence,2_3,2023-05-01T22:00:53.830Z,,0,,,9640.11300009537,completion,,,,,true,,,,65595.30000019073,65593.90000009537,55936.334,55922.200000047684,55953.787,65620.067,1,6,,,
trial,html.Screen,2_4_0,2023-05-01T22:00:55.807Z,,0,0,,1951.4330000000045,response,ISIC_8949026.JPG,,ISIC_9959593.JPG,ISIC_8949026.JPG,true,1,keypress(m),500,67572.10000014305,67571.5,65603.401,65595.60000014305,65620.067,67587.46,1,6,5,,ISIC_9959593.JPG
sequence,flow.Sequence,2_4,2023-05-01T22:00:55.808Z,,0,,,1951.4330000000045,completion,,,,,true,,,,67572.60000014305,67571.5,65603.401,65595.5,65620.067,67587.46,1,6,,,
trial,html.Screen,2_5_0,2023-05-01T22:00:57.942Z,,0,0,,2118.3400001907285,response,ISIC_0010479.JPG,,ISIC_0460240.JPG,ISIC_0010479.JPG,true,1,keypress(m),500,69706.5,69705.80000019073,67570.794,67572.90000009537,67587.46,69720.708,1,6,6,,ISIC_0460240.JPG
sequence,flow.Sequence,2_5,2023-05-01T22:00:57.942Z,,0,,,2118.3400001907285,completion,,,,,true,,,,69707,69705.80000019073,67570.794,67572.80000019073,67587.46,69720.708,1,6,,,
loop,flow.Loop,2,2023-05-01T22:00:57.942Z,,,,,65470.55500019073,completion,,,,,true,,,,69707.30000019073,69705.80000019073,4218.579,4226.100000143051,4235.245,69720.708,1,6,,,
exp_instructions,html.Screen,3,2023-05-01T22:01:02.358Z,,,,,4396.092000190736,response,,,,,,continue,keypress(Space),,74123,74116.80000019073,69704.042,69707.40000009537,69720.708,74137.198,,,,,
trial,html.Screen,4_0_0,2023-05-01T22:01:05.822Z,,0,1,,3450.0020000476798,response,ISIC_9051287.JPG,,ISIC_0025877.JPG,ISIC_9051287.JPG,false,1,keypress(m),500,77587.5,77587.20000004768,74120.532,74123.20000004768,74137.198,77587.816,8,400,1,,ISIC_0025877.JPG
break,html.Screen,4_0_1,2023-05-01T22:01:05.824Z,,0,,,NaN,,,,,,false,,,,77588.5,77588.30000019073,,77587.70000004768,,77587.816,8,400,,,
break_continue,html.Screen,4_0_2,2023-05-01T22:01:05.824Z,,0,,,NaN,,,,,,false,,,,77588.90000009537,77588.90000009537,,77588.70000004768,,77587.816,8,400,,,
sequence,flow.Sequence,4_0,2023-05-01T22:01:05.824Z,,0,,,3451.7020000953635,completion,,,,,false,,,,77589.10000014305,77588.90000009537,74120.532,74123.20000004768,74137.198,77587.816,8,400,,,
trial,html.Screen,4_1_0,2023-05-01T22:01:07.879Z,,0,1,,2056.0840000953613,response,ISIC_4043580.JPG,,ISIC_0032645.JPG,ISIC_4043580.JPG,false,1,keypress(m),500,79644.30000019073,79643.90000009537,77571.15,77589.10000014305,77587.816,79671.066,8,400,2,,ISIC_0032645.JPG
break,html.Screen,4_1_1,2023-05-01T22:01:07.880Z,,0,,,NaN,,,,,,false,,,,79645.40000009537,79645.30000019073,,79644.5,,79671.066,8,400,,,
break_continue,html.Screen,4_1_2,2023-05-01T22:01:07.881Z,,0,,,NaN,,,,,,false,,,,79645.80000019073,79645.70000004768,,79645.5,,79671.066,8,400,,,
sequence,flow.Sequence,4_1,2023-05-01T22:01:07.881Z,,0,,,2057.8840000476775,completion,,,,,false,,,,79645.90000009537,79645.70000004768,77571.15,77589.10000014305,77587.816,79671.066,8,400,,,
trial,html.Screen,4_2_0,2023-05-01T22:01:10.069Z,,0,1,,2162.7340001907287,response,ISIC_0060033.JPG,,ISIC_0046224.JPG,ISIC_0060033.JPG,false,1,keypress(m),500,81834.30000019073,81833.80000019073,79654.4,79645.90000009537,79671.066,81837.646,8,400,3,,ISIC_0046224.JPG
break,html.Screen,4_2_1,2023-05-01T22:01:10.071Z,,0,,,NaN,,,,,,false,,,,81835.90000009537,81835.70000004768,,81834.60000014305,,81837.646,8,400,,,
break_continue,html.Screen,4_2_2,2023-05-01T22:01:10.071Z,,0,,,NaN,,,,,,false,,,,81836.20000004768,81836.20000004768,,81836,,81837.646,8,400,,,
sequence,flow.Sequence,4_2,2023-05-01T22:01:10.071Z,,0,,,2165.1340000476775,completion,,,,,false,,,,81836.40000009537,81836.20000004768,79654.4,79645.90000009537,79671.066,81837.646,8,400,,,
trial,html.Screen,4_3_0,2023-05-01T22:01:12.078Z,,0,1,,2005.4540001430578,response,ISIC_6488658.JPG,,ISIC_0013258.JPG,ISIC_6488658.JPG,false,1,keypress(m),500,83843.60000014305,83843.10000014305,81820.98,81836.5,81837.646,83854.232,8,400,4,,ISIC_0013258.JPG
break,html.Screen,4_3_1,2023-05-01T22:01:12.080Z,,0,,,NaN,,,,,,false,,,,83845.20000004768,83844.90000009537,,83843.90000009537,,83854.232,8,400,,,
break_continue,html.Screen,4_3_2,2023-05-01T22:01:12.081Z,,0,,,NaN,,,,,,false,,,,83845.70000004768,83845.5,,83845.40000009537,,83854.232,8,400,,,
sequence,flow.Sequence,4_3,2023-05-01T22:01:12.081Z,,0,,,2007.8540000000066,completion,,,,,false,,,,83845.90000009537,83845.5,81820.98,81836.5,81837.646,83854.232,8,400,,,
trial,html.Screen,4_4_0,2023-05-01T22:01:14.749Z,,0,1,,2659.3680001430475,response,ISIC_9395707.JPG,,ISIC_3520750.JPG,ISIC_9395707.JPG,false,1,keypress(m),500,86514.20000004768,86513.60000014305,83837.566,83846.20000004768,83854.232,86520.792,8,400,5,,ISIC_3520750.JPG
break,html.Screen,4_4_1,2023-05-01T22:01:14.751Z,,0,,,NaN,,,,,,false,,,,86515.90000009537,86515.60000014305,,86514.60000014305,,86520.792,8,400,,,
break_continue,html.Screen,4_4_2,2023-05-01T22:01:14.751Z,,0,,,NaN,,,,,,false,,,,86516.40000009537,86516.20000004768,,86516.10000014305,,86520.792,8,400,,,
sequence,flow.Sequence,4_4,2023-05-01T22:01:14.751Z,,0,,,2661.96800004768,completion,,,,,false,,,,86516.60000014305,86516.20000004768,83837.566,83846.10000014305,83854.232,86520.792,8,400,,,
trial,html.Screen,4_5_0,2023-05-01T22:01:16.837Z,,0,1,,2080.9080000476824,response,ISIC_9203914.JPG,,ISIC_7319169.JPG,ISIC_9203914.JPG,false,1,keypress(m),500,88601.80000019073,88601.70000004768,86504.126,86516.70000004768,86520.792,88604.792,8,400,6,,ISIC_7319169.JPG
break,html.Screen,4_5_1,2023-05-01T22:01:16.837Z,,0,,,NaN,,,,,,false,,,,88602.20000004768,88602.10000014305,,88601.90000009537,,88604.792,8,400,,,
break_continue,html.Screen,4_5_2,2023-05-01T22:01:16.837Z,,0,,,NaN,,,,,,false,,,,88602.30000019073,88602.30000019073,,88602.30000019073,,88604.792,8,400,,,
sequence,flow.Sequence,4_5,2023-05-01T22:01:16.837Z,,0,,,2081.5080001907336,completion,,,,,false,,,,88602.40000009537,88602.30000019073,86504.126,86516.70000004768,86520.792,88604.792,8,400,,,
trial,html.Screen,4_6_0,2023-05-01T22:01:18.911Z,,0,1,,2071.108000095366,response,ISIC_0058224.JPG,,ISIC_5793600.JPG,ISIC_0058224.JPG,false,1,keypress(m),500,90676.40000009537,90675.90000009537,88588.126,88602.40000009537,88604.792,90688.042,8,400,7,,ISIC_5793600.JPG
break,html.Screen,4_6_1,2023-05-01T22:01:18.913Z,,0,,,NaN,,,,,,false,,,,90678,90677.80000019073,,90676.80000019073,,90688.042,8,400,,,
break_continue,html.Screen,4_6_2,2023-05-01T22:01:18.913Z,,0,,,NaN,,,,,,false,,,,90678.5,90678.40000009537,,90678.20000004768,,90688.042,8,400,,,
sequence,flow.Sequence,4_6,2023-05-01T22:01:18.914Z,,0,,,2073.608000095366,completion,,,,,false,,,,90678.80000019073,90678.40000009537,88588.126,88602.40000009537,88604.792,90688.042,8,400,,,
trial,html.Screen,4_7_0,2023-05-01T22:01:20.885Z,,0,1,,1961.7580001907336,response,ISIC_5312710.JPG,,ISIC_3272999.JPG,ISIC_5312710.JPG,false,1,keypress(m),500,92650.20000004768,92649.80000019073,90671.376,90679,90688.042,92654.63,8,400,8,,ISIC_3272999.JPG
break,html.Screen,4_7_1,2023-05-01T22:01:20.886Z,,0,,,NaN,,,,,,false,,,,92651.40000009537,92651.20000004768,,92650.40000009537,,92654.63,8,400,,,
break_continue,html.Screen,4_7_2,2023-05-01T22:01:20.886Z,,0,,,NaN,,,,,,false,,,,92651.70000004768,92651.60000014305,,92651.5,,92654.63,8,400,,,
sequence,flow.Sequence,4_7,2023-05-01T22:01:20.887Z,,0,,,1963.5580001430499,completion,,,,,false,,,,92651.80000019073,92651.60000014305,90671.376,90678.90000009537,90688.042,92654.63,8,400,,,
trial,html.Screen,4_8_0,2023-05-01T22:01:23.055Z,,0,1,,2165.270000095363,response,ISIC_3439215.JPG,,ISIC_2658858.JPG,ISIC_3439215.JPG,false,1,keypress(m),500,94820.40000009537,94819.90000009537,92637.964,92651.90000009537,92654.63,94837.876,8,400,9,,ISIC_2658858.JPG
break,html.Screen,4_8_1,2023-05-01T22:01:23.057Z,,0,,,NaN,,,,,,false,,,,94822.10000014305,94821.60000014305,,94820.70000004768,,94837.876,8,400,,,
break_continue,html.Screen,4_8_2,2023-05-01T22:01:23.057Z,,0,,,NaN,,,,,,false,,,,94822.5,94822.5,,94822.20000004768,,94837.876,8,400,,,
sequence,flow.Sequence,4_8,2023-05-01T22:01:23.057Z,,0,,,2167.8699999999953,completion,,,,,false,,,,94822.70000004768,94822.5,92637.964,92651.90000009537,92654.63,94837.876,8,400,,,
trial,html.Screen,4_9_0,2023-05-01T22:01:25.029Z,,0,1,,1955.924000190731,response,ISIC_6392478.JPG,,ISIC_4463086.JPG,ISIC_6392478.JPG,false,1,keypress(m),500,96794.30000019073,96793.80000019073,94821.21,94822.80000019073,94837.876,96804.464,8,400,10,,ISIC_4463086.JPG
break,html.Screen,4_9_1,2023-05-01T22:01:25.031Z,,0,,,NaN,,,,,,false,,,,96795.90000009537,96795.60000014305,,96794.60000014305,,96804.464,8,400,,,
break_continue,html.Screen,4_9_2,2023-05-01T22:01:25.031Z,,0,,,NaN,,,,,,false,,,,96796.40000009537,96796.20000004768,,96796.10000014305,,96804.464,8,400,,,
sequence,flow.Sequence,4_9,2023-05-01T22:01:25.031Z,,0,,,1958.3240000476799,completion,,,,,false,,,,96796.60000014305,96796.20000004768,94821.21,94822.80000019073,94837.876,96804.464,8,400,,,
trial,html.Screen,4_10_0,2023-05-01T22:01:27.104Z,,0,1,,2064.035999999993,response,ISIC_0072004.JPG,,ISIC_1794249.JPG,ISIC_0072004.JPG,false,1,keypress(m),500,98868.90000009537,98868.5,96787.798,96796.70000004768,96804.464,98871.788,8,400,11,,ISIC_1794249.JPG
break,html.Screen,4_10_1,2023-05-01T22:01:27.105Z,,0,,,NaN,,,,,,false,,,,98870.60000014305,98870.30000019073,,98869.30000019073,,98871.788,8,400,,,
break_continue,html.Screen,4_10_2,2023-05-01T22:01:27.106Z,,0,,,NaN,,,,,,false,,,,98871.10000014305,98870.90000009537,,98870.70000004768,,98871.788,8,400,,,
sequence,flow.Sequence,4_10,2023-05-01T22:01:27.106Z,,0,,,2066.43600009536,completion,,,,,false,,,,98871.30000019073,98870.90000009537,96787.798,96796.70000004768,96804.464,98871.788,8,400,,,
trial,html.Screen,4_11_0,2023-05-01T22:01:29.189Z,,0,1,,2081.9120000476833,response,ISIC_9412963.JPG,,ISIC_6056121.JPG,ISIC_9412963.JPG,false,1,keypress(m),500,100954.20000004768,100953.70000004768,98855.122,98871.5,98871.788,100971.704,8,400,12,,ISIC_6056121.JPG
break,html.Screen,4_11_1,2023-05-01T22:01:29.190Z,,0,,,NaN,,,,,,false,,,,100955.5,100955.30000019073,,100954.5,,100971.704,8,400,,,
break_continue,html.Screen,4_11_2,2023-05-01T22:01:29.190Z,,0,,,NaN,,,,,,false,,,,100955.90000009537,100955.70000004768,,100955.60000014305,,100971.704,8,400,,,
sequence,flow.Sequence,4_11,2023-05-01T22:01:29.191Z,,0,,,2083.9120000476833,completion,,,,,false,,,,100956.10000014305,100955.70000004768,98855.122,98871.40000009537,98871.788,100971.704,8,400,,,
trial,html.Screen,4_12_0,2023-05-01T22:01:31.397Z,,0,1,,2189.996000047686,response,ISIC_4252285.JPG,,ISIC_0000517.JPG,ISIC_4252285.JPG,false,1,keypress(m),500,103162.20000004768,103161.70000004768,100955.038,100956.20000004768,100971.704,103171.616,8,400,13,,ISIC_0000517.JPG
break,html.Screen,4_12_1,2023-05-01T22:01:31.398Z,,0,,,NaN,,,,,,false,,,,103163.80000019073,103163.60000014305,,103162.5,,103171.616,8,400,,,
break_continue,html.Screen,4_12_2,2023-05-01T22:01:31.399Z,,0,,,NaN,,,,,,false,,,,103164.40000009537,103164.30000019073,,103164,,103171.616,8,400,,,
sequence,flow.Sequence,4_12,2023-05-01T22:01:31.399Z,,0,,,2192.596000190737,completion,,,,,false,,,,103164.5,103164.30000019073,100955.038,100956.20000004768,100971.704,103171.616,8,400,,,
trial,html.Screen,4_13_0,2023-05-01T22:01:33.470Z,,0,1,,2063.1840001907403,response,ISIC_0034061.JPG,,ISIC_0029693.JPG,ISIC_0034061.JPG,false,1,keypress(m),500,105235.10000014305,105234.80000019073,103154.95,103164.60000014305,103171.616,105238.2,8,400,14,,ISIC_0029693.JPG
break,html.Screen,4_13_1,2023-05-01T22:01:33.470Z,,0,,,NaN,,,,,,false,,,,105236,105235.80000019073,,105235.30000019073,,105238.2,8,400,,,
break_continue,html.Screen,4_13_2,2023-05-01T22:01:33.471Z,,0,,,NaN,,,,,,false,,,,105236.30000019073,105236.20000004768,,105236.10000014305,,105238.2,8,400,,,
sequence,flow.Sequence,4_13,2023-05-01T22:01:33.471Z,,0,,,2064.584000047689,completion,,,,,false,,,,105236.5,105236.20000004768,103154.95,103164.5,103171.616,105238.2,8,400,,,
trial,html.Screen,4_14_0,2023-05-01T22:01:35.533Z,,0,1,,2060.0000000476866,response,ISIC_6588853.JPG,,ISIC_0070246.JPG,ISIC_6588853.JPG,false,1,keypress(m),500,107298.70000004768,107298.20000004768,105221.534,105236.60000014305,105238.2,107304.784,8,400,15,,ISIC_0070246.JPG
break,html.Screen,4_14_1,2023-05-01T22:01:35.535Z,,0,,,NaN,,,,,,false,,,,107300.20000004768,107300,,107299,,107304.784,8,400,,,
break_continue,html.Screen,4_14_2,2023-05-01T22:01:35.535Z,,0,,,NaN,,,,,,false,,,,107300.70000004768,107300.5,,107300.40000009537,,107304.784,8,400,,,
sequence,flow.Sequence,4_14,2023-05-01T22:01:35.535Z,,0,,,2062.300000000003,completion,,,,,false,,,,107300.80000019073,107300.5,105221.534,105236.5,105238.2,107304.784,8,400,,,
trial,html.Screen,4_15_0,2023-05-01T22:01:37.700Z,,0,1,,2160.8160001430515,response,ISIC_0778327.JPG,,ISIC_0014525.JPG,ISIC_0778327.JPG,false,1,keypress(m),500,109465.90000009537,109465.60000014305,107288.118,107300.90000009537,107304.784,109472.121,8,400,16,,ISIC_0014525.JPG
break,html.Screen,4_15_1,2023-05-01T22:01:37.701Z,,0,,,NaN,,,,,,false,,,,109466.80000019073,109466.60000014305,,109466,,109472.121,8,400,,,
break_continue,html.Screen,4_15_2,2023-05-01T22:01:37.701Z,,0,,,NaN,,,,,,false,,,,109467.10000014305,109466.90000009537,,109466.90000009537,,109472.121,8,400,,,
sequence,flow.Sequence,4_15,2023-05-01T22:01:37.702Z,,0,,,2162.116000095368,completion,,,,,false,,,,109467.10000014305,109466.90000009537,107288.118,107300.90000009537,107304.784,109472.121,8,400,,,
trial,html.Screen,4_16_0,2023-05-01T22:01:39.765Z,,0,1,,2057.5790000476845,response,ISIC_6915759.JPG,,ISIC_7253401.JPG,ISIC_6915759.JPG,false,1,keypress(m),500,111530.10000014305,111529.70000004768,109455.455,109467.30000019073,109472.121,111538.705,8,400,17,,ISIC_7253401.JPG
break,html.Screen,4_16_1,2023-05-01T22:01:39.766Z,,0,,,NaN,,,,,,false,,,,111531.20000004768,111531.20000004768,,111530.40000009537,,111538.705,8,400,,,
break_continue,html.Screen,4_16_2,2023-05-01T22:01:39.766Z,,0,,,NaN,,,,,,false,,,,111531.70000004768,111531.5,,111531.30000019073,,111538.705,8,400,,,
sequence,flow.Sequence,4_16,2023-05-01T22:01:39.766Z,,0,,,2059.379000000001,completion,,,,,false,,,,111531.90000009537,111531.5,109455.455,109467.20000004768,109472.121,111538.705,8,400,,,
trial,html.Screen,4_17_0,2023-05-01T22:01:41.967Z,,0,1,,2193.3950001430494,response,ISIC_0057169.JPG,,ISIC_0061623.JPG,ISIC_0057169.JPG,false,1,keypress(m),500,113732.40000009537,113732.10000014305,111522.039,111532,111538.705,113738.617,8,400,18,,ISIC_0061623.JPG
break,html.Screen,4_17_1,2023-05-01T22:01:41.968Z,,0,,,NaN,,,,,,false,,,,113733.5,113733.30000019073,,113732.60000014305,,113738.617,8,400,,,
break_continue,html.Screen,4_17_2,2023-05-01T22:01:41.968Z,,0,,,NaN,,,,,,false,,,,113733.80000019073,113733.80000019073,,113733.70000004768,,113738.617,8,400,,,
sequence,flow.Sequence,4_17,2023-05-01T22:01:41.968Z,,0,,,2195.095000190733,completion,,,,,false,,,,113733.90000009537,113733.80000019073,111522.039,111531.90000009537,111538.705,113738.617,8,400,,,
trial,html.Screen,4_18_0,2023-05-01T22:01:44.028Z,,0,1,,2054.1830001907365,response,ISIC_8566006.JPG,,ISIC_0028418.JPG,ISIC_8566006.JPG,false,1,keypress(m),500,115793.30000019073,115792.80000019073,113721.951,113734,113738.617,115805.201,8,400,19,,ISIC_0028418.JPG
break,html.Screen,4_18_1,2023-05-01T22:01:44.029Z,,0,,,NaN,,,,,,false,,,,115794.90000009537,115794.70000004768,,115793.70000004768,,115805.201,8,400,,,
break_continue,html.Screen,4_18_2,2023-05-01T22:01:44.030Z,,0,,,NaN,,,,,,false,,,,115795.40000009537,115795.30000019073,,115795.10000014305,,115805.201,8,400,,,
sequence,flow.Sequence,4_18,2023-05-01T22:01:44.030Z,,0,,,2056.6830001907365,completion,,,,,false,,,,115795.60000014305,115795.30000019073,113721.951,113734,113738.617,115805.201,8,400,,,
trial,html.Screen,4_19_0,2023-05-01T22:01:46.117Z,,0,1,,2076.599000190734,response,ISIC_2839431.JPG,,ISIC_0004667.JPG,ISIC_2839431.JPG,false,1,keypress(m),500,117882.20000004768,117881.80000019073,115788.535,115795.80000019073,115805.201,117888.451,8,400,20,,ISIC_0004667.JPG
break,html.Screen,4_19_1,2023-05-01T22:01:46.118Z,,0,,,NaN,,,,,,false,,,,117883.90000009537,117883.60000014305,,117882.60000014305,,117888.451,8,400,,,
break_continue,html.Screen,4_19_2,2023-05-01T22:01:46.119Z,,0,,,NaN,,,,,,false,,,,117884.40000009537,117884.40000009537,,117884.10000014305,,117888.451,8,400,,,
sequence,flow.Sequence,4_19,2023-05-01T22:01:46.119Z,,0,,,2079.1990000953665,completion,,,,,false,,,,117884.60000014305,117884.40000009537,115788.535,115795.80000019073,115805.201,117888.451,8,400,,,
trial,html.Screen,4_20_0,2023-05-01T22:01:48.127Z,,0,1,,2003.9490000953665,response,ISIC_0385633.JPG,,ISIC_0008630.JPG,ISIC_0385633.JPG,false,1,keypress(m),500,119892.80000019073,119892.40000009537,117871.785,117884.80000019073,117888.451,119905.8,8,400,21,,ISIC_0008630.JPG
break,html.Screen,4_20_1,2023-05-01T22:01:48.129Z,,0,,,NaN,,,,,,false,,,,119894.30000019073,119894.10000014305,,119893.10000014305,,119905.8,8,400,,,
break_continue,html.Screen,4_20_2,2023-05-01T22:01:48.129Z,,0,,,NaN,,,,,,false,,,,119894.80000019073,119894.70000004768,,119894.5,,119905.8,8,400,,,
sequence,flow.Sequence,4_20,2023-05-01T22:01:48.129Z,,0,,,2006.2490000476828,completion,,,,,false,,,,119894.90000009537,119894.70000004768,117871.785,117884.80000019073,117888.451,119905.8,8,400,,,
trial,html.Screen,4_21_0,2023-05-01T22:01:50.219Z,,0,1,,2078.8000001430482,response,ISIC_1654318.JPG,,ISIC_7833178.JPG,ISIC_1654318.JPG,false,1,keypress(m),500,121985.20000004768,121984.60000014305,119889.134,119895,119905.8,121989.05,8,400,22,,ISIC_7833178.JPG
break,html.Screen,4_21_1,2023-05-01T22:01:50.221Z,,0,,,NaN,,,,,,false,,,,121986.80000019073,121986.5,,121985.60000014305,,121989.05,8,400,,,
break_continue,html.Screen,4_21_2,2023-05-01T22:01:50.222Z,,0,,,NaN,,,,,,false,,,,121987.40000009537,121987.20000004768,,121987,,121989.05,8,400,,,
sequence,flow.Sequence,4_21,2023-05-01T22:01:50.222Z,,0,,,2081.400000047681,completion,,,,,false,,,,121987.5,121987.20000004768,119889.134,119895,119905.8,121989.05,8,400,,,
trial,html.Screen,4_22_0,2023-05-01T22:01:52.221Z,,0,1,,1997.250000190732,response,ISIC_0002900.JPG,,ISIC_0033104.JPG,ISIC_0002900.JPG,false,1,keypress(m),500,123986.70000004768,123986.30000019073,121972.384,121987.70000004768,121989.05,123988.97,8,400,23,,ISIC_0033104.JPG
break,html.Screen,4_22_1,2023-05-01T22:01:52.222Z,,0,,,NaN,,,,,,false,,,,123988,123987.90000009537,,123987,,123988.97,8,400,,,
break_continue,html.Screen,4_22_2,2023-05-01T22:01:52.223Z,,0,,,NaN,,,,,,false,,,,123988.40000009537,123988.30000019073,,123988.20000004768,,123988.97,8,400,,,
sequence,flow.Sequence,4_22,2023-05-01T22:01:52.223Z,,0,,,1999.250000190732,completion,,,,,false,,,,123988.60000014305,123988.30000019073,121972.384,121987.70000004768,121989.05,123988.97,8,400,,,
trial,html.Screen,4_23_0,2023-05-01T22:01:54.293Z,,0,1,,2069.9300000953663,response,ISIC_3212781.JPG,,ISIC_0011219.JPG,ISIC_3212781.JPG,false,1,keypress(m),500,126059.40000009537,126058.90000009537,123972.304,123988.70000004768,123988.97,126072.22,8,400,24,,ISIC_0011219.JPG
break,html.Screen,4_23_1,2023-05-01T22:01:54.295Z,,0,,,NaN,,,,,,false,,,,126060.60000014305,126060.40000009537,,126059.60000014305,,126072.22,8,400,,,
break_continue,html.Screen,4_23_2,2023-05-01T22:01:54.295Z,,0,,,NaN,,,,,,false,,,,126061,126061,,126060.80000019073,,126072.22,8,400,,,
sequence,flow.Sequence,4_23,2023-05-01T22:01:54.295Z,,0,,,2072.029999999999,completion,,,,,false,,,,126061.10000014305,126061,123972.304,123988.70000004768,123988.97,126072.22,8,400,,,
trial,html.Screen,4_24_0,2023-05-01T22:01:56.350Z,,0,1,,2043.4800000476826,response,ISIC_1020968.JPG,,ISIC_3315146.JPG,ISIC_1020968.JPG,false,1,keypress(m),500,128116.20000004768,128115.70000004768,126055.554,126061.30000019073,126072.22,128122.138,8,400,25,,ISIC_3315146.JPG
break,html.Screen,4_24_1,2023-05-01T22:01:56.352Z,,0,,,NaN,,,,,,false,,,,128117.5,128117.30000019073,,128116.40000009537,,128122.138,8,400,,,
break_continue,html.Screen,4_24_2,2023-05-01T22:01:56.352Z,,0,,,NaN,,,,,,false,,,,128118,128118,,128117.70000004768,,128122.138,8,400,,,
sequence,flow.Sequence,4_24,2023-05-01T22:01:56.352Z,,0,,,2045.7799999999988,completion,,,,,false,,,,128118.20000004768,128118,126055.554,126061.30000019073,126072.22,128122.138,8,400,,,
trial,html.Screen,4_25_0,2023-05-01T22:01:58.325Z,,0,1,,1968.0620000476774,response,ISIC_8814612.JPG,,ISIC_9209245.JPG,ISIC_8814612.JPG,false,1,keypress(m),500,130090.70000004768,130090.20000004768,128105.472,128118.40000009537,128122.138,130106.132,8,400,26,,ISIC_9209245.JPG
break,html.Screen,4_25_1,2023-05-01T22:01:58.326Z,,0,,,NaN,,,,,,false,,,,130092.20000004768,130092,,130091,,130106.132,8,400,,,
break_continue,html.Screen,4_25_2,2023-05-01T22:01:58.327Z,,0,,,NaN,,,,,,false,,,,130092.80000019073,130092.60000014305,,130092.30000019073,,130106.132,8,400,,,
sequence,flow.Sequence,4_25,2023-05-01T22:01:58.327Z,,0,,,1970.4620001430449,completion,,,,,false,,,,130092.90000009537,130092.60000014305,128105.472,128118.30000019073,128122.138,130106.132,8,400,,,
trial,html.Screen,4_26_0,2023-05-01T22:02:00.446Z,,0,1,,2104.868000000002,response,ISIC_0060219.JPG,,ISIC_7336383.JPG,ISIC_0060219.JPG,false,1,keypress(m),500,132211.60000014305,132211,130089.466,130093,130106.132,132222.714,8,400,27,,ISIC_7336383.JPG
break,html.Screen,4_26_1,2023-05-01T22:02:00.447Z,,0,,,NaN,,,,,,false,,,,132213.30000019073,132213.10000014305,,132212.10000014305,,132222.714,8,400,,,
break_continue,html.Screen,4_26_2,2023-05-01T22:02:00.448Z,,0,,,NaN,,,,,,false,,,,132213.90000009537,132213.80000019073,,132213.5,,132222.714,8,400,,,
sequence,flow.Sequence,4_26,2023-05-01T22:02:00.448Z,,0,,,2107.668000190737,completion,,,,,false,,,,132214.10000014305,132213.80000019073,130089.466,130093,130106.132,132222.714,8,400,,,
trial,html.Screen,4_27_0,2023-05-01T22:02:02.566Z,,0,1,,2108.785999999993,response,ISIC_3666094.JPG,,ISIC_0033186.JPG,ISIC_3666094.JPG,false,1,keypress(m),500,134331.70000004768,134331.5,132206.048,132214.30000019073,132222.714,134339.296,8,400,28,,ISIC_0033186.JPG
break,html.Screen,4_27_1,2023-05-01T22:02:02.566Z,,0,,,NaN,,,,,,false,,,,134332.40000009537,134332.30000019073,,134331.90000009537,,134339.296,8,400,,,
break_continue,html.Screen,4_27_2,2023-05-01T22:02:02.567Z,,0,,,NaN,,,,,,false,,,,134332.70000004768,134332.70000004768,,134332.5,,134339.296,8,400,,,
sequence,flow.Sequence,4_27,2023-05-01T22:02:02.567Z,,0,,,2109.9860000476765,completion,,,,,false,,,,134332.70000004768,134332.70000004768,132206.048,132214.20000004768,132222.714,134339.296,8,400,,,
trial,html.Screen,4_28_0,2023-05-01T22:02:04.703Z,,0,1,,2129.0040001907328,response,ISIC_0033830.JPG,,ISIC_8566006.JPG,ISIC_0033830.JPG,false,1,keypress(m),500,136468.70000004768,136468.30000019073,134322.63,134332.80000019073,134339.296,136472.544,8,400,29,,ISIC_8566006.JPG
break,html.Screen,4_28_1,2023-05-01T22:02:04.703Z,,0,,,NaN,,,,,,false,,,,136469.40000009537,136469.30000019073,,136468.80000019073,,136472.544,8,400,,,
break_continue,html.Screen,4_28_2,2023-05-01T22:02:04.704Z,,0,,,NaN,,,,,,false,,,,136469.70000004768,136469.60000014305,,136469.5,,136472.544,8,400,,,
sequence,flow.Sequence,4_28,2023-05-01T22:02:04.704Z,,0,,,2130.304000143049,completion,,,,,false,,,,136469.90000009537,136469.60000014305,134322.63,134332.80000019073,134339.296,136472.544,8,400,,,
trial,html.Screen,4_29_0,2023-05-01T22:02:06.836Z,,0,1,,2129.1560000476893,response,ISIC_3700351.JPG,,ISIC_7758102.JPG,ISIC_3700351.JPG,false,1,keypress(m),500,138602.30000019073,138601.70000004768,136455.878,136469.90000009537,136472.544,138605.792,8,400,30,,ISIC_7758102.JPG
break,html.Screen,4_29_1,2023-05-01T22:02:06.838Z,,0,,,NaN,,,,,,false,,,,138603.80000019073,138603.5,,138602.60000014305,,138605.792,8,400,,,
break_continue,html.Screen,4_29_2,2023-05-01T22:02:06.838Z,,0,,,NaN,,,,,,false,,,,138604.30000019073,138604.10000014305,,138604,,138605.792,8,400,,,
sequence,flow.Sequence,4_29,2023-05-01T22:02:06.838Z,,0,,,2131.5560001430567,completion,,,,,false,,,,138604.40000009537,138604.10000014305,136455.878,136469.90000009537,136472.544,138605.792,8,400,,,
trial,html.Screen,4_30_0,2023-05-01T22:02:08.900Z,,0,1,,2059.908000047697,response,ISIC_0058508.JPG,,ISIC_0000065.JPG,ISIC_0058508.JPG,false,1,keypress(m),500,140666.20000004768,140665.70000004768,138589.126,138604.5,138605.792,140673.133,8,400,31,,ISIC_0000065.JPG
break,html.Screen,4_30_1,2023-05-01T22:02:08.902Z,,0,,,NaN,,,,,,false,,,,140667.60000014305,140667.40000009537,,140666.5,,140673.133,8,400,,,
break_continue,html.Screen,4_30_2,2023-05-01T22:02:08.902Z,,0,,,NaN,,,,,,false,,,,140668.10000014305,140667.90000009537,,140667.80000019073,,140673.133,8,400,,,
sequence,flow.Sequence,4_30,2023-05-01T22:02:08.902Z,,0,,,2062.1080000953807,completion,,,,,false,,,,140668.20000004768,140667.90000009537,138589.126,138604.40000009537,138605.792,140673.133,8,400,,,
trial,html.Screen,4_31_0,2023-05-01T22:02:10.948Z,,0,1,,2040.567000047682,response,ISIC_8425541.JPG,,ISIC_0030820.JPG,ISIC_8425541.JPG,false,1,keypress(m),500,142714.20000004768,142713.70000004768,140656.467,140668.40000009537,140673.133,142723.051,8,400,32,,ISIC_0030820.JPG
break,html.Screen,4_31_1,2023-05-01T22:02:10.949Z,,0,,,NaN,,,,,,false,,,,142715.30000019073,142715.10000014305,,142714.30000019073,,142723.051,8,400,,,
break_continue,html.Screen,4_31_2,2023-05-01T22:02:10.949Z,,0,,,NaN,,,,,,false,,,,142715.60000014305,142715.5,,142715.40000009537,,142723.051,8,400,,,
sequence,flow.Sequence,4_31,2023-05-01T22:02:10.950Z,,0,,,2042.3669999999984,completion,,,,,false,,,,142715.70000004768,142715.5,140656.467,140668.30000019073,140673.133,142723.051,8,400,,,
trial,html.Screen,4_32_0,2023-05-01T22:02:13.076Z,,0,1,,2118.649000047677,response,ISIC_0054048.JPG,,ISIC_0001112.JPG,ISIC_0054048.JPG,false,1,keypress(m),500,144842.20000004768,144841.70000004768,142706.385,142715.80000019073,142723.051,144856.299,8,400,33,,ISIC_0001112.JPG
break,html.Screen,4_32_1,2023-05-01T22:02:13.078Z,,0,,,NaN,,,,,,false,,,,144843.80000019073,144843.5,,144842.5,,144856.299,8,400,,,
break_continue,html.Screen,4_32_2,2023-05-01T22:02:13.078Z,,0,,,NaN,,,,,,false,,,,144844.20000004768,144844.10000014305,,144843.90000009537,,144856.299,8,400,,,
sequence,flow.Sequence,4_32,2023-05-01T22:02:13.078Z,,0,,,2121.0490001430444,completion,,,,,false,,,,144844.40000009537,144844.10000014305,142706.385,142715.80000019073,142723.051,144856.299,8,400,,,
trial,html.Screen,4_33_0,2023-05-01T22:02:15.118Z,,0,1,,2027.5010001907358,response,ISIC_0033585.JPG,,ISIC_4898865.JPG,ISIC_0033585.JPG,false,1,keypress(m),500,146884.20000004768,146883.80000019073,144839.633,144844.60000014305,144856.299,146889.551,8,400,34,,ISIC_4898865.JPG
break,html.Screen,4_33_1,2023-05-01T22:02:15.119Z,,0,,,NaN,,,,,,false,,,,146885.60000014305,146885.40000009537,,146884.60000014305,,146889.551,8,400,,,
break_continue,html.Screen,4_33_2,2023-05-01T22:02:15.120Z,,0,,,NaN,,,,,,false,,,,146886,146885.90000009537,,146885.80000019073,,146889.551,8,400,,,
sequence,flow.Sequence,4_33,2023-05-01T22:02:15.120Z,,0,,,2029.6010000953684,completion,,,,,false,,,,146886.20000004768,146885.90000009537,144839.633,144844.5,144856.299,146889.551,8,400,,,
trial,html.Screen,4_34_0,2023-05-01T22:02:17.238Z,,0,1,,2114.4489999999932,response,ISIC_7141361.JPG,,ISIC_8671119.JPG,ISIC_7141361.JPG,false,1,keypress(m),500,149004.60000014305,149004,146872.885,146886.40000009537,146889.551,149022.799,8,400,35,,ISIC_8671119.JPG
break,html.Screen,4_34_1,2023-05-01T22:02:17.240Z,,0,,,NaN,,,,,,false,,,,149006.10000014305,149005.80000019073,,149004.80000019073,,149022.799,8,400,,,
break_continue,html.Screen,4_34_2,2023-05-01T22:02:17.240Z,,0,,,NaN,,,,,,false,,,,149006.5,149006.40000009537,,149006.20000004768,,149022.799,8,400,,,
sequence,flow.Sequence,4_34,2023-05-01T22:02:17.240Z,,0,,,2116.8490000953607,completion,,,,,false,,,,149006.60000014305,149006.40000009537,146872.885,146886.40000009537,146889.551,149022.799,8,400,,,
trial,html.Screen,4_35_0,2023-05-01T22:02:19.227Z,,0,1,,1970.0010001907358,response,ISIC_0014982.JPG,,ISIC_2560463.JPG,ISIC_0014982.JPG,false,1,keypress(m),500,150993.30000019073,150992.80000019073,149006.133,149006.70000004768,149022.799,151006.804,8,400,36,,ISIC_2560463.JPG
break,html.Screen,4_35_1,2023-05-01T22:02:19.228Z,,0,,,NaN,,,,,,false,,,,150994.70000004768,150994.5,,150993.5,,151006.804,8,400,,,
break_continue,html.Screen,4_35_2,2023-05-01T22:02:19.229Z,,0,,,NaN,,,,,,false,,,,150995.20000004768,150995,,150994.90000009537,,151006.804,8,400,,,
sequence,flow.Sequence,4_35,2023-05-01T22:02:19.229Z,,0,,,1972.201000000001,completion,,,,,false,,,,150995.30000019073,150995,149006.133,149006.70000004768,149022.799,151006.804,8,400,,,
trial,html.Screen,4_36_0,2023-05-01T22:02:21.236Z,,0,1,,1994.9960001907311,response,ISIC_0054570.JPG,,ISIC_0070383.JPG,ISIC_0054570.JPG,false,1,keypress(m),500,153002.10000014305,153001.80000019073,150990.138,150995.40000009537,151006.804,153006.724,8,400,37,,ISIC_0070383.JPG
break,html.Screen,4_36_1,2023-05-01T22:02:21.237Z,,0,,,NaN,,,,,,false,,,,153003.40000009537,153003.20000004768,,153002.30000019073,,153006.724,8,400,,,
break_continue,html.Screen,4_36_2,2023-05-01T22:02:21.238Z,,0,,,NaN,,,,,,false,,,,153004,153003.80000019073,,153003.60000014305,,153006.724,8,400,,,
sequence,flow.Sequence,4_36,2023-05-01T22:02:21.238Z,,0,,,1996.9960001907311,completion,,,,,false,,,,153004.20000004768,153003.80000019073,150990.138,150995.30000019073,151006.804,153006.724,8,400,,,
trial,html.Screen,4_37_0,2023-05-01T22:02:23.295Z,,0,1,,2053.7760000000126,response,ISIC_7017387.JPG,,ISIC_0029874.JPG,ISIC_7017387.JPG,false,1,keypress(m),500,155061,155060.5,152990.058,153004.40000009537,153006.724,155073.308,8,400,38,,ISIC_0029874.JPG
break,html.Screen,4_37_1,2023-05-01T22:02:23.296Z,,0,,,NaN,,,,,,false,,,,155062.60000014305,155062.20000004768,,155061.30000019073,,155073.308,8,400,,,
break_continue,html.Screen,4_37_2,2023-05-01T22:02:23.297Z,,0,,,NaN,,,,,,false,,,,155063.10000014305,155062.90000009537,,155062.70000004768,,155073.308,8,400,,,
sequence,flow.Sequence,4_37,2023-05-01T22:02:23.297Z,,0,,,2056.17600009538,completion,,,,,false,,,,155063.30000019073,155062.90000009537,152990.058,153004.30000019073,153006.724,155073.308,8,400,,,
trial,html.Screen,4_38_0,2023-05-01T22:02:25.525Z,,0,1,,2217.69200000001,response,ISIC_8195528.JPG,,ISIC_6983970.JPG,ISIC_8195528.JPG,false,1,keypress(m),500,157291.30000019073,157291,155056.642,155063.40000009537,155073.308,157306.552,8,400,39,,ISIC_6983970.JPG
break,html.Screen,4_38_1,2023-05-01T22:02:25.526Z,,0,,,NaN,,,,,,false,,,,157292.5,157292.30000019073,,157291.60000014305,,157306.552,8,400,,,
break_continue,html.Screen,4_38_2,2023-05-01T22:02:25.526Z,,0,,,NaN,,,,,,false,,,,157292.90000009537,157292.70000004768,,157292.60000014305,,157306.552,8,400,,,
sequence,flow.Sequence,4_38,2023-05-01T22:02:25.527Z,,0,,,2219.3920000476937,completion,,,,,false,,,,157292.90000009537,157292.70000004768,155056.642,155063.30000019073,155073.308,157306.552,8,400,,,
trial,html.Screen,4_39_0,2023-05-01T22:02:27.708Z,,0,1,,2167.8480000953714,response,ISIC_4826449.JPG,,ISIC_4293419.JPG,ISIC_4826449.JPG,false,1,keypress(m),500,159474.90000009537,159474.40000009537,157289.886,157293.10000014305,157306.552,159489.798,8,400,40,,ISIC_4293419.JPG
break,html.Screen,4_39_1,2023-05-01T22:02:27.710Z,,0,,,NaN,,,,,,false,,,,159476.5,159476.20000004768,,159475.20000004768,,159489.798,8,400,,,
break_continue,html.Screen,4_39_2,2023-05-01T22:02:27.711Z,,0,,,NaN,,,,,,false,,,,159477,159476.80000019073,,159476.60000014305,,159489.798,8,400,,,
sequence,flow.Sequence,4_39,2023-05-01T22:02:27.711Z,,0,,,2170.248000190739,completion,,,,,false,,,,159477.10000014305,159476.80000019073,157289.886,157293,157306.552,159489.798,8,400,,,
trial,html.Screen,4_40_0,2023-05-01T22:02:29.740Z,,0,1,,2016.502000190725,response,ISIC_0011463.JPG,,ISIC_8321148.JPG,ISIC_0011463.JPG,false,1,keypress(m),500,161506.70000004768,161506.30000019073,159473.132,159477.30000019073,159489.798,161523.805,8,400,41,,ISIC_8321148.JPG
break,html.Screen,4_40_1,2023-05-01T22:02:29.742Z,,0,,,NaN,,,,,,false,,,,161508.40000009537,161508.10000014305,,161507.10000014305,,161523.805,8,400,,,
break_continue,html.Screen,4_40_2,2023-05-01T22:02:29.742Z,,0,,,NaN,,,,,,false,,,,161508.90000009537,161508.80000019073,,161508.60000014305,,161523.805,8,400,,,
sequence,flow.Sequence,4_40,2023-05-01T22:02:29.743Z,,0,,,2019.002000190725,completion,,,,,false,,,,161509.10000014305,161508.80000019073,159473.132,159477.30000019073,159489.798,161523.805,8,400,,,
trial,html.Screen,4_41_0,2023-05-01T22:02:31.820Z,,0,1,,2062.495000190742,response,ISIC_0015185.JPG,,ISIC_9509813.JPG,ISIC_0015185.JPG,false,1,keypress(m),500,163586.60000014305,163586.30000019073,161507.139,161509.10000014305,161523.805,163590.389,8,400,42,,ISIC_9509813.JPG
break,html.Screen,4_41_1,2023-05-01T22:02:31.822Z,,0,,,NaN,,,,,,false,,,,163588.20000004768,163587.90000009537,,163587,,163590.389,8,400,,,
break_continue,html.Screen,4_41_2,2023-05-01T22:02:31.822Z,,0,,,NaN,,,,,,false,,,,163588.60000014305,163588.5,,163588.40000009537,,163590.389,8,400,,,
sequence,flow.Sequence,4_41,2023-05-01T22:02:31.822Z,,0,,,2064.695000000007,completion,,,,,false,,,,163588.70000004768,163588.5,161507.139,161509.10000014305,161523.805,163590.389,8,400,,,
trial,html.Screen,4_42_0,2023-05-01T22:02:33.956Z,,0,1,,2131.4110001907393,response,ISIC_8578732.JPG,,ISIC_8935085.JPG,ISIC_8578732.JPG,false,1,keypress(m),500,165722.30000019073,165721.80000019073,163573.723,163588.80000019073,163590.389,165723.637,8,400,43,,ISIC_8935085.JPG
break,html.Screen,4_42_1,2023-05-01T22:02:33.957Z,,0,,,NaN,,,,,,false,,,,165723.80000019073,165723.60000014305,,165722.60000014305,,165723.637,8,400,,,
break_continue,html.Screen,4_42_2,2023-05-01T22:02:33.958Z,,0,,,NaN,,,,,,false,,,,165724.20000004768,165724.10000014305,,165723.90000009537,,165723.637,8,400,,,
sequence,flow.Sequence,4_42,2023-05-01T22:02:33.958Z,,0,,,2133.7110001430556,completion,,,,,false,,,,165724.30000019073,165724.10000014305,163573.723,163588.80000019073,163590.389,165723.637,8,400,,,
trial,html.Screen,4_43_0,2023-05-01T22:02:35.934Z,,0,1,,1976.2630000953795,response,ISIC_0061825.JPG,,ISIC_0032682.JPG,ISIC_0061825.JPG,false,1,keypress(m),500,167700.30000019073,167699.90000009537,165706.971,165724.5,165723.637,167706.891,8,400,44,,ISIC_0032682.JPG
break,html.Screen,4_43_1,2023-05-01T22:02:35.935Z,,0,,,NaN,,,,,,false,,,,167701.70000004768,167701.5,,167700.60000014305,,167706.891,8,400,,,
break_continue,html.Screen,4_43_2,2023-05-01T22:02:35.936Z,,0,,,NaN,,,,,,false,,,,167702.10000014305,167702,,167701.90000009537,,167706.891,8,400,,,
sequence,flow.Sequence,4_43,2023-05-01T22:02:35.936Z,,0,,,1978.363000000012,completion,,,,,false,,,,167702.40000009537,167702,165706.971,165724.5,165723.637,167706.891,8,400,,,
trial,html.Screen,4_44_0,2023-05-01T22:02:37.901Z,,0,1,,1960.8090000476805,response,ISIC_0032331.JPG,,ISIC_8685259.JPG,ISIC_0032331.JPG,false,1,keypress(m),500,169668.10000014305,169667.70000004768,167690.225,167702.5,167706.891,169673.479,8,400,45,,ISIC_8685259.JPG
break,html.Screen,4_44_1,2023-05-01T22:02:37.903Z,,0,,,NaN,,,,,,false,,,,169669.5,169669.20000004768,,169668.40000009537,,169673.479,8,400,,,
break_continue,html.Screen,4_44_2,2023-05-01T22:02:37.903Z,,0,,,NaN,,,,,,false,,,,169670,169669.90000009537,,169669.60000014305,,169673.479,8,400,,,
sequence,flow.Sequence,4_44,2023-05-01T22:02:37.904Z,,0,,,1963.0090000953642,completion,,,,,false,,,,169670.20000004768,169669.90000009537,167690.225,167702.5,167706.891,169673.479,8,400,,,
trial,html.Screen,4_45_0,2023-05-01T22:02:39.940Z,,0,1,,2032.2210000476916,response,ISIC_9667908.JPG,,ISIC_0010266.JPG,ISIC_9667908.JPG,false,1,keypress(m),500,171706.20000004768,171705.70000004768,169656.813,169670.30000019073,169673.479,171707.467,8,400,46,,ISIC_0010266.JPG
break,html.Screen,4_45_1,2023-05-01T22:02:39.941Z,,0,,,NaN,,,,,,false,,,,171707.80000019073,171707.60000014305,,171706.60000014305,,171707.467,8,400,,,
break_continue,html.Screen,4_45_2,2023-05-01T22:02:39.942Z,,0,,,NaN,,,,,,false,,,,171708.30000019073,171708.20000004768,,171708,,171707.467,8,400,,,
sequence,flow.Sequence,4_45,2023-05-01T22:02:39.942Z,,0,,,2034.7210000476916,completion,,,,,false,,,,171708.5,171708.20000004768,169656.813,169670.30000019073,169673.479,171707.467,8,400,,,
trial,html.Screen,4_46_0,2023-05-01T22:02:42.140Z,,0,1,,2198.8330001907307,response,ISIC_7293518.JPG,,ISIC_3885041.JPG,ISIC_7293518.JPG,false,1,keypress(m),500,173906.70000004768,173906.30000019073,171690.801,171708.60000014305,171707.467,173924.045,8,400,47,,ISIC_3885041.JPG
break,html.Screen,4_46_1,2023-05-01T22:02:42.141Z,,0,,,NaN,,,,,,false,,,,173908,173907.70000004768,,173907,,173924.045,8,400,,,
break_continue,html.Screen,4_46_2,2023-05-01T22:02:42.142Z,,0,,,NaN,,,,,,false,,,,173908.20000004768,173908.10000014305,,173908,,173924.045,8,400,,,
sequence,flow.Sequence,4_46,2023-05-01T22:02:42.142Z,,0,,,2200.633000143047,completion,,,,,false,,,,173908.30000019073,173908.10000014305,171690.801,171708.5,171707.467,173924.045,8,400,,,
trial,html.Screen,4_47_0,2023-05-01T22:02:44.123Z,,0,1,,1964.8550000953546,response,ISIC_7266462.JPG,,ISIC_5922588.JPG,ISIC_7266462.JPG,false,1,keypress(m),500,175889.40000009537,175888.90000009537,173907.379,173908.40000009537,173924.045,175890.633,8,400,48,,ISIC_5922588.JPG
break,html.Screen,4_47_1,2023-05-01T22:02:44.124Z,,0,,,NaN,,,,,,false,,,,175890.80000019073,175890.60000014305,,175889.70000004768,,175890.633,8,400,,,
break_continue,html.Screen,4_47_2,2023-05-01T22:02:44.125Z,,0,,,NaN,,,,,,false,,,,175891.30000019073,175891.20000004768,,175891,,175890.633,8,400,,,
sequence,flow.Sequence,4_47,2023-05-01T22:02:44.125Z,,0,,,1967.155000047671,completion,,,,,false,,,,175891.5,175891.20000004768,173907.379,173908.30000019073,173924.045,175890.633,8,400,,,
trial,html.Screen,4_48_0,2023-05-01T22:02:46.292Z,,0,1,,2167.767000095366,response,ISIC_0033923.JPG,,ISIC_8764464.JPG,ISIC_0033923.JPG,false,1,keypress(m),500,178058.70000004768,178058.40000009537,175873.967,175891.70000004768,175890.633,178073.879,8,400,49,,ISIC_8764464.JPG
break,html.Screen,4_48_1,2023-05-01T22:02:46.293Z,,0,,,NaN,,,,,,false,,,,178059.80000019073,178059.60000014305,,178058.90000009537,,178073.879,8,400,,,
break_continue,html.Screen,4_48_2,2023-05-01T22:02:46.293Z,,0,,,NaN,,,,,,false,,,,178060,178059.90000009537,,178059.80000019073,,178073.879,8,400,,,
sequence,flow.Sequence,4_48,2023-05-01T22:02:46.293Z,,0,,,2169.267000095366,completion,,,,,false,,,,178060.10000014305,178059.90000009537,175873.967,175891.5,175890.633,178073.879,8,400,,,
trial,html.Screen,4_49_0,2023-05-01T22:02:48.323Z,,0,1,,2015.8210000476975,response,ISIC_6937199.JPG,,ISIC_0011686.JPG,ISIC_6937199.JPG,false,1,keypress(m),500,180090.10000014305,180089.70000004768,178057.213,178060.20000004768,178073.879,180107.131,8,400,50,,ISIC_0011686.JPG
break,html.Screen,4_49_1,2023-05-01T22:02:53.326Z,,0,,,4999.8000000000175,timeout,,,,,false,,,,185092.40000009537,185090.265,180090.465,180090.40000009537,180107.131,185106.931,8,400,,,
break_continue,html.Screen,4_49_2,2023-05-01T22:02:53.432Z,,0,,,79.46900009535602,response,,,,,false,continue,keypress(Space),,185198.30000019073,185186.40000009537,185090.265,185092.60000014305,185106.931,185206.927,8,400,,,
sequence,flow.Sequence,4_49,2023-05-01T22:02:53.432Z,,0,,,7112.521000095381,completion,,,,,false,,,,185198.60000014305,185186.40000009537,178057.213,178060.20000004768,178073.879,185206.927,8,400,,,
trial,html.Screen,4_50_0,2023-05-01T22:02:55.421Z,,0,2,,1980.7730000476877,response,ISIC_0029316.JPG,,ISIC_6571597.JPG,ISIC_0029316.JPG,false,1,keypress(m),500,187188,187187.70000004768,185190.261,185198.70000004768,185206.927,187190.181,8,400,1,,ISIC_6571597.JPG
break,html.Screen,4_50_1,2023-05-01T22:02:55.422Z,,0,,,NaN,,,,,,false,,,,187188.80000019073,187188.70000004768,,187188.20000004768,,187190.181,8,400,,,
break_continue,html.Screen,4_50_2,2023-05-01T22:02:55.422Z,,0,,,NaN,,,,,,false,,,,187189.10000014305,187189.10000014305,,187188.90000009537,,187190.181,8,400,,,
sequence,flow.Sequence,4_50,2023-05-01T22:02:55.422Z,,0,,,1982.173000143055,completion,,,,,false,,,,187189.30000019073,187189.10000014305,185190.261,185198.60000014305,185206.927,187190.181,8,400,,,
trial,html.Screen,4_51_0,2023-05-01T22:02:57.747Z,,0,2,,2323.6190001907235,response,ISIC_0000440.JPG,,ISIC_0056247.JPG,ISIC_0000440.JPG,false,1,keypress(m),500,189514.30000019073,189513.80000019073,187173.515,187189.40000009537,187190.181,189523.421,8,400,2,,ISIC_0056247.JPG
break,html.Screen,4_51_1,2023-05-01T22:02:57.749Z,,0,,,NaN,,,,,,false,,,,189516,189515.70000004768,,189514.60000014305,,189523.421,8,400,,,
break_continue,html.Screen,4_51_2,2023-05-01T22:02:57.749Z,,0,,,NaN,,,,,,false,,,,189516.40000009537,189516.20000004768,,189516.10000014305,,189523.421,8,400,,,
sequence,flow.Sequence,4_51,2023-05-01T22:02:57.750Z,,0,,,2326.0190000476723,completion,,,,,false,,,,189516.60000014305,189516.20000004768,187173.515,187189.40000009537,187190.181,189523.421,8,400,,,
trial,html.Screen,4_52_0,2023-05-01T22:03:00.377Z,,0,2,,2619.9790000953653,response,ISIC_0071300.JPG,,ISIC_0032531.JPG,ISIC_0071300.JPG,false,1,keypress(m),500,192144,192143.40000009537,189506.755,189516.80000019073,189523.421,192174.784,8,400,3,,ISIC_0032531.JPG
break,html.Screen,4_52_1,2023-05-01T22:03:00.378Z,,0,,,NaN,,,,,,false,,,,192145.30000019073,192145.10000014305,,192144.30000019073,,192174.784,8,400,,,
break_continue,html.Screen,4_52_2,2023-05-01T22:03:00.379Z,,0,,,NaN,,,,,,false,,,,192145.70000004768,192145.60000014305,,192145.40000009537,,192174.784,8,400,,,
sequence,flow.Sequence,4_52,2023-05-01T22:03:00.379Z,,0,,,2622.179000143049,completion,,,,,false,,,,192145.80000019073,192145.60000014305,189506.755,189516.80000019073,189523.421,192174.784,8,400,,,
trial,html.Screen,4_53_0,2023-05-01T22:03:02.997Z,,0,2,,2588.5160001907207,response,ISIC_7097931.JPG,,ISIC_0024261.JPG,ISIC_7097931.JPG,false,1,keypress(m),500,194763.80000019073,194763.30000019073,192158.118,192146,192174.784,194774.68,8,400,4,,ISIC_0024261.JPG
break,html.Screen,4_53_1,2023-05-01T22:03:02.998Z,,0,,,NaN,,,,,,false,,,,194765.30000019073,194765.10000014305,,194764.10000014305,,194774.68,8,400,,,
break_continue,html.Screen,4_53_2,2023-05-01T22:03:02.999Z,,0,,,NaN,,,,,,false,,,,194765.90000009537,194765.70000004768,,194765.5,,194774.68,8,400,,,
sequence,flow.Sequence,4_53,2023-05-01T22:03:02.999Z,,0,,,2590.9160000476695,completion,,,,,false,,,,194766.10000014305,194765.70000004768,192158.118,192145.90000009537,192174.784,194774.68,8,400,,,
trial,html.Screen,4_54_0,2023-05-01T22:03:05.197Z,,0,2,,2188.5200000476907,response,ISIC_0024516.JPG,,ISIC_0060716.JPG,ISIC_0024516.JPG,false,1,keypress(m),500,196963.70000004768,196963.20000004768,194758.014,194766.20000004768,194774.68,196974.592,8,400,5,,ISIC_0060716.JPG
break,html.Screen,4_54_1,2023-05-01T22:03:05.198Z,,0,,,NaN,,,,,,false,,,,196965.30000019073,196965,,196964.10000014305,,196974.592,8,400,,,
break_continue,html.Screen,4_54_2,2023-05-01T22:03:05.199Z,,0,,,NaN,,,,,,false,,,,196965.60000014305,196965.5,,196965.40000009537,,196974.592,8,400,,,
sequence,flow.Sequence,4_54,2023-05-01T22:03:05.199Z,,0,,,2190.820000000007,completion,,,,,false,,,,196965.80000019073,196965.5,194758.014,194766.20000004768,194774.68,196974.592,8,400,,,
trial,html.Screen,4_55_0,2023-05-01T22:03:07.532Z,,0,2,,2324.2080001907307,response,ISIC_4170698.JPG,,ISIC_6427157.JPG,ISIC_4170698.JPG,false,1,keypress(m),500,199299.20000004768,199298.80000019073,196957.926,196965.90000009537,196974.592,199307.832,8,400,6,,ISIC_6427157.JPG
break,html.Screen,4_55_1,2023-05-01T22:03:07.534Z,,0,,,NaN,,,,,,false,,,,199300.90000009537,199300.5,,199299.60000014305,,199307.832,8,400,,,
break_continue,html.Screen,4_55_2,2023-05-01T22:03:07.534Z,,0,,,NaN,,,,,,false,,,,199301.30000019073,199301.20000004768,,199301,,199307.832,8,400,,,
sequence,flow.Sequence,4_55,2023-05-01T22:03:07.534Z,,0,,,2326.6080000476795,completion,,,,,false,,,,199301.5,199301.20000004768,196957.926,196965.90000009537,196974.592,199307.832,8,400,,,
trial,html.Screen,4_56_0,2023-05-01T22:03:09.515Z,,0,2,,1973.8680000476888,response,ISIC_0033841.JPG,,ISIC_8363485.JPG,ISIC_0033841.JPG,false,1,keypress(m),500,201282.20000004768,201281.70000004768,199291.166,199301.60000014305,199307.832,201291.086,8,400,7,,ISIC_8363485.JPG
break,html.Screen,4_56_1,2023-05-01T22:03:09.517Z,,0,,,NaN,,,,,,false,,,,201283.70000004768,201283.40000009537,,201282.5,,201291.086,8,400,,,
break_continue,html.Screen,4_56_2,2023-05-01T22:03:09.517Z,,0,,,NaN,,,,,,false,,,,201284.10000014305,201283.90000009537,,201283.80000019073,,201291.086,8,400,,,
sequence,flow.Sequence,4_56,2023-05-01T22:03:09.517Z,,0,,,1976.0680000953726,completion,,,,,false,,,,201284.30000019073,201283.90000009537,199291.166,199301.5,199307.832,201291.086,8,400,,,
trial,html.Screen,4_57_0,2023-05-01T22:03:11.612Z,,0,2,,2087.2140001907246,response,ISIC_5065245.JPG,,ISIC_7030404.JPG,ISIC_5065245.JPG,false,1,keypress(m),500,203378.80000019073,203378.30000019073,201274.42,201284.40000009537,201291.086,203391.744,8,400,8,,ISIC_7030404.JPG
break,html.Screen,4_57_1,2023-05-01T22:03:11.613Z,,0,,,NaN,,,,,,false,,,,203380.20000004768,203380,,203379,,203391.744,8,400,,,
break_continue,html.Screen,4_57_2,2023-05-01T22:03:11.613Z,,0,,,NaN,,,,,,false,,,,203380.60000014305,203380.5,,203380.30000019073,,203391.744,8,400,,,
sequence,flow.Sequence,4_57,2023-05-01T22:03:11.614Z,,0,,,2089.4139999999898,completion,,,,,false,,,,203380.90000009537,203380.5,201274.42,201284.40000009537,201291.086,203391.744,8,400,,,
trial,html.Screen,4_58_0,2023-05-01T22:03:13.612Z,,0,2,,1986.4560000476777,response,ISIC_8350973.JPG,,ISIC_0000213.JPG,ISIC_8350973.JPG,false,1,keypress(m),500,205378.80000019073,205378.20000004768,203375.078,203381,203391.744,205391.664,8,400,9,,ISIC_0000213.JPG
break,html.Screen,4_58_1,2023-05-01T22:03:13.613Z,,0,,,NaN,,,,,,false,,,,205380.40000009537,205380.10000014305,,205379.10000014305,,205391.664,8,400,,,
break_continue,html.Screen,4_58_2,2023-05-01T22:03:13.614Z,,0,,,NaN,,,,,,false,,,,205380.90000009537,205380.70000004768,,205380.5,,205391.664,8,400,,,
sequence,flow.Sequence,4_58,2023-05-01T22:03:13.614Z,,0,,,1988.9560000476777,completion,,,,,false,,,,205381.10000014305,205380.70000004768,203375.078,203381,203391.744,205391.664,8,400,,,
trial,html.Screen,4_59_0,2023-05-01T22:03:15.683Z,,0,2,,2058.036000047694,response,ISIC_8479913.JPG,,ISIC_6620748.JPG,ISIC_8479913.JPG,false,1,keypress(m),500,207450.30000019073,207449.70000004768,205374.998,205381.20000004768,205391.664,207458.248,8,400,10,,ISIC_6620748.JPG
break,html.Screen,4_59_1,2023-05-01T22:03:15.685Z,,0,,,NaN,,,,,,false,,,,207451.80000019073,207451.5,,207450.60000014305,,207458.248,8,400,,,
break_continue,html.Screen,4_59_2,2023-05-01T22:03:15.685Z,,0,,,NaN,,,,,,false,,,,207452.20000004768,207452.20000004768,,207452,,207458.248,8,400,,,
sequence,flow.Sequence,4_59,2023-05-01T22:03:15.685Z,,0,,,2060.536000047694,completion,,,,,false,,,,207452.40000009537,207452.20000004768,205374.998,205381.20000004768,205391.664,207458.248,8,400,,,
trial,html.Screen,4_60_0,2023-05-01T22:03:17.709Z,,0,2,,2017.3520001430588,response,ISIC_0032072.JPG,,ISIC_0010834.JPG,ISIC_0032072.JPG,false,1,keypress(m),500,209476,209475.60000014305,207441.582,207452.60000014305,207458.248,209491.5,8,400,11,,ISIC_0010834.JPG
break,html.Screen,4_60_1,2023-05-01T22:03:17.710Z,,0,,,NaN,,,,,,false,,,,209477.30000019073,209477.20000004768,,209476.40000009537,,209491.5,8,400,,,
break_continue,html.Screen,4_60_2,2023-05-01T22:03:17.710Z,,0,,,NaN,,,,,,false,,,,209477.70000004768,209477.5,,209477.40000009537,,209491.5,8,400,,,
sequence,flow.Sequence,4_60,2023-05-01T22:03:17.711Z,,0,,,2019.2520000000077,completion,,,,,false,,,,209478,209477.5,207441.582,207452.5,207458.248,209491.5,8,400,,,
trial,html.Screen,4_61_0,2023-05-01T22:03:19.818Z,,0,2,,2093.800000190735,response,ISIC_0200153.JPG,,ISIC_0028582.JPG,ISIC_0200153.JPG,false,1,keypress(m),500,211585.70000004768,211585.30000019073,209474.834,209478.20000004768,209491.5,211608.082,8,400,12,,ISIC_0028582.JPG
break,html.Screen,4_61_1,2023-05-01T22:03:19.820Z,,0,,,NaN,,,,,,false,,,,211587.10000014305,211586.80000019073,,211586,,211608.082,8,400,,,
break_continue,html.Screen,4_61_2,2023-05-01T22:03:19.820Z,,0,,,NaN,,,,,,false,,,,211587.5,211587.40000009537,,211587.20000004768,,211608.082,8,400,,,
sequence,flow.Sequence,4_61,2023-05-01T22:03:19.820Z,,0,,,2095.9000000953674,completion,,,,,false,,,,211587.70000004768,211587.40000009537,209474.834,209478.10000014305,209491.5,211608.082,8,400,,,
trial,html.Screen,4_62_0,2023-05-01T22:03:21.859Z,,0,2,,2018.1180000476888,response,ISIC_9159730.JPG,,ISIC_6552552.JPG,ISIC_9159730.JPG,false,1,keypress(m),500,213626.70000004768,213626.20000004768,211591.416,211587.90000009537,211608.082,213642.08,8,400,13,,ISIC_6552552.JPG
break,html.Screen,4_62_1,2023-05-01T22:03:21.861Z,,0,,,NaN,,,,,,false,,,,213628.30000019073,213628,,213627,,213642.08,8,400,,,
break_continue,html.Screen,4_62_2,2023-05-01T22:03:21.861Z,,0,,,NaN,,,,,,false,,,,213628.70000004768,213628.60000014305,,213628.30000019073,,213642.08,8,400,,,
sequence,flow.Sequence,4_62,2023-05-01T22:03:21.862Z,,0,,,2020.5180001430563,completion,,,,,false,,,,213628.90000009537,213628.60000014305,211591.416,211587.80000019073,211608.082,213642.08,8,400,,,
trial,html.Screen,4_63_0,2023-05-01T22:03:23.981Z,,0,2,,2105.6200000476965,response,ISIC_0310134.JPG,,ISIC_0000377.JPG,ISIC_0310134.JPG,false,1,keypress(m),500,215748.20000004768,215747.70000004768,213625.414,213629.10000014305,213642.08,215775.328,8,400,14,,ISIC_0000377.JPG
break,html.Screen,4_63_1,2023-05-01T22:03:23.982Z,,0,,,NaN,,,,,,false,,,,215749.30000019073,215749.20000004768,,215748.40000009537,,215775.328,8,400,,,
break_continue,html.Screen,4_63_2,2023-05-01T22:03:23.982Z,,0,,,NaN,,,,,,false,,,,215749.60000014305,215749.5,,215749.40000009537,,215775.328,8,400,,,
sequence,flow.Sequence,4_63,2023-05-01T22:03:23.982Z,,0,,,2107.420000000013,completion,,,,,false,,,,215749.70000004768,215749.5,213625.414,213629,213642.08,215775.328,8,400,,,
trial,html.Screen,4_64_0,2023-05-01T22:03:27.731Z,,0,2,,3722.4720001907262,response,ISIC_0057539.JPG,,ISIC_3598244.JPG,ISIC_0057539.JPG,false,1,keypress(m),500,219498.20000004768,219497.80000019073,215758.662,215749.80000019073,215775.328,219508.512,8,400,15,,ISIC_3598244.JPG
break,html.Screen,4_64_1,2023-05-01T22:03:27.732Z,,0,,,NaN,,,,,,false,,,,219499.60000014305,219499.40000009537,,219498.5,,219508.512,8,400,,,
break_continue,html.Screen,4_64_2,2023-05-01T22:03:27.733Z,,0,,,NaN,,,,,,false,,,,219499.90000009537,219499.80000019073,,219499.60000014305,,219508.512,8,400,,,
sequence,flow.Sequence,4_64,2023-05-01T22:03:27.733Z,,0,,,3724.4720001907262,completion,,,,,false,,,,219500.10000014305,219499.80000019073,215758.662,215749.70000004768,215775.328,219508.512,8,400,,,
trial,html.Screen,4_65_0,2023-05-01T22:03:29.795Z,,0,2,,2053.288000190747,response,ISIC_0028878.JPG,,ISIC_0055701.JPG,ISIC_0028878.JPG,false,1,keypress(m),500,221562.40000009537,221561.80000019073,219491.846,219500.20000004768,219508.512,221575.096,8,400,16,,ISIC_0055701.JPG
break,html.Screen,4_65_1,2023-05-01T22:03:29.796Z,,0,,,NaN,,,,,,false,,,,221563.80000019073,221563.5,,221562.5,,221575.096,8,400,,,
break_continue,html.Screen,4_65_2,2023-05-01T22:03:29.797Z,,0,,,NaN,,,,,,false,,,,221564.10000014305,221564,,221563.90000009537,,221575.096,8,400,,,
sequence,flow.Sequence,4_65,2023-05-01T22:03:29.797Z,,0,,,2055.488000000012,completion,,,,,false,,,,221564.30000019073,221564,219491.846,219500.20000004768,219508.512,221575.096,8,400,,,
trial,html.Screen,4_66_0,2023-05-01T22:03:31.933Z,,0,2,,2124.6040000476933,response,ISIC_0055054.JPG,,ISIC_0055314.JPG,ISIC_0055054.JPG,false,1,keypress(m),500,223700.30000019073,223699.70000004768,221558.43,221564.40000009537,221575.096,223709.134,8,400,17,,ISIC_0055314.JPG
break,html.Screen,4_66_1,2023-05-01T22:03:31.934Z,,0,,,NaN,,,,,,false,,,,223701.80000019073,223701.60000014305,,223700.60000014305,,223709.134,8,400,,,
break_continue,html.Screen,4_66_2,2023-05-01T22:03:31.935Z,,0,,,NaN,,,,,,false,,,,223702.30000019073,223702.20000004768,,223702,,223709.134,8,400,,,
sequence,flow.Sequence,4_66,2023-05-01T22:03:31.935Z,,0,,,2127.1040000476933,completion,,,,,false,,,,223702.5,223702.20000004768,221558.43,221564.30000019073,221575.096,223709.134,8,400,,,
trial,html.Screen,4_67_0,2023-05-01T22:03:34.004Z,,0,2,,2062.066000047693,response,ISIC_0031680.JPG,,ISIC_2095347.JPG,ISIC_0031680.JPG,false,1,keypress(m),500,225771.70000004768,225771.20000004768,223692.468,223702.60000014305,223709.134,225775.718,8,400,18,,ISIC_2095347.JPG
break,html.Screen,4_67_1,2023-05-01T22:03:34.006Z,,0,,,NaN,,,,,,false,,,,225773.20000004768,225773,,225772,,225775.718,8,400,,,
break_continue,html.Screen,4_67_2,2023-05-01T22:03:34.006Z,,0,,,NaN,,,,,,false,,,,225773.5,225773.5,,225773.30000019073,,225775.718,8,400,,,
sequence,flow.Sequence,4_67,2023-05-01T22:03:34.006Z,,0,,,2064.366000000009,completion,,,,,false,,,,225773.70000004768,225773.5,223692.468,223702.60000014305,223709.134,225775.718,8,400,,,
trial,html.Screen,4_68_0,2023-05-01T22:03:36.018Z,,0,2,,2009.4820000476902,response,ISIC_9337870.JPG,,ISIC_0066626.JPG,ISIC_9337870.JPG,false,1,keypress(m),500,227785.60000014305,227785.20000004768,225759.052,225773.90000009537,225775.718,227808.97,8,400,19,,ISIC_0066626.JPG
break,html.Screen,4_68_1,2023-05-01T22:03:36.019Z,,0,,,NaN,,,,,,false,,,,227787,227786.60000014305,,227785.90000009537,,227808.97,8,400,,,
break_continue,html.Screen,4_68_2,2023-05-01T22:03:36.020Z,,0,,,NaN,,,,,,false,,,,227787.40000009537,227787.30000019073,,227787.10000014305,,227808.97,8,400,,,
sequence,flow.Sequence,4_68,2023-05-01T22:03:36.020Z,,0,,,2011.5820001907414,completion,,,,,false,,,,227787.5,227787.30000019073,225759.052,225773.80000019073,225775.718,227808.97,8,400,,,
trial,html.Screen,4_69_0,2023-05-01T22:03:38.051Z,,0,2,,2008.7300000476826,response,ISIC_0010081.JPG,,ISIC_0053916.JPG,ISIC_0010081.JPG,false,1,keypress(m),500,229818.20000004768,229817.70000004768,227792.304,227787.60000014305,227808.97,229825.556,8,400,20,,ISIC_0053916.JPG
break,html.Screen,4_69_1,2023-05-01T22:03:38.052Z,,0,,,NaN,,,,,,false,,,,229819.30000019073,229819.10000014305,,229818.40000009537,,229825.556,8,400,,,
break_continue,html.Screen,4_69_2,2023-05-01T22:03:38.052Z,,0,,,NaN,,,,,,false,,,,229819.5,229819.40000009537,,229819.40000009537,,229825.556,8,400,,,
sequence,flow.Sequence,4_69,2023-05-01T22:03:38.052Z,,0,,,2010.4300000953663,completion,,,,,false,,,,229819.60000014305,229819.40000009537,227792.304,227787.60000014305,227808.97,229825.556,8,400,,,
trial,html.Screen,4_70_0,2023-05-01T22:03:40.060Z,,0,2,,2001.344000095356,response,ISIC_0046315.JPG,,ISIC_2621288.JPG,ISIC_0046315.JPG,false,1,keypress(m),500,231827.40000009537,231826.90000009537,229808.89,229819.70000004768,229825.556,231842.142,8,400,21,,ISIC_2621288.JPG
break,html.Screen,4_70_1,2023-05-01T22:03:40.061Z,,0,,,NaN,,,,,,false,,,,231828.90000009537,231828.70000004768,,231827.70000004768,,231842.142,8,400,,,
break_continue,html.Screen,4_70_2,2023-05-01T22:03:40.062Z,,0,,,NaN,,,,,,false,,,,231829.30000019073,231829.30000019073,,231829.10000014305,,231842.142,8,400,,,
sequence,flow.Sequence,4_70,2023-05-01T22:03:40.062Z,,0,,,2003.7440001907235,completion,,,,,false,,,,231829.5,231829.30000019073,229808.89,229819.70000004768,229825.556,231842.142,8,400,,,
trial,html.Screen,4_71_0,2023-05-01T22:03:42.506Z,,0,2,,2431.6580001907423,response,ISIC_0010671.JPG,,ISIC_0003438.JPG,ISIC_0010671.JPG,false,1,keypress(m),500,234274,234273.80000019073,231825.476,231829.60000014305,231842.142,234292.785,8,400,22,,ISIC_0003438.JPG
break,html.Screen,4_71_1,2023-05-01T22:03:42.507Z,,0,,,NaN,,,,,,false,,,,234274.60000014305,234274.60000014305,,234274.20000004768,,234292.785,8,400,,,
break_continue,html.Screen,4_71_2,2023-05-01T22:03:42.507Z,,0,,,NaN,,,,,,false,,,,234274.90000009537,234274.80000019073,,234274.80000019073,,234292.785,8,400,,,
sequence,flow.Sequence,4_71,2023-05-01T22:03:42.507Z,,0,,,2432.6580001907423,completion,,,,,false,,,,234274.90000009537,234274.80000019073,231825.476,231829.60000014305,231842.142,234292.785,8,400,,,
trial,html.Screen,4_72_0,2023-05-01T22:03:44.484Z,,0,2,,1958.3150001430477,response,ISIC_6759173.JPG,,ISIC_0064877.JPG,ISIC_6759173.JPG,false,1,keypress(m),500,236251.5,236251.10000014305,234276.119,234274.90000009537,234292.785,236259.373,8,400,23,,ISIC_0064877.JPG
break,html.Screen,4_72_1,2023-05-01T22:03:44.485Z,,0,,,NaN,,,,,,false,,,,236253.20000004768,236252.90000009537,,236251.90000009537,,236259.373,8,400,,,
break_continue,html.Screen,4_72_2,2023-05-01T22:03:44.486Z,,0,,,NaN,,,,,,false,,,,236253.5,236253.40000009537,,236253.30000019073,,236259.373,8,400,,,
sequence,flow.Sequence,4_72,2023-05-01T22:03:44.486Z,,0,,,1960.615000095364,completion,,,,,false,,,,236253.70000004768,236253.40000009537,234276.119,234274.90000009537,234292.785,236259.373,8,400,,,
trial,html.Screen,4_73_0,2023-05-01T22:03:46.652Z,,0,2,,2159.8270000476914,response,ISIC_5934239.JPG,,ISIC_0072569.JPG,ISIC_5934239.JPG,false,1,keypress(m),500,238419.70000004768,238419.20000004768,236242.707,236253.80000019073,236259.373,238425.953,8,400,24,,ISIC_0072569.JPG
break,html.Screen,4_73_1,2023-05-01T22:03:46.654Z,,0,,,NaN,,,,,,false,,,,238421.30000019073,238420.90000009537,,238420,,238425.953,8,400,,,
break_continue,html.Screen,4_73_2,2023-05-01T22:03:46.654Z,,0,,,NaN,,,,,,false,,,,238421.80000019073,238421.60000014305,,238421.40000009537,,238425.953,8,400,,,
sequence,flow.Sequence,4_73,2023-05-01T22:03:46.654Z,,0,,,2162.227000143059,completion,,,,,false,,,,238421.90000009537,238421.60000014305,236242.707,236253.80000019073,236259.373,238425.953,8,400,,,
trial,html.Screen,4_74_0,2023-05-01T22:03:48.626Z,,0,2,,1967.747000047675,response,ISIC_5747486.JPG,,ISIC_1578253.JPG,ISIC_5747486.JPG,false,1,keypress(m),500,240394.10000014305,240393.70000004768,238409.287,238422.10000014305,238425.953,240409.207,8,400,25,,ISIC_1578253.JPG
break,html.Screen,4_74_1,2023-05-01T22:03:48.628Z,,0,,,NaN,,,,,,false,,,,240395.5,240395.30000019073,,240394.40000009537,,240409.207,8,400,,,
break_continue,html.Screen,4_74_2,2023-05-01T22:03:48.628Z,,0,,,NaN,,,,,,false,,,,240395.80000019073,240395.70000004768,,240395.60000014305,,240409.207,8,400,,,
sequence,flow.Sequence,4_74,2023-05-01T22:03:48.628Z,,0,,,1969.747000047675,completion,,,,,false,,,,240395.90000009537,240395.70000004768,238409.287,238422,238425.953,240409.207,8,400,,,
trial,html.Screen,4_75_0,2023-05-01T22:03:50.930Z,,0,2,,2288.493000047689,response,ISIC_7138875.JPG,,ISIC_0014501.JPG,ISIC_7138875.JPG,false,1,keypress(m),500,242697.90000009537,242697.70000004768,240392.541,240396.10000014305,240409.207,242709.115,8,400,26,,ISIC_0014501.JPG
break,html.Screen,4_75_1,2023-05-01T22:03:50.931Z,,0,,,NaN,,,,,,false,,,,242698.70000004768,242698.60000014305,,242698.20000004768,,242709.115,8,400,,,
break_continue,html.Screen,4_75_2,2023-05-01T22:03:50.931Z,,0,,,NaN,,,,,,false,,,,242699,242698.90000009537,,242698.90000009537,,242709.115,8,400,,,
sequence,flow.Sequence,4_75,2023-05-01T22:03:50.931Z,,0,,,2289.6930000953726,completion,,,,,false,,,,242699.10000014305,242698.90000009537,240392.541,240396.10000014305,240409.207,242709.115,8,400,,,
trial,html.Screen,4_76_0,2023-05-01T22:03:53.692Z,,0,2,,2750.685000190744,response,ISIC_0025153.JPG,,ISIC_0953675.JPG,ISIC_0025153.JPG,false,1,keypress(m),500,245460.30000019073,245459.80000019073,242692.449,242699.20000004768,242709.115,245476.456,8,400,27,,ISIC_0953675.JPG
break,html.Screen,4_76_1,2023-05-01T22:03:53.694Z,,0,,,NaN,,,,,,false,,,,245461.80000019073,245461.60000014305,,245460.60000014305,,245476.456,8,400,,,
break_continue,html.Screen,4_76_2,2023-05-01T22:03:53.694Z,,0,,,NaN,,,,,,false,,,,245462.30000019073,245462.10000014305,,245461.90000009537,,245476.456,8,400,,,
sequence,flow.Sequence,4_76,2023-05-01T22:03:53.695Z,,0,,,2752.9850001430605,completion,,,,,false,,,,245462.5,245462.10000014305,242692.449,242699.20000004768,242709.115,245476.456,8,400,,,
trial,html.Screen,4_77_0,2023-05-01T22:03:56.130Z,,0,2,,2421.3440001907293,response,ISIC_8021960.JPG,,ISIC_0065883.JPG,ISIC_8021960.JPG,false,1,keypress(m),500,247898.30000019073,247897.80000019073,245459.79,245462.70000004768,245476.456,247909.692,8,400,28,,ISIC_0065883.JPG
break,html.Screen,4_77_1,2023-05-01T22:03:56.132Z,,0,,,NaN,,,,,,false,,,,247900,247899.60000014305,,247898.70000004768,,247909.692,8,400,,,
break_continue,html.Screen,4_77_2,2023-05-01T22:03:56.133Z,,0,,,NaN,,,,,,false,,,,247900.40000009537,247900.30000019073,,247900.10000014305,,247909.692,8,400,,,
sequence,flow.Sequence,4_77,2023-05-01T22:03:56.133Z,,0,,,2423.8440001907293,completion,,,,,false,,,,247900.60000014305,247900.30000019073,245459.79,245462.60000014305,245476.456,247909.692,8,400,,,
trial,html.Screen,4_78_0,2023-05-01T22:03:58.348Z,,0,2,,2205.30799999999,response,ISIC_0071951.JPG,,ISIC_0054167.JPG,ISIC_0071951.JPG,false,1,keypress(m),500,250115.5,250115,247893.026,247900.70000004768,247909.692,250126.27,8,400,29,,ISIC_0054167.JPG
break,html.Screen,4_78_1,2023-05-01T22:03:58.349Z,,0,,,NaN,,,,,,false,,,,250117,250116.80000019073,,250115.90000009537,,250126.27,8,400,,,
break_continue,html.Screen,4_78_2,2023-05-01T22:03:58.350Z,,0,,,NaN,,,,,,false,,,,250117.5,250117.40000009537,,250117.30000019073,,250126.27,8,400,,,
sequence,flow.Sequence,4_78,2023-05-01T22:03:58.350Z,,0,,,2207.7080000953574,completion,,,,,false,,,,250117.70000004768,250117.40000009537,247893.026,247900.70000004768,247909.692,250126.27,8,400,,,
trial,html.Screen,4_79_0,2023-05-01T22:04:00.450Z,,0,2,,2091.430000047694,response,ISIC_0022328.JPG,,ISIC_0060773.JPG,ISIC_0022328.JPG,false,1,keypress(m),500,252218.20000004768,252217.70000004768,250109.604,250117.90000009537,250126.27,252226.186,8,400,30,,ISIC_0060773.JPG
break,html.Screen,4_79_1,2023-05-01T22:04:00.451Z,,0,,,NaN,,,,,,false,,,,252219.40000009537,252219.30000019073,,252218.40000009537,,252226.186,8,400,,,
break_continue,html.Screen,4_79_2,2023-05-01T22:04:00.452Z,,0,,,NaN,,,,,,false,,,,252219.70000004768,252219.60000014305,,252219.5,,252226.186,8,400,,,
sequence,flow.Sequence,4_79,2023-05-01T22:04:00.452Z,,0,,,2093.3300001430616,completion,,,,,false,,,,252219.80000019073,252219.60000014305,250109.604,250117.90000009537,250126.27,252226.186,8,400,,,
trial,html.Screen,4_80_0,2023-05-01T22:04:02.492Z,,0,2,,2033.7140000953805,response,ISIC_9751601.JPG,,ISIC_7797853.JPG,ISIC_9751601.JPG,false,1,keypress(m),500,254260.40000009537,254259.90000009537,252209.52,252220,252226.186,254276.104,8,400,31,,ISIC_7797853.JPG
break,html.Screen,4_80_1,2023-05-01T22:04:02.494Z,,0,,,NaN,,,,,,false,,,,254262.30000019073,254262,,254260.70000004768,,254276.104,8,400,,,
break_continue,html.Screen,4_80_2,2023-05-01T22:04:02.495Z,,0,,,NaN,,,,,,false,,,,254262.70000004768,254262.60000014305,,254262.5,,254276.104,8,400,,,
sequence,flow.Sequence,4_80,2023-05-01T22:04:02.495Z,,0,,,2036.4140001430642,completion,,,,,false,,,,254262.80000019073,254262.60000014305,252209.52,252219.90000009537,252226.186,254276.104,8,400,,,
trial,html.Screen,4_81_0,2023-05-01T22:04:04.570Z,,0,2,,2061.696000190743,response,ISIC_0057192.JPG,,ISIC_0271408.JPG,ISIC_0057192.JPG,false,1,keypress(m),500,256338.10000014305,256337.80000019073,254259.438,254262.90000009537,254276.104,256342.688,8,400,32,,ISIC_0271408.JPG
break,html.Screen,4_81_1,2023-05-01T22:04:04.571Z,,0,,,NaN,,,,,,false,,,,256338.90000009537,256338.70000004768,,256338.30000019073,,256342.688,8,400,,,
break_continue,html.Screen,4_81_2,2023-05-01T22:04:04.571Z,,0,,,NaN,,,,,,false,,,,256339.20000004768,256339.10000014305,,256339,,256342.688,8,400,,,
sequence,flow.Sequence,4_81,2023-05-01T22:04:04.571Z,,0,,,2062.996000143059,completion,,,,,false,,,,256339.30000019073,256339.10000014305,254259.438,254262.90000009537,254276.104,256342.688,8,400,,,
trial,html.Screen,4_82_0,2023-05-01T22:04:06.617Z,,0,2,,2042.012000047689,response,ISIC_0014183.JPG,,ISIC_4116770.JPG,ISIC_0014183.JPG,false,1,keypress(m),500,258385.20000004768,258384.70000004768,256326.022,256339.40000009537,256342.688,258392.606,8,400,33,,ISIC_4116770.JPG
break,html.Screen,4_82_1,2023-05-01T22:04:06.618Z,,0,,,NaN,,,,,,false,,,,258386.40000009537,258386.20000004768,,258385.40000009537,,258392.606,8,400,,,
break_continue,html.Screen,4_82_2,2023-05-01T22:04:06.619Z,,0,,,NaN,,,,,,false,,,,258386.80000019073,258386.60000014305,,258386.5,,258392.606,8,400,,,
sequence,flow.Sequence,4_82,2023-05-01T22:04:06.619Z,,0,,,2043.9120001430565,completion,,,,,false,,,,258386.90000009537,258386.60000014305,256326.022,256339.30000019073,256342.688,258392.606,8,400,,,
trial,html.Screen,4_83_0,2023-05-01T22:04:16.243Z,,0,2,,9618.694000190735,response,ISIC_3771332.JPG,,ISIC_0065740.JPG,ISIC_3771332.JPG,false,1,keypress(m),500,268011.7000000477,268011.30000019073,258375.94,258387.10000014305,258392.606,268027.26,8,400,34,,ISIC_0065740.JPG
break,html.Screen,4_83_1,2023-05-01T22:04:16.245Z,,0,,,NaN,,,,,,false,,,,268013.30000019073,268013,,268012.10000014305,,268027.26,8,400,,,
break_continue,html.Screen,4_83_2,2023-05-01T22:04:16.246Z,,0,,,NaN,,,,,,false,,,,268013.80000019073,268013.7000000477,,268013.40000009537,,268027.26,8,400,,,
sequence,flow.Sequence,4_83,2023-05-01T22:04:16.246Z,,0,,,9621.094000047684,completion,,,,,false,,,,268014,268013.7000000477,258375.94,258387.10000014305,258392.606,268027.26,8,400,,,
trial,html.Screen,4_84_0,2023-05-01T22:04:18.610Z,,0,2,,2350.840000143042,response,ISIC_6377613.JPG,,ISIC_0030829.JPG,ISIC_6377613.JPG,false,1,keypress(m),500,270378.5,270378.10000014305,268010.594,268014.10000014305,268027.26,270393.832,8,400,35,,ISIC_0030829.JPG
break,html.Screen,4_84_1,2023-05-01T22:04:18.612Z,,0,,,NaN,,,,,,false,,,,270380.10000014305,270379.80000019073,,270378.80000019073,,270393.832,8,400,,,
break_continue,html.Screen,4_84_2,2023-05-01T22:04:18.612Z,,0,,,NaN,,,,,,false,,,,270380.5,270380.40000009537,,270380.2000000477,,270393.832,8,400,,,
sequence,flow.Sequence,4_84,2023-05-01T22:04:18.612Z,,0,,,2353.140000095358,completion,,,,,false,,,,270380.80000019073,270380.40000009537,268010.594,268014.10000014305,268027.26,270393.832,8,400,,,
trial,html.Screen,4_85_0,2023-05-01T22:04:20.779Z,,0,2,,2152.96800019074,response,ISIC_2192973.JPG,,ISIC_4451735.JPG,ISIC_2192973.JPG,false,1,keypress(m),500,272547.30000019073,272546.80000019073,270377.166,270380.90000009537,270393.832,272560.412,8,400,36,,ISIC_4451735.JPG
break,html.Screen,4_85_1,2023-05-01T22:04:20.780Z,,0,,,NaN,,,,,,false,,,,272548.5,272548.30000019073,,272547.5,,272560.412,8,400,,,
break_continue,html.Screen,4_85_2,2023-05-01T22:04:20.780Z,,0,,,NaN,,,,,,false,,,,272548.80000019073,272548.7000000477,,272548.60000014305,,272560.412,8,400,,,
sequence,flow.Sequence,4_85,2023-05-01T22:04:20.781Z,,0,,,2154.868000047689,completion,,,,,false,,,,272549,272548.7000000477,270377.166,270380.80000019073,270393.832,272560.412,8,400,,,
trial,html.Screen,4_86_0,2023-05-01T22:04:22.930Z,,0,2,,2137.2880000476725,response,ISIC_0033392.JPG,,ISIC_9943579.JPG,ISIC_0033392.JPG,false,1,keypress(m),500,274698.2000000477,274697.7000000477,272543.746,272549,272560.412,274710.326,8,400,37,,ISIC_9943579.JPG
break,html.Screen,4_86_1,2023-05-01T22:04:22.931Z,,0,,,NaN,,,,,,false,,,,274699.7000000477,274699.5,,274698.60000014305,,274710.326,8,400,,,
break_continue,html.Screen,4_86_2,2023-05-01T22:04:22.932Z,,0,,,NaN,,,,,,false,,,,274700.2000000477,274700.2000000477,,274699.90000009537,,274710.326,8,400,,,
sequence,flow.Sequence,4_86,2023-05-01T22:04:22.932Z,,0,,,2139.7880000476725,completion,,,,,false,,,,274700.40000009537,274700.2000000477,272543.746,272549,272560.412,274710.326,8,400,,,
trial,html.Screen,4_87_0,2023-05-01T22:04:24.908Z,,0,2,,1965.3740000476828,response,ISIC_8224270.JPG,,ISIC_0015156.JPG,ISIC_8224270.JPG,false,1,keypress(m),500,276676,276675.7000000477,274693.66,274700.60000014305,274710.326,276676.914,8,400,38,,ISIC_0015156.JPG
break,html.Screen,4_87_1,2023-05-01T22:04:24.908Z,,0,,,NaN,,,,,,false,,,,276676.80000019073,276676.7000000477,,276676.2000000477,,276676.914,8,400,,,
break_continue,html.Screen,4_87_2,2023-05-01T22:04:24.909Z,,0,,,NaN,,,,,,false,,,,276677.2000000477,276677.10000014305,,276677,,276676.914,8,400,,,
sequence,flow.Sequence,4_87,2023-05-01T22:04:24.909Z,,0,,,1966.7740001430502,completion,,,,,false,,,,276677.2000000477,276677.10000014305,274693.66,274700.5,274710.326,276676.914,8,400,,,
trial,html.Screen,4_88_0,2023-05-01T22:04:26.970Z,,0,2,,2060.6860001430614,response,ISIC_9227392.JPG,,ISIC_0071338.JPG,ISIC_9227392.JPG,false,1,keypress(m),500,278738.10000014305,278737.60000014305,276660.248,276677.30000019073,276676.914,278744.247,8,400,39,,ISIC_0071338.JPG
break,html.Screen,4_88_1,2023-05-01T22:04:26.971Z,,0,,,NaN,,,,,,false,,,,278739.10000014305,278738.90000009537,,278738.30000019073,,278744.247,8,400,,,
break_continue,html.Screen,4_88_2,2023-05-01T22:04:26.971Z,,0,,,NaN,,,,,,false,,,,278739.5,278739.5,,278739.30000019073,,278744.247,8,400,,,
sequence,flow.Sequence,4_88,2023-05-01T22:04:26.971Z,,0,,,2062.5860000000102,completion,,,,,false,,,,278739.60000014305,278739.5,276660.248,276677.30000019073,276676.914,278744.247,8,400,,,
trial,html.Screen,4_89_0,2023-05-01T22:04:29.114Z,,0,2,,2138.053000190761,response,ISIC_1113265.JPG,,ISIC_9572152.JPG,ISIC_1113265.JPG,false,1,keypress(m),500,280882.80000019073,280882.30000019073,278727.581,278739.7000000477,278744.247,280894.161,8,400,40,,ISIC_9572152.JPG
break,html.Screen,4_89_1,2023-05-01T22:04:29.116Z,,0,,,NaN,,,,,,false,,,,280884.10000014305,280883.80000019073,,280883,,280894.161,8,400,,,
break_continue,html.Screen,4_89_2,2023-05-01T22:04:29.116Z,,0,,,NaN,,,,,,false,,,,280884.40000009537,280884.40000009537,,280884.2000000477,,280894.161,8,400,,,
sequence,flow.Sequence,4_89,2023-05-01T22:04:29.116Z,,0,,,2140.1530000953935,completion,,,,,false,,,,280884.60000014305,280884.40000009537,278727.581,278739.7000000477,278744.247,280894.161,8,400,,,
trial,html.Screen,4_90_0,2023-05-01T22:04:31.091Z,,0,2,,1965.0390000476618,response,ISIC_9596721.JPG,,ISIC_0033386.JPG,ISIC_9596721.JPG,false,1,keypress(m),500,282859.7000000477,282859.2000000477,280877.495,280884.7000000477,280894.161,282877.415,8,400,41,,ISIC_0033386.JPG
break,html.Screen,4_90_1,2023-05-01T22:04:31.093Z,,0,,,NaN,,,,,,false,,,,282861.30000019073,282861.10000014305,,282860.10000014305,,282877.415,8,400,,,
break_continue,html.Screen,4_90_2,2023-05-01T22:04:31.093Z,,0,,,NaN,,,,,,false,,,,282861.80000019073,282861.7000000477,,282861.5,,282877.415,8,400,,,
sequence,flow.Sequence,4_90,2023-05-01T22:04:31.094Z,,0,,,1967.5390000476618,completion,,,,,false,,,,282862,282861.7000000477,280877.495,280884.60000014305,280894.161,282877.415,8,400,,,
trial,html.Screen,4_91_0,2023-05-01T22:04:33.100Z,,0,2,,1990.2850000477047,response,ISIC_0011729.JPG,,ISIC_4269227.JPG,ISIC_0011729.JPG,false,1,keypress(m),500,284868.40000009537,284867.7000000477,282860.749,282862.2000000477,282877.415,284877.335,8,400,42,,ISIC_4269227.JPG
break,html.Screen,4_91_1,2023-05-01T22:04:33.101Z,,0,,,NaN,,,,,,false,,,,284870,284869.7000000477,,284868.7000000477,,284877.335,8,400,,,
break_continue,html.Screen,4_91_2,2023-05-01T22:04:33.102Z,,0,,,NaN,,,,,,false,,,,284870.40000009537,284870.30000019073,,284870.10000014305,,284877.335,8,400,,,
sequence,flow.Sequence,4_91,2023-05-01T22:04:33.102Z,,0,,,1992.8850001907558,completion,,,,,false,,,,284870.5,284870.30000019073,282860.749,282862.10000014305,282877.415,284877.335,8,400,,,
trial,html.Screen,4_92_0,2023-05-01T22:04:35.321Z,,0,2,,2212.164999999979,response,ISIC_0055378.JPG,,ISIC_0057184.JPG,ISIC_0055378.JPG,false,1,keypress(m),500,287090,287089.5,284860.669,284870.7000000477,284877.335,287093.913,8,400,43,,ISIC_0057184.JPG
break,html.Screen,4_92_1,2023-05-01T22:04:35.323Z,,0,,,NaN,,,,,,false,,,,287091.60000014305,287091.30000019073,,287090.40000009537,,287093.913,8,400,,,
break_continue,html.Screen,4_92_2,2023-05-01T22:04:35.324Z,,0,,,NaN,,,,,,false,,,,287092.10000014305,287092,,287091.80000019073,,287093.913,8,400,,,
sequence,flow.Sequence,4_92,2023-05-01T22:04:35.324Z,,0,,,2214.664999999979,completion,,,,,false,,,,287092.30000019073,287092,284860.669,284870.60000014305,284877.335,287093.913,8,400,,,
trial,html.Screen,4_93_0,2023-05-01T22:04:40.434Z,,0,2,,5107.787000047683,response,ISIC_5673994.JPG,,ISIC_7636321.JPG,ISIC_5673994.JPG,false,1,keypress(m),500,292202.2000000477,292201.7000000477,287077.247,287092.5,287093.913,292211.128,8,400,44,,ISIC_7636321.JPG
break,html.Screen,4_93_1,2023-05-01T22:04:40.435Z,,0,,,NaN,,,,,,false,,,,292203.5,292203.2000000477,,292202.40000009537,,292211.128,8,400,,,
break_continue,html.Screen,4_93_2,2023-05-01T22:04:40.435Z,,0,,,NaN,,,,,,false,,,,292203.60000014305,292203.60000014305,,292203.5,,292211.128,8,400,,,
sequence,flow.Sequence,4_93,2023-05-01T22:04:40.435Z,,0,,,5109.687000143051,completion,,,,,false,,,,292203.7000000477,292203.60000014305,287077.247,287092.40000009537,287093.913,292211.128,8,400,,,
trial,html.Screen,4_94_0,2023-05-01T22:04:42.513Z,,0,2,,2070.472000143025,response,ISIC_0394140.JPG,,ISIC_2445475.JPG,ISIC_0394140.JPG,false,1,keypress(m),500,294281.90000009537,294281.60000014305,292194.462,292203.90000009537,292211.128,294294.378,8,400,45,,ISIC_2445475.JPG
break,html.Screen,4_94_1,2023-05-01T22:04:42.514Z,,0,,,NaN,,,,,,false,,,,294282.80000019073,294282.60000014305,,294282.10000014305,,294294.378,8,400,,,
break_continue,html.Screen,4_94_2,2023-05-01T22:04:42.514Z,,0,,,NaN,,,,,,false,,,,294283.2000000477,294283,,294282.90000009537,,294294.378,8,400,,,
sequence,flow.Sequence,4_94,2023-05-01T22:04:42.515Z,,0,,,2071.871999999974,completion,,,,,false,,,,294283.2000000477,294283,292194.462,292203.80000019073,292211.128,294294.378,8,400,,,
trial,html.Screen,4_95_0,2023-05-01T22:04:44.508Z,,0,2,,1981.4220001907088,response,ISIC_0025001.JPG,,ISIC_1531204.JPG,ISIC_0025001.JPG,false,1,keypress(m),500,296276.40000009537,296275.80000019073,294277.712,294283.30000019073,294294.378,296277.632,8,400,46,,ISIC_1531204.JPG
break,html.Screen,4_95_1,2023-05-01T22:04:44.509Z,,0,,,NaN,,,,,,false,,,,296278,296277.60000014305,,296276.7000000477,,296277.632,8,400,,,
break_continue,html.Screen,4_95_2,2023-05-01T22:04:44.510Z,,0,,,NaN,,,,,,false,,,,296278.5,296278.30000019073,,296278.2000000477,,296277.632,8,400,,,
sequence,flow.Sequence,4_95,2023-05-01T22:04:44.510Z,,0,,,1983.9220001907088,completion,,,,,false,,,,296278.60000014305,296278.30000019073,294277.712,294283.30000019073,294294.378,296277.632,8,400,,,
trial,html.Screen,4_96_0,2023-05-01T22:04:46.657Z,,0,2,,2148.0680000477005,response,ISIC_0009993.JPG,,ISIC_0065235.JPG,ISIC_0009993.JPG,false,1,keypress(m),500,298426.2000000477,298425.7000000477,296260.966,296278.80000019073,296277.632,298427.546,8,400,47,,ISIC_0065235.JPG
break,html.Screen,4_96_1,2023-05-01T22:04:46.659Z,,0,,,NaN,,,,,,false,,,,298427.40000009537,298427.2000000477,,298426.5,,298427.546,8,400,,,
break_continue,html.Screen,4_96_2,2023-05-01T22:04:46.659Z,,0,,,NaN,,,,,,false,,,,298427.60000014305,298427.5,,298427.5,,298427.546,8,400,,,
sequence,flow.Sequence,4_96,2023-05-01T22:04:46.659Z,,0,,,2149.8680000000168,completion,,,,,false,,,,298427.80000019073,298427.5,296260.966,296278.7000000477,296277.632,298427.546,8,400,,,
trial,html.Screen,4_97_0,2023-05-01T22:04:48.794Z,,0,2,,2134.754000190762,response,ISIC_0030592.JPG,,ISIC_0061580.JPG,ISIC_0030592.JPG,false,1,keypress(m),500,300562.80000019073,300562.30000019073,298410.88,298427.80000019073,298427.546,300578.209,8,400,48,,ISIC_0061580.JPG
break,html.Screen,4_97_1,2023-05-01T22:04:48.795Z,,0,,,NaN,,,,,,false,,,,300564.2000000477,300563.90000009537,,300563.10000014305,,300578.209,8,400,,,
break_continue,html.Screen,4_97_2,2023-05-01T22:04:48.796Z,,0,,,NaN,,,,,,false,,,,300564.40000009537,300564.30000019073,,300564.2000000477,,300578.209,8,400,,,
sequence,flow.Sequence,4_97,2023-05-01T22:04:48.796Z,,0,,,2136.754000190762,completion,,,,,false,,,,300564.5,300564.30000019073,298410.88,298427.80000019073,298427.546,300578.209,8,400,,,
trial,html.Screen,4_98_0,2023-05-01T22:04:50.929Z,,0,2,,2119.5910001907614,response,ISIC_0034183.JPG,,ISIC_0026659.JPG,ISIC_0034183.JPG,false,1,keypress(m),500,302698.30000019073,302697.80000019073,300561.543,300564.7000000477,300578.209,302711.457,8,400,49,,ISIC_0026659.JPG
break,html.Screen,4_98_1,2023-05-01T22:04:50.931Z,,0,,,NaN,,,,,,false,,,,302700,302699.7000000477,,302698.60000014305,,302711.457,8,400,,,
break_continue,html.Screen,4_98_2,2023-05-01T22:04:50.932Z,,0,,,NaN,,,,,,false,,,,302700.40000009537,302700.30000019073,,302700.10000014305,,302711.457,8,400,,,
sequence,flow.Sequence,4_98,2023-05-01T22:04:50.932Z,,0,,,2122.0910001907614,completion,,,,,false,,,,302700.60000014305,302700.30000019073,300561.543,300564.7000000477,300578.209,302711.457,8,400,,,
trial,html.Screen,4_99_0,2023-05-01T22:04:52.961Z,,0,2,,2018.2430000476888,response,ISIC_6225409.JPG,,ISIC_5569091.JPG,ISIC_6225409.JPG,false,1,keypress(m),500,304730.2000000477,304729.7000000477,302694.791,302700.7000000477,302711.457,304744.709,8,400,50,,ISIC_5569091.JPG
break,html.Screen,4_99_1,2023-05-01T22:04:57.962Z,,0,,,4999.800000000047,timeout,,,,,false,,,,309730.60000014305,309727.843,304728.043,304730.60000014305,304744.709,309744.509,8,400,,,
break_continue,html.Screen,4_99_2,2023-05-01T22:04:58.470Z,,0,,,477.5910001430311,response,,,,,false,continue,keypress(Space),,310238.80000019073,310222.10000014305,309727.843,309730.80000019073,309744.509,310244.489,8,400,,,
sequence,flow.Sequence,4_99,2023-05-01T22:04:58.470Z,,0,,,7510.643000143056,completion,,,,,false,,,,310239,310222.10000014305,302694.791,302700.7000000477,302711.457,310244.489,8,400,,,
trial,html.Screen,4_100_0,2023-05-01T22:05:10.078Z,,0,3,,26134.983000000007,timeout,ISIC_0060153.JPG,,ISIC_7181296.JPG,,false,,,500,321847,321846.5,310227.823,310239,310244.489,336379.472,8,400,1,,
break,html.Screen,4_100_1,2023-05-01T22:05:10.079Z,,0,,,NaN,,,,,,false,,,,321848.60000014305,321848.2000000477,,321847.30000019073,,336379.472,8,400,,,
break_continue,html.Screen,4_100_2,2023-05-01T22:05:10.080Z,,0,,,NaN,,,,,,false,,,,321849,321848.80000019073,,321848.60000014305,,336379.472,8,400,,,
sequence,flow.Sequence,4_100,2023-05-01T22:05:10.080Z,,0,,,11604.311000190733,completion,,,,,false,,,,321849.2000000477,321848.80000019073,310227.823,310239,310244.489,336379.472,8,400,,,
trial,html.Screen,4_101_0,2023-05-01T22:05:29.451Z,,0,3,,4840.428000095359,response,ISIC_0031953.JPG,,ISIC_2153401.JPG,ISIC_0031953.JPG,false,1,keypress(m),500,341220.30000019073,341219.90000009537,336362.806,321849.30000019073,336379.472,341229.278,8,400,2,,ISIC_2153401.JPG
break,html.Screen,4_101_1,2023-05-01T22:05:29.453Z,,0,,,NaN,,,,,,false,,,,341222.2000000477,341221.90000009537,,341220.80000019073,,341229.278,8,400,,,
break_continue,html.Screen,4_101_2,2023-05-01T22:05:29.453Z,,0,,,NaN,,,,,,false,,,,341222.7000000477,341222.60000014305,,341222.40000009537,,341229.278,8,400,,,
sequence,flow.Sequence,4_101,2023-05-01T22:05:29.453Z,,0,,,4843.128000143042,completion,,,,,false,,,,341222.90000009537,341222.60000014305,336362.806,321849.30000019073,336379.472,341229.278,8,400,,,
trial,html.Screen,4_102_0,2023-05-01T22:05:31.433Z,,0,3,,1972.9220000476926,response,ISIC_0027541.JPG,,ISIC_0002349.JPG,ISIC_0027541.JPG,false,1,keypress(m),500,343202.7000000477,343202.2000000477,341212.612,341223.10000014305,341229.278,343212.532,8,400,3,,ISIC_0002349.JPG
break,html.Screen,4_102_1,2023-05-01T22:05:31.434Z,,0,,,NaN,,,,,,false,,,,343204,343203.80000019073,,343203,,343212.532,8,400,,,
break_continue,html.Screen,4_102_2,2023-05-01T22:05:31.435Z,,0,,,NaN,,,,,,false,,,,343204.30000019073,343204.30000019073,,343204.10000014305,,343212.532,8,400,,,
sequence,flow.Sequence,4_102,2023-05-01T22:05:31.435Z,,0,,,1975.0220001907437,completion,,,,,false,,,,343204.5,343204.30000019073,341212.612,341223,341229.278,343212.532,8,400,,,
trial,html.Screen,4_103_0,2023-05-01T22:05:33.528Z,,0,3,,2084.5680001430446,response,ISIC_1080647.JPG,,ISIC_0002953.JPG,ISIC_1080647.JPG,false,1,keypress(m),500,345297.5,345297.10000014305,343195.866,343204.60000014305,343212.532,345312.448,8,400,4,,ISIC_0002953.JPG
break,html.Screen,4_103_1,2023-05-01T22:05:33.530Z,,0,,,NaN,,,,,,false,,,,345299.10000014305,345298.80000019073,,345297.80000019073,,345312.448,8,400,,,
break_continue,html.Screen,4_103_2,2023-05-01T22:05:33.530Z,,0,,,NaN,,,,,,false,,,,345299.5,345299.40000009537,,345299.2000000477,,345312.448,8,400,,,
sequence,flow.Sequence,4_103,2023-05-01T22:05:33.530Z,,0,,,2086.868000095361,completion,,,,,false,,,,345299.7000000477,345299.40000009537,343195.866,343204.60000014305,343212.532,345312.448,8,400,,,
trial,html.Screen,4_104_0,2023-05-01T22:05:35.601Z,,0,3,,2057.35200019076,response,ISIC_0033479.JPG,,ISIC_6576397.JPG,ISIC_0033479.JPG,false,1,keypress(m),500,347370.30000019073,347369.80000019073,345295.782,345299.90000009537,345312.448,347379.788,8,400,5,,ISIC_6576397.JPG
break,html.Screen,4_104_1,2023-05-01T22:05:35.602Z,,0,,,NaN,,,,,,false,,,,347371.90000009537,347371.5,,347370.60000014305,,347379.788,8,400,,,
break_continue,html.Screen,4_104_2,2023-05-01T22:05:35.603Z,,0,,,NaN,,,,,,false,,,,347372.30000019073,347372.2000000477,,347372,,347379.788,8,400,,,
sequence,flow.Sequence,4_104,2023-05-01T22:05:35.603Z,,0,,,2059.752000047709,completion,,,,,false,,,,347372.5,347372.2000000477,345295.782,345299.80000019073,345312.448,347379.788,8,400,,,
trial,html.Screen,4_105_0,2023-05-01T22:05:37.611Z,,0,3,,1999.9120000476833,response,ISIC_1532403.JPG,,ISIC_6323420.JPG,ISIC_1532403.JPG,false,1,keypress(m),500,349380.30000019073,349379.7000000477,347363.122,347372.7000000477,347379.788,349396.374,8,400,6,,ISIC_6323420.JPG
break,html.Screen,4_105_1,2023-05-01T22:05:37.612Z,,0,,,NaN,,,,,,false,,,,349381.90000009537,349381.60000014305,,349380.60000014305,,349396.374,8,400,,,
break_continue,html.Screen,4_105_2,2023-05-01T22:05:37.613Z,,0,,,NaN,,,,,,false,,,,349382.40000009537,349382.2000000477,,349382,,349396.374,8,400,,,
sequence,flow.Sequence,4_105,2023-05-01T22:05:37.613Z,,0,,,2002.4120000476833,completion,,,,,false,,,,349382.60000014305,349382.2000000477,347363.122,347372.60000014305,347379.788,349396.374,8,400,,,
trial,html.Screen,4_106_0,2023-05-01T22:05:39.586Z,,0,3,,1958.9260001907242,response,ISIC_5573566.JPG,,ISIC_4602691.JPG,ISIC_5573566.JPG,false,1,keypress(m),500,351355.90000009537,351355.30000019073,349379.708,349382.80000019073,349396.374,351362.962,8,400,7,,ISIC_4602691.JPG
break,html.Screen,4_106_1,2023-05-01T22:05:39.588Z,,0,,,NaN,,,,,,false,,,,351357.5,351357.2000000477,,351356.2000000477,,351362.962,8,400,,,
break_continue,html.Screen,4_106_2,2023-05-01T22:05:39.588Z,,0,,,NaN,,,,,,false,,,,351358,351357.90000009537,,351357.7000000477,,351362.962,8,400,,,
sequence,flow.Sequence,4_106,2023-05-01T22:05:39.589Z,,0,,,1961.5260000953567,completion,,,,,false,,,,351358.2000000477,351357.90000009537,349379.708,349382.7000000477,349396.374,351362.962,8,400,,,
trial,html.Screen,4_107_0,2023-05-01T22:05:41.745Z,,0,3,,2151.1380001430516,response,ISIC_0207268.JPG,,ISIC_2122488.JPG,ISIC_0207268.JPG,false,1,keypress(m),500,353514.5,353514.10000014305,351346.296,351358.30000019073,351362.962,353529.542,8,400,8,,ISIC_2122488.JPG
break,html.Screen,4_107_1,2023-05-01T22:05:41.746Z,,0,,,NaN,,,,,,false,,,,353516.10000014305,353515.7000000477,,353514.80000019073,,353529.542,8,400,,,
break_continue,html.Screen,4_107_2,2023-05-01T22:05:41.747Z,,0,,,NaN,,,,,,false,,,,353516.60000014305,353516.40000009537,,353516.2000000477,,353529.542,8,400,,,
sequence,flow.Sequence,4_107,2023-05-01T22:05:41.747Z,,0,,,2153.438000095368,completion,,,,,false,,,,353516.80000019073,353516.40000009537,351346.296,351358.30000019073,351362.962,353529.542,8,400,,,
trial,html.Screen,4_108_0,2023-05-01T22:05:43.856Z,,0,3,,2096.158000047668,response,ISIC_7630208.JPG,,ISIC_0064261.JPG,ISIC_7630208.JPG,false,1,keypress(m),500,355626.10000014305,355625.7000000477,353512.876,353516.90000009537,353529.542,355629.458,8,400,9,,ISIC_0064261.JPG
break,html.Screen,4_108_1,2023-05-01T22:05:43.858Z,,0,,,NaN,,,,,,false,,,,355627.7000000477,355627.40000009537,,355626.5,,355629.458,8,400,,,
break_continue,html.Screen,4_108_2,2023-05-01T22:05:43.858Z,,0,,,NaN,,,,,,false,,,,355628.2000000477,355628.10000014305,,355627.80000019073,,355629.458,8,400,,,
sequence,flow.Sequence,4_108,2023-05-01T22:05:43.859Z,,0,,,2098.5580001430353,completion,,,,,false,,,,355628.30000019073,355628.10000014305,353512.876,353516.90000009537,353529.542,355629.458,8,400,,,
trial,html.Screen,4_109_0,2023-05-01T22:05:45.851Z,,0,3,,1990.3420001907507,response,ISIC_4394524.JPG,,ISIC_8108870.JPG,ISIC_4394524.JPG,false,1,keypress(m),500,357620.30000019073,357619.80000019073,355612.792,355628.5,355629.458,357630.123,8,400,10,,ISIC_8108870.JPG
break,html.Screen,4_109_1,2023-05-01T22:05:45.852Z,,0,,,NaN,,,,,,false,,,,357621.90000009537,357621.60000014305,,357620.7000000477,,357630.123,8,400,,,
break_continue,html.Screen,4_109_2,2023-05-01T22:05:45.853Z,,0,,,NaN,,,,,,false,,,,357622.40000009537,357622.30000019073,,357622,,357630.123,8,400,,,
sequence,flow.Sequence,4_109,2023-05-01T22:05:45.853Z,,0,,,1992.8420001907507,completion,,,,,false,,,,357622.5,357622.30000019073,355612.792,355628.5,355629.458,357630.123,8,400,,,
trial,html.Screen,4_110_0,2023-05-01T22:05:48.112Z,,0,3,,2251.5770000476623,response,ISIC_0026666.JPG,,ISIC_0698821.JPG,ISIC_0026666.JPG,false,1,keypress(m),500,359882.2000000477,359881.7000000477,357613.457,357622.7000000477,357630.123,359913.365,8,400,11,,ISIC_0698821.JPG
break,html.Screen,4_110_1,2023-05-01T22:05:48.114Z,,0,,,NaN,,,,,,false,,,,359883.7000000477,359883.40000009537,,359882.40000009537,,359913.365,8,400,,,
break_continue,html.Screen,4_110_2,2023-05-01T22:05:48.114Z,,0,,,NaN,,,,,,false,,,,359883.90000009537,359883.90000009537,,359883.7000000477,,359913.365,8,400,,,
sequence,flow.Sequence,4_110,2023-05-01T22:05:48.114Z,,0,,,2253.777000095346,completion,,,,,false,,,,359884.10000014305,359883.90000009537,357613.457,357622.60000014305,357630.123,359913.365,8,400,,,
trial,html.Screen,4_111_0,2023-05-01T22:05:50.256Z,,0,3,,2112.335000047693,response,ISIC_4253346.JPG,,ISIC_0014151.JPG,ISIC_4253346.JPG,false,1,keypress(m),500,362026.30000019073,362025.7000000477,359896.699,359884.10000014305,359913.365,362029.947,8,400,12,,ISIC_0014151.JPG
break,html.Screen,4_111_1,2023-05-01T22:05:50.258Z,,0,,,NaN,,,,,,false,,,,362027.90000009537,362027.5,,362026.5,,362029.947,8,400,,,
break_continue,html.Screen,4_111_2,2023-05-01T22:05:50.258Z,,0,,,NaN,,,,,,false,,,,362028.30000019073,362028.10000014305,,362028,,362029.947,8,400,,,
sequence,flow.Sequence,4_111,2023-05-01T22:05:50.259Z,,0,,,2114.7350001430605,completion,,,,,false,,,,362028.5,362028.10000014305,359896.699,359884.10000014305,359913.365,362029.947,8,400,,,
trial,html.Screen,4_112_0,2023-05-01T22:05:53.232Z,,0,3,,2971.6530001430656,response,ISIC_0057988.JPG,,ISIC_0063981.JPG,ISIC_0057988.JPG,false,1,keypress(m),500,365002.30000019073,365001.60000014305,362013.281,362028.60000014305,362029.947,365013.161,8,400,13,,ISIC_0063981.JPG
break,html.Screen,4_112_1,2023-05-01T22:05:53.234Z,,0,,,NaN,,,,,,false,,,,365003.90000009537,365003.60000014305,,365002.60000014305,,365013.161,8,400,,,
break_continue,html.Screen,4_112_2,2023-05-01T22:05:53.234Z,,0,,,NaN,,,,,,false,,,,365004.40000009537,365004.2000000477,,365004,,365013.161,8,400,,,
sequence,flow.Sequence,4_112,2023-05-01T22:05:53.235Z,,0,,,2974.253000047698,completion,,,,,false,,,,365004.60000014305,365004.2000000477,362013.281,362028.5,362029.947,365013.161,8,400,,,
trial,html.Screen,4_113_0,2023-05-01T22:05:55.274Z,,0,3,,2030.639000190713,response,ISIC_0011504.JPG,,ISIC_0014541.JPG,ISIC_0011504.JPG,false,1,keypress(m),500,367044.30000019073,367043.80000019073,364996.495,365004.7000000477,365013.161,367046.413,8,400,14,,ISIC_0014541.JPG
break,html.Screen,4_113_1,2023-05-01T22:05:55.276Z,,0,,,NaN,,,,,,false,,,,367046,367045.60000014305,,367044.60000014305,,367046.413,8,400,,,
break_continue,html.Screen,4_113_2,2023-05-01T22:05:55.276Z,,0,,,NaN,,,,,,false,,,,367046.40000009537,367046.2000000477,,367046.10000014305,,367046.413,8,400,,,
sequence,flow.Sequence,4_113,2023-05-01T22:05:55.277Z,,0,,,2033.0390000476618,completion,,,,,false,,,,367046.5,367046.2000000477,364996.495,365004.7000000477,365013.161,367046.413,8,400,,,
trial,html.Screen,4_114_0,2023-05-01T22:05:58.049Z,,0,3,,2772.1870001430507,response,ISIC_0034192.JPG,,ISIC_0011268.JPG,ISIC_0034192.JPG,false,1,keypress(m),500,369819.10000014305,369818.60000014305,367029.747,367046.7000000477,367046.413,369830.391,8,400,15,,ISIC_0011268.JPG
break,html.Screen,4_114_1,2023-05-01T22:05:58.051Z,,0,,,NaN,,,,,,false,,,,369820.7000000477,369820.40000009537,,369819.40000009537,,369830.391,8,400,,,
break_continue,html.Screen,4_114_2,2023-05-01T22:05:58.051Z,,0,,,NaN,,,,,,false,,,,369821.10000014305,369821,,369820.90000009537,,369830.391,8,400,,,
sequence,flow.Sequence,4_114,2023-05-01T22:05:58.051Z,,0,,,2774.5869999999995,completion,,,,,false,,,,369821.30000019073,369821,367029.747,367046.60000014305,367046.413,369830.391,8,400,,,
trial,html.Screen,4_115_0,2023-05-01T22:06:00.246Z,,0,3,,2184.6089999999967,response,ISIC_8483382.JPG,,ISIC_9499185.JPG,ISIC_8483382.JPG,false,1,keypress(m),500,372015.5,372015,369813.725,369821.5,369830.391,372046.969,8,400,16,,ISIC_9499185.JPG
break,html.Screen,4_115_1,2023-05-01T22:06:00.247Z,,0,,,NaN,,,,,,false,,,,372017.30000019073,372017,,372015.90000009537,,372046.969,8,400,,,
break_continue,html.Screen,4_115_2,2023-05-01T22:06:00.248Z,,0,,,NaN,,,,,,false,,,,372017.60000014305,372017.5,,372017.40000009537,,372046.969,8,400,,,
sequence,flow.Sequence,4_115,2023-05-01T22:06:00.248Z,,0,,,2187.1089999999967,completion,,,,,false,,,,372017.90000009537,372017.5,369813.725,369821.5,369830.391,372046.969,8,400,,,
trial,html.Screen,4_116_0,2023-05-01T22:06:02.242Z,,0,3,,1964.5310000000172,response,ISIC_0060397.JPG,,ISIC_0056152.JPG,ISIC_0060397.JPG,false,1,keypress(m),500,374012,374011.5,372030.303,372018,372046.969,374013.557,8,400,17,,ISIC_0056152.JPG
break,html.Screen,4_116_1,2023-05-01T22:06:02.244Z,,0,,,NaN,,,,,,false,,,,374013.7000000477,374013.40000009537,,374012.40000009537,,374013.557,8,400,,,
break_continue,html.Screen,4_116_2,2023-05-01T22:06:02.244Z,,0,,,NaN,,,,,,false,,,,374014.10000014305,374013.90000009537,,374013.80000019073,,374013.557,8,400,,,
sequence,flow.Sequence,4_116,2023-05-01T22:06:02.244Z,,0,,,1966.9310000953847,completion,,,,,false,,,,374014.30000019073,374013.90000009537,372030.303,372017.90000009537,372046.969,374013.557,8,400,,,
trial,html.Screen,4_117_0,2023-05-01T22:06:04.249Z,,0,3,,2004.8430000953958,response,ISIC_0012047.JPG,,ISIC_0000459.JPG,ISIC_0012047.JPG,false,1,keypress(m),500,376018.90000009537,376018.40000009537,373996.891,374014.5,374013.557,376030.143,8,400,18,,ISIC_0000459.JPG
break,html.Screen,4_117_1,2023-05-01T22:06:04.251Z,,0,,,NaN,,,,,,false,,,,376020.7000000477,376020.30000019073,,376019.30000019073,,376030.143,8,400,,,
break_continue,html.Screen,4_117_2,2023-05-01T22:06:04.251Z,,0,,,NaN,,,,,,false,,,,376021.2000000477,376021.10000014305,,376020.80000019073,,376030.143,8,400,,,
sequence,flow.Sequence,4_117,2023-05-01T22:06:04.251Z,,0,,,2007.5430001430796,completion,,,,,false,,,,376021.40000009537,376021.10000014305,373996.891,374014.40000009537,374013.557,376030.143,8,400,,,
trial,html.Screen,4_118_0,2023-05-01T22:06:06.280Z,,0,3,,2019.7570000953856,response,ISIC_0029581.JPG,,ISIC_6684042.JPG,ISIC_0029581.JPG,false,1,keypress(m),500,378050.5,378049.90000009537,376013.477,376021.5,376030.143,378064.147,8,400,19,,ISIC_6684042.JPG
break,html.Screen,4_118_1,2023-05-01T22:06:06.282Z,,0,,,NaN,,,,,,false,,,,378052.10000014305,378051.7000000477,,378050.7000000477,,378064.147,8,400,,,
break_continue,html.Screen,4_118_2,2023-05-01T22:06:06.282Z,,0,,,NaN,,,,,,false,,,,378052.5,378052.30000019073,,378052.2000000477,,378064.147,8,400,,,
sequence,flow.Sequence,4_118,2023-05-01T22:06:06.283Z,,0,,,2022.157000190753,completion,,,,,false,,,,378052.7000000477,378052.30000019073,376013.477,376021.5,376030.143,378064.147,8,400,,,
trial,html.Screen,4_119_0,2023-05-01T22:06:08.456Z,,0,3,,2161.1530001907377,response,ISIC_0028618.JPG,,ISIC_7032028.JPG,ISIC_0028618.JPG,false,1,keypress(m),500,380225.80000019073,380225.30000019073,378047.481,378052.90000009537,378064.147,380230.727,8,400,20,,ISIC_7032028.JPG
break,html.Screen,4_119_1,2023-05-01T22:06:08.457Z,,0,,,NaN,,,,,,false,,,,380227,380226.90000009537,,380226,,380230.727,8,400,,,
break_continue,html.Screen,4_119_2,2023-05-01T22:06:08.458Z,,0,,,NaN,,,,,,false,,,,380227.80000019073,380227.60000014305,,380227.30000019073,,380230.727,8,400,,,
sequence,flow.Sequence,4_119,2023-05-01T22:06:08.458Z,,0,,,2163.453000143054,completion,,,,,false,,,,380228,380227.60000014305,378047.481,378052.90000009537,378064.147,380230.727,8,400,,,
trial,html.Screen,4_120_0,2023-05-01T22:06:10.688Z,,0,3,,2226.8730001430376,response,ISIC_0025595.JPG,,ISIC_0024805.JPG,ISIC_0025595.JPG,false,1,keypress(m),500,382458,382457.60000014305,380214.061,380228.10000014305,380230.727,382463.971,8,400,21,,ISIC_0024805.JPG
break,html.Screen,4_120_1,2023-05-01T22:06:10.689Z,,0,,,NaN,,,,,,false,,,,382458.90000009537,382458.7000000477,,382458.2000000477,,382463.971,8,400,,,
break_continue,html.Screen,4_120_2,2023-05-01T22:06:10.689Z,,0,,,NaN,,,,,,false,,,,382459.2000000477,382459.10000014305,,382459,,382463.971,8,400,,,
sequence,flow.Sequence,4_120,2023-05-01T22:06:10.689Z,,0,,,2228.3730001430376,completion,,,,,false,,,,382459.40000009537,382459.10000014305,380214.061,380228.10000014305,380230.727,382463.971,8,400,,,
trial,html.Screen,4_121_0,2023-05-01T22:06:12.776Z,,0,3,,2082.1290001430316,response,ISIC_5396394.JPG,,ISIC_0058863.JPG,ISIC_5396394.JPG,false,1,keypress(m),500,384546.30000019073,384546.10000014305,382447.305,382459.40000009537,382463.971,384547.221,8,400,22,,ISIC_0058863.JPG
break,html.Screen,4_121_1,2023-05-01T22:06:12.777Z,,0,,,NaN,,,,,,false,,,,384547,384546.80000019073,,384546.5,,384547.221,8,400,,,
break_continue,html.Screen,4_121_2,2023-05-01T22:06:12.777Z,,0,,,NaN,,,,,,false,,,,384547.30000019073,384547.10000014305,,384547,,384547.221,8,400,,,
sequence,flow.Sequence,4_121,2023-05-01T22:06:12.777Z,,0,,,2083.1290001430316,completion,,,,,false,,,,384547.30000019073,384547.10000014305,382447.305,382459.40000009537,382463.971,384547.221,8,400,,,
trial,html.Screen,4_122_0,2023-05-01T22:06:15.056Z,,0,3,,2278.679000095348,response,ISIC_2849353.JPG,,ISIC_0024300.JPG,ISIC_2849353.JPG,false,1,keypress(m),500,386826.30000019073,386825.90000009537,384530.555,384547.40000009537,384547.221,386830.463,8,400,23,,ISIC_0024300.JPG
break,html.Screen,4_122_1,2023-05-01T22:06:15.057Z,,0,,,NaN,,,,,,false,,,,386827.5,386827.30000019073,,386826.5,,386830.463,8,400,,,
break_continue,html.Screen,4_122_2,2023-05-01T22:06:15.058Z,,0,,,NaN,,,,,,false,,,,386827.90000009537,386827.80000019073,,386827.7000000477,,386830.463,8,400,,,
sequence,flow.Sequence,4_122,2023-05-01T22:06:15.058Z,,0,,,2280.5790001907153,completion,,,,,false,,,,386828,386827.80000019073,384530.555,384547.40000009537,384547.221,386830.463,8,400,,,
trial,html.Screen,4_123_0,2023-05-01T22:06:17.184Z,,0,3,,2123.237000047695,response,ISIC_1043267.JPG,,ISIC_3213469.JPG,ISIC_1043267.JPG,false,1,keypress(m),500,388953.80000019073,388953.7000000477,386813.797,386828.2000000477,386830.463,388964.455,8,400,24,,ISIC_3213469.JPG
break,html.Screen,4_123_1,2023-05-01T22:06:17.184Z,,0,,,NaN,,,,,,false,,,,388954.60000014305,388954.5,,388954,,388964.455,8,400,,,
break_continue,html.Screen,4_123_2,2023-05-01T22:06:17.185Z,,0,,,NaN,,,,,,false,,,,388954.80000019073,388954.80000019073,,388954.7000000477,,388964.455,8,400,,,
sequence,flow.Sequence,4_123,2023-05-01T22:06:17.185Z,,0,,,2124.337000190746,completion,,,,,false,,,,388954.90000009537,388954.80000019073,386813.797,386828.2000000477,386830.463,388964.455,8,400,,,
trial,html.Screen,4_124_0,2023-05-01T22:06:19.162Z,,0,3,,1967.5449999999837,response,ISIC_2376758.JPG,,ISIC_0028969.JPG,ISIC_2376758.JPG,false,1,keypress(m),500,390932.5,390932,388947.789,388955,388964.455,390947.709,8,400,25,,ISIC_0028969.JPG
break,html.Screen,4_124_1,2023-05-01T22:06:19.164Z,,0,,,NaN,,,,,,false,,,,390934.40000009537,390934,,390932.90000009537,,390947.709,8,400,,,
break_continue,html.Screen,4_124_2,2023-05-01T22:06:19.165Z,,0,,,NaN,,,,,,false,,,,390934.90000009537,390934.7000000477,,390934.5,,390947.709,8,400,,,
sequence,flow.Sequence,4_124,2023-05-01T22:06:19.165Z,,0,,,1970.2450000476674,completion,,,,,false,,,,390935,390934.7000000477,388947.789,388954.90000009537,388964.455,390947.709,8,400,,,
trial,html.Screen,4_125_0,2023-05-01T22:06:21.345Z,,0,3,,2167.5910001907614,response,ISIC_6991849.JPG,,ISIC_9943579.JPG,ISIC_6991849.JPG,false,1,keypress(m),500,393115.90000009537,393115.30000019073,390931.043,390935.2000000477,390947.709,393130.955,8,400,26,,ISIC_9943579.JPG
break,html.Screen,4_125_1,2023-05-01T22:06:21.347Z,,0,,,NaN,,,,,,false,,,,393117.40000009537,393117,,393116.10000014305,,393130.955,8,400,,,
