sender,sender_type,sender_id,timestamp,meta,,blockNo,condition,duration,ended_on,img_left,img_reveal,img_right,loser,practice,response,response_action,selection_duration,time_commit,time_end,time_render,time_run,time_show,time_switch,total_blocks,total_trials,trialNo,url,winner
informed_consent,html.Screen,0,2023-09-11T18:31:43.967Z,"{""labjs_version"":""20.2.4"",""labjs_build"":{""flavor"":""production"",""commit"":""f5b4a49f956347addd546a832a3327688c2c0fef""},""location"":""https://run.pavlovia.org/MurrayBennett/melanoma-2afc/?participant=67452&platform=sona"",""userAgent"":""Mozilla/5.0 (Macintosh; Intel Mac OS X 10_15_7) AppleWebKit/537.36 (KHTML, like Gecko) Chrome/116.0.0.0 Safari/537.36"",""platform"":""MacIntel"",""language"":""en-US"",""locale"":""en-US"",""timeZone"":""America/Chicago"",""timezoneOffset"":300,""screen_width"":1440,""screen_height"":900,""scroll_width"":1440,""scroll_height"":767,""window_innerWidth"":1440,""window_innerHeight"":815,""devicePixelRatio"":1}",,,,23232.874999991058,response,,,,,,consent,click button,,24367.20000000298,24362.89999999106,530.013,1119.3999999910593,1130.025,24381.422,,,,"{""participant"":""67452"",""platform"":""sona""}",
Welcome,html.Screen,1,2023-09-11T18:32:12.754Z,,,,asymmetry,28770.47799999106,response,,,,,,continue,click button,,53154.39999999106,53151.89999999106,24364.755,24367.5,24381.422,53167.119,,,,,
trial,html.Screen,2_0_0,2023-09-11T18:32:18.390Z,,0,0,,5622.881000000001,response,ISIC_0069348.JPG,,ISIC_6997061.JPG,ISIC_6997061.JPG,true,0,keypress(z),500,58790.29999999702,58790,53150.452,53154.79999999702,53167.119,58800.565,1,6,1,,ISIC_0069348.JPG
sequence,flow.Sequence,2_0,2023-09-11T18:32:18.391Z,,0,,,5622.881000000001,completion,,,,,true,,,,58790.79999999702,58790,53150.452,53154.79999999702,53167.119,58800.565,1,6,,,
trial,html.Screen,2_1_0,2023-09-11T18:32:22.877Z,,0,0,,4476.135000002978,response,ISIC_0057368.JPG,,ISIC_0009529.JPG,ISIC_0009529.JPG,true,0,keypress(z),500,63277,63276.70000000298,58783.898,58791,58800.565,63284.559,1,6,2,,ISIC_0057368.JPG
sequence,flow.Sequence,2_1,2023-09-11T18:32:22.878Z,,0,,,4476.135000002978,completion,,,,,true,,,,63277.29999999702,63276.70000000298,58783.898,58790.89999999106,58800.565,63284.559,1,6,,,
trial,html.Screen,2_2_0,2023-09-11T18:32:29.424Z,,0,0,,6538.540999994038,response,ISIC_0064954.JPG,,ISIC_9758671.JPG,ISIC_9758671.JPG,true,0,keypress(z),500,69823.39999999106,69823.09999999404,63267.892,63277.5,63284.559,69834.69,1,6,3,,ISIC_0064954.JPG
sequence,flow.Sequence,2_2,2023-09-11T18:32:29.424Z,,0,,,6538.540999994038,completion,,,,,true,,,,69823.79999999702,69823.09999999404,63267.892,63277.39999999106,63284.559,69834.69,1,6,,,
trial,html.Screen,2_3_0,2023-09-11T18:32:35.125Z,,0,0,,5690.010000002978,response,ISIC_0000080.JPG,,ISIC_0005785.JPG,ISIC_0000080.JPG,true,1,keypress(m),500,75525,75524.70000000298,69818.023,69824,69834.69,75535.341,1,6,4,,ISIC_0005785.JPG
sequence,flow.Sequence,2_3,2023-09-11T18:32:35.126Z,,0,,,5690.010000002978,completion,,,,,true,,,,75525.5,75524.70000000298,69818.023,69823.89999999106,69834.69,75535.341,1,6,,,
trial,html.Screen,2_4_0,2023-09-11T18:32:38.879Z,,0,0,,3742.4589999970194,response,ISIC_7944028.JPG,,ISIC_5390060.JPG,ISIC_7944028.JPG,true,1,keypress(m),500,79278.09999999404,79277.79999999702,75518.674,75525.70000000298,75535.341,79285.416,1,6,5,,ISIC_5390060.JPG
sequence,flow.Sequence,2_4,2023-09-11T18:32:38.879Z,,0,,,3742.4589999970194,completion,,,,,true,,,,79278.39999999106,79277.79999999702,75518.674,75525.59999999404,75535.341,79285.416,1,6,,,
trial,html.Screen,2_5_0,2023-09-11T18:32:42.685Z,,0,0,,3798.784000002983,response,ISIC_0010188.JPG,,ISIC_0794216.JPG,ISIC_0794216.JPG,true,0,keypress(z),500,83084.59999999404,83084.20000000298,79268.749,79278.70000000298,79285.416,83102.159,1,6,6,,ISIC_0010188.JPG
sequence,flow.Sequence,2_5,2023-09-11T18:32:42.686Z,,0,,,3798.784000002983,completion,,,,,true,,,,83084.89999999106,83084.20000000298,79268.749,79278.59999999404,79285.416,83102.159,1,6,,,
loop,flow.Loop,2,2023-09-11T18:32:42.686Z,,,,,29917.08100000298,completion,,,,,true,,,,83085.20000000298,83084.20000000298,53150.452,53154.70000000298,53167.119,83102.159,1,6,,,
exp_instructions,html.Screen,3,2023-09-11T18:32:46.616Z,,,,,3907.64099999702,response,,,,,,continue,keypress(Space),,87014.89999999106,87009.79999999702,83085.492,83085.39999999106,83102.159,87019.453,,,,,
trial,html.Screen,4_0_0,2023-09-11T18:32:52.511Z,,0,1,,5890.1469999940455,response,ISIC_8145348.JPG,5,ISIC_0011471.JPG,ISIC_0011471.JPG,false,0,keypress(z),500,92909.79999999702,92909.59999999404,87002.786,87015.29999999702,87019.453,92919.571,8,400,1,,ISIC_8145348.JPG
break,html.Screen,4_0_1,2023-09-11T18:32:52.512Z,,0,,,NaN,,,,,,false,,,,92911,92910.59999999404,,92910,,92919.571,8,400,,,
break_continue,html.Screen,4_0_2,2023-09-11T18:32:52.512Z,,0,,,NaN,,,,,,false,,,,92911.59999999404,92911.39999999106,,92911.09999999404,,92919.571,8,400,,,
sequence,flow.Sequence,4_0,2023-09-11T18:32:52.513Z,,0,,,5891.946999991065,completion,,,,,false,,,,92911.79999999702,92911.39999999106,87002.786,87015.20000000298,87019.453,92919.571,8,400,,,
trial,html.Screen,4_1_0,2023-09-11T18:32:56.927Z,,0,1,,4406.328999991063,response,ISIC_3391427.JPG,8,ISIC_0063715.JPG,ISIC_0063715.JPG,false,0,keypress(z),500,97326.20000000298,97325.89999999106,92902.904,92912,92919.571,97336.897,8,400,2,,ISIC_3391427.JPG
break,html.Screen,4_1_1,2023-09-11T18:32:56.928Z,,0,,,NaN,,,,,,false,,,,97327.09999999404,97326.70000000298,,97326.5,,97336.897,8,400,,,
break_continue,html.Screen,4_1_2,2023-09-11T18:32:56.928Z,,0,,,NaN,,,,,,false,,,,97327.5,97327.29999999702,,97327.09999999404,,97336.897,8,400,,,
sequence,flow.Sequence,4_1,2023-09-11T18:32:56.929Z,,0,,,4407.7289999970235,completion,,,,,false,,,,97327.59999999404,97327.29999999702,92902.904,92911.89999999106,92919.571,97336.897,8,400,,,
trial,html.Screen,4_2_0,2023-09-11T18:33:01.151Z,,0,1,,4212.502999991062,response,ISIC_9802008.JPG,8,ISIC_4826037.JPG,ISIC_9802008.JPG,false,1,keypress(m),500,101549.70000000298,101549.39999999106,97320.23,97327.79999999702,97336.897,101553.648,8,400,3,,ISIC_4826037.JPG
break,html.Screen,4_2_1,2023-09-11T18:33:01.151Z,,0,,,NaN,,,,,,false,,,,101550.39999999106,101550.20000000298,,101549.79999999702,,101553.648,8,400,,,
break_continue,html.Screen,4_2_2,2023-09-11T18:33:01.152Z,,0,,,NaN,,,,,,false,,,,101550.89999999106,101550.79999999702,,101550.59999999404,,101553.648,8,400,,,
sequence,flow.Sequence,4_2,2023-09-11T18:33:01.152Z,,0,,,4213.902999997023,completion,,,,,false,,,,101551.09999999404,101550.79999999702,97320.23,97327.70000000298,97336.897,101553.648,8,400,,,
trial,html.Screen,4_3_0,2023-09-11T18:33:06.062Z,,0,1,,4906.751999991058,response,ISIC_3696726.JPG,7,ISIC_7161002.JPG,ISIC_7161002.JPG,false,0,keypress(z),500,106460.59999999404,106460.39999999106,101536.981,101551.20000000298,101553.648,106470.413,8,400,4,,ISIC_3696726.JPG
break,html.Screen,4_3_1,2023-09-11T18:33:06.062Z,,0,,,NaN,,,,,,false,,,,106461.39999999106,106461.20000000298,,106460.79999999702,,106470.413,8,400,,,
break_continue,html.Screen,4_3_2,2023-09-11T18:33:06.063Z,,0,,,NaN,,,,,,false,,,,106461.79999999702,106461.79999999702,,106461.5,,106470.413,8,400,,,
sequence,flow.Sequence,4_3,2023-09-11T18:33:06.063Z,,0,,,4908.151999997019,completion,,,,,false,,,,106462.09999999404,106461.79999999702,101536.981,101551.09999999404,101553.648,106470.413,8,400,,,
trial,html.Screen,4_4_0,2023-09-11T18:33:10.310Z,,0,1,,4238.486999991059,response,ISIC_0781380.JPG,6,ISIC_0058529.JPG,ISIC_0058529.JPG,false,0,keypress(z),500,110709.09999999404,110708.89999999106,106453.746,106462.20000000298,106470.413,110721.001,8,400,5,,ISIC_0781380.JPG
break,html.Screen,4_4_1,2023-09-11T18:33:10.311Z,,0,,,NaN,,,,,,false,,,,110709.89999999106,110709.70000000298,,110709.29999999702,,110721.001,8,400,,,
break_continue,html.Screen,4_4_2,2023-09-11T18:33:10.311Z,,0,,,NaN,,,,,,false,,,,110710.29999999702,110710.09999999404,,110710,,110721.001,8,400,,,
sequence,flow.Sequence,4_4,2023-09-11T18:33:10.312Z,,0,,,4239.686999994039,completion,,,,,false,,,,110710.39999999106,110710.09999999404,106453.746,106462.20000000298,106470.413,110721.001,8,400,,,
trial,html.Screen,4_5_0,2023-09-11T18:33:13.885Z,,0,1,,3562.3989999910555,response,ISIC_0030541.JPG,7,ISIC_9801917.JPG,ISIC_0030541.JPG,false,1,keypress(m),500,114283.59999999404,114283.39999999106,110704.334,110710.70000000298,110721.001,114287.739,8,400,6,,ISIC_9801917.JPG
break,html.Screen,4_5_1,2023-09-11T18:33:13.886Z,,0,,,NaN,,,,,,false,,,,114284.5,114284.29999999702,,114283.79999999702,,114287.739,8,400,,,
break_continue,html.Screen,4_5_2,2023-09-11T18:33:13.886Z,,0,,,NaN,,,,,,false,,,,114285,114284.79999999702,,114284.70000000298,,114287.739,8,400,,,
sequence,flow.Sequence,4_5,2023-09-11T18:33:13.886Z,,0,,,3563.798999997016,completion,,,,,false,,,,114285.09999999404,114284.79999999702,110704.334,110710.59999999404,110721.001,114287.739,8,400,,,
trial,html.Screen,4_6_0,2023-09-11T18:33:19.732Z,,0,1,,5842.760999999999,response,ISIC_0010982.JPG,8,ISIC_0033813.JPG,ISIC_0033813.JPG,false,0,keypress(z),500,120130.79999999702,120130.5,114271.072,114285.29999999702,114287.739,120138.478,8,400,7,,ISIC_0010982.JPG
break,html.Screen,4_6_1,2023-09-11T18:33:19.733Z,,0,,,NaN,,,,,,false,,,,120131.5,120131.29999999702,,120130.89999999106,,120138.478,8,400,,,
break_continue,html.Screen,4_6_2,2023-09-11T18:33:19.733Z,,0,,,NaN,,,,,,false,,,,120132,120131.79999999702,,120131.59999999404,,120138.478,8,400,,,
sequence,flow.Sequence,4_6,2023-09-11T18:33:19.733Z,,0,,,5844.060999997018,completion,,,,,false,,,,120132.09999999404,120131.79999999702,114271.072,114285.20000000298,114287.739,120138.478,8,400,,,
trial,html.Screen,4_7_0,2023-09-11T18:33:24.679Z,,0,1,,4938.4219999910565,response,ISIC_0060817.JPG,8,ISIC_0071208.JPG,ISIC_0071208.JPG,false,0,keypress(z),500,125077.20000000298,125076.89999999106,120121.811,120132.29999999702,120138.478,125088.577,8,400,8,,ISIC_0060817.JPG
break,html.Screen,4_7_1,2023-09-11T18:33:24.679Z,,0,,,NaN,,,,,,false,,,,125078,125077.79999999702,,125077.39999999106,,125088.577,8,400,,,
break_continue,html.Screen,4_7_2,2023-09-11T18:33:24.680Z,,0,,,NaN,,,,,,false,,,,125078.39999999106,125078.29999999702,,125078.09999999404,,125088.577,8,400,,,
sequence,flow.Sequence,4_7,2023-09-11T18:33:24.680Z,,0,,,4939.821999997017,completion,,,,,false,,,,125078.59999999404,125078.29999999702,120121.811,120132.29999999702,120138.478,125088.577,8,400,,,
trial,html.Screen,4_8_0,2023-09-11T18:33:28.822Z,,0,1,,4131.922999999995,response,ISIC_0024591.JPG,6,ISIC_1956354.JPG,ISIC_0024591.JPG,false,1,keypress(m),500,129220.70000000298,129220.5,125071.91,125078.79999999702,125088.577,129221.993,8,400,9,,ISIC_1956354.JPG
break,html.Screen,4_8_1,2023-09-11T18:33:28.823Z,,0,,,NaN,,,,,,false,,,,129221.59999999404,129221.39999999106,,129220.89999999106,,129221.993,8,400,,,
break_continue,html.Screen,4_8_2,2023-09-11T18:33:28.824Z,,0,,,NaN,,,,,,false,,,,129222.09999999404,129221.89999999106,,129221.79999999702,,129221.993,8,400,,,
sequence,flow.Sequence,4_8,2023-09-11T18:33:28.824Z,,0,,,4133.3229999910545,completion,,,,,false,,,,129222.29999999702,129221.89999999106,125071.91,125078.70000000298,125088.577,129221.993,8,400,,,
trial,html.Screen,4_9_0,2023-09-11T18:33:33.406Z,,0,1,,4582.207000002978,response,ISIC_7728263.JPG,8,ISIC_2310935.JPG,ISIC_2310935.JPG,false,0,keypress(z),500,133804.39999999106,133804.20000000298,129205.326,129222.5,129221.993,133805.913,8,400,10,,ISIC_7728263.JPG
break,html.Screen,4_9_1,2023-09-11T18:33:33.407Z,,0,,,NaN,,,,,,false,,,,133805.29999999702,133805,,133804.59999999404,,133805.913,8,400,,,
break_continue,html.Screen,4_9_2,2023-09-11T18:33:33.407Z,,0,,,NaN,,,,,,false,,,,133805.70000000298,133805.59999999404,,133805.39999999106,,133805.913,8,400,,,
sequence,flow.Sequence,4_9,2023-09-11T18:33:33.407Z,,0,,,4583.606999994037,completion,,,,,false,,,,133805.89999999106,133805.59999999404,129205.326,129222.39999999106,129221.993,133805.913,8,400,,,
trial,html.Screen,4_10_0,2023-09-11T18:33:38.547Z,,0,1,,5139.186999994039,response,ISIC_0067156.JPG,5,ISIC_0029740.JPG,ISIC_0067156.JPG,false,1,keypress(m),500,138945.29999999702,138945.09999999404,133789.246,133806.09999999404,133805.913,138956.016,8,400,11,,ISIC_0029740.JPG
break,html.Screen,4_10_1,2023-09-11T18:33:38.548Z,,0,,,NaN,,,,,,false,,,,138946.09999999404,138945.79999999702,,138945.5,,138956.016,8,400,,,
break_continue,html.Screen,4_10_2,2023-09-11T18:33:38.548Z,,0,,,NaN,,,,,,false,,,,138946.5,138946.39999999106,,138946.20000000298,,138956.016,8,400,,,
sequence,flow.Sequence,4_10,2023-09-11T18:33:38.548Z,,0,,,5140.486999991059,completion,,,,,false,,,,138946.70000000298,138946.39999999106,133789.246,133806,133805.913,138956.016,8,400,,,
trial,html.Screen,4_11_0,2023-09-11T18:33:42.505Z,,0,1,,3946.7839999970165,response,ISIC_0027838.JPG,7,ISIC_1423737.JPG,ISIC_1423737.JPG,false,0,keypress(z),500,142903.09999999404,142902.79999999702,138939.349,138946.89999999106,138956.016,142906.576,8,400,12,,ISIC_0027838.JPG
break,html.Screen,4_11_1,2023-09-11T18:33:42.506Z,,0,,,NaN,,,,,,false,,,,142903.89999999106,142903.70000000298,,142903.20000000298,,142906.576,8,400,,,
break_continue,html.Screen,4_11_2,2023-09-11T18:33:42.506Z,,0,,,NaN,,,,,,false,,,,142904.29999999702,142904.09999999404,,142903.89999999106,,142906.576,8,400,,,
sequence,flow.Sequence,4_11,2023-09-11T18:33:42.506Z,,0,,,3948.0839999940363,completion,,,,,false,,,,142904.5,142904.09999999404,138939.349,138946.79999999702,138956.016,142906.576,8,400,,,
trial,html.Screen,4_12_0,2023-09-11T18:33:46.471Z,,0,1,,3962.223999997019,response,ISIC_0033905.JPG,8,ISIC_1490986.JPG,ISIC_1490986.JPG,false,0,keypress(z),500,146869.09999999404,146868.79999999702,142889.909,142904.59999999404,142906.576,146873.322,8,400,13,,ISIC_0033905.JPG
break,html.Screen,4_12_1,2023-09-11T18:33:46.472Z,,0,,,NaN,,,,,,false,,,,146869.89999999106,146869.79999999702,,146869.29999999702,,146873.322,8,400,,,
break_continue,html.Screen,4_12_2,2023-09-11T18:33:46.472Z,,0,,,NaN,,,,,,false,,,,146870.39999999106,146870.29999999702,,146870.09999999404,,146873.322,8,400,,,
sequence,flow.Sequence,4_12,2023-09-11T18:33:46.472Z,,0,,,3963.723999997019,completion,,,,,false,,,,146870.5,146870.29999999702,142889.909,142904.59999999404,142906.576,146873.322,8,400,,,
trial,html.Screen,4_13_0,2023-09-11T18:33:50.175Z,,0,1,,3699.1780000000144,response,ISIC_0010094.JPG,7,ISIC_0063028.JPG,ISIC_0010094.JPG,false,1,keypress(m),500,150572.70000000298,150572.5,146856.655,146870.70000000298,146873.322,150590.063,8,400,14,,ISIC_0063028.JPG
break,html.Screen,4_13_1,2023-09-11T18:33:50.176Z,,0,,,NaN,,,,,,false,,,,150573.59999999404,150573.29999999702,,150573,,150590.063,8,400,,,
break_continue,html.Screen,4_13_2,2023-09-11T18:33:50.176Z,,0,,,NaN,,,,,,false,,,,150574.09999999404,150573.89999999106,,150573.70000000298,,150590.063,8,400,,,
sequence,flow.Sequence,4_13,2023-09-11T18:33:50.176Z,,0,,,3700.5779999910737,completion,,,,,false,,,,150574.29999999702,150573.89999999106,146856.655,146870.70000000298,146873.322,150590.063,8,400,,,
trial,html.Screen,4_14_0,2023-09-11T18:33:54.261Z,,0,1,,4069.1370000029856,response,ISIC_3728352.JPG,7,ISIC_3730327.JPG,ISIC_3730327.JPG,false,0,keypress(z),500,154659.5,154659.20000000298,150573.396,150574.39999999106,150590.063,154674,8,400,15,,ISIC_3728352.JPG
break,html.Screen,4_14_1,2023-09-11T18:33:54.262Z,,0,,,NaN,,,,,,false,,,,154660.29999999702,154660.09999999404,,154659.70000000298,,154674,8,400,,,
break_continue,html.Screen,4_14_2,2023-09-11T18:33:54.263Z,,0,,,NaN,,,,,,false,,,,154660.70000000298,154660.59999999404,,154660.39999999106,,154674,8,400,,,
sequence,flow.Sequence,4_14,2023-09-11T18:33:54.263Z,,0,,,4070.536999994045,completion,,,,,false,,,,154660.89999999106,154660.59999999404,150573.396,150574.39999999106,150590.063,154674,8,400,,,
trial,html.Screen,4_15_0,2023-09-11T18:33:59.834Z,,0,1,,5557.899999991059,response,ISIC_8023705.JPG,6,ISIC_3058800.JPG,ISIC_3058800.JPG,false,0,keypress(z),500,160232.09999999404,160231.89999999106,154657.333,154661.09999999404,154674,160240.778,8,400,16,,ISIC_8023705.JPG
break,html.Screen,4_15_1,2023-09-11T18:33:59.835Z,,0,,,NaN,,,,,,false,,,,160232.89999999106,160232.70000000298,,160232.29999999702,,160240.778,8,400,,,
break_continue,html.Screen,4_15_2,2023-09-11T18:33:59.835Z,,0,,,NaN,,,,,,false,,,,160233.29999999702,160233.20000000298,,160233.09999999404,,160240.778,8,400,,,
sequence,flow.Sequence,4_15,2023-09-11T18:33:59.836Z,,0,,,5559.20000000298,completion,,,,,false,,,,160233.59999999404,160233.20000000298,154657.333,154661.09999999404,154674,160240.778,8,400,,,
trial,html.Screen,4_16_0,2023-09-11T18:34:06.207Z,,0,1,,6363.821999994048,response,ISIC_0062087.JPG,5,ISIC_9668514.JPG,ISIC_9668514.JPG,false,0,keypress(z),500,166604.79999999702,166604.59999999404,160224.111,160233.70000000298,160240.778,166608.114,8,400,17,,ISIC_0062087.JPG
break,html.Screen,4_16_1,2023-09-11T18:34:06.208Z,,0,,,NaN,,,,,,false,,,,166605.59999999404,166605.39999999106,,166605,,166608.114,8,400,,,
break_continue,html.Screen,4_16_2,2023-09-11T18:34:06.208Z,,0,,,NaN,,,,,,false,,,,166606.09999999404,166605.89999999106,,166605.79999999702,,166608.114,8,400,,,
sequence,flow.Sequence,4_16,2023-09-11T18:34:06.208Z,,0,,,6365.121999991068,completion,,,,,false,,,,166606.29999999702,166605.89999999106,160224.111,160233.70000000298,160240.778,166608.114,8,400,,,
trial,html.Screen,4_17_0,2023-09-11T18:34:11.127Z,,0,1,,4916.086000002979,response,ISIC_7210296.JPG,9,ISIC_0169604.JPG,ISIC_0169604.JPG,false,0,keypress(z),500,171524.39999999106,171524.20000000298,166591.447,166606.39999999106,166608.114,171541.546,8,400,18,,ISIC_7210296.JPG
break,html.Screen,4_17_1,2023-09-11T18:34:11.127Z,,0,,,NaN,,,,,,false,,,,171525.20000000298,171525,,171524.59999999404,,171541.546,8,400,,,
break_continue,html.Screen,4_17_2,2023-09-11T18:34:11.128Z,,0,,,NaN,,,,,,false,,,,171525.59999999404,171525.5,,171525.29999999702,,171541.546,8,400,,,
sequence,flow.Sequence,4_17,2023-09-11T18:34:11.128Z,,0,,,4917.385999999999,completion,,,,,false,,,,171525.79999999702,171525.5,166591.447,166606.29999999702,166608.114,171541.546,8,400,,,
trial,html.Screen,4_18_0,2023-09-11T18:34:16.700Z,,0,1,,5555.953999999998,response,ISIC_1869829.JPG,7,ISIC_0653633.JPG,ISIC_1869829.JPG,false,1,keypress(m),500,177097.70000000298,177097.5,171524.879,171526,171541.546,177108.809,8,400,19,,ISIC_0653633.JPG
break,html.Screen,4_18_1,2023-09-11T18:34:16.701Z,,0,,,NaN,,,,,,false,,,,177098.39999999106,177098.20000000298,,177097.79999999702,,177108.809,8,400,,,
break_continue,html.Screen,4_18_2,2023-09-11T18:34:16.701Z,,0,,,NaN,,,,,,false,,,,177098.70000000298,177098.59999999404,,177098.5,,177108.809,8,400,,,
sequence,flow.Sequence,4_18,2023-09-11T18:34:16.701Z,,0,,,5557.053999994037,completion,,,,,false,,,,177098.79999999702,177098.59999999404,171524.879,171525.89999999106,171541.546,177108.809,8,400,,,
trial,html.Screen,4_19_0,2023-09-11T18:34:19.999Z,,0,1,,3287.590999991051,response,ISIC_8960223.JPG,5,ISIC_8423248.JPG,ISIC_8423248.JPG,false,0,keypress(z),500,180396.5,180396.39999999106,177092.142,177099,177108.809,180408.875,8,400,20,,ISIC_8960223.JPG
break,html.Screen,4_19_1,2023-09-11T18:34:20.000Z,,0,,,NaN,,,,,,false,,,,180397.39999999106,180397.09999999404,,180396.79999999702,,180408.875,8,400,,,
break_continue,html.Screen,4_19_2,2023-09-11T18:34:20.000Z,,0,,,NaN,,,,,,false,,,,180397.89999999106,180397.70000000298,,180397.5,,180408.875,8,400,,,
sequence,flow.Sequence,4_19,2023-09-11T18:34:20.001Z,,0,,,3288.891000002972,completion,,,,,false,,,,180398.09999999404,180397.70000000298,177092.142,177098.89999999106,177108.809,180408.875,8,400,,,
trial,html.Screen,4_20_0,2023-09-11T18:34:23.843Z,,0,1,,3831.0249999910593,response,ISIC_0002162.JPG,8,ISIC_6132976.JPG,ISIC_0002162.JPG,false,1,keypress(m),500,184240.09999999404,184239.89999999106,180392.208,180398.20000000298,180408.875,184242.827,8,400,21,,ISIC_6132976.JPG
break,html.Screen,4_20_1,2023-09-11T18:34:23.843Z,,0,,,NaN,,,,,,false,,,,184240.89999999106,184240.70000000298,,184240.29999999702,,184242.827,8,400,,,
break_continue,html.Screen,4_20_2,2023-09-11T18:34:23.844Z,,0,,,NaN,,,,,,false,,,,184241.29999999702,184241.20000000298,,184241,,184242.827,8,400,,,
sequence,flow.Sequence,4_20,2023-09-11T18:34:23.844Z,,0,,,3832.3250000029802,completion,,,,,false,,,,184241.5,184241.20000000298,180392.208,180398.09999999404,180408.875,184242.827,8,400,,,
trial,html.Screen,4_21_0,2023-09-11T18:34:27.312Z,,0,1,,3466.7729999940493,response,ISIC_7429127.JPG,8,ISIC_0027130.JPG,ISIC_7429127.JPG,false,1,keypress(m),500,187709.89999999106,187709.59999999404,184226.16,184241.70000000298,184242.827,187726.23,8,400,22,,ISIC_0027130.JPG
break,html.Screen,4_21_1,2023-09-11T18:34:27.313Z,,0,,,NaN,,,,,,false,,,,187710.59999999404,187710.5,,187710.09999999404,,187726.23,8,400,,,
break_continue,html.Screen,4_21_2,2023-09-11T18:34:27.314Z,,0,,,NaN,,,,,,false,,,,187711.09999999404,187711,,187710.79999999702,,187726.23,8,400,,,
sequence,flow.Sequence,4_21,2023-09-11T18:34:27.314Z,,0,,,3468.17300000001,completion,,,,,false,,,,187711.20000000298,187711,184226.16,184241.70000000298,184242.827,187726.23,8,400,,,
trial,html.Screen,4_22_0,2023-09-11T18:34:31.576Z,,0,1,,4247.169999991049,response,ISIC_0068106.JPG,8,ISIC_0210282.JPG,ISIC_0210282.JPG,false,0,keypress(z),500,191973.70000000298,191973.39999999106,187709.563,187711.39999999106,187726.23,191976.315,8,400,23,,ISIC_0068106.JPG
break,html.Screen,4_22_1,2023-09-11T18:34:31.577Z,,0,,,NaN,,,,,,false,,,,191974.39999999106,191974.20000000298,,191973.89999999106,,191976.315,8,400,,,
break_continue,html.Screen,4_22_2,2023-09-11T18:34:31.578Z,,0,,,NaN,,,,,,false,,,,191975,191974.79999999702,,191974.59999999404,,191976.315,8,400,,,
sequence,flow.Sequence,4_22,2023-09-11T18:34:31.578Z,,0,,,4248.569999997009,completion,,,,,false,,,,191975.09999999404,191974.79999999702,187709.563,187711.39999999106,187726.23,191976.315,8,400,,,
trial,html.Screen,4_23_0,2023-09-11T18:34:35.687Z,,0,1,,4107.684999999998,response,ISIC_0024961.JPG,7,ISIC_0034159.JPG,ISIC_0024961.JPG,false,1,keypress(m),500,196084.29999999702,196084,191959.648,191975.39999999106,191976.315,196093.537,8,400,24,,ISIC_0034159.JPG
break,html.Screen,4_23_1,2023-09-11T18:34:35.688Z,,0,,,NaN,,,,,,false,,,,196085.20000000298,196084.89999999106,,196084.5,,196093.537,8,400,,,
break_continue,html.Screen,4_23_2,2023-09-11T18:34:35.688Z,,0,,,NaN,,,,,,false,,,,196085.59999999404,196085.5,,196085.29999999702,,196093.537,8,400,,,
sequence,flow.Sequence,4_23,2023-09-11T18:34:35.689Z,,0,,,4109.184999999998,completion,,,,,false,,,,196085.79999999702,196085.5,191959.648,191975.29999999702,191976.315,196093.537,8,400,,,
trial,html.Screen,4_24_0,2023-09-11T18:34:40.073Z,,0,1,,4376.562999994028,response,ISIC_0070888.JPG,7,ISIC_0064860.JPG,ISIC_0064860.JPG,false,0,keypress(z),500,200470.39999999106,200470.09999999404,196076.87,196086,196093.537,200476.958,8,400,25,,ISIC_0070888.JPG
break,html.Screen,4_24_1,2023-09-11T18:34:40.074Z,,0,,,NaN,,,,,,false,,,,200471.20000000298,200471,,200470.59999999404,,200476.958,8,400,,,
break_continue,html.Screen,4_24_2,2023-09-11T18:34:40.074Z,,0,,,NaN,,,,,,false,,,,200471.59999999404,200471.5,,200471.29999999702,,200476.958,8,400,,,
sequence,flow.Sequence,4_24,2023-09-11T18:34:40.075Z,,0,,,4377.962999999989,completion,,,,,false,,,,200471.70000000298,200471.5,196076.87,196085.89999999106,196093.537,200476.958,8,400,,,
trial,html.Screen,4_25_0,2023-09-11T18:34:43.672Z,,0,1,,3591.6419999940263,response,ISIC_0061152.JPG,8,ISIC_0010915.JPG,ISIC_0061152.JPG,false,1,keypress(m),500,204068.89999999106,204068.59999999404,200460.291,200471.89999999106,200476.958,204077.518,8,400,26,,ISIC_0010915.JPG
break,html.Screen,4_25_1,2023-09-11T18:34:43.673Z,,0,,,NaN,,,,,,false,,,,204069.59999999404,204069.39999999106,,204069,,204077.518,8,400,,,
break_continue,html.Screen,4_25_2,2023-09-11T18:34:43.673Z,,0,,,NaN,,,,,,false,,,,204070.09999999404,204069.89999999106,,204069.79999999702,,204077.518,8,400,,,
sequence,flow.Sequence,4_25,2023-09-11T18:34:43.673Z,,0,,,3592.941999991046,completion,,,,,false,,,,204070.20000000298,204069.89999999106,200460.291,200471.89999999106,200476.958,204077.518,8,400,,,
trial,html.Screen,4_26_0,2023-09-11T18:34:48.736Z,,0,1,,5055.581999994029,response,ISIC_9876004.JPG,9,ISIC_0008114.JPG,ISIC_9876004.JPG,false,1,keypress(m),500,209133.29999999702,209133.09999999404,204060.851,204070.29999999702,204077.518,209144.286,8,400,27,,ISIC_0008114.JPG
break,html.Screen,4_26_1,2023-09-11T18:34:48.737Z,,0,,,NaN,,,,,,false,,,,209134.09999999404,209133.89999999106,,209133.59999999404,,209144.286,8,400,,,
break_continue,html.Screen,4_26_2,2023-09-11T18:34:48.739Z,,0,,,NaN,,,,,,false,,,,209135.89999999106,209135.70000000298,,209135.39999999106,,209144.286,8,400,,,
sequence,flow.Sequence,4_26,2023-09-11T18:34:48.739Z,,0,,,5058.182000002969,completion,,,,,false,,,,209136.20000000298,209135.70000000298,204060.851,204070.29999999702,204077.518,209144.286,8,400,,,
trial,html.Screen,4_27_0,2023-09-11T18:34:53.810Z,,0,1,,5062.414000002987,response,ISIC_0028984.JPG,6,ISIC_3391427.JPG,ISIC_3391427.JPG,false,0,keypress(z),500,214206.89999999106,214206.70000000298,209127.619,209136.29999999702,209144.286,214211.533,8,400,28,,ISIC_0028984.JPG
break,html.Screen,4_27_1,2023-09-11T18:34:53.811Z,,0,,,NaN,,,,,,false,,,,214207.70000000298,214207.5,,214207.09999999404,,214211.533,8,400,,,
break_continue,html.Screen,4_27_2,2023-09-11T18:34:53.811Z,,0,,,NaN,,,,,,false,,,,214208.09999999404,214207.89999999106,,214207.79999999702,,214211.533,8,400,,,
sequence,flow.Sequence,4_27,2023-09-11T18:34:53.811Z,,0,,,5063.6139999910665,completion,,,,,false,,,,214208.29999999702,214207.89999999106,209127.619,209136.29999999702,209144.286,214211.533,8,400,,,
trial,html.Screen,4_28_0,2023-09-11T18:34:57.574Z,,0,1,,3758.8669999910635,response,ISIC_9141065.JPG,7,ISIC_0640770.JPG,ISIC_9141065.JPG,false,1,keypress(m),500,217970.59999999404,217970.39999999106,214194.866,214208.39999999106,214211.533,217978.275,8,400,29,,ISIC_0640770.JPG
break,html.Screen,4_28_1,2023-09-11T18:34:57.575Z,,0,,,NaN,,,,,,false,,,,217971.29999999702,217971.20000000298,,217970.79999999702,,217978.275,8,400,,,
break_continue,html.Screen,4_28_2,2023-09-11T18:34:57.575Z,,0,,,NaN,,,,,,false,,,,217971.79999999702,217971.59999999404,,217971.5,,217978.275,8,400,,,
sequence,flow.Sequence,4_28,2023-09-11T18:34:57.575Z,,0,,,3760.0669999940437,completion,,,,,false,,,,217972.09999999404,217971.59999999404,214194.866,214208.39999999106,214211.533,217978.275,8,400,,,
trial,html.Screen,4_29_0,2023-09-11T18:35:01.952Z,,0,1,,4370.425000002986,response,ISIC_0033621.JPG,8,ISIC_3750329.JPG,ISIC_0033621.JPG,false,1,keypress(m),500,222348.79999999702,222348.70000000298,217961.608,217972.20000000298,217978.275,222361.696,8,400,30,,ISIC_3750329.JPG
break,html.Screen,4_29_1,2023-09-11T18:35:01.953Z,,0,,,NaN,,,,,,false,,,,222349.59999999404,222349.39999999106,,222349,,222361.696,8,400,,,
break_continue,html.Screen,4_29_2,2023-09-11T18:35:01.953Z,,0,,,NaN,,,,,,false,,,,222350,222349.89999999106,,222349.70000000298,,222361.696,8,400,,,
sequence,flow.Sequence,4_29,2023-09-11T18:35:01.954Z,,0,,,4371.624999991065,completion,,,,,false,,,,222350.20000000298,222349.89999999106,217961.608,217972.20000000298,217978.275,222361.696,8,400,,,
trial,html.Screen,4_30_0,2023-09-11T18:35:05.153Z,,0,1,,3188.004000002984,response,ISIC_0010503.JPG,10,ISIC_0067274.JPG,ISIC_0067274.JPG,false,0,keypress(z),500,225550,225549.70000000298,222345.029,222350.39999999106,222361.696,225562.339,8,400,31,,ISIC_0010503.JPG
break,html.Screen,4_30_1,2023-09-11T18:35:05.154Z,,0,,,NaN,,,,,,false,,,,225550.70000000298,225550.59999999404,,225550.09999999404,,225562.339,8,400,,,
break_continue,html.Screen,4_30_2,2023-09-11T18:35:05.154Z,,0,,,NaN,,,,,,false,,,,225551.09999999404,225551,,225550.79999999702,,225562.339,8,400,,,
sequence,flow.Sequence,4_30,2023-09-11T18:35:05.155Z,,0,,,3189.3040000000037,completion,,,,,false,,,,225551.29999999702,225551,222345.029,222350.29999999702,222361.696,225562.339,8,400,,,
trial,html.Screen,4_31_0,2023-09-11T18:35:08.774Z,,0,1,,3607.7609999940323,response,ISIC_0024683.JPG,7,ISIC_0027936.JPG,ISIC_0024683.JPG,false,1,keypress(m),500,229170.29999999702,229170.09999999404,225545.672,225551.5,225562.339,229179.078,8,400,32,,ISIC_0027936.JPG
break,html.Screen,4_31_1,2023-09-11T18:35:08.775Z,,0,,,NaN,,,,,,false,,,,229171.09999999404,229170.89999999106,,229170.59999999404,,229179.078,8,400,,,
break_continue,html.Screen,4_31_2,2023-09-11T18:35:08.775Z,,0,,,NaN,,,,,,false,,,,229171.59999999404,229171.5,,229171.20000000298,,229179.078,8,400,,,
sequence,flow.Sequence,4_31,2023-09-11T18:35:08.775Z,,0,,,3609.160999999993,completion,,,,,false,,,,229171.79999999702,229171.5,225545.672,225551.39999999106,225562.339,229179.078,8,400,,,
trial,html.Screen,4_32_0,2023-09-11T18:35:12.833Z,,0,1,,4050.1220000029716,response,ISIC_4076162.JPG,6,ISIC_2136533.JPG,ISIC_4076162.JPG,false,1,keypress(m),500,233229.39999999106,233229.20000000298,229162.411,229171.89999999106,229179.078,233245.826,8,400,33,,ISIC_2136533.JPG
break,html.Screen,4_32_1,2023-09-11T18:35:12.834Z,,0,,,NaN,,,,,,false,,,,233230.20000000298,233229.89999999106,,233229.59999999404,,233245.826,8,400,,,
break_continue,html.Screen,4_32_2,2023-09-11T18:35:12.834Z,,0,,,NaN,,,,,,false,,,,233230.59999999404,233230.39999999106,,233230.39999999106,,233245.826,8,400,,,
sequence,flow.Sequence,4_32,2023-09-11T18:35:12.834Z,,0,,,4051.3219999910507,completion,,,,,false,,,,233230.79999999702,233230.39999999106,229162.411,229171.89999999106,229179.078,233245.826,8,400,,,
trial,html.Screen,4_33_0,2023-09-11T18:35:15.671Z,,0,1,,2821.673999999999,response,ISIC_0013707.JPG,7,ISIC_6824842.JPG,ISIC_6824842.JPG,false,0,keypress(z),500,236067.79999999702,236067.5,233229.159,233231,233245.826,236079.752,8,400,34,,ISIC_0013707.JPG
break,html.Screen,4_33_1,2023-09-11T18:35:15.672Z,,0,,,NaN,,,,,,false,,,,236068.39999999106,236068.29999999702,,236068,,236079.752,8,400,,,
break_continue,html.Screen,4_33_2,2023-09-11T18:35:15.672Z,,0,,,NaN,,,,,,false,,,,236069,236068.70000000298,,236068.59999999404,,236079.752,8,400,,,
sequence,flow.Sequence,4_33,2023-09-11T18:35:15.673Z,,0,,,2822.8740000029793,completion,,,,,false,,,,236069.09999999404,236068.70000000298,233229.159,233230.89999999106,233245.826,236079.752,8,400,,,
trial,html.Screen,4_34_0,2023-09-11T18:35:21.595Z,,0,1,,5911.047999997012,response,ISIC_0238824.JPG,8,ISIC_0028410.JPG,ISIC_0028410.JPG,false,0,keypress(z),500,241991.09999999404,241990.79999999702,236063.085,236069.20000000298,236079.752,241996.537,8,400,35,,ISIC_0238824.JPG
break,html.Screen,4_34_1,2023-09-11T18:35:21.596Z,,0,,,NaN,,,,,,false,,,,241991.89999999106,241991.70000000298,,241991.29999999702,,241996.537,8,400,,,
break_continue,html.Screen,4_34_2,2023-09-11T18:35:21.596Z,,0,,,NaN,,,,,,false,,,,241992.39999999106,241992.20000000298,,241992.09999999404,,241996.537,8,400,,,
sequence,flow.Sequence,4_34,2023-09-11T18:35:21.596Z,,0,,,5912.448000002973,completion,,,,,false,,,,241992.59999999404,241992.20000000298,236063.085,236069.20000000298,236079.752,241996.537,8,400,,,
trial,html.Screen,4_35_0,2023-09-11T18:35:25.114Z,,0,1,,3512.962999999989,response,ISIC_0003168.JPG,5,ISIC_2366172.JPG,ISIC_0003168.JPG,false,1,keypress(m),500,245509.79999999702,245509.5,241979.87,241992.70000000298,241996.537,245513.764,8,400,36,,ISIC_2366172.JPG
break,html.Screen,4_35_1,2023-09-11T18:35:25.114Z,,0,,,NaN,,,,,,false,,,,245510.59999999404,245510.39999999106,,245510,,245513.764,8,400,,,
break_continue,html.Screen,4_35_2,2023-09-11T18:35:25.115Z,,0,,,NaN,,,,,,false,,,,245511,245510.89999999106,,245510.79999999702,,245513.764,8,400,,,
sequence,flow.Sequence,4_35,2023-09-11T18:35:25.115Z,,0,,,3514.362999991048,completion,,,,,false,,,,245511.20000000298,245510.89999999106,241979.87,241992.59999999404,241996.537,245513.764,8,400,,,
trial,html.Screen,4_36_0,2023-09-11T18:35:29.088Z,,0,1,,3969.9360000029847,response,ISIC_8613657.JPG,9,ISIC_6813359.JPG,ISIC_6813359.JPG,false,0,keypress(z),500,249484,249483.70000000298,245497.097,245511.39999999106,245513.764,249497.177,8,400,37,,ISIC_8613657.JPG
break,html.Screen,4_36_1,2023-09-11T18:35:29.088Z,,0,,,NaN,,,,,,false,,,,249484.70000000298,249484.5,,249484.20000000298,,249497.177,8,400,,,
break_continue,html.Screen,4_36_2,2023-09-11T18:35:29.089Z,,0,,,NaN,,,,,,false,,,,249485.20000000298,249485,,249484.89999999106,,249497.177,8,400,,,
sequence,flow.Sequence,4_36,2023-09-11T18:35:29.089Z,,0,,,3971.2360000000044,completion,,,,,false,,,,249485.39999999106,249485,245497.097,245511.39999999106,245513.764,249497.177,8,400,,,
trial,html.Screen,4_37_0,2023-09-11T18:35:32.036Z,,0,1,,2934.6229999970237,response,ISIC_0033419.JPG,7,ISIC_0057655.JPG,ISIC_0057655.JPG,false,0,keypress(z),500,252432,252431.79999999702,249480.51,249485.5,249497.177,252447.236,8,400,38,,ISIC_0033419.JPG
break,html.Screen,4_37_1,2023-09-11T18:35:32.037Z,,0,,,NaN,,,,,,false,,,,252432.89999999106,252432.59999999404,,252432.29999999702,,252447.236,8,400,,,
break_continue,html.Screen,4_37_2,2023-09-11T18:35:32.037Z,,0,,,NaN,,,,,,false,,,,252433.29999999702,252433.09999999404,,252432.89999999106,,252447.236,8,400,,,
sequence,flow.Sequence,4_37,2023-09-11T18:35:32.037Z,,0,,,2935.9229999940435,completion,,,,,false,,,,252433.5,252433.09999999404,249480.51,249485.39999999106,249497.177,252447.236,8,400,,,
trial,html.Screen,4_38_0,2023-09-11T18:35:35.642Z,,0,1,,3590.2639999999956,response,ISIC_0056793.JPG,8,ISIC_0031221.JPG,ISIC_0031221.JPG,false,0,keypress(z),500,256037.79999999702,256037.5,252430.569,252433.59999999404,252447.236,256047.84,8,400,39,,ISIC_0056793.JPG
break,html.Screen,4_38_1,2023-09-11T18:35:35.642Z,,0,,,NaN,,,,,,false,,,,256038.59999999404,256038.29999999702,,256037.89999999106,,256047.84,8,400,,,
break_continue,html.Screen,4_38_2,2023-09-11T18:35:35.643Z,,0,,,NaN,,,,,,false,,,,256039,256038.79999999702,,256038.59999999404,,256047.84,8,400,,,
sequence,flow.Sequence,4_38,2023-09-11T18:35:35.643Z,,0,,,3591.5639999970153,completion,,,,,false,,,,256039.20000000298,256038.79999999702,252430.569,252433.59999999404,252447.236,256047.84,8,400,,,
trial,html.Screen,4_39_0,2023-09-11T18:35:39.873Z,,0,1,,4221.259999994043,response,ISIC_0026115.JPG,7,ISIC_0011810.JPG,ISIC_0011810.JPG,false,0,keypress(z),500,260269.29999999702,260269.09999999404,256031.173,256039.39999999106,256047.84,260281.258,8,400,40,,ISIC_0026115.JPG
break,html.Screen,4_39_1,2023-09-11T18:35:39.874Z,,0,,,NaN,,,,,,false,,,,260270.09999999404,260269.89999999106,,260269.59999999404,,260281.258,8,400,,,
break_continue,html.Screen,4_39_2,2023-09-11T18:35:39.875Z,,0,,,NaN,,,,,,false,,,,260270.5,260270.39999999106,,260270.29999999702,,260281.258,8,400,,,
sequence,flow.Sequence,4_39,2023-09-11T18:35:39.875Z,,0,,,4222.559999991063,completion,,,,,false,,,,260270.70000000298,260270.39999999106,256031.173,256039.29999999702,256047.84,260281.258,8,400,,,
trial,html.Screen,4_40_0,2023-09-11T18:35:42.881Z,,0,1,,2995.041999997018,response,ISIC_4699989.JPG,7,ISIC_0000030.JPG,ISIC_4699989.JPG,false,1,keypress(m),500,263276.5,263276.299999997,260264.591,260270.89999999106,260281.258,263281.318,8,400,41,,ISIC_0000030.JPG
break,html.Screen,4_40_1,2023-09-11T18:35:42.881Z,,0,,,NaN,,,,,,false,,,,263277.200000003,263277.09999999404,,263276.700000003,,263281.318,8,400,,,
break_continue,html.Screen,4_40_2,2023-09-11T18:35:42.882Z,,0,,,NaN,,,,,,false,,,,263277.700000003,263277.5,,263277.39999999106,,263281.318,8,400,,,
sequence,flow.Sequence,4_40,2023-09-11T18:35:42.882Z,,0,,,2996.2419999999984,completion,,,,,false,,,,263277.89999999106,263277.5,260264.591,260270.89999999106,260281.258,263281.318,8,400,,,
trial,html.Screen,4_41_0,2023-09-11T18:35:46.103Z,,0,1,,3216.882000002952,response,ISIC_0026560.JPG,7,ISIC_4136663.JPG,ISIC_0026560.JPG,false,1,keypress(m),500,266498.39999999106,266498.200000003,263264.651,263278,263281.318,266515.249,8,400,42,,ISIC_4136663.JPG
break,html.Screen,4_41_1,2023-09-11T18:35:46.103Z,,0,,,NaN,,,,,,false,,,,266499.299999997,266499.09999999404,,266498.799999997,,266515.249,8,400,,,
break_continue,html.Screen,4_41_2,2023-09-11T18:35:46.104Z,,0,,,NaN,,,,,,false,,,,266499.700000003,266499.59999999404,,266499.39999999106,,266515.249,8,400,,,
sequence,flow.Sequence,4_41,2023-09-11T18:35:46.104Z,,0,,,3218.281999994011,completion,,,,,false,,,,266499.89999999106,266499.59999999404,263264.651,263278,263281.318,266515.249,8,400,,,
trial,html.Screen,4_42_0,2023-09-11T18:35:49.138Z,,0,1,,3018.2509999999893,response,ISIC_0033073.JPG,7,ISIC_0063871.JPG,ISIC_0033073.JPG,false,1,keypress(m),500,269533.799999997,269533.5,266498.582,266500,266515.249,269548.643,8,400,43,,ISIC_0063871.JPG
break,html.Screen,4_42_1,2023-09-11T18:35:49.139Z,,0,,,NaN,,,,,,false,,,,269534.59999999404,269534.39999999106,,269534,,269548.643,8,400,,,
break_continue,html.Screen,4_42_2,2023-09-11T18:35:49.139Z,,0,,,NaN,,,,,,false,,,,269535.09999999404,269534.89999999106,,269534.700000003,,269548.643,8,400,,,
sequence,flow.Sequence,4_42,2023-09-11T18:35:49.139Z,,0,,,3019.6509999910486,completion,,,,,false,,,,269535.200000003,269534.89999999106,266498.582,266500,266515.249,269548.643,8,400,,,
trial,html.Screen,4_43_0,2023-09-11T18:35:53.158Z,,0,1,,4005.156999997038,response,ISIC_0032858.JPG,8,ISIC_9498942.JPG,ISIC_0032858.JPG,false,1,keypress(m),500,273554,273553.799999997,269531.976,269535.299999997,269548.643,273565.39,8,400,44,,ISIC_9498942.JPG
break,html.Screen,4_43_1,2023-09-11T18:35:53.159Z,,0,,,NaN,,,,,,false,,,,273554.89999999106,273554.59999999404,,273554.200000003,,273565.39,8,400,,,
break_continue,html.Screen,4_43_2,2023-09-11T18:35:53.160Z,,0,,,NaN,,,,,,false,,,,273555.39999999106,273555.200000003,,273555.09999999404,,273565.39,8,400,,,
sequence,flow.Sequence,4_43,2023-09-11T18:35:53.160Z,,0,,,4006.5570000029984,completion,,,,,false,,,,273555.59999999404,273555.200000003,269531.976,269535.299999997,269548.643,273565.39,8,400,,,
trial,html.Screen,4_44_0,2023-09-11T18:35:58.077Z,,0,1,,4907.509999991045,response,ISIC_0973194.JPG,7,ISIC_1057521.JPG,ISIC_0973194.JPG,false,1,keypress(m),500,278473.09999999404,278472.89999999106,273548.723,273555.700000003,273565.39,278482.65,8,400,45,,ISIC_1057521.JPG
break,html.Screen,4_44_1,2023-09-11T18:35:58.078Z,,0,,,NaN,,,,,,false,,,,278473.799999997,278473.59999999404,,278473.299999997,,278482.65,8,400,,,
break_continue,html.Screen,4_44_2,2023-09-11T18:35:58.079Z,,0,,,NaN,,,,,,false,,,,278474.299999997,278474.09999999404,,278474,,278482.65,8,400,,,
sequence,flow.Sequence,4_44,2023-09-11T18:35:58.079Z,,0,,,4908.709999994026,completion,,,,,false,,,,278474.5,278474.09999999404,273548.723,273555.59999999404,273565.39,278482.65,8,400,,,
trial,html.Screen,4_45_0,2023-09-11T18:36:00.836Z,,0,1,,2748.550000002957,response,ISIC_1368336.JPG,6,ISIC_0055526.JPG,ISIC_1368336.JPG,false,1,keypress(m),500,281231.39999999106,281231.200000003,278465.983,278474.59999999404,278482.65,281232.705,8,400,46,,ISIC_0055526.JPG
break,html.Screen,4_45_1,2023-09-11T18:36:00.837Z,,0,,,NaN,,,,,,false,,,,281232.09999999404,281232,,281231.59999999404,,281232.705,8,400,,,
break_continue,html.Screen,4_45_2,2023-09-11T18:36:00.837Z,,0,,,NaN,,,,,,false,,,,281232.700000003,281232.5,,281232.299999997,,281232.705,8,400,,,
sequence,flow.Sequence,4_45,2023-09-11T18:36:00.837Z,,0,,,2749.8499999999767,completion,,,,,false,,,,281232.799999997,281232.5,278465.983,278474.59999999404,278482.65,281232.705,8,400,,,
trial,html.Screen,4_46_0,2023-09-11T18:36:03.715Z,,0,1,,2877.694999991043,response,ISIC_4521222.JPG,7,ISIC_0028352.JPG,ISIC_4521222.JPG,false,1,keypress(m),500,284110.59999999404,284110.39999999106,281216.038,281233,281232.705,284116.096,8,400,47,,ISIC_0028352.JPG
break,html.Screen,4_46_1,2023-09-11T18:36:03.716Z,,0,,,NaN,,,,,,false,,,,284111.39999999106,284111.09999999404,,284110.799999997,,284116.096,8,400,,,
break_continue,html.Screen,4_46_2,2023-09-11T18:36:03.716Z,,0,,,NaN,,,,,,false,,,,284111.799999997,284111.700000003,,284111.5,,284116.096,8,400,,,
sequence,flow.Sequence,4_46,2023-09-11T18:36:03.716Z,,0,,,2878.995000002964,completion,,,,,false,,,,284112,284111.700000003,281216.038,281232.89999999106,281232.705,284116.096,8,400,,,
trial,html.Screen,4_47_0,2023-09-11T18:36:07.866Z,,0,1,,4144.90399999998,response,ISIC_4604654.JPG,7,ISIC_6705966.JPG,ISIC_4604654.JPG,false,1,keypress(m),500,288261.200000003,288261,284099.429,284112.09999999404,284116.096,288266.645,8,400,48,,ISIC_6705966.JPG
break,html.Screen,4_47_1,2023-09-11T18:36:07.866Z,,0,,,NaN,,,,,,false,,,,288262,288261.799999997,,288261.39999999106,,288266.645,8,400,,,
break_continue,html.Screen,4_47_2,2023-09-11T18:36:07.867Z,,0,,,NaN,,,,,,false,,,,288262.39999999106,288262.200000003,,288262.09999999404,,288266.645,8,400,,,
sequence,flow.Sequence,4_47,2023-09-11T18:36:07.867Z,,0,,,4146.104000002961,completion,,,,,false,,,,288262.59999999404,288262.200000003,284099.429,284112.09999999404,284116.096,288266.645,8,400,,,
trial,html.Screen,4_48_0,2023-09-11T18:36:10.687Z,,0,1,,2815.5550000029616,response,ISIC_2935987.JPG,7,ISIC_6159783.JPG,ISIC_2935987.JPG,false,1,keypress(m),500,291082.59999999404,291082.200000003,288249.978,288262.700000003,288266.645,291100.035,8,400,49,,ISIC_6159783.JPG
break,html.Screen,4_48_1,2023-09-11T18:36:10.688Z,,0,,,NaN,,,,,,false,,,,291083.5,291083.299999997,,291082.89999999106,,291100.035,8,400,,,
break_continue,html.Screen,4_48_2,2023-09-11T18:36:10.689Z,,0,,,NaN,,,,,,false,,,,291084.09999999404,291084,,291083.700000003,,291100.035,8,400,,,
sequence,flow.Sequence,4_48,2023-09-11T18:36:10.689Z,,0,,,2817.3549999999814,completion,,,,,false,,,,291084.39999999106,291084,288249.978,288262.59999999404,288266.645,291100.035,8,400,,,
trial,html.Screen,4_49_0,2023-09-11T18:36:14.025Z,,0,1,,3319.864999991085,response,ISIC_0719631.JPG,6,ISIC_7162711.JPG,ISIC_7162711.JPG,false,0,keypress(z),500,294420.09999999404,294419.89999999106,291083.368,291084.5,291100.035,294433.435,8,400,50,,ISIC_0719631.JPG
break,html.Screen,4_49_1,2023-09-11T18:36:24.024Z,,0,,,10000.783999999985,timeout,,,,,false,,,,304419.200000003,304417.552,294416.768,294420.39999999106,294433.435,304434.219,8,400,,,
break_continue,html.Screen,4_49_2,2023-09-11T18:36:27.626Z,,0,,,3568.3809999940568,response,,,,,false,continue,keypress(Space),,308020.799999997,308002.59999999404,304417.552,304419.799999997,304434.219,308034.291,8,400,,,
sequence,flow.Sequence,4_49,2023-09-11T18:36:27.626Z,,0,,,16902.564999994065,completion,,,,,false,,,,308020.89999999106,308002.59999999404,291083.368,291084.5,291100.035,308034.291,8,400,,,
trial,html.Screen,4_50_0,2023-09-11T18:36:32.002Z,,0,2,,4362.108999991033,response,ISIC_2440407.JPG,8,ISIC_0014395.JPG,ISIC_2440407.JPG,false,1,keypress(m),500,312396.700000003,312396.39999999106,308017.624,308021,308034.291,312401.502,8,400,1,,ISIC_0014395.JPG
break,html.Screen,4_50_1,2023-09-11T18:36:32.002Z,,0,,,NaN,,,,,,false,,,,312397.39999999106,312397.200000003,,312396.89999999106,,312401.502,8,400,,,
break_continue,html.Screen,4_50_2,2023-09-11T18:36:32.003Z,,0,,,NaN,,,,,,false,,,,312397.89999999106,312397.700000003,,312397.5,,312401.502,8,400,,,
sequence,flow.Sequence,4_50,2023-09-11T18:36:32.003Z,,0,,,4363.409000002954,completion,,,,,false,,,,312398,312397.700000003,308017.624,308021,308034.291,312401.502,8,400,,,
trial,html.Screen,4_51_0,2023-09-11T18:36:35.594Z,,0,2,,3586.8979999910807,response,ISIC_0031386.JPG,8,ISIC_9107280.JPG,ISIC_0031386.JPG,false,1,keypress(m),500,315988.59999999404,315988.39999999106,312384.835,312398.200000003,312401.502,316001.574,8,400,2,,ISIC_9107280.JPG
break,html.Screen,4_51_1,2023-09-11T18:36:35.594Z,,0,,,NaN,,,,,,false,,,,315989.39999999106,315989.200000003,,315988.799999997,,316001.574,8,400,,,
break_continue,html.Screen,4_51_2,2023-09-11T18:36:35.595Z,,0,,,NaN,,,,,,false,,,,315989.799999997,315989.59999999404,,315989.59999999404,,316001.574,8,400,,,
sequence,flow.Sequence,4_51,2023-09-11T18:36:35.595Z,,0,,,3588.097999994061,completion,,,,,false,,,,315990,315989.59999999404,312384.835,312398.200000003,312401.502,316001.574,8,400,,,
trial,html.Screen,4_52_0,2023-09-11T18:36:40.891Z,,0,2,,5284.025999994017,response,ISIC_7137995.JPG,8,ISIC_0001057.JPG,ISIC_7137995.JPG,false,1,keypress(m),500,321285.799999997,321285.59999999404,315984.907,315990.200000003,316001.574,321302.328,8,400,3,,ISIC_0001057.JPG
break,html.Screen,4_52_1,2023-09-11T18:36:40.892Z,,0,,,NaN,,,,,,false,,,,321286.59999999404,321286.39999999106,,321286.09999999404,,321302.328,8,400,,,
break_continue,html.Screen,4_52_2,2023-09-11T18:36:40.892Z,,0,,,NaN,,,,,,false,,,,321287,321286.89999999106,,321286.799999997,,321302.328,8,400,,,
sequence,flow.Sequence,4_52,2023-09-11T18:36:40.893Z,,0,,,5285.325999991037,completion,,,,,false,,,,321287.39999999106,321286.89999999106,315984.907,315990.09999999404,316001.574,321302.328,8,400,,,
trial,html.Screen,4_53_0,2023-09-11T18:36:44.929Z,,0,2,,4021.3720000030007,response,ISIC_0031744.JPG,7,ISIC_0026879.JPG,ISIC_0026879.JPG,false,0,keypress(z),500,325324,325323.700000003,321285.661,321287.59999999404,321302.328,325335.742,8,400,4,,ISIC_0031744.JPG
break,html.Screen,4_53_1,2023-09-11T18:36:44.930Z,,0,,,NaN,,,,,,false,,,,325324.700000003,325324.5,,325324.09999999404,,325335.742,8,400,,,
break_continue,html.Screen,4_53_2,2023-09-11T18:36:44.930Z,,0,,,NaN,,,,,,false,,,,325325.200000003,325325,,325324.89999999106,,325335.742,8,400,,,
sequence,flow.Sequence,4_53,2023-09-11T18:36:44.931Z,,0,,,4022.6720000000205,completion,,,,,false,,,,325325.299999997,325325,321285.661,321287.59999999404,321302.328,325335.742,8,400,,,
trial,html.Screen,4_54_0,2023-09-11T18:36:47.809Z,,0,2,,2868.157999991032,response,ISIC_5223280.JPG,8,ISIC_0027659.JPG,ISIC_5223280.JPG,false,1,keypress(m),500,328204,328203.89999999106,325319.075,325325.39999999106,325335.742,328219.133,8,400,5,,ISIC_0027659.JPG
break,html.Screen,4_54_1,2023-09-11T18:36:47.810Z,,0,,,NaN,,,,,,false,,,,328204.89999999106,328204.700000003,,328204.299999997,,328219.133,8,400,,,
break_continue,html.Screen,4_54_2,2023-09-11T18:36:47.811Z,,0,,,NaN,,,,,,false,,,,328205.299999997,328205.200000003,,328205,,328219.133,8,400,,,
sequence,flow.Sequence,4_54,2023-09-11T18:36:47.811Z,,0,,,2869.4580000029528,completion,,,,,false,,,,328205.39999999106,328205.200000003,325319.075,325325.39999999106,325335.742,328219.133,8,400,,,
trial,html.Screen,4_55_0,2023-09-11T18:36:51.638Z,,0,2,,3813.5670000030077,response,ISIC_0060397.JPG,7,ISIC_0897876.JPG,ISIC_0897876.JPG,false,0,keypress(z),500,332033,332032.700000003,328202.466,328205.59999999404,328219.133,332036.383,8,400,6,,ISIC_0060397.JPG
break,html.Screen,4_55_1,2023-09-11T18:36:51.639Z,,0,,,NaN,,,,,,false,,,,332033.89999999106,332033.59999999404,,332033.299999997,,332036.383,8,400,,,
break_continue,html.Screen,4_55_2,2023-09-11T18:36:51.640Z,,0,,,NaN,,,,,,false,,,,332034.299999997,332034.09999999404,,332034,,332036.383,8,400,,,
sequence,flow.Sequence,4_55,2023-09-11T18:36:51.640Z,,0,,,3814.966999994067,completion,,,,,false,,,,332034.39999999106,332034.09999999404,328202.466,328205.5,328219.133,332036.383,8,400,,,
trial,html.Screen,4_56_0,2023-09-11T18:36:54.957Z,,0,2,,3314.716999994067,response,ISIC_4730066.JPG,4,ISIC_9048192.JPG,ISIC_4730066.JPG,false,1,keypress(m),500,335351.39999999106,335351.09999999404,332019.716,332034.59999999404,332036.383,335353.116,8,400,7,,ISIC_9048192.JPG
break,html.Screen,4_56_1,2023-09-11T18:36:54.958Z,,0,,,NaN,,,,,,false,,,,335352.700000003,335352.39999999106,,335351.799999997,,335353.116,8,400,,,
break_continue,html.Screen,4_56_2,2023-09-11T18:36:54.959Z,,0,,,NaN,,,,,,false,,,,335353.299999997,335353,,335352.89999999106,,335353.116,8,400,,,
sequence,flow.Sequence,4_56,2023-09-11T18:36:54.959Z,,0,,,3316.6170000000275,completion,,,,,false,,,,335353.39999999106,335353,332019.716,332034.59999999404,332036.383,335353.116,8,400,,,
trial,html.Screen,4_57_0,2023-09-11T18:36:58.724Z,,0,2,,3765.18399999704,response,ISIC_0029021.JPG,6,ISIC_7282415.JPG,ISIC_7282415.JPG,false,0,keypress(z),500,339118.39999999106,339118.299999997,335336.449,335353.59999999404,335353.116,339119.858,8,400,8,,ISIC_0029021.JPG
break,html.Screen,4_57_1,2023-09-11T18:36:58.725Z,,0,,,NaN,,,,,,false,,,,339119.200000003,339119,,339118.700000003,,339119.858,8,400,,,
break_continue,html.Screen,4_57_2,2023-09-11T18:36:58.725Z,,0,,,NaN,,,,,,false,,,,339119.700000003,339119.5,,339119.39999999106,,339119.858,8,400,,,
sequence,flow.Sequence,4_57,2023-09-11T18:36:58.725Z,,0,,,3766.38400000002,completion,,,,,false,,,,339119.89999999106,339119.5,335336.449,335353.5,335353.116,339119.858,8,400,,,
trial,html.Screen,4_58_0,2023-09-11T18:37:03.867Z,,0,2,,5141.041999991052,response,ISIC_8869249.JPG,7,ISIC_4136832.JPG,ISIC_8869249.JPG,false,1,keypress(m),500,344261.09999999404,344260.89999999106,339103.191,339120,339119.858,344270.524,8,400,9,,ISIC_4136832.JPG
break,html.Screen,4_58_1,2023-09-11T18:37:03.868Z,,0,,,NaN,,,,,,false,,,,344261.89999999106,344261.700000003,,344261.299999997,,344270.524,8,400,,,
break_continue,html.Screen,4_58_2,2023-09-11T18:37:03.868Z,,0,,,NaN,,,,,,false,,,,344262.39999999106,344262.200000003,,344262.09999999404,,344270.524,8,400,,,
sequence,flow.Sequence,4_58,2023-09-11T18:37:03.868Z,,0,,,5142.342000002973,completion,,,,,false,,,,344262.5,344262.200000003,339103.191,339119.89999999106,339119.858,344270.524,8,400,,,
trial,html.Screen,4_59_0,2023-09-11T18:37:07.778Z,,0,2,,3901.976000000024,response,ISIC_0011176.JPG,8,ISIC_0030798.JPG,ISIC_0011176.JPG,false,1,keypress(m),500,348172.700000003,348172.5,344253.857,344262.700000003,344270.524,348187.269,8,400,10,,ISIC_0030798.JPG
break,html.Screen,4_59_1,2023-09-11T18:37:07.779Z,,0,,,NaN,,,,,,false,,,,348173.5,348173.200000003,,348173,,348187.269,8,400,,,
break_continue,html.Screen,4_59_2,2023-09-11T18:37:07.780Z,,0,,,NaN,,,,,,false,,,,348173.89999999106,348173.799999997,,348173.59999999404,,348187.269,8,400,,,
sequence,flow.Sequence,4_59,2023-09-11T18:37:07.780Z,,0,,,3903.275999997044,completion,,,,,false,,,,348174.09999999404,348173.799999997,344253.857,344262.59999999404,344270.524,348187.269,8,400,,,
trial,html.Screen,4_60_0,2023-09-11T18:37:11.095Z,,0,2,,3301.630999991088,response,ISIC_5420979.JPG,8,ISIC_0071430.JPG,ISIC_5420979.JPG,false,1,keypress(m),500,351489.200000003,351488.89999999106,348170.602,348174.299999997,348187.269,351504.002,8,400,11,,ISIC_0071430.JPG
break,html.Screen,4_60_1,2023-09-11T18:37:11.096Z,,0,,,NaN,,,,,,false,,,,351490,351489.799999997,,351489.39999999106,,351504.002,8,400,,,
break_continue,html.Screen,4_60_2,2023-09-11T18:37:11.096Z,,0,,,NaN,,,,,,false,,,,351490.39999999106,351490.299999997,,351490.09999999404,,351504.002,8,400,,,
sequence,flow.Sequence,4_60,2023-09-11T18:37:11.096Z,,0,,,3303.0309999970486,completion,,,,,false,,,,351490.59999999404,351490.299999997,348170.602,348174.200000003,348187.269,351504.002,8,400,,,
trial,html.Screen,4_61_0,2023-09-11T18:37:15.053Z,,0,2,,3942.8979999910807,response,ISIC_6425888.JPG,7,ISIC_0068314.JPG,ISIC_6425888.JPG,false,1,keypress(m),500,355447.09999999404,355446.89999999106,351487.335,351490.799999997,351504.002,355454.586,8,400,12,,ISIC_0068314.JPG
break,html.Screen,4_61_1,2023-09-11T18:37:15.054Z,,0,,,NaN,,,,,,false,,,,355447.799999997,355447.59999999404,,355447.299999997,,355454.586,8,400,,,
break_continue,html.Screen,4_61_2,2023-09-11T18:37:15.054Z,,0,,,NaN,,,,,,false,,,,355448.09999999404,355448,,355447.799999997,,355454.586,8,400,,,
sequence,flow.Sequence,4_61,2023-09-11T18:37:15.054Z,,0,,,3943.9980000000214,completion,,,,,false,,,,355448.299999997,355448,351487.335,351490.700000003,351504.002,355454.586,8,400,,,
trial,html.Screen,4_62_0,2023-09-11T18:37:18.865Z,,0,2,,3804.11400000297,response,ISIC_0055714.JPG,5,ISIC_4894802.JPG,ISIC_4894802.JPG,false,0,keypress(z),500,359258.89999999106,359258.700000003,355437.919,355448.39999999106,355454.586,359271.329,8,400,13,,ISIC_0055714.JPG
break,html.Screen,4_62_1,2023-09-11T18:37:18.866Z,,0,,,NaN,,,,,,false,,,,359259.700000003,359259.5,,359259.09999999404,,359271.329,8,400,,,
break_continue,html.Screen,4_62_2,2023-09-11T18:37:18.867Z,,0,,,NaN,,,,,,false,,,,359261.39999999106,359260,,359259.799999997,,359271.329,8,400,,,
sequence,flow.Sequence,4_62,2023-09-11T18:37:18.868Z,,0,,,3805.4139999999898,completion,,,,,false,,,,359261.700000003,359260,355437.919,355448.39999999106,355454.586,359271.329,8,400,,,
trial,html.Screen,4_63_0,2023-09-11T18:37:22.790Z,,0,2,,3912.670999999973,response,ISIC_0010240.JPG,6,ISIC_1722909.JPG,ISIC_1722909.JPG,false,0,keypress(z),500,363184.200000003,363184,359254.662,359261.89999999106,359271.329,363188.48,8,400,14,,ISIC_0010240.JPG
break,html.Screen,4_63_1,2023-09-11T18:37:22.791Z,,0,,,NaN,,,,,,false,,,,363185,363184.799999997,,363184.39999999106,,363188.48,8,400,,,
break_continue,html.Screen,4_63_2,2023-09-11T18:37:22.791Z,,0,,,NaN,,,,,,false,,,,363185.5,363185.299999997,,363185.200000003,,363188.48,8,400,,,
sequence,flow.Sequence,4_63,2023-09-11T18:37:22.792Z,,0,,,3913.9709999969928,completion,,,,,false,,,,363185.59999999404,363185.299999997,359254.662,359261.799999997,359271.329,363188.48,8,400,,,
trial,html.Screen,4_64_0,2023-09-11T18:37:28.820Z,,0,2,,6025.619999994058,response,ISIC_0013244.JPG,8,ISIC_8910589.JPG,ISIC_0013244.JPG,false,1,keypress(m),500,369214.200000003,369214.09999999404,363171.813,363185.799999997,363188.48,369238.601,8,400,15,,ISIC_8910589.JPG
break,html.Screen,4_64_1,2023-09-11T18:37:28.821Z,,0,,,NaN,,,,,,false,,,,369215,369214.89999999106,,369214.5,,369238.601,8,400,,,
break_continue,html.Screen,4_64_2,2023-09-11T18:37:28.822Z,,0,,,NaN,,,,,,false,,,,369215.5,369215.39999999106,,369215.200000003,,369238.601,8,400,,,
sequence,flow.Sequence,4_64,2023-09-11T18:37:28.822Z,,0,,,6026.919999991078,completion,,,,,false,,,,369215.700000003,369215.39999999106,363171.813,363185.799999997,363188.48,369238.601,8,400,,,
trial,html.Screen,4_65_0,2023-09-11T18:37:32.425Z,,0,2,,3580.099000002956,response,ISIC_2153686.JPG,8,ISIC_0006116.JPG,ISIC_0006116.JPG,false,0,keypress(z),500,372818.799999997,372818.700000003,369221.934,369215.799999997,369238.601,372822.006,8,400,16,,ISIC_2153686.JPG
break,html.Screen,4_65_1,2023-09-11T18:37:32.426Z,,0,,,NaN,,,,,,false,,,,372819.59999999404,372819.39999999106,,372819,,372822.006,8,400,,,
break_continue,html.Screen,4_65_2,2023-09-11T18:37:32.426Z,,0,,,NaN,,,,,,false,,,,372820.09999999404,372820,,372819.799999997,,372822.006,8,400,,,
sequence,flow.Sequence,4_65,2023-09-11T18:37:32.426Z,,0,,,3581.398999999976,completion,,,,,false,,,,372820.299999997,372820,369221.934,369215.799999997,369238.601,372822.006,8,400,,,
trial,html.Screen,4_66_0,2023-09-11T18:37:35.632Z,,0,2,,3203.793999997026,response,ISIC_0061029.JPG,9,ISIC_0033980.JPG,ISIC_0033980.JPG,false,0,keypress(z),500,376026.09999999404,376025.799999997,372805.339,372820.5,372822.006,376039.235,8,400,17,,ISIC_0061029.JPG
break,html.Screen,4_66_1,2023-09-11T18:37:35.633Z,,0,,,NaN,,,,,,false,,,,376026.799999997,376026.59999999404,,376026.299999997,,376039.235,8,400,,,
break_continue,html.Screen,4_66_2,2023-09-11T18:37:35.633Z,,0,,,NaN,,,,,,false,,,,376027.200000003,376027.09999999404,,376026.89999999106,,376039.235,8,400,,,
sequence,flow.Sequence,4_66,2023-09-11T18:37:35.634Z,,0,,,3205.0939999940456,completion,,,,,false,,,,376027.39999999106,376027.09999999404,372805.339,372820.39999999106,372822.006,376039.235,8,400,,,
trial,html.Screen,4_67_0,2023-09-11T18:37:38.789Z,,0,2,,3142.965000002994,response,ISIC_7648726.JPG,7,ISIC_9332795.JPG,ISIC_7648726.JPG,false,1,keypress(m),500,379182.5,379182.200000003,376022.568,376027.59999999404,376039.235,379205.965,8,400,18,,ISIC_9332795.JPG
break,html.Screen,4_67_1,2023-09-11T18:37:38.789Z,,0,,,NaN,,,,,,false,,,,379183.200000003,379183,,379182.700000003,,379205.965,8,400,,,
break_continue,html.Screen,4_67_2,2023-09-11T18:37:38.790Z,,0,,,NaN,,,,,,false,,,,379183.700000003,379183.5,,379183.299999997,,379205.965,8,400,,,
sequence,flow.Sequence,4_67,2023-09-11T18:37:38.790Z,,0,,,3144.265000000014,completion,,,,,false,,,,379183.799999997,379183.5,376022.568,376027.5,376039.235,379205.965,8,400,,,
trial,html.Screen,4_68_0,2023-09-11T18:37:41.867Z,,0,2,,3054.634999994014,response,ISIC_0897876.JPG,8,ISIC_3624318.JPG,ISIC_3624318.JPG,false,0,keypress(z),500,382260.799999997,382260.59999999404,379189.298,379184,379205.965,382272.693,8,400,19,,ISIC_0897876.JPG
break,html.Screen,4_68_1,2023-09-11T18:37:41.868Z,,0,,,NaN,,,,,,false,,,,382261.799999997,382261.59999999404,,382261,,382272.693,8,400,,,
break_continue,html.Screen,4_68_2,2023-09-11T18:37:41.869Z,,0,,,NaN,,,,,,false,,,,382262.39999999106,382262.200000003,,382262,,382272.693,8,400,,,
sequence,flow.Sequence,4_68,2023-09-11T18:37:41.869Z,,0,,,3056.2350000029546,completion,,,,,false,,,,382262.59999999404,382262.200000003,379189.298,379183.89999999106,379205.965,382272.693,8,400,,,
trial,html.Screen,4_69_0,2023-09-11T18:37:44.915Z,,0,2,,3035.3069999999716,response,ISIC_8143286.JPG,7,ISIC_0032602.JPG,ISIC_0032602.JPG,false,0,keypress(z),500,385308.200000003,385308,382256.026,382262.799999997,382272.693,385323.379,8,400,20,,ISIC_8143286.JPG
break,html.Screen,4_69_1,2023-09-11T18:37:44.916Z,,0,,,NaN,,,,,,false,,,,385309.09999999404,385308.89999999106,,385308.5,,385323.379,8,400,,,
break_continue,html.Screen,4_69_2,2023-09-11T18:37:44.916Z,,0,,,NaN,,,,,,false,,,,385309.59999999404,385309.39999999106,,385309.200000003,,385323.379,8,400,,,
sequence,flow.Sequence,4_69,2023-09-11T18:37:44.916Z,,0,,,3036.706999991031,completion,,,,,false,,,,385309.799999997,385309.39999999106,382256.026,382262.700000003,382272.693,385323.379,8,400,,,
trial,html.Screen,4_70_0,2023-09-11T18:37:47.768Z,,0,2,,2837.4209999970044,response,ISIC_0046671.JPG,7,ISIC_2974214.JPG,ISIC_2974214.JPG,false,0,keypress(z),500,388161,388160.799999997,385306.712,385309.89999999106,385323.379,388173.436,8,400,21,,ISIC_0046671.JPG
break,html.Screen,4_70_1,2023-09-11T18:37:47.768Z,,0,,,NaN,,,,,,false,,,,388161.89999999106,388161.700000003,,388161.299999997,,388173.436,8,400,,,
break_continue,html.Screen,4_70_2,2023-09-11T18:37:47.769Z,,0,,,NaN,,,,,,false,,,,388162.299999997,388162.200000003,,388162.09999999404,,388173.436,8,400,,,
sequence,flow.Sequence,4_70,2023-09-11T18:37:47.769Z,,0,,,2838.821000002965,completion,,,,,false,,,,388162.5,388162.200000003,385306.712,385309.89999999106,385323.379,388173.436,8,400,,,
trial,html.Screen,4_71_0,2023-09-11T18:37:51.307Z,,0,2,,3527.363999997033,response,ISIC_0033545.JPG,5,ISIC_0011607.JPG,ISIC_0011607.JPG,false,0,keypress(z),500,391701,391700.799999997,388156.769,388162.700000003,388173.436,391706.84,8,400,22,,ISIC_0033545.JPG
break,html.Screen,4_71_1,2023-09-11T18:37:51.308Z,,0,,,NaN,,,,,,false,,,,391701.799999997,391701.59999999404,,391701.200000003,,391706.84,8,400,,,
break_continue,html.Screen,4_71_2,2023-09-11T18:37:51.309Z,,0,,,NaN,,,,,,false,,,,391702.299999997,391702.09999999404,,391702,,391706.84,8,400,,,
sequence,flow.Sequence,4_71,2023-09-11T18:37:51.309Z,,0,,,3528.6639999940526,completion,,,,,false,,,,391702.39999999106,391702.09999999404,388156.769,388162.59999999404,388173.436,391706.84,8,400,,,
trial,html.Screen,4_72_0,2023-09-11T18:37:54.690Z,,0,2,,3376.459999996994,response,ISIC_0070387.JPG,6,ISIC_5546488.JPG,ISIC_5546488.JPG,false,0,keypress(z),500,395083.59999999404,395083.299999997,391690.173,391702.59999999404,391706.84,395090.689,8,400,23,,ISIC_0070387.JPG
break,html.Screen,4_72_1,2023-09-11T18:37:54.691Z,,0,,,NaN,,,,,,false,,,,395084.59999999404,395084.299999997,,395083.89999999106,,395090.689,8,400,,,
break_continue,html.Screen,4_72_2,2023-09-11T18:37:54.692Z,,0,,,NaN,,,,,,false,,,,395085.09999999404,395085,,395084.799999997,,395090.689,8,400,,,
sequence,flow.Sequence,4_72,2023-09-11T18:37:54.692Z,,0,,,3378.1599999999744,completion,,,,,false,,,,395085.39999999106,395085,391690.173,391702.59999999404,391706.84,395090.689,8,400,,,
trial,html.Screen,4_73_0,2023-09-11T18:37:58.970Z,,0,2,,4272.011000002967,response,ISIC_0072335.JPG,7,ISIC_0568867.JPG,ISIC_0568867.JPG,false,0,keypress(z),500,399363,399362.700000003,395074.022,395085.5,395090.689,399374.108,8,400,24,,ISIC_0072335.JPG
break,html.Screen,4_73_1,2023-09-11T18:37:58.970Z,,0,,,NaN,,,,,,false,,,,399363.59999999404,399363.39999999106,,399363.09999999404,,399374.108,8,400,,,
break_continue,html.Screen,4_73_2,2023-09-11T18:37:58.971Z,,0,,,NaN,,,,,,false,,,,399364.09999999404,399363.89999999106,,399363.799999997,,399374.108,8,400,,,
sequence,flow.Sequence,4_73,2023-09-11T18:37:58.971Z,,0,,,4273.210999991046,completion,,,,,false,,,,399364.299999997,399363.89999999106,395074.022,395085.5,395090.689,399374.108,8,400,,,
trial,html.Screen,4_74_0,2023-09-11T18:38:03.213Z,,0,2,,4231.991999994032,response,ISIC_0013499.JPG,7,ISIC_0056796.JPG,ISIC_0056796.JPG,false,0,keypress(z),500,403606.299999997,403606.09999999404,399357.441,399364.39999999106,399374.108,403607.526,8,400,25,,ISIC_0013499.JPG
break,html.Screen,4_74_1,2023-09-11T18:38:03.214Z,,0,,,NaN,,,,,,false,,,,403607.09999999404,403606.89999999106,,403606.59999999404,,403607.526,8,400,,,
break_continue,html.Screen,4_74_2,2023-09-11T18:38:03.214Z,,0,,,NaN,,,,,,false,,,,403607.5,403607.299999997,,403607.200000003,,403607.526,8,400,,,
sequence,flow.Sequence,4_74,2023-09-11T18:38:03.214Z,,0,,,4233.191999997012,completion,,,,,false,,,,403607.59999999404,403607.299999997,399357.441,399364.39999999106,399374.108,403607.526,8,400,,,
trial,html.Screen,4_75_0,2023-09-11T18:38:06.491Z,,0,2,,3276.6740000029677,response,ISIC_0072943.JPG,7,ISIC_0001100.JPG,ISIC_0072943.JPG,false,1,keypress(m),500,406884.39999999106,406884.200000003,403590.859,403607.799999997,403607.526,406891.505,8,400,26,,ISIC_0001100.JPG
break,html.Screen,4_75_1,2023-09-11T18:38:06.492Z,,0,,,NaN,,,,,,false,,,,406885.200000003,406885,,406884.59999999404,,406891.505,8,400,,,
break_continue,html.Screen,4_75_2,2023-09-11T18:38:06.492Z,,0,,,NaN,,,,,,false,,,,406885.59999999404,406885.5,,406885.299999997,,406891.505,8,400,,,
sequence,flow.Sequence,4_75,2023-09-11T18:38:06.493Z,,0,,,3277.9739999999874,completion,,,,,false,,,,406885.700000003,406885.5,403590.859,403607.799999997,403607.526,406891.505,8,400,,,
trial,html.Screen,4_76_0,2023-09-11T18:38:09.308Z,,0,2,,2809.794999997015,response,ISIC_0014912.JPG,8,ISIC_3376976.JPG,ISIC_3376976.JPG,false,0,keypress(z),500,409701.59999999404,409701.299999997,406874.838,406885.89999999106,406891.505,409708.228,8,400,27,,ISIC_0014912.JPG
break,html.Screen,4_76_1,2023-09-11T18:38:09.309Z,,0,,,NaN,,,,,,false,,,,409702.299999997,409702.09999999404,,409701.799999997,,409708.228,8,400,,,
break_continue,html.Screen,4_76_2,2023-09-11T18:38:09.310Z,,0,,,NaN,,,,,,false,,,,409702.799999997,409702.700000003,,409702.5,,409708.228,8,400,,,
sequence,flow.Sequence,4_76,2023-09-11T18:38:09.310Z,,0,,,2811.1950000029756,completion,,,,,false,,,,409703,409702.700000003,406874.838,406885.89999999106,406891.505,409708.228,8,400,,,
trial,html.Screen,4_77_0,2023-09-11T18:38:12.339Z,,0,2,,3023.6719999910565,response,ISIC_0028910.JPG,6,ISIC_3877643.JPG,ISIC_0028910.JPG,false,1,keypress(m),500,412732.09999999404,412731.89999999106,409691.561,409703.09999999404,409708.228,412741.622,8,400,28,,ISIC_3877643.JPG
break,html.Screen,4_77_1,2023-09-11T18:38:12.340Z,,0,,,NaN,,,,,,false,,,,412732.799999997,412732.700000003,,412732.299999997,,412741.622,8,400,,,
break_continue,html.Screen,4_77_2,2023-09-11T18:38:12.340Z,,0,,,NaN,,,,,,false,,,,412733.299999997,412733.09999999404,,412732.89999999106,,412741.622,8,400,,,
sequence,flow.Sequence,4_77,2023-09-11T18:38:12.340Z,,0,,,3024.8719999940367,completion,,,,,false,,,,412733.5,412733.09999999404,409691.561,409703.09999999404,409708.228,412741.622,8,400,,,
trial,html.Screen,4_78_0,2023-09-11T18:38:15.925Z,,0,2,,3576.4779999940656,response,ISIC_4590810.JPG,7,ISIC_0976232.JPG,ISIC_4590810.JPG,false,1,keypress(m),500,416318.299999997,416318.09999999404,412724.955,412733.59999999404,412741.622,416325.588,8,400,29,,ISIC_0976232.JPG
break,html.Screen,4_78_1,2023-09-11T18:38:15.926Z,,0,,,NaN,,,,,,false,,,,416319.09999999404,416318.89999999106,,416318.59999999404,,416325.588,8,400,,,
break_continue,html.Screen,4_78_2,2023-09-11T18:38:15.927Z,,0,,,NaN,,,,,,false,,,,416319.59999999404,416319.39999999106,,416319.299999997,,416325.588,8,400,,,
sequence,flow.Sequence,4_78,2023-09-11T18:38:15.927Z,,0,,,3577.7779999910854,completion,,,,,false,,,,416319.799999997,416319.39999999106,412724.955,412733.59999999404,412741.622,416325.588,8,400,,,
trial,html.Screen,4_79_0,2023-09-11T18:38:18.713Z,,0,2,,2779.912000000011,response,ISIC_8663136.JPG,7,ISIC_2287151.JPG,ISIC_8663136.JPG,false,1,keypress(m),500,419105.700000003,419105.5,416308.921,416319.89999999106,416325.588,419108.977,8,400,30,,ISIC_2287151.JPG
break,html.Screen,4_79_1,2023-09-11T18:38:18.714Z,,0,,,NaN,,,,,,false,,,,419106.5,419106.299999997,,419105.89999999106,,419108.977,8,400,,,
break_continue,html.Screen,4_79_2,2023-09-11T18:38:18.714Z,,0,,,NaN,,,,,,false,,,,419107,419106.799999997,,419106.700000003,,419108.977,8,400,,,
sequence,flow.Sequence,4_79,2023-09-11T18:38:18.714Z,,0,,,2781.211999997031,completion,,,,,false,,,,419107.200000003,419106.799999997,416308.921,416319.89999999106,416325.588,419108.977,8,400,,,
trial,html.Screen,4_80_0,2023-09-11T18:38:22.480Z,,0,2,,3763.7230000029667,response,ISIC_5015378.JPG,7,ISIC_0056790.JPG,ISIC_0056790.JPG,false,0,keypress(z),500,422872.89999999106,422872.700000003,419092.31,419107.299999997,419108.977,422875.719,8,400,31,,ISIC_5015378.JPG
break,html.Screen,4_80_1,2023-09-11T18:38:22.481Z,,0,,,NaN,,,,,,false,,,,422873.700000003,422873.5,,422873.09999999404,,422875.719,8,400,,,
break_continue,html.Screen,4_80_2,2023-09-11T18:38:22.481Z,,0,,,NaN,,,,,,false,,,,422874.09999999404,422873.89999999106,,422873.799999997,,422875.719,8,400,,,
sequence,flow.Sequence,4_80,2023-09-11T18:38:22.481Z,,0,,,3764.922999991046,completion,,,,,false,,,,422874.200000003,422873.89999999106,419092.31,419107.299999997,419108.977,422875.719,8,400,,,
trial,html.Screen,4_81_0,2023-09-11T18:38:25.660Z,,0,2,,3176.8809999940568,response,ISIC_5442578.JPG,7,ISIC_0007257.JPG,ISIC_0007257.JPG,false,0,keypress(z),500,426052.89999999106,426052.59999999404,422859.052,422874.39999999106,422875.719,426059.116,8,400,32,,ISIC_5442578.JPG
break,html.Screen,4_81_1,2023-09-11T18:38:25.661Z,,0,,,NaN,,,,,,false,,,,426053.59999999404,426053.39999999106,,426053,,426059.116,8,400,,,
break_continue,html.Screen,4_81_2,2023-09-11T18:38:25.661Z,,0,,,NaN,,,,,,false,,,,426054.09999999404,426053.89999999106,,426053.799999997,,426059.116,8,400,,,
sequence,flow.Sequence,4_81,2023-09-11T18:38:25.661Z,,0,,,3178.1809999910765,completion,,,,,false,,,,426054.299999997,426053.89999999106,422859.052,422874.39999999106,422875.719,426059.116,8,400,,,
trial,html.Screen,4_82_0,2023-09-11T18:38:28.976Z,,0,2,,3309.5840000030003,response,ISIC_0033117.JPG,9,ISIC_0033607.JPG,ISIC_0033117.JPG,false,1,keypress(m),500,429369,429368.700000003,426042.449,426054.299999997,426059.116,429376.322,8,400,33,,ISIC_0033607.JPG
break,html.Screen,4_82_1,2023-09-11T18:38:28.977Z,,0,,,NaN,,,,,,false,,,,429369.700000003,429369.5,,429369.200000003,,429376.322,8,400,,,
break_continue,html.Screen,4_82_2,2023-09-11T18:38:28.977Z,,0,,,NaN,,,,,,false,,,,429370.09999999404,429370,,429369.799999997,,429376.322,8,400,,,
sequence,flow.Sequence,4_82,2023-09-11T18:38:28.978Z,,0,,,3310.88400000002,completion,,,,,false,,,,429370.299999997,429370,426042.449,426054.299999997,426059.116,429376.322,8,400,,,
trial,html.Screen,4_83_0,2023-09-11T18:38:32.076Z,,0,2,,3092.1780000000144,response,ISIC_9339756.JPG,7,ISIC_0026113.JPG,ISIC_0026113.JPG,false,0,keypress(z),500,432468.799999997,432468.5,429359.655,429370.5,429376.322,432476.384,8,400,34,,ISIC_9339756.JPG
break,html.Screen,4_83_1,2023-09-11T18:38:32.077Z,,0,,,NaN,,,,,,false,,,,432469.5,432469.299999997,,432469,,432476.384,8,400,,,
break_continue,html.Screen,4_83_2,2023-09-11T18:38:32.077Z,,0,,,NaN,,,,,,false,,,,432469.89999999106,432469.799999997,,432469.700000003,,432476.384,8,400,,,
sequence,flow.Sequence,4_83,2023-09-11T18:38:32.077Z,,0,,,3093.477999997034,completion,,,,,false,,,,432470.09999999404,432469.799999997,429359.655,429370.5,429376.322,432476.384,8,400,,,
trial,html.Screen,4_84_0,2023-09-11T18:38:37.121Z,,0,2,,5036.61599999998,response,ISIC_0594695.JPG,7,ISIC_0012740.JPG,ISIC_0594695.JPG,false,1,keypress(m),500,437513.200000003,437513,432459.717,432470.299999997,432476.384,437526.947,8,400,35,,ISIC_0012740.JPG
break,html.Screen,4_84_1,2023-09-11T18:38:37.121Z,,0,,,NaN,,,,,,false,,,,437514,437513.799999997,,437513.5,,437526.947,8,400,,,
break_continue,html.Screen,4_84_2,2023-09-11T18:38:37.122Z,,0,,,NaN,,,,,,false,,,,437514.39999999106,437514.299999997,,437514.09999999404,,437526.947,8,400,,,
sequence,flow.Sequence,4_84,2023-09-11T18:38:37.122Z,,0,,,5037.915999997,completion,,,,,false,,,,437514.59999999404,437514.299999997,432459.717,432470.200000003,432476.384,437526.947,8,400,,,
trial,html.Screen,4_85_0,2023-09-11T18:38:40.999Z,,0,2,,3863.9529999910737,response,ISIC_0009998.JPG,7,ISIC_0024607.JPG,ISIC_0009998.JPG,false,1,keypress(m),500,441391.200000003,441390.89999999106,437510.28,437514.700000003,437526.947,441393.691,8,400,36,,ISIC_0024607.JPG
break,html.Screen,4_85_1,2023-09-11T18:38:40.999Z,,0,,,NaN,,,,,,false,,,,441391.89999999106,441391.700000003,,441391.299999997,,441393.691,8,400,,,
break_continue,html.Screen,4_85_2,2023-09-11T18:38:41.001Z,,0,,,NaN,,,,,,false,,,,441393.59999999404,441392.200000003,,441392.09999999404,,441393.691,8,400,,,
sequence,flow.Sequence,4_85,2023-09-11T18:38:41.001Z,,0,,,3865.2530000029947,completion,,,,,false,,,,441393.89999999106,441392.200000003,437510.28,437514.700000003,437526.947,441393.691,8,400,,,
trial,html.Screen,4_86_0,2023-09-11T18:38:43.837Z,,0,2,,2835.8090000000084,response,ISIC_0033526.JPG,6,ISIC_0030407.JPG,ISIC_0030407.JPG,false,0,keypress(z),500,444229.700000003,444229.5,441377.024,441394,441393.691,444243.748,8,400,37,,ISIC_0033526.JPG
break,html.Screen,4_86_1,2023-09-11T18:38:43.838Z,,0,,,NaN,,,,,,false,,,,444230.5,444230.200000003,,444229.89999999106,,444243.748,8,400,,,
break_continue,html.Screen,4_86_2,2023-09-11T18:38:43.838Z,,0,,,NaN,,,,,,false,,,,444230.89999999106,444230.700000003,,444230.59999999404,,444243.748,8,400,,,
sequence,flow.Sequence,4_86,2023-09-11T18:38:43.839Z,,0,,,2837.0090000029886,completion,,,,,false,,,,444231.09999999404,444230.700000003,441377.024,441394,441393.691,444243.748,8,400,,,
trial,html.Screen,4_87_0,2023-09-11T18:38:46.622Z,,0,2,,2770.7519999999786,response,ISIC_7563949.JPG,7,ISIC_0239178.JPG,ISIC_7563949.JPG,false,1,keypress(m),500,447014.59999999404,447014.5,444227.081,444231.299999997,444243.748,447027.137,8,400,38,,ISIC_0239178.JPG
break,html.Screen,4_87_1,2023-09-11T18:38:46.623Z,,0,,,NaN,,,,,,false,,,,447015.39999999106,447015.200000003,,447014.89999999106,,447027.137,8,400,,,
break_continue,html.Screen,4_87_2,2023-09-11T18:38:46.623Z,,0,,,NaN,,,,,,false,,,,447015.89999999106,447015.799999997,,447015.5,,447027.137,8,400,,,
sequence,flow.Sequence,4_87,2023-09-11T18:38:46.624Z,,0,,,2772.0519999969983,completion,,,,,false,,,,447016.09999999404,447015.799999997,444227.081,444231.200000003,444243.748,447027.137,8,400,,,
trial,html.Screen,4_88_0,2023-09-11T18:38:49.828Z,,0,2,,3193.0630000029923,response,ISIC_1641823.JPG,9,ISIC_0062456.JPG,ISIC_0062456.JPG,false,0,keypress(z),500,450220.5,450220.200000003,447010.47,447016.200000003,447027.137,450227.692,8,400,39,,ISIC_1641823.JPG
break,html.Screen,4_88_1,2023-09-11T18:38:49.829Z,,0,,,NaN,,,,,,false,,,,450221.200000003,450221,,450220.59999999404,,450227.692,8,400,,,
break_continue,html.Screen,4_88_2,2023-09-11T18:38:49.829Z,,0,,,NaN,,,,,,false,,,,450221.59999999404,450221.5,,450221.299999997,,450227.692,8,400,,,
sequence,flow.Sequence,4_88,2023-09-11T18:38:49.829Z,,0,,,3194.363000000012,completion,,,,,false,,,,450221.799999997,450221.5,447010.47,447016.200000003,447027.137,450227.692,8,400,,,
trial,html.Screen,4_89_0,2023-09-11T18:38:54.029Z,,0,2,,4193.508000002999,response,ISIC_6553579.JPG,7,ISIC_0028557.JPG,ISIC_6553579.JPG,false,1,keypress(m),500,454421.39999999106,454421.200000003,450211.025,450221.89999999106,450227.692,454427.776,8,400,40,,ISIC_0028557.JPG
break,html.Screen,4_89_1,2023-09-11T18:38:54.030Z,,0,,,NaN,,,,,,false,,,,454422.200000003,454421.89999999106,,454421.700000003,,454427.776,8,400,,,
break_continue,html.Screen,4_89_2,2023-09-11T18:38:54.030Z,,0,,,NaN,,,,,,false,,,,454422.59999999404,454422.5,,454422.299999997,,454427.776,8,400,,,
sequence,flow.Sequence,4_89,2023-09-11T18:38:54.031Z,,0,,,4194.808000000019,completion,,,,,false,,,,454422.799999997,454422.5,450211.025,450221.89999999106,450227.692,454427.776,8,400,,,
trial,html.Screen,4_90_0,2023-09-11T18:38:57.413Z,,0,2,,3376.823999994027,response,ISIC_3730327.JPG,8,ISIC_1851112.JPG,ISIC_3730327.JPG,false,1,keypress(m),500,457804.700000003,457804.59999999404,454411.109,454423,454427.776,457811.681,8,400,41,,ISIC_1851112.JPG
break,html.Screen,4_90_1,2023-09-11T18:38:57.413Z,,0,,,NaN,,,,,,false,,,,457805.5,457805.299999997,,457805,,457811.681,8,400,,,
break_continue,html.Screen,4_90_2,2023-09-11T18:38:57.414Z,,0,,,NaN,,,,,,false,,,,457806,457805.799999997,,457805.59999999404,,457811.681,8,400,,,
sequence,flow.Sequence,4_90,2023-09-11T18:38:57.414Z,,0,,,3378.023999997007,completion,,,,,false,,,,457806.09999999404,457805.799999997,454411.109,454422.89999999106,454427.776,457811.681,8,400,,,
trial,html.Screen,4_91_0,2023-09-11T18:39:00.184Z,,0,2,,2764.218999991077,response,ISIC_0011894.JPG,8,ISIC_0027951.JPG,ISIC_0027951.JPG,false,0,keypress(z),500,460576.09999999404,460575.89999999106,457795.014,457806.299999997,457811.681,460578.403,8,400,42,,ISIC_0011894.JPG
break,html.Screen,4_91_1,2023-09-11T18:39:00.185Z,,0,,,NaN,,,,,,false,,,,460577,460576.700000003,,460576.39999999106,,460578.403,8,400,,,
break_continue,html.Screen,4_91_2,2023-09-11T18:39:00.185Z,,0,,,NaN,,,,,,false,,,,460577.5,460577.200000003,,460577.09999999404,,460578.403,8,400,,,
sequence,flow.Sequence,4_91,2023-09-11T18:39:00.185Z,,0,,,2765.519000002998,completion,,,,,false,,,,460577.59999999404,460577.200000003,457795.014,457806.299999997,457811.681,460578.403,8,400,,,
trial,html.Screen,4_92_0,2023-09-11T18:39:02.925Z,,0,2,,2738.3969999970286,response,ISIC_2151846.JPG,7,ISIC_4208361.JPG,ISIC_4208361.JPG,false,0,keypress(z),500,463317.09999999404,463316.799999997,460561.736,460577.799999997,460578.403,463328.458,8,400,43,,ISIC_2151846.JPG
break,html.Screen,4_92_1,2023-09-11T18:39:02.926Z,,0,,,NaN,,,,,,false,,,,463317.799999997,463317.59999999404,,463317.200000003,,463328.458,8,400,,,
break_continue,html.Screen,4_92_2,2023-09-11T18:39:02.926Z,,0,,,NaN,,,,,,false,,,,463318.299999997,463318.09999999404,,463318,,463328.458,8,400,,,
sequence,flow.Sequence,4_92,2023-09-11T18:39:02.926Z,,0,,,2739.6969999940484,completion,,,,,false,,,,463318.39999999106,463318.09999999404,460561.736,460577.700000003,460578.403,463328.458,8,400,,,
trial,html.Screen,4_93_0,2023-09-11T18:39:06.925Z,,0,2,,3988.3419999970356,response,ISIC_0069851.JPG,6,ISIC_4607215.JPG,ISIC_4607215.JPG,false,0,keypress(z),500,467317.09999999404,467316.799999997,463311.791,463318.5,463328.458,467328.538,8,400,44,,ISIC_0069851.JPG
break,html.Screen,4_93_1,2023-09-11T18:39:06.926Z,,0,,,NaN,,,,,,false,,,,467318,467317.700000003,,467317.39999999106,,467328.538,8,400,,,
break_continue,html.Screen,4_93_2,2023-09-11T18:39:06.926Z,,0,,,NaN,,,,,,false,,,,467318.39999999106,467318.200000003,,467318.09999999404,,467328.538,8,400,,,
sequence,flow.Sequence,4_93,2023-09-11T18:39:06.927Z,,0,,,3989.742000002996,completion,,,,,false,,,,467318.59999999404,467318.200000003,463311.791,463318.5,463328.458,467328.538,8,400,,,
trial,html.Screen,4_94_0,2023-09-11T18:39:10.533Z,,0,2,,3596.2619999970193,response,ISIC_8504492.JPG,5,ISIC_1793821.JPG,ISIC_1793821.JPG,false,0,keypress(z),500,470925.200000003,470924.799999997,467311.871,467318.700000003,467328.538,470929.196,8,400,45,,ISIC_8504492.JPG
break,html.Screen,4_94_1,2023-09-11T18:39:10.534Z,,0,,,NaN,,,,,,false,,,,470926,470925.700000003,,470925.299999997,,470929.196,8,400,,,
break_continue,html.Screen,4_94_2,2023-09-11T18:39:10.535Z,,0,,,NaN,,,,,,false,,,,470926.5,470926.299999997,,470926.200000003,,470929.196,8,400,,,
sequence,flow.Sequence,4_94,2023-09-11T18:39:10.535Z,,0,,,3597.7619999970193,completion,,,,,false,,,,470926.700000003,470926.299999997,467311.871,467318.700000003,467328.538,470929.196,8,400,,,
trial,html.Screen,4_95_0,2023-09-11T18:39:13.981Z,,0,2,,3443.4039999940433,response,ISIC_0013473.JPG,9,ISIC_0025132.JPG,ISIC_0025132.JPG,false,0,keypress(z),500,474372.89999999106,474372.59999999404,470912.529,470926.89999999106,470929.196,474379.265,8,400,46,,ISIC_0013473.JPG
break,html.Screen,4_95_1,2023-09-11T18:39:13.982Z,,0,,,NaN,,,,,,false,,,,474373.59999999404,474373.39999999106,,474373.09999999404,,474379.265,8,400,,,
break_continue,html.Screen,4_95_2,2023-09-11T18:39:13.982Z,,0,,,NaN,,,,,,false,,,,474374.09999999404,474373.89999999106,,474373.799999997,,474379.265,8,400,,,
sequence,flow.Sequence,4_95,2023-09-11T18:39:13.982Z,,0,,,3444.703999991063,completion,,,,,false,,,,474374.299999997,474373.89999999106,470912.529,470926.799999997,470929.196,474379.265,8,400,,,
trial,html.Screen,4_96_0,2023-09-11T18:39:18.370Z,,0,2,,4382.834999994026,response,ISIC_3392451.JPG,9,ISIC_8929288.JPG,ISIC_3392451.JPG,false,1,keypress(m),500,478762.299999997,478762.09999999404,474362.598,474374.39999999106,474379.265,478763.228,8,400,47,,ISIC_8929288.JPG
break,html.Screen,4_96_1,2023-09-11T18:39:18.371Z,,0,,,NaN,,,,,,false,,,,478763,478762.799999997,,478762.5,,478763.228,8,400,,,
break_continue,html.Screen,4_96_2,2023-09-11T18:39:18.372Z,,0,,,NaN,,,,,,false,,,,478763.5,478763.39999999106,,478763.200000003,,478763.228,8,400,,,
sequence,flow.Sequence,4_96,2023-09-11T18:39:18.372Z,,0,,,4384.134999991045,completion,,,,,false,,,,478763.700000003,478763.39999999106,474362.598,474374.299999997,474379.265,478763.228,8,400,,,
trial,html.Screen,4_97_0,2023-09-11T18:39:21.454Z,,0,2,,3082.3719999940367,response,ISIC_8130596.JPG,8,ISIC_0025085.JPG,ISIC_0025085.JPG,false,0,keypress(z),500,481845.89999999106,481845.59999999404,478746.561,478763.799999997,478763.228,481863.29,8,400,48,,ISIC_8130596.JPG
break,html.Screen,4_97_1,2023-09-11T18:39:21.455Z,,0,,,NaN,,,,,,false,,,,481846.59999999404,481846.39999999106,,481846.09999999404,,481863.29,8,400,,,
break_continue,html.Screen,4_97_2,2023-09-11T18:39:21.456Z,,0,,,NaN,,,,,,false,,,,481847.59999999404,481847.200000003,,481846.799999997,,481863.29,8,400,,,
sequence,flow.Sequence,4_97,2023-09-11T18:39:21.456Z,,0,,,3083.9720000029774,completion,,,,,false,,,,481848,481847.200000003,478746.561,478763.799999997,478763.228,481863.29,8,400,,,
trial,html.Screen,4_98_0,2023-09-11T18:39:24.238Z,,0,2,,2766.210000000021,response,ISIC_7746898.JPG,6,ISIC_0062048.JPG,ISIC_7746898.JPG,false,1,keypress(m),500,484629.799999997,484629.5,481846.623,481848.299999997,481863.29,484646.679,8,400,49,,ISIC_0062048.JPG
break,html.Screen,4_98_1,2023-09-11T18:39:24.239Z,,0,,,NaN,,,,,,false,,,,484630.59999999404,484630.39999999106,,484630,,484646.679,8,400,,,
break_continue,html.Screen,4_98_2,2023-09-11T18:39:24.239Z,,0,,,NaN,,,,,,false,,,,484631,484630.799999997,,484630.700000003,,484646.679,8,400,,,
sequence,flow.Sequence,4_98,2023-09-11T18:39:24.239Z,,0,,,2767.5099999970407,completion,,,,,false,,,,484631.200000003,484630.799999997,481846.623,481848.200000003,481863.29,484646.679,8,400,,,
trial,html.Screen,4_99_0,2023-09-11T18:39:27.730Z,,0,2,,3474.5210000029765,response,ISIC_3899323.JPG,8,ISIC_2206284.JPG,ISIC_3899323.JPG,false,1,keypress(m),500,488121.39999999106,488121.200000003,484630.012,484631.299999997,484646.679,488130.082,8,400,50,,ISIC_2206284.JPG
break,html.Screen,4_99_1,2023-09-11T18:39:37.726Z,,0,,,10000.625,timeout,,,,,false,,,,498117,498114.04,488113.415,488121.59999999404,488130.082,498130.707,8,400,,,
break_continue,html.Screen,4_99_2,2023-09-11T18:39:38.629Z,,0,,,867.5929999970249,response,,,,,false,continue,keypress(Space),,499020,498998.299999997,498114.04,498117.200000003,498130.707,499030.725,8,400,,,
sequence,flow.Sequence,4_99,2023-09-11T18:39:38.629Z,,0,,,14351.620999997016,completion,,,,,false,,,,499020.200000003,498998.299999997,484630.012,484631.299999997,484646.679,499030.725,8,400,,,
trial,html.Screen,4_100_0,2023-09-11T18:39:42.745Z,,0,3,,4105.574999997043,response,ISIC_0034061.JPG,6,ISIC_1352841.JPG,ISIC_1352841.JPG,false,0,keypress(z),500,503136.5,503136.299999997,499014.058,499020.200000003,499030.725,503148.047,8,400,1,,ISIC_0034061.JPG
break,html.Screen,4_100_1,2023-09-11T18:39:42.746Z,,0,,,NaN,,,,,,false,,,,503137.299999997,503137.200000003,,503136.799999997,,503148.047,8,400,,,
break_continue,html.Screen,4_100_2,2023-09-11T18:39:42.746Z,,0,,,NaN,,,,,,false,,,,503137.700000003,503137.59999999404,,503137.39999999106,,503148.047,8,400,,,
sequence,flow.Sequence,4_100,2023-09-11T18:39:42.747Z,,0,,,4106.874999994063,completion,,,,,false,,,,503137.89999999106,503137.59999999404,499014.058,499020.200000003,499030.725,503148.047,8,400,,,
trial,html.Screen,4_101_0,2023-09-11T18:39:48.528Z,,0,3,,5771.352999991039,response,ISIC_0008864.JPG,5,ISIC_0068447.JPG,ISIC_0068447.JPG,false,0,keypress(z),500,508919.59999999404,508919.39999999106,503131.38,503138.09999999404,503148.047,508931.496,8,400,2,,ISIC_0008864.JPG
break,html.Screen,4_101_1,2023-09-11T18:39:48.529Z,,0,,,NaN,,,,,,false,,,,508920.5,508920.299999997,,508919.799999997,,508931.496,8,400,,,
break_continue,html.Screen,4_101_2,2023-09-11T18:39:48.530Z,,0,,,NaN,,,,,,false,,,,508920.89999999106,508920.700000003,,508920.59999999404,,508931.496,8,400,,,
sequence,flow.Sequence,4_101,2023-09-11T18:39:48.530Z,,0,,,5772.65300000296,completion,,,,,false,,,,508921.09999999404,508920.700000003,503131.38,503138.09999999404,503148.047,508931.496,8,400,,,
trial,html.Screen,4_102_0,2023-09-11T18:39:51.716Z,,0,3,,3175.9039999910747,response,ISIC_0072136.JPG,7,ISIC_0033800.JPG,ISIC_0033800.JPG,false,0,keypress(z),500,512107.59999999404,512107.39999999106,508914.829,508921.200000003,508931.496,512115.446,8,400,3,,ISIC_0072136.JPG
break,html.Screen,4_102_1,2023-09-11T18:39:51.717Z,,0,,,NaN,,,,,,false,,,,512108.299999997,512108.200000003,,512107.799999997,,512115.446,8,400,,,
break_continue,html.Screen,4_102_2,2023-09-11T18:39:51.718Z,,0,,,NaN,,,,,,false,,,,512108.700000003,512108.59999999404,,512108.5,,512115.446,8,400,,,
sequence,flow.Sequence,4_102,2023-09-11T18:39:51.718Z,,0,,,3177.103999994055,completion,,,,,false,,,,512108.89999999106,512108.59999999404,508914.829,508921.200000003,508931.496,512115.446,8,400,,,
trial,html.Screen,4_103_0,2023-09-11T18:39:55.194Z,,0,3,,3469.254000002984,response,ISIC_6119830.JPG,6,ISIC_5294540.JPG,ISIC_5294540.JPG,false,0,keypress(z),500,515585,515584.700000003,512098.779,512109.09999999404,512115.446,515598.849,8,400,4,,ISIC_6119830.JPG
break,html.Screen,4_103_1,2023-09-11T18:39:55.195Z,,0,,,NaN,,,,,,false,,,,515585.700000003,515585.39999999106,,515585.09999999404,,515598.849,8,400,,,
break_continue,html.Screen,4_103_2,2023-09-11T18:39:55.195Z,,0,,,NaN,,,,,,false,,,,515586.09999999404,515586,,515585.89999999106,,515598.849,8,400,,,
sequence,flow.Sequence,4_103,2023-09-11T18:39:55.195Z,,0,,,3470.5540000000037,completion,,,,,false,,,,515586.39999999106,515586,512098.779,512109,512115.446,515598.849,8,400,,,
trial,html.Screen,4_104_0,2023-09-11T18:40:00.278Z,,0,3,,5070.151000000013,response,ISIC_6529819.JPG,7,ISIC_0033206.JPG,ISIC_6529819.JPG,false,1,keypress(m),500,520669.200000003,520669,515582.182,515586.700000003,515598.849,520682.759,8,400,5,,ISIC_0033206.JPG
break,html.Screen,4_104_1,2023-09-11T18:40:00.279Z,,0,,,NaN,,,,,,false,,,,520670,520669.799999997,,520669.5,,520682.759,8,400,,,
break_continue,html.Screen,4_104_2,2023-09-11T18:40:00.279Z,,0,,,NaN,,,,,,false,,,,520670.39999999106,520670.299999997,,520670.09999999404,,520682.759,8,400,,,
sequence,flow.Sequence,4_104,2023-09-11T18:40:00.280Z,,0,,,5071.450999997032,completion,,,,,false,,,,520670.59999999404,520670.299999997,515582.182,515586.59999999404,515598.849,520682.759,8,400,,,
trial,html.Screen,4_105_0,2023-09-11T18:40:04.203Z,,0,3,,3911.1409999910393,response,ISIC_3440004.JPG,8,ISIC_0178370.JPG,ISIC_3440004.JPG,false,1,keypress(m),500,524594.099999994,524593.8999999911,520666.092,520670.799999997,520682.759,524599.504,8,400,6,,ISIC_0178370.JPG
break,html.Screen,4_105_1,2023-09-11T18:40:04.204Z,,0,,,NaN,,,,,,false,,,,524594.799999997,524594.700000003,,524594.299999997,,524599.504,8,400,,,
break_continue,html.Screen,4_105_2,2023-09-11T18:40:04.204Z,,0,,,NaN,,,,,,false,,,,524595.299999997,524595.200000003,,524594.8999999911,,524599.504,8,400,,,
sequence,flow.Sequence,4_105,2023-09-11T18:40:04.205Z,,0,,,3912.44100000296,completion,,,,,false,,,,524595.5,524595.200000003,520666.092,520670.700000003,520682.759,524599.504,8,400,,,
trial,html.Screen,4_106_0,2023-09-11T18:40:07.616Z,,0,3,,3407.496000000043,response,ISIC_1674754.JPG,6,ISIC_2560463.JPG,ISIC_2560463.JPG,false,0,keypress(z),500,528007.299999997,528007,524582.837,524595.599999994,524599.504,528016.239,8,400,7,,ISIC_1674754.JPG
break,html.Screen,4_106_1,2023-09-11T18:40:07.617Z,,0,,,NaN,,,,,,false,,,,528008,528007.799999997,,528007.5,,528016.239,8,400,,,
break_continue,html.Screen,4_106_2,2023-09-11T18:40:07.618Z,,0,,,NaN,,,,,,false,,,,528008.5,528008.299999997,,528008.099999994,,528016.239,8,400,,,
sequence,flow.Sequence,4_106,2023-09-11T18:40:07.618Z,,0,,,3408.7959999970626,completion,,,,,false,,,,528008.599999994,528008.299999997,524582.837,524595.599999994,524599.504,528016.239,8,400,,,
trial,html.Screen,4_107_0,2023-09-11T18:40:10.356Z,,0,3,,2730.761000000057,response,ISIC_3738751.JPG,6,ISIC_0028759.JPG,ISIC_0028759.JPG,false,0,keypress(z),500,530747.299999997,530747,527999.572,528008.700000003,528016.239,530750.144,8,400,8,,ISIC_3738751.JPG
break,html.Screen,4_107_1,2023-09-11T18:40:10.357Z,,0,,,NaN,,,,,,false,,,,530748,530747.799999997,,530747.3999999911,,530750.144,8,400,,,
break_continue,html.Screen,4_107_2,2023-09-11T18:40:10.358Z,,0,,,NaN,,,,,,false,,,,530748.3999999911,530748.299999997,,530748.200000003,,530750.144,8,400,,,
sequence,flow.Sequence,4_107,2023-09-11T18:40:10.358Z,,0,,,2732.0609999970766,completion,,,,,false,,,,530748.700000003,530748.299999997,527999.572,528008.700000003,528016.239,530750.144,8,400,,,
trial,html.Screen,4_108_0,2023-09-11T18:40:13.134Z,,0,3,,2774.356000000029,response,ISIC_0056330.JPG,6,ISIC_0024694.JPG,ISIC_0024694.JPG,false,0,keypress(z),500,533524.700000003,533524.5,530733.477,530748.799999997,530750.144,533533.533,8,400,9,,ISIC_0056330.JPG
break,html.Screen,4_108_1,2023-09-11T18:40:13.135Z,,0,,,NaN,,,,,,false,,,,533525.599999994,533525.299999997,,533524.8999999911,,533533.533,8,400,,,
break_continue,html.Screen,4_108_2,2023-09-11T18:40:13.135Z,,0,,,NaN,,,,,,false,,,,533525.8999999911,533525.799999997,,533525.700000003,,533533.533,8,400,,,
sequence,flow.Sequence,4_108,2023-09-11T18:40:13.135Z,,0,,,2775.6559999970486,completion,,,,,false,,,,533526.200000003,533525.799999997,530733.477,530748.700000003,530750.144,533533.533,8,400,,,
trial,html.Screen,4_109_0,2023-09-11T18:40:16.783Z,,0,3,,3639.5669999939855,response,ISIC_0027253.JPG,8,ISIC_0006850.JPG,ISIC_0006850.JPG,false,0,keypress(z),500,537173.299999997,537173.099999994,533516.866,533526.200000003,533533.533,537183.606,8,400,10,,ISIC_0027253.JPG
break,html.Screen,4_109_1,2023-09-11T18:40:16.783Z,,0,,,NaN,,,,,,false,,,,537174.099999994,537173.8999999911,,537173.599999994,,537183.606,8,400,,,
break_continue,html.Screen,4_109_2,2023-09-11T18:40:16.784Z,,0,,,NaN,,,,,,false,,,,537174.5,537174.3999999911,,537174.299999997,,537183.606,8,400,,,
sequence,flow.Sequence,4_109,2023-09-11T18:40:16.784Z,,0,,,3640.8669999910053,completion,,,,,false,,,,537174.700000003,537174.3999999911,533516.866,533526.200000003,533533.533,537183.606,8,400,,,
trial,html.Screen,4_110_0,2023-09-11T18:40:21.010Z,,0,3,,4216.993999994011,response,ISIC_0005769.JPG,7,ISIC_0030718.JPG,ISIC_0030718.JPG,false,0,keypress(z),500,541400.8999999911,541400.599999994,537166.939,537174.8999999911,537183.606,541417.461,8,400,11,,ISIC_0005769.JPG
break,html.Screen,4_110_1,2023-09-11T18:40:21.011Z,,0,,,NaN,,,,,,false,,,,541401.700000003,541401.5,,541401.099999994,,541417.461,8,400,,,
break_continue,html.Screen,4_110_2,2023-09-11T18:40:21.011Z,,0,,,NaN,,,,,,false,,,,541402.200000003,541402,,541401.799999997,,541417.461,8,400,,,
sequence,flow.Sequence,4_110,2023-09-11T18:40:21.012Z,,0,,,4218.393999999971,completion,,,,,false,,,,541402.299999997,541402,537166.939,537174.799999997,537183.606,541417.461,8,400,,,
trial,html.Screen,4_111_0,2023-09-11T18:40:23.945Z,,0,3,,2918.23900000297,response,ISIC_0068798.JPG,6,ISIC_1175170.JPG,ISIC_1175170.JPG,false,0,keypress(z),500,544335.8999999911,544335.700000003,541400.794,541402.3999999911,541417.461,544350.853,8,400,12,,ISIC_0068798.JPG
break,html.Screen,4_111_1,2023-09-11T18:40:23.946Z,,0,,,NaN,,,,,,false,,,,544336.700000003,544336.5,,544336.200000003,,544350.853,8,400,,,
break_continue,html.Screen,4_111_2,2023-09-11T18:40:23.947Z,,0,,,NaN,,,,,,false,,,,544337.200000003,544337,,544336.799999997,,544350.853,8,400,,,
sequence,flow.Sequence,4_111,2023-09-11T18:40:23.947Z,,0,,,2919.5389999999898,completion,,,,,false,,,,544337.3999999911,544337,541400.794,541402.3999999911,541417.461,544350.853,8,400,,,
trial,html.Screen,4_112_0,2023-09-11T18:40:27.567Z,,0,3,,3606.0469999910565,response,ISIC_5026709.JPG,6,ISIC_0028226.JPG,ISIC_0028226.JPG,false,0,keypress(z),500,547957.099999994,547956.8999999911,544334.186,544337.3999999911,544350.853,547967.592,8,400,13,,ISIC_5026709.JPG
break,html.Screen,4_112_1,2023-09-11T18:40:27.567Z,,0,,,NaN,,,,,,false,,,,547957.8999999911,547957.700000003,,547957.299999997,,547967.592,8,400,,,
break_continue,html.Screen,4_112_2,2023-09-11T18:40:27.568Z,,0,,,NaN,,,,,,false,,,,547958.299999997,547958.099999994,,547958,,547967.592,8,400,,,
sequence,flow.Sequence,4_112,2023-09-11T18:40:27.568Z,,0,,,3607.2469999940367,completion,,,,,false,,,,547958.5,547958.099999994,544334.186,544337.3999999911,544350.853,547967.592,8,400,,,
trial,html.Screen,4_113_0,2023-09-11T18:40:30.871Z,,0,3,,3293.707999997074,response,ISIC_0012054.JPG,8,ISIC_7278885.JPG,ISIC_7278885.JPG,false,0,keypress(z),500,551261.599999994,551261.299999997,547950.925,547958.599999994,547967.592,551284.887,8,400,14,,ISIC_0012054.JPG
break,html.Screen,4_113_1,2023-09-11T18:40:30.872Z,,0,,,NaN,,,,,,false,,,,551262.200000003,551262.099999994,,551261.799999997,,551284.887,8,400,,,
break_continue,html.Screen,4_113_2,2023-09-11T18:40:30.872Z,,0,,,NaN,,,,,,false,,,,551262.700000003,551262.5,,551262.3999999911,,551284.887,8,400,,,
sequence,flow.Sequence,4_113,2023-09-11T18:40:30.872Z,,0,,,3294.908000000054,completion,,,,,false,,,,551262.799999997,551262.5,547950.925,547958.599999994,547967.592,551284.887,8,400,,,
trial,html.Screen,4_114_0,2023-09-11T18:40:34.186Z,,0,3,,3291.5129999910714,response,ISIC_8033373.JPG,8,ISIC_4938791.JPG,ISIC_4938791.JPG,false,0,keypress(z),500,554576.700000003,554576.3999999911,551268.22,551263,551284.887,554584.953,8,400,15,,ISIC_8033373.JPG
break,html.Screen,4_114_1,2023-09-11T18:40:34.187Z,,0,,,NaN,,,,,,false,,,,554577.3999999911,554577.200000003,,554576.799999997,,554584.953,8,400,,,
break_continue,html.Screen,4_114_2,2023-09-11T18:40:34.188Z,,0,,,NaN,,,,,,false,,,,554577.8999999911,554577.799999997,,554577.599999994,,554584.953,8,400,,,
sequence,flow.Sequence,4_114,2023-09-11T18:40:34.188Z,,0,,,3292.912999997032,completion,,,,,false,,,,554578.099999994,554577.799999997,551268.22,551263,551284.887,554584.953,8,400,,,
trial,html.Screen,4_115_0,2023-09-11T18:40:37.638Z,,0,3,,3443.2470000030007,response,ISIC_0031406.JPG,5,ISIC_0028788.JPG,ISIC_0031406.JPG,false,1,keypress(m),500,558028.3999999911,558028.200000003,554568.286,554578.200000003,554584.953,558035.022,8,400,16,,ISIC_0028788.JPG
break,html.Screen,4_115_1,2023-09-11T18:40:37.639Z,,0,,,NaN,,,,,,false,,,,558029.200000003,558029,,558028.599999994,,558035.022,8,400,,,
break_continue,html.Screen,4_115_2,2023-09-11T18:40:37.639Z,,0,,,NaN,,,,,,false,,,,558029.599999994,558029.5,,558029.299999997,,558035.022,8,400,,,
sequence,flow.Sequence,4_115,2023-09-11T18:40:37.640Z,,0,,,3444.5470000000205,completion,,,,,false,,,,558029.799999997,558029.5,554568.286,554578.200000003,554584.953,558035.022,8,400,,,
trial,html.Screen,4_116_0,2023-09-11T18:40:40.830Z,,0,3,,3185.178000002983,response,ISIC_4924690.JPG,9,ISIC_1328804.JPG,ISIC_4924690.JPG,false,1,keypress(m),500,561220.299999997,561220.200000003,558018.355,558030,558035.022,561235.534,8,400,17,,ISIC_1328804.JPG
break,html.Screen,4_116_1,2023-09-11T18:40:40.831Z,,0,,,NaN,,,,,,false,,,,561221.200000003,561221,,561220.599999994,,561235.534,8,400,,,
break_continue,html.Screen,4_116_2,2023-09-11T18:40:40.831Z,,0,,,NaN,,,,,,false,,,,561221.599999994,561221.3999999911,,561221.299999997,,561235.534,8,400,,,
sequence,flow.Sequence,4_116,2023-09-11T18:40:40.832Z,,0,,,3186.377999991062,completion,,,,,false,,,,561221.700000003,561221.3999999911,558018.355,558029.8999999911,558035.022,561235.534,8,400,,,
trial,html.Screen,4_117_0,2023-09-11T18:40:44.244Z,,0,3,,3398.7659999970347,response,ISIC_7293697.JPG,8,ISIC_0067226.JPG,ISIC_7293697.JPG,false,1,keypress(m),500,564634.599999994,564634.299999997,561218.867,561221.8999999911,561235.534,564635.602,8,400,18,,ISIC_0067226.JPG
break,html.Screen,4_117_1,2023-09-11T18:40:44.245Z,,0,,,NaN,,,,,,false,,,,564635.3999999911,564635.200000003,,564634.799999997,,564635.602,8,400,,,
break_continue,html.Screen,4_117_2,2023-09-11T18:40:44.246Z,,0,,,NaN,,,,,,false,,,,564635.8999999911,564635.700000003,,564635.5,,564635.602,8,400,,,
sequence,flow.Sequence,4_117,2023-09-11T18:40:44.246Z,,0,,,3400.166000002995,completion,,,,,false,,,,564636,564635.700000003,561218.867,561221.799999997,561235.534,564635.602,8,400,,,
trial,html.Screen,4_118_0,2023-09-11T18:40:47.296Z,,0,3,,3050.3980000000447,response,ISIC_9125409.JPG,5,ISIC_7271718.JPG,ISIC_9125409.JPG,false,1,keypress(m),500,567686.299999997,567686,564618.935,564636.200000003,564635.602,567702.33,8,400,19,,ISIC_7271718.JPG
break,html.Screen,4_118_1,2023-09-11T18:40:47.297Z,,0,,,NaN,,,,,,false,,,,567687.099999994,567687,,567686.599999994,,567702.33,8,400,,,
break_continue,html.Screen,4_118_2,2023-09-11T18:40:47.297Z,,0,,,NaN,,,,,,false,,,,567687.599999994,567687.5,,567687.299999997,,567702.33,8,400,,,
sequence,flow.Sequence,4_118,2023-09-11T18:40:47.298Z,,0,,,3051.8980000000447,completion,,,,,false,,,,567687.799999997,567687.5,564618.935,564636.200000003,564635.602,567702.33,8,400,,,
trial,html.Screen,4_119_0,2023-09-11T18:40:50.934Z,,0,3,,3621.569999991101,response,ISIC_9495211.JPG,5,ISIC_0010822.JPG,ISIC_9495211.JPG,false,1,keypress(m),500,571324.099999994,571323.8999999911,567685.663,567687.8999999911,567702.33,571336.286,8,400,20,,ISIC_0010822.JPG
break,html.Screen,4_119_1,2023-09-11T18:40:50.935Z,,0,,,NaN,,,,,,false,,,,571324.8999999911,571324.700000003,,571324.299999997,,571336.286,8,400,,,
break_continue,html.Screen,4_119_2,2023-09-11T18:40:50.935Z,,0,,,NaN,,,,,,false,,,,571325.3999999911,571325.200000003,,571325.099999994,,571336.286,8,400,,,
sequence,flow.Sequence,4_119,2023-09-11T18:40:50.935Z,,0,,,3622.870000003022,completion,,,,,false,,,,571325.5,571325.200000003,567685.663,567687.8999999911,567702.33,571336.286,8,400,,,
trial,html.Screen,4_120_0,2023-09-11T18:40:53.963Z,,0,3,,3016.2140000000363,response,ISIC_5281576.JPG,7,ISIC_8170849.JPG,ISIC_8170849.JPG,false,0,keypress(z),500,574352.700000003,574352.5,571319.619,571325.700000003,571336.286,574369.68,8,400,21,,ISIC_5281576.JPG
break,html.Screen,4_120_1,2023-09-11T18:40:53.964Z,,0,,,NaN,,,,,,false,,,,574353.5,574353.299999997,,574352.8999999911,,574369.68,8,400,,,
break_continue,html.Screen,4_120_2,2023-09-11T18:40:53.964Z,,0,,,NaN,,,,,,false,,,,574354,574353.799999997,,574353.700000003,,574369.68,8,400,,,
sequence,flow.Sequence,4_120,2023-09-11T18:40:53.964Z,,0,,,3017.513999997056,completion,,,,,false,,,,574354.200000003,574353.799999997,571319.619,571325.599999994,571336.286,574369.68,8,400,,,
trial,html.Screen,4_121_0,2023-09-11T18:40:57.743Z,,0,3,,3763.4199999939883,response,ISIC_1109641.JPG,8,ISIC_7702483.JPG,ISIC_7702483.JPG,false,0,keypress(z),500,578133.299999997,578133.099999994,574353.013,574354.299999997,574369.68,578136.422,8,400,22,,ISIC_1109641.JPG
break,html.Screen,4_121_1,2023-09-11T18:40:57.744Z,,0,,,NaN,,,,,,false,,,,578134.099999994,578133.8999999911,,578133.5,,578136.422,8,400,,,
break_continue,html.Screen,4_121_2,2023-09-11T18:40:57.745Z,,0,,,NaN,,,,,,false,,,,578134.5,578134.3999999911,,578134.200000003,,578136.422,8,400,,,
sequence,flow.Sequence,4_121,2023-09-11T18:40:57.745Z,,0,,,3764.719999991008,completion,,,,,false,,,,578134.700000003,578134.3999999911,574353.013,574354.200000003,574369.68,578136.422,8,400,,,
trial,html.Screen,4_122_0,2023-09-11T18:41:04.535Z,,0,3,,6788.27800000296,response,ISIC_0025316.JPG,5,ISIC_9330527.JPG,ISIC_0025316.JPG,false,1,keypress(m),500,584924.8999999911,584924.700000003,578119.755,578134.8999999911,578136.422,584936.969,8,400,23,,ISIC_9330527.JPG
break,html.Screen,4_122_1,2023-09-11T18:41:04.536Z,,0,,,NaN,,,,,,false,,,,584925.700000003,584925.5,,584925.099999994,,584936.969,8,400,,,
break_continue,html.Screen,4_122_2,2023-09-11T18:41:04.536Z,,0,,,NaN,,,,,,false,,,,584926.200000003,584926,,584925.799999997,,584936.969,8,400,,,
sequence,flow.Sequence,4_122,2023-09-11T18:41:04.537Z,,0,,,6789.5779999999795,completion,,,,,false,,,,584926.299999997,584926,578119.755,578134.799999997,578136.422,584936.969,8,400,,,
trial,html.Screen,4_123_0,2023-09-11T18:41:07.307Z,,0,3,,2759.7310000029393,response,ISIC_0058926.JPG,7,ISIC_5546488.JPG,ISIC_5546488.JPG,false,0,keypress(z),500,587696.799999997,587696.700000003,584920.302,584926.3999999911,584936.969,587703.691,8,400,24,,ISIC_0058926.JPG
break,html.Screen,4_123_1,2023-09-11T18:41:07.308Z,,0,,,NaN,,,,,,false,,,,587697.700000003,587697.3999999911,,587697,,587703.691,8,400,,,
break_continue,html.Screen,4_123_2,2023-09-11T18:41:07.308Z,,0,,,NaN,,,,,,false,,,,587698.099999994,587698,,587697.799999997,,587703.691,8,400,,,
sequence,flow.Sequence,4_123,2023-09-11T18:41:07.309Z,,0,,,2761.030999999959,completion,,,,,false,,,,587698.299999997,587698,584920.302,584926.3999999911,584936.969,587703.691,8,400,,,
trial,html.Screen,4_124_0,2023-09-11T18:41:10.178Z,,0,3,,2863.7089999910677,response,ISIC_0000483.JPG,8,ISIC_0011227.JPG,ISIC_0000483.JPG,false,1,keypress(m),500,590567.700000003,590567.3999999911,587687.024,587698.5,587703.691,590570.415,8,400,25,,ISIC_0011227.JPG
break,html.Screen,4_124_1,2023-09-11T18:41:10.179Z,,0,,,NaN,,,,,,false,,,,590568.3999999911,590568.200000003,,590567.8999999911,,590570.415,8,400,,,
break_continue,html.Screen,4_124_2,2023-09-11T18:41:10.179Z,,0,,,NaN,,,,,,false,,,,590568.8999999911,590568.700000003,,590568.5,,590570.415,8,400,,,
sequence,flow.Sequence,4_124,2023-09-11T18:41:10.179Z,,0,,,2865.0090000029886,completion,,,,,false,,,,590569.099999994,590568.700000003,587687.024,587698.3999999911,587703.691,590570.415,8,400,,,
trial,html.Screen,4_125_0,2023-09-11T18:41:13.800Z,,0,3,,3619.484999991022,response,ISIC_0069536.JPG,7,ISIC_0025904.JPG,ISIC_0069536.JPG,false,1,keypress(m),500,594190,594189.8999999911,590553.748,590569.200000003,590570.415,594204.323,8,400,26,,ISIC_0025904.JPG
break,html.Screen,4_125_1,2023-09-11T18:41:13.801Z,,0,,,NaN,,,,,,false,,,,594190.799999997,594190.599999994,,594190.299999997,,594204.323,8,400,,,
break_continue,html.Screen,4_125_2,2023-09-11T18:41:13.802Z,,0,,,NaN,,,,,,false,,,,594191.200000003,594191.099999994,,594191,,594204.323,8,400,,,
sequence,flow.Sequence,4_125,2023-09-11T18:41:13.802Z,,0,,,3620.6849999940023,completion,,,,,false,,,,594191.3999999911,594191.099999994,590553.748,590569.099999994,590570.415,594204.323,8,400,,,
