sender,sender_type,sender_id,timestamp,meta,,blockNo,condition,duration,ended_on,img_left,img_reveal,img_right,loser,practice,response,response_action,selection_duration,time_commit,time_end,time_render,time_run,time_show,time_switch,total_blocks,total_trials,trialNo,url,winner
informed_consent,html.Screen,0,2023-11-01T16:58:48.972Z,"{""labjs_version"":""20.2.4"",""labjs_build"":{""flavor"":""production"",""commit"":""f5b4a49f956347addd546a832a3327688c2c0fef""},""location"":""https://run.pavlovia.org/MurrayBennett/melanoma-2afc/?participant=67349&platform=sona"",""userAgent"":""Mozilla/5.0 (Windows NT 10.0; Win64; x64) AppleWebKit/537.36 (KHTML, like Gecko) Chrome/118.0.0.0 Safari/537.36"",""platform"":""Win32"",""language"":""en-US"",""locale"":""en-US"",""timeZone"":""America/Chicago"",""timezoneOffset"":300,""screen_width"":1536,""screen_height"":864,""scroll_width"":1536,""scroll_height"":659,""window_innerWidth"":1536,""window_innerHeight"":707,""devicePixelRatio"":1.25}",,,,10529.924000023842,response,,,,,,consent,click button,,12573.300000011921,12572.100000023842,2035.202,2035.4000000357628,2042.176,12576.67,,,,"{""participant"":""67349"",""platform"":""sona""}",
Welcome,html.Screen,1,2023-11-01T16:59:16.546Z,,,,asymmetry,27569.33,response,,,,,,continue,click button,,40146.69999998808,40146,12570.796,12573.400000035763,12576.67,40152.591,,,,,
trial,html.Screen,2_0_0,2023-11-01T16:59:20.451Z,,0,0,,3899.5090000238415,response,ISIC_0069348.JPG,,ISIC_6997061.JPG,ISIC_6997061.JPG,true,0,keypress(z),500,44052.30000001192,44052.10000002384,40145.755,40146.90000003576,40152.591,44062.119,1,6,1,,ISIC_0069348.JPG
sequence,flow.Sequence,2_0,2023-11-01T16:59:20.451Z,,0,,,3899.5090000238415,completion,,,,,true,,,,44052.40000003576,44052.10000002384,40145.755,40146.80000001192,40152.591,44062.119,1,6,,,
trial,html.Screen,2_1_0,2023-11-01T16:59:24.341Z,,0,0,,3880.281000035764,response,ISIC_0057368.JPG,,ISIC_0009529.JPG,ISIC_0009529.JPG,true,0,keypress(z),500,47942.5,47942.40000003576,44055.159,44052.40000003576,44062.119,47951.622,1,6,2,,ISIC_0057368.JPG
sequence,flow.Sequence,2_1,2023-11-01T16:59:24.342Z,,0,,,3880.281000035764,completion,,,,,true,,,,47942.60000002384,47942.40000003576,44055.159,44052.40000003576,44062.119,47951.622,1,6,,,
trial,html.Screen,2_2_0,2023-11-01T16:59:30.423Z,,0,0,,6071.978000023839,response,ISIC_0064954.JPG,,ISIC_9758671.JPG,ISIC_0064954.JPG,true,1,keypress(m),500,54023.69999998808,54023.60000002384,47940.283,47942.69999998808,47951.622,54027.162,1,6,3,,ISIC_9758671.JPG
sequence,flow.Sequence,2_2,2023-11-01T16:59:30.423Z,,0,,,6071.978000023839,completion,,,,,true,,,,54023.80000001192,54023.60000002384,47940.283,47942.69999998808,47951.622,54027.162,1,6,,,
trial,html.Screen,2_3_0,2023-11-01T16:59:35.208Z,,0,0,,4781.738000035766,response,ISIC_0005785.JPG,,ISIC_0000080.JPG,ISIC_0000080.JPG,true,0,keypress(z),500,58809.10000002384,58808.90000003576,54019.934,54023.80000001192,54027.162,58811.706,1,6,4,,ISIC_0005785.JPG
sequence,flow.Sequence,2_3,2023-11-01T16:59:35.208Z,,0,,,4781.738000035766,completion,,,,,true,,,,58809.10000002384,58808.90000003576,54019.934,54023.80000001192,54027.162,58811.706,1,6,,,
trial,html.Screen,2_4_0,2023-11-01T16:59:38.250Z,,0,0,,3038.3940000238435,response,ISIC_7944028.JPG,,ISIC_5390060.JPG,ISIC_7944028.JPG,true,1,keypress(m),500,61850.30000001192,61850.10000002384,58804.667,58809.19999998808,58811.706,61853.287,1,6,5,,ISIC_5390060.JPG
sequence,flow.Sequence,2_4,2023-11-01T16:59:38.250Z,,0,,,3038.3940000238435,completion,,,,,true,,,,61850.40000003576,61850.10000002384,58804.667,58809.10000002384,58811.706,61853.287,1,6,,,
trial,html.Screen,2_5_0,2023-11-01T16:59:42.427Z,,0,0,,4173.412999988082,response,ISIC_0794216.JPG,,ISIC_0010188.JPG,ISIC_0794216.JPG,true,1,keypress(m),500,66026.90000003576,66026.69999998808,61846.297,61850.5,61853.287,66033.733,1,6,6,,ISIC_0010188.JPG
sequence,flow.Sequence,2_5,2023-11-01T16:59:42.427Z,,0,,,4173.412999988082,completion,,,,,true,,,,66027.10000002384,66026.69999998808,61846.297,61850.40000003576,61853.287,66033.733,1,6,,,
loop,flow.Loop,2,2023-11-01T16:59:42.427Z,,,,,25874.10899998808,completion,,,,,true,,,,66027.19999998808,66026.69999998808,40145.755,40146.80000001192,40152.591,66033.733,1,6,,,
exp_instructions,html.Screen,3,2023-11-01T16:59:47.033Z,,,,,4598.66700003577,response,,,,,,continue,keypress(Space),,70633,70632.40000003576,66024.657,66027.19999998808,66033.733,70637.803,,,,,
trial,html.Screen,4_0_0,2023-11-01T16:59:53.020Z,,0,1,,5982.297000023842,response,ISIC_8764464.JPG,6,ISIC_0009006.JPG,ISIC_8764464.JPG,false,1,keypress(m),500,76620.19999998808,76620.10000002384,70628.074,70633.10000002384,70637.803,76623.749,8,400,1,,ISIC_0009006.JPG
break,html.Screen,4_0_1,2023-11-01T16:59:53.020Z,,0,,,NaN,,,,,,false,,,,76620.69999998808,76620.60000002384,,76620.30000001192,,76623.749,8,400,,,
break_continue,html.Screen,4_0_2,2023-11-01T16:59:53.021Z,,0,,,NaN,,,,,,false,,,,76620.80000001192,76620.80000001192,,76620.69999998808,,76623.749,8,400,,,
sequence,flow.Sequence,4_0,2023-11-01T16:59:53.021Z,,0,,,5982.997000011921,completion,,,,,false,,,,76620.90000003576,76620.80000001192,70628.074,70633,70637.803,76623.749,8,400,,,
trial,html.Screen,4_1_0,2023-11-01T16:59:57.421Z,,0,1,,4397.751000000004,response,ISIC_4141898.JPG,5,ISIC_8911683.JPG,ISIC_8911683.JPG,false,0,keypress(z),500,81021.60000002384,81021.5,76617.527,76621,76623.749,81026.562,8,400,2,,ISIC_4141898.JPG
break,html.Screen,4_1_1,2023-11-01T16:59:57.422Z,,0,,,NaN,,,,,,false,,,,81021.90000003576,81021.90000003576,,81021.69999998808,,81026.562,8,400,,,
break_continue,html.Screen,4_1_2,2023-11-01T16:59:57.422Z,,0,,,NaN,,,,,,false,,,,81022,81021.90000003576,,81021.90000003576,,81026.562,8,400,,,
sequence,flow.Sequence,4_1,2023-11-01T16:59:57.422Z,,0,,,4398.151000035767,completion,,,,,false,,,,81022.10000002384,81021.90000003576,76617.527,76621,76623.749,81026.562,8,400,,,
trial,html.Screen,4_2_0,2023-11-01T17:00:01.471Z,,0,1,,4044.7380000119156,response,ISIC_2513018.JPG,4,ISIC_7693995.JPG,ISIC_7693995.JPG,false,0,keypress(z),500,85071.40000003576,85071.30000001192,81017.364,81022.10000002384,81026.562,85074.993,8,400,3,,ISIC_2513018.JPG
break,html.Screen,4_2_1,2023-11-01T17:00:01.471Z,,0,,,NaN,,,,,,false,,,,85071.69999998808,85071.60000002384,,85071.5,,85074.993,8,400,,,
break_continue,html.Screen,4_2_2,2023-11-01T17:00:01.472Z,,0,,,NaN,,,,,,false,,,,85071.80000001192,85071.69999998808,,85071.69999998808,,85074.993,8,400,,,
sequence,flow.Sequence,4_2,2023-11-01T17:00:01.472Z,,0,,,4045.1379999880737,completion,,,,,false,,,,85071.90000003576,85071.69999998808,81017.364,81022.10000002384,81026.562,85074.993,8,400,,,
trial,html.Screen,4_3_0,2023-11-01T17:00:05.537Z,,0,1,,4061.706999988077,response,ISIC_1798471.JPG,4,ISIC_1877535.JPG,ISIC_1877535.JPG,false,0,keypress(z),500,89136.80000001192,89136.69999998808,85068.683,85071.90000003576,85074.993,89144.4,8,400,4,,ISIC_1798471.JPG
break,html.Screen,4_3_1,2023-11-01T17:00:05.537Z,,0,,,NaN,,,,,,false,,,,89137.10000002384,89137,,89136.80000001192,,89144.4,8,400,,,
break_continue,html.Screen,4_3_2,2023-11-01T17:00:05.537Z,,0,,,NaN,,,,,,false,,,,89137.19999998808,89137.10000002384,,89137.10000002384,,89144.4,8,400,,,
sequence,flow.Sequence,4_3,2023-11-01T17:00:05.537Z,,0,,,4062.1070000238396,completion,,,,,false,,,,89137.19999998808,89137.10000002384,85068.683,85071.90000003576,85074.993,89144.4,8,400,,,
trial,html.Screen,4_4_0,2023-11-01T17:00:11.795Z,,0,1,,6250.700000023848,response,ISIC_0011699.JPG,5,ISIC_0028705.JPG,ISIC_0028705.JPG,false,0,keypress(z),500,95395.19999998808,95395.10000002384,89137.28,89137.30000001192,89144.4,95401.211,8,400,5,,ISIC_0011699.JPG
break,html.Screen,4_4_1,2023-11-01T17:00:11.795Z,,0,,,NaN,,,,,,false,,,,95395.60000002384,95395.5,,95395.40000003576,,95401.211,8,400,,,
break_continue,html.Screen,4_4_2,2023-11-01T17:00:11.795Z,,0,,,NaN,,,,,,false,,,,95395.69999998808,95395.60000002384,,95395.60000002384,,95401.211,8,400,,,
sequence,flow.Sequence,4_4,2023-11-01T17:00:11.795Z,,0,,,6251.200000023848,completion,,,,,false,,,,95395.80000001192,95395.60000002384,89137.28,89137.19999998808,89144.4,95401.211,8,400,,,
trial,html.Screen,4_5_0,2023-11-01T17:00:16.965Z,,0,1,,5163.389000023846,response,ISIC_0028341.JPG,5,ISIC_3590167.JPG,ISIC_3590167.JPG,false,0,keypress(z),500,100564.69999998808,100564.60000002384,95394.649,95395.80000001192,95401.211,100567.624,8,400,6,,ISIC_0028341.JPG
break,html.Screen,4_5_1,2023-11-01T17:00:16.965Z,,0,,,NaN,,,,,,false,,,,100565.10000002384,100565,,100564.80000001192,,100567.624,8,400,,,
break_continue,html.Screen,4_5_2,2023-11-01T17:00:16.965Z,,0,,,NaN,,,,,,false,,,,100565.19999998808,100565.10000002384,,100565.10000002384,,100567.624,8,400,,,
sequence,flow.Sequence,4_5,2023-11-01T17:00:16.965Z,,0,,,5163.889000023846,completion,,,,,false,,,,100565.19999998808,100565.10000002384,95394.649,95395.80000001192,95401.211,100567.624,8,400,,,
trial,html.Screen,4_6_0,2023-11-01T17:00:22.038Z,,0,1,,5070.676000011925,response,ISIC_0029914.JPG,5,ISIC_0011730.JPG,ISIC_0011730.JPG,false,0,keypress(z),500,105638.30000001192,105638.30000001192,100565.156,100565.30000001192,100567.624,105643.895,8,400,7,,ISIC_0029914.JPG
break,html.Screen,4_6_1,2023-11-01T17:00:22.038Z,,0,,,NaN,,,,,,false,,,,105638.80000001192,105638.60000002384,,105638.5,,105643.895,8,400,,,
break_continue,html.Screen,4_6_2,2023-11-01T17:00:22.039Z,,0,,,NaN,,,,,,false,,,,105638.80000001192,105638.80000001192,,105638.80000001192,,105643.895,8,400,,,
sequence,flow.Sequence,4_6,2023-11-01T17:00:22.039Z,,0,,,5071.176000011925,completion,,,,,false,,,,105638.90000003576,105638.80000001192,100565.156,100565.30000001192,100567.624,105643.895,8,400,,,
trial,html.Screen,4_7_0,2023-11-01T17:00:28.072Z,,0,1,,6028.304999988075,response,ISIC_0000145.JPG,5,ISIC_7748144.JPG,ISIC_7748144.JPG,false,0,keypress(z),500,111672.30000001192,111672.19999998808,105637.221,105638.90000003576,105643.895,111678.535,8,400,8,,ISIC_0000145.JPG
break,html.Screen,4_7_1,2023-11-01T17:00:28.072Z,,0,,,NaN,,,,,,false,,,,111672.60000002384,111672.5,,111672.40000003576,,111678.535,8,400,,,
break_continue,html.Screen,4_7_2,2023-11-01T17:00:28.073Z,,0,,,NaN,,,,,,false,,,,111672.69999998808,111672.69999998808,,111672.60000002384,,111678.535,8,400,,,
sequence,flow.Sequence,4_7,2023-11-01T17:00:28.073Z,,0,,,6028.804999988075,completion,,,,,false,,,,111672.80000001192,111672.69999998808,105637.221,105638.90000003576,105643.895,111678.535,8,400,,,
trial,html.Screen,4_8_0,2023-11-01T17:00:30.922Z,,0,1,,2843.9649999999965,response,ISIC_5948901.JPG,5,ISIC_0066476.JPG,ISIC_5948901.JPG,false,1,keypress(m),500,114522.60000002384,114522.5,111671.249,111672.90000003576,111678.535,114525.675,8,400,9,,ISIC_0066476.JPG
break,html.Screen,4_8_1,2023-11-01T17:00:30.923Z,,0,,,NaN,,,,,,false,,,,114522.90000003576,114522.90000003576,,114522.69999998808,,114525.675,8,400,,,
break_continue,html.Screen,4_8_2,2023-11-01T17:00:30.923Z,,0,,,NaN,,,,,,false,,,,114523.10000002384,114523.10000002384,,114523,,114525.675,8,400,,,
sequence,flow.Sequence,4_8,2023-11-01T17:00:30.923Z,,0,,,2844.5650000238384,completion,,,,,false,,,,114523.19999998808,114523.10000002384,111671.249,111672.80000001192,111678.535,114525.675,8,400,,,
trial,html.Screen,4_9_0,2023-11-01T17:00:36.316Z,,0,1,,5390.425000023839,response,ISIC_9896801.JPG,4,ISIC_3885041.JPG,ISIC_9896801.JPG,false,1,keypress(m),500,119916.30000001192,119916.10000002384,114516.823,114523.19999998808,114525.675,119921.345,8,400,10,,ISIC_3885041.JPG
break,html.Screen,4_9_1,2023-11-01T17:00:36.316Z,,0,,,NaN,,,,,,false,,,,119916.69999998808,119916.60000002384,,119916.40000003576,,119921.345,8,400,,,
break_continue,html.Screen,4_9_2,2023-11-01T17:00:36.317Z,,0,,,NaN,,,,,,false,,,,119916.80000001192,119916.69999998808,,119916.69999998808,,119921.345,8,400,,,
sequence,flow.Sequence,4_9,2023-11-01T17:00:36.317Z,,0,,,5391.024999988076,completion,,,,,false,,,,119916.90000003576,119916.69999998808,114516.823,114523.19999998808,114525.675,119921.345,8,400,,,
trial,html.Screen,4_10_0,2023-11-01T17:00:40.894Z,,0,1,,4572.45500001192,response,ISIC_9228573.JPG,5,ISIC_0033834.JPG,ISIC_9228573.JPG,false,1,keypress(m),500,124493.90000003576,124493.80000001192,119915.067,119917,119921.345,124504.652,8,400,11,,ISIC_0033834.JPG
break,html.Screen,4_10_1,2023-11-01T17:00:40.894Z,,0,,,NaN,,,,,,false,,,,124494.19999998808,124494.10000002384,,124493.90000003576,,124504.652,8,400,,,
break_continue,html.Screen,4_10_2,2023-11-01T17:00:40.894Z,,0,,,NaN,,,,,,false,,,,124494.30000001192,124494.19999998808,,124494.19999998808,,124504.652,8,400,,,
sequence,flow.Sequence,4_10,2023-11-01T17:00:40.894Z,,0,,,4572.854999988078,completion,,,,,false,,,,124494.30000001192,124494.19999998808,119915.067,119916.90000003576,119921.345,124504.652,8,400,,,
trial,html.Screen,4_11_0,2023-11-01T17:00:43.984Z,,0,1,,3079.347999999998,response,ISIC_5324623.JPG,5,ISIC_5485674.JPG,ISIC_5485674.JPG,false,0,keypress(z),500,127584.10000002384,127584,124497.69,124494.30000001192,124504.652,127587.942,8,400,12,,ISIC_5324623.JPG
break,html.Screen,4_11_1,2023-11-01T17:00:43.984Z,,0,,,NaN,,,,,,false,,,,127584.40000003576,127584.30000001192,,127584.19999998808,,127587.942,8,400,,,
break_continue,html.Screen,4_11_2,2023-11-01T17:00:43.984Z,,0,,,NaN,,,,,,false,,,,127584.60000002384,127584.5,,127584.5,,127587.942,8,400,,,
sequence,flow.Sequence,4_11,2023-11-01T17:00:43.984Z,,0,,,3079.847999999998,completion,,,,,false,,,,127584.60000002384,127584.5,124497.69,124494.30000001192,124504.652,127587.942,8,400,,,
trial,html.Screen,4_12_0,2023-11-01T17:00:46.945Z,,0,1,,2957.5580000000045,response,ISIC_1247683.JPG,5,ISIC_5099569.JPG,ISIC_5099569.JPG,false,0,keypress(z),500,130545.60000002384,130545.5,127584.314,127584.60000002384,127587.942,130553.135,8,400,13,,ISIC_1247683.JPG
break,html.Screen,4_12_1,2023-11-01T17:00:46.946Z,,0,,,NaN,,,,,,false,,,,130545.80000001192,130545.80000001192,,130545.69999998808,,130553.135,8,400,,,
break_continue,html.Screen,4_12_2,2023-11-01T17:00:46.946Z,,0,,,NaN,,,,,,false,,,,130546,130546,,130545.90000003576,,130553.135,8,400,,,
sequence,flow.Sequence,4_12,2023-11-01T17:00:46.946Z,,0,,,2958.0580000000045,completion,,,,,false,,,,130546,130546,127584.314,127584.60000002384,127587.942,130553.135,8,400,,,
trial,html.Screen,4_13_0,2023-11-01T17:00:49.796Z,,0,1,,2842.465000023847,response,ISIC_5897799.JPG,6,ISIC_7885010.JPG,ISIC_5897799.JPG,false,1,keypress(m),500,133395.69999998808,133395.60000002384,130544.4,130546.10000002384,130553.135,133400.31,8,400,14,,ISIC_7885010.JPG
break,html.Screen,4_13_1,2023-11-01T17:00:49.796Z,,0,,,NaN,,,,,,false,,,,133396,133395.90000003576,,133395.80000001192,,133400.31,8,400,,,
break_continue,html.Screen,4_13_2,2023-11-01T17:00:49.796Z,,0,,,NaN,,,,,,false,,,,133396.10000002384,133396.10000002384,,133396,,133400.31,8,400,,,
sequence,flow.Sequence,4_13,2023-11-01T17:00:49.796Z,,0,,,2842.965000023847,completion,,,,,false,,,,133396.10000002384,133396.10000002384,130544.4,130546.10000002384,130553.135,133400.31,8,400,,,
trial,html.Screen,4_14_0,2023-11-01T17:00:52.517Z,,0,1,,2716.6900000000023,response,ISIC_2757355.JPG,5,ISIC_0034051.JPG,ISIC_0034051.JPG,false,0,keypress(z),500,136117.19999998808,136117,133395.832,133396.19999998808,133400.31,136122.492,8,400,15,,ISIC_2757355.JPG
break,html.Screen,4_14_1,2023-11-01T17:00:52.517Z,,0,,,NaN,,,,,,false,,,,136117.40000003576,136117.40000003576,,136117.19999998808,,136122.492,8,400,,,
break_continue,html.Screen,4_14_2,2023-11-01T17:00:52.517Z,,0,,,NaN,,,,,,false,,,,136117.5,136117.5,,136117.5,,136122.492,8,400,,,
sequence,flow.Sequence,4_14,2023-11-01T17:00:52.517Z,,0,,,2717.1900000000023,completion,,,,,false,,,,136117.60000002384,136117.5,133395.832,133396.19999998808,133400.31,136122.492,8,400,,,
trial,html.Screen,4_15_0,2023-11-01T17:00:55.511Z,,0,1,,2988.7079999880807,response,ISIC_9169586.JPG,5,ISIC_0032747.JPG,ISIC_9169586.JPG,false,1,keypress(m),500,139111.30000001192,139111.19999998808,136111.89,136117.69999998808,136122.492,139115.399,8,400,16,,ISIC_0032747.JPG
break,html.Screen,4_15_1,2023-11-01T17:00:55.511Z,,0,,,NaN,,,,,,false,,,,139111.69999998808,139111.60000002384,,139111.40000003576,,139115.399,8,400,,,
break_continue,html.Screen,4_15_2,2023-11-01T17:00:55.512Z,,0,,,NaN,,,,,,false,,,,139111.69999998808,139111.69999998808,,139111.69999998808,,139115.399,8,400,,,
sequence,flow.Sequence,4_15,2023-11-01T17:00:55.512Z,,0,,,2989.2079999880807,completion,,,,,false,,,,139111.80000001192,139111.69999998808,136111.89,136117.69999998808,136122.492,139115.399,8,400,,,
trial,html.Screen,4_16_0,2023-11-01T17:00:59.914Z,,0,1,,4398.401000011916,response,ISIC_0031517.JPG,5,ISIC_1023339.JPG,ISIC_1023339.JPG,false,0,keypress(z),500,143513.80000001192,143513.80000001192,139106.494,139111.80000001192,139115.399,143518.137,8,400,17,,ISIC_0031517.JPG
break,html.Screen,4_16_1,2023-11-01T17:00:59.914Z,,0,,,NaN,,,,,,false,,,,143514,143514,,143513.90000003576,,143518.137,8,400,,,
break_continue,html.Screen,4_16_2,2023-11-01T17:00:59.914Z,,0,,,NaN,,,,,,false,,,,143514.19999998808,143514.19999998808,,143514.19999998808,,143518.137,8,400,,,
sequence,flow.Sequence,4_16,2023-11-01T17:00:59.914Z,,0,,,4398.800999988074,completion,,,,,false,,,,143514.30000001192,143514.19999998808,139106.494,139111.80000001192,139115.399,143518.137,8,400,,,
trial,html.Screen,4_17_0,2023-11-01T17:01:02.826Z,,0,1,,2908.463000023854,response,ISIC_3922580.JPG,5,ISIC_0032331.JPG,ISIC_3922580.JPG,false,1,keypress(m),500,146426.60000002384,146426.60000002384,143512.254,143514.30000001192,143518.137,146435.822,8,400,18,,ISIC_0032331.JPG
break,html.Screen,4_17_1,2023-11-01T17:01:02.827Z,,0,,,NaN,,,,,,false,,,,146427,146426.80000001192,,146426.80000001192,,146435.822,8,400,,,
break_continue,html.Screen,4_17_2,2023-11-01T17:01:02.827Z,,0,,,NaN,,,,,,false,,,,146427,146427,,146427,,146435.822,8,400,,,
sequence,flow.Sequence,4_17,2023-11-01T17:01:02.827Z,,0,,,2908.863000000012,completion,,,,,false,,,,146427,146427,143512.254,143514.30000001192,143518.137,146435.822,8,400,,,
trial,html.Screen,4_18_0,2023-11-01T17:01:06.637Z,,0,1,,3800.9780000119354,response,ISIC_9978107.JPG,5,ISIC_0031208.JPG,ISIC_9978107.JPG,false,1,keypress(m),500,150236.90000003576,150236.80000001192,146421.279,146427.19999998808,146435.822,150240.224,8,400,19,,ISIC_0031208.JPG
break,html.Screen,4_18_1,2023-11-01T17:01:06.637Z,,0,,,NaN,,,,,,false,,,,150237.19999998808,150237.19999998808,,150237,,150240.224,8,400,,,
break_continue,html.Screen,4_18_2,2023-11-01T17:01:06.637Z,,0,,,NaN,,,,,,false,,,,150237.30000001192,150237.30000001192,,150237.30000001192,,150240.224,8,400,,,
sequence,flow.Sequence,4_18,2023-11-01T17:01:06.637Z,,0,,,3801.4780000119354,completion,,,,,false,,,,150237.30000001192,150237.30000001192,146421.279,146427.10000002384,146435.822,150240.224,8,400,,,
trial,html.Screen,4_19_0,2023-11-01T17:01:12.079Z,,0,1,,5438.475999988092,response,ISIC_0010690.JPG,5,ISIC_8161933.JPG,ISIC_8161933.JPG,false,0,keypress(z),500,155678.90000003576,155678.69999998808,150230.578,150237.30000001192,150240.224,155684.525,8,400,20,,ISIC_0010690.JPG
break,html.Screen,4_19_1,2023-11-01T17:01:12.079Z,,0,,,NaN,,,,,,false,,,,155679.10000002384,155679.10000002384,,155678.90000003576,,155684.525,8,400,,,
break_continue,html.Screen,4_19_2,2023-11-01T17:01:12.079Z,,0,,,NaN,,,,,,false,,,,155679.30000001192,155679.19999998808,,155679.19999998808,,155684.525,8,400,,,
sequence,flow.Sequence,4_19,2023-11-01T17:01:12.079Z,,0,,,5438.975999988092,completion,,,,,false,,,,155679.30000001192,155679.19999998808,150230.578,150237.30000001192,150240.224,155684.525,8,400,,,
trial,html.Screen,4_20_0,2023-11-01T17:01:15.265Z,,0,1,,3180.5750000238477,response,ISIC_4978039.JPG,5,ISIC_0063369.JPG,ISIC_4978039.JPG,false,1,keypress(m),500,158865.19999998808,158865.10000002384,155673.831,155679.30000001192,155684.525,158871.925,8,400,21,,ISIC_0063369.JPG
break,html.Screen,4_20_1,2023-11-01T17:01:15.265Z,,0,,,NaN,,,,,,false,,,,158865.5,158865.40000003576,,158865.40000003576,,158871.925,8,400,,,
break_continue,html.Screen,4_20_2,2023-11-01T17:01:15.265Z,,0,,,NaN,,,,,,false,,,,158865.60000002384,158865.60000002384,,158865.60000002384,,158871.925,8,400,,,
sequence,flow.Sequence,4_20,2023-11-01T17:01:15.265Z,,0,,,3181.0750000238477,completion,,,,,false,,,,158865.69999998808,158865.60000002384,155673.831,155679.30000001192,155684.525,158871.925,8,400,,,
trial,html.Screen,4_21_0,2023-11-01T17:01:18.386Z,,0,1,,3114.5750000000116,response,ISIC_0027797.JPG,5,ISIC_5476770.JPG,ISIC_5476770.JPG,false,0,keypress(z),500,161986.5,161986.5,158860.116,158865.69999998808,158871.925,161989.881,8,400,22,,ISIC_0027797.JPG
break,html.Screen,4_21_1,2023-11-01T17:01:18.387Z,,0,,,NaN,,,,,,false,,,,161986.80000001192,161986.69999998808,,161986.60000002384,,161989.881,8,400,,,
break_continue,html.Screen,4_21_2,2023-11-01T17:01:18.387Z,,0,,,NaN,,,,,,false,,,,161986.90000003576,161986.80000001192,,161986.80000001192,,161989.881,8,400,,,
sequence,flow.Sequence,4_21,2023-11-01T17:01:18.387Z,,0,,,3114.8750000119326,completion,,,,,false,,,,161987,161986.80000001192,158860.116,158865.69999998808,158871.925,161989.881,8,400,,,
trial,html.Screen,4_22_0,2023-11-01T17:01:21.299Z,,0,1,,2909.519000035769,response,ISIC_8001757.JPG,5,ISIC_0000029.JPG,ISIC_0000029.JPG,false,0,keypress(z),500,164899.5,164899.40000003576,161980.761,161987,161989.881,164906.472,8,400,23,,ISIC_8001757.JPG
break,html.Screen,4_22_1,2023-11-01T17:01:21.300Z,,0,,,NaN,,,,,,false,,,,164899.80000001192,164899.69999998808,,164899.60000002384,,164906.472,8,400,,,
break_continue,html.Screen,4_22_2,2023-11-01T17:01:21.300Z,,0,,,NaN,,,,,,false,,,,164899.80000001192,164899.80000001192,,164899.80000001192,,164906.472,8,400,,,
sequence,flow.Sequence,4_22,2023-11-01T17:01:21.300Z,,0,,,2909.919000011927,completion,,,,,false,,,,164899.90000003576,164899.80000001192,161980.761,161987,161989.881,164906.472,8,400,,,
trial,html.Screen,4_23_0,2023-11-01T17:01:23.908Z,,0,1,,2602.128000023833,response,ISIC_1576437.JPG,5,ISIC_0032629.JPG,ISIC_1576437.JPG,false,1,keypress(m),500,167508.60000002384,167508.60000002384,164893.156,164900,164906.472,167510.573,8,400,24,,ISIC_0032629.JPG
break,html.Screen,4_23_1,2023-11-01T17:01:23.909Z,,0,,,NaN,,,,,,false,,,,167508.90000003576,167508.90000003576,,167508.69999998808,,167510.573,8,400,,,
break_continue,html.Screen,4_23_2,2023-11-01T17:01:23.909Z,,0,,,NaN,,,,,,false,,,,167509,167509,,167509,,167510.573,8,400,,,
sequence,flow.Sequence,4_23,2023-11-01T17:01:23.909Z,,0,,,2602.527999999991,completion,,,,,false,,,,167509.10000002384,167509,164893.156,164899.90000003576,164906.472,167510.573,8,400,,,
trial,html.Screen,4_24_0,2023-11-01T17:01:27.030Z,,0,1,,3119.227000011917,response,ISIC_7034769.JPG,4,ISIC_5648111.JPG,ISIC_5648111.JPG,false,0,keypress(z),500,170630,170629.80000001192,167503.36,167509.10000002384,167510.573,170635.533,8,400,25,,ISIC_7034769.JPG
break,html.Screen,4_24_1,2023-11-01T17:01:27.030Z,,0,,,NaN,,,,,,false,,,,170630.30000001192,170630.19999998808,,170630,,170635.533,8,400,,,
break_continue,html.Screen,4_24_2,2023-11-01T17:01:27.030Z,,0,,,NaN,,,,,,false,,,,170630.30000001192,170630.30000001192,,170630.30000001192,,170635.533,8,400,,,
sequence,flow.Sequence,4_24,2023-11-01T17:01:27.030Z,,0,,,3119.727000011917,completion,,,,,false,,,,170630.40000003576,170630.30000001192,167503.36,167509.10000002384,167510.573,170635.533,8,400,,,
trial,html.Screen,4_25_0,2023-11-01T17:01:30.040Z,,0,1,,3004.967000000004,response,ISIC_4226395.JPG,5,ISIC_0013073.JPG,ISIC_4226395.JPG,false,1,keypress(m),500,173640.60000002384,173640.5,170626.461,170630.40000003576,170635.533,173642.44,8,400,26,,ISIC_0013073.JPG
break,html.Screen,4_25_1,2023-11-01T17:01:30.041Z,,0,,,NaN,,,,,,false,,,,173640.80000001192,173640.80000001192,,173640.60000002384,,173642.44,8,400,,,
break_continue,html.Screen,4_25_2,2023-11-01T17:01:30.041Z,,0,,,NaN,,,,,,false,,,,173640.90000003576,173640.90000003576,,173640.90000003576,,173642.44,8,400,,,
sequence,flow.Sequence,4_25,2023-11-01T17:01:30.041Z,,0,,,3005.367000035767,completion,,,,,false,,,,173641,173640.90000003576,170626.461,170630.40000003576,170635.533,173642.44,8,400,,,
trial,html.Screen,4_26_0,2023-11-01T17:01:32.682Z,,0,1,,2639.4600000357605,response,ISIC_4088647.JPG,4,ISIC_0028156.JPG,ISIC_4088647.JPG,false,1,keypress(m),500,176282,176281.90000003576,173635.925,173641.10000002384,173642.44,176288.197,8,400,27,,ISIC_0028156.JPG
break,html.Screen,4_26_1,2023-11-01T17:01:32.682Z,,0,,,NaN,,,,,,false,,,,176282.30000001192,176282.30000001192,,176282.10000002384,,176288.197,8,400,,,
break_continue,html.Screen,4_26_2,2023-11-01T17:01:32.682Z,,0,,,NaN,,,,,,false,,,,176282.40000003576,176282.30000001192,,176282.30000001192,,176288.197,8,400,,,
sequence,flow.Sequence,4_26,2023-11-01T17:01:32.682Z,,0,,,2639.8600000119186,completion,,,,,false,,,,176282.40000003576,176282.30000001192,173635.925,173641,173642.44,176288.197,8,400,,,
trial,html.Screen,4_27_0,2023-11-01T17:01:36.187Z,,0,1,,3499.3030000000144,response,ISIC_0032976.JPG,5,ISIC_8438811.JPG,ISIC_8438811.JPG,false,0,keypress(z),500,179787.60000002384,179787.5,176280.867,176282.5,176288.197,179795.147,8,400,28,,ISIC_0032976.JPG
break,html.Screen,4_27_1,2023-11-01T17:01:36.188Z,,0,,,NaN,,,,,,false,,,,179787.90000003576,179787.80000001192,,179787.69999998808,,179795.147,8,400,,,
break_continue,html.Screen,4_27_2,2023-11-01T17:01:36.188Z,,0,,,NaN,,,,,,false,,,,179788,179788,,179787.90000003576,,179795.147,8,400,,,
sequence,flow.Sequence,4_27,2023-11-01T17:01:36.188Z,,0,,,3499.8030000000144,completion,,,,,false,,,,179788,179788,176280.867,176282.40000003576,176288.197,179795.147,8,400,,,
trial,html.Screen,4_28_0,2023-11-01T17:01:39.229Z,,0,1,,3033.7530000357656,response,ISIC_0026868.JPG,4,ISIC_0061441.JPG,ISIC_0026868.JPG,false,1,keypress(m),500,182829,182828.90000003576,179787.755,179788,179795.147,182837.906,8,400,29,,ISIC_0061441.JPG
break,html.Screen,4_28_1,2023-11-01T17:01:39.229Z,,0,,,NaN,,,,,,false,,,,182829.30000001192,182829.30000001192,,182829.10000002384,,182837.906,8,400,,,
break_continue,html.Screen,4_28_2,2023-11-01T17:01:39.229Z,,0,,,NaN,,,,,,false,,,,182829.40000003576,182829.40000003576,,182829.30000001192,,182837.906,8,400,,,
sequence,flow.Sequence,4_28,2023-11-01T17:01:39.229Z,,0,,,3034.2530000357656,completion,,,,,false,,,,182829.40000003576,182829.40000003576,179787.755,179788,179795.147,182837.906,8,400,,,
trial,html.Screen,4_29_0,2023-11-01T17:01:42.175Z,,0,1,,2937.6940000238537,response,ISIC_1784255.JPG,5,ISIC_6780471.JPG,ISIC_6780471.JPG,false,0,keypress(z),500,185775.69999998808,185775.60000002384,182827.214,182829.5,182837.906,185780.967,8,400,30,,ISIC_1784255.JPG
break,html.Screen,4_29_1,2023-11-01T17:01:42.176Z,,0,,,NaN,,,,,,false,,,,185775.90000003576,185775.90000003576,,185775.69999998808,,185780.967,8,400,,,
break_continue,html.Screen,4_29_2,2023-11-01T17:01:42.176Z,,0,,,NaN,,,,,,false,,,,185776,185776,,185776,,185780.967,8,400,,,
sequence,flow.Sequence,4_29,2023-11-01T17:01:42.176Z,,0,,,2938.094000000012,completion,,,,,false,,,,185776.10000002384,185776,182827.214,182829.5,182837.906,185780.967,8,400,,,
trial,html.Screen,4_30_0,2023-11-01T17:01:44.834Z,,0,1,,2652.9330000357586,response,ISIC_0026509.JPG,5,ISIC_0027155.JPG,ISIC_0026509.JPG,false,1,keypress(m),500,188434,188433.90000003576,185774.894,185776.19999998808,185780.967,188440.754,8,400,31,,ISIC_0027155.JPG
break,html.Screen,4_30_1,2023-11-01T17:01:44.834Z,,0,,,NaN,,,,,,false,,,,188434.30000001192,188434.30000001192,,188434.10000002384,,188440.754,8,400,,,
break_continue,html.Screen,4_30_2,2023-11-01T17:01:44.834Z,,0,,,NaN,,,,,,false,,,,188434.40000003576,188434.40000003576,,188434.40000003576,,188440.754,8,400,,,
sequence,flow.Sequence,4_30,2023-11-01T17:01:44.834Z,,0,,,2653.4330000357586,completion,,,,,false,,,,188434.40000003576,188434.40000003576,185774.894,185776.10000002384,185780.967,188440.754,8,400,,,
trial,html.Screen,4_31_0,2023-11-01T17:01:47.747Z,,0,1,,2906.8460000238556,response,ISIC_9588065.JPG,5,ISIC_0013719.JPG,ISIC_9588065.JPG,false,1,keypress(m),500,191347.60000002384,191347.60000002384,188433.167,188434.5,188440.754,191350.244,8,400,32,,ISIC_0013719.JPG
break,html.Screen,4_31_1,2023-11-01T17:01:47.748Z,,0,,,NaN,,,,,,false,,,,191347.90000003576,191347.90000003576,,191347.69999998808,,191350.244,8,400,,,
break_continue,html.Screen,4_31_2,2023-11-01T17:01:47.748Z,,0,,,NaN,,,,,,false,,,,191348.10000002384,191348.10000002384,,191347.90000003576,,191350.244,8,400,,,
sequence,flow.Sequence,4_31,2023-11-01T17:01:47.748Z,,0,,,2907.3460000238556,completion,,,,,false,,,,191348.10000002384,191348.10000002384,188433.167,188434.40000003576,188440.754,191350.244,8,400,,,
trial,html.Screen,4_32_0,2023-11-01T17:01:50.501Z,,0,1,,2750.556000011915,response,ISIC_0031494.JPG,5,ISIC_0014946.JPG,ISIC_0014946.JPG,false,0,keypress(z),500,194100.90000003576,194100.80000001192,191343.228,191348.10000002384,191350.244,194107.239,8,400,33,,ISIC_0031494.JPG
break,html.Screen,4_32_1,2023-11-01T17:01:50.501Z,,0,,,NaN,,,,,,false,,,,194101.10000002384,194101.10000002384,,194100.90000003576,,194107.239,8,400,,,
break_continue,html.Screen,4_32_2,2023-11-01T17:01:50.501Z,,0,,,NaN,,,,,,false,,,,194101.19999998808,194101.19999998808,,194101.10000002384,,194107.239,8,400,,,
sequence,flow.Sequence,4_32,2023-11-01T17:01:50.501Z,,0,,,2750.955999988073,completion,,,,,false,,,,194101.19999998808,194101.19999998808,191343.228,191348.10000002384,191350.244,194107.239,8,400,,,
trial,html.Screen,4_33_0,2023-11-01T17:01:54.471Z,,0,1,,3963.8610000238405,response,ISIC_0034246.JPG,5,ISIC_8690631.JPG,ISIC_8690631.JPG,false,0,keypress(z),500,198071.19999998808,198071.10000002384,194101.152,194101.30000001192,194107.239,198080.443,8,400,34,,ISIC_0034246.JPG
break,html.Screen,4_33_1,2023-11-01T17:01:54.471Z,,0,,,NaN,,,,,,false,,,,198071.40000003576,198071.30000001192,,198071.19999998808,,198080.443,8,400,,,
break_continue,html.Screen,4_33_2,2023-11-01T17:01:54.471Z,,0,,,NaN,,,,,,false,,,,198071.60000002384,198071.5,,198071.5,,198080.443,8,400,,,
sequence,flow.Sequence,4_33,2023-11-01T17:01:54.471Z,,0,,,3964.2609999999986,completion,,,,,false,,,,198071.60000002384,198071.5,194101.152,194101.30000001192,194107.239,198080.443,8,400,,,
trial,html.Screen,4_34_0,2023-11-01T17:01:57.161Z,,0,1,,2680.5570000000007,response,ISIC_0055086.JPG,4,ISIC_0031914.JPG,ISIC_0031914.JPG,false,0,keypress(z),500,200761.10000002384,200761,198065.592,198071.60000002384,198080.443,200766.75,8,400,35,,ISIC_0055086.JPG
break,html.Screen,4_34_1,2023-11-01T17:01:57.161Z,,0,,,NaN,,,,,,false,,,,200761.40000003576,200761.30000001192,,200761.19999998808,,200766.75,8,400,,,
break_continue,html.Screen,4_34_2,2023-11-01T17:01:57.161Z,,0,,,NaN,,,,,,false,,,,200761.5,200761.40000003576,,200761.40000003576,,200766.75,8,400,,,
sequence,flow.Sequence,4_34,2023-11-01T17:01:57.161Z,,0,,,2680.9570000357635,completion,,,,,false,,,,200761.5,200761.40000003576,198065.592,198071.60000002384,198080.443,200766.75,8,400,,,
trial,html.Screen,4_35_0,2023-11-01T17:02:00.107Z,,0,1,,2940.050000011921,response,ISIC_3074949.JPG,6,ISIC_3313701.JPG,ISIC_3074949.JPG,false,1,keypress(m),500,203706.90000003576,203706.80000001192,200759.692,200761.5,200766.75,203711.09,8,400,36,,ISIC_3313701.JPG
break,html.Screen,4_35_1,2023-11-01T17:02:00.107Z,,0,,,NaN,,,,,,false,,,,203707.19999998808,203707.10000002384,,203707,,203711.09,8,400,,,
break_continue,html.Screen,4_35_2,2023-11-01T17:02:00.107Z,,0,,,NaN,,,,,,false,,,,203707.30000001192,203707.30000001192,,203707.30000001192,,203711.09,8,400,,,
sequence,flow.Sequence,4_35,2023-11-01T17:02:00.107Z,,0,,,2940.550000011921,completion,,,,,false,,,,203707.30000001192,203707.30000001192,200759.692,200761.5,200766.75,203711.09,8,400,,,
trial,html.Screen,4_36_0,2023-11-01T17:02:03.868Z,,0,1,,3756.9100000000035,response,ISIC_0000296.JPG,5,ISIC_0030860.JPG,ISIC_0030860.JPG,false,0,keypress(z),500,207468.10000002384,207468,203706.526,203707.40000003576,203711.09,207474.946,8,400,37,,ISIC_0000296.JPG
break,html.Screen,4_36_1,2023-11-01T17:02:03.868Z,,0,,,NaN,,,,,,false,,,,207468.30000001192,207468.19999998808,,207468.19999998808,,207474.946,8,400,,,
break_continue,html.Screen,4_36_2,2023-11-01T17:02:03.868Z,,0,,,NaN,,,,,,false,,,,207468.40000003576,207468.40000003576,,207468.40000003576,,207474.946,8,400,,,
sequence,flow.Sequence,4_36,2023-11-01T17:02:03.868Z,,0,,,3757.3100000357663,completion,,,,,false,,,,207468.40000003576,207468.40000003576,203706.526,203707.40000003576,203711.09,207474.946,8,400,,,
trial,html.Screen,4_37_0,2023-11-01T17:02:07.053Z,,0,1,,3178.0540000000037,response,ISIC_0032976.JPG,5,ISIC_0011728.JPG,ISIC_0032976.JPG,false,1,keypress(m),500,210653.10000002384,210653,207467.892,207468.5,207474.946,210662.452,8,400,38,,ISIC_0011728.JPG
break,html.Screen,4_37_1,2023-11-01T17:02:07.053Z,,0,,,NaN,,,,,,false,,,,210653.30000001192,210653.19999998808,,210653.10000002384,,210662.452,8,400,,,
break_continue,html.Screen,4_37_2,2023-11-01T17:02:07.053Z,,0,,,NaN,,,,,,false,,,,210653.40000003576,210653.30000001192,,210653.30000001192,,210662.452,8,400,,,
sequence,flow.Sequence,4_37,2023-11-01T17:02:07.053Z,,0,,,3178.3540000119247,completion,,,,,false,,,,210653.5,210653.30000001192,207467.892,207468.5,207474.946,210662.452,8,400,,,
trial,html.Screen,4_38_0,2023-11-01T17:02:09.903Z,,0,1,,2840.8480000119307,response,ISIC_8244535.JPG,6,ISIC_5821293.JPG,ISIC_8244535.JPG,false,1,keypress(m),500,213503.5,213503.30000001192,210655.475,210653.5,210662.452,213509.467,8,400,39,,ISIC_5821293.JPG
break,html.Screen,4_38_1,2023-11-01T17:02:09.903Z,,0,,,NaN,,,,,,false,,,,213503.69999998808,213503.60000002384,,213503.5,,213509.467,8,400,,,
break_continue,html.Screen,4_38_2,2023-11-01T17:02:09.904Z,,0,,,NaN,,,,,,false,,,,213503.80000001192,213503.80000001192,,213503.80000001192,,213509.467,8,400,,,
sequence,flow.Sequence,4_38,2023-11-01T17:02:09.904Z,,0,,,2841.3480000119307,completion,,,,,false,,,,213503.90000003576,213503.80000001192,210655.475,210653.5,210662.452,213509.467,8,400,,,
trial,html.Screen,4_39_0,2023-11-01T17:02:12.785Z,,0,1,,2875.732999988075,response,ISIC_0032721.JPG,5,ISIC_0010900.JPG,ISIC_0032721.JPG,false,1,keypress(m),500,216385.5,216385.19999998808,213502.717,213504,213509.467,216391.381,8,400,40,,ISIC_0010900.JPG
break,html.Screen,4_39_1,2023-11-01T17:02:12.786Z,,0,,,NaN,,,,,,false,,,,216385.80000001192,216385.69999998808,,216385.60000002384,,216391.381,8,400,,,
break_continue,html.Screen,4_39_2,2023-11-01T17:02:12.786Z,,0,,,NaN,,,,,,false,,,,216386,216386,,216385.90000003576,,216391.381,8,400,,,
sequence,flow.Sequence,4_39,2023-11-01T17:02:12.786Z,,0,,,2876.532999999996,completion,,,,,false,,,,216386,216386,213502.717,213503.90000003576,213509.467,216391.381,8,400,,,
trial,html.Screen,4_40_0,2023-11-01T17:02:15.395Z,,0,1,,2603.318999988085,response,ISIC_0067012.JPG,5,ISIC_4808298.JPG,ISIC_4808298.JPG,false,0,keypress(z),500,218994.90000003576,218994.69999998808,216384.436,216386.10000002384,216391.381,219002.68,8,400,41,,ISIC_0067012.JPG
break,html.Screen,4_40_1,2023-11-01T17:02:15.395Z,,0,,,NaN,,,,,,false,,,,218995.19999998808,218995.10000002384,,218995,,219002.68,8,400,,,
break_continue,html.Screen,4_40_2,2023-11-01T17:02:15.395Z,,0,,,NaN,,,,,,false,,,,218995.5,218995.5,,218995.30000001192,,219002.68,8,400,,,
sequence,flow.Sequence,4_40,2023-11-01T17:02:15.395Z,,0,,,2604.119000000006,completion,,,,,false,,,,218995.60000002384,218995.5,216384.436,216386.10000002384,216391.381,219002.68,8,400,,,
trial,html.Screen,4_41_0,2023-11-01T17:02:18.245Z,,0,1,,2842.820000000007,response,ISIC_8409024.JPG,5,ISIC_0295323.JPG,ISIC_8409024.JPG,false,1,keypress(m),500,221845.60000002384,221845.5,218989.35,218995.60000002384,219002.68,221849.595,8,400,42,,ISIC_0295323.JPG
break,html.Screen,4_41_1,2023-11-01T17:02:18.246Z,,0,,,NaN,,,,,,false,,,,221845.90000003576,221845.80000001192,,221845.60000002384,,221849.595,8,400,,,
break_continue,html.Screen,4_41_2,2023-11-01T17:02:18.246Z,,0,,,NaN,,,,,,false,,,,221845.90000003576,221845.90000003576,,221845.90000003576,,221849.595,8,400,,,
sequence,flow.Sequence,4_41,2023-11-01T17:02:18.246Z,,0,,,2843.2200000357698,completion,,,,,false,,,,221846,221845.90000003576,218989.35,218995.60000002384,219002.68,221849.595,8,400,,,
trial,html.Screen,4_42_0,2023-11-01T17:02:21.142Z,,0,1,,2893.0050000238407,response,ISIC_0640770.JPG,4,ISIC_0026910.JPG,ISIC_0026910.JPG,false,0,keypress(z),500,224742.69999998808,224742.60000002384,221842.89,221846,221849.595,224745.388,8,400,43,,ISIC_0640770.JPG
break,html.Screen,4_42_1,2023-11-01T17:02:21.143Z,,0,,,NaN,,,,,,false,,,,224742.90000003576,224742.90000003576,,224742.80000001192,,224745.388,8,400,,,
break_continue,html.Screen,4_42_2,2023-11-01T17:02:21.143Z,,0,,,NaN,,,,,,false,,,,224743,224743,,224743,,224745.388,8,400,,,
sequence,flow.Sequence,4_42,2023-11-01T17:02:21.143Z,,0,,,2893.404999999999,completion,,,,,false,,,,224743.10000002384,224743,221842.89,221846,221849.595,224745.388,8,400,,,
trial,html.Screen,4_43_0,2023-11-01T17:02:23.961Z,,0,1,,2815.311999988073,response,ISIC_0759561.JPG,5,ISIC_0032858.JPG,ISIC_0759561.JPG,false,1,keypress(m),500,227560.69999998808,227560.69999998808,224738.296,224743.10000002384,224745.388,227564.704,8,400,44,,ISIC_0032858.JPG
break,html.Screen,4_43_1,2023-11-01T17:02:23.961Z,,0,,,NaN,,,,,,false,,,,227561.10000002384,227561,,227560.90000003576,,227564.704,8,400,,,
break_continue,html.Screen,4_43_2,2023-11-01T17:02:23.961Z,,0,,,NaN,,,,,,false,,,,227561.19999998808,227561.19999998808,,227561.19999998808,,227564.704,8,400,,,
sequence,flow.Sequence,4_43,2023-11-01T17:02:23.961Z,,0,,,2815.811999988073,completion,,,,,false,,,,227561.19999998808,227561.19999998808,224738.296,224743.10000002384,224745.388,227564.704,8,400,,,
trial,html.Screen,4_44_0,2023-11-01T17:02:26.682Z,,0,1,,2717.596000011923,response,ISIC_2918128.JPG,6,ISIC_2647643.JPG,ISIC_2647643.JPG,false,0,keypress(z),500,230282.40000003576,230282.30000001192,227560.145,227561.30000001192,227564.704,230286.909,8,400,45,,ISIC_2918128.JPG
break,html.Screen,4_44_1,2023-11-01T17:02:26.682Z,,0,,,NaN,,,,,,false,,,,230282.69999998808,230282.69999998808,,230282.5,,230286.909,8,400,,,
break_continue,html.Screen,4_44_2,2023-11-01T17:02:26.682Z,,0,,,NaN,,,,,,false,,,,230282.69999998808,230282.69999998808,,230282.69999998808,,230286.909,8,400,,,
sequence,flow.Sequence,4_44,2023-11-01T17:02:26.683Z,,0,,,2717.995999988081,completion,,,,,false,,,,230282.80000001192,230282.69999998808,227560.145,227561.19999998808,227564.704,230286.909,8,400,,,
trial,html.Screen,4_45_0,2023-11-01T17:02:29.388Z,,0,1,,2700.9910000357486,response,ISIC_8959928.JPG,4,ISIC_0327225.JPG,ISIC_8959928.JPG,false,1,keypress(m),500,232988.30000001192,232987.90000003576,230280.15,230282.80000001192,230286.909,232995.282,8,400,46,,ISIC_0327225.JPG
break,html.Screen,4_45_1,2023-11-01T17:02:29.388Z,,0,,,NaN,,,,,,false,,,,232988.60000002384,232988.5,,232988.30000001192,,232995.282,8,400,,,
break_continue,html.Screen,4_45_2,2023-11-01T17:02:29.388Z,,0,,,NaN,,,,,,false,,,,232988.69999998808,232988.69999998808,,232988.60000002384,,232995.282,8,400,,,
sequence,flow.Sequence,4_45,2023-11-01T17:02:29.388Z,,0,,,2701.790999988065,completion,,,,,false,,,,232988.69999998808,232988.69999998808,230280.15,230282.80000001192,230286.909,232995.282,8,400,,,
trial,html.Screen,4_46_0,2023-11-01T17:02:32.190Z,,0,1,,2794.6180000357563,response,ISIC_0025001.JPG,5,ISIC_0974833.JPG,ISIC_0974833.JPG,false,0,keypress(z),500,235790,235789.90000003576,232988.078,232988.69999998808,232995.282,235793.842,8,400,47,,ISIC_0025001.JPG
break,html.Screen,4_46_1,2023-11-01T17:02:32.190Z,,0,,,NaN,,,,,,false,,,,235790.19999998808,235790.10000002384,,235790,,235793.842,8,400,,,
break_continue,html.Screen,4_46_2,2023-11-01T17:02:32.190Z,,0,,,NaN,,,,,,false,,,,235790.30000001192,235790.30000001192,,235790.19999998808,,235793.842,8,400,,,
sequence,flow.Sequence,4_46,2023-11-01T17:02:32.190Z,,0,,,2795.0180000119144,completion,,,,,false,,,,235790.40000003576,235790.30000001192,232988.078,232988.69999998808,232995.282,235793.842,8,400,,,
trial,html.Screen,4_47_0,2023-11-01T17:02:34.703Z,,0,1,,2509.657999999996,response,ISIC_0011313.JPG,5,ISIC_0026671.JPG,ISIC_0011313.JPG,false,1,keypress(m),500,238303.69999998808,238303.5,235789.04,235790.40000003576,235793.842,238307.76,8,400,48,,ISIC_0026671.JPG
break,html.Screen,4_47_1,2023-11-01T17:02:34.704Z,,0,,,NaN,,,,,,false,,,,238304,238303.90000003576,,238303.69999998808,,238307.76,8,400,,,
break_continue,html.Screen,4_47_2,2023-11-01T17:02:34.704Z,,0,,,NaN,,,,,,false,,,,238304,238304,,238304,,238307.76,8,400,,,
sequence,flow.Sequence,4_47,2023-11-01T17:02:34.704Z,,0,,,2510.157999999996,completion,,,,,false,,,,238304,238304,235789.04,235790.40000003576,235793.842,238307.76,8,400,,,
trial,html.Screen,4_48_0,2023-11-01T17:02:37.281Z,,0,1,,2573.3400000238325,response,ISIC_0056152.JPG,6,ISIC_5776158.JPG,ISIC_5776158.JPG,false,0,keypress(z),500,240881.19999998808,240881.10000002384,238300.714,238304.19999998808,238307.76,240883.894,8,400,49,,ISIC_0056152.JPG
break,html.Screen,4_48_1,2023-11-01T17:02:37.281Z,,0,,,NaN,,,,,,false,,,,240881.40000003576,240881.40000003576,,240881.30000001192,,240883.894,8,400,,,
break_continue,html.Screen,4_48_2,2023-11-01T17:02:37.281Z,,0,,,NaN,,,,,,false,,,,240881.60000002384,240881.5,,240881.5,,240883.894,8,400,,,
sequence,flow.Sequence,4_48,2023-11-01T17:02:37.281Z,,0,,,2573.7399999999907,completion,,,,,false,,,,240881.60000002384,240881.5,238300.714,238304.10000002384,238307.76,240883.894,8,400,,,
trial,html.Screen,4_49_0,2023-11-01T17:02:39.778Z,,0,1,,2494.1059999999998,response,ISIC_0027600.JPG,4,ISIC_1418304.JPG,ISIC_0027600.JPG,false,1,keypress(m),500,243378.19999998808,243378,240876.862,240881.60000002384,240883.894,243383.894,8,400,50,,ISIC_1418304.JPG
break,html.Screen,4_49_1,2023-11-01T17:02:49.777Z,,0,,,9999.65400000001,timeout,,,,,false,,,,253376.90000003576,253376.661,243378.641,243378.30000001192,243383.894,253383.548,8,400,,,
break_continue,html.Screen,4_49_2,2023-11-01T17:02:51.306Z,,0,,,1519.9519999999902,response,,,,,false,continue,keypress(Space),,254906.60000002384,254903.5,253376.661,253377,253383.548,254911.279,8,400,,,
sequence,flow.Sequence,4_49,2023-11-01T17:02:51.306Z,,0,,,14019.606,completion,,,,,false,,,,254906.69999998808,254903.5,240876.862,240881.60000002384,240883.894,254911.279,8,400,,,
trial,html.Screen,4_50_0,2023-11-01T17:02:54.572Z,,0,2,,3260.9209999880695,response,ISIC_3445468.JPG,6,ISIC_7329395.JPG,ISIC_3445468.JPG,false,1,keypress(m),500,258172.30000001192,258172.19999998808,254904.364,254906.69999998808,254911.279,258175.088,8,400,1,,ISIC_7329395.JPG
break,html.Screen,4_50_1,2023-11-01T17:02:54.572Z,,0,,,NaN,,,,,,false,,,,258172.60000002384,258172.5,,258172.40000003576,,258175.088,8,400,,,
break_continue,html.Screen,4_50_2,2023-11-01T17:02:54.572Z,,0,,,NaN,,,,,,false,,,,258172.69999998808,258172.69999998808,,258172.60000002384,,258175.088,8,400,,,
sequence,flow.Sequence,4_50,2023-11-01T17:02:54.572Z,,0,,,3261.4209999880695,completion,,,,,false,,,,258172.69999998808,258172.69999998808,254904.364,254906.69999998808,254911.279,258175.088,8,400,,,
trial,html.Screen,4_51_0,2023-11-01T17:02:58.717Z,,0,2,,4142.512000023853,response,ISIC_0054941.JPG,4,ISIC_0070585.JPG,ISIC_0070585.JPG,false,0,keypress(z),500,262317.60000002384,262317.60000002384,258168.081,258172.80000001192,258175.088,262320.938,8,400,2,,ISIC_0054941.JPG
break,html.Screen,4_51_1,2023-11-01T17:02:58.718Z,,0,,,NaN,,,,,,false,,,,262318,262317.90000003576,,262317.8000000119,,262320.938,8,400,,,
break_continue,html.Screen,4_51_2,2023-11-01T17:02:58.718Z,,0,,,NaN,,,,,,false,,,,262318,262318,,262318,,262320.938,8,400,,,
sequence,flow.Sequence,4_51,2023-11-01T17:02:58.718Z,,0,,,4142.912000000011,completion,,,,,false,,,,262318.10000002384,262318,258168.081,258172.80000001192,258175.088,262320.938,8,400,,,
trial,html.Screen,4_52_0,2023-11-01T17:03:01.359Z,,0,2,,2637.7619999880553,response,ISIC_0031077.JPG,5,ISIC_0006327.JPG,ISIC_0006327.JPG,false,0,keypress(z),500,264958.90000003576,264958.6999999881,262313.818,262318.1999999881,262320.938,264966.846,8,400,3,,ISIC_0031077.JPG
break,html.Screen,4_52_1,2023-11-01T17:03:01.359Z,,0,,,NaN,,,,,,false,,,,264959.10000002384,264959,,264958.90000003576,,264966.846,8,400,,,
break_continue,html.Screen,4_52_2,2023-11-01T17:03:01.359Z,,0,,,NaN,,,,,,false,,,,264959.1999999881,264959.1999999881,,264959.1999999881,,264966.846,8,400,,,
sequence,flow.Sequence,4_52,2023-11-01T17:03:01.359Z,,0,,,2638.2619999880553,completion,,,,,false,,,,264959.3000000119,264959.1999999881,262313.818,262318.10000002384,262320.938,264966.846,8,400,,,
trial,html.Screen,4_53_0,2023-11-01T17:03:06.672Z,,0,2,,5305.054000035743,response,ISIC_7822725.JPG,5,ISIC_0056110.JPG,ISIC_7822725.JPG,false,1,keypress(m),500,270272.10000002384,270271.90000003576,264952.593,264959.3000000119,264966.846,270279.102,8,400,4,,ISIC_0056110.JPG
break,html.Screen,4_53_1,2023-11-01T17:03:06.672Z,,0,,,NaN,,,,,,false,,,,270272.3000000119,270272.3000000119,,270272.10000002384,,270279.102,8,400,,,
break_continue,html.Screen,4_53_2,2023-11-01T17:03:06.672Z,,0,,,NaN,,,,,,false,,,,270272.40000003576,270272.40000003576,,270272.3000000119,,270279.102,8,400,,,
sequence,flow.Sequence,4_53,2023-11-01T17:03:06.672Z,,0,,,5305.554000035743,completion,,,,,false,,,,270272.5,270272.40000003576,264952.593,264959.3000000119,264966.846,270279.102,8,400,,,
trial,html.Screen,4_54_0,2023-11-01T17:03:10.562Z,,0,2,,3882.6980000119074,response,ISIC_0073102.JPG,5,ISIC_0028718.JPG,ISIC_0073102.JPG,false,1,keypress(m),500,274161.90000003576,274161.8000000119,270272.087,270272.60000002384,270279.102,274167.85,8,400,5,,ISIC_0028718.JPG
break,html.Screen,4_54_1,2023-11-01T17:03:10.562Z,,0,,,NaN,,,,,,false,,,,274162.10000002384,274162.10000002384,,274162,,274167.85,8,400,,,
break_continue,html.Screen,4_54_2,2023-11-01T17:03:10.562Z,,0,,,NaN,,,,,,false,,,,274162.3000000119,274162.1999999881,,274162.1999999881,,274167.85,8,400,,,
sequence,flow.Sequence,4_54,2023-11-01T17:03:10.562Z,,0,,,3883.0979999880656,completion,,,,,false,,,,274162.3000000119,274162.1999999881,270272.087,270272.5,270279.102,274167.85,8,400,,,
trial,html.Screen,4_55_0,2023-11-01T17:03:15.251Z,,0,2,,4683.050000035786,response,ISIC_0031018.JPG,5,ISIC_0072021.JPG,ISIC_0031018.JPG,false,1,keypress(m),500,278850.90000003576,278850.90000003576,274160.768,274162.3000000119,274167.85,278855.286,8,400,6,,ISIC_0072021.JPG
break,html.Screen,4_55_1,2023-11-01T17:03:15.251Z,,0,,,NaN,,,,,,false,,,,278851.3000000119,278851.1999999881,,278851.10000002384,,278855.286,8,400,,,
break_continue,html.Screen,4_55_2,2023-11-01T17:03:15.251Z,,0,,,NaN,,,,,,false,,,,278851.40000003576,278851.40000003576,,278851.3000000119,,278855.286,8,400,,,
sequence,flow.Sequence,4_55,2023-11-01T17:03:15.251Z,,0,,,4683.550000035786,completion,,,,,false,,,,278851.40000003576,278851.40000003576,274160.768,274162.3000000119,274167.85,278855.286,8,400,,,
trial,html.Screen,4_56_0,2023-11-01T17:03:22.244Z,,0,2,,6988.913999988057,response,ISIC_7025487.JPG,5,ISIC_9760968.JPG,ISIC_7025487.JPG,false,1,keypress(m),500,285844.3000000119,285844.1999999881,278848.198,278851.5,278855.286,285848.175,8,400,7,,ISIC_9760968.JPG
break,html.Screen,4_56_1,2023-11-01T17:03:22.244Z,,0,,,NaN,,,,,,false,,,,285844.60000002384,285844.5,,285844.40000003576,,285848.175,8,400,,,
break_continue,html.Screen,4_56_2,2023-11-01T17:03:22.244Z,,0,,,NaN,,,,,,false,,,,285844.6999999881,285844.60000002384,,285844.60000002384,,285848.175,8,400,,,
sequence,flow.Sequence,4_56,2023-11-01T17:03:22.244Z,,0,,,6989.31400002382,completion,,,,,false,,,,285844.6999999881,285844.60000002384,278848.198,278851.5,278855.286,285848.175,8,400,,,
trial,html.Screen,4_57_0,2023-11-01T17:03:27.909Z,,0,2,,5660.9250000238535,response,ISIC_0032531.JPG,4,ISIC_8909957.JPG,ISIC_8909957.JPG,false,0,keypress(z),500,291509.3000000119,291509.10000002384,285841.049,285844.8000000119,285848.175,291514.67,8,400,8,,ISIC_0032531.JPG
break,html.Screen,4_57_1,2023-11-01T17:03:27.909Z,,0,,,NaN,,,,,,false,,,,291509.60000002384,291509.5,,291509.40000003576,,291514.67,8,400,,,
break_continue,html.Screen,4_57_2,2023-11-01T17:03:27.909Z,,0,,,NaN,,,,,,false,,,,291509.60000002384,291509.60000002384,,291509.60000002384,,291514.67,8,400,,,
sequence,flow.Sequence,4_57,2023-11-01T17:03:27.909Z,,0,,,5661.4250000238535,completion,,,,,false,,,,291509.60000002384,291509.60000002384,285841.049,285844.6999999881,285848.175,291514.67,8,400,,,
trial,html.Screen,4_58_0,2023-11-01T17:03:32.007Z,,0,2,,4092.430000023858,response,ISIC_0025313.JPG,5,ISIC_9066201.JPG,ISIC_9066201.JPG,false,0,keypress(z),500,295607.1999999881,295607.10000002384,291507.698,291509.60000002384,291514.67,295611.874,8,400,9,,ISIC_0025313.JPG
break,html.Screen,4_58_1,2023-11-01T17:03:32.007Z,,0,,,NaN,,,,,,false,,,,295607.40000003576,295607.40000003576,,295607.1999999881,,295611.874,8,400,,,
break_continue,html.Screen,4_58_2,2023-11-01T17:03:32.007Z,,0,,,NaN,,,,,,false,,,,295607.60000002384,295607.60000002384,,295607.5,,295611.874,8,400,,,
sequence,flow.Sequence,4_58,2023-11-01T17:03:32.007Z,,0,,,4092.930000023858,completion,,,,,false,,,,295607.60000002384,295607.60000002384,291507.698,291509.60000002384,291514.67,295611.874,8,400,,,
trial,html.Screen,4_59_0,2023-11-01T17:03:36.344Z,,0,2,,4332.42600001191,response,ISIC_0057753.JPG,5,ISIC_3981101.JPG,ISIC_0057753.JPG,false,1,keypress(m),500,299944.5,299944.3000000119,295604.718,295607.60000002384,295611.874,299958.933,8,400,10,,ISIC_3981101.JPG
break,html.Screen,4_59_1,2023-11-01T17:03:36.344Z,,0,,,NaN,,,,,,false,,,,299944.60000002384,299944.60000002384,,299944.5,,299958.933,8,400,,,
break_continue,html.Screen,4_59_2,2023-11-01T17:03:36.345Z,,0,,,NaN,,,,,,false,,,,299944.8000000119,299944.8000000119,,299944.8000000119,,299958.933,8,400,,,
sequence,flow.Sequence,4_59,2023-11-01T17:03:36.345Z,,0,,,4332.92600001191,completion,,,,,false,,,,299944.8000000119,299944.8000000119,295604.718,295607.60000002384,295611.874,299958.933,8,400,,,
trial,html.Screen,4_60_0,2023-11-01T17:03:39.738Z,,0,2,,3378.9670000357437,response,ISIC_2291059.JPG,5,ISIC_0031077.JPG,ISIC_2291059.JPG,false,1,keypress(m),500,303338.10000002384,303337.90000003576,299951.895,299944.90000003576,299958.933,303340.786,8,400,11,,ISIC_0031077.JPG
break,html.Screen,4_60_1,2023-11-01T17:03:39.738Z,,0,,,NaN,,,,,,false,,,,303338.3000000119,303338.1999999881,,303338.10000002384,,303340.786,8,400,,,
break_continue,html.Screen,4_60_2,2023-11-01T17:03:39.738Z,,0,,,NaN,,,,,,false,,,,303338.40000003576,303338.3000000119,,303338.3000000119,,303340.786,8,400,,,
sequence,flow.Sequence,4_60,2023-11-01T17:03:39.738Z,,0,,,3379.367000011902,completion,,,,,false,,,,303338.40000003576,303338.3000000119,299951.895,299944.90000003576,299958.933,303340.786,8,400,,,
trial,html.Screen,4_61_0,2023-11-01T17:03:43.292Z,,0,2,,3550.913999988057,response,ISIC_0069121.JPG,4,ISIC_0015251.JPG,ISIC_0069121.JPG,false,1,keypress(m),500,306891.8000000119,306891.6999999881,303333.687,303338.40000003576,303340.786,306896.291,8,400,12,,ISIC_0015251.JPG
break,html.Screen,4_61_1,2023-11-01T17:03:43.292Z,,0,,,NaN,,,,,,false,,,,306892,306892,,306891.8000000119,,306896.291,8,400,,,
break_continue,html.Screen,4_61_2,2023-11-01T17:03:43.292Z,,0,,,NaN,,,,,,false,,,,306892.10000002384,306892.10000002384,,306892.10000002384,,306896.291,8,400,,,
sequence,flow.Sequence,4_61,2023-11-01T17:03:43.292Z,,0,,,3551.31400002382,completion,,,,,false,,,,306892.1999999881,306892.10000002384,303333.687,303338.40000003576,303340.786,306896.291,8,400,,,
trial,html.Screen,4_62_0,2023-11-01T17:03:46.061Z,,0,2,,2764.8090000238153,response,ISIC_0025418.JPG,4,ISIC_6052860.JPG,ISIC_6052860.JPG,false,0,keypress(z),500,309661.1999999881,309661.10000002384,306889.205,306892.1999999881,306896.291,309667.111,8,400,13,,ISIC_0025418.JPG
break,html.Screen,4_62_1,2023-11-01T17:03:46.061Z,,0,,,NaN,,,,,,false,,,,309661.5,309661.40000003576,,309661.3000000119,,309667.111,8,400,,,
break_continue,html.Screen,4_62_2,2023-11-01T17:03:46.061Z,,0,,,NaN,,,,,,false,,,,309661.60000002384,309661.60000002384,,309661.5,,309667.111,8,400,,,
sequence,flow.Sequence,4_62,2023-11-01T17:03:46.061Z,,0,,,2765.3090000238153,completion,,,,,false,,,,309661.6999999881,309661.60000002384,306889.205,306892.1999999881,306896.291,309667.111,8,400,,,
trial,html.Screen,4_63_0,2023-11-01T17:03:49.616Z,,0,2,,3548.5889999881038,response,ISIC_2518896.JPG,4,ISIC_5116614.JPG,ISIC_5116614.JPG,false,0,keypress(z),500,313215.8000000119,313215.6999999881,309659.951,309661.6999999881,309667.111,313222.497,8,400,14,,ISIC_2518896.JPG
break,html.Screen,4_63_1,2023-11-01T17:03:49.616Z,,0,,,NaN,,,,,,false,,,,313216.10000002384,313216.10000002384,,313215.90000003576,,313222.497,8,400,,,
break_continue,html.Screen,4_63_2,2023-11-01T17:03:49.616Z,,0,,,NaN,,,,,,false,,,,313216.1999999881,313216.10000002384,,313216.10000002384,,313222.497,8,400,,,
sequence,flow.Sequence,4_63,2023-11-01T17:03:49.616Z,,0,,,3548.9890000238665,completion,,,,,false,,,,313216.3000000119,313216.10000002384,309659.951,309661.6999999881,309667.111,313222.497,8,400,,,
trial,html.Screen,4_64_0,2023-11-01T17:03:52.130Z,,0,2,,2507.903000035789,response,ISIC_0238570.JPG,5,ISIC_0060535.JPG,ISIC_0238570.JPG,false,1,keypress(m),500,315730.5,315730.40000003576,313215.551,313216.3000000119,313222.497,315736.351,8,400,15,,ISIC_0060535.JPG
break,html.Screen,4_64_1,2023-11-01T17:03:52.130Z,,0,,,NaN,,,,,,false,,,,315730.6999999881,315730.60000002384,,315730.5,,315736.351,8,400,,,
break_continue,html.Screen,4_64_2,2023-11-01T17:03:52.131Z,,0,,,NaN,,,,,,false,,,,315730.8000000119,315730.8000000119,,315730.6999999881,,315736.351,8,400,,,
sequence,flow.Sequence,4_64,2023-11-01T17:03:52.131Z,,0,,,2508.303000011947,completion,,,,,false,,,,315730.8000000119,315730.8000000119,313215.551,313216.3000000119,313222.497,315736.351,8,400,,,
trial,html.Screen,4_65_0,2023-11-01T17:03:54.787Z,,0,2,,2651.148999999976,response,ISIC_0011930.JPG,4,ISIC_0822238.JPG,ISIC_0822238.JPG,false,0,keypress(z),500,318387.60000002384,318387.5,315729.267,315730.8000000119,315736.351,318396.477,8,400,16,,ISIC_0011930.JPG
break,html.Screen,4_65_1,2023-11-01T17:03:54.788Z,,0,,,NaN,,,,,,false,,,,318387.90000003576,318387.6999999881,,318387.6999999881,,318396.477,8,400,,,
break_continue,html.Screen,4_65_2,2023-11-01T17:03:54.788Z,,0,,,NaN,,,,,,false,,,,318387.90000003576,318387.90000003576,,318387.90000003576,,318396.477,8,400,,,
sequence,flow.Sequence,4_65,2023-11-01T17:03:54.788Z,,0,,,2651.5490000357386,completion,,,,,false,,,,318388,318387.90000003576,315729.267,315730.8000000119,315736.351,318396.477,8,400,,,
trial,html.Screen,4_66_0,2023-11-01T17:03:57.398Z,,0,2,,2601.3230000119074,response,ISIC_6487069.JPG,4,ISIC_0011701.JPG,ISIC_6487069.JPG,false,1,keypress(m),500,320997.90000003576,320997.8000000119,318382.008,318388,318396.477,321000.129,8,400,17,,ISIC_0011701.JPG
break,html.Screen,4_66_1,2023-11-01T17:03:57.398Z,,0,,,NaN,,,,,,false,,,,320998.1999999881,320998.10000002384,,320998,,321000.129,8,400,,,
break_continue,html.Screen,4_66_2,2023-11-01T17:03:57.398Z,,0,,,NaN,,,,,,false,,,,320998.3000000119,320998.3000000119,,320998.1999999881,,321000.129,8,400,,,
sequence,flow.Sequence,4_66,2023-11-01T17:03:57.398Z,,0,,,2601.8230000119074,completion,,,,,false,,,,320998.40000003576,320998.3000000119,318382.008,318388,318396.477,321000.129,8,400,,,
trial,html.Screen,4_67_0,2023-11-01T17:03:59.895Z,,0,2,,2495.4710000238265,response,ISIC_0055289.JPG,6,ISIC_4887995.JPG,ISIC_4887995.JPG,false,0,keypress(z),500,323495.8000000119,323495.60000002384,320992.946,320998.40000003576,321000.129,323500.083,8,400,18,,ISIC_0055289.JPG
break,html.Screen,4_67_1,2023-11-01T17:03:59.896Z,,0,,,NaN,,,,,,false,,,,323496,323496,,323495.8000000119,,323500.083,8,400,,,
break_continue,html.Screen,4_67_2,2023-11-01T17:03:59.896Z,,0,,,NaN,,,,,,false,,,,323496.10000002384,323496.10000002384,,323496.10000002384,,323500.083,8,400,,,
sequence,flow.Sequence,4_67,2023-11-01T17:03:59.896Z,,0,,,2495.9710000238265,completion,,,,,false,,,,323496.10000002384,323496.10000002384,320992.946,320998.40000003576,321000.129,323500.083,8,400,,,
trial,html.Screen,4_68_0,2023-11-01T17:04:02.553Z,,0,2,,2652.7170000119368,response,ISIC_0064860.JPG,5,ISIC_0029572.JPG,ISIC_0029572.JPG,false,0,keypress(z),500,326153,326152.8000000119,323493.183,323496.1999999881,323500.083,326159.76,8,400,19,,ISIC_0064860.JPG
break,html.Screen,4_68_1,2023-11-01T17:04:02.553Z,,0,,,NaN,,,,,,false,,,,326153.1999999881,326153.10000002384,,326153,,326159.76,8,400,,,
break_continue,html.Screen,4_68_2,2023-11-01T17:04:02.553Z,,0,,,NaN,,,,,,false,,,,326153.3000000119,326153.3000000119,,326153.1999999881,,326159.76,8,400,,,
sequence,flow.Sequence,4_68,2023-11-01T17:04:02.553Z,,0,,,2653.2170000119368,completion,,,,,false,,,,326153.3000000119,326153.3000000119,323493.183,323496.10000002384,323500.083,326159.76,8,400,,,
trial,html.Screen,4_69_0,2023-11-01T17:04:05.130Z,,0,2,,2570.8400000238325,response,ISIC_2412113.JPG,5,ISIC_0015436.JPG,ISIC_2412113.JPG,false,1,keypress(m),500,328730.6999999881,328730.60000002384,326152.686,326153.3000000119,326159.76,328736.064,8,400,20,,ISIC_0015436.JPG
break,html.Screen,4_69_1,2023-11-01T17:04:05.131Z,,0,,,NaN,,,,,,false,,,,328731,328731,,328730.8000000119,,328736.064,8,400,,,
break_continue,html.Screen,4_69_2,2023-11-01T17:04:05.131Z,,0,,,NaN,,,,,,false,,,,328731.10000002384,328731.10000002384,,328731,,328736.064,8,400,,,
sequence,flow.Sequence,4_69,2023-11-01T17:04:05.131Z,,0,,,2571.3400000238325,completion,,,,,false,,,,328731.10000002384,328731.10000002384,326152.686,326153.3000000119,326159.76,328736.064,8,400,,,
trial,html.Screen,4_70_0,2023-11-01T17:04:08.220Z,,0,2,,3084.236000011908,response,ISIC_4936662.JPG,5,ISIC_0030470.JPG,ISIC_4936662.JPG,false,1,keypress(m),500,331820.40000003576,331820.3000000119,328728.881,328731.1999999881,328736.064,331826.343,8,400,21,,ISIC_0030470.JPG
break,html.Screen,4_70_1,2023-11-01T17:04:08.220Z,,0,,,NaN,,,,,,false,,,,331820.6999999881,331820.60000002384,,331820.5,,331826.343,8,400,,,
break_continue,html.Screen,4_70_2,2023-11-01T17:04:08.220Z,,0,,,NaN,,,,,,false,,,,331820.8000000119,331820.8000000119,,331820.8000000119,,331826.343,8,400,,,
sequence,flow.Sequence,4_70,2023-11-01T17:04:08.221Z,,0,,,3084.736000011908,completion,,,,,false,,,,331820.8000000119,331820.8000000119,328728.881,328731.10000002384,328736.064,331826.343,8,400,,,
trial,html.Screen,4_71_0,2023-11-01T17:04:12.829Z,,0,2,,4603.057000035769,response,ISIC_0016080.JPG,4,ISIC_0640806.JPG,ISIC_0640806.JPG,false,0,keypress(z),500,336429.5,336429.40000003576,331819.273,331820.8000000119,331826.343,336437.312,8,400,22,,ISIC_0016080.JPG
break,html.Screen,4_71_1,2023-11-01T17:04:12.829Z,,0,,,NaN,,,,,,false,,,,336429.6999999881,336429.6999999881,,336429.5,,336437.312,8,400,,,
break_continue,html.Screen,4_71_2,2023-11-01T17:04:12.830Z,,0,,,NaN,,,,,,false,,,,336429.8000000119,336429.6999999881,,336429.6999999881,,336437.312,8,400,,,
sequence,flow.Sequence,4_71,2023-11-01T17:04:12.830Z,,0,,,4603.356999988086,completion,,,,,false,,,,336429.8000000119,336429.6999999881,331819.273,331820.8000000119,331826.343,336437.312,8,400,,,
trial,html.Screen,4_72_0,2023-11-01T17:04:16.927Z,,0,2,,4090.2880000238656,response,ISIC_3770380.JPG,5,ISIC_7171090.JPG,ISIC_3770380.JPG,false,1,keypress(m),500,340527.6999999881,340527.60000002384,336423.25,336429.8000000119,336437.312,340534.296,8,400,23,,ISIC_7171090.JPG
break,html.Screen,4_72_1,2023-11-01T17:04:16.928Z,,0,,,NaN,,,,,,false,,,,340528,340528,,340527.8000000119,,340534.296,8,400,,,
break_continue,html.Screen,4_72_2,2023-11-01T17:04:16.928Z,,0,,,NaN,,,,,,false,,,,340528.10000002384,340528.10000002384,,340528.10000002384,,340534.296,8,400,,,
sequence,flow.Sequence,4_72,2023-11-01T17:04:16.928Z,,0,,,4090.7880000238656,completion,,,,,false,,,,340528.1999999881,340528.10000002384,336423.25,336429.8000000119,336437.312,340534.296,8,400,,,
trial,html.Screen,4_73_0,2023-11-01T17:04:20.290Z,,0,2,,3355.804000023869,response,ISIC_0066223.JPG,6,ISIC_0058496.JPG,ISIC_0066223.JPG,false,1,keypress(m),500,343890.1999999881,343890.10000002384,340527.344,340528.1999999881,340534.296,343895.387,8,400,24,,ISIC_0058496.JPG
break,html.Screen,4_73_1,2023-11-01T17:04:20.290Z,,0,,,NaN,,,,,,false,,,,343890.60000002384,343890.40000003576,,343890.3000000119,,343895.387,8,400,,,
break_continue,html.Screen,4_73_2,2023-11-01T17:04:20.290Z,,0,,,NaN,,,,,,false,,,,343890.6999999881,343890.60000002384,,343890.60000002384,,343895.387,8,400,,,
sequence,flow.Sequence,4_73,2023-11-01T17:04:20.290Z,,0,,,3356.304000023869,completion,,,,,false,,,,343890.6999999881,343890.60000002384,340527.344,340528.1999999881,340534.296,343895.387,8,400,,,
trial,html.Screen,4_74_0,2023-11-01T17:04:23.620Z,,0,2,,3324.613000000012,response,ISIC_0231745.JPG,5,ISIC_9895220.JPG,ISIC_9895220.JPG,false,0,keypress(z),500,347220.1999999881,347220,343888.35,343890.6999999881,343895.387,347221.777,8,400,25,,ISIC_0231745.JPG
break,html.Screen,4_74_1,2023-11-01T17:04:23.620Z,,0,,,NaN,,,,,,false,,,,347220.40000003576,347220.3000000119,,347220.1999999881,,347221.777,8,400,,,
break_continue,html.Screen,4_74_2,2023-11-01T17:04:23.620Z,,0,,,NaN,,,,,,false,,,,347220.5,347220.5,,347220.40000003576,,347221.777,8,400,,,
sequence,flow.Sequence,4_74,2023-11-01T17:04:23.620Z,,0,,,3325.113000000012,completion,,,,,false,,,,347220.5,347220.5,343888.35,343890.6999999881,343895.387,347221.777,8,400,,,
trial,html.Screen,4_75_0,2023-11-01T17:04:26.997Z,,0,2,,3375.523000011919,response,ISIC_4568425.JPG,4,ISIC_0011012.JPG,ISIC_4568425.JPG,false,1,keypress(m),500,350597.40000003576,350597.3000000119,347214.688,347220.60000002384,347221.777,350603.582,8,400,26,,ISIC_0011012.JPG
break,html.Screen,4_75_1,2023-11-01T17:04:26.997Z,,0,,,NaN,,,,,,false,,,,350597.60000002384,350597.60000002384,,350597.40000003576,,350603.582,8,400,,,
break_continue,html.Screen,4_75_2,2023-11-01T17:04:26.997Z,,0,,,NaN,,,,,,false,,,,350597.6999999881,350597.6999999881,,350597.6999999881,,350603.582,8,400,,,
sequence,flow.Sequence,4_75,2023-11-01T17:04:26.997Z,,0,,,3375.922999988077,completion,,,,,false,,,,350597.6999999881,350597.6999999881,347214.688,347220.60000002384,347221.777,350603.582,8,400,,,
trial,html.Screen,4_76_0,2023-11-01T17:04:30.182Z,,0,2,,3178.818000035768,response,ISIC_0030575.JPG,4,ISIC_0010782.JPG,ISIC_0030575.JPG,false,1,keypress(m),500,353782.5,353782.40000003576,350596.718,350597.8000000119,350603.582,353790.927,8,400,27,,ISIC_0010782.JPG
break,html.Screen,4_76_1,2023-11-01T17:04:30.183Z,,0,,,NaN,,,,,,false,,,,353782.8000000119,353782.6999999881,,353782.60000002384,,353790.927,8,400,,,
break_continue,html.Screen,4_76_2,2023-11-01T17:04:30.183Z,,0,,,NaN,,,,,,false,,,,353782.8000000119,353782.8000000119,,353782.8000000119,,353790.927,8,400,,,
sequence,flow.Sequence,4_76,2023-11-01T17:04:30.183Z,,0,,,3179.218000011926,completion,,,,,false,,,,353782.90000003576,353782.8000000119,350596.718,350597.8000000119,350603.582,353790.927,8,400,,,
trial,html.Screen,4_77_0,2023-11-01T17:04:32.920Z,,0,2,,2729.272999988054,response,ISIC_5623973.JPG,4,ISIC_2153401.JPG,ISIC_2153401.JPG,false,0,keypress(z),500,356520.3000000119,356520.1999999881,353784.054,353782.90000003576,353790.927,356527.076,8,400,28,,ISIC_5623973.JPG
break,html.Screen,4_77_1,2023-11-01T17:04:32.920Z,,0,,,NaN,,,,,,false,,,,356520.5,356520.5,,356520.3000000119,,356527.076,8,400,,,
break_continue,html.Screen,4_77_2,2023-11-01T17:04:32.920Z,,0,,,NaN,,,,,,false,,,,356520.6999999881,356520.60000002384,,356520.60000002384,,356527.076,8,400,,,
sequence,flow.Sequence,4_77,2023-11-01T17:04:32.920Z,,0,,,2729.6730000238167,completion,,,,,false,,,,356520.6999999881,356520.60000002384,353784.054,353782.90000003576,353790.927,356527.076,8,400,,,
trial,html.Screen,4_78_0,2023-11-01T17:04:35.929Z,,0,2,,3002.123999988078,response,ISIC_0000520.JPG,4,ISIC_0026150.JPG,ISIC_0026150.JPG,false,0,keypress(z),500,359529.3000000119,359529.1999999881,356520.022,356520.6999999881,356527.076,359533.994,8,400,29,,ISIC_0000520.JPG
break,html.Screen,4_78_1,2023-11-01T17:04:35.929Z,,0,,,NaN,,,,,,false,,,,359529.5,359529.5,,359529.3000000119,,359533.994,8,400,,,
break_continue,html.Screen,4_78_2,2023-11-01T17:04:35.929Z,,0,,,NaN,,,,,,false,,,,359529.6999999881,359529.60000002384,,359529.60000002384,,359533.994,8,400,,,
sequence,flow.Sequence,4_78,2023-11-01T17:04:35.929Z,,0,,,3002.524000023841,completion,,,,,false,,,,359529.8000000119,359529.60000002384,356520.022,356520.6999999881,356527.076,359533.994,8,400,,,
trial,html.Screen,4_79_0,2023-11-01T17:04:39.291Z,,0,2,,3357.005999999994,response,ISIC_6951506.JPG,5,ISIC_9860255.JPG,ISIC_6951506.JPG,false,1,keypress(m),500,362891.10000002384,362891,359526.965,359529.8000000119,359533.994,362894.922,8,400,30,,ISIC_9860255.JPG
break,html.Screen,4_79_1,2023-11-01T17:04:39.291Z,,0,,,NaN,,,,,,false,,,,362891.3000000119,362891.3000000119,,362891.10000002384,,362894.922,8,400,,,
break_continue,html.Screen,4_79_2,2023-11-01T17:04:39.291Z,,0,,,NaN,,,,,,false,,,,362891.5,362891.3000000119,,362891.3000000119,,362894.922,8,400,,,
sequence,flow.Sequence,4_79,2023-11-01T17:04:39.291Z,,0,,,3357.306000011915,completion,,,,,false,,,,362891.5,362891.3000000119,359526.965,359529.8000000119,359533.994,362894.922,8,400,,,
trial,html.Screen,4_80_0,2023-11-01T17:04:42.077Z,,0,2,,2782.2779999880586,response,ISIC_1387456.JPG,5,ISIC_0064986.JPG,ISIC_1387456.JPG,false,1,keypress(m),500,365677.40000003576,365677.1999999881,362887.883,362891.5,362894.922,365679.587,8,400,31,,ISIC_0064986.JPG
break,html.Screen,4_80_1,2023-11-01T17:04:42.077Z,,0,,,NaN,,,,,,false,,,,365677.60000002384,365677.5,,365677.40000003576,,365679.587,8,400,,,
break_continue,html.Screen,4_80_2,2023-11-01T17:04:42.077Z,,0,,,NaN,,,,,,false,,,,365677.6999999881,365677.60000002384,,365677.60000002384,,365679.587,8,400,,,
sequence,flow.Sequence,4_80,2023-11-01T17:04:42.078Z,,0,,,2782.6780000238214,completion,,,,,false,,,,365677.6999999881,365677.60000002384,362887.883,362891.5,362894.922,365679.587,8,400,,,
trial,html.Screen,4_81_0,2023-11-01T17:04:44.624Z,,0,2,,2544.2130000119214,response,ISIC_0010644.JPG,5,ISIC_5247383.JPG,ISIC_5247383.JPG,false,0,keypress(z),500,368223.90000003576,368223.8000000119,365672.557,365677.8000000119,365679.587,368228.145,8,400,32,,ISIC_0010644.JPG
break,html.Screen,4_81_1,2023-11-01T17:04:44.624Z,,0,,,NaN,,,,,,false,,,,368224.1999999881,368224.1999999881,,368223.90000003576,,368228.145,8,400,,,
break_continue,html.Screen,4_81_2,2023-11-01T17:04:44.624Z,,0,,,NaN,,,,,,false,,,,368224.3000000119,368224.3000000119,,368224.3000000119,,368228.145,8,400,,,
sequence,flow.Sequence,4_81,2023-11-01T17:04:44.624Z,,0,,,2544.7130000119214,completion,,,,,false,,,,368224.40000003576,368224.3000000119,365672.557,365677.8000000119,365679.587,368228.145,8,400,,,
trial,html.Screen,4_82_0,2023-11-01T17:04:47.425Z,,0,2,,2797.0549999880604,response,ISIC_0031293.JPG,5,ISIC_9047184.JPG,ISIC_0031293.JPG,false,1,keypress(m),500,371025.3000000119,371025.1999999881,368221.141,368224.40000003576,368228.145,371034.486,8,400,33,,ISIC_9047184.JPG
break,html.Screen,4_82_1,2023-11-01T17:04:47.425Z,,0,,,NaN,,,,,,false,,,,371025.60000002384,371025.5,,371025.40000003576,,371034.486,8,400,,,
break_continue,html.Screen,4_82_2,2023-11-01T17:04:47.425Z,,0,,,NaN,,,,,,false,,,,371025.6999999881,371025.6999999881,,371025.60000002384,,371034.486,8,400,,,
sequence,flow.Sequence,4_82,2023-11-01T17:04:47.426Z,,0,,,2797.5549999880604,completion,,,,,false,,,,371025.6999999881,371025.6999999881,368221.141,368224.40000003576,368228.145,371034.486,8,400,,,
trial,html.Screen,4_83_0,2023-11-01T17:04:50.275Z,,0,2,,2840.5140000000247,response,ISIC_0032278.JPG,4,ISIC_0033708.JPG,ISIC_0032278.JPG,false,1,keypress(m),500,373875.1999999881,373875,371019.658,371025.8000000119,371034.486,373880.822,8,400,34,,ISIC_0033708.JPG
break,html.Screen,4_83_1,2023-11-01T17:04:50.275Z,,0,,,NaN,,,,,,false,,,,373875.5,373875.40000003576,,373875.3000000119,,373880.822,8,400,,,
break_continue,html.Screen,4_83_2,2023-11-01T17:04:50.275Z,,0,,,NaN,,,,,,false,,,,373875.60000002384,373875.60000002384,,373875.5,,373880.822,8,400,,,
sequence,flow.Sequence,4_83,2023-11-01T17:04:50.275Z,,0,,,2841.1140000238665,completion,,,,,false,,,,373875.60000002384,373875.60000002384,371019.658,371025.8000000119,371034.486,373880.822,8,400,,,
trial,html.Screen,4_84_0,2023-11-01T17:04:53.124Z,,0,2,,2843.1780000000144,response,ISIC_1964243.JPG,5,ISIC_9865097.JPG,ISIC_9865097.JPG,false,0,keypress(z),500,376724.10000002384,376724,373873.718,373875.60000002384,373880.822,376727.981,8,400,35,,ISIC_1964243.JPG
break,html.Screen,4_84_1,2023-11-01T17:04:53.124Z,,0,,,NaN,,,,,,false,,,,376724.40000003576,376724.3000000119,,376724.10000002384,,376727.981,8,400,,,
break_continue,html.Screen,4_84_2,2023-11-01T17:04:53.124Z,,0,,,NaN,,,,,,false,,,,376724.5,376724.5,,376724.40000003576,,376727.981,8,400,,,
sequence,flow.Sequence,4_84,2023-11-01T17:04:53.124Z,,0,,,2843.6780000000144,completion,,,,,false,,,,376724.5,376724.5,373873.718,373875.60000002384,373880.822,376727.981,8,400,,,
trial,html.Screen,4_85_0,2023-11-01T17:04:56.742Z,,0,2,,3613.919000035734,response,ISIC_0056915.JPG,4,ISIC_9482039.JPG,ISIC_9482039.JPG,false,0,keypress(z),500,380342,380341.90000003576,376720.928,376724.5,376727.981,380345.919,8,400,36,,ISIC_0056915.JPG
break,html.Screen,4_85_1,2023-11-01T17:04:56.742Z,,0,,,NaN,,,,,,false,,,,380342.3000000119,380342.1999999881,,380342.10000002384,,380345.919,8,400,,,
break_continue,html.Screen,4_85_2,2023-11-01T17:04:56.742Z,,0,,,NaN,,,,,,false,,,,380342.40000003576,380342.40000003576,,380342.3000000119,,380345.919,8,400,,,
sequence,flow.Sequence,4_85,2023-11-01T17:04:56.742Z,,0,,,3614.419000035734,completion,,,,,false,,,,380342.5,380342.40000003576,376720.928,376724.5,376727.981,380345.919,8,400,,,
trial,html.Screen,4_86_0,2023-11-01T17:05:01.175Z,,0,2,,4429.280999988085,response,ISIC_3989526.JPG,5,ISIC_4566439.JPG,ISIC_3989526.JPG,false,1,keypress(m),500,384775.40000003576,384775.1999999881,380338.906,380342.5,380345.919,384784.129,8,400,37,,ISIC_4566439.JPG
break,html.Screen,4_86_1,2023-11-01T17:05:01.175Z,,0,,,NaN,,,,,,false,,,,384775.5,384775.5,,384775.40000003576,,384784.129,8,400,,,
break_continue,html.Screen,4_86_2,2023-11-01T17:05:01.175Z,,0,,,NaN,,,,,,false,,,,384775.60000002384,384775.60000002384,,384775.60000002384,,384784.129,8,400,,,
sequence,flow.Sequence,4_86,2023-11-01T17:05:01.176Z,,0,,,4429.681000023847,completion,,,,,false,,,,384775.8000000119,384775.60000002384,380338.906,380342.5,380345.919,384784.129,8,400,,,
trial,html.Screen,4_87_0,2023-11-01T17:05:04.553Z,,0,2,,3368.6710000119056,response,ISIC_2945891.JPG,5,ISIC_0053841.JPG,ISIC_0053841.JPG,false,0,keypress(z),500,388153,388152.8000000119,384769.335,384775.8000000119,384784.129,388158.297,8,400,38,,ISIC_2945891.JPG
break,html.Screen,4_87_1,2023-11-01T17:05:04.553Z,,0,,,NaN,,,,,,false,,,,388153.1999999881,388153.1999999881,,388153.10000002384,,388158.297,8,400,,,
break_continue,html.Screen,4_87_2,2023-11-01T17:05:04.553Z,,0,,,NaN,,,,,,false,,,,388153.3000000119,388153.3000000119,,388153.1999999881,,388158.297,8,400,,,
sequence,flow.Sequence,4_87,2023-11-01T17:05:04.553Z,,0,,,3369.1710000119056,completion,,,,,false,,,,388153.3000000119,388153.3000000119,384769.335,384775.8000000119,384784.129,388158.297,8,400,,,
trial,html.Screen,4_88_0,2023-11-01T17:05:10.490Z,,0,2,,5932.103000035742,response,ISIC_0026231.JPG,4,ISIC_5673994.JPG,ISIC_0026231.JPG,false,1,keypress(m),500,394090.5,394090.40000003576,388151.291,388153.40000003576,388158.297,394095.625,8,400,39,,ISIC_5673994.JPG
break,html.Screen,4_88_1,2023-11-01T17:05:10.491Z,,0,,,NaN,,,,,,false,,,,394090.90000003576,394090.8000000119,,394090.60000002384,,394095.625,8,400,,,
break_continue,html.Screen,4_88_2,2023-11-01T17:05:10.491Z,,0,,,NaN,,,,,,false,,,,394090.90000003576,394090.90000003576,,394090.90000003576,,394095.625,8,400,,,
sequence,flow.Sequence,4_88,2023-11-01T17:05:10.491Z,,0,,,5932.603000035742,completion,,,,,false,,,,394090.90000003576,394090.90000003576,388151.291,388153.40000003576,388158.297,394095.625,8,400,,,
trial,html.Screen,4_89_0,2023-11-01T17:05:14.653Z,,0,2,,4157.574999988079,response,ISIC_2904474.JPG,5,ISIC_8561963.JPG,ISIC_2904474.JPG,false,1,keypress(m),500,398253.3000000119,398253.1999999881,394088.463,394091,394095.625,398255.283,8,400,40,,ISIC_8561963.JPG
break,html.Screen,4_89_1,2023-11-01T17:05:14.653Z,,0,,,NaN,,,,,,false,,,,398253.5,398253.5,,398253.3000000119,,398255.283,8,400,,,
break_continue,html.Screen,4_89_2,2023-11-01T17:05:14.653Z,,0,,,NaN,,,,,,false,,,,398253.60000002384,398253.5,,398253.5,,398255.283,8,400,,,
sequence,flow.Sequence,4_89,2023-11-01T17:05:14.653Z,,0,,,4157.875,completion,,,,,false,,,,398253.60000002384,398253.5,394088.463,394090.90000003576,394095.625,398255.283,8,400,,,
trial,html.Screen,4_90_0,2023-11-01T17:05:18.222Z,,0,2,,3566.9169999880833,response,ISIC_5754070.JPG,5,ISIC_9267202.JPG,ISIC_5754070.JPG,false,1,keypress(m),500,401822.3000000119,401822.1999999881,398248.359,398253.60000002384,398255.283,401824.546,8,400,41,,ISIC_9267202.JPG
break,html.Screen,4_90_1,2023-11-01T17:05:18.222Z,,0,,,NaN,,,,,,false,,,,401822.5,401822.5,,401822.3000000119,,401824.546,8,400,,,
break_continue,html.Screen,4_90_2,2023-11-01T17:05:18.222Z,,0,,,NaN,,,,,,false,,,,401822.60000002384,401822.60000002384,,401822.60000002384,,401824.546,8,400,,,
sequence,flow.Sequence,4_90,2023-11-01T17:05:18.222Z,,0,,,3567.317000023846,completion,,,,,false,,,,401822.6999999881,401822.60000002384,398248.359,398253.60000002384,398255.283,401824.546,8,400,,,
trial,html.Screen,4_91_0,2023-11-01T17:05:22.991Z,,0,2,,4766.554000023869,response,ISIC_9406755.JPG,4,ISIC_0032517.JPG,ISIC_9406755.JPG,false,1,keypress(m),500,406591.3000000119,406591.10000002384,401817.502,401822.6999999881,401824.546,406595.314,8,400,42,,ISIC_0032517.JPG
break,html.Screen,4_91_1,2023-11-01T17:05:22.991Z,,0,,,NaN,,,,,,false,,,,406591.5,406591.5,,406591.3000000119,,406595.314,8,400,,,
break_continue,html.Screen,4_91_2,2023-11-01T17:05:22.991Z,,0,,,NaN,,,,,,false,,,,406591.6999999881,406591.60000002384,,406591.60000002384,,406595.314,8,400,,,
sequence,flow.Sequence,4_91,2023-11-01T17:05:22.991Z,,0,,,4767.054000023869,completion,,,,,false,,,,406591.6999999881,406591.60000002384,401817.502,401822.6999999881,401824.546,406595.314,8,400,,,
trial,html.Screen,4_92_0,2023-11-01T17:05:26.272Z,,0,2,,3276.986000011908,response,ISIC_7833178.JPG,4,ISIC_5623973.JPG,ISIC_5623973.JPG,false,0,keypress(z),500,409872.40000003576,409872.3000000119,406588.272,406591.6999999881,406595.314,409880.057,8,400,43,,ISIC_7833178.JPG
break,html.Screen,4_92_1,2023-11-01T17:05:26.272Z,,0,,,NaN,,,,,,false,,,,409872.6999999881,409872.60000002384,,409872.5,,409880.057,8,400,,,
break_continue,html.Screen,4_92_2,2023-11-01T17:05:26.273Z,,0,,,NaN,,,,,,false,,,,409872.8000000119,409872.8000000119,,409872.6999999881,,409880.057,8,400,,,
sequence,flow.Sequence,4_92,2023-11-01T17:05:26.273Z,,0,,,3277.486000011908,completion,,,,,false,,,,409872.8000000119,409872.8000000119,406588.272,406591.6999999881,406595.314,409880.057,8,400,,,
trial,html.Screen,4_93_0,2023-11-01T17:05:29.362Z,,0,2,,3081.5430000238703,response,ISIC_5888212.JPG,5,ISIC_0033044.JPG,ISIC_0033044.JPG,false,0,keypress(z),500,412961.8000000119,412961.60000002384,409872.896,409872.90000003576,409880.057,412970.729,8,400,44,,ISIC_5888212.JPG
break,html.Screen,4_93_1,2023-11-01T17:05:29.362Z,,0,,,NaN,,,,,,false,,,,412962,412962,,412961.8000000119,,412970.729,8,400,,,
break_continue,html.Screen,4_93_2,2023-11-01T17:05:29.362Z,,0,,,NaN,,,,,,false,,,,412962.1999999881,412962.10000002384,,412962.10000002384,,412970.729,8,400,,,
sequence,flow.Sequence,4_93,2023-11-01T17:05:29.362Z,,0,,,3082.0430000238703,completion,,,,,false,,,,412962.1999999881,412962.10000002384,409872.896,409872.90000003576,409880.057,412970.729,8,400,,,
trial,html.Screen,4_94_0,2023-11-01T17:05:32.818Z,,0,2,,3447.771000000008,response,ISIC_0011305.JPG,5,ISIC_0029033.JPG,ISIC_0029033.JPG,false,0,keypress(z),500,416418.60000002384,416418.5,412956.237,412962.1999999881,412970.729,416421.523,8,400,45,,ISIC_0011305.JPG
break,html.Screen,4_94_1,2023-11-01T17:05:32.819Z,,0,,,NaN,,,,,,false,,,,416418.90000003576,416418.90000003576,,416418.6999999881,,416421.523,8,400,,,
break_continue,html.Screen,4_94_2,2023-11-01T17:05:32.819Z,,0,,,NaN,,,,,,false,,,,416419,416418.90000003576,,416418.90000003576,,416421.523,8,400,,,
sequence,flow.Sequence,4_94,2023-11-01T17:05:32.819Z,,0,,,3448.1710000357707,completion,,,,,false,,,,416419.10000002384,416418.90000003576,412956.237,412962.1999999881,412970.729,416421.523,8,400,,,
trial,html.Screen,4_95_0,2023-11-01T17:05:35.956Z,,0,2,,3134.0770000238554,response,ISIC_1772828.JPG,4,ISIC_4154293.JPG,ISIC_1772828.JPG,false,1,keypress(m),500,419555.6999999881,419555.60000002384,416414.478,416419.10000002384,416421.523,419560.287,8,400,46,,ISIC_4154293.JPG
break,html.Screen,4_95_1,2023-11-01T17:05:35.956Z,,0,,,NaN,,,,,,false,,,,419556,419555.90000003576,,419555.8000000119,,419560.287,8,400,,,
break_continue,html.Screen,4_95_2,2023-11-01T17:05:35.956Z,,0,,,NaN,,,,,,false,,,,419556.10000002384,419556.10000002384,,419556.10000002384,,419560.287,8,400,,,
sequence,flow.Sequence,4_95,2023-11-01T17:05:35.956Z,,0,,,3134.5770000238554,completion,,,,,false,,,,419556.1999999881,419556.10000002384,416414.478,416419.10000002384,416421.523,419560.287,8,400,,,
trial,html.Screen,4_96_0,2023-11-01T17:05:40.005Z,,0,2,,4045.0130000119098,response,ISIC_0061381.JPG,5,ISIC_6383486.JPG,ISIC_0061381.JPG,false,1,keypress(m),500,423605.40000003576,423605.3000000119,419553.341,419556.1999999881,419560.287,423608.89,8,400,47,,ISIC_6383486.JPG
break,html.Screen,4_96_1,2023-11-01T17:05:40.005Z,,0,,,NaN,,,,,,false,,,,423605.60000002384,423605.60000002384,,423605.40000003576,,423608.89,8,400,,,
break_continue,html.Screen,4_96_2,2023-11-01T17:05:40.005Z,,0,,,NaN,,,,,,false,,,,423605.6999999881,423605.60000002384,,423605.60000002384,,423608.89,8,400,,,
sequence,flow.Sequence,4_96,2023-11-01T17:05:40.006Z,,0,,,4045.3130000238307,completion,,,,,false,,,,423605.8000000119,423605.60000002384,419553.341,419556.1999999881,419560.287,423608.89,8,400,,,
trial,html.Screen,4_97_0,2023-11-01T17:05:43.431Z,,0,2,,3422.609999999986,response,ISIC_1960468.JPG,4,ISIC_0033975.JPG,ISIC_1960468.JPG,false,1,keypress(m),500,427031.60000002384,427031.5,423601.665,423605.8000000119,423608.89,427039.347,8,400,48,,ISIC_0033975.JPG
break,html.Screen,4_97_1,2023-11-01T17:05:43.432Z,,0,,,NaN,,,,,,false,,,,427031.90000003576,427031.8000000119,,427031.6999999881,,427039.347,8,400,,,
break_continue,html.Screen,4_97_2,2023-11-01T17:05:43.432Z,,0,,,NaN,,,,,,false,,,,427032,427032,,427032,,427039.347,8,400,,,
sequence,flow.Sequence,4_97,2023-11-01T17:05:43.432Z,,0,,,3423.109999999986,completion,,,,,false,,,,427032,427032,423601.665,423605.8000000119,423608.89,427039.347,8,400,,,
trial,html.Screen,4_98_0,2023-11-01T17:05:46.233Z,,0,2,,2793.453000011912,response,ISIC_1372928.JPG,5,ISIC_7621412.JPG,ISIC_7621412.JPG,false,0,keypress(z),500,429833,429832.8000000119,427025.376,427032.1999999881,427039.347,429837.907,8,400,49,,ISIC_1372928.JPG
break,html.Screen,4_98_1,2023-11-01T17:05:46.233Z,,0,,,NaN,,,,,,false,,,,429833.1999999881,429833.1999999881,,429833.10000002384,,429837.907,8,400,,,
break_continue,html.Screen,4_98_2,2023-11-01T17:05:46.233Z,,0,,,NaN,,,,,,false,,,,429833.3000000119,429833.3000000119,,429833.3000000119,,429837.907,8,400,,,
sequence,flow.Sequence,4_98,2023-11-01T17:05:46.233Z,,0,,,2793.953000011912,completion,,,,,false,,,,429833.5,429833.3000000119,427025.376,427032,427039.347,429837.907,8,400,,,
trial,html.Screen,4_99_0,2023-11-01T17:05:48.634Z,,0,2,,2396.0929999999935,response,ISIC_0030110.JPG,5,ISIC_4875370.JPG,ISIC_0030110.JPG,false,1,keypress(m),500,432234.10000002384,432234,429830.908,429833.5,429837.907,432240.616,8,400,50,,ISIC_4875370.JPG
break,html.Screen,4_99_1,2023-11-01T17:05:58.634Z,,0,,,9999.657999999996,timeout,,,,,false,,,,442233.8000000119,442233.355,432233.48,432234.1999999881,432240.616,442240.274,8,400,,,
break_continue,html.Screen,4_99_2,2023-11-01T17:06:08.111Z,,0,,,9465.626000035787,response,,,,,false,continue,keypress(Space),,451711,451705.90000003576,442233.355,442233.90000003576,442240.274,451719.792,8,400,,,
sequence,flow.Sequence,4_99,2023-11-01T17:06:08.111Z,,0,,,21867.993000035756,completion,,,,,false,,,,451711,451705.90000003576,429830.908,429833.5,429837.907,451719.792,8,400,,,
trial,html.Screen,4_100_0,2023-11-01T17:06:12.383Z,,0,3,,4263.707999999984,response,ISIC_4269227.JPG,5,ISIC_8163269.JPG,ISIC_8163269.JPG,false,0,keypress(z),500,455983.60000002384,455983.5,451705.059,451711,451719.792,455990.005,8,400,1,,ISIC_4269227.JPG
break,html.Screen,4_100_1,2023-11-01T17:06:12.384Z,,0,,,NaN,,,,,,false,,,,455984,455983.90000003576,,455983.6999999881,,455990.005,8,400,,,
break_continue,html.Screen,4_100_2,2023-11-01T17:06:12.384Z,,0,,,NaN,,,,,,false,,,,455984.10000002384,455984,,455984,,455990.005,8,400,,,
sequence,flow.Sequence,4_100,2023-11-01T17:06:12.384Z,,0,,,4264.207999999984,completion,,,,,false,,,,455984.10000002384,455984,451705.059,451711,451719.792,455990.005,8,400,,,
trial,html.Screen,4_101_0,2023-11-01T17:06:15.234Z,,0,3,,2843.7950000119163,response,ISIC_1560455.JPG,5,ISIC_0015264.JPG,ISIC_1560455.JPG,false,1,keypress(m),500,458833.90000003576,458833.8000000119,455982.828,455984.10000002384,455990.005,458837.137,8,400,2,,ISIC_0015264.JPG
break,html.Screen,4_101_1,2023-11-01T17:06:15.234Z,,0,,,NaN,,,,,,false,,,,458834.3000000119,458834.1999999881,,458834,,458837.137,8,400,,,
break_continue,html.Screen,4_101_2,2023-11-01T17:06:15.234Z,,0,,,NaN,,,,,,false,,,,458834.3000000119,458834.3000000119,,458834.3000000119,,458837.137,8,400,,,
sequence,flow.Sequence,4_101,2023-11-01T17:06:15.234Z,,0,,,2844.2950000119163,completion,,,,,false,,,,458834.40000003576,458834.3000000119,455982.828,455984.10000002384,455990.005,458837.137,8,400,,,
trial,html.Screen,4_102_0,2023-11-01T17:06:18.532Z,,0,3,,3295.363000000012,response,ISIC_7747998.JPG,5,ISIC_0029672.JPG,ISIC_7747998.JPG,false,1,keypress(m),500,462132.6999999881,462132.5,458830.057,458834.5,458837.137,462135.647,8,400,3,,ISIC_0029672.JPG
break,html.Screen,4_102_1,2023-11-01T17:06:18.533Z,,0,,,NaN,,,,,,false,,,,462132.90000003576,462132.90000003576,,462132.8000000119,,462135.647,8,400,,,
break_continue,html.Screen,4_102_2,2023-11-01T17:06:18.533Z,,0,,,NaN,,,,,,false,,,,462133.10000002384,462133.10000002384,,462133,,462135.647,8,400,,,
sequence,flow.Sequence,4_102,2023-11-01T17:06:18.533Z,,0,,,3295.963000023854,completion,,,,,false,,,,462133.10000002384,462133.10000002384,458830.057,458834.40000003576,458837.137,462135.647,8,400,,,
trial,html.Screen,4_103_0,2023-11-01T17:06:22.007Z,,0,3,,3471.052999988082,response,ISIC_0057881.JPG,4,ISIC_0533122.JPG,ISIC_0057881.JPG,false,1,keypress(m),500,465606.8000000119,465606.6999999881,462128.626,462133.1999999881,462135.647,465615.786,8,400,4,,ISIC_0533122.JPG
break,html.Screen,4_103_1,2023-11-01T17:06:22.007Z,,0,,,NaN,,,,,,false,,,,465607.10000002384,465607.10000002384,,465607,,465615.786,8,400,,,
break_continue,html.Screen,4_103_2,2023-11-01T17:06:22.007Z,,0,,,NaN,,,,,,false,,,,465607.1999999881,465607.1999999881,,465607.1999999881,,465615.786,8,400,,,
sequence,flow.Sequence,4_103,2023-11-01T17:06:22.007Z,,0,,,3471.552999988082,completion,,,,,false,,,,465607.1999999881,465607.1999999881,462128.626,462133.10000002384,462135.647,465615.786,8,400,,,
trial,html.Screen,4_104_0,2023-11-01T17:06:25.752Z,,0,3,,3736.213999999978,response,ISIC_0253516.JPG,5,ISIC_6562871.JPG,ISIC_0253516.JPG,false,1,keypress(m),500,469352.10000002384,469352,465600.863,465607.1999999881,465615.786,469357.828,8,400,5,,ISIC_6562871.JPG
break,html.Screen,4_104_1,2023-11-01T17:06:25.752Z,,0,,,NaN,,,,,,false,,,,469352.5,469352.3000000119,,469352.1999999881,,469357.828,8,400,,,
break_continue,html.Screen,4_104_2,2023-11-01T17:06:25.752Z,,0,,,NaN,,,,,,false,,,,469352.5,469352.5,,469352.5,,469357.828,8,400,,,
sequence,flow.Sequence,4_104,2023-11-01T17:06:25.752Z,,0,,,3736.713999999978,completion,,,,,false,,,,469352.60000002384,469352.5,465600.863,465607.1999999881,465615.786,469357.828,8,400,,,
trial,html.Screen,4_105_0,2023-11-01T17:06:28.827Z,,0,3,,3068.7720000238623,response,ISIC_0011612.JPG,4,ISIC_5296963.JPG,ISIC_5296963.JPG,false,0,keypress(z),500,472426.8000000119,472426.60000002384,469350.689,469352.60000002384,469357.828,472434.077,8,400,6,,ISIC_0011612.JPG
break,html.Screen,4_105_1,2023-11-01T17:06:28.827Z,,0,,,NaN,,,,,,false,,,,472427.10000002384,472427,,472426.8000000119,,472434.077,8,400,,,
break_continue,html.Screen,4_105_2,2023-11-01T17:06:28.827Z,,0,,,NaN,,,,,,false,,,,472427.1999999881,472427.1999999881,,472427.10000002384,,472434.077,8,400,,,
sequence,flow.Sequence,4_105,2023-11-01T17:06:28.827Z,,0,,,3069.3719999880996,completion,,,,,false,,,,472427.1999999881,472427.1999999881,469350.689,469352.60000002384,469357.828,472434.077,8,400,,,
trial,html.Screen,4_106_0,2023-11-01T17:06:31.821Z,,0,3,,2986.8230000357726,response,ISIC_8167374.JPG,5,ISIC_0059948.JPG,ISIC_8167374.JPG,false,1,keypress(m),500,475420.90000003576,475420.90000003576,472427.084,472427.1999999881,472434.077,475427.161,8,400,7,,ISIC_0059948.JPG
break,html.Screen,4_106_1,2023-11-01T17:06:31.821Z,,0,,,NaN,,,,,,false,,,,475421.3000000119,475421.10000002384,,475421.10000002384,,475427.161,8,400,,,
break_continue,html.Screen,4_106_2,2023-11-01T17:06:31.821Z,,0,,,NaN,,,,,,false,,,,475421.3000000119,475421.3000000119,,475421.3000000119,,475427.161,8,400,,,
sequence,flow.Sequence,4_106,2023-11-01T17:06:31.821Z,,0,,,2987.2230000119307,completion,,,,,false,,,,475421.3000000119,475421.3000000119,472427.084,472427.1999999881,472434.077,475427.161,8,400,,,
trial,html.Screen,4_107_0,2023-11-01T17:06:34.846Z,,0,3,,3019.239000035741,response,ISIC_0053841.JPG,5,ISIC_0025841.JPG,ISIC_0025841.JPG,false,0,keypress(z),500,478446.6999999881,478446.40000003576,475419.99,475421.40000003576,475427.161,478455.084,8,400,8,,ISIC_0053841.JPG
break,html.Screen,4_107_1,2023-11-01T17:06:34.847Z,,0,,,NaN,,,,,,false,,,,478447,478447,,478446.8000000119,,478455.084,8,400,,,
break_continue,html.Screen,4_107_2,2023-11-01T17:06:34.847Z,,0,,,NaN,,,,,,false,,,,478447.1999999881,478447.10000002384,,478447,,478455.084,8,400,,,
sequence,flow.Sequence,4_107,2023-11-01T17:06:34.847Z,,0,,,3019.93900002382,completion,,,,,false,,,,478447.1999999881,478447.10000002384,475419.99,475421.40000003576,475427.161,478455.084,8,400,,,
trial,html.Screen,4_108_0,2023-11-01T17:06:37.856Z,,0,3,,3001.2160000119475,response,ISIC_0070601.JPG,5,ISIC_7685761.JPG,ISIC_7685761.JPG,false,0,keypress(z),500,481456.40000003576,481456.3000000119,478440.707,478447.1999999881,478455.084,481461.552,8,400,9,,ISIC_0070601.JPG
break,html.Screen,4_108_1,2023-11-01T17:06:37.857Z,,0,,,NaN,,,,,,false,,,,481456.6999999881,481456.60000002384,,481456.5,,481461.552,8,400,,,
break_continue,html.Screen,4_108_2,2023-11-01T17:06:37.857Z,,0,,,NaN,,,,,,false,,,,481456.8000000119,481456.6999999881,,481456.6999999881,,481461.552,8,400,,,
sequence,flow.Sequence,4_108,2023-11-01T17:06:37.857Z,,0,,,3001.6159999881056,completion,,,,,false,,,,481456.8000000119,481456.6999999881,478440.707,478447.1999999881,478455.084,481461.552,8,400,,,
trial,html.Screen,4_109_0,2023-11-01T17:06:40.627Z,,0,3,,2764.8480000357376,response,ISIC_0068000.JPG,4,ISIC_0024694.JPG,ISIC_0068000.JPG,false,1,keypress(m),500,484227.10000002384,484226.40000003576,481454.51,481456.90000003576,481461.552,484232.34,8,400,10,,ISIC_0024694.JPG
break,html.Screen,4_109_1,2023-11-01T17:06:40.628Z,,0,,,NaN,,,,,,false,,,,484227.6999999881,484227.60000002384,,484227.1999999881,,484232.34,8,400,,,
break_continue,html.Screen,4_109_2,2023-11-01T17:06:40.628Z,,0,,,NaN,,,,,,false,,,,484227.8000000119,484227.8000000119,,484227.6999999881,,484232.34,8,400,,,
sequence,flow.Sequence,4_109,2023-11-01T17:06:40.628Z,,0,,,2766.248000011896,completion,,,,,false,,,,484227.90000003576,484227.8000000119,481454.51,481456.90000003576,481461.552,484232.34,8,400,,,
trial,html.Screen,4_110_0,2023-11-01T17:06:43.286Z,,0,3,,2653.2600000238162,response,ISIC_0069705.JPG,5,ISIC_2741857.JPG,ISIC_0069705.JPG,false,1,keypress(m),500,486885.6999999881,486885.60000002384,484225.35,484227.90000003576,484232.34,486892.149,8,400,11,,ISIC_2741857.JPG
break,html.Screen,4_110_1,2023-11-01T17:06:43.286Z,,0,,,NaN,,,,,,false,,,,486886,486885.90000003576,,486885.8000000119,,486892.149,8,400,,,
break_continue,html.Screen,4_110_2,2023-11-01T17:06:43.286Z,,0,,,NaN,,,,,,false,,,,486886.10000002384,486886,,486886,,486892.149,8,400,,,
sequence,flow.Sequence,4_110,2023-11-01T17:06:43.286Z,,0,,,2653.6599999999744,completion,,,,,false,,,,486886.10000002384,486886,484225.35,484227.90000003576,484232.34,486892.149,8,400,,,
trial,html.Screen,4_111_0,2023-11-01T17:06:45.479Z,,0,3,,2186.651000011945,response,ISIC_0026087.JPG,4,ISIC_0027378.JPG,ISIC_0027378.JPG,false,0,keypress(z),500,489078.8000000119,489078.8000000119,486884.995,486886.10000002384,486892.149,489087.398,8,400,12,,ISIC_0026087.JPG
break,html.Screen,4_111_1,2023-11-01T17:06:45.479Z,,0,,,NaN,,,,,,false,,,,489079.1999999881,489079.10000002384,,489079,,489087.398,8,400,,,
break_continue,html.Screen,4_111_2,2023-11-01T17:06:45.479Z,,0,,,NaN,,,,,,false,,,,489079.40000003576,489079.3000000119,,489079.3000000119,,489087.398,8,400,,,
sequence,flow.Sequence,4_111,2023-11-01T17:06:45.479Z,,0,,,2187.151000011945,completion,,,,,false,,,,489079.5,489079.3000000119,486884.995,486886.10000002384,486892.149,489087.398,8,400,,,
trial,html.Screen,4_112_0,2023-11-01T17:06:50.553Z,,0,3,,5066.1020000000135,response,ISIC_0059506.JPG,4,ISIC_0010618.JPG,ISIC_0059506.JPG,false,1,keypress(m),500,494153.60000002384,494153.5,489079.364,489079.5,489087.398,494162.691,8,400,13,,ISIC_0010618.JPG
break,html.Screen,4_112_1,2023-11-01T17:06:50.554Z,,0,,,NaN,,,,,,false,,,,494153.90000003576,494153.90000003576,,494153.60000002384,,494162.691,8,400,,,
break_continue,html.Screen,4_112_2,2023-11-01T17:06:50.554Z,,0,,,NaN,,,,,,false,,,,494154,494154,,494154,,494162.691,8,400,,,
sequence,flow.Sequence,4_112,2023-11-01T17:06:50.554Z,,0,,,5066.6020000000135,completion,,,,,false,,,,494154,494154,489079.364,489079.5,489087.398,494162.691,8,400,,,
trial,html.Screen,4_113_0,2023-11-01T17:06:54.267Z,,0,3,,3704.5089999880875,response,ISIC_2535382.JPG,4,ISIC_4724660.JPG,ISIC_2535382.JPG,false,1,keypress(m),500,497867.40000003576,497867.1999999881,494155.873,494154,494162.691,497871.018,8,400,14,,ISIC_4724660.JPG
break,html.Screen,4_113_1,2023-11-01T17:06:54.267Z,,0,,,NaN,,,,,,false,,,,497867.60000002384,497867.5,,497867.40000003576,,497871.018,8,400,,,
break_continue,html.Screen,4_113_2,2023-11-01T17:06:54.268Z,,0,,,NaN,,,,,,false,,,,497867.6999999881,497867.6999999881,,497867.6999999881,,497871.018,8,400,,,
sequence,flow.Sequence,4_113,2023-11-01T17:06:54.268Z,,0,,,3705.0089999880875,completion,,,,,false,,,,497867.6999999881,497867.6999999881,494155.873,494154,494162.691,497871.018,8,400,,,
trial,html.Screen,4_114_0,2023-11-01T17:06:57.485Z,,0,3,,3214.08200002386,response,ISIC_0012708.JPG,5,ISIC_0027378.JPG,ISIC_0012708.JPG,false,1,keypress(m),500,501085.1999999881,501085.10000002384,497863.901,497867.90000003576,497871.018,501093.486,8,400,15,,ISIC_0027378.JPG
break,html.Screen,4_114_1,2023-11-01T17:06:57.485Z,,0,,,NaN,,,,,,false,,,,501085.5,501085.40000003576,,501085.3000000119,,501093.486,8,400,,,
break_continue,html.Screen,4_114_2,2023-11-01T17:06:57.485Z,,0,,,NaN,,,,,,false,,,,501085.60000002384,501085.60000002384,,501085.60000002384,,501093.486,8,400,,,
sequence,flow.Sequence,4_114,2023-11-01T17:06:57.485Z,,0,,,3214.58200002386,completion,,,,,false,,,,501085.60000002384,501085.60000002384,497863.901,497867.8000000119,497871.018,501093.486,8,400,,,
trial,html.Screen,4_115_0,2023-11-01T17:07:01.278Z,,0,3,,3784.7139999881038,response,ISIC_0012082.JPG,4,ISIC_2779787.JPG,ISIC_2779787.JPG,false,0,keypress(z),500,504878.40000003576,504878.1999999881,501079.119,501085.6999999881,501093.486,504884.764,8,400,16,,ISIC_0012082.JPG
break,html.Screen,4_115_1,2023-11-01T17:07:01.278Z,,0,,,NaN,,,,,,false,,,,504878.60000002384,504878.5,,504878.40000003576,,504884.764,8,400,,,
break_continue,html.Screen,4_115_2,2023-11-01T17:07:01.279Z,,0,,,NaN,,,,,,false,,,,504878.6999999881,504878.6999999881,,504878.6999999881,,504884.764,8,400,,,
sequence,flow.Sequence,4_115,2023-11-01T17:07:01.279Z,,0,,,3785.2139999881038,completion,,,,,false,,,,504878.6999999881,504878.6999999881,501079.119,501085.6999999881,501093.486,504884.764,8,400,,,
trial,html.Screen,4_116_0,2023-11-01T17:07:05.583Z,,0,3,,4298.735999999975,response,ISIC_6507412.JPG,4,ISIC_0016013.JPG,ISIC_0016013.JPG,false,0,keypress(z),500,509183.60000002384,509183.5,504877.629,504878.8000000119,504884.764,509190.171,8,400,17,,ISIC_6507412.JPG
break,html.Screen,4_116_1,2023-11-01T17:07:05.584Z,,0,,,NaN,,,,,,false,,,,509183.90000003576,509183.8000000119,,509183.6999999881,,509190.171,8,400,,,
break_continue,html.Screen,4_116_2,2023-11-01T17:07:05.584Z,,0,,,NaN,,,,,,false,,,,509184.10000002384,509184,,509184,,509190.171,8,400,,,
sequence,flow.Sequence,4_116,2023-11-01T17:07:05.584Z,,0,,,4299.235999999975,completion,,,,,false,,,,509184.10000002384,509184,504877.629,504878.8000000119,504884.764,509190.171,8,400,,,
trial,html.Screen,4_117_0,2023-11-01T17:07:08.337Z,,0,3,,2747.028999988106,response,ISIC_2470790.JPG,4,ISIC_9765760.JPG,ISIC_2470790.JPG,false,1,keypress(m),500,511937.3000000119,511937.1999999881,509183.013,509184.10000002384,509190.171,511940.033,8,400,18,,ISIC_9765760.JPG
break,html.Screen,4_117_1,2023-11-01T17:07:08.337Z,,0,,,NaN,,,,,,false,,,,511937.60000002384,511937.5,,511937.40000003576,,511940.033,8,400,,,
break_continue,html.Screen,4_117_2,2023-11-01T17:07:08.338Z,,0,,,NaN,,,,,,false,,,,511937.6999999881,511937.6999999881,,511937.60000002384,,511940.033,8,400,,,
sequence,flow.Sequence,4_117,2023-11-01T17:07:08.338Z,,0,,,2747.528999988106,completion,,,,,false,,,,511937.6999999881,511937.6999999881,509183.013,509184.10000002384,509190.171,511940.033,8,400,,,
trial,html.Screen,4_118_0,2023-11-01T17:07:12.082Z,,0,3,,3742.367000035767,response,ISIC_2975167.JPG,5,ISIC_3888713.JPG,ISIC_3888713.JPG,false,0,keypress(z),500,515682.40000003576,515682.40000003576,511933.021,511937.8000000119,511940.033,515689.976,8,400,19,,ISIC_2975167.JPG
break,html.Screen,4_118_1,2023-11-01T17:07:12.083Z,,0,,,NaN,,,,,,false,,,,515682.6999999881,515682.60000002384,,515682.5,,515689.976,8,400,,,
break_continue,html.Screen,4_118_2,2023-11-01T17:07:12.083Z,,0,,,NaN,,,,,,false,,,,515682.8000000119,515682.8000000119,,515682.8000000119,,515689.976,8,400,,,
sequence,flow.Sequence,4_118,2023-11-01T17:07:12.083Z,,0,,,3742.767000011925,completion,,,,,false,,,,515682.90000003576,515682.8000000119,511933.021,511937.8000000119,511940.033,515689.976,8,400,,,
trial,html.Screen,4_119_0,2023-11-01T17:07:14.819Z,,0,3,,2729.523999999976,response,ISIC_3274493.JPG,5,ISIC_7746479.JPG,ISIC_3274493.JPG,false,1,keypress(m),500,518419.6999999881,518419.5,515682.829,515682.90000003576,515689.976,518426.081,8,400,20,,ISIC_7746479.JPG
break,html.Screen,4_119_1,2023-11-01T17:07:14.820Z,,0,,,NaN,,,,,,false,,,,518419.90000003576,518419.90000003576,,518419.8000000119,,518426.081,8,400,,,
break_continue,html.Screen,4_119_2,2023-11-01T17:07:14.820Z,,0,,,NaN,,,,,,false,,,,518420.10000002384,518420,,518419.90000003576,,518426.081,8,400,,,
sequence,flow.Sequence,4_119,2023-11-01T17:07:14.820Z,,0,,,2730.023999999976,completion,,,,,false,,,,518420.10000002384,518420,515682.829,515682.90000003576,515689.976,518426.081,8,400,,,
trial,html.Screen,4_120_0,2023-11-01T17:07:17.669Z,,0,3,,2842.819000035757,response,ISIC_0031303.JPG,5,ISIC_0055046.JPG,ISIC_0031303.JPG,false,1,keypress(m),500,521269,521268.90000003576,518419.062,518420.10000002384,518426.081,521273.14,8,400,21,,ISIC_0055046.JPG
break,html.Screen,4_120_1,2023-11-01T17:07:17.669Z,,0,,,NaN,,,,,,false,,,,521269.1999999881,521269.1999999881,,521269.10000002384,,521273.14,8,400,,,
break_continue,html.Screen,4_120_2,2023-11-01T17:07:17.669Z,,0,,,NaN,,,,,,false,,,,521269.3000000119,521269.3000000119,,521269.3000000119,,521273.14,8,400,,,
sequence,flow.Sequence,4_120,2023-11-01T17:07:17.669Z,,0,,,2843.2190000119153,completion,,,,,false,,,,521269.40000003576,521269.3000000119,518419.062,518420.10000002384,518426.081,521273.14,8,400,,,
trial,html.Screen,4_121_0,2023-11-01T17:07:20.390Z,,0,3,,2717.460000023828,response,ISIC_0033104.JPG,5,ISIC_0063268.JPG,ISIC_0063268.JPG,false,0,keypress(z),500,523990.60000002384,523990.60000002384,521266.185,521269.5,521273.14,523995.49,8,400,22,,ISIC_0033104.JPG
break,html.Screen,4_121_1,2023-11-01T17:07:20.391Z,,0,,,NaN,,,,,,false,,,,523990.90000003576,523990.90000003576,,523990.6999999881,,523995.49,8,400,,,
break_continue,html.Screen,4_121_2,2023-11-01T17:07:20.391Z,,0,,,NaN,,,,,,false,,,,523991.10000002384,523991,,523991,,523995.49,8,400,,,
sequence,flow.Sequence,4_121,2023-11-01T17:07:20.391Z,,0,,,2717.859999999986,completion,,,,,false,,,,523991.10000002384,523991,521266.185,521269.5,521273.14,523995.49,8,400,,,
trial,html.Screen,4_122_0,2023-11-01T17:07:23.432Z,,0,3,,3036.610000023851,response,ISIC_0032522.JPG,6,ISIC_2008230.JPG,ISIC_0032522.JPG,false,1,keypress(m),500,527032.1999999881,527032.1000000238,523988.323,523991.10000002384,523995.49,527036.974,8,400,23,,ISIC_2008230.JPG
break,html.Screen,4_122_1,2023-11-01T17:07:23.432Z,,0,,,NaN,,,,,,false,,,,527032.5,527032.4000000358,,527032.3000000119,,527036.974,8,400,,,
break_continue,html.Screen,4_122_2,2023-11-01T17:07:23.432Z,,0,,,NaN,,,,,,false,,,,527032.6000000238,527032.5,,527032.5,,527036.974,8,400,,,
sequence,flow.Sequence,4_122,2023-11-01T17:07:23.433Z,,0,,,3037.0100000000093,completion,,,,,false,,,,527032.8000000119,527032.5,523988.323,523991.10000002384,523995.49,527036.974,8,400,,,
trial,html.Screen,4_123_0,2023-11-01T17:07:26.202Z,,0,3,,2765.126000023796,response,ISIC_0012338.JPG,4,ISIC_0061475.JPG,ISIC_0012338.JPG,false,1,keypress(m),500,529802.3000000119,529802.1000000238,527029.854,527032.8000000119,527036.974,529807.743,8,400,24,,ISIC_0061475.JPG
break,html.Screen,4_123_1,2023-11-01T17:07:26.202Z,,0,,,NaN,,,,,,false,,,,529802.5,529802.4000000358,,529802.3000000119,,529807.743,8,400,,,
break_continue,html.Screen,4_123_2,2023-11-01T17:07:26.202Z,,0,,,NaN,,,,,,false,,,,529802.6000000238,529802.6000000238,,529802.6000000238,,529807.743,8,400,,,
sequence,flow.Sequence,4_123,2023-11-01T17:07:26.202Z,,0,,,2765.626000023796,completion,,,,,false,,,,529802.6000000238,529802.6000000238,527029.854,527032.8000000119,527036.974,529807.743,8,400,,,
trial,html.Screen,4_124_0,2023-11-01T17:07:28.907Z,,0,3,,2699.357000023825,response,ISIC_0032939.JPG,4,ISIC_8353090.JPG,ISIC_8353090.JPG,false,0,keypress(z),500,532507.1999999881,532507.1000000238,529800.715,529802.6999999881,529807.743,532509.061,8,400,25,,ISIC_0032939.JPG
break,html.Screen,4_124_1,2023-11-01T17:07:28.907Z,,0,,,NaN,,,,,,false,,,,532507.4000000358,532507.4000000358,,532507.3000000119,,532509.061,8,400,,,
break_continue,html.Screen,4_124_2,2023-11-01T17:07:28.907Z,,0,,,NaN,,,,,,false,,,,532507.6000000238,532507.5,,532507.5,,532509.061,8,400,,,
sequence,flow.Sequence,4_124,2023-11-01T17:07:28.907Z,,0,,,2699.7569999999832,completion,,,,,false,,,,532507.6999999881,532507.5,529800.715,529802.6999999881,529807.743,532509.061,8,400,,,
trial,html.Screen,4_125_0,2023-11-01T17:07:31.709Z,,0,3,,2800.138999988092,response,ISIC_0030760.JPG,5,ISIC_0071693.JPG,ISIC_0071693.JPG,false,0,keypress(z),500,535309.3000000119,535309.1999999881,532501.909,532507.6999999881,532509.061,535314.551,8,400,26,,ISIC_0030760.JPG
break,html.Screen,4_125_1,2023-11-01T17:07:31.709Z,,0,,,NaN,,,,,,false,,,,535309.5,535309.5,,535309.3000000119,,535314.551,8,400,,,
