sender,sender_type,sender_id,timestamp,meta,,blockNo,condition,duration,ended_on,img_left,img_reveal,img_right,loser,practice,response,response_action,selection_duration,time_commit,time_end,time_render,time_run,time_show,time_switch,total_blocks,total_trials,trialNo,url,winner
informed_consent,html.Screen,0,2023-11-01T15:49:51.447Z,"{""labjs_version"":""20.2.4"",""labjs_build"":{""flavor"":""production"",""commit"":""f5b4a49f956347addd546a832a3327688c2c0fef""},""location"":""https://run.pavlovia.org/MurrayBennett/melanoma-2afc/?participant=66810&platform=sona"",""userAgent"":""Mozilla/5.0 (Macintosh; Intel Mac OS X 10_15_7) AppleWebKit/537.36 (KHTML, like Gecko) Chrome/116.0.0.0 Safari/537.36"",""platform"":""MacIntel"",""language"":""en-US"",""locale"":""en-US"",""timeZone"":""America/Chicago"",""timezoneOffset"":300,""screen_width"":1792,""screen_height"":1120,""scroll_width"":1792,""scroll_height"":884,""window_innerWidth"":1792,""window_innerHeight"":932,""devicePixelRatio"":2}",,,,2687.5749999046325,response,,,,,,consent,click button,,5914.400000095367,5900.099999904633,3179.193,3175.7000000476837,3212.525,5929.538,,,,"{""participant"":""66810"",""platform"":""sona""}",
Welcome,html.Screen,1,2023-11-01T15:49:53.757Z,,,,uniform,2270.4620000000004,response,,,,,,continue,click button,,8223.799999952316,8200,5912.872,5914.5,5929.538,8246.112,,,,,
trial,html.Screen,2_0_0,2023-11-01T15:50:04.319Z,,0,0,,10539.788000095368,response,ISIC_0025593.JPG,,ISIC_0063388.JPG,ISIC_0063388.JPG,true,0,keypress(z),500,18786.299999952316,18785.900000095367,8229.446,8223.900000095367,8246.112,18812.81,1,6,1,,ISIC_0025593.JPG
sequence,flow.Sequence,2_0,2023-11-01T15:50:04.320Z,,0,,,10539.788000095368,completion,,,,,true,,,,18786.900000095367,18785.900000095367,8229.446,8223.900000095367,8246.112,18812.81,1,6,,,
trial,html.Screen,2_1_0,2023-11-01T15:50:14.943Z,,0,0,,10596.890000047682,response,ISIC_1309015.JPG,,ISIC_0028178.JPG,ISIC_1309015.JPG,true,1,keypress(m),500,29410,29409.700000047684,18796.144,18786.900000095367,18812.81,29429.507,1,6,2,,ISIC_0028178.JPG
sequence,flow.Sequence,2_1,2023-11-01T15:50:14.943Z,,0,,,10596.890000047682,completion,,,,,true,,,,29410.400000095367,29409.700000047684,18796.144,18786.900000095367,18812.81,29429.507,1,6,,,
trial,html.Screen,2_2_0,2023-11-01T15:50:19.895Z,,0,0,,4932.992999999999,response,ISIC_3314853.JPG,,ISIC_0031128.JPG,ISIC_0031128.JPG,true,0,keypress(z),500,34362.799999952316,34362.5,29412.841,29410.599999904633,29429.507,34379.763,1,6,3,,ISIC_3314853.JPG
sequence,flow.Sequence,2_2,2023-11-01T15:50:19.896Z,,0,,,4932.992999999999,completion,,,,,true,,,,34363.40000009537,34362.5,29412.841,29410.599999904633,29429.507,34379.763,1,6,,,
trial,html.Screen,2_3_0,2023-11-01T15:50:26.286Z,,0,0,,6373.737000000001,response,ISIC_0031612.JPG,,ISIC_8980141.JPG,ISIC_0031612.JPG,true,1,keypress(m),500,40753.799999952316,40753.5,34363.097,34363.5,34379.763,40779.507,1,6,4,,ISIC_8980141.JPG
sequence,flow.Sequence,2_3,2023-11-01T15:50:26.287Z,,0,,,6373.737000000001,completion,,,,,true,,,,40754.299999952316,40753.5,34363.097,34363.5,34379.763,40779.507,1,6,,,
trial,html.Screen,2_4_0,2023-11-01T15:50:29.360Z,,0,0,,3047.693000047686,response,ISIC_1197737.JPG,,ISIC_9721604.JPG,ISIC_9721604.JPG,true,0,keypress(z),500,43827.5,43827.200000047684,40762.841,40754.5,40779.507,43846.051,1,6,5,,ISIC_1197737.JPG
sequence,flow.Sequence,2_4,2023-11-01T15:50:29.360Z,,0,,,3047.693000047686,completion,,,,,true,,,,43828,43827.200000047684,40762.841,40754.5,40779.507,43846.051,1,6,,,
trial,html.Screen,2_5_0,2023-11-01T15:50:33.482Z,,0,0,,4103.349000095368,response,ISIC_0025346.JPG,,ISIC_0010681.JPG,ISIC_0025346.JPG,true,1,keypress(m),500,47949.700000047684,47949.40000009537,43829.385,43828.09999990463,43846.051,47979.674,1,6,6,,ISIC_0010681.JPG
sequence,flow.Sequence,2_5,2023-11-01T15:50:33.482Z,,0,,,4103.349000095368,completion,,,,,true,,,,47950.09999990463,47949.40000009537,43829.385,43828.09999990463,43846.051,47979.674,1,6,,,
loop,flow.Loop,2,2023-11-01T15:50:33.482Z,,,,,39703.28800009537,completion,,,,,true,,,,47950.200000047684,47949.40000009537,8229.446,8223.900000095367,8246.112,47979.674,1,6,,,
exp_instructions,html.Screen,3,2023-11-01T15:50:42.887Z,,,,,9369.826000000001,response,,,,,,continue,keypress(Space),,57354.59999990463,57349.5,47963.008,47950.299999952316,47979.674,57379.752,,,,,
trial,html.Screen,4_0_0,2023-11-01T15:50:48.158Z,,0,1,,5246.448000047683,response,ISIC_4539674.JPG,5,ISIC_4579262.JPG,ISIC_4539674.JPG,false,1,keypress(m),500,62626.5,62626.200000047684,57363.086,57354.700000047684,57379.752,62646.208,8,400,1,,ISIC_4579262.JPG
break,html.Screen,4_0_1,2023-11-01T15:50:48.159Z,,0,,,NaN,,,,,,false,,,,62627.40000009537,62627.200000047684,,62626.700000047684,,62646.208,8,400,,,
break_continue,html.Screen,4_0_2,2023-11-01T15:50:48.160Z,,0,,,NaN,,,,,,false,,,,62627.700000047684,62627.59999990463,,62627.5,,62646.208,8,400,,,
sequence,flow.Sequence,4_0,2023-11-01T15:50:48.160Z,,0,,,5247.847999904632,completion,,,,,false,,,,62627.90000009537,62627.59999990463,57363.086,57354.59999990463,57379.752,62646.208,8,400,,,
trial,html.Screen,4_1_0,2023-11-01T15:50:50.864Z,,0,1,,2685.492000047685,response,ISIC_2910705.JPG,4,ISIC_0067443.JPG,ISIC_2910705.JPG,false,1,keypress(m),500,65331.90000009537,65331.700000047684,62629.542,62627.90000009537,62646.208,65346.555,8,400,2,,ISIC_0067443.JPG
break,html.Screen,4_1_1,2023-11-01T15:50:50.865Z,,0,,,NaN,,,,,,false,,,,65332.799999952316,65332.5,,65332.200000047684,,65346.555,8,400,,,
break_continue,html.Screen,4_1_2,2023-11-01T15:50:50.865Z,,0,,,NaN,,,,,,false,,,,65333,65332.90000009537,,65332.799999952316,,65346.555,8,400,,,
sequence,flow.Sequence,4_1,2023-11-01T15:50:50.865Z,,0,,,2686.6920000953687,completion,,,,,false,,,,65333.09999990463,65332.90000009537,62629.542,62627.90000009537,62646.208,65346.555,8,400,,,
trial,html.Screen,4_2_0,2023-11-01T15:50:54.282Z,,0,1,,3403.5449999046323,response,ISIC_0374029.JPG,4,ISIC_8029613.JPG,ISIC_8029613.JPG,false,0,keypress(z),500,68750.40000009537,68750.09999990463,65329.889,65333.200000047684,65346.555,68779.751,8,400,3,,ISIC_0374029.JPG
break,html.Screen,4_2_1,2023-11-01T15:50:54.283Z,,0,,,NaN,,,,,,false,,,,68751,68750.90000009537,,68750.59999990463,,68779.751,8,400,,,
break_continue,html.Screen,4_2_2,2023-11-01T15:50:54.283Z,,0,,,NaN,,,,,,false,,,,68751.29999995232,68751.20000004768,,68751.09999990463,,68779.751,8,400,,,
sequence,flow.Sequence,4_2,2023-11-01T15:50:54.283Z,,0,,,3404.6450000476834,completion,,,,,false,,,,68751.40000009537,68751.20000004768,65329.889,65333.200000047684,65346.555,68779.751,8,400,,,
trial,html.Screen,4_3_0,2023-11-01T15:50:57.279Z,,0,1,,2967.5489999523124,response,ISIC_2778131.JPG,5,ISIC_5974838.JPG,ISIC_2778131.JPG,false,1,keypress(m),500,71747.5,71747.29999995232,68763.085,68751.40000009537,68779.751,71762.965,8,400,4,,ISIC_5974838.JPG
break,html.Screen,4_3_1,2023-11-01T15:50:57.280Z,,0,,,NaN,,,,,,false,,,,71748.29999995232,71748.09999990463,,71747.70000004768,,71762.965,8,400,,,
break_continue,html.Screen,4_3_2,2023-11-01T15:50:57.280Z,,0,,,NaN,,,,,,false,,,,71748.59999990463,71748.40000009537,,71748.40000009537,,71762.965,8,400,,,
sequence,flow.Sequence,4_3,2023-11-01T15:50:57.280Z,,0,,,2968.6490000953636,completion,,,,,false,,,,71748.59999990463,71748.40000009537,68763.085,68751.40000009537,68779.751,71762.965,8,400,,,
trial,html.Screen,4_4_0,2023-11-01T15:51:00.294Z,,0,1,,2999.0350000000035,response,ISIC_0031611.JPG,5,ISIC_0024315.JPG,ISIC_0024315.JPG,false,0,keypress(z),500,74762.29999995232,74762,71746.299,71748.70000004768,71762.965,74779.965,8,400,5,,ISIC_0031611.JPG
break,html.Screen,4_4_1,2023-11-01T15:51:00.295Z,,0,,,NaN,,,,,,false,,,,74763,74762.90000009537,,74762.5,,74779.965,8,400,,,
break_continue,html.Screen,4_4_2,2023-11-01T15:51:00.295Z,,0,,,NaN,,,,,,false,,,,74763.29999995232,74763.20000004768,,74763.09999990463,,74779.965,8,400,,,
sequence,flow.Sequence,4_4,2023-11-01T15:51:00.295Z,,0,,,3000.235000047687,completion,,,,,false,,,,74763.5,74763.20000004768,71746.299,71748.70000004768,71762.965,74779.965,8,400,,,
trial,html.Screen,4_5_0,2023-11-01T15:51:02.969Z,,0,1,,2657.5350000000035,response,ISIC_9219692.JPG,5,ISIC_0064279.JPG,ISIC_9219692.JPG,false,1,keypress(m),500,77437.79999995232,77437.5,74763.299,74763.5,74779.965,77463.191,8,400,6,,ISIC_0064279.JPG
break,html.Screen,4_5_1,2023-11-01T15:51:02.970Z,,0,,,NaN,,,,,,false,,,,77438.70000004768,77438.5,,77438.09999990463,,77463.191,8,400,,,
break_continue,html.Screen,4_5_2,2023-11-01T15:51:02.971Z,,0,,,NaN,,,,,,false,,,,77438.90000009537,77438.90000009537,,77438.70000004768,,77463.191,8,400,,,
sequence,flow.Sequence,4_5,2023-11-01T15:51:02.971Z,,0,,,2658.935000095371,completion,,,,,false,,,,77439.09999990463,77438.90000009537,74763.299,74763.5,74779.965,77463.191,8,400,,,
trial,html.Screen,4_6_0,2023-11-01T15:51:06.066Z,,0,1,,3070.9089999046264,response,ISIC_2412888.JPG,7,ISIC_4976189.JPG,ISIC_4976189.JPG,false,0,keypress(z),500,80534.40000009537,80534.09999990463,77446.525,77439.20000004768,77463.191,80563.067,8,400,7,,ISIC_2412888.JPG
break,html.Screen,4_6_1,2023-11-01T15:51:06.067Z,,0,,,NaN,,,,,,false,,,,80535,80534.90000009537,,80534.59999990463,,80563.067,8,400,,,
break_continue,html.Screen,4_6_2,2023-11-01T15:51:06.067Z,,0,,,NaN,,,,,,false,,,,80535.29999995232,80535.29999995232,,80535.09999990463,,80563.067,8,400,,,
sequence,flow.Sequence,4_6,2023-11-01T15:51:06.067Z,,0,,,3072.10899995231,completion,,,,,false,,,,80535.5,80535.29999995232,77446.525,77439.09999990463,77463.191,80563.067,8,400,,,
trial,html.Screen,4_7_0,2023-11-01T15:51:09.511Z,,0,1,,3416.333000095372,response,ISIC_4363603.JPG,6,ISIC_0011964.JPG,ISIC_4363603.JPG,false,1,keypress(m),500,83979.70000004768,83979.40000009537,80546.401,80535.59999990463,80563.067,83996.263,8,400,8,,ISIC_0011964.JPG
break,html.Screen,4_7_1,2023-11-01T15:51:09.512Z,,0,,,NaN,,,,,,false,,,,83980.5,83980.40000009537,,83979.79999995232,,83996.263,8,400,,,
break_continue,html.Screen,4_7_2,2023-11-01T15:51:09.512Z,,0,,,NaN,,,,,,false,,,,83980.70000004768,83980.70000004768,,83980.59999990463,,83996.263,8,400,,,
sequence,flow.Sequence,4_7,2023-11-01T15:51:09.512Z,,0,,,3417.6330000476883,completion,,,,,false,,,,83980.90000009537,83980.70000004768,80546.401,80535.59999990463,80563.067,83996.263,8,400,,,
trial,html.Screen,4_8_0,2023-11-01T15:51:12.398Z,,0,1,,2869.7369999999937,response,ISIC_8438811.JPG,4,ISIC_0024752.JPG,ISIC_8438811.JPG,false,1,keypress(m),500,86866.20000004768,86866,83979.597,83981,83996.263,86879.936,8,400,9,,ISIC_0024752.JPG
break,html.Screen,4_8_1,2023-11-01T15:51:12.399Z,,0,,,NaN,,,,,,false,,,,86867.09999990463,86866.90000009537,,86866.5,,86879.936,8,400,,,
break_continue,html.Screen,4_8_2,2023-11-01T15:51:12.399Z,,0,,,NaN,,,,,,false,,,,86867.40000009537,86867.29999995232,,86867.20000004768,,86879.936,8,400,,,
sequence,flow.Sequence,4_8,2023-11-01T15:51:12.399Z,,0,,,2871.03699995231,completion,,,,,false,,,,86867.5,86867.29999995232,83979.597,83981,83996.263,86879.936,8,400,,,
trial,html.Screen,4_9_0,2023-11-01T15:51:16.214Z,,0,1,,3802.264000047682,response,ISIC_3070206.JPG,5,ISIC_0031118.JPG,ISIC_3070206.JPG,false,1,keypress(m),500,90682.5,90682.20000004768,86863.27,86867.59999990463,86879.936,90696.45,8,400,10,,ISIC_0031118.JPG
break,html.Screen,4_9_1,2023-11-01T15:51:16.215Z,,0,,,NaN,,,,,,false,,,,90683.29999995232,90683.20000004768,,90682.70000004768,,90696.45,8,400,,,
break_continue,html.Screen,4_9_2,2023-11-01T15:51:16.215Z,,0,,,NaN,,,,,,false,,,,90683.59999990463,90683.5,,90683.40000009537,,90696.45,8,400,,,
sequence,flow.Sequence,4_9,2023-11-01T15:51:16.215Z,,0,,,3803.5639999999985,completion,,,,,false,,,,90683.70000004768,90683.5,86863.27,86867.59999990463,86879.936,90696.45,8,400,,,
trial,html.Screen,4_10_0,2023-11-01T15:51:18.927Z,,0,1,,2699.050000000003,response,ISIC_5039895.JPG,5,ISIC_9555580.JPG,ISIC_5039895.JPG,false,1,keypress(m),500,93395.70000004768,93395.5,90679.784,90683.79999995232,90696.45,93413.008,8,400,11,,ISIC_9555580.JPG
break,html.Screen,4_10_1,2023-11-01T15:51:18.928Z,,0,,,NaN,,,,,,false,,,,93396.29999995232,93396.20000004768,,93395.90000009537,,93413.008,8,400,,,
break_continue,html.Screen,4_10_2,2023-11-01T15:51:18.928Z,,0,,,NaN,,,,,,false,,,,93396.59999990463,93396.5,,93396.5,,93413.008,8,400,,,
sequence,flow.Sequence,4_10,2023-11-01T15:51:18.928Z,,0,,,2700.050000000003,completion,,,,,false,,,,93396.70000004768,93396.5,90679.784,90683.79999995232,90696.45,93413.008,8,400,,,
trial,html.Screen,4_11_0,2023-11-01T15:51:22.238Z,,0,1,,3293.2919999523147,response,ISIC_4770073.JPG,6,ISIC_0062133.JPG,ISIC_4770073.JPG,false,1,keypress(m),500,96706.70000004768,96706.29999995232,93396.342,93396.90000009537,93413.008,96729.996,8,400,12,,ISIC_0062133.JPG
break,html.Screen,4_11_1,2023-11-01T15:51:22.239Z,,0,,,NaN,,,,,,false,,,,96707.40000009537,96707.40000009537,,96706.90000009537,,96729.996,8,400,,,
break_continue,html.Screen,4_11_2,2023-11-01T15:51:22.239Z,,0,,,NaN,,,,,,false,,,,96707.79999995232,96707.70000004768,,96707.59999990463,,96729.996,8,400,,,
sequence,flow.Sequence,4_11,2023-11-01T15:51:22.239Z,,0,,,3294.692000047682,completion,,,,,false,,,,96707.90000009537,96707.70000004768,93396.342,93396.90000009537,93413.008,96729.996,8,400,,,
trial,html.Screen,4_12_0,2023-11-01T15:51:25.345Z,,0,1,,3083.4040000953682,response,ISIC_0031221.JPG,7,ISIC_0058998.JPG,ISIC_0058998.JPG,false,0,keypress(z),500,99813.5,99813.40000009537,96713.33,96707.90000009537,96729.996,99829.872,8,400,13,,ISIC_0031221.JPG
break,html.Screen,4_12_1,2023-11-01T15:51:25.346Z,,0,,,NaN,,,,,,false,,,,99814.29999995232,99814.20000004768,,99813.79999995232,,99829.872,8,400,,,
break_continue,html.Screen,4_12_2,2023-11-01T15:51:25.346Z,,0,,,NaN,,,,,,false,,,,99814.59999990463,99814.5,,99814.5,,99829.872,8,400,,,
sequence,flow.Sequence,4_12,2023-11-01T15:51:25.346Z,,0,,,3084.504000000001,completion,,,,,false,,,,99814.70000004768,99814.5,96713.33,96707.90000009537,96729.996,99829.872,8,400,,,
trial,html.Screen,4_13_0,2023-11-01T15:51:28.247Z,,0,1,,2885.9279999523133,response,ISIC_7489895.JPG,5,ISIC_0822116.JPG,ISIC_0822116.JPG,false,0,keypress(z),500,102716,102715.79999995232,99813.206,99814.79999995232,99829.872,102729.756,8,400,14,,ISIC_7489895.JPG
break,html.Screen,4_13_1,2023-11-01T15:51:28.248Z,,0,,,NaN,,,,,,false,,,,102716.79999995232,102716.59999990463,,102716.20000004768,,102729.756,8,400,,,
break_continue,html.Screen,4_13_2,2023-11-01T15:51:28.248Z,,0,,,NaN,,,,,,false,,,,102717.09999990463,102717,,102716.90000009537,,102729.756,8,400,,,
sequence,flow.Sequence,4_13,2023-11-01T15:51:28.248Z,,0,,,2887.127999999997,completion,,,,,false,,,,102717.20000004768,102717,99813.206,99814.79999995232,99829.872,102729.756,8,400,,,
trial,html.Screen,4_14_0,2023-11-01T15:51:31.764Z,,0,1,,3502.8439999046386,response,ISIC_0064606.JPG,5,ISIC_0055287.JPG,ISIC_0055287.JPG,false,0,keypress(z),500,106232.79999995232,106232.59999990463,102713.09,102717.29999995232,102729.756,106263.403,8,400,15,,ISIC_0064606.JPG
break,html.Screen,4_14_1,2023-11-01T15:51:31.765Z,,0,,,NaN,,,,,,false,,,,106233.5,106233.29999995232,,106233,,106263.403,8,400,,,
break_continue,html.Screen,4_14_2,2023-11-01T15:51:31.765Z,,0,,,NaN,,,,,,false,,,,106233.79999995232,106233.59999990463,,106233.5,,106263.403,8,400,,,
sequence,flow.Sequence,4_14,2023-11-01T15:51:31.765Z,,0,,,3503.8439999046386,completion,,,,,false,,,,106233.79999995232,106233.59999990463,102713.09,102717.29999995232,102729.756,106263.403,8,400,,,
trial,html.Screen,4_15_0,2023-11-01T15:51:35.049Z,,0,1,,3254.0969999999943,response,ISIC_7095615.JPG,6,ISIC_0004794.JPG,ISIC_0004794.JPG,false,0,keypress(z),500,109517.70000004768,109517.5,106246.737,106233.90000009537,106263.403,109529.939,8,400,16,,ISIC_7095615.JPG
break,html.Screen,4_15_1,2023-11-01T15:51:35.050Z,,0,,,NaN,,,,,,false,,,,109518.59999990463,109518.40000009537,,109517.90000009537,,109529.939,8,400,,,
break_continue,html.Screen,4_15_2,2023-11-01T15:51:35.050Z,,0,,,NaN,,,,,,false,,,,109518.79999995232,109518.70000004768,,109518.59999990463,,109529.939,8,400,,,
sequence,flow.Sequence,4_15,2023-11-01T15:51:35.050Z,,0,,,3255.297000047678,completion,,,,,false,,,,109519,109518.70000004768,106246.737,106233.90000009537,106263.403,109529.939,8,400,,,
trial,html.Screen,4_16_0,2023-11-01T15:51:41.662Z,,0,1,,6600.461000095369,response,ISIC_0063981.JPG,6,ISIC_6666329.JPG,ISIC_6666329.JPG,false,0,keypress(z),500,116130.59999990463,116130.40000009537,109513.273,109519,109529.939,116146.795,8,400,17,,ISIC_0063981.JPG
break,html.Screen,4_16_1,2023-11-01T15:51:41.662Z,,0,,,NaN,,,,,,false,,,,116131.40000009537,116131.20000004768,,116130.79999995232,,116146.795,8,400,,,
break_continue,html.Screen,4_16_2,2023-11-01T15:51:41.663Z,,0,,,NaN,,,,,,false,,,,116131.70000004768,116131.59999990463,,116131.5,,116146.795,8,400,,,
sequence,flow.Sequence,4_16,2023-11-01T15:51:41.663Z,,0,,,6601.660999904634,completion,,,,,false,,,,116131.79999995232,116131.59999990463,109513.273,109519,109529.939,116146.795,8,400,,,
trial,html.Screen,4_17_0,2023-11-01T15:51:45.012Z,,0,1,,3334.2050000000017,response,ISIC_4108397.JPG,6,ISIC_0032408.JPG,ISIC_4108397.JPG,false,1,keypress(m),500,119481.20000004768,119481,116130.129,116131.90000009537,116146.795,119496.661,8,400,18,,ISIC_0032408.JPG
break,html.Screen,4_17_1,2023-11-01T15:51:45.013Z,,0,,,NaN,,,,,,false,,,,119482.09999990463,119481.79999995232,,119481.5,,119496.661,8,400,,,
break_continue,html.Screen,4_17_2,2023-11-01T15:51:45.013Z,,0,,,NaN,,,,,,false,,,,119482.5,119482.29999995232,,119482.20000004768,,119496.661,8,400,,,
sequence,flow.Sequence,4_17,2023-11-01T15:51:45.013Z,,0,,,3335.504999952318,completion,,,,,false,,,,119482.59999990463,119482.29999995232,116130.129,116131.79999995232,116146.795,119496.661,8,400,,,
trial,html.Screen,4_18_0,2023-11-01T15:51:49.992Z,,0,1,,4964.339000000007,response,ISIC_7694069.JPG,6,ISIC_0024246.JPG,ISIC_7694069.JPG,false,1,keypress(m),500,124461.29999995232,124461,119479.995,119482.70000004768,119496.661,124480.25,8,400,19,,ISIC_0024246.JPG
break,html.Screen,4_18_1,2023-11-01T15:51:49.993Z,,0,,,NaN,,,,,,false,,,,124462,124461.79999995232,,124461.5,,124480.25,8,400,,,
break_continue,html.Screen,4_18_2,2023-11-01T15:51:49.993Z,,0,,,NaN,,,,,,false,,,,124462.29999995232,124462.20000004768,,124462.09999990463,,124480.25,8,400,,,
sequence,flow.Sequence,4_18,2023-11-01T15:51:49.993Z,,0,,,4965.539000047691,completion,,,,,false,,,,124462.5,124462.20000004768,119479.995,119482.70000004768,119496.661,124480.25,8,400,,,
trial,html.Screen,4_19_0,2023-11-01T15:51:52.715Z,,0,1,,2703.4500000476837,response,ISIC_8779142.JPG,5,ISIC_0000155.JPG,ISIC_8779142.JPG,false,1,keypress(m),500,127184,127183.70000004768,124463.584,124462.5,124480.25,127213.474,8,400,20,,ISIC_0000155.JPG
break,html.Screen,4_19_1,2023-11-01T15:51:52.715Z,,0,,,NaN,,,,,,false,,,,127184.5,127184.40000009537,,127184.09999990463,,127213.474,8,400,,,
break_continue,html.Screen,4_19_2,2023-11-01T15:51:52.716Z,,0,,,NaN,,,,,,false,,,,127184.79999995232,127184.70000004768,,127184.59999990463,,127213.474,8,400,,,
sequence,flow.Sequence,4_19,2023-11-01T15:51:52.716Z,,0,,,2704.4500000476837,completion,,,,,false,,,,127185,127184.70000004768,124463.584,124462.5,124480.25,127213.474,8,400,,,
trial,html.Screen,4_20_0,2023-11-01T15:51:55.469Z,,0,1,,2725.025999999998,response,ISIC_0055931.JPG,7,ISIC_4255013.JPG,ISIC_4255013.JPG,false,0,keypress(z),500,129938.59999990463,129938.5,127196.808,127185,127213.474,129963.364,8,400,21,,ISIC_0055931.JPG
break,html.Screen,4_20_1,2023-11-01T15:51:55.470Z,,0,,,NaN,,,,,,false,,,,129939.09999990463,129939,,129938.79999995232,,129963.364,8,400,,,
break_continue,html.Screen,4_20_2,2023-11-01T15:51:55.470Z,,0,,,NaN,,,,,,false,,,,129939.29999995232,129939.20000004768,,129939.09999990463,,129963.364,8,400,,,
sequence,flow.Sequence,4_20,2023-11-01T15:51:55.470Z,,0,,,2725.7260000476817,completion,,,,,false,,,,129939.5,129939.20000004768,127196.808,127185,127213.474,129963.364,8,400,,,
trial,html.Screen,4_21_0,2023-11-01T15:51:58.192Z,,0,1,,2697.235999904631,response,ISIC_2935987.JPG,7,ISIC_4404772.JPG,ISIC_2935987.JPG,false,1,keypress(m),500,132660.79999995232,132660.59999990463,129946.698,129939.59999990463,129963.364,132679.922,8,400,22,,ISIC_4404772.JPG
break,html.Screen,4_21_1,2023-11-01T15:51:58.192Z,,0,,,NaN,,,,,,false,,,,132661.59999990463,132661.5,,132661.09999990463,,132679.922,8,400,,,
break_continue,html.Screen,4_21_2,2023-11-01T15:51:58.193Z,,0,,,NaN,,,,,,false,,,,132661.90000009537,132661.90000009537,,132661.70000004768,,132679.922,8,400,,,
sequence,flow.Sequence,4_21,2023-11-01T15:51:58.193Z,,0,,,2698.536000095366,completion,,,,,false,,,,132662,132661.90000009537,129946.698,129939.59999990463,129963.364,132679.922,8,400,,,
trial,html.Screen,4_22_0,2023-11-01T15:52:01.443Z,,0,1,,3232.0780000000086,response,ISIC_0071300.JPG,5,ISIC_0063053.JPG,ISIC_0071300.JPG,false,1,keypress(m),500,135912.20000004768,135912,132663.256,132662.20000004768,132679.922,135930.246,8,400,23,,ISIC_0063053.JPG
break,html.Screen,4_22_1,2023-11-01T15:52:01.444Z,,0,,,NaN,,,,,,false,,,,135912.90000009537,135912.70000004768,,135912.40000009537,,135930.246,8,400,,,
break_continue,html.Screen,4_22_2,2023-11-01T15:52:01.444Z,,0,,,NaN,,,,,,false,,,,135913.20000004768,135913.09999990463,,135913,,135930.246,8,400,,,
sequence,flow.Sequence,4_22,2023-11-01T15:52:01.444Z,,0,,,3233.177999904641,completion,,,,,false,,,,135913.29999995232,135913.09999990463,132663.256,132662.09999990463,132679.922,135930.246,8,400,,,
trial,html.Screen,4_23_0,2023-11-01T15:52:05.590Z,,0,1,,4129.154000095354,response,ISIC_0013626.JPG,5,ISIC_0031357.JPG,ISIC_0031357.JPG,false,0,keypress(z),500,140059.59999990463,140059.40000009537,135913.58,135913.5,135930.246,140080.08,8,400,24,,ISIC_0013626.JPG
break,html.Screen,4_23_1,2023-11-01T15:52:05.591Z,,0,,,NaN,,,,,,false,,,,140060.40000009537,140060.29999995232,,140059.90000009537,,140080.08,8,400,,,
break_continue,html.Screen,4_23_2,2023-11-01T15:52:05.591Z,,0,,,NaN,,,,,,false,,,,140060.70000004768,140060.5,,140060.5,,140080.08,8,400,,,
sequence,flow.Sequence,4_23,2023-11-01T15:52:05.591Z,,0,,,4130.253999999986,completion,,,,,false,,,,140060.79999995232,140060.5,135913.58,135913.29999995232,135930.246,140080.08,8,400,,,
trial,html.Screen,4_24_0,2023-11-01T15:52:10.283Z,,0,1,,4672.719999952329,response,ISIC_0011869.JPG,4,ISIC_1589997.JPG,ISIC_1589997.JPG,false,0,keypress(z),500,144753,144752.79999995232,140063.414,140060.90000009537,140080.08,144780.347,8,400,25,,ISIC_0011869.JPG
break,html.Screen,4_24_1,2023-11-01T15:52:10.284Z,,0,,,NaN,,,,,,false,,,,144753.70000004768,144753.59999990463,,144753.29999995232,,144780.347,8,400,,,
break_continue,html.Screen,4_24_2,2023-11-01T15:52:10.286Z,,0,,,NaN,,,,,,false,,,,144755.20000004768,144753.90000009537,,144753.70000004768,,144780.347,8,400,,,
sequence,flow.Sequence,4_24,2023-11-01T15:52:10.286Z,,0,,,4673.82000009538,completion,,,,,false,,,,144755.29999995232,144753.90000009537,140063.414,140060.90000009537,140080.08,144780.347,8,400,,,
trial,html.Screen,4_25_0,2023-11-01T15:52:13.004Z,,0,1,,2692.9529999523074,response,ISIC_9572761.JPG,8,ISIC_6617618.JPG,ISIC_6617618.JPG,false,0,keypress(z),500,147473.59999990463,147473.29999995232,144763.681,144755.40000009537,144780.347,147496.905,8,400,26,,ISIC_9572761.JPG
break,html.Screen,4_25_1,2023-11-01T15:52:13.005Z,,0,,,NaN,,,,,,false,,,,147474.40000009537,147474.09999990463,,147473.79999995232,,147496.905,8,400,,,
break_continue,html.Screen,4_25_2,2023-11-01T15:52:13.005Z,,0,,,NaN,,,,,,false,,,,147474.59999990463,147474.5,,147474.5,,147496.905,8,400,,,
sequence,flow.Sequence,4_25,2023-11-01T15:52:13.005Z,,0,,,2694.152999999991,completion,,,,,false,,,,147474.79999995232,147474.5,144763.681,144755.40000009537,144780.347,147496.905,8,400,,,
trial,html.Screen,4_26_0,2023-11-01T15:52:15.663Z,,0,1,,2635.4950000953686,response,ISIC_5966190.JPG,7,ISIC_0033268.JPG,ISIC_5966190.JPG,false,1,keypress(m),500,150132.59999990463,150132.40000009537,147480.239,147474.90000009537,147496.905,150163.465,8,400,27,,ISIC_0033268.JPG
break,html.Screen,4_26_1,2023-11-01T15:52:15.664Z,,0,,,NaN,,,,,,false,,,,150133.29999995232,150133.09999990463,,150132.90000009537,,150163.465,8,400,,,
break_continue,html.Screen,4_26_2,2023-11-01T15:52:15.664Z,,0,,,NaN,,,,,,false,,,,150133.59999990463,150133.5,,150133.40000009537,,150163.465,8,400,,,
sequence,flow.Sequence,4_26,2023-11-01T15:52:15.664Z,,0,,,2636.595000000001,completion,,,,,false,,,,150133.59999990463,150133.5,147480.239,147474.90000009537,147496.905,150163.465,8,400,,,
trial,html.Screen,4_27_0,2023-11-01T15:52:18.329Z,,0,1,,2635.0350000000035,response,ISIC_0025035.JPG,5,ISIC_0058033.JPG,ISIC_0025035.JPG,false,1,keypress(m),500,152798.79999995232,152798.5,150146.799,150133.79999995232,150163.465,152830.025,8,400,28,,ISIC_0058033.JPG
break,html.Screen,4_27_1,2023-11-01T15:52:18.330Z,,0,,,NaN,,,,,,false,,,,152799.40000009537,152799.29999995232,,152799,,152830.025,8,400,,,
break_continue,html.Screen,4_27_2,2023-11-01T15:52:18.330Z,,0,,,NaN,,,,,,false,,,,152799.70000004768,152799.59999990463,,152799.40000009537,,152830.025,8,400,,,
sequence,flow.Sequence,4_27,2023-11-01T15:52:18.330Z,,0,,,2636.134999904636,completion,,,,,false,,,,152799.90000009537,152799.59999990463,150146.799,150133.70000004768,150163.465,152830.025,8,400,,,
trial,html.Screen,4_28_0,2023-11-01T15:52:21.820Z,,0,1,,3459.3750000953733,response,ISIC_1776777.JPG,6,ISIC_0070160.JPG,ISIC_1776777.JPG,false,1,keypress(m),500,156289.70000004768,156289.40000009537,152813.359,152799.90000009537,152830.025,156313.673,8,400,29,,ISIC_0070160.JPG
break,html.Screen,4_28_1,2023-11-01T15:52:21.821Z,,0,,,NaN,,,,,,false,,,,156290.40000009537,156290.29999995232,,156289.90000009537,,156313.673,8,400,,,
break_continue,html.Screen,4_28_2,2023-11-01T15:52:21.821Z,,0,,,NaN,,,,,,false,,,,156290.79999995232,156290.59999990463,,156290.59999990463,,156313.673,8,400,,,
sequence,flow.Sequence,4_28,2023-11-01T15:52:21.821Z,,0,,,3460.5749999046384,completion,,,,,false,,,,156290.90000009537,156290.59999990463,152813.359,152799.90000009537,152830.025,156313.673,8,400,,,
trial,html.Screen,4_29_0,2023-11-01T15:52:26.815Z,,0,1,,4971.1269999523065,response,ISIC_0067417.JPG,6,ISIC_0028009.JPG,ISIC_0067417.JPG,false,1,keypress(m),500,161285.09999990463,161284.79999995232,156297.007,156291,156313.673,161313.473,8,400,30,,ISIC_0028009.JPG
break,html.Screen,4_29_1,2023-11-01T15:52:26.816Z,,0,,,NaN,,,,,,false,,,,161285.90000009537,161285.70000004768,,161285.20000004768,,161313.473,8,400,,,
break_continue,html.Screen,4_29_2,2023-11-01T15:52:26.816Z,,0,,,NaN,,,,,,false,,,,161286.09999990463,161286,,161285.90000009537,,161313.473,8,400,,,
sequence,flow.Sequence,4_29,2023-11-01T15:52:26.816Z,,0,,,4972.32699999999,completion,,,,,false,,,,161286.20000004768,161286,156297.007,156290.90000009537,156313.673,161313.473,8,400,,,
trial,html.Screen,4_30_0,2023-11-01T15:52:29.539Z,,0,1,,2694.9270000953693,response,ISIC_0021901.JPG,5,ISIC_8885809.JPG,ISIC_8885809.JPG,false,0,keypress(z),500,164008.70000004768,164008.40000009537,161296.807,161286.29999995232,161313.473,164030.031,8,400,31,,ISIC_0021901.JPG
break,html.Screen,4_30_1,2023-11-01T15:52:29.539Z,,0,,,NaN,,,,,,false,,,,164009.40000009537,164009.29999995232,,164008.79999995232,,164030.031,8,400,,,
break_continue,html.Screen,4_30_2,2023-11-01T15:52:29.540Z,,0,,,NaN,,,,,,false,,,,164009.70000004768,164009.59999990463,,164009.5,,164030.031,8,400,,,
sequence,flow.Sequence,4_30,2023-11-01T15:52:29.540Z,,0,,,2696.1269999046344,completion,,,,,false,,,,164009.79999995232,164009.59999990463,161296.807,161286.29999995232,161313.473,164030.031,8,400,,,
trial,html.Screen,4_31_0,2023-11-01T15:52:32.297Z,,0,1,,2737.0689999046444,response,ISIC_0067727.JPG,8,ISIC_0065872.JPG,ISIC_0067727.JPG,false,1,keypress(m),500,166767.29999995232,166767.09999990463,164013.365,164009.90000009537,164030.031,166780.376,8,400,32,,ISIC_0065872.JPG
break,html.Screen,4_31_1,2023-11-01T15:52:32.298Z,,0,,,NaN,,,,,,false,,,,166768.09999990463,166768,,166767.59999990463,,166780.376,8,400,,,
break_continue,html.Screen,4_31_2,2023-11-01T15:52:32.298Z,,0,,,NaN,,,,,,false,,,,166768.5,166768.40000009537,,166768.20000004768,,166780.376,8,400,,,
sequence,flow.Sequence,4_31,2023-11-01T15:52:32.299Z,,0,,,2738.3690000953793,completion,,,,,false,,,,166768.59999990463,166768.40000009537,164013.365,164009.90000009537,164030.031,166780.376,8,400,,,
trial,html.Screen,4_32_0,2023-11-01T15:52:36.446Z,,0,1,,4135.024000095378,response,ISIC_4001990.JPG,6,ISIC_0501108.JPG,ISIC_4001990.JPG,false,1,keypress(m),500,170915.70000004768,170915.40000009537,166763.71,166768.70000004768,166780.376,170930.21,8,400,33,,ISIC_0501108.JPG
break,html.Screen,4_32_1,2023-11-01T15:52:36.446Z,,0,,,NaN,,,,,,false,,,,170916.5,170916.29999995232,,170915.90000009537,,170930.21,8,400,,,
break_continue,html.Screen,4_32_2,2023-11-01T15:52:36.447Z,,0,,,NaN,,,,,,false,,,,170916.79999995232,170916.70000004768,,170916.59999990463,,170930.21,8,400,,,
sequence,flow.Sequence,4_32,2023-11-01T15:52:36.447Z,,0,,,4136.324000047694,completion,,,,,false,,,,170916.90000009537,170916.70000004768,166763.71,166768.59999990463,166780.376,170930.21,8,400,,,
trial,html.Screen,4_33_0,2023-11-01T15:52:39.489Z,,0,1,,3028.990000047692,response,ISIC_7168122.JPG,6,ISIC_2479512.JPG,ISIC_2479512.JPG,false,0,keypress(z),500,173959.5,173959.20000004768,170913.544,170917,170930.21,173980.088,8,400,34,,ISIC_7168122.JPG
break,html.Screen,4_33_1,2023-11-01T15:52:39.490Z,,0,,,NaN,,,,,,false,,,,173960.29999995232,173960.09999990463,,173959.70000004768,,173980.088,8,400,,,
break_continue,html.Screen,4_33_2,2023-11-01T15:52:39.490Z,,0,,,NaN,,,,,,false,,,,173960.59999990463,173960.5,,173960.40000009537,,173980.088,8,400,,,
sequence,flow.Sequence,4_33,2023-11-01T15:52:39.491Z,,0,,,3030.290000000008,completion,,,,,false,,,,173960.70000004768,173960.5,170913.544,170917,170930.21,173980.088,8,400,,,
trial,html.Screen,4_34_0,2023-11-01T15:52:43.389Z,,0,1,,3879.112000047695,response,ISIC_2758999.JPG,5,ISIC_0054480.JPG,ISIC_2758999.JPG,false,1,keypress(m),500,177859.5,177859.20000004768,173963.422,173960.79999995232,173980.088,177880.386,8,400,35,,ISIC_0054480.JPG
break,html.Screen,4_34_1,2023-11-01T15:52:43.390Z,,0,,,NaN,,,,,,false,,,,177860.29999995232,177860.20000004768,,177859.70000004768,,177880.386,8,400,,,
break_continue,html.Screen,4_34_2,2023-11-01T15:52:43.390Z,,0,,,NaN,,,,,,false,,,,177860.59999990463,177860.5,,177860.40000009537,,177880.386,8,400,,,
sequence,flow.Sequence,4_34,2023-11-01T15:52:43.391Z,,0,,,3880.412000000011,completion,,,,,false,,,,177860.79999995232,177860.5,173963.422,173960.70000004768,173980.088,177880.386,8,400,,,
trial,html.Screen,4_35_0,2023-11-01T15:52:46.315Z,,0,1,,2904.6140000000014,response,ISIC_9626241.JPG,7,ISIC_9544059.JPG,ISIC_9544059.JPG,false,0,keypress(z),500,180785.20000004768,180785,177863.72,177860.79999995232,177880.386,180813.602,8,400,36,,ISIC_9626241.JPG
break,html.Screen,4_35_1,2023-11-01T15:52:46.316Z,,0,,,NaN,,,,,,false,,,,180785.90000009537,180785.70000004768,,180785.40000009537,,180813.602,8,400,,,
break_continue,html.Screen,4_35_2,2023-11-01T15:52:46.316Z,,0,,,NaN,,,,,,false,,,,180786.20000004768,180786.09999990463,,180786,,180813.602,8,400,,,
sequence,flow.Sequence,4_35,2023-11-01T15:52:46.316Z,,0,,,2905.713999904634,completion,,,,,false,,,,180786.29999995232,180786.09999990463,177863.72,177860.79999995232,177880.386,180813.602,8,400,,,
trial,html.Screen,4_36_0,2023-11-01T15:52:49.471Z,,0,1,,3127.798000095354,response,ISIC_2383335.JPG,6,ISIC_0231167.JPG,ISIC_0231167.JPG,false,0,keypress(z),500,183941.70000004768,183941.40000009537,180796.936,180786.40000009537,180813.602,183963.476,8,400,37,,ISIC_2383335.JPG
break,html.Screen,4_36_1,2023-11-01T15:52:49.472Z,,0,,,NaN,,,,,,false,,,,183942.40000009537,183942.29999995232,,183941.90000009537,,183963.476,8,400,,,
break_continue,html.Screen,4_36_2,2023-11-01T15:52:49.472Z,,0,,,NaN,,,,,,false,,,,183942.79999995232,183942.59999990463,,183942.5,,183963.476,8,400,,,
sequence,flow.Sequence,4_36,2023-11-01T15:52:49.473Z,,0,,,3128.997999904619,completion,,,,,false,,,,183942.90000009537,183942.59999990463,180796.936,180786.40000009537,180813.602,183963.476,8,400,,,
trial,html.Screen,4_37_0,2023-11-01T15:52:52.659Z,,0,1,,3165.1239999046375,response,ISIC_1929937.JPG,5,ISIC_0014790.JPG,ISIC_1929937.JPG,false,1,keypress(m),500,187128.79999995232,187128.59999990463,183946.81,183943,183963.476,187147.137,8,400,38,,ISIC_0014790.JPG
break,html.Screen,4_37_1,2023-11-01T15:52:52.659Z,,0,,,NaN,,,,,,false,,,,187129.70000004768,187129.5,,187129.09999990463,,187147.137,8,400,,,
break_continue,html.Screen,4_37_2,2023-11-01T15:52:52.660Z,,0,,,NaN,,,,,,false,,,,187129.90000009537,187129.90000009537,,187129.79999995232,,187147.137,8,400,,,
sequence,flow.Sequence,4_37,2023-11-01T15:52:52.660Z,,0,,,3166.4240000953723,completion,,,,,false,,,,187130.09999990463,187129.90000009537,183946.81,183942.90000009537,183963.476,187147.137,8,400,,,
trial,html.Screen,4_38_0,2023-11-01T15:52:56.150Z,,0,1,,3472.7630000953795,response,ISIC_0030002.JPG,5,ISIC_0034042.JPG,ISIC_0034042.JPG,false,0,keypress(z),500,190620.09999990463,190619.90000009537,187130.471,187130.20000004768,187147.137,190646.997,8,400,39,,ISIC_0030002.JPG
break,html.Screen,4_38_1,2023-11-01T15:52:56.151Z,,0,,,NaN,,,,,,false,,,,190620.90000009537,190620.79999995232,,190620.40000009537,,190646.997,8,400,,,
break_continue,html.Screen,4_38_2,2023-11-01T15:52:56.151Z,,0,,,NaN,,,,,,false,,,,190621.20000004768,190621.09999990463,,190621,,190646.997,8,400,,,
sequence,flow.Sequence,4_38,2023-11-01T15:52:56.151Z,,0,,,3473.9629999046447,completion,,,,,false,,,,190621.40000009537,190621.09999990463,187130.471,187130.20000004768,187147.137,190646.997,8,400,,,
trial,html.Screen,4_39_0,2023-11-01T15:52:59.109Z,,0,1,,2932.002999999997,response,ISIC_2002605.JPG,7,ISIC_0001480.JPG,ISIC_0001480.JPG,false,0,keypress(z),500,193579.29999995232,193579,190630.331,190621.5,190646.997,193596.879,8,400,40,,ISIC_2002605.JPG
break,html.Screen,4_39_1,2023-11-01T15:52:59.110Z,,0,,,NaN,,,,,,false,,,,193580.09999990463,193580,,193579.59999990463,,193596.879,8,400,,,
break_continue,html.Screen,4_39_2,2023-11-01T15:52:59.110Z,,0,,,NaN,,,,,,false,,,,193580.5,193580.29999995232,,193580.29999995232,,193596.879,8,400,,,
sequence,flow.Sequence,4_39,2023-11-01T15:52:59.110Z,,0,,,2933.3029999523133,completion,,,,,false,,,,193580.59999990463,193580.29999995232,190630.331,190621.5,190646.997,193596.879,8,400,,,
trial,html.Screen,4_40_0,2023-11-01T15:53:02.280Z,,0,1,,3153.2209999046463,response,ISIC_6892561.JPG,5,ISIC_2175855.JPG,ISIC_2175855.JPG,false,0,keypress(z),500,196750.5,196750.09999990463,193580.213,193580.59999990463,193596.879,196763.873,8,400,41,,ISIC_6892561.JPG
break,html.Screen,4_40_1,2023-11-01T15:53:02.281Z,,0,,,NaN,,,,,,false,,,,196751.20000004768,196751.09999990463,,196750.70000004768,,196763.873,8,400,,,
break_continue,html.Screen,4_40_2,2023-11-01T15:53:02.281Z,,0,,,NaN,,,,,,false,,,,196751.5,196751.5,,196751.29999995232,,196763.873,8,400,,,
sequence,flow.Sequence,4_40,2023-11-01T15:53:02.281Z,,0,,,3154.6210000000137,completion,,,,,false,,,,196751.70000004768,196751.5,193580.213,193580.59999990463,193596.879,196763.873,8,400,,,
trial,html.Screen,4_41_0,2023-11-01T15:53:05.373Z,,0,1,,3079.027000095375,response,ISIC_7484618.JPG,7,ISIC_5941314.JPG,ISIC_5941314.JPG,false,0,keypress(z),500,199843.20000004768,199842.90000009537,196747.207,196751.70000004768,196763.873,199863.749,8,400,42,,ISIC_7484618.JPG
break,html.Screen,4_41_1,2023-11-01T15:53:05.373Z,,0,,,NaN,,,,,,false,,,,199843.90000009537,199843.79999995232,,199843.5,,199863.749,8,400,,,
break_continue,html.Screen,4_41_2,2023-11-01T15:53:05.374Z,,0,,,NaN,,,,,,false,,,,199844.20000004768,199844.20000004768,,199844,,199863.749,8,400,,,
sequence,flow.Sequence,4_41,2023-11-01T15:53:05.374Z,,0,,,3080.3270000476914,completion,,,,,false,,,,199844.29999995232,199844.20000004768,196747.207,196751.70000004768,196763.873,199863.749,8,400,,,
trial,html.Screen,4_42_0,2023-11-01T15:53:10.063Z,,0,1,,4669.850999904622,response,ISIC_1757941.JPG,5,ISIC_9109361.JPG,ISIC_1757941.JPG,false,1,keypress(m),500,204533.90000009537,204533.59999990463,199847.083,199844.5,199863.749,204564.016,8,400,43,,ISIC_9109361.JPG
break,html.Screen,4_42_1,2023-11-01T15:53:10.064Z,,0,,,NaN,,,,,,false,,,,204534.70000004768,204534.40000009537,,204534,,204564.016,8,400,,,
break_continue,html.Screen,4_42_2,2023-11-01T15:53:10.064Z,,0,,,NaN,,,,,,false,,,,204534.90000009537,204534.79999995232,,204534.70000004768,,204564.016,8,400,,,
sequence,flow.Sequence,4_42,2023-11-01T15:53:10.064Z,,0,,,4671.050999952306,completion,,,,,false,,,,204535,204534.79999995232,199847.083,199844.40000009537,199863.749,204564.016,8,400,,,
trial,html.Screen,4_43_0,2023-11-01T15:53:13.129Z,,0,1,,3035.4839999999967,response,ISIC_8663971.JPG,6,ISIC_0060979.JPG,ISIC_8663971.JPG,false,1,keypress(m),500,207599.59999990463,207599.5,204547.35,204535.09999990463,204564.016,207630.56,8,400,44,,ISIC_0060979.JPG
break,html.Screen,4_43_1,2023-11-01T15:53:13.129Z,,0,,,NaN,,,,,,false,,,,207600.09999990463,207600,,207599.70000004768,,207630.56,8,400,,,
break_continue,html.Screen,4_43_2,2023-11-01T15:53:13.130Z,,0,,,NaN,,,,,,false,,,,207600.40000009537,207600.20000004768,,207600.09999990463,,207630.56,8,400,,,
sequence,flow.Sequence,4_43,2023-11-01T15:53:13.130Z,,0,,,3036.1840000476805,completion,,,,,false,,,,207600.5,207600.20000004768,204547.35,204535.09999990463,204564.016,207630.56,8,400,,,
trial,html.Screen,4_44_0,2023-11-01T15:53:16.097Z,,0,1,,2937.3400000953698,response,ISIC_8806180.JPG,6,ISIC_0293086.JPG,ISIC_8806180.JPG,false,1,keypress(m),500,210568.09999990463,210567.90000009537,207613.894,207600.59999990463,207630.56,210597.108,8,400,45,,ISIC_0293086.JPG
break,html.Screen,4_44_1,2023-11-01T15:53:16.098Z,,0,,,NaN,,,,,,false,,,,210568.79999995232,210568.70000004768,,210568.40000009537,,210597.108,8,400,,,
break_continue,html.Screen,4_44_2,2023-11-01T15:53:16.098Z,,0,,,NaN,,,,,,false,,,,210569.09999990463,210569,,210568.79999995232,,210597.108,8,400,,,
sequence,flow.Sequence,4_44,2023-11-01T15:53:16.098Z,,0,,,2938.4400000000023,completion,,,,,false,,,,210569.20000004768,210569,207613.894,207600.59999990463,207630.56,210597.108,8,400,,,
trial,html.Screen,4_45_0,2023-11-01T15:53:18.805Z,,0,1,,2678.5920000476763,response,ISIC_0025382.JPG,7,ISIC_0033232.JPG,ISIC_0025382.JPG,false,1,keypress(m),500,213276,213275.70000004768,210580.442,210569.29999995232,210597.108,213297,8,400,46,,ISIC_0033232.JPG
break,html.Screen,4_45_1,2023-11-01T15:53:18.806Z,,0,,,NaN,,,,,,false,,,,213276.70000004768,213276.59999990463,,213276.09999990463,,213297,8,400,,,
break_continue,html.Screen,4_45_2,2023-11-01T15:53:18.807Z,,0,,,NaN,,,,,,false,,,,213278.09999990463,213276.90000009537,,213276.79999995232,,213297,8,400,,,
sequence,flow.Sequence,4_45,2023-11-01T15:53:18.807Z,,0,,,2679.79200009536,completion,,,,,false,,,,213278.29999995232,213276.90000009537,210580.442,210569.20000004768,210597.108,213297,8,400,,,
trial,html.Screen,4_46_0,2023-11-01T15:53:22.282Z,,0,1,,3455.2000000476837,response,ISIC_0066739.JPG,5,ISIC_4062017.JPG,ISIC_0066739.JPG,false,1,keypress(m),500,216752.5,216752.20000004768,213280.334,213278.29999995232,213297,216780.648,8,400,47,,ISIC_4062017.JPG
break,html.Screen,4_46_1,2023-11-01T15:53:22.282Z,,0,,,NaN,,,,,,false,,,,216753.29999995232,216753.09999990463,,216752.70000004768,,216780.648,8,400,,,
break_continue,html.Screen,4_46_2,2023-11-01T15:53:22.283Z,,0,,,NaN,,,,,,false,,,,216753.5,216753.40000009537,,216753.29999995232,,216780.648,8,400,,,
sequence,flow.Sequence,4_46,2023-11-01T15:53:22.283Z,,0,,,3456.4000000953674,completion,,,,,false,,,,216753.59999990463,216753.40000009537,213280.334,213278.29999995232,213297,216780.648,8,400,,,
trial,html.Screen,4_47_0,2023-11-01T15:53:26.372Z,,0,1,,4062.052000047697,response,ISIC_0011343.JPG,7,ISIC_0624498.JPG,ISIC_0011343.JPG,false,1,keypress(m),500,220842.90000009537,220842.70000004768,216763.982,216753.70000004768,216780.648,220863.818,8,400,48,,ISIC_0624498.JPG
break,html.Screen,4_47_1,2023-11-01T15:53:26.373Z,,0,,,NaN,,,,,,false,,,,220843.79999995232,220843.59999990463,,220843.20000004768,,220863.818,8,400,,,
break_continue,html.Screen,4_47_2,2023-11-01T15:53:26.373Z,,0,,,NaN,,,,,,false,,,,220844,220843.90000009537,,220843.90000009537,,220863.818,8,400,,,
sequence,flow.Sequence,4_47,2023-11-01T15:53:26.373Z,,0,,,4063.252000095381,completion,,,,,false,,,,220844.09999990463,220843.90000009537,216763.982,216753.70000004768,216780.648,220863.818,8,400,,,
trial,html.Screen,4_48_0,2023-11-01T15:53:29.047Z,,0,1,,2653.6820000000007,response,ISIC_3764173.JPG,5,ISIC_2724529.JPG,ISIC_3764173.JPG,false,1,keypress(m),500,223517.70000004768,223517.5,220847.152,220844.29999995232,220863.818,223547.044,8,400,49,,ISIC_2724529.JPG
break,html.Screen,4_48_1,2023-11-01T15:53:29.047Z,,0,,,NaN,,,,,,false,,,,223518.5,223518.29999995232,,223518,,223547.044,8,400,,,
break_continue,html.Screen,4_48_2,2023-11-01T15:53:29.048Z,,0,,,NaN,,,,,,false,,,,223518.79999995232,223518.70000004768,,223518.59999990463,,223547.044,8,400,,,
sequence,flow.Sequence,4_48,2023-11-01T15:53:29.048Z,,0,,,2654.8820000476844,completion,,,,,false,,,,223519,223518.70000004768,220847.152,220844.20000004768,220863.818,223547.044,8,400,,,
trial,html.Screen,4_49_0,2023-11-01T15:53:35.786Z,,0,1,,6709.856000095373,response,ISIC_2030997.JPG,7,ISIC_0013801.JPG,ISIC_2030997.JPG,false,1,keypress(m),500,230257.09999990463,230256.90000009537,223530.378,223519,223547.044,230280.563,8,400,50,,ISIC_0013801.JPG
break,html.Screen,4_49_1,2023-11-01T15:53:45.794Z,,0,,,10000.054000000004,timeout,,,,,false,,,,240265.29999995232,240263.951,230263.897,230257.29999995232,230280.563,240280.617,8,400,,,
break_continue,html.Screen,4_49_2,2023-11-01T15:53:47.121Z,,0,,,1302.0830000476853,response,,,,,false,continue,keypress(Space),,241592.70000004768,241582.70000004768,240263.951,240265.40000009537,240280.617,241613.897,8,400,,,
sequence,flow.Sequence,4_49,2023-11-01T15:53:47.121Z,,0,,,18035.65600004769,completion,,,,,false,,,,241592.79999995232,241582.70000004768,223530.378,223519,223547.044,241613.897,8,400,,,
trial,html.Screen,4_50_0,2023-11-01T15:53:50.570Z,,0,2,,3427.603000000003,response,ISIC_0062471.JPG,8,ISIC_7342636.JPG,ISIC_7342636.JPG,false,0,keypress(z),500,245041.70000004768,245041.5,241597.231,241592.90000009537,241613.897,245064.214,8,400,1,,ISIC_0062471.JPG
break,html.Screen,4_50_1,2023-11-01T15:53:50.571Z,,0,,,NaN,,,,,,false,,,,245042.59999990463,245042.29999995232,,245042,,245064.214,8,400,,,
break_continue,html.Screen,4_50_2,2023-11-01T15:53:50.571Z,,0,,,NaN,,,,,,false,,,,245042.79999995232,245042.70000004768,,245042.59999990463,,245064.214,8,400,,,
sequence,flow.Sequence,4_50,2023-11-01T15:53:50.571Z,,0,,,3428.8030000476865,completion,,,,,false,,,,245043,245042.70000004768,241597.231,241592.90000009537,241613.897,245064.214,8,400,,,
trial,html.Screen,4_51_0,2023-11-01T15:53:53.517Z,,0,2,,2924.585999952309,response,ISIC_9439034.JPG,6,ISIC_1224329.JPG,ISIC_1224329.JPG,false,0,keypress(z),500,247989,247988.79999995232,245047.548,245043,245064.214,248014.096,8,400,2,,ISIC_9439034.JPG
break,html.Screen,4_51_1,2023-11-01T15:53:53.518Z,,0,,,NaN,,,,,,false,,,,247989.79999995232,247989.70000004768,,247989.29999995232,,248014.096,8,400,,,
break_continue,html.Screen,4_51_2,2023-11-01T15:53:53.519Z,,0,,,NaN,,,,,,false,,,,247990.09999990463,247990,,247989.90000009537,,248014.096,8,400,,,
sequence,flow.Sequence,4_51,2023-11-01T15:53:53.519Z,,0,,,2925.785999999993,completion,,,,,false,,,,247990.20000004768,247990,245047.548,245043,245064.214,248014.096,8,400,,,
trial,html.Screen,4_52_0,2023-11-01T15:53:56.545Z,,0,2,,3002.4040000000095,response,ISIC_0067094.JPG,6,ISIC_7984080.JPG,ISIC_7984080.JPG,false,0,keypress(z),500,251016.79999995232,251016.5,247997.43,247990.29999995232,248014.096,251030.642,8,400,3,,ISIC_0067094.JPG
break,html.Screen,4_52_1,2023-11-01T15:53:56.546Z,,0,,,NaN,,,,,,false,,,,251017.59999990463,251017.40000009537,,251017,,251030.642,8,400,,,
break_continue,html.Screen,4_52_2,2023-11-01T15:53:56.546Z,,0,,,NaN,,,,,,false,,,,251017.90000009537,251017.90000009537,,251017.70000004768,,251030.642,8,400,,,
sequence,flow.Sequence,4_52,2023-11-01T15:53:56.546Z,,0,,,3003.804000095377,completion,,,,,false,,,,251018,251017.90000009537,247997.43,247990.29999995232,248014.096,251030.642,8,400,,,
trial,html.Screen,4_53_0,2023-11-01T15:53:59.606Z,,0,2,,3047.1579999523237,response,ISIC_0025987.JPG,5,ISIC_0069705.JPG,ISIC_0069705.JPG,false,0,keypress(z),500,254078,254077.79999995232,251013.976,251018.20000004768,251030.642,254097.186,8,400,4,,ISIC_0025987.JPG
break,html.Screen,4_53_1,2023-11-01T15:53:59.607Z,,0,,,NaN,,,,,,false,,,,254078.79999995232,254078.59999990463,,254078.29999995232,,254097.186,8,400,,,
break_continue,html.Screen,4_53_2,2023-11-01T15:53:59.607Z,,0,,,NaN,,,,,,false,,,,254079.09999990463,254079.09999990463,,254078.90000009537,,254097.186,8,400,,,
sequence,flow.Sequence,4_53,2023-11-01T15:53:59.608Z,,0,,,3048.45799990464,completion,,,,,false,,,,254079.20000004768,254079.09999990463,251013.976,251018.20000004768,251030.642,254097.186,8,400,,,
trial,html.Screen,4_54_0,2023-11-01T15:54:02.697Z,,0,2,,3071.0140000476968,response,ISIC_0046537.JPG,5,ISIC_2487188.JPG,ISIC_2487188.JPG,false,0,keypress(z),500,257168.5,257168.20000004768,254080.52,254079.29999995232,254097.186,257197.516,8,400,5,,ISIC_0046537.JPG
break,html.Screen,4_54_1,2023-11-01T15:54:02.698Z,,0,,,NaN,,,,,,false,,,,257169.20000004768,257169.09999990463,,257168.70000004768,,257197.516,8,400,,,
break_continue,html.Screen,4_54_2,2023-11-01T15:54:02.698Z,,0,,,NaN,,,,,,false,,,,257169.5,257169.5,,257169.29999995232,,257197.516,8,400,,,
sequence,flow.Sequence,4_54,2023-11-01T15:54:02.698Z,,0,,,3072.314000000013,completion,,,,,false,,,,257169.59999990463,257169.5,254080.52,254079.29999995232,254097.186,257197.516,8,400,,,
trial,html.Screen,4_55_0,2023-11-01T15:54:06.227Z,,0,2,,3500.6840000476805,response,ISIC_0011995.JPG,7,ISIC_0032161.JPG,ISIC_0032161.JPG,false,0,keypress(z),500,260698.40000009537,260698.20000004768,257180.85,257169.79999995232,257197.516,260714.042,8,400,6,,ISIC_0011995.JPG
break,html.Screen,4_55_1,2023-11-01T15:54:06.227Z,,0,,,NaN,,,,,,false,,,,260699.20000004768,260699.09999990463,,260698.59999990463,,260714.042,8,400,,,
break_continue,html.Screen,4_55_2,2023-11-01T15:54:06.228Z,,0,,,NaN,,,,,,false,,,,260699.5,260699.40000009537,,260699.29999995232,,260714.042,8,400,,,
sequence,flow.Sequence,4_55,2023-11-01T15:54:06.228Z,,0,,,3501.884000095364,completion,,,,,false,,,,260699.59999990463,260699.40000009537,257180.85,257169.79999995232,257197.516,260714.042,8,400,,,
trial,html.Screen,4_56_0,2023-11-01T15:54:12.019Z,,0,2,,5776.658000047697,response,ISIC_8820668.JPG,6,ISIC_0054377.JPG,ISIC_8820668.JPG,false,1,keypress(m),500,266490.90000009537,266490.7000000477,260697.376,260699.70000004768,260714.042,266514.265,8,400,7,,ISIC_0054377.JPG
break,html.Screen,4_56_1,2023-11-01T15:54:12.020Z,,0,,,NaN,,,,,,false,,,,266491.59999990463,266491.5,,266491.09999990463,,266514.265,8,400,,,
break_continue,html.Screen,4_56_2,2023-11-01T15:54:12.020Z,,0,,,NaN,,,,,,false,,,,266491.90000009537,266491.7999999523,,266491.7000000477,,266514.265,8,400,,,
sequence,flow.Sequence,4_56,2023-11-01T15:54:12.020Z,,0,,,5777.75799995233,completion,,,,,false,,,,266492,266491.7999999523,260697.376,260699.70000004768,260714.042,266514.265,8,400,,,
trial,html.Screen,4_57_0,2023-11-01T15:54:15.062Z,,0,2,,3019.234999999986,response,ISIC_0003438.JPG,6,ISIC_5744196.JPG,ISIC_0003438.JPG,false,1,keypress(m),500,269533.90000009537,269533.5,266497.599,266492,266514.265,269564.143,8,400,8,,ISIC_5744196.JPG
break,html.Screen,4_57_1,2023-11-01T15:54:15.063Z,,0,,,NaN,,,,,,false,,,,269534.59999990463,269534.40000009537,,269534,,269564.143,8,400,,,
break_continue,html.Screen,4_57_2,2023-11-01T15:54:15.063Z,,0,,,NaN,,,,,,false,,,,269534.90000009537,269534.7999999523,,269534.7000000477,,269564.143,8,400,,,
sequence,flow.Sequence,4_57,2023-11-01T15:54:15.063Z,,0,,,3020.5349999523023,completion,,,,,false,,,,269535,269534.7999999523,266497.599,266492,266514.265,269564.143,8,400,,,
trial,html.Screen,4_58_0,2023-11-01T15:54:17.971Z,,0,2,,2878.7570000953856,response,ISIC_0071300.JPG,5,ISIC_0061749.JPG,ISIC_0071300.JPG,false,1,keypress(m),500,272443.09999990463,272442.90000009537,269547.477,269535.09999990463,269564.143,272464.027,8,400,9,,ISIC_0061749.JPG
break,html.Screen,4_58_1,2023-11-01T15:54:17.972Z,,0,,,NaN,,,,,,false,,,,272443.90000009537,272443.7000000477,,272443.2999999523,,272464.027,8,400,,,
break_continue,html.Screen,4_58_2,2023-11-01T15:54:17.972Z,,0,,,NaN,,,,,,false,,,,272444.2000000477,272444.09999990463,,272444.09999990463,,272464.027,8,400,,,
sequence,flow.Sequence,4_58,2023-11-01T15:54:17.972Z,,0,,,2879.9569999046507,completion,,,,,false,,,,272444.40000009537,272444.09999990463,269547.477,269535.09999990463,269564.143,272464.027,8,400,,,
trial,html.Screen,4_59_0,2023-11-01T15:54:21.078Z,,0,2,,3086.0729999046307,response,ISIC_1368336.JPG,4,ISIC_0056127.JPG,ISIC_1368336.JPG,false,1,keypress(m),500,275550.2999999523,275550.09999990463,272447.361,272444.40000009537,272464.027,275581.024,8,400,10,,ISIC_0056127.JPG
break,html.Screen,4_59_1,2023-11-01T15:54:21.079Z,,0,,,NaN,,,,,,false,,,,275550.90000009537,275550.7999999523,,275550.5,,275581.024,8,400,,,
break_continue,html.Screen,4_59_2,2023-11-01T15:54:21.079Z,,0,,,NaN,,,,,,false,,,,275551.2000000477,275551.09999990463,,275551,,275581.024,8,400,,,
sequence,flow.Sequence,4_59,2023-11-01T15:54:21.079Z,,0,,,3087.0729999046307,completion,,,,,false,,,,275551.40000009537,275551.09999990463,272447.361,272444.40000009537,272464.027,275581.024,8,400,,,
trial,html.Screen,4_60_0,2023-11-01T15:54:29.402Z,,0,2,,8293.27599995234,response,ISIC_0012369.JPG,5,ISIC_1961064.JPG,ISIC_0012369.JPG,false,1,keypress(m),500,283874.59999990463,283874.2999999523,275564.358,275551.5,275581.024,283897.358,8,400,11,,ISIC_1961064.JPG
break,html.Screen,4_60_1,2023-11-01T15:54:29.403Z,,0,,,NaN,,,,,,false,,,,283875.2999999523,283875.2000000477,,283874.7000000477,,283897.358,8,400,,,
break_continue,html.Screen,4_60_2,2023-11-01T15:54:29.403Z,,0,,,NaN,,,,,,false,,,,283875.59999990463,283875.5,,283875.40000009537,,283897.358,8,400,,,
sequence,flow.Sequence,4_60,2023-11-01T15:54:29.404Z,,0,,,8294.476000000024,completion,,,,,false,,,,283875.7000000477,283875.5,275564.358,275551.5,275581.024,283897.358,8,400,,,
trial,html.Screen,4_61_0,2023-11-01T15:54:32.078Z,,0,2,,2652.1419999999925,response,ISIC_0032624.JPG,5,ISIC_5721677.JPG,ISIC_5721677.JPG,false,0,keypress(z),500,286549.7999999523,286549.5,283880.692,283875.7999999523,283897.358,286581.038,8,400,12,,ISIC_0032624.JPG
break,html.Screen,4_61_1,2023-11-01T15:54:32.078Z,,0,,,NaN,,,,,,false,,,,286550.5,286550.40000009537,,286550.09999990463,,286581.038,8,400,,,
break_continue,html.Screen,4_61_2,2023-11-01T15:54:32.078Z,,0,,,NaN,,,,,,false,,,,286550.7000000477,286550.59999990463,,286550.59999990463,,286581.038,8,400,,,
sequence,flow.Sequence,4_61,2023-11-01T15:54:32.079Z,,0,,,2653.241999904625,completion,,,,,false,,,,286550.90000009537,286550.59999990463,283880.692,283875.7999999523,283897.358,286581.038,8,400,,,
trial,html.Screen,4_62_0,2023-11-01T15:54:35.512Z,,0,2,,3403.061999904632,response,ISIC_0033787.JPG,6,ISIC_0073227.JPG,ISIC_0033787.JPG,false,1,keypress(m),500,289984.2999999523,289984.09999990463,286564.372,286550.90000009537,286581.038,290014.234,8,400,13,,ISIC_0073227.JPG
break,html.Screen,4_62_1,2023-11-01T15:54:35.513Z,,0,,,NaN,,,,,,false,,,,289985,289984.90000009537,,289984.59999990463,,290014.234,8,400,,,
break_continue,html.Screen,4_62_2,2023-11-01T15:54:35.513Z,,0,,,NaN,,,,,,false,,,,289985.2999999523,289985.2000000477,,289985.09999990463,,290014.234,8,400,,,
sequence,flow.Sequence,4_62,2023-11-01T15:54:35.513Z,,0,,,3404.1620000476833,completion,,,,,false,,,,289985.40000009537,289985.2000000477,286564.372,286550.90000009537,286581.038,290014.234,8,400,,,
trial,html.Screen,4_63_0,2023-11-01T15:54:38.477Z,,0,2,,2934.7660000000033,response,ISIC_9331097.JPG,6,ISIC_5354827.JPG,ISIC_9331097.JPG,false,1,keypress(m),500,292949.2999999523,292949,289997.568,289985.5,290014.234,292964.116,8,400,14,,ISIC_5354827.JPG
break,html.Screen,4_63_1,2023-11-01T15:54:38.478Z,,0,,,NaN,,,,,,false,,,,292950.09999990463,292949.90000009537,,292949.5,,292964.116,8,400,,,
break_continue,html.Screen,4_63_2,2023-11-01T15:54:38.478Z,,0,,,NaN,,,,,,false,,,,292950.40000009537,292950.2999999523,,292950.2000000477,,292964.116,8,400,,,
sequence,flow.Sequence,4_63,2023-11-01T15:54:38.478Z,,0,,,2936.0659999523195,completion,,,,,false,,,,292950.5,292950.2999999523,289997.568,289985.5,290014.234,292964.116,8,400,,,
trial,html.Screen,4_64_0,2023-11-01T15:54:41.595Z,,0,2,,3102.7840000953875,response,ISIC_0055246.JPG,5,ISIC_9028726.JPG,ISIC_9028726.JPG,false,0,keypress(z),500,296067.09999990463,296066.90000009537,292947.45,292950.59999990463,292964.116,296081.113,8,400,15,,ISIC_0055246.JPG
break,html.Screen,4_64_1,2023-11-01T15:54:41.596Z,,0,,,NaN,,,,,,false,,,,296068,296067.7999999523,,296067.40000009537,,296081.113,8,400,,,
break_continue,html.Screen,4_64_2,2023-11-01T15:54:41.596Z,,0,,,NaN,,,,,,false,,,,296068.2999999523,296068.2000000477,,296068.09999990463,,296081.113,8,400,,,
sequence,flow.Sequence,4_64,2023-11-01T15:54:41.596Z,,0,,,3104.0840000477037,completion,,,,,false,,,,296068.59999990463,296068.2000000477,292947.45,292950.59999990463,292964.116,296081.113,8,400,,,
trial,html.Screen,4_65_0,2023-11-01T15:54:45.680Z,,0,2,,4071.386999999988,response,ISIC_7967397.JPG,7,ISIC_4875370.JPG,ISIC_7967397.JPG,false,1,keypress(m),500,300152.7000000477,300152.5,296064.447,296068.59999990463,296081.113,300180.949,8,400,16,,ISIC_4875370.JPG
break,html.Screen,4_65_1,2023-11-01T15:54:45.681Z,,0,,,NaN,,,,,,false,,,,300153.2999999523,300153.2000000477,,300152.90000009537,,300180.949,8,400,,,
break_continue,html.Screen,4_65_2,2023-11-01T15:54:45.681Z,,0,,,NaN,,,,,,false,,,,300153.59999990463,300153.5,,300153.40000009537,,300180.949,8,400,,,
sequence,flow.Sequence,4_65,2023-11-01T15:54:45.681Z,,0,,,4072.386999999988,completion,,,,,false,,,,300153.7000000477,300153.5,296064.447,296068.59999990463,296081.113,300180.949,8,400,,,
trial,html.Screen,4_66_0,2023-11-01T15:54:50.777Z,,0,2,,5068.050999999978,response,ISIC_0032012.JPG,5,ISIC_5647697.JPG,ISIC_5647697.JPG,false,0,keypress(z),500,305249.2000000477,305249,300164.283,300153.7999999523,300180.949,305264.533,8,400,17,,ISIC_0032012.JPG
break,html.Screen,4_66_1,2023-11-01T15:54:50.777Z,,0,,,NaN,,,,,,false,,,,305250.09999990463,305250,,305249.5,,305264.533,8,400,,,
break_continue,html.Screen,4_66_2,2023-11-01T15:54:50.778Z,,0,,,NaN,,,,,,false,,,,305250.40000009537,305250.2999999523,,305250.2000000477,,305264.533,8,400,,,
sequence,flow.Sequence,4_66,2023-11-01T15:54:50.778Z,,0,,,5069.350999952294,completion,,,,,false,,,,305250.59999990463,305250.2999999523,300164.283,300153.7000000477,300180.949,305264.533,8,400,,,
trial,html.Screen,4_67_0,2023-11-01T15:54:55.787Z,,0,2,,4994.467000000004,response,ISIC_0000410.JPG,5,ISIC_8065633.JPG,ISIC_0000410.JPG,false,1,keypress(m),500,310259.40000009537,310259,305247.867,305250.7000000477,305264.533,310280.999,8,400,18,,ISIC_8065633.JPG
break,html.Screen,4_67_1,2023-11-01T15:54:55.787Z,,0,,,NaN,,,,,,false,,,,310260.09999990463,310259.90000009537,,310259.5,,310280.999,8,400,,,
break_continue,html.Screen,4_67_2,2023-11-01T15:54:55.788Z,,0,,,NaN,,,,,,false,,,,310260.40000009537,310260.2999999523,,310260.2000000477,,310280.999,8,400,,,
sequence,flow.Sequence,4_67,2023-11-01T15:54:55.788Z,,0,,,4995.7669999523205,completion,,,,,false,,,,310260.59999990463,310260.2999999523,305247.867,305250.59999990463,305264.533,310280.999,8,400,,,
trial,html.Screen,4_68_0,2023-11-01T15:54:59.217Z,,0,2,,3408.8009999523056,response,ISIC_9226193.JPG,5,ISIC_7515794.JPG,ISIC_9226193.JPG,false,1,keypress(m),500,313690,313689.7999999523,310264.333,310260.59999990463,310280.999,313714.195,8,400,19,,ISIC_7515794.JPG
break,html.Screen,4_68_1,2023-11-01T15:54:59.218Z,,0,,,NaN,,,,,,false,,,,313690.90000009537,313690.7000000477,,313690.2000000477,,313714.195,8,400,,,
break_continue,html.Screen,4_68_2,2023-11-01T15:54:59.218Z,,0,,,NaN,,,,,,false,,,,313691.09999990463,313691.09999990463,,313691,,313714.195,8,400,,,
sequence,flow.Sequence,4_68,2023-11-01T15:54:59.218Z,,0,,,3410.100999904622,completion,,,,,false,,,,313691.2000000477,313691.09999990463,310264.333,310260.59999990463,310280.999,313714.195,8,400,,,
trial,html.Screen,4_69_0,2023-11-01T15:55:03.107Z,,0,2,,3865.2050000953604,response,ISIC_5363229.JPG,5,ISIC_1118894.JPG,ISIC_1118894.JPG,false,0,keypress(z),500,317579.59999990463,317579.40000009537,313697.529,313691.40000009537,313714.195,317597.828,8,400,20,,ISIC_5363229.JPG
break,html.Screen,4_69_1,2023-11-01T15:55:03.108Z,,0,,,NaN,,,,,,false,,,,317580.40000009537,317580.2000000477,,317579.7999999523,,317597.828,8,400,,,
break_continue,html.Screen,4_69_2,2023-11-01T15:55:03.108Z,,0,,,NaN,,,,,,false,,,,317580.59999990463,317580.59999990463,,317580.40000009537,,317597.828,8,400,,,
sequence,flow.Sequence,4_69,2023-11-01T15:55:03.108Z,,0,,,3866.4049999046256,completion,,,,,false,,,,317580.7000000477,317580.59999990463,313697.529,313691.2999999523,313714.195,317597.828,8,400,,,
trial,html.Screen,4_70_0,2023-11-01T15:55:06.710Z,,0,2,,3584.572000095388,response,ISIC_7885010.JPG,5,ISIC_7714981.JPG,ISIC_7885010.JPG,false,1,keypress(m),500,321182.59999990463,321182.40000009537,317581.162,317580.90000009537,317597.828,321214.35,8,400,21,,ISIC_7714981.JPG
break,html.Screen,4_70_1,2023-11-01T15:55:06.710Z,,0,,,NaN,,,,,,false,,,,321183.2999999523,321183.09999990463,,321182.7999999523,,321214.35,8,400,,,
break_continue,html.Screen,4_70_2,2023-11-01T15:55:06.711Z,,0,,,NaN,,,,,,false,,,,321183.5,321183.40000009537,,321183.2999999523,,321214.35,8,400,,,
sequence,flow.Sequence,4_70,2023-11-01T15:55:06.711Z,,0,,,3585.572000095388,completion,,,,,false,,,,321183.7000000477,321183.40000009537,317581.162,317580.90000009537,317597.828,321214.35,8,400,,,
trial,html.Screen,4_71_0,2023-11-01T15:55:10.378Z,,0,2,,3635.9499999523396,response,ISIC_1598039.JPG,5,ISIC_3981425.JPG,ISIC_3981425.JPG,false,0,keypress(z),500,324850.59999990463,324850.2999999523,321197.684,321183.7000000477,321214.35,324864.658,8,400,22,,ISIC_1598039.JPG
break,html.Screen,4_71_1,2023-11-01T15:55:10.378Z,,0,,,NaN,,,,,,false,,,,324851.2999999523,324851.09999990463,,324850.7000000477,,324864.658,8,400,,,
break_continue,html.Screen,4_71_2,2023-11-01T15:55:10.379Z,,0,,,NaN,,,,,,false,,,,324851.5,324851.5,,324851.2999999523,,324864.658,8,400,,,
sequence,flow.Sequence,4_71,2023-11-01T15:55:10.379Z,,0,,,3637.1500000000233,completion,,,,,false,,,,324851.7000000477,324851.5,321197.684,321183.7000000477,321214.35,324864.658,8,400,,,
trial,html.Screen,4_72_0,2023-11-01T15:55:14.857Z,,0,2,,4465.542000047688,response,ISIC_3391427.JPG,6,ISIC_0030718.JPG,ISIC_0030718.JPG,false,0,keypress(z),500,329330.5,329330.2000000477,324847.992,324851.7999999523,324864.658,329347.812,8,400,23,,ISIC_3391427.JPG
break,html.Screen,4_72_1,2023-11-01T15:55:14.858Z,,0,,,NaN,,,,,,false,,,,329331.2999999523,329331.09999990463,,329330.59999990463,,329347.812,8,400,,,
break_continue,html.Screen,4_72_2,2023-11-01T15:55:14.858Z,,0,,,NaN,,,,,,false,,,,329331.5,329331.40000009537,,329331.2999999523,,329347.812,8,400,,,
sequence,flow.Sequence,4_72,2023-11-01T15:55:14.859Z,,0,,,4466.742000095372,completion,,,,,false,,,,329331.7000000477,329331.40000009537,324847.992,324851.7999999523,324864.658,329347.812,8,400,,,
trial,html.Screen,4_73_0,2023-11-01T15:55:17.870Z,,0,2,,2994.6880000000237,response,ISIC_0057362.JPG,6,ISIC_1470934.JPG,ISIC_1470934.JPG,false,0,keypress(z),500,332342.7999999523,332342.5,329331.146,329331.7999999523,329347.812,332364.358,8,400,24,,ISIC_0057362.JPG
break,html.Screen,4_73_1,2023-11-01T15:55:17.870Z,,0,,,NaN,,,,,,false,,,,332343.59999990463,332343.40000009537,,332343,,332364.358,8,400,,,
break_continue,html.Screen,4_73_2,2023-11-01T15:55:17.871Z,,0,,,NaN,,,,,,false,,,,332343.7999999523,332343.7999999523,,332343.59999990463,,332364.358,8,400,,,
sequence,flow.Sequence,4_73,2023-11-01T15:55:17.871Z,,0,,,2995.98799995234,completion,,,,,false,,,,332344,332343.7999999523,329331.146,329331.7000000477,329347.812,332364.358,8,400,,,
trial,html.Screen,4_74_0,2023-11-01T15:55:21.954Z,,0,2,,4063.04200009536,response,ISIC_1607865.JPG,7,ISIC_0010265.JPG,ISIC_1607865.JPG,false,1,keypress(m),500,336427.7000000477,336427.40000009537,332347.692,332344.09999990463,332364.358,336447.983,8,400,25,,ISIC_0010265.JPG
break,html.Screen,4_74_1,2023-11-01T15:55:21.955Z,,0,,,NaN,,,,,,false,,,,336428.5,336428.2999999523,,336427.90000009537,,336447.983,8,400,,,
break_continue,html.Screen,4_74_2,2023-11-01T15:55:21.956Z,,0,,,NaN,,,,,,false,,,,336428.7999999523,336428.7000000477,,336428.59999990463,,336447.983,8,400,,,
sequence,flow.Sequence,4_74,2023-11-01T15:55:21.956Z,,0,,,4064.3420000476763,completion,,,,,false,,,,336429,336428.7000000477,332347.692,332344.09999990463,332364.358,336447.983,8,400,,,
trial,html.Screen,4_75_0,2023-11-01T15:55:27.443Z,,0,2,,5467.717000047676,response,ISIC_1071355.JPG,6,ISIC_0059959.JPG,ISIC_0059959.JPG,false,0,keypress(z),500,341915.90000009537,341915.7000000477,336431.317,336429.09999990463,336447.983,341931.097,8,400,26,,ISIC_1071355.JPG
break,html.Screen,4_75_1,2023-11-01T15:55:27.443Z,,0,,,NaN,,,,,,false,,,,341916.7999999523,341916.59999990463,,341916.2000000477,,341931.097,8,400,,,
break_continue,html.Screen,4_75_2,2023-11-01T15:55:27.444Z,,0,,,NaN,,,,,,false,,,,341917,341917,,341916.7999999523,,341931.097,8,400,,,
sequence,flow.Sequence,4_75,2023-11-01T15:55:27.444Z,,0,,,5469.016999999993,completion,,,,,false,,,,341917.2000000477,341917,336431.317,336429.09999990463,336447.983,341931.097,8,400,,,
trial,html.Screen,4_76_0,2023-11-01T15:55:38.944Z,,0,2,,11516.659999999974,timeout,ISIC_0028176.JPG,6,ISIC_5226353.JPG,ISIC_5226353.JPG,false,,,500,353417.40000009537,353417.2999999523,341914.431,341917.2999999523,341931.097,353447.757,8,400,27,,ISIC_0028176.JPG
break,html.Screen,4_76_1,2023-11-01T15:55:38.944Z,,0,,,NaN,,,,,,false,,,,353417.90000009537,353417.7000000477,,353417.5,,353447.757,8,400,,,
break_continue,html.Screen,4_76_2,2023-11-01T15:55:38.945Z,,0,,,NaN,,,,,,false,,,,353418.09999990463,353418,,353417.90000009537,,353447.757,8,400,,,
sequence,flow.Sequence,4_76,2023-11-01T15:55:38.945Z,,0,,,11486.902999999991,completion,,,,,false,,,,353418.2000000477,353418,341914.431,341917.2999999523,341931.097,353447.757,8,400,,,
trial,html.Screen,4_77_0,2023-11-01T15:55:41.946Z,,0,2,,2971.542999952333,response,ISIC_5992826.JPG,5,ISIC_1057521.JPG,ISIC_5992826.JPG,false,1,keypress(m),500,356419.59999990463,356419.2999999523,353431.091,353418.2000000477,353447.757,356448.092,8,400,28,,ISIC_1057521.JPG
break,html.Screen,4_77_1,2023-11-01T15:55:41.947Z,,0,,,NaN,,,,,,false,,,,356420.2999999523,356420.2000000477,,356419.7999999523,,356448.092,8,400,,,
break_continue,html.Screen,4_77_2,2023-11-01T15:55:41.947Z,,0,,,NaN,,,,,,false,,,,356420.59999990463,356420.40000009537,,356420.2999999523,,356448.092,8,400,,,
sequence,flow.Sequence,4_77,2023-11-01T15:55:41.947Z,,0,,,2972.643000095384,completion,,,,,false,,,,356420.7000000477,356420.40000009537,353431.091,353418.2000000477,353447.757,356448.092,8,400,,,
trial,html.Screen,4_78_0,2023-11-01T15:55:45.344Z,,0,2,,3368.8080000953632,response,ISIC_3306135.JPG,6,ISIC_4417495.JPG,ISIC_4417495.JPG,false,0,keypress(z),500,359817.2999999523,359816.90000009537,356431.426,356420.7999999523,356448.092,359831.29,8,400,29,,ISIC_3306135.JPG
break,html.Screen,4_78_1,2023-11-01T15:55:45.344Z,,0,,,NaN,,,,,,false,,,,359818.09999990463,359817.90000009537,,359817.5,,359831.29,8,400,,,
break_continue,html.Screen,4_78_2,2023-11-01T15:55:45.345Z,,0,,,NaN,,,,,,false,,,,359818.40000009537,359818.2000000477,,359818.2000000477,,359831.29,8,400,,,
sequence,flow.Sequence,4_78,2023-11-01T15:55:45.345Z,,0,,,3370.1080000476795,completion,,,,,false,,,,359818.5,359818.2000000477,356431.426,356420.7999999523,356448.092,359831.29,8,400,,,
trial,html.Screen,4_79_0,2023-11-01T15:55:49.144Z,,0,2,,3785.9100000477047,response,ISIC_5239607.JPG,6,ISIC_6644834.JPG,ISIC_6644834.JPG,false,0,keypress(z),500,363617.5,363617.2000000477,359814.624,359818.5,359831.29,363647.804,8,400,30,,ISIC_5239607.JPG
break,html.Screen,4_79_1,2023-11-01T15:55:49.144Z,,0,,,NaN,,,,,,false,,,,363618.09999990463,363617.90000009537,,363617.7000000477,,363647.804,8,400,,,
break_continue,html.Screen,4_79_2,2023-11-01T15:55:49.145Z,,0,,,NaN,,,,,,false,,,,363618.40000009537,363618.2999999523,,363618.2000000477,,363647.804,8,400,,,
sequence,flow.Sequence,4_79,2023-11-01T15:55:49.145Z,,0,,,3787.0099999523372,completion,,,,,false,,,,363618.5,363618.2999999523,359814.624,359818.5,359831.29,363647.804,8,400,,,
trial,html.Screen,4_80_0,2023-11-01T15:55:52.542Z,,0,2,,3367.39600004768,response,ISIC_0024459.JPG,6,ISIC_0013921.JPG,ISIC_0013921.JPG,false,0,keypress(z),500,367015.40000009537,367015.2000000477,363631.138,363618.7000000477,363647.804,367031.456,8,400,31,,ISIC_0024459.JPG
break,html.Screen,4_80_1,2023-11-01T15:55:52.542Z,,0,,,NaN,,,,,,false,,,,367016.2000000477,367016.09999990463,,367015.7000000477,,367031.456,8,400,,,
break_continue,html.Screen,4_80_2,2023-11-01T15:55:52.543Z,,0,,,NaN,,,,,,false,,,,367016.5,367016.40000009537,,367016.2999999523,,367031.456,8,400,,,
sequence,flow.Sequence,4_80,2023-11-01T15:55:52.543Z,,0,,,3368.5960000953637,completion,,,,,false,,,,367016.59999990463,367016.40000009537,363631.138,363618.5,363647.804,367031.456,8,400,,,
trial,html.Screen,4_81_0,2023-11-01T15:55:55.656Z,,0,2,,3097.944000095362,response,ISIC_0067226.JPG,6,ISIC_4069836.JPG,ISIC_4069836.JPG,false,0,keypress(z),500,370129.59999990463,370129.40000009537,367014.79,367016.7999999523,367031.456,370147.998,8,400,32,,ISIC_0067226.JPG
break,html.Screen,4_81_1,2023-11-01T15:55:55.657Z,,0,,,NaN,,,,,,false,,,,370130.40000009537,370130.2999999523,,370129.90000009537,,370147.998,8,400,,,
break_continue,html.Screen,4_81_2,2023-11-01T15:55:55.657Z,,0,,,NaN,,,,,,false,,,,370130.7000000477,370130.59999990463,,370130.5,,370147.998,8,400,,,
sequence,flow.Sequence,4_81,2023-11-01T15:55:55.657Z,,0,,,3099.143999904627,completion,,,,,false,,,,370130.90000009537,370130.59999990463,367014.79,367016.59999990463,367031.456,370147.998,8,400,,,
trial,html.Screen,4_82_0,2023-11-01T15:55:59.168Z,,0,2,,3493.601999904611,response,ISIC_4055361.JPG,4,ISIC_7008335.JPG,ISIC_7008335.JPG,false,0,keypress(z),500,373641.7000000477,373641.59999990463,370131.332,370131,370147.998,373664.524,8,400,33,,ISIC_4055361.JPG
break,html.Screen,4_82_1,2023-11-01T15:55:59.168Z,,0,,,NaN,,,,,,false,,,,373642.2000000477,373642.09999990463,,373641.7999999523,,373664.524,8,400,,,
break_continue,html.Screen,4_82_2,2023-11-01T15:55:59.168Z,,0,,,NaN,,,,,,false,,,,373642.40000009537,373642.2000000477,,373642.2000000477,,373664.524,8,400,,,
sequence,flow.Sequence,4_82,2023-11-01T15:55:59.169Z,,0,,,3494.2020000476623,completion,,,,,false,,,,373642.5,373642.2000000477,370131.332,370131,370147.998,373664.524,8,400,,,
trial,html.Screen,4_83_0,2023-11-01T15:56:02.403Z,,0,2,,3212.7759999523405,response,ISIC_0010017.JPG,6,ISIC_5300774.JPG,ISIC_0010017.JPG,false,1,keypress(m),500,376877.5,376877.2999999523,373647.858,373642.5,373664.524,376898.183,8,400,34,,ISIC_5300774.JPG
break,html.Screen,4_83_1,2023-11-01T15:56:02.404Z,,0,,,NaN,,,,,,false,,,,376878.2000000477,376877.90000009537,,376877.59999990463,,376898.183,8,400,,,
break_continue,html.Screen,4_83_2,2023-11-01T15:56:02.404Z,,0,,,NaN,,,,,,false,,,,376878.40000009537,376878.40000009537,,376878.2000000477,,376898.183,8,400,,,
sequence,flow.Sequence,4_83,2023-11-01T15:56:02.405Z,,0,,,3213.8760000953916,completion,,,,,false,,,,376878.59999990463,376878.40000009537,373647.858,373642.5,373664.524,376898.183,8,400,,,
trial,html.Screen,4_84_0,2023-11-01T15:56:05.905Z,,0,2,,3481.116999952297,response,ISIC_5974838.JPG,5,ISIC_4907595.JPG,ISIC_4907595.JPG,false,0,keypress(z),500,380379.5,380379.2999999523,376881.517,376878.59999990463,376898.183,380398.043,8,400,35,,ISIC_5974838.JPG
break,html.Screen,4_84_1,2023-11-01T15:56:05.906Z,,0,,,NaN,,,,,,false,,,,380380.40000009537,380380.2000000477,,380379.7999999523,,380398.043,8,400,,,
break_continue,html.Screen,4_84_2,2023-11-01T15:56:05.907Z,,0,,,NaN,,,,,,false,,,,380380.59999990463,380380.5,,380380.5,,380398.043,8,400,,,
sequence,flow.Sequence,4_84,2023-11-01T15:56:05.907Z,,0,,,3482.316999999981,completion,,,,,false,,,,380380.7000000477,380380.5,376881.517,376878.59999990463,376898.183,380398.043,8,400,,,
trial,html.Screen,4_85_0,2023-11-01T15:56:11.628Z,,0,2,,5704.256999952311,response,ISIC_4394524.JPG,5,ISIC_0998962.JPG,ISIC_4394524.JPG,false,1,keypress(m),500,386102.5,386102.2999999523,380381.377,380380.90000009537,380398.043,386131.601,8,400,36,,ISIC_0998962.JPG
break,html.Screen,4_85_1,2023-11-01T15:56:11.629Z,,0,,,NaN,,,,,,false,,,,386103.2000000477,386103.09999990463,,386102.7000000477,,386131.601,8,400,,,
break_continue,html.Screen,4_85_2,2023-11-01T15:56:11.629Z,,0,,,NaN,,,,,,false,,,,386103.40000009537,386103.40000009537,,386103.2999999523,,386131.601,8,400,,,
sequence,flow.Sequence,4_85,2023-11-01T15:56:11.629Z,,0,,,5705.357000095362,completion,,,,,false,,,,386103.59999990463,386103.40000009537,380381.377,380380.7999999523,380398.043,386131.601,8,400,,,
trial,html.Screen,4_86_0,2023-11-01T15:56:14.448Z,,0,2,,2790.799000095343,response,ISIC_0552911.JPG,6,ISIC_6006795.JPG,ISIC_6006795.JPG,false,0,keypress(z),500,388922.59999990463,388922.40000009537,386114.935,386103.7000000477,386131.601,388948.155,8,400,37,,ISIC_0552911.JPG
break,html.Screen,4_86_1,2023-11-01T15:56:14.449Z,,0,,,NaN,,,,,,false,,,,388923.40000009537,388923.2000000477,,388922.90000009537,,388948.155,8,400,,,
break_continue,html.Screen,4_86_2,2023-11-01T15:56:14.449Z,,0,,,NaN,,,,,,false,,,,388923.7000000477,388923.59999990463,,388923.5,,388948.155,8,400,,,
sequence,flow.Sequence,4_86,2023-11-01T15:56:14.450Z,,0,,,2791.9989999046084,completion,,,,,false,,,,388923.7999999523,388923.59999990463,386114.935,386103.7000000477,386131.601,388948.155,8,400,,,
trial,html.Screen,4_87_0,2023-11-01T15:56:17.240Z,,0,2,,2766.2450000953395,response,ISIC_1850388.JPG,5,ISIC_0805941.JPG,ISIC_1850388.JPG,false,1,keypress(m),500,391714.59999990463,391714.40000009537,388931.489,388923.90000009537,388948.155,391731.377,8,400,38,,ISIC_0805941.JPG
break,html.Screen,4_87_1,2023-11-01T15:56:17.241Z,,0,,,NaN,,,,,,false,,,,391715.5,391715.2999999523,,391714.90000009537,,391731.377,8,400,,,
break_continue,html.Screen,4_87_2,2023-11-01T15:56:17.241Z,,0,,,NaN,,,,,,false,,,,391715.7999999523,391715.7000000477,,391715.59999990463,,391731.377,8,400,,,
sequence,flow.Sequence,4_87,2023-11-01T15:56:17.242Z,,0,,,2767.545000047656,completion,,,,,false,,,,391715.90000009537,391715.7000000477,388931.489,388923.7999999523,388948.155,391731.377,8,400,,,
trial,html.Screen,4_88_0,2023-11-01T15:56:20.143Z,,0,2,,2885.323000047705,response,ISIC_4184101.JPG,6,ISIC_4249893.JPG,ISIC_4184101.JPG,false,1,keypress(m),500,394616.90000009537,394616.7000000477,391714.711,391716,391731.377,394631.261,8,400,39,,ISIC_4249893.JPG
break,html.Screen,4_88_1,2023-11-01T15:56:20.143Z,,0,,,NaN,,,,,,false,,,,394617.59999990463,394617.5,,394617.09999990463,,394631.261,8,400,,,
break_continue,html.Screen,4_88_2,2023-11-01T15:56:20.144Z,,0,,,NaN,,,,,,false,,,,394617.90000009537,394617.7999999523,,394617.7999999523,,394631.261,8,400,,,
sequence,flow.Sequence,4_88,2023-11-01T15:56:20.144Z,,0,,,2886.4229999523377,completion,,,,,false,,,,394618,394617.7999999523,391714.711,391715.90000009537,391731.377,394631.261,8,400,,,
trial,html.Screen,4_89_0,2023-11-01T15:56:24.114Z,,0,2,,3956.7390000000014,response,ISIC_0012740.JPG,6,ISIC_2124213.JPG,ISIC_2124213.JPG,false,0,keypress(z),500,398588.2999999523,398588,394614.595,394618.2000000477,394631.261,398614.89,8,400,40,,ISIC_0012740.JPG
break,html.Screen,4_89_1,2023-11-01T15:56:24.115Z,,0,,,NaN,,,,,,false,,,,398589,398588.90000009537,,398588.5,,398614.89,8,400,,,
break_continue,html.Screen,4_89_2,2023-11-01T15:56:24.115Z,,0,,,NaN,,,,,,false,,,,398589.2999999523,398589.2000000477,,398589.09999990463,,398614.89,8,400,,,
sequence,flow.Sequence,4_89,2023-11-01T15:56:24.115Z,,0,,,3957.939000047685,completion,,,,,false,,,,398589.40000009537,398589.2000000477,394614.595,394618.09999990463,394631.261,398614.89,8,400,,,
trial,html.Screen,4_90_0,2023-11-01T15:56:27.957Z,,0,2,,3816.2099999046186,response,ISIC_1798471.JPG,7,ISIC_0011136.JPG,ISIC_1798471.JPG,false,1,keypress(m),500,402431.40000009537,402431.09999990463,398598.224,398589.5,398614.89,402448.07,8,400,41,,ISIC_0011136.JPG
break,html.Screen,4_90_1,2023-11-01T15:56:27.958Z,,0,,,NaN,,,,,,false,,,,402432.2000000477,402432,,402431.5,,402448.07,8,400,,,
break_continue,html.Screen,4_90_2,2023-11-01T15:56:27.958Z,,0,,,NaN,,,,,,false,,,,402432.40000009537,402432.40000009537,,402432.2999999523,,402448.07,8,400,,,
sequence,flow.Sequence,4_90,2023-11-01T15:56:27.958Z,,0,,,3817.5100000953535,completion,,,,,false,,,,402432.59999990463,402432.40000009537,398598.224,398589.5,398614.89,402448.07,8,400,,,
trial,html.Screen,4_91_0,2023-11-01T15:56:32.025Z,,0,2,,4051.1300000476767,response,ISIC_0000292.JPG,6,ISIC_0027122.JPG,ISIC_0000292.JPG,false,1,keypress(m),500,406499.40000009537,406499.2000000477,402431.404,402432.59999990463,402448.07,406515.028,8,400,42,,ISIC_0027122.JPG
break,html.Screen,4_91_1,2023-11-01T15:56:32.026Z,,0,,,NaN,,,,,,false,,,,406500.2000000477,406500,,406499.59999990463,,406515.028,8,400,,,
break_continue,html.Screen,4_91_2,2023-11-01T15:56:32.026Z,,0,,,NaN,,,,,,false,,,,406500.40000009537,406500.40000009537,,406500.2000000477,,406515.028,8,400,,,
sequence,flow.Sequence,4_91,2023-11-01T15:56:32.026Z,,0,,,4052.3300000953604,completion,,,,,false,,,,406500.5,406500.40000009537,402431.404,402432.59999990463,402448.07,406515.028,8,400,,,
trial,html.Screen,4_92_0,2023-11-01T15:56:37.070Z,,0,2,,5029.472000000009,response,ISIC_5320483.JPG,5,ISIC_6119830.JPG,ISIC_6119830.JPG,false,0,keypress(z),500,411544.7999999523,411544.5,406498.362,406500.7000000477,406515.028,411564.826,8,400,43,,ISIC_5320483.JPG
break,html.Screen,4_92_1,2023-11-01T15:56:37.071Z,,0,,,NaN,,,,,,false,,,,411545.59999990463,411545.40000009537,,411545,,411564.826,8,400,,,
break_continue,html.Screen,4_92_2,2023-11-01T15:56:37.071Z,,0,,,NaN,,,,,,false,,,,411545.90000009537,411545.7999999523,,411545.59999990463,,411564.826,8,400,,,
sequence,flow.Sequence,4_92,2023-11-01T15:56:37.071Z,,0,,,5030.771999952325,completion,,,,,false,,,,411546,411545.7999999523,406498.362,406500.59999990463,406515.028,411564.826,8,400,,,
trial,html.Screen,4_93_0,2023-11-01T15:56:42.210Z,,0,2,,5119.273999904632,response,ISIC_0055680.JPG,5,ISIC_0014826.JPG,ISIC_0055680.JPG,false,1,keypress(m),500,416684.40000009537,416684.09999990463,411548.16,411546,411564.826,416715.075,8,400,44,,ISIC_0014826.JPG
break,html.Screen,4_93_1,2023-11-01T15:56:42.210Z,,0,,,NaN,,,,,,false,,,,416685.09999990463,416684.90000009537,,416684.7000000477,,416715.075,8,400,,,
break_continue,html.Screen,4_93_2,2023-11-01T15:56:42.211Z,,0,,,NaN,,,,,,false,,,,416685.40000009537,416685.2999999523,,416685.2000000477,,416715.075,8,400,,,
sequence,flow.Sequence,4_93,2023-11-01T15:56:42.211Z,,0,,,5120.473999952315,completion,,,,,false,,,,416685.5,416685.2999999523,411548.16,411546,411564.826,416715.075,8,400,,,
trial,html.Screen,4_94_0,2023-11-01T15:56:46.127Z,,0,2,,3886.9249999999884,response,ISIC_0015136.JPG,6,ISIC_6038490.JPG,ISIC_6038490.JPG,false,0,keypress(z),500,420602.2999999523,420602,416698.409,416685.7000000477,416715.075,420614.919,8,400,45,,ISIC_0015136.JPG
break,html.Screen,4_94_1,2023-11-01T15:56:46.128Z,,0,,,NaN,,,,,,false,,,,420602.7999999523,420602.7000000477,,420602.5,,420614.919,8,400,,,
break_continue,html.Screen,4_94_2,2023-11-01T15:56:46.128Z,,0,,,NaN,,,,,,false,,,,420603.09999990463,420603,,420602.90000009537,,420614.919,8,400,,,
sequence,flow.Sequence,4_94,2023-11-01T15:56:46.128Z,,0,,,3887.9249999999884,completion,,,,,false,,,,420603.2000000477,420603,416698.409,416685.7000000477,416715.075,420614.919,8,400,,,
trial,html.Screen,4_95_0,2023-11-01T15:56:50.527Z,,0,2,,4386.281000047689,response,ISIC_0014926.JPG,6,ISIC_6278273.JPG,ISIC_0014926.JPG,false,1,keypress(m),500,425001.5,425001.2000000477,420598.253,420603.40000009537,420614.919,425031.409,8,400,46,,ISIC_6278273.JPG
break,html.Screen,4_95_1,2023-11-01T15:56:50.527Z,,0,,,NaN,,,,,,false,,,,425002.09999990463,425001.90000009537,,425001.7000000477,,425031.409,8,400,,,
break_continue,html.Screen,4_95_2,2023-11-01T15:56:50.527Z,,0,,,NaN,,,,,,false,,,,425002.2999999523,425002.2000000477,,425002.09999990463,,425031.409,8,400,,,
sequence,flow.Sequence,4_95,2023-11-01T15:56:50.528Z,,0,,,4387.281000047689,completion,,,,,false,,,,425002.40000009537,425002.2000000477,420598.253,420603.2999999523,420614.919,425031.409,8,400,,,
trial,html.Screen,4_96_0,2023-11-01T15:56:54.529Z,,0,2,,3972.390999952331,response,ISIC_0062559.JPG,6,ISIC_0025702.JPG,ISIC_0062559.JPG,false,1,keypress(m),500,429004,429003.7999999523,425014.743,425002.5,425031.409,429031.703,8,400,47,,ISIC_0025702.JPG
break,html.Screen,4_96_1,2023-11-01T15:56:54.530Z,,0,,,NaN,,,,,,false,,,,429004.7999999523,429004.59999990463,,429004.2000000477,,429031.703,8,400,,,
break_continue,html.Screen,4_96_2,2023-11-01T15:56:54.530Z,,0,,,NaN,,,,,,false,,,,429005.09999990463,429005,,429004.90000009537,,429031.703,8,400,,,
sequence,flow.Sequence,4_96,2023-11-01T15:56:54.530Z,,0,,,3973.591000000015,completion,,,,,false,,,,429005.2000000477,429005,425014.743,425002.5,425031.409,429031.703,8,400,,,
trial,html.Screen,4_97_0,2023-11-01T15:56:57.285Z,,0,2,,2727.997000047704,response,ISIC_0031642.JPG,6,ISIC_7365889.JPG,ISIC_7365889.JPG,false,0,keypress(z),500,431759.90000009537,431759.7000000477,429015.037,429005.2999999523,429031.703,431781.593,8,400,48,,ISIC_0031642.JPG
break,html.Screen,4_97_1,2023-11-01T15:56:57.286Z,,0,,,NaN,,,,,,false,,,,431760.59999990463,431760.5,,431760.09999990463,,431781.593,8,400,,,
break_continue,html.Screen,4_97_2,2023-11-01T15:56:57.286Z,,0,,,NaN,,,,,,false,,,,431761,431760.90000009537,,431760.7000000477,,431781.593,8,400,,,
sequence,flow.Sequence,4_97,2023-11-01T15:56:57.286Z,,0,,,2729.197000095388,completion,,,,,false,,,,431761,431760.90000009537,429015.037,429005.2000000477,429031.703,431781.593,8,400,,,
trial,html.Screen,4_98_0,2023-11-01T15:57:00.457Z,,0,2,,3150.307000095374,response,ISIC_6441128.JPG,5,ISIC_0011398.JPG,ISIC_6441128.JPG,false,1,keypress(m),500,434932.09999990463,434931.90000009537,431764.927,431761.2000000477,431781.593,434948.133,8,400,49,,ISIC_0011398.JPG
break,html.Screen,4_98_1,2023-11-01T15:57:00.458Z,,0,,,NaN,,,,,,false,,,,434932.7999999523,434932.7000000477,,434932.2999999523,,434948.133,8,400,,,
break_continue,html.Screen,4_98_2,2023-11-01T15:57:00.458Z,,0,,,NaN,,,,,,false,,,,434933.09999990463,434933.09999990463,,434932.90000009537,,434948.133,8,400,,,
sequence,flow.Sequence,4_98,2023-11-01T15:57:00.458Z,,0,,,3151.506999904639,completion,,,,,false,,,,434933.2000000477,434933.09999990463,431764.927,431761.2000000477,431781.593,434948.133,8,400,,,
trial,html.Screen,4_99_0,2023-11-01T15:57:04.120Z,,0,2,,3646.8670000000275,response,ISIC_0070308.JPG,5,ISIC_1348538.JPG,ISIC_1348538.JPG,false,0,keypress(z),500,438595.2999999523,438595,434931.467,434933.2999999523,434948.133,438615.108,8,400,50,,ISIC_0070308.JPG
break,html.Screen,4_99_1,2023-11-01T15:57:14.124Z,,0,,,10000.054000000004,timeout,,,,,false,,,,448599.40000009537,448598.496,438598.442,438595.59999990463,438615.108,448615.162,8,400,,,
break_continue,html.Screen,4_99_2,2023-11-01T15:57:15.362Z,,0,,,1206.4379999046214,response,,,,,false,continue,keypress(Space),,449837.40000009537,449821.59999990463,448598.496,448599.5,448615.162,449848.446,8,400,,,
sequence,flow.Sequence,4_99,2023-11-01T15:57:15.362Z,,0,,,14873.46699990466,completion,,,,,false,,,,449837.59999990463,449821.59999990463,434931.467,434933.2999999523,434948.133,449848.446,8,400,,,
trial,html.Screen,4_100_0,2023-11-01T15:57:18.845Z,,0,3,,3471.454000095371,response,ISIC_0012025.JPG,6,ISIC_3466769.JPG,ISIC_3466769.JPG,false,0,keypress(z),500,453320.09999990463,453319.90000009537,449831.78,449837.59999990463,449848.446,453348.306,8,400,1,,ISIC_0012025.JPG
break,html.Screen,4_100_1,2023-11-01T15:57:18.845Z,,0,,,NaN,,,,,,false,,,,453320.7999999523,453320.59999990463,,453320.2999999523,,453348.306,8,400,,,
break_continue,html.Screen,4_100_2,2023-11-01T15:57:18.846Z,,0,,,NaN,,,,,,false,,,,453321.09999990463,453321,,453320.90000009537,,453348.306,8,400,,,
sequence,flow.Sequence,4_100,2023-11-01T15:57:18.846Z,,0,,,3472.5540000000037,completion,,,,,false,,,,453321.2000000477,453321,449831.78,449837.59999990463,449848.446,453348.306,8,400,,,
trial,html.Screen,4_101_0,2023-11-01T15:57:24.792Z,,0,3,,5919.394000047701,response,ISIC_3716504.JPG,8,ISIC_0066470.JPG,ISIC_0066470.JPG,false,0,keypress(z),500,459268,459267.7000000477,453331.64,453321.2999999523,453348.306,459298.523,8,400,2,,ISIC_3716504.JPG
break,html.Screen,4_101_1,2023-11-01T15:57:24.793Z,,0,,,NaN,,,,,,false,,,,459268.5,459268.40000009537,,459268.2000000477,,459298.523,8,400,,,
break_continue,html.Screen,4_101_2,2023-11-01T15:57:24.793Z,,0,,,NaN,,,,,,false,,,,459268.7999999523,459268.7999999523,,459268.7000000477,,459298.523,8,400,,,
sequence,flow.Sequence,4_101,2023-11-01T15:57:24.793Z,,0,,,5920.493999952334,completion,,,,,false,,,,459268.90000009537,459268.7999999523,453331.64,453321.2999999523,453348.306,459298.523,8,400,,,
trial,html.Screen,4_102_0,2023-11-01T15:57:31.132Z,,0,3,,6309.076999904646,response,ISIC_9061511.JPG,5,ISIC_5791954.JPG,ISIC_9061511.JPG,false,1,keypress(m),500,465607.7999999523,465607.59999990463,459281.857,459269,459298.523,465632.057,8,400,3,,ISIC_5791954.JPG
break,html.Screen,4_102_1,2023-11-01T15:57:31.133Z,,0,,,NaN,,,,,,false,,,,465608.59999990463,465608.5,,465608.09999990463,,465632.057,8,400,,,
break_continue,html.Screen,4_102_2,2023-11-01T15:57:31.133Z,,0,,,NaN,,,,,,false,,,,465609,465608.90000009537,,465608.7999999523,,465632.057,8,400,,,
sequence,flow.Sequence,4_102,2023-11-01T15:57:31.133Z,,0,,,6310.377000095381,completion,,,,,false,,,,465609.09999990463,465608.90000009537,459281.857,459269,459298.523,465632.057,8,400,,,
trial,html.Screen,4_103_0,2023-11-01T15:57:34.887Z,,0,3,,3730.2429999523447,response,ISIC_7210296.JPG,6,ISIC_0054239.JPG,ISIC_7210296.JPG,false,1,keypress(m),500,469362.59999990463,469362.2999999523,465615.391,465609.09999990463,465632.057,469381.907,8,400,4,,ISIC_0054239.JPG
break,html.Screen,4_103_1,2023-11-01T15:57:34.888Z,,0,,,NaN,,,,,,false,,,,469363.40000009537,469363.2000000477,,469362.7999999523,,469381.907,8,400,,,
break_continue,html.Screen,4_103_2,2023-11-01T15:57:34.888Z,,0,,,NaN,,,,,,false,,,,469363.7000000477,469363.59999990463,,469363.40000009537,,469381.907,8,400,,,
sequence,flow.Sequence,4_103,2023-11-01T15:57:34.888Z,,0,,,3731.542999904661,completion,,,,,false,,,,469363.7999999523,469363.59999990463,465615.391,465609.09999990463,465632.057,469381.907,8,400,,,
trial,html.Screen,4_104_0,2023-11-01T15:57:39.852Z,,0,3,,4945.493000095361,response,ISIC_6731470.JPG,4,ISIC_0011459.JPG,ISIC_6731470.JPG,false,1,keypress(m),500,474327.59999990463,474327.40000009537,469365.241,469363.7999999523,469381.907,474348.375,8,400,5,,ISIC_0011459.JPG
break,html.Screen,4_104_1,2023-11-01T15:57:39.853Z,,0,,,NaN,,,,,,false,,,,474328.40000009537,474328.2000000477,,474327.90000009537,,474348.375,8,400,,,
break_continue,html.Screen,4_104_2,2023-11-01T15:57:39.853Z,,0,,,NaN,,,,,,false,,,,474328.7000000477,474328.59999990463,,474328.5,,474348.375,8,400,,,
sequence,flow.Sequence,4_104,2023-11-01T15:57:39.853Z,,0,,,4946.692999904626,completion,,,,,false,,,,474328.7999999523,474328.59999990463,469365.241,469363.7999999523,469381.907,474348.375,8,400,,,
trial,html.Screen,4_105_0,2023-11-01T15:57:43.391Z,,0,3,,3518.0250000953674,response,ISIC_8354042.JPG,7,ISIC_2375394.JPG,ISIC_2375394.JPG,false,0,keypress(z),500,477866.7000000477,477866.40000009537,474331.709,474328.90000009537,474348.375,477882.022,8,400,6,,ISIC_8354042.JPG
break,html.Screen,4_105_1,2023-11-01T15:57:43.392Z,,0,,,NaN,,,,,,false,,,,477867.5,477867.2999999523,,477866.90000009537,,477882.022,8,400,,,
break_continue,html.Screen,4_105_2,2023-11-01T15:57:43.392Z,,0,,,NaN,,,,,,false,,,,477867.7000000477,477867.7000000477,,477867.59999990463,,477882.022,8,400,,,
sequence,flow.Sequence,4_105,2023-11-01T15:57:43.392Z,,0,,,3519.3250000476837,completion,,,,,false,,,,477867.90000009537,477867.7000000477,474331.709,474328.90000009537,474348.375,477882.022,8,400,,,
trial,html.Screen,4_106_0,2023-11-01T15:57:47.361Z,,0,3,,3954.6780000476865,response,ISIC_0030963.JPG,5,ISIC_0062235.JPG,ISIC_0030963.JPG,false,1,keypress(m),500,481836.90000009537,481836.7000000477,477865.356,477868,477882.022,481865.196,8,400,7,,ISIC_0062235.JPG
break,html.Screen,4_106_1,2023-11-01T15:57:47.362Z,,0,,,NaN,,,,,,false,,,,481837.59999990463,481837.5,,481837.09999990463,,481865.196,8,400,,,
break_continue,html.Screen,4_106_2,2023-11-01T15:57:47.362Z,,0,,,NaN,,,,,,false,,,,481838,481837.90000009537,,481837.7000000477,,481865.196,8,400,,,
sequence,flow.Sequence,4_106,2023-11-01T15:57:47.362Z,,0,,,3955.87800009537,completion,,,,,false,,,,481838.09999990463,481837.90000009537,477865.356,477867.90000009537,477882.022,481865.196,8,400,,,
trial,html.Screen,4_107_0,2023-11-01T15:57:50.424Z,,0,3,,3034.60399995232,response,ISIC_1860707.JPG,7,ISIC_0034133.JPG,ISIC_1860707.JPG,false,1,keypress(m),500,484900,484899.7999999523,481848.53,481838.09999990463,481865.196,484931.74,8,400,8,,ISIC_0034133.JPG
break,html.Screen,4_107_1,2023-11-01T15:57:50.425Z,,0,,,NaN,,,,,,false,,,,484900.7000000477,484900.5,,484900.2000000477,,484931.74,8,400,,,
break_continue,html.Screen,4_107_2,2023-11-01T15:57:50.425Z,,0,,,NaN,,,,,,false,,,,484900.90000009537,484900.90000009537,,484900.7000000477,,484931.74,8,400,,,
sequence,flow.Sequence,4_107,2023-11-01T15:57:50.425Z,,0,,,3035.704000095371,completion,,,,,false,,,,484901,484900.90000009537,481848.53,481838.09999990463,481865.196,484931.74,8,400,,,
trial,html.Screen,4_108_0,2023-11-01T15:57:53.726Z,,0,3,,3270.2600000000093,response,ISIC_0370008.JPG,5,ISIC_0061164.JPG,ISIC_0061164.JPG,false,0,keypress(z),500,488202.2999999523,488202,484915.074,484901.09999990463,484931.74,488215.396,8,400,9,,ISIC_0370008.JPG
break,html.Screen,4_108_1,2023-11-01T15:57:53.727Z,,0,,,NaN,,,,,,false,,,,488202.90000009537,488202.7999999523,,488202.40000009537,,488215.396,8,400,,,
break_continue,html.Screen,4_108_2,2023-11-01T15:57:53.727Z,,0,,,NaN,,,,,,false,,,,488203.2000000477,488203.09999990463,,488203,,488215.396,8,400,,,
sequence,flow.Sequence,4_108,2023-11-01T15:57:53.727Z,,0,,,3271.359999904642,completion,,,,,false,,,,488203.2999999523,488203.09999990463,484915.074,484901.09999990463,484931.74,488215.396,8,400,,,
trial,html.Screen,4_109_0,2023-11-01T15:57:58.049Z,,0,3,,4309.703999904625,response,ISIC_3820669.JPG,6,ISIC_0006829.JPG,ISIC_0006829.JPG,false,0,keypress(z),500,492525.40000009537,492525.09999990463,488198.73,488203.40000009537,488215.396,492548.556,8,400,10,,ISIC_3820669.JPG
break,html.Screen,4_109_1,2023-11-01T15:57:58.050Z,,0,,,NaN,,,,,,false,,,,492526.2000000477,492526.09999990463,,492525.59999990463,,492548.556,8,400,,,
break_continue,html.Screen,4_109_2,2023-11-01T15:57:58.050Z,,0,,,NaN,,,,,,false,,,,492526.40000009537,492526.40000009537,,492526.2999999523,,492548.556,8,400,,,
sequence,flow.Sequence,4_109,2023-11-01T15:57:58.050Z,,0,,,4311.0040000953595,completion,,,,,false,,,,492526.59999990463,492526.40000009537,488198.73,488203.40000009537,488215.396,492548.556,8,400,,,
trial,html.Screen,4_110_0,2023-11-01T15:58:01.044Z,,0,3,,2971.344000095385,response,ISIC_0029814.JPG,6,ISIC_8145348.JPG,ISIC_8145348.JPG,false,0,keypress(z),500,495520,495519.90000009537,492531.89,492526.7000000477,492548.556,495548.891,8,400,11,,ISIC_0029814.JPG
break,html.Screen,4_110_1,2023-11-01T15:58:01.044Z,,0,,,NaN,,,,,,false,,,,495520.7000000477,495520.5,,495520.2999999523,,495548.891,8,400,,,
break_continue,html.Screen,4_110_2,2023-11-01T15:58:01.045Z,,0,,,NaN,,,,,,false,,,,495520.90000009537,495520.90000009537,,495520.7000000477,,495548.891,8,400,,,
sequence,flow.Sequence,4_110,2023-11-01T15:58:01.045Z,,0,,,2972.344000095385,completion,,,,,false,,,,495521.09999990463,495520.90000009537,492531.89,492526.7000000477,492548.556,495548.891,8,400,,,
trial,html.Screen,4_111_0,2023-11-01T15:58:04.152Z,,0,3,,3078.8090000476805,response,ISIC_4811165.JPG,6,ISIC_8135400.JPG,ISIC_8135400.JPG,false,0,keypress(z),500,498627.90000009537,498627.7000000477,495532.225,495521.2000000477,495548.891,498648.767,8,400,12,,ISIC_4811165.JPG
break,html.Screen,4_111_1,2023-11-01T15:58:04.152Z,,0,,,NaN,,,,,,false,,,,498628.7000000477,498628.5,,498628.09999990463,,498648.767,8,400,,,
break_continue,html.Screen,4_111_2,2023-11-01T15:58:04.153Z,,0,,,NaN,,,,,,false,,,,498629,498628.90000009537,,498628.7000000477,,498648.767,8,400,,,
sequence,flow.Sequence,4_111,2023-11-01T15:58:04.153Z,,0,,,3080.009000095364,completion,,,,,false,,,,498629.09999990463,498628.90000009537,495532.225,495521.2000000477,495548.891,498648.767,8,400,,,
trial,html.Screen,4_112_0,2023-11-01T15:58:08.556Z,,0,3,,4383.032999952324,response,ISIC_6821316.JPG,5,ISIC_0057180.JPG,ISIC_0057180.JPG,false,0,keypress(z),500,503032.09999990463,503031.7999999523,498632.101,498629.09999990463,498648.767,503048.591,8,400,13,,ISIC_6821316.JPG
break,html.Screen,4_112_1,2023-11-01T15:58:08.556Z,,0,,,NaN,,,,,,false,,,,503032.7999999523,503032.7000000477,,503032.2999999523,,503048.591,8,400,,,
break_continue,html.Screen,4_112_2,2023-11-01T15:58:08.557Z,,0,,,NaN,,,,,,false,,,,503033.09999990463,503033.09999990463,,503033,,503048.591,8,400,,,
sequence,flow.Sequence,4_112,2023-11-01T15:58:08.557Z,,0,,,4384.33299990464,completion,,,,,false,,,,503033.2999999523,503033.09999990463,498632.101,498629.09999990463,498648.767,503048.591,8,400,,,
trial,html.Screen,4_113_0,2023-11-01T15:58:12.486Z,,0,3,,3913.609000047669,response,ISIC_1783062.JPG,5,ISIC_0028759.JPG,ISIC_0028759.JPG,false,0,keypress(z),500,506962.40000009537,506962.2000000477,503031.925,503033.40000009537,503048.591,506982.221,8,400,14,,ISIC_1783062.JPG
break,html.Screen,4_113_1,2023-11-01T15:58:12.487Z,,0,,,NaN,,,,,,false,,,,506963.2000000477,506963.09999990463,,506962.59999990463,,506982.221,8,400,,,
break_continue,html.Screen,4_113_2,2023-11-01T15:58:12.487Z,,0,,,NaN,,,,,,false,,,,506963.5,506963.40000009537,,506963.2999999523,,506982.221,8,400,,,
sequence,flow.Sequence,4_113,2023-11-01T15:58:12.487Z,,0,,,3914.8090000953525,completion,,,,,false,,,,506963.59999990463,506963.40000009537,503031.925,503033.40000009537,503048.591,506982.221,8,400,,,
trial,html.Screen,4_114_0,2023-11-01T15:58:15.210Z,,0,3,,2703.979000047664,response,ISIC_0025499.JPG,4,ISIC_7923008.JPG,ISIC_7923008.JPG,false,0,keypress(z),500,509686.2999999523,509686.2000000477,506965.555,506963.7999999523,506982.221,509698.779,8,400,15,,ISIC_0025499.JPG
break,html.Screen,4_114_1,2023-11-01T15:58:15.211Z,,0,,,NaN,,,,,,false,,,,509687.09999990463,509686.90000009537,,509686.59999990463,,509698.779,8,400,,,
break_continue,html.Screen,4_114_2,2023-11-01T15:58:15.211Z,,0,,,NaN,,,,,,false,,,,509687.5,509687.2999999523,,509687.2000000477,,509698.779,8,400,,,
sequence,flow.Sequence,4_114,2023-11-01T15:58:15.211Z,,0,,,2705.0789999522967,completion,,,,,false,,,,509687.5,509687.2999999523,506965.555,506963.59999990463,506982.221,509698.779,8,400,,,
trial,html.Screen,4_115_0,2023-11-01T15:58:17.807Z,,0,3,,2584.4210000477033,response,ISIC_0030749.JPG,7,ISIC_5706956.JPG,ISIC_5706956.JPG,false,0,keypress(z),500,512283.2999999523,512283.2000000477,509682.113,509687.59999990463,509698.779,512298.675,8,400,16,,ISIC_0030749.JPG
break,html.Screen,4_115_1,2023-11-01T15:58:17.809Z,,0,,,NaN,,,,,,false,,,,512285.40000009537,512283.90000009537,,512283.59999990463,,512298.675,8,400,,,
break_continue,html.Screen,4_115_2,2023-11-01T15:58:17.809Z,,0,,,NaN,,,,,,false,,,,512285.7000000477,512285.59999990463,,512285.40000009537,,512298.675,8,400,,,
sequence,flow.Sequence,4_115,2023-11-01T15:58:17.809Z,,0,,,2586.820999904652,completion,,,,,false,,,,512285.7000000477,512285.59999990463,509682.113,509687.59999990463,509698.779,512298.675,8,400,,,
trial,html.Screen,4_116_0,2023-11-01T15:58:20.868Z,,0,3,,3045.725000095379,response,ISIC_0026897.JPG,5,ISIC_0010618.JPG,ISIC_0010618.JPG,false,0,keypress(z),500,515344.7000000477,515344.40000009537,512282.009,512285.90000009537,512298.675,515365.219,8,400,17,,ISIC_0026897.JPG
break,html.Screen,4_116_1,2023-11-01T15:58:20.869Z,,0,,,NaN,,,,,,false,,,,515345.40000009537,515345.2000000477,,515344.90000009537,,515365.219,8,400,,,
break_continue,html.Screen,4_116_2,2023-11-01T15:58:20.869Z,,0,,,NaN,,,,,,false,,,,515345.7000000477,515345.59999990463,,515345.5,,515365.219,8,400,,,
sequence,flow.Sequence,4_116,2023-11-01T15:58:20.869Z,,0,,,3046.924999904644,completion,,,,,false,,,,515345.7999999523,515345.59999990463,512282.009,512285.7999999523,512298.675,515365.219,8,400,,,
trial,html.Screen,4_117_0,2023-11-01T15:58:24.905Z,,0,3,,4016.0809999523335,response,ISIC_0004961.JPG,5,ISIC_0060508.JPG,ISIC_0004961.JPG,false,1,keypress(m),500,519381.59999990463,519381.2999999523,515348.553,515345.90000009537,515365.219,519398.846,8,400,18,,ISIC_0060508.JPG
break,html.Screen,4_117_1,2023-11-01T15:58:24.906Z,,0,,,NaN,,,,,,false,,,,519382.2999999523,519382.2000000477,,519381.7000000477,,519398.846,8,400,,,
break_continue,html.Screen,4_117_2,2023-11-01T15:58:24.906Z,,0,,,NaN,,,,,,false,,,,519382.59999990463,519382.59999990463,,519382.40000009537,,519398.846,8,400,,,
sequence,flow.Sequence,4_117,2023-11-01T15:58:24.906Z,,0,,,4017.38099990465,completion,,,,,false,,,,519382.7999999523,519382.59999990463,515348.553,515345.90000009537,515365.219,519398.846,8,400,,,
trial,html.Screen,4_118_0,2023-11-01T15:58:28.622Z,,0,3,,3699.354000047664,response,ISIC_7899041.JPG,5,ISIC_0033226.JPG,ISIC_7899041.JPG,false,1,keypress(m),500,523098.5,523098.2000000477,519382.18,519382.90000009537,519398.846,523115.364,8,400,19,,ISIC_0033226.JPG
break,html.Screen,4_118_1,2023-11-01T15:58:28.623Z,,0,,,NaN,,,,,,false,,,,523099.40000009537,523099.2999999523,,523098.7000000477,,523115.364,8,400,,,
break_continue,html.Screen,4_118_2,2023-11-01T15:58:28.623Z,,0,,,NaN,,,,,,false,,,,523099.7000000477,523099.59999990463,,523099.5,,523115.364,8,400,,,
sequence,flow.Sequence,4_118,2023-11-01T15:58:28.623Z,,0,,,3700.753999904613,completion,,,,,false,,,,523099.7999999523,523099.59999990463,519382.18,519382.90000009537,519398.846,523115.364,8,400,,,
trial,html.Screen,4_119_0,2023-11-01T15:58:32.913Z,,0,3,,4274.435999952315,response,ISIC_0031863.JPG,5,ISIC_0028906.JPG,ISIC_0028906.JPG,false,0,keypress(z),500,527390,527389.7999999523,523098.698,523099.90000009537,523115.364,527415.646,8,400,20,,ISIC_0031863.JPG
break,html.Screen,4_119_1,2023-11-01T15:58:32.914Z,,0,,,NaN,,,,,,false,,,,527390.5999999046,527390.2999999523,,527390.0999999046,,527415.646,8,400,,,
break_continue,html.Screen,4_119_2,2023-11-01T15:58:32.914Z,,0,,,NaN,,,,,,false,,,,527390.7999999523,527390.7000000477,,527390.7000000477,,527415.646,8,400,,,
sequence,flow.Sequence,4_119,2023-11-01T15:58:32.914Z,,0,,,4275.336000047682,completion,,,,,false,,,,527391,527390.7000000477,523098.698,523099.90000009537,523115.364,527415.646,8,400,,,
trial,html.Screen,4_120_0,2023-11-01T15:58:35.660Z,,0,3,,2721.3540000000503,response,ISIC_0000375.JPG,6,ISIC_0247197.JPG,ISIC_0247197.JPG,false,0,keypress(z),500,530137.2000000477,530137,527398.98,527391,527415.646,530165.536,8,400,21,,ISIC_0000375.JPG
break,html.Screen,4_120_1,2023-11-01T15:58:35.661Z,,0,,,NaN,,,,,,false,,,,530137.9000000954,530137.7999999523,,530137.5,,530165.536,8,400,,,
break_continue,html.Screen,4_120_2,2023-11-01T15:58:35.661Z,,0,,,NaN,,,,,,false,,,,530138.0999999046,530138.0999999046,,530138,,530165.536,8,400,,,
sequence,flow.Sequence,4_120,2023-11-01T15:58:35.661Z,,0,,,2722.453999904683,completion,,,,,false,,,,530138.2999999523,530138.0999999046,527398.98,527391,527415.646,530165.536,8,400,,,
trial,html.Screen,4_121_0,2023-11-01T15:58:38.880Z,,0,3,,3190.8640000954038,response,ISIC_0033099.JPG,6,ISIC_4793961.JPG,ISIC_4793961.JPG,false,0,keypress(z),500,533356.5,533356.4000000954,530148.87,530138.4000000954,530165.536,533382.074,8,400,22,,ISIC_0033099.JPG
break,html.Screen,4_121_1,2023-11-01T15:58:38.880Z,,0,,,NaN,,,,,,false,,,,533357.2999999523,533357.0999999046,,533356.7999999523,,533382.074,8,400,,,
break_continue,html.Screen,4_121_2,2023-11-01T15:58:38.881Z,,0,,,NaN,,,,,,false,,,,533357.5,533357.5,,533357.4000000954,,533382.074,8,400,,,
sequence,flow.Sequence,4_121,2023-11-01T15:58:38.881Z,,0,,,3191.9640000000363,completion,,,,,false,,,,533357.7000000477,533357.5,530148.87,530138.4000000954,530165.536,533382.074,8,400,,,
trial,html.Screen,4_122_0,2023-11-01T15:58:41.907Z,,0,3,,3001.6260000476614,response,ISIC_2826618.JPG,8,ISIC_0031705.JPG,ISIC_2826618.JPG,false,1,keypress(m),500,536383.9000000954,536383.7000000477,533365.408,533357.7999999523,533382.074,536399.075,8,400,23,,ISIC_0031705.JPG
break,html.Screen,4_122_1,2023-11-01T15:58:41.908Z,,0,,,NaN,,,,,,false,,,,536384.7000000477,536384.5,,536384.2000000477,,536399.075,8,400,,,
break_continue,html.Screen,4_122_2,2023-11-01T15:58:41.908Z,,0,,,NaN,,,,,,false,,,,536384.9000000954,536384.9000000954,,536384.7999999523,,536399.075,8,400,,,
sequence,flow.Sequence,4_122,2023-11-01T15:58:41.908Z,,0,,,3002.826000095345,completion,,,,,false,,,,536385.0999999046,536384.9000000954,533365.408,533357.7999999523,533382.074,536399.075,8,400,,,
trial,html.Screen,4_123_0,2023-11-01T15:58:45.560Z,,0,3,,3637.325000095414,response,ISIC_0026010.JPG,6,ISIC_3389695.JPG,ISIC_3389695.JPG,false,0,keypress(z),500,540036.7000000477,540036.4000000954,536382.409,536385.0999999046,536399.075,540048.929,8,400,24,,ISIC_0026010.JPG
break,html.Screen,4_123_1,2023-11-01T15:58:45.560Z,,0,,,NaN,,,,,,false,,,,540037.5,540037.2999999523,,540036.9000000954,,540048.929,8,400,,,
break_continue,html.Screen,4_123_2,2023-11-01T15:58:45.561Z,,0,,,NaN,,,,,,false,,,,540037.9000000954,540037.7999999523,,540037.5999999046,,540048.929,8,400,,,
sequence,flow.Sequence,4_123,2023-11-01T15:58:45.561Z,,0,,,3638.724999952363,completion,,,,,false,,,,540038,540037.7999999523,536382.409,536385.0999999046,536399.075,540048.929,8,400,,,
trial,html.Screen,4_124_0,2023-11-01T15:58:48.542Z,,0,3,,2970.4710000953637,response,ISIC_3978280.JPG,6,ISIC_0254517.JPG,ISIC_0254517.JPG,false,0,keypress(z),500,543019.5999999046,543019.4000000954,540032.263,540038,540048.929,543032.143,8,400,25,,ISIC_3978280.JPG
break,html.Screen,4_124_1,2023-11-01T15:58:48.543Z,,0,,,NaN,,,,,,false,,,,543020.4000000954,543020.2000000477,,543019.7999999523,,543032.143,8,400,,,
break_continue,html.Screen,4_124_2,2023-11-01T15:58:48.544Z,,0,,,NaN,,,,,,false,,,,543020.5999999046,543020.5999999046,,543020.4000000954,,543032.143,8,400,,,
sequence,flow.Sequence,4_124,2023-11-01T15:58:48.544Z,,0,,,2971.670999904629,completion,,,,,false,,,,543020.7999999523,543020.5999999046,540032.263,540038,540048.929,543032.143,8,400,,,
trial,html.Screen,4_125_0,2023-11-01T15:58:51.470Z,,0,3,,2914.9569999045925,response,ISIC_4535099.JPG,7,ISIC_8181142.JPG,ISIC_8181142.JPG,false,0,keypress(z),500,545947.2999999523,545947.0999999046,543015.477,543020.9000000954,543032.143,545965.813,8,400,26,,ISIC_4535099.JPG
break,html.Screen,4_125_1,2023-11-01T15:58:51.471Z,,0,,,NaN,,,,,,false,,,,545948.0999999046,545947.9000000954,,545947.5,,545965.813,8,400,,,
break_continue,html.Screen,4_125_2,2023-11-01T15:58:51.472Z,,0,,,NaN,,,,,,false,,,,545949.5999999046,545949.5,,545949.4000000954,,545965.813,8,400,,,
