sender,sender_type,sender_id,timestamp,meta,,blockNo,condition,duration,ended_on,img_left,img_reveal,img_right,loser,practice,response,response_action,selection_duration,time_commit,time_end,time_render,time_run,time_show,time_switch,total_blocks,total_trials,trialNo,url,winner
informed_consent,html.Screen,0,2023-09-08T19:46:56.306Z,"{""labjs_version"":""20.2.4"",""labjs_build"":{""flavor"":""production"",""commit"":""f5b4a49f956347addd546a832a3327688c2c0fef""},""location"":""https://run.pavlovia.org/MurrayBennett/melanoma-2afc/?participant=59d1e366faf42e00012b6c1c&STUDY_ID=64f8c92207ba404bcb356c90&SESSION_ID=64fb79d8adb131259aba4617&platform=prolific"",""userAgent"":""Mozilla/5.0 (Windows NT 10.0; Win64; x64) AppleWebKit/537.36 (KHTML, like Gecko) Chrome/115.0.0.0 Safari/537.36"",""platform"":""Win32"",""language"":""en-US"",""locale"":""en-US"",""timeZone"":""America/New_York"",""timezoneOffset"":240,""screen_width"":1366,""screen_height"":768,""scroll_width"":1708,""scroll_height"":756,""window_innerWidth"":1707,""window_innerHeight"":803,""devicePixelRatio"":0.800000011920929}",,,,18683.280999904633,response,,,,,,consent,click button,,23414,23411.099999904633,3461.244,4716.300000190735,4727.819,23443.606,,,,"{""participant"":""59d1e366faf42e00012b6c1c"",""STUDY_ID"":""64f8c92207ba404bcb356c90"",""SESSION_ID"":""64fb79d8adb131259aba4617"",""platform"":""prolific""}",
Welcome,html.Screen,1,2023-09-08T19:47:47.593Z,,,,uniform,51248.5940002861,response,,,,,,continue,click button,,74693.59999990463,74692.2000002861,23410.293,23414.300000190735,23443.606,74707.862,,,,,
trial,html.Screen,2_0_0,2023-09-08T19:47:51.593Z,,0,0,,3985.237999904639,response,ISIC_0025593.JPG,,ISIC_0063388.JPG,ISIC_0025593.JPG,true,1,keypress(m),500,78693.40000009537,78693.09999990463,74691.199,74693.90000009537,74707.862,78707.727,1,6,1,,ISIC_0063388.JPG
sequence,flow.Sequence,2_0,2023-09-08T19:47:51.593Z,,0,,,3985.237999904639,completion,,,,,true,,,,78693.7000002861,78693.09999990463,74691.199,74693.80000019073,74707.862,78707.727,1,6,,,
trial,html.Screen,2_1_0,2023-09-08T19:47:55.200Z,,0,0,,3593.1730000953685,response,ISIC_0028178.JPG,,ISIC_1309015.JPG,ISIC_0028178.JPG,true,1,keypress(m),500,82301.2000002861,82300.90000009537,78691.031,78694,78707.727,82307.517,1,6,2,,ISIC_1309015.JPG
sequence,flow.Sequence,2_1,2023-09-08T19:47:55.201Z,,0,,,3593.1730000953685,completion,,,,,true,,,,82301.40000009537,82300.90000009537,78691.031,78694,78707.727,82307.517,1,6,,,
trial,html.Screen,2_2_0,2023-09-08T19:47:59.657Z,,0,0,,4449.5829999046255,response,ISIC_0031128.JPG,,ISIC_3314853.JPG,ISIC_0031128.JPG,true,1,keypress(m),500,86757.90000009537,86757.09999990463,82290.861,82301.59999990463,82307.517,86774.027,1,6,3,,ISIC_3314853.JPG
sequence,flow.Sequence,2_2,2023-09-08T19:47:59.657Z,,0,,,4449.5829999046255,completion,,,,,true,,,,86758.2000002861,86757.09999990463,82290.861,82301.59999990463,82307.517,86774.027,1,6,,,
trial,html.Screen,2_3_0,2023-09-08T19:48:03.512Z,,0,0,,3838.972999999998,response,ISIC_8980141.JPG,,ISIC_0031612.JPG,ISIC_0031612.JPG,true,0,keypress(z),500,90613.2000002861,90613,86757.247,86758.40000009537,86774.027,90623.779,1,6,4,,ISIC_8980141.JPG
sequence,flow.Sequence,2_3,2023-09-08T19:48:03.513Z,,0,,,3838.972999999998,completion,,,,,true,,,,90613.5,90613,86757.247,86758.30000019073,86774.027,90623.779,1,6,,,
trial,html.Screen,2_4_0,2023-09-08T19:48:07.065Z,,0,0,,3541.3209999046376,response,ISIC_1197737.JPG,,ISIC_9721604.JPG,ISIC_1197737.JPG,true,1,keypress(m),500,94165.30000019073,94165.09999990463,90607.207,90613.80000019073,90623.779,94173.607,1,6,5,,ISIC_9721604.JPG
sequence,flow.Sequence,2_4,2023-09-08T19:48:07.065Z,,0,,,3541.3209999046376,completion,,,,,true,,,,94166.2000002861,94165.09999990463,90607.207,90613.7000002861,90623.779,94173.607,1,6,,,
trial,html.Screen,2_5_0,2023-09-08T19:48:10.694Z,,0,0,,3621.0930002860987,response,ISIC_0010681.JPG,,ISIC_0025346.JPG,ISIC_0025346.JPG,true,0,keypress(z),500,97795.09999990463,97794.7000002861,94156.972,94166.40000009537,94173.607,97806.79,1,6,6,,ISIC_0010681.JPG
sequence,flow.Sequence,2_5,2023-09-08T19:48:10.695Z,,0,,,3621.0930002860987,completion,,,,,true,,,,97796.09999990463,97794.7000002861,94156.972,94166.30000019073,94173.607,97806.79,1,6,,,
loop,flow.Loop,2,2023-09-08T19:48:10.696Z,,,,,23086.83800028611,completion,,,,,true,,,,97796.30000019073,97794.7000002861,74691.199,74693.80000019073,74707.862,97806.79,1,6,,,
exp_instructions,html.Screen,3,2023-09-08T19:48:35.716Z,,,,,25008.710000000006,response,,,,,,continue,keypress(Space),,122816.5,122815.5,97790.12,97796.5,97806.79,122822.281,,,,,
trial,html.Screen,4_0_0,2023-09-08T19:48:39.796Z,,0,1,,4074.519000190732,response,ISIC_0027742.JPG,20,ISIC_0804420.JPG,ISIC_0027742.JPG,false,1,keypress(m),500,126897,126896.80000019073,122804.544,122816.80000019073,122822.281,126905.418,8,400,1,,ISIC_0804420.JPG
break,html.Screen,4_0_1,2023-09-08T19:48:39.797Z,,0,,,NaN,,,,,,false,,,,126898,126897.7000002861,,126897.2000002861,,126905.418,8,400,,,
break_continue,html.Screen,4_0_2,2023-09-08T19:48:39.798Z,,0,,,NaN,,,,,,false,,,,126898.40000009537,126898.2000002861,,126898.09999990463,,126905.418,8,400,,,
sequence,flow.Sequence,4_0,2023-09-08T19:48:39.798Z,,0,,,4075.9190002860996,completion,,,,,false,,,,126898.5,126898.2000002861,122804.544,122816.80000019073,122822.281,126905.418,8,400,,,
trial,html.Screen,4_1_0,2023-09-08T19:48:44.084Z,,0,1,,4279.081999999995,response,ISIC_3687259.JPG,9,ISIC_7110531.JPG,ISIC_7110531.JPG,false,0,keypress(z),500,131184.80000019073,131184.5,126888.733,126898.59999990463,126905.418,131188.61,8,400,2,,ISIC_3687259.JPG
break,html.Screen,4_1_1,2023-09-08T19:48:44.085Z,,0,,,NaN,,,,,,false,,,,131185.7000002861,131185.5,,131185,,131188.61,8,400,,,
break_continue,html.Screen,4_1_2,2023-09-08T19:48:44.086Z,,0,,,NaN,,,,,,false,,,,131186.7000002861,131186.59999990463,,131186.5,,131188.61,8,400,,,
sequence,flow.Sequence,4_1,2023-09-08T19:48:44.086Z,,0,,,4281.181999904627,completion,,,,,false,,,,131186.90000009537,131186.59999990463,126888.733,126898.59999990463,126905.418,131188.61,8,400,,,
trial,html.Screen,4_2_0,2023-09-08T19:48:47.788Z,,0,1,,3699.9899999046465,response,ISIC_0033171.JPG,9,ISIC_0012288.JPG,ISIC_0033171.JPG,false,1,keypress(m),500,134888.80000019073,134888.59999990463,131171.876,131187,131188.61,134905.068,8,400,3,,ISIC_0012288.JPG
break,html.Screen,4_2_1,2023-09-08T19:48:47.789Z,,0,,,NaN,,,,,,false,,,,134889.7000002861,134889.5,,134889,,134905.068,8,400,,,
break_continue,html.Screen,4_2_2,2023-09-08T19:48:47.789Z,,0,,,NaN,,,,,,false,,,,134890,134890,,134889.90000009537,,134905.068,8,400,,,
sequence,flow.Sequence,4_2,2023-09-08T19:48:47.790Z,,0,,,3701.390000000014,completion,,,,,false,,,,134890.2000002861,134890,131171.876,131187,131188.61,134905.068,8,400,,,
trial,html.Screen,4_3_0,2023-09-08T19:48:51.885Z,,0,1,,4080.132000286103,response,ISIC_0060741.JPG,17,ISIC_0046628.JPG,ISIC_0046628.JPG,false,0,keypress(z),500,138985.30000019073,138985.2000002861,134888.421,134890.30000019073,134905.068,138988.201,8,400,4,,ISIC_0060741.JPG
break,html.Screen,4_3_1,2023-09-08T19:48:51.886Z,,0,,,NaN,,,,,,false,,,,138986.30000019073,138986,,138985.5,,138988.201,8,400,,,
break_continue,html.Screen,4_3_2,2023-09-08T19:48:51.886Z,,0,,,NaN,,,,,,false,,,,138986.5,138986.40000009537,,138986.30000019073,,138988.201,8,400,,,
sequence,flow.Sequence,4_3,2023-09-08T19:48:51.886Z,,0,,,4081.332000095368,completion,,,,,false,,,,138986.7000002861,138986.40000009537,134888.421,134890.30000019073,134905.068,138988.201,8,400,,,
trial,html.Screen,4_4_0,2023-09-08T19:48:55.428Z,,0,1,,3540.3989999046316,response,ISIC_0064606.JPG,9,ISIC_0000522.JPG,ISIC_0000522.JPG,false,0,keypress(z),500,142528.80000019073,142528.59999990463,138971.475,138986.80000019073,138988.201,142538.049,8,400,5,,ISIC_0064606.JPG
break,html.Screen,4_4_1,2023-09-08T19:48:55.429Z,,0,,,NaN,,,,,,false,,,,142529.7000002861,142529.5,,142529.09999990463,,142538.049,8,400,,,
break_continue,html.Screen,4_4_2,2023-09-08T19:48:55.429Z,,0,,,NaN,,,,,,false,,,,142530.09999990463,142529.90000009537,,142529.80000019073,,142538.049,8,400,,,
sequence,flow.Sequence,4_4,2023-09-08T19:48:55.430Z,,0,,,3541.6990000953665,completion,,,,,false,,,,142530.2000002861,142529.90000009537,138971.475,138986.7000002861,138988.201,142538.049,8,400,,,
trial,html.Screen,4_5_0,2023-09-08T19:48:59.732Z,,0,1,,4294.751000190736,response,ISIC_0056921.JPG,10,ISIC_0055727.JPG,ISIC_0056921.JPG,false,1,keypress(m),500,146833,146832.80000019073,142521.305,142530.30000019073,142538.049,146837.851,8,400,6,,ISIC_0055727.JPG
break,html.Screen,4_5_1,2023-09-08T19:48:59.733Z,,0,,,NaN,,,,,,false,,,,146833.90000009537,146833.7000002861,,146833.2000002861,,146837.851,8,400,,,
break_continue,html.Screen,4_5_2,2023-09-08T19:48:59.734Z,,0,,,NaN,,,,,,false,,,,146834.30000019073,146834.2000002861,,146834.09999990463,,146837.851,8,400,,,
sequence,flow.Sequence,4_5,2023-09-08T19:48:59.734Z,,0,,,4296.151000286103,completion,,,,,false,,,,146834.5,146834.2000002861,142521.305,142530.2000002861,142538.049,146837.851,8,400,,,
trial,html.Screen,4_6_0,2023-09-08T19:49:11.221Z,,0,1,,11516.165999999997,timeout,ISIC_0032626.JPG,9,ISIC_5005961.JPG,,false,,,500,158321.2000002861,158321,146821.174,146834.59999990463,146837.851,158354.017,8,400,7,,
break,html.Screen,4_6_1,2023-09-08T19:49:11.221Z,,0,,,NaN,,,,,,false,,,,158321.80000019073,158321.59999990463,,158321.30000019073,,158354.017,8,400,,,
break_continue,html.Screen,4_6_2,2023-09-08T19:49:11.221Z,,0,,,NaN,,,,,,false,,,,158322.09999990463,158322,,158321.80000019073,,158354.017,8,400,,,
sequence,flow.Sequence,4_6,2023-09-08T19:49:11.222Z,,0,,,11484.149000000005,completion,,,,,false,,,,158322.2000002861,158322,146821.174,146834.59999990463,146837.851,158354.017,8,400,,,
trial,html.Screen,4_7_0,2023-09-08T19:49:22.737Z,,0,1,,11516.167000000016,timeout,ISIC_0025732.JPG,10,ISIC_5662381.JPG,,false,,,500,169837.80000019073,169837.5,158337.303,158322.40000009537,158354.017,169870.184,8,400,8,,
break,html.Screen,4_7_1,2023-09-08T19:49:22.738Z,,0,,,NaN,,,,,,false,,,,169838.30000019073,169838.09999990463,,169837.90000009537,,169870.184,8,400,,,
break_continue,html.Screen,4_7_2,2023-09-08T19:49:22.738Z,,0,,,NaN,,,,,,false,,,,169838.5,169838.5,,169838.40000009537,,169870.184,8,400,,,
sequence,flow.Sequence,4_7,2023-09-08T19:49:22.738Z,,0,,,11484.483000000007,completion,,,,,false,,,,169838.7000002861,169838.5,158337.303,158322.30000019073,158354.017,169870.184,8,400,,,
trial,html.Screen,4_8_0,2023-09-08T19:49:27.093Z,,0,1,,4323.6160001907265,response,ISIC_8635849.JPG,6,ISIC_0029250.JPG,ISIC_8635849.JPG,false,1,keypress(m),500,174194.09999990463,174193.80000019073,169853.411,169838.80000019073,169870.184,174203.229,8,400,9,,ISIC_0029250.JPG
break,html.Screen,4_8_1,2023-09-08T19:49:27.095Z,,0,,,NaN,,,,,,false,,,,174195.80000019073,174195.59999990463,,174194.2000002861,,174203.229,8,400,,,
break_continue,html.Screen,4_8_2,2023-09-08T19:49:27.095Z,,0,,,NaN,,,,,,false,,,,174196.09999990463,174196,,174195.90000009537,,174203.229,8,400,,,
sequence,flow.Sequence,4_8,2023-09-08T19:49:27.096Z,,0,,,4325.815999999992,completion,,,,,false,,,,174196.30000019073,174196,169853.411,169838.80000019073,169870.184,174203.229,8,400,,,
trial,html.Screen,4_9_0,2023-09-08T19:49:30.768Z,,0,1,,3664.071000190743,response,ISIC_5922588.JPG,9,ISIC_5272345.JPG,ISIC_5922588.JPG,false,1,keypress(m),500,177868.90000009537,177867.30000019073,174186.553,174196.40000009537,174203.229,177890.043,8,400,10,,ISIC_5272345.JPG
break,html.Screen,4_9_1,2023-09-08T19:49:30.769Z,,0,,,NaN,,,,,,false,,,,177870,177869.80000019073,,177869.09999990463,,177890.043,8,400,,,
break_continue,html.Screen,4_9_2,2023-09-08T19:49:30.770Z,,0,,,NaN,,,,,,false,,,,177870.90000009537,177870.2000002861,,177870.09999990463,,177890.043,8,400,,,
sequence,flow.Sequence,4_9,2023-09-08T19:49:30.772Z,,0,,,3666.97100028611,completion,,,,,false,,,,177872.40000009537,177870.2000002861,174186.553,174196.40000009537,174203.229,177890.043,8,400,,,
trial,html.Screen,4_10_0,2023-09-08T19:49:33.974Z,,0,1,,3184.157000286097,response,ISIC_7670149.JPG,11,ISIC_0065390.JPG,ISIC_7670149.JPG,false,1,keypress(m),500,181074.40000009537,181074.2000002861,177853.066,177873.09999990463,177890.043,181086.285,8,400,11,,ISIC_0065390.JPG
break,html.Screen,4_10_1,2023-09-08T19:49:33.975Z,,0,,,NaN,,,,,,false,,,,181075.2000002861,181075,,181074.59999990463,,181086.285,8,400,,,
break_continue,html.Screen,4_10_2,2023-09-08T19:49:33.975Z,,0,,,NaN,,,,,,false,,,,181075.5,181075.40000009537,,181075.30000019073,,181086.285,8,400,,,
sequence,flow.Sequence,4_10,2023-09-08T19:49:33.975Z,,0,,,3185.3570000953623,completion,,,,,false,,,,181075.59999990463,181075.40000009537,177853.066,177873.09999990463,177890.043,181086.285,8,400,,,
trial,html.Screen,4_11_0,2023-09-08T19:49:37.910Z,,0,1,,3923.814999904629,response,ISIC_2625894.JPG,28,ISIC_2153401.JPG,ISIC_2153401.JPG,false,0,keypress(z),500,185010.40000009537,185010.09999990463,181069.547,181075.80000019073,181086.285,185019.412,8,400,12,,ISIC_2625894.JPG
break,html.Screen,4_11_1,2023-09-08T19:49:37.910Z,,0,,,NaN,,,,,,false,,,,185011.09999990463,185011,,185010.59999990463,,185019.412,8,400,,,
break_continue,html.Screen,4_11_2,2023-09-08T19:49:37.911Z,,0,,,NaN,,,,,,false,,,,185011.40000009537,185011.30000019073,,185011.2000002861,,185019.412,8,400,,,
sequence,flow.Sequence,4_11,2023-09-08T19:49:37.911Z,,0,,,3925.0150001907314,completion,,,,,false,,,,185011.59999990463,185011.30000019073,181069.547,181075.80000019073,181086.285,185019.412,8,400,,,
trial,html.Screen,4_12_0,2023-09-08T19:49:42.798Z,,0,1,,4879.087999999989,response,ISIC_0012391.JPG,10,ISIC_0059037.JPG,ISIC_0012391.JPG,false,1,keypress(m),500,189898.80000019073,189898.5,185002.713,185011.80000019073,185019.412,189902.504,8,400,13,,ISIC_0059037.JPG
break,html.Screen,4_12_1,2023-09-08T19:49:42.799Z,,0,,,NaN,,,,,,false,,,,189899.59999990463,189899.30000019073,,189898.90000009537,,189902.504,8,400,,,
break_continue,html.Screen,4_12_2,2023-09-08T19:49:42.799Z,,0,,,NaN,,,,,,false,,,,189899.90000009537,189899.80000019073,,189899.7000002861,,189902.504,8,400,,,
sequence,flow.Sequence,4_12,2023-09-08T19:49:42.799Z,,0,,,4880.388000190724,completion,,,,,false,,,,189900,189899.80000019073,185002.713,185011.7000002861,185019.412,189902.504,8,400,,,
trial,html.Screen,4_13_0,2023-09-08T19:49:46.774Z,,0,1,,3972.2960001907486,response,ISIC_0331389.JPG,10,ISIC_0029639.JPG,ISIC_0029639.JPG,false,0,keypress(z),500,193875,193874.80000019073,189885.846,189900.2000002861,189902.504,193885.658,8,400,14,,ISIC_0331389.JPG
break,html.Screen,4_13_1,2023-09-08T19:49:46.775Z,,0,,,NaN,,,,,,false,,,,193875.80000019073,193875.7000002861,,193875.2000002861,,193885.658,8,400,,,
break_continue,html.Screen,4_13_2,2023-09-08T19:49:46.775Z,,0,,,NaN,,,,,,false,,,,193876,193876,,193875.90000009537,,193885.658,8,400,,,
sequence,flow.Sequence,4_13,2023-09-08T19:49:46.776Z,,0,,,3973.4960000000137,completion,,,,,false,,,,193876.2000002861,193876,189885.846,189900.09999990463,189902.504,193885.658,8,400,,,
trial,html.Screen,4_14_0,2023-09-08T19:49:50.071Z,,0,1,,3286.0420002861065,response,ISIC_3031937.JPG,10,ISIC_0015045.JPG,ISIC_0015045.JPG,false,0,keypress(z),500,197171.80000019073,197171.7000002861,193868.995,193876.40000009537,193885.658,197185.666,8,400,15,,ISIC_3031937.JPG
break,html.Screen,4_14_1,2023-09-08T19:49:50.072Z,,0,,,NaN,,,,,,false,,,,197172.90000009537,197172.59999990463,,197172,,197185.666,8,400,,,
break_continue,html.Screen,4_14_2,2023-09-08T19:49:50.072Z,,0,,,NaN,,,,,,false,,,,197173.09999990463,197173,,197172.90000009537,,197185.666,8,400,,,
sequence,flow.Sequence,4_14,2023-09-08T19:49:50.072Z,,0,,,3287.342000000004,completion,,,,,false,,,,197173.40000009537,197173,193868.995,193876.30000019073,193885.658,197185.666,8,400,,,
trial,html.Screen,4_15_0,2023-09-08T19:49:53.294Z,,0,1,,3208.933999904635,response,ISIC_4088444.JPG,9,ISIC_7242312.JPG,ISIC_7242312.JPG,false,0,keypress(z),500,200394.90000009537,200394.59999990463,197168.794,197173.59999990463,197185.666,200402.094,8,400,16,,ISIC_4088444.JPG
break,html.Screen,4_15_1,2023-09-08T19:49:53.295Z,,0,,,NaN,,,,,,false,,,,200395.7000002861,200395.5,,200395,,200402.094,8,400,,,
break_continue,html.Screen,4_15_2,2023-09-08T19:49:53.295Z,,0,,,NaN,,,,,,false,,,,200396,200395.90000009537,,200395.80000019073,,200402.094,8,400,,,
sequence,flow.Sequence,4_15,2023-09-08T19:49:53.295Z,,0,,,3210.23400009537,completion,,,,,false,,,,200396.09999990463,200395.90000009537,197168.794,197173.5,197185.666,200402.094,8,400,,,
trial,html.Screen,4_16_0,2023-09-08T19:49:56.806Z,,0,1,,3504.206000190723,response,ISIC_4906385.JPG,10,ISIC_0030695.JPG,ISIC_0030695.JPG,false,0,keypress(z),500,203906.5,203906.30000019073,200385.291,200396.30000019073,200402.094,203935.206,8,400,17,,ISIC_4906385.JPG
break,html.Screen,4_16_1,2023-09-08T19:49:56.806Z,,0,,,NaN,,,,,,false,,,,203907.2000002861,203907,,203906.7000002861,,203935.206,8,400,,,
break_continue,html.Screen,4_16_2,2023-09-08T19:49:56.807Z,,0,,,NaN,,,,,,false,,,,203907.5,203907.40000009537,,203907.30000019073,,203935.206,8,400,,,
sequence,flow.Sequence,4_16,2023-09-08T19:49:56.807Z,,0,,,3505.3060000953556,completion,,,,,false,,,,203907.59999990463,203907.40000009537,200385.291,200396.2000002861,200402.094,203935.206,8,400,,,
trial,html.Screen,4_17_0,2023-09-08T19:50:01.038Z,,0,1,,4203.094000190729,response,ISIC_0026392.JPG,10,ISIC_0061880.JPG,ISIC_0061880.JPG,false,0,keypress(z),500,208138.5,208138.30000019073,203918.542,203907.7000002861,203935.206,208151.649,8,400,18,,ISIC_0026392.JPG
break,html.Screen,4_17_1,2023-09-08T19:50:01.038Z,,0,,,NaN,,,,,,false,,,,208139.30000019073,208139.09999990463,,208138.7000002861,,208151.649,8,400,,,
break_continue,html.Screen,4_17_2,2023-09-08T19:50:01.039Z,,0,,,NaN,,,,,,false,,,,208139.5,208139.5,,208139.30000019073,,208151.649,8,400,,,
sequence,flow.Sequence,4_17,2023-09-08T19:50:01.039Z,,0,,,4204.293999999994,completion,,,,,false,,,,208139.7000002861,208139.5,203918.542,203907.7000002861,203935.206,208151.649,8,400,,,
trial,html.Screen,4_18_0,2023-09-08T19:50:04.189Z,,0,1,,3138.5510002860974,response,ISIC_2733056.JPG,10,ISIC_0014211.JPG,ISIC_2733056.JPG,false,1,keypress(m),500,211290.40000009537,211290.2000002861,208134.972,208139.90000009537,208151.649,211301.476,8,400,19,,ISIC_0014211.JPG
break,html.Screen,4_18_1,2023-09-08T19:50:04.190Z,,0,,,NaN,,,,,,false,,,,211291.30000019073,211291.2000002861,,211290.59999990463,,211301.476,8,400,,,
break_continue,html.Screen,4_18_2,2023-09-08T19:50:04.191Z,,0,,,NaN,,,,,,false,,,,211291.7000002861,211291.59999990463,,211291.40000009537,,211301.476,8,400,,,
sequence,flow.Sequence,4_18,2023-09-08T19:50:04.191Z,,0,,,3139.9509999046277,completion,,,,,false,,,,211291.80000019073,211291.59999990463,208134.972,208139.80000019073,208151.649,211301.476,8,400,,,
trial,html.Screen,4_19_0,2023-09-08T19:50:07.709Z,,0,1,,3508.724000286107,response,ISIC_0065872.JPG,10,ISIC_3012778.JPG,ISIC_0065872.JPG,false,1,keypress(m),500,214810.40000009537,214810.2000002861,211284.881,211291.90000009537,211301.476,214817.999,8,400,20,,ISIC_3012778.JPG
break,html.Screen,4_19_1,2023-09-08T19:50:07.710Z,,0,,,NaN,,,,,,false,,,,214811.2000002861,214811,,214810.59999990463,,214817.999,8,400,,,
break_continue,html.Screen,4_19_2,2023-09-08T19:50:07.710Z,,0,,,NaN,,,,,,false,,,,214811.40000009537,214811.30000019073,,214811.2000002861,,214817.999,8,400,,,
sequence,flow.Sequence,4_19,2023-09-08T19:50:07.711Z,,0,,,3509.8240001907398,completion,,,,,false,,,,214811.59999990463,214811.30000019073,211284.881,211291.90000009537,211301.476,214817.999,8,400,,,
trial,html.Screen,4_20_0,2023-09-08T19:50:12.285Z,,0,1,,4568.100999904622,response,ISIC_0032313.JPG,11,ISIC_0005762.JPG,ISIC_0032313.JPG,false,1,keypress(m),500,219386.5,219386.09999990463,214801.325,214811.80000019073,214817.999,219401.11,8,400,21,,ISIC_0005762.JPG
break,html.Screen,4_20_1,2023-09-08T19:50:12.286Z,,0,,,NaN,,,,,,false,,,,219387.2000002861,219387.09999990463,,219386.59999990463,,219401.11,8,400,,,
break_continue,html.Screen,4_20_2,2023-09-08T19:50:12.287Z,,0,,,NaN,,,,,,false,,,,219387.5,219387.40000009537,,219387.30000019073,,219401.11,8,400,,,
sequence,flow.Sequence,4_20,2023-09-08T19:50:12.287Z,,0,,,4569.401000095357,completion,,,,,false,,,,219387.7000002861,219387.40000009537,214801.325,214811.7000002861,214817.999,219401.11,8,400,,,
trial,html.Screen,4_21_0,2023-09-08T19:50:15.906Z,,0,1,,3606.0900002861163,response,ISIC_0034207.JPG,2,ISIC_4936662.JPG,ISIC_0034207.JPG,false,1,keypress(m),500,223007.40000009537,223007.2000002861,219384.441,219387.80000019073,219401.11,223017.598,8,400,22,,ISIC_4936662.JPG
break,html.Screen,4_21_1,2023-09-08T19:50:15.908Z,,0,,,NaN,,,,,,false,,,,223008.59999990463,223008.30000019073,,223007.59999990463,,223017.598,8,400,,,
break_continue,html.Screen,4_21_2,2023-09-08T19:50:15.908Z,,0,,,NaN,,,,,,false,,,,223008.90000009537,223008.90000009537,,223008.7000002861,,223017.598,8,400,,,
sequence,flow.Sequence,4_21,2023-09-08T19:50:15.908Z,,0,,,3607.7900000953814,completion,,,,,false,,,,223009.09999990463,223008.90000009537,219384.441,219387.80000019073,219401.11,223017.598,8,400,,,
trial,html.Screen,4_22_0,2023-09-08T19:50:19.390Z,,0,1,,3473.0019999046344,response,ISIC_3207651.JPG,13,ISIC_0025757.JPG,ISIC_3207651.JPG,false,1,keypress(m),500,226490.80000019073,226490.59999990463,223000.915,223009.2000002861,223017.598,226500.768,8,400,23,,ISIC_0025757.JPG
break,html.Screen,4_22_1,2023-09-08T19:50:19.391Z,,0,,,NaN,,,,,,false,,,,226491.59999990463,226491.5,,226491,,226500.768,8,400,,,
break_continue,html.Screen,4_22_2,2023-09-08T19:50:19.391Z,,0,,,NaN,,,,,,false,,,,226492,226491.90000009537,,226491.7000002861,,226500.768,8,400,,,
sequence,flow.Sequence,4_22,2023-09-08T19:50:19.391Z,,0,,,3474.3020000953693,completion,,,,,false,,,,226492.09999990463,226491.90000009537,223000.915,223009.2000002861,223017.598,226500.768,8,400,,,
trial,html.Screen,4_23_0,2023-09-08T19:50:22.854Z,,0,1,,3453.731999999989,response,ISIC_0029089.JPG,10,ISIC_1269461.JPG,ISIC_0029089.JPG,false,1,keypress(m),500,229954.80000019073,229954.5,226484.133,226492.2000002861,226500.768,229967.275,8,400,24,,ISIC_1269461.JPG
break,html.Screen,4_23_1,2023-09-08T19:50:22.855Z,,0,,,NaN,,,,,,false,,,,229955.59999990463,229955.5,,229954.90000009537,,229967.275,8,400,,,
break_continue,html.Screen,4_23_2,2023-09-08T19:50:22.855Z,,0,,,NaN,,,,,,false,,,,229955.80000019073,229955.80000019073,,229955.7000002861,,229967.275,8,400,,,
sequence,flow.Sequence,4_23,2023-09-08T19:50:22.855Z,,0,,,3455.032000190724,completion,,,,,false,,,,229956,229955.80000019073,226484.133,226492.2000002861,226500.768,229967.275,8,400,,,
trial,html.Screen,4_24_0,2023-09-08T19:50:27.414Z,,0,1,,4547.225000000006,response,ISIC_3086579.JPG,18,ISIC_7544537.JPG,ISIC_3086579.JPG,false,1,keypress(m),500,234514.80000019073,234514.5,229950.6,229956.2000002861,229967.275,234517.054,8,400,25,,ISIC_7544537.JPG
break,html.Screen,4_24_1,2023-09-08T19:50:27.415Z,,0,,,NaN,,,,,,false,,,,234516.5,234516.30000019073,,234515,,234517.054,8,400,,,
break_continue,html.Screen,4_24_2,2023-09-08T19:50:27.416Z,,0,,,NaN,,,,,,false,,,,234516.7000002861,234516.7000002861,,234516.59999990463,,234517.054,8,400,,,
sequence,flow.Sequence,4_24,2023-09-08T19:50:27.416Z,,0,,,4549.425000286108,completion,,,,,false,,,,234516.90000009537,234516.7000002861,229950.6,229956.2000002861,229967.275,234517.054,8,400,,,
trial,html.Screen,4_25_0,2023-09-08T19:50:31.382Z,,0,1,,3965.4459999999963,response,ISIC_2663597.JPG,9,ISIC_0005762.JPG,ISIC_2663597.JPG,false,1,keypress(m),500,238482.80000019073,238482.5,234500.46,234517.09999990463,234517.054,238506.42,8,400,26,,ISIC_0005762.JPG
break,html.Screen,4_25_1,2023-09-08T19:50:31.383Z,,0,,,NaN,,,,,,false,,,,238483.7000002861,238483.59999990463,,238482.90000009537,,238506.42,8,400,,,
break_continue,html.Screen,4_25_2,2023-09-08T19:50:31.383Z,,0,,,NaN,,,,,,false,,,,238484,238484,,238483.80000019073,,238506.42,8,400,,,
sequence,flow.Sequence,4_25,2023-09-08T19:50:31.383Z,,0,,,3966.9459999999963,completion,,,,,false,,,,238484.2000002861,238484,234500.46,234517,234517.054,238506.42,8,400,,,
trial,html.Screen,4_26_0,2023-09-08T19:50:34.646Z,,0,1,,3240.579999999987,response,ISIC_0021901.JPG,10,ISIC_4354896.JPG,ISIC_0021901.JPG,false,1,keypress(m),500,241747.30000019073,241747,238466.868,238484.30000019073,238506.42,241750.073,8,400,27,,ISIC_4354896.JPG
break,html.Screen,4_26_1,2023-09-08T19:50:34.647Z,,0,,,NaN,,,,,,false,,,,241748,241747.90000009537,,241747.40000009537,,241750.073,8,400,,,
break_continue,html.Screen,4_26_2,2023-09-08T19:50:34.647Z,,0,,,NaN,,,,,,false,,,,241748.40000009537,241748.30000019073,,241748.2000002861,,241750.073,8,400,,,
sequence,flow.Sequence,4_26,2023-09-08T19:50:34.648Z,,0,,,3241.880000190722,completion,,,,,false,,,,241748.5,241748.30000019073,238466.868,238484.2000002861,238506.42,241750.073,8,400,,,
trial,html.Screen,4_27_0,2023-09-08T19:50:37.838Z,,0,1,,3189.0269999046286,response,ISIC_0247197.JPG,10,ISIC_0028692.JPG,ISIC_0028692.JPG,false,0,keypress(z),500,244939.30000019073,244939.09999990463,241733.367,241748.59999990463,241750.073,244950,8,400,28,,ISIC_0247197.JPG
break,html.Screen,4_27_1,2023-09-08T19:50:37.839Z,,0,,,NaN,,,,,,false,,,,244940.2000002861,244939.90000009537,,244939.5,,244950,8,400,,,
break_continue,html.Screen,4_27_2,2023-09-08T19:50:37.840Z,,0,,,NaN,,,,,,false,,,,244940.40000009537,244940.30000019073,,244940.30000019073,,244950,8,400,,,
sequence,flow.Sequence,4_27,2023-09-08T19:50:37.840Z,,0,,,3190.227000190731,completion,,,,,false,,,,244940.59999990463,244940.30000019073,241733.367,241748.59999990463,241750.073,244950,8,400,,,
trial,html.Screen,4_28_0,2023-09-08T19:50:41.038Z,,0,1,,3189.0999999046326,response,ISIC_6625102.JPG,10,ISIC_7921023.JPG,ISIC_6625102.JPG,false,1,keypress(m),500,248139.30000019073,248139.09999990463,244933.23,244940.7000002861,244950,248149.774,8,400,29,,ISIC_7921023.JPG
break,html.Screen,4_28_1,2023-09-08T19:50:41.039Z,,0,,,NaN,,,,,,false,,,,248140.09999990463,248140,,248139.5,,248149.774,8,400,,,
break_continue,html.Screen,4_28_2,2023-09-08T19:50:41.039Z,,0,,,NaN,,,,,,false,,,,248140.40000009537,248140.30000019073,,248140.2000002861,,248149.774,8,400,,,
sequence,flow.Sequence,4_28,2023-09-08T19:50:41.040Z,,0,,,3190.300000190735,completion,,,,,false,,,,248140.5,248140.30000019073,244933.23,244940.7000002861,244950,248149.774,8,400,,,
trial,html.Screen,4_29_0,2023-09-08T19:50:44.094Z,,0,1,,3045.3259999046277,response,ISIC_8188797.JPG,15,ISIC_2221217.JPG,ISIC_2221217.JPG,false,0,keypress(z),500,251195.2000002861,251195.09999990463,248133.088,248140.7000002861,248149.774,251199.635,8,400,30,,ISIC_8188797.JPG
break,html.Screen,4_29_1,2023-09-08T19:50:44.095Z,,0,,,NaN,,,,,,false,,,,251196.09999990463,251195.90000009537,,251195.40000009537,,251199.635,8,400,,,
break_continue,html.Screen,4_29_2,2023-09-08T19:50:44.095Z,,0,,,NaN,,,,,,false,,,,251196.40000009537,251196.30000019073,,251196.2000002861,,251199.635,8,400,,,
sequence,flow.Sequence,4_29,2023-09-08T19:50:44.096Z,,0,,,3046.52600019073,completion,,,,,false,,,,251196.59999990463,251196.30000019073,248133.088,248140.7000002861,248149.774,251199.635,8,400,,,
trial,html.Screen,4_30_0,2023-09-08T19:50:48.351Z,,0,1,,4251.464999904623,response,ISIC_0032441.JPG,10,ISIC_0055086.JPG,ISIC_0055086.JPG,false,0,keypress(z),500,255451.30000019073,255451.09999990463,251182.912,251196.7000002861,251199.635,255466.108,8,400,31,,ISIC_0032441.JPG
break,html.Screen,4_30_1,2023-09-08T19:50:48.351Z,,0,,,NaN,,,,,,false,,,,255452.09999990463,255451.90000009537,,255451.5,,255466.108,8,400,,,
break_continue,html.Screen,4_30_2,2023-09-08T19:50:48.352Z,,0,,,NaN,,,,,,false,,,,255452.40000009537,255452.30000019073,,255452.2000002861,,255466.108,8,400,,,
sequence,flow.Sequence,4_30,2023-09-08T19:50:48.352Z,,0,,,4252.665000190726,completion,,,,,false,,,,255452.5,255452.30000019073,251182.912,251196.7000002861,251199.635,255466.108,8,400,,,
trial,html.Screen,4_31_0,2023-09-08T19:50:51.375Z,,0,1,,3008.991999904625,response,ISIC_0028361.JPG,9,ISIC_2424673.JPG,ISIC_0028361.JPG,false,1,keypress(m),500,258475.30000019073,258475.09999990463,255449.426,255452.59999990463,255466.108,258482.653,8,400,32,,ISIC_2424673.JPG
break,html.Screen,4_31_1,2023-09-08T19:50:51.376Z,,0,,,NaN,,,,,,false,,,,258476.40000009537,258476.2000002861,,258475.40000009537,,258482.653,8,400,,,
break_continue,html.Screen,4_31_2,2023-09-08T19:50:51.376Z,,0,,,NaN,,,,,,false,,,,258476.80000019073,258476.7000002861,,258476.5,,258482.653,8,400,,,
sequence,flow.Sequence,4_31,2023-09-08T19:50:51.376Z,,0,,,3010.592000286095,completion,,,,,false,,,,258476.90000009537,258476.7000002861,255449.426,255452.59999990463,255466.108,258482.653,8,400,,,
trial,html.Screen,4_32_0,2023-09-08T19:50:55.031Z,,0,1,,3648.4469999046414,response,ISIC_0067979.JPG,9,ISIC_0032029.JPG,ISIC_0067979.JPG,false,1,keypress(m),500,262131.30000019073,262131.09999990463,258465.989,258477,258482.653,262155.008,8,400,33,,ISIC_0032029.JPG
break,html.Screen,4_32_1,2023-09-08T19:50:55.032Z,,0,,,NaN,,,,,,false,,,,262132.40000009537,262132.2000002861,,262131.59999990463,,262155.008,8,400,,,
break_continue,html.Screen,4_32_2,2023-09-08T19:50:55.032Z,,0,,,NaN,,,,,,false,,,,262132.90000009537,262132.7000002861,,262132.5,,262155.008,8,400,,,
sequence,flow.Sequence,4_32,2023-09-08T19:50:55.033Z,,0,,,3650.047000286111,completion,,,,,false,,,,262133.59999990463,262132.7000002861,258465.989,258477,258482.653,262155.008,8,400,,,
trial,html.Screen,4_33_0,2023-09-08T19:50:58.655Z,,0,1,,3600.1920002861298,response,ISIC_5420979.JPG,8,ISIC_0000279.JPG,ISIC_0000279.JPG,false,0,keypress(z),500,265755.40000009537,265755.2000002861,262115.757,262133.80000019073,262155.008,265765.608,8,400,34,,ISIC_5420979.JPG
break,html.Screen,4_33_1,2023-09-08T19:50:58.656Z,,0,,,NaN,,,,,,false,,,,265756.2000002861,265756,,265755.59999990463,,265765.608,8,400,,,
break_continue,html.Screen,4_33_2,2023-09-08T19:50:58.656Z,,0,,,NaN,,,,,,false,,,,265756.59999990463,265756.40000009537,,265756.30000019073,,265765.608,8,400,,,
sequence,flow.Sequence,4_33,2023-09-08T19:50:58.656Z,,0,,,3601.392000095395,completion,,,,,false,,,,265756.7000002861,265756.40000009537,262115.757,262133.80000019073,262155.008,265765.608,8,400,,,
trial,html.Screen,4_34_0,2023-09-08T19:51:02.351Z,,0,1,,3685.491999904625,response,ISIC_0033832.JPG,9,ISIC_0013801.JPG,ISIC_0013801.JPG,false,0,keypress(z),500,269451.30000019073,269451.09999990463,265748.93,265756.90000009537,265765.608,269465.432,8,400,35,,ISIC_0033832.JPG
break,html.Screen,4_34_1,2023-09-08T19:51:02.351Z,,0,,,NaN,,,,,,false,,,,269452.09999990463,269451.90000009537,,269451.40000009537,,269465.432,8,400,,,
break_continue,html.Screen,4_34_2,2023-09-08T19:51:02.352Z,,0,,,NaN,,,,,,false,,,,269452.30000019073,269452.2000002861,,269452.09999990463,,269465.432,8,400,,,
sequence,flow.Sequence,4_34,2023-09-08T19:51:02.352Z,,0,,,3686.592000286095,completion,,,,,false,,,,269452.5,269452.2000002861,265748.93,265756.80000019073,265765.608,269465.432,8,400,,,
trial,html.Screen,4_35_0,2023-09-08T19:51:05.519Z,,0,1,,3153.667999904661,response,ISIC_8104064.JPG,10,ISIC_0067012.JPG,ISIC_0067012.JPG,false,0,keypress(z),500,272619.30000019073,272619.09999990463,269448.761,269452.59999990463,269465.432,272632.006,8,400,36,,ISIC_8104064.JPG
break,html.Screen,4_35_1,2023-09-08T19:51:05.519Z,,0,,,NaN,,,,,,false,,,,272620.09999990463,272619.90000009537,,272619.5,,272632.006,8,400,,,
break_continue,html.Screen,4_35_2,2023-09-08T19:51:05.520Z,,0,,,NaN,,,,,,false,,,,272620.59999990463,272620.40000009537,,272620.30000019073,,272632.006,8,400,,,
sequence,flow.Sequence,4_35,2023-09-08T19:51:05.520Z,,0,,,3154.968000095396,completion,,,,,false,,,,272620.7000002861,272620.40000009537,269448.761,269452.59999990463,269465.432,272632.006,8,400,,,
trial,html.Screen,4_36_0,2023-09-08T19:51:09.974Z,,0,1,,4442.694000286108,response,ISIC_5857303.JPG,9,ISIC_2124213.JPG,ISIC_5857303.JPG,false,1,keypress(m),500,277075,277074.7000002861,272615.257,272620.80000019073,272632.006,277081.996,8,400,37,,ISIC_2124213.JPG
break,html.Screen,4_36_1,2023-09-08T19:51:09.976Z,,0,,,NaN,,,,,,false,,,,277076.30000019073,277076.09999990463,,277075.09999990463,,277081.996,8,400,,,
break_continue,html.Screen,4_36_2,2023-09-08T19:51:09.976Z,,0,,,NaN,,,,,,false,,,,277076.59999990463,277076.5,,277076.40000009537,,277081.996,8,400,,,
sequence,flow.Sequence,4_36,2023-09-08T19:51:09.976Z,,0,,,4444.494000000006,completion,,,,,false,,,,277076.80000019073,277076.5,272615.257,272620.7000002861,272632.006,277081.996,8,400,,,
trial,html.Screen,4_37_0,2023-09-08T19:51:14.270Z,,0,1,,4288.603999904648,response,ISIC_1175291.JPG,9,ISIC_6507792.JPG,ISIC_6507792.JPG,false,0,keypress(z),500,281370.80000019073,281370.59999990463,277065.054,277077,277081.996,281381.533,8,400,38,,ISIC_1175291.JPG
break,html.Screen,4_37_1,2023-09-08T19:51:14.271Z,,0,,,NaN,,,,,,false,,,,281371.80000019073,281371.59999990463,,281371,,281381.533,8,400,,,
break_continue,html.Screen,4_37_2,2023-09-08T19:51:14.271Z,,0,,,NaN,,,,,,false,,,,281372.09999990463,281372,,281372,,281381.533,8,400,,,
sequence,flow.Sequence,4_37,2023-09-08T19:51:14.272Z,,0,,,4290.004000000015,completion,,,,,false,,,,281372.2000002861,281372,277065.054,277076.90000009537,277081.996,281381.533,8,400,,,
trial,html.Screen,4_38_0,2023-09-08T19:51:17.726Z,,0,1,,3445.0669999046368,response,ISIC_5754023.JPG,10,ISIC_8671119.JPG,ISIC_5754023.JPG,false,1,keypress(m),500,284826.80000019073,284826.59999990463,281364.912,281372.40000009537,281381.533,284831.4,8,400,39,,ISIC_8671119.JPG
break,html.Screen,4_38_1,2023-09-08T19:51:17.729Z,,0,,,NaN,,,,,,false,,,,284829.40000009537,284829.09999990463,,284827.90000009537,,284831.4,8,400,,,
break_continue,html.Screen,4_38_2,2023-09-08T19:51:17.729Z,,0,,,NaN,,,,,,false,,,,284829.7000002861,284829.59999990463,,284829.40000009537,,284831.4,8,400,,,
sequence,flow.Sequence,4_38,2023-09-08T19:51:17.729Z,,0,,,3448.0669999046368,completion,,,,,false,,,,284829.90000009537,284829.59999990463,281364.912,281372.30000019073,281381.533,284831.4,8,400,,,
trial,html.Screen,4_39_0,2023-09-08T19:51:21.830Z,,0,1,,4099.199999904609,response,ISIC_7302456.JPG,8,ISIC_0000306.JPG,ISIC_7302456.JPG,false,1,keypress(m),500,288930.80000019073,288930.59999990463,284814.689,284830,284831.4,288947.893,8,400,40,,ISIC_0000306.JPG
break,html.Screen,4_39_1,2023-09-08T19:51:21.831Z,,0,,,NaN,,,,,,false,,,,288931.7000002861,288931.5,,288931,,288947.893,8,400,,,
break_continue,html.Screen,4_39_2,2023-09-08T19:51:21.831Z,,0,,,NaN,,,,,,false,,,,288932,288931.80000019073,,288931.80000019073,,288947.893,8,400,,,
sequence,flow.Sequence,4_39,2023-09-08T19:51:21.831Z,,0,,,4100.400000190712,completion,,,,,false,,,,288932.09999990463,288931.80000019073,284814.689,284830,284831.4,288947.893,8,400,,,
trial,html.Screen,4_40_0,2023-09-08T19:51:25.206Z,,0,1,,3358.607000000018,response,ISIC_6663112.JPG,10,ISIC_6633906.JPG,ISIC_6633906.JPG,false,0,keypress(z),500,292306.80000019073,292306.5,288931.256,288932.2000002861,288947.893,292314.411,8,400,41,,ISIC_6663112.JPG
break,html.Screen,4_40_1,2023-09-08T19:51:25.207Z,,0,,,NaN,,,,,,false,,,,292307.59999990463,292307.40000009537,,292307,,292314.411,8,400,,,
break_continue,html.Screen,4_40_2,2023-09-08T19:51:25.207Z,,0,,,NaN,,,,,,false,,,,292307.90000009537,292307.80000019073,,292307.7000002861,,292314.411,8,400,,,
sequence,flow.Sequence,4_40,2023-09-08T19:51:25.207Z,,0,,,3359.907000190753,completion,,,,,false,,,,292308,292307.80000019073,288931.256,288932.2000002861,288947.893,292314.411,8,400,,,
trial,html.Screen,4_41_0,2023-09-08T19:51:28.878Z,,0,1,,3664.1889999046107,response,ISIC_9631669.JPG,10,ISIC_7011122.JPG,ISIC_7011122.JPG,false,0,keypress(z),500,295978.90000009537,295978.59999990463,292297.714,292308.2000002861,292314.411,295980.86,8,400,42,,ISIC_9631669.JPG
break,html.Screen,4_41_1,2023-09-08T19:51:28.879Z,,0,,,NaN,,,,,,false,,,,295979.90000009537,295979.7000002861,,295978.90000009537,,295980.86,8,400,,,
break_continue,html.Screen,4_41_2,2023-09-08T19:51:28.879Z,,0,,,NaN,,,,,,false,,,,295980.09999990463,295980,,295979.90000009537,,295980.86,8,400,,,
sequence,flow.Sequence,4_41,2023-09-08T19:51:28.880Z,,0,,,3665.588999999978,completion,,,,,false,,,,295980.30000019073,295980,292297.714,292308.09999990463,292314.411,295980.86,8,400,,,
trial,html.Screen,4_42_0,2023-09-08T19:51:33.094Z,,0,1,,4213.7399999046465,response,ISIC_0000072.JPG,10,ISIC_6201695.JPG,ISIC_0000072.JPG,false,1,keypress(m),500,300194.90000009537,300194.59999990463,295964.188,295980.30000019073,295980.86,300197.337,8,400,43,,ISIC_6201695.JPG
break,html.Screen,4_42_1,2023-09-08T19:51:33.095Z,,0,,,NaN,,,,,,false,,,,300195.90000009537,300195.7000002861,,300195,,300197.337,8,400,,,
break_continue,html.Screen,4_42_2,2023-09-08T19:51:33.096Z,,0,,,NaN,,,,,,false,,,,300196.2000002861,300196.09999990463,,300196,,300197.337,8,400,,,
sequence,flow.Sequence,4_42,2023-09-08T19:51:33.096Z,,0,,,4215.2399999046465,completion,,,,,false,,,,300196.40000009537,300196.09999990463,295964.188,295980.30000019073,295980.86,300197.337,8,400,,,
trial,html.Screen,4_43_0,2023-09-08T19:51:36.446Z,,0,1,,3349.3630002861028,response,ISIC_0012082.JPG,10,ISIC_4241907.JPG,ISIC_0012082.JPG,false,1,keypress(m),500,303546.90000009537,303546.7000002861,300180.62,300196.5,300197.337,303563.86,8,400,44,,ISIC_4241907.JPG
break,html.Screen,4_43_1,2023-09-08T19:51:36.447Z,,0,,,NaN,,,,,,false,,,,303547.7000002861,303547.5,,303547.09999990463,,303563.86,8,400,,,
break_continue,html.Screen,4_43_2,2023-09-08T19:51:36.447Z,,0,,,NaN,,,,,,false,,,,303548,303547.90000009537,,303547.80000019073,,303563.86,8,400,,,
sequence,flow.Sequence,4_43,2023-09-08T19:51:36.448Z,,0,,,3350.563000095368,completion,,,,,false,,,,303548.09999990463,303547.90000009537,300180.62,300196.40000009537,300197.337,303563.86,8,400,,,
trial,html.Screen,4_44_0,2023-09-08T19:51:39.646Z,,0,1,,3182.7399999046465,response,ISIC_0741694.JPG,10,ISIC_8633894.JPG,ISIC_8633894.JPG,false,0,keypress(z),500,306746.90000009537,306746.59999990463,303547.179,303548.2000002861,303563.86,306763.708,8,400,45,,ISIC_0741694.JPG
break,html.Screen,4_44_1,2023-09-08T19:51:39.647Z,,0,,,NaN,,,,,,false,,,,306747.7000002861,306747.59999990463,,306747.2000002861,,306763.708,8,400,,,
break_continue,html.Screen,4_44_2,2023-09-08T19:51:39.647Z,,0,,,NaN,,,,,,false,,,,306748.09999990463,306748,,306747.90000009537,,306763.708,8,400,,,
sequence,flow.Sequence,4_44,2023-09-08T19:51:39.648Z,,0,,,3184.140000000014,completion,,,,,false,,,,306748.2000002861,306748,303547.179,303548.2000002861,303563.86,306763.708,8,400,,,
trial,html.Screen,4_45_0,2023-09-08T19:51:45.278Z,,0,1,,5614.891999904648,response,ISIC_4120174.JPG,10,ISIC_0024227.JPG,ISIC_4120174.JPG,false,1,keypress(m),500,312378.80000019073,312378.59999990463,306747.023,306748.40000009537,306763.708,312402.492,8,400,46,,ISIC_0024227.JPG
break,html.Screen,4_45_1,2023-09-08T19:51:45.279Z,,0,,,NaN,,,,,,false,,,,312379.7000002861,312379.5,,312379,,312402.492,8,400,,,
break_continue,html.Screen,4_45_2,2023-09-08T19:51:45.279Z,,0,,,NaN,,,,,,false,,,,312380,312379.90000009537,,312379.80000019073,,312402.492,8,400,,,
sequence,flow.Sequence,4_45,2023-09-08T19:51:45.280Z,,0,,,5616.192000095383,completion,,,,,false,,,,312380.2000002861,312379.90000009537,306747.023,306748.30000019073,306763.708,312402.492,8,400,,,
trial,html.Screen,4_46_0,2023-09-08T19:51:48.622Z,,0,1,,3320.107999904605,response,ISIC_6685513.JPG,10,ISIC_8355446.JPG,ISIC_8355446.JPG,false,0,keypress(z),500,315722.80000019073,315722.59999990463,312363.449,312380.40000009537,312402.492,315729.957,8,400,47,,ISIC_6685513.JPG
break,html.Screen,4_46_1,2023-09-08T19:51:48.623Z,,0,,,NaN,,,,,,false,,,,315723.80000019073,315723.7000002861,,315723,,315729.957,8,400,,,
break_continue,html.Screen,4_46_2,2023-09-08T19:51:48.624Z,,0,,,NaN,,,,,,false,,,,315724.30000019073,315724.2000002861,,315724.09999990463,,315729.957,8,400,,,
sequence,flow.Sequence,4_46,2023-09-08T19:51:48.624Z,,0,,,3321.708000286075,completion,,,,,false,,,,315724.5,315724.2000002861,312363.449,312380.30000019073,312402.492,315729.957,8,400,,,
trial,html.Screen,4_47_0,2023-09-08T19:51:52.577Z,,0,1,,3947.2430002861074,response,ISIC_7921023.JPG,10,ISIC_0015079.JPG,ISIC_7921023.JPG,false,1,keypress(m),500,319677.5,319677.2000002861,315713.244,315724.59999990463,315729.957,319679.77,8,400,48,,ISIC_0015079.JPG
break,html.Screen,4_47_1,2023-09-08T19:51:52.578Z,,0,,,NaN,,,,,,false,,,,319678.5,319678.2000002861,,319677.59999990463,,319679.77,8,400,,,
break_continue,html.Screen,4_47_2,2023-09-08T19:51:52.578Z,,0,,,NaN,,,,,,false,,,,319678.80000019073,319678.7000002861,,319678.59999990463,,319679.77,8,400,,,
sequence,flow.Sequence,4_47,2023-09-08T19:51:52.578Z,,0,,,3948.7430002861074,completion,,,,,false,,,,319679,319678.7000002861,315713.244,315724.59999990463,315729.957,319679.77,8,400,,,
trial,html.Screen,4_48_0,2023-09-08T19:51:55.814Z,,0,1,,3234.9300002860837,response,ISIC_0011700.JPG,7,ISIC_3478473.JPG,ISIC_0011700.JPG,false,1,keypress(m),500,322914.90000009537,322914.7000002861,319663.152,319679.09999990463,319679.77,322929.629,8,400,49,,ISIC_3478473.JPG
break,html.Screen,4_48_1,2023-09-08T19:51:55.815Z,,0,,,NaN,,,,,,false,,,,322915.90000009537,322915.7000002861,,322915.09999990463,,322929.629,8,400,,,
break_continue,html.Screen,4_48_2,2023-09-08T19:51:55.816Z,,0,,,NaN,,,,,,false,,,,322916.2000002861,322916.09999990463,,322916,,322929.629,8,400,,,
sequence,flow.Sequence,4_48,2023-09-08T19:51:55.816Z,,0,,,3236.329999904614,completion,,,,,false,,,,322916.40000009537,322916.09999990463,319663.152,319679,319679.77,322929.629,8,400,,,
trial,html.Screen,4_49_0,2023-09-08T19:51:58.958Z,,0,1,,3128.970999904617,response,ISIC_9001948.JPG,10,ISIC_0028129.JPG,ISIC_0028129.JPG,false,0,keypress(z),500,326058.80000019073,326058.59999990463,322912.944,322916.40000009537,322929.629,326063.354,8,400,50,,ISIC_9001948.JPG
break,html.Screen,4_49_1,2023-09-08T19:52:08.947Z,,0,,,9998.978000000003,timeout,,,,,false,,,,336047.2000002861,336045.709,326046.117,326059,326063.354,336062.332,8,400,,,
break_continue,html.Screen,4_49_2,2023-09-08T19:52:11.620Z,,0,,,2646.8680002861074,response,,,,,false,continue,keypress(Space),,338721.09999990463,338709.2000002861,336045.709,336047.5,336062.332,338728.869,8,400,,,
sequence,flow.Sequence,4_49,2023-09-08T19:52:11.621Z,,0,,,15779.571000286087,completion,,,,,false,,,,338721.40000009537,338709.2000002861,322912.944,322916.40000009537,322929.629,338728.869,8,400,,,
trial,html.Screen,4_50_0,2023-09-08T19:52:15.004Z,,0,2,,3375.5310000953614,response,ISIC_0062161.JPG,10,ISIC_0033711.JPG,ISIC_0062161.JPG,false,1,keypress(m),500,342104.80000019073,342104.40000009537,338712.093,338721.5,338728.869,342128.736,8,400,1,,ISIC_0033711.JPG
break,html.Screen,4_50_1,2023-09-08T19:52:15.005Z,,0,,,NaN,,,,,,false,,,,342105.7000002861,342105.5,,342105,,342128.736,8,400,,,
break_continue,html.Screen,4_50_2,2023-09-08T19:52:15.005Z,,0,,,NaN,,,,,,false,,,,342106.2000002861,342106,,342105.90000009537,,342128.736,8,400,,,
sequence,flow.Sequence,4_50,2023-09-08T19:52:15.006Z,,0,,,3377.130999999994,completion,,,,,false,,,,342106.30000019073,342106,338712.093,338721.5,338728.869,342128.736,8,400,,,
trial,html.Screen,4_51_0,2023-09-08T19:52:18.540Z,,0,2,,3511.664000095392,response,ISIC_0010982.JPG,9,ISIC_0026204.JPG,ISIC_0026204.JPG,false,0,keypress(z),500,345640.7000002861,345640.40000009537,342095.341,342106.5,342128.736,345645.236,8,400,2,,ISIC_0010982.JPG
break,html.Screen,4_51_1,2023-09-08T19:52:18.541Z,,0,,,NaN,,,,,,false,,,,345641.40000009537,345641.30000019073,,345640.80000019073,,345645.236,8,400,,,
break_continue,html.Screen,4_51_2,2023-09-08T19:52:18.541Z,,0,,,NaN,,,,,,false,,,,345641.80000019073,345641.7000002861,,345641.59999990463,,345645.236,8,400,,,
sequence,flow.Sequence,4_51,2023-09-08T19:52:18.541Z,,0,,,3512.964000286127,completion,,,,,false,,,,345642,345641.7000002861,342095.341,342106.40000009537,342128.736,345645.236,8,400,,,
trial,html.Screen,4_52_0,2023-09-08T19:52:22.485Z,,0,2,,3939.2640000000247,response,ISIC_2717192.JPG,42,ISIC_0027152.JPG,ISIC_0027152.JPG,false,0,keypress(z),500,349585.30000019073,349584.5,345628.538,345642.09999990463,345645.236,349595.068,8,400,3,,ISIC_2717192.JPG
break,html.Screen,4_52_1,2023-09-08T19:52:22.486Z,,0,,,NaN,,,,,,false,,,,349586.30000019073,349586.09999990463,,349585.5,,349595.068,8,400,,,
break_continue,html.Screen,4_52_2,2023-09-08T19:52:22.486Z,,0,,,NaN,,,,,,false,,,,349586.59999990463,349586.5,,349586.40000009537,,349595.068,8,400,,,
sequence,flow.Sequence,4_52,2023-09-08T19:52:22.486Z,,0,,,3941.2640000000247,completion,,,,,false,,,,349586.80000019073,349586.5,345628.538,345642,345645.236,349595.068,8,400,,,
trial,html.Screen,4_53_0,2023-09-08T19:52:26.164Z,,0,2,,3669.4319999999716,response,ISIC_0033302.JPG,9,ISIC_0024701.JPG,ISIC_0024701.JPG,false,0,keypress(z),500,353264.80000019073,353264.5,349578.395,349586.90000009537,349595.068,353278.184,8,400,4,,ISIC_0033302.JPG
break,html.Screen,4_53_1,2023-09-08T19:52:26.165Z,,0,,,NaN,,,,,,false,,,,353265.59999990463,353265.40000009537,,353264.90000009537,,353278.184,8,400,,,
break_continue,html.Screen,4_53_2,2023-09-08T19:52:26.165Z,,0,,,NaN,,,,,,false,,,,353265.90000009537,353265.80000019073,,353265.7000002861,,353278.184,8,400,,,
sequence,flow.Sequence,4_53,2023-09-08T19:52:26.165Z,,0,,,3670.7320001907065,completion,,,,,false,,,,353266,353265.80000019073,349578.395,349586.90000009537,349595.068,353278.184,8,400,,,
trial,html.Screen,4_54_0,2023-09-08T19:52:30.092Z,,0,2,,3914.3159999999916,response,ISIC_8145260.JPG,10,ISIC_0006624.JPG,ISIC_8145260.JPG,false,1,keypress(m),500,357192.7000002861,357192.5,353261.55,353266.09999990463,353278.184,357194.671,8,400,5,,ISIC_0006624.JPG
break,html.Screen,4_54_1,2023-09-08T19:52:30.093Z,,0,,,NaN,,,,,,false,,,,357193.5,357193.30000019073,,357193,,357194.671,8,400,,,
break_continue,html.Screen,4_54_2,2023-09-08T19:52:30.093Z,,0,,,NaN,,,,,,false,,,,357193.80000019073,357193.7000002861,,357193.59999990463,,357194.671,8,400,,,
sequence,flow.Sequence,4_54,2023-09-08T19:52:30.093Z,,0,,,3915.516000286094,completion,,,,,false,,,,357193.90000009537,357193.7000002861,353261.55,353266.09999990463,353278.184,357194.671,8,400,,,
trial,html.Screen,4_55_0,2023-09-08T19:52:33.597Z,,0,2,,3501.829000000027,response,ISIC_0010313.JPG,10,ISIC_4782878.JPG,ISIC_4782878.JPG,false,0,keypress(z),500,360697.40000009537,360696.5,357177.984,357194.09999990463,357194.671,360711.2,8,400,6,,ISIC_0010313.JPG
break,html.Screen,4_55_1,2023-09-08T19:52:33.598Z,,0,,,NaN,,,,,,false,,,,360698.2000002861,360698,,360697.59999990463,,360711.2,8,400,,,
break_continue,html.Screen,4_55_2,2023-09-08T19:52:33.598Z,,0,,,NaN,,,,,,false,,,,360698.5,360698.40000009537,,360698.30000019073,,360711.2,8,400,,,
sequence,flow.Sequence,4_55,2023-09-08T19:52:33.598Z,,0,,,3503.7290000953944,completion,,,,,false,,,,360698.7000002861,360698.40000009537,357177.984,357194,357194.671,360711.2,8,400,,,
trial,html.Screen,4_56_0,2023-09-08T19:52:36.948Z,,0,2,,3337.700000095356,response,ISIC_0064014.JPG,9,ISIC_0011132.JPG,ISIC_0064014.JPG,false,1,keypress(m),500,364049.09999990463,364048.90000009537,360694.534,360698.80000019073,360711.2,364061.076,8,400,7,,ISIC_0011132.JPG
break,html.Screen,4_56_1,2023-09-08T19:52:36.949Z,,0,,,NaN,,,,,,false,,,,364049.90000009537,364049.7000002861,,364049.30000019073,,364061.076,8,400,,,
break_continue,html.Screen,4_56_2,2023-09-08T19:52:36.949Z,,0,,,NaN,,,,,,false,,,,364050.2000002861,364050.09999990463,,364050,,364061.076,8,400,,,
sequence,flow.Sequence,4_56,2023-09-08T19:52:36.950Z,,0,,,3338.899999904621,completion,,,,,false,,,,364050.40000009537,364050.09999990463,360694.534,360698.80000019073,360711.2,364061.076,8,400,,,
trial,html.Screen,4_57_0,2023-09-08T19:52:40.484Z,,0,2,,3523.5239999046316,response,ISIC_0033114.JPG,10,ISIC_1194944.JPG,ISIC_0033114.JPG,false,1,keypress(m),500,367584.80000019073,367584.59999990463,364044.349,364050.5,364061.076,367594.173,8,400,8,,ISIC_1194944.JPG
break,html.Screen,4_57_1,2023-09-08T19:52:40.485Z,,0,,,NaN,,,,,,false,,,,367585.90000009537,367585.7000002861,,367585,,367594.173,8,400,,,
break_continue,html.Screen,4_57_2,2023-09-08T19:52:40.486Z,,0,,,NaN,,,,,,false,,,,367586.2000002861,367586.09999990463,,367586.09999990463,,367594.173,8,400,,,
sequence,flow.Sequence,4_57,2023-09-08T19:52:40.486Z,,0,,,3525.0239999046316,completion,,,,,false,,,,367586.40000009537,367586.09999990463,364044.349,364050.40000009537,364061.076,367594.173,8,400,,,
trial,html.Screen,4_58_0,2023-09-08T19:52:44.620Z,,0,2,,4126.32699999999,response,ISIC_0033416.JPG,10,ISIC_0062389.JPG,ISIC_0033416.JPG,false,1,keypress(m),500,371720.80000019073,371720.5,367577.551,367586.40000009537,367594.173,371727.608,8,400,9,,ISIC_0062389.JPG
break,html.Screen,4_58_1,2023-09-08T19:52:44.621Z,,0,,,NaN,,,,,,false,,,,371721.5,371721.40000009537,,371720.90000009537,,371727.608,8,400,,,
break_continue,html.Screen,4_58_2,2023-09-08T19:52:44.621Z,,0,,,NaN,,,,,,false,,,,371721.80000019073,371721.80000019073,,371721.7000002861,,371727.608,8,400,,,
sequence,flow.Sequence,4_58,2023-09-08T19:52:44.621Z,,0,,,4127.627000190725,completion,,,,,false,,,,371722,371721.80000019073,367577.551,367586.40000009537,367594.173,371727.608,8,400,,,
trial,html.Screen,4_59_0,2023-09-08T19:52:48.452Z,,0,2,,3824.991999904625,response,ISIC_0024846.JPG,10,ISIC_0069105.JPG,ISIC_0024846.JPG,false,1,keypress(m),500,375552.80000019073,375552.59999990463,371710.645,371722.09999990463,371727.608,375560.595,8,400,10,,ISIC_0069105.JPG
break,html.Screen,4_59_1,2023-09-08T19:52:48.453Z,,0,,,NaN,,,,,,false,,,,375554.7000002861,375554.5,,375553.59999990463,,375560.595,8,400,,,
break_continue,html.Screen,4_59_2,2023-09-08T19:52:48.454Z,,0,,,NaN,,,,,,false,,,,375555.09999990463,375554.90000009537,,375554.90000009537,,375560.595,8,400,,,
sequence,flow.Sequence,4_59,2023-09-08T19:52:48.454Z,,0,,,3827.29200009536,completion,,,,,false,,,,375555.30000019073,375554.90000009537,371710.645,371722.09999990463,371727.608,375560.595,8,400,,,
trial,html.Screen,4_60_0,2023-09-08T19:52:53.260Z,,0,2,,4800.0049999046605,response,ISIC_0033662.JPG,8,ISIC_0002900.JPG,ISIC_0002900.JPG,false,0,keypress(z),500,380360.80000019073,380360.59999990463,375543.785,375555.30000019073,375560.595,380376.941,8,400,11,,ISIC_0033662.JPG
break,html.Screen,4_60_1,2023-09-08T19:52:53.260Z,,0,,,NaN,,,,,,false,,,,380361.7000002861,380361.5,,380361,,380376.941,8,400,,,
break_continue,html.Screen,4_60_2,2023-09-08T19:52:53.261Z,,0,,,NaN,,,,,,false,,,,380362,380361.90000009537,,380361.90000009537,,380376.941,8,400,,,
sequence,flow.Sequence,4_60,2023-09-08T19:52:53.261Z,,0,,,4801.305000095395,completion,,,,,false,,,,380362.2000002861,380361.90000009537,375543.785,375555.30000019073,375560.595,380376.941,8,400,,,
trial,html.Screen,4_61_0,2023-09-08T19:52:56.780Z,,0,2,,3503.5590000000084,response,ISIC_3296136.JPG,9,ISIC_6759173.JPG,ISIC_6759173.JPG,false,0,keypress(z),500,383880.7000002861,383880.5,380360.278,380362.30000019073,380376.941,383893.496,8,400,12,,ISIC_3296136.JPG
break,html.Screen,4_61_1,2023-09-08T19:52:56.780Z,,0,,,NaN,,,,,,false,,,,383881.59999990463,383881.30000019073,,383880.90000009537,,383893.496,8,400,,,
break_continue,html.Screen,4_61_2,2023-09-08T19:52:56.781Z,,0,,,NaN,,,,,,false,,,,383881.90000009537,383881.80000019073,,383881.7000002861,,383893.496,8,400,,,
sequence,flow.Sequence,4_61,2023-09-08T19:52:56.781Z,,0,,,3504.8590001907432,completion,,,,,false,,,,383882.09999990463,383881.80000019073,380360.278,380362.30000019073,380376.941,383893.496,8,400,,,
trial,html.Screen,4_62_0,2023-09-08T19:53:00.117Z,,0,2,,3323.8040001907502,response,ISIC_0025184.JPG,10,ISIC_1067390.JPG,ISIC_0025184.JPG,false,1,keypress(m),500,387218.59999990463,387217.30000019073,383876.807,383882.2000002861,383893.496,387226.639,8,400,13,,ISIC_1067390.JPG
break,html.Screen,4_62_1,2023-09-08T19:53:00.118Z,,0,,,NaN,,,,,,false,,,,387219.59999990463,387219.40000009537,,387218.80000019073,,387226.639,8,400,,,
break_continue,html.Screen,4_62_2,2023-09-08T19:53:00.119Z,,0,,,NaN,,,,,,false,,,,387220.7000002861,387219.90000009537,,387219.7000002861,,387226.639,8,400,,,
sequence,flow.Sequence,4_62,2023-09-08T19:53:00.120Z,,0,,,3326.404000095383,completion,,,,,false,,,,387220.80000019073,387219.90000009537,383876.807,383882.09999990463,383893.496,387226.639,8,400,,,
trial,html.Screen,4_63_0,2023-09-08T19:53:04.523Z,,0,2,,4397.360999999975,response,ISIC_0067333.JPG,7,ISIC_1777398.JPG,ISIC_0067333.JPG,false,1,keypress(m),500,391624.2000002861,391624,387209.856,387220.90000009537,387226.639,391626.397,8,400,14,,ISIC_1777398.JPG
break,html.Screen,4_63_1,2023-09-08T19:53:04.524Z,,0,,,NaN,,,,,,false,,,,391625.59999990463,391625.40000009537,,391624.40000009537,,391626.397,8,400,,,
break_continue,html.Screen,4_63_2,2023-09-08T19:53:04.525Z,,0,,,NaN,,,,,,false,,,,391625.90000009537,391625.7000002861,,391625.7000002861,,391626.397,8,400,,,
sequence,flow.Sequence,4_63,2023-09-08T19:53:04.525Z,,0,,,4399.061000286078,completion,,,,,false,,,,391626.09999990463,391625.7000002861,387209.856,387220.90000009537,387226.639,391626.397,8,400,,,
trial,html.Screen,4_64_0,2023-09-08T19:53:08.396Z,,0,2,,3870.103000000003,response,ISIC_0028534.JPG,9,ISIC_2226940.JPG,ISIC_2226940.JPG,false,0,keypress(z),500,395496.80000019073,395496.5,391609.764,391626.09999990463,391626.397,395509.6,8,400,15,,ISIC_0028534.JPG
break,html.Screen,4_64_1,2023-09-08T19:53:08.396Z,,0,,,NaN,,,,,,false,,,,395497.5,395497.40000009537,,395497,,395509.6,8,400,,,
break_continue,html.Screen,4_64_2,2023-09-08T19:53:08.397Z,,0,,,NaN,,,,,,false,,,,395497.80000019073,395497.7000002861,,395497.59999990463,,395509.6,8,400,,,
sequence,flow.Sequence,4_64,2023-09-08T19:53:08.397Z,,0,,,3871.303000286105,completion,,,,,false,,,,395498,395497.7000002861,391609.764,391626.09999990463,391626.397,395509.6,8,400,,,
trial,html.Screen,4_65_0,2023-09-08T19:53:12.388Z,,0,2,,3978.999999904656,response,ISIC_0059303.JPG,10,ISIC_5028203.JPG,ISIC_0059303.JPG,false,1,keypress(m),500,399488.80000019073,399488.59999990463,395492.871,395498.09999990463,395509.6,399492.722,8,400,16,,ISIC_5028203.JPG
break,html.Screen,4_65_1,2023-09-08T19:53:12.388Z,,0,,,NaN,,,,,,false,,,,399489.59999990463,399489.40000009537,,399489,,399492.722,8,400,,,
break_continue,html.Screen,4_65_2,2023-09-08T19:53:12.389Z,,0,,,NaN,,,,,,false,,,,399489.80000019073,399489.80000019073,,399489.7000002861,,399492.722,8,400,,,
sequence,flow.Sequence,4_65,2023-09-08T19:53:12.389Z,,0,,,3980.200000190758,completion,,,,,false,,,,399490,399489.80000019073,395492.871,395498,395509.6,399492.722,8,400,,,
trial,html.Screen,4_66_0,2023-09-08T19:53:16.716Z,,0,2,,4323.978000286093,response,ISIC_0032951.JPG,10,ISIC_0026247.JPG,ISIC_0032951.JPG,false,1,keypress(m),500,403816.90000009537,403816.7000002861,399475.993,399490.09999990463,399492.722,403825.836,8,400,17,,ISIC_0026247.JPG
break,html.Screen,4_66_1,2023-09-08T19:53:16.717Z,,0,,,NaN,,,,,,false,,,,403817.7000002861,403817.59999990463,,403817.09999990463,,403825.836,8,400,,,
break_continue,html.Screen,4_66_2,2023-09-08T19:53:16.717Z,,0,,,NaN,,,,,,false,,,,403818,403818,,403817.90000009537,,403825.836,8,400,,,
sequence,flow.Sequence,4_66,2023-09-08T19:53:16.717Z,,0,,,4325.277999999991,completion,,,,,false,,,,403818.2000002861,403818,399475.993,399490.09999990463,399492.722,403825.836,8,400,,,
trial,html.Screen,4_67_0,2023-09-08T19:53:20.628Z,,0,2,,3903.1639999999898,response,ISIC_9765024.JPG,10,ISIC_0030089.JPG,ISIC_0030089.JPG,false,0,keypress(z),500,407729.2000002861,407729,403809.102,403818.40000009537,403825.836,407742.446,8,400,18,,ISIC_9765024.JPG
break,html.Screen,4_67_1,2023-09-08T19:53:20.629Z,,0,,,NaN,,,,,,false,,,,407730.30000019073,407730.09999990463,,407729.40000009537,,407742.446,8,400,,,
break_continue,html.Screen,4_67_2,2023-09-08T19:53:20.629Z,,0,,,NaN,,,,,,false,,,,407730.59999990463,407730.5,,407730.40000009537,,407742.446,8,400,,,
sequence,flow.Sequence,4_67,2023-09-08T19:53:20.629Z,,0,,,3904.6639999999898,completion,,,,,false,,,,407730.7000002861,407730.5,403809.102,403818.30000019073,403825.836,407742.446,8,400,,,
trial,html.Screen,4_68_0,2023-09-08T19:53:25.206Z,,0,2,,4563.254000286106,response,ISIC_0071826.JPG,10,ISIC_4411889.JPG,ISIC_4411889.JPG,false,0,keypress(z),500,412307.09999990463,412305.7000002861,407725.664,407730.90000009537,407742.446,412325.433,8,400,19,,ISIC_0071826.JPG
break,html.Screen,4_68_1,2023-09-08T19:53:25.210Z,,0,,,NaN,,,,,,false,,,,412310.80000019073,412310.59999990463,,412308.5,,412325.433,8,400,,,
break_continue,html.Screen,4_68_2,2023-09-08T19:53:25.210Z,,0,,,NaN,,,,,,false,,,,412311.2000002861,412311.09999990463,,412311,,412325.433,8,400,,,
sequence,flow.Sequence,4_68,2023-09-08T19:53:25.210Z,,0,,,4568.653999904636,completion,,,,,false,,,,412311.30000019073,412311.09999990463,407725.664,407730.90000009537,407742.446,412325.433,8,400,,,
trial,html.Screen,4_69_0,2023-09-08T19:53:28.540Z,,0,2,,3315.6669999046135,response,ISIC_0029672.JPG,5,ISIC_4187485.JPG,ISIC_4187485.JPG,false,0,keypress(z),500,415641.2000002861,415641.09999990463,412308.823,412311.5,412325.433,415675.296,8,400,20,,ISIC_0029672.JPG
break,html.Screen,4_69_1,2023-09-08T19:53:28.541Z,,0,,,NaN,,,,,,false,,,,415642.30000019073,415642.09999990463,,415641.40000009537,,415675.296,8,400,,,
break_continue,html.Screen,4_69_2,2023-09-08T19:53:28.541Z,,0,,,NaN,,,,,,false,,,,415642.59999990463,415642.59999990463,,415642.5,,415675.296,8,400,,,
sequence,flow.Sequence,4_69,2023-09-08T19:53:28.542Z,,0,,,3317.1669999046135,completion,,,,,false,,,,415642.80000019073,415642.59999990463,412308.823,412311.40000009537,412325.433,415675.296,8,400,,,
trial,html.Screen,4_70_0,2023-09-08T19:53:32.380Z,,0,2,,3805.704000000027,response,ISIC_6532137.JPG,10,ISIC_0011491.JPG,ISIC_0011491.JPG,false,0,keypress(z),500,419481.30000019073,419481,415664.904,415643,415675.296,419491.751,8,400,21,,ISIC_6532137.JPG
break,html.Screen,4_70_1,2023-09-08T19:53:32.381Z,,0,,,NaN,,,,,,false,,,,419482,419481.80000019073,,419481.40000009537,,419491.751,8,400,,,
break_continue,html.Screen,4_70_2,2023-09-08T19:53:32.381Z,,0,,,NaN,,,,,,false,,,,419482.30000019073,419482.2000002861,,419482.2000002861,,419491.751,8,400,,,
sequence,flow.Sequence,4_70,2023-09-08T19:53:32.381Z,,0,,,3806.9040002861293,completion,,,,,false,,,,419482.40000009537,419482.2000002861,415664.904,415642.80000019073,415675.296,419491.751,8,400,,,
trial,html.Screen,4_71_0,2023-09-08T19:53:36.476Z,,0,2,,4085.2490000000107,response,ISIC_0533122.JPG,10,ISIC_0032537.JPG,ISIC_0032537.JPG,false,0,keypress(z),500,423577.2000002861,423577,419475.119,419482.59999990463,419491.751,423591.816,8,400,22,,ISIC_0533122.JPG
break,html.Screen,4_71_1,2023-09-08T19:53:36.477Z,,0,,,NaN,,,,,,false,,,,423578.09999990463,423577.90000009537,,423577.40000009537,,423591.816,8,400,,,
break_continue,html.Screen,4_71_2,2023-09-08T19:53:36.477Z,,0,,,NaN,,,,,,false,,,,423578.40000009537,423578.30000019073,,423578.2000002861,,423591.816,8,400,,,
sequence,flow.Sequence,4_71,2023-09-08T19:53:36.477Z,,0,,,4086.5490001907456,completion,,,,,false,,,,423578.5,423578.30000019073,419475.119,419482.5,419491.751,423591.816,8,400,,,
trial,html.Screen,4_72_0,2023-09-08T19:53:39.852Z,,0,2,,3361.1840000000084,response,ISIC_4348579.JPG,10,ISIC_9014036.JPG,ISIC_9014036.JPG,false,0,keypress(z),500,426953.30000019073,426953,423574.896,423578.7000002861,423591.816,426958.446,8,400,23,,ISIC_4348579.JPG
break,html.Screen,4_72_1,2023-09-08T19:53:39.853Z,,0,,,NaN,,,,,,false,,,,426954.2000002861,426954,,426953.5,,426958.446,8,400,,,
break_continue,html.Screen,4_72_2,2023-09-08T19:53:39.853Z,,0,,,NaN,,,,,,false,,,,426954.5,426954.40000009537,,426954.30000019073,,426958.446,8,400,,,
sequence,flow.Sequence,4_72,2023-09-08T19:53:39.853Z,,0,,,3362.584000095376,completion,,,,,false,,,,426954.7000002861,426954.40000009537,423574.896,423578.7000002861,423591.816,426958.446,8,400,,,
trial,html.Screen,4_73_0,2023-09-08T19:53:43.052Z,,0,2,,3194.6539999046363,response,ISIC_0026344.JPG,18,ISIC_2714907.JPG,ISIC_2714907.JPG,false,0,keypress(z),500,430153.30000019073,430153.09999990463,426941.404,426954.80000019073,426958.446,430157.953,8,400,24,,ISIC_0026344.JPG
break,html.Screen,4_73_1,2023-09-08T19:53:43.053Z,,0,,,NaN,,,,,,false,,,,430154.09999990463,430153.90000009537,,430153.40000009537,,430157.953,8,400,,,
break_continue,html.Screen,4_73_2,2023-09-08T19:53:43.053Z,,0,,,NaN,,,,,,false,,,,430154.40000009537,430154.30000019073,,430154.2000002861,,430157.953,8,400,,,
sequence,flow.Sequence,4_73,2023-09-08T19:53:43.053Z,,0,,,3195.8540001907386,completion,,,,,false,,,,430154.5,430154.30000019073,426941.404,426954.7000002861,426958.446,430157.953,8,400,,,
trial,html.Screen,4_74_0,2023-09-08T19:53:46.756Z,,0,2,,3699.0470000000205,response,ISIC_0014527.JPG,10,ISIC_5415749.JPG,ISIC_5415749.JPG,false,0,keypress(z),500,433857.2000002861,433857,430141.269,430154.7000002861,430157.953,433874.469,8,400,25,,ISIC_0014527.JPG
break,html.Screen,4_74_1,2023-09-08T19:53:46.757Z,,0,,,NaN,,,,,,false,,,,433858,433857.80000019073,,433857.40000009537,,433874.469,8,400,,,
break_continue,html.Screen,4_74_2,2023-09-08T19:53:46.757Z,,0,,,NaN,,,,,,false,,,,433858.40000009537,433858.40000009537,,433858.2000002861,,433874.469,8,400,,,
sequence,flow.Sequence,4_74,2023-09-08T19:53:46.757Z,,0,,,3700.447000095388,completion,,,,,false,,,,433858.59999990463,433858.40000009537,430141.269,430154.7000002861,430157.953,433874.469,8,400,,,
trial,html.Screen,4_75_0,2023-09-08T19:53:49.965Z,,0,2,,3190.63099990465,response,ISIC_0014809.JPG,10,ISIC_6913272.JPG,ISIC_0014809.JPG,false,1,keypress(m),500,437065.30000019073,437065.09999990463,433857.729,433858.80000019073,433874.469,437074.348,8,400,26,,ISIC_6913272.JPG
break,html.Screen,4_75_1,2023-09-08T19:53:49.966Z,,0,,,NaN,,,,,,false,,,,437066.30000019073,437066,,437065.5,,437074.348,8,400,,,
break_continue,html.Screen,4_75_2,2023-09-08T19:53:49.966Z,,0,,,NaN,,,,,,false,,,,437066.59999990463,437066.40000009537,,437066.40000009537,,437074.348,8,400,,,
sequence,flow.Sequence,4_75,2023-09-08T19:53:49.966Z,,0,,,3191.9310000953847,completion,,,,,false,,,,437066.7000002861,437066.40000009537,433857.729,433858.59999990463,433874.469,437074.348,8,400,,,
trial,html.Screen,4_76_0,2023-09-08T19:53:53.013Z,,0,2,,3038.652000000002,response,ISIC_0010822.JPG,10,ISIC_9538004.JPG,ISIC_0010822.JPG,false,1,keypress(m),500,440113.30000019073,440113,437057.644,437066.80000019073,437074.348,440141.629,8,400,27,,ISIC_9538004.JPG
break,html.Screen,4_76_1,2023-09-08T19:53:53.013Z,,0,,,NaN,,,,,,false,,,,440113.80000019073,440113.59999990463,,440113.40000009537,,440141.629,8,400,,,
break_continue,html.Screen,4_76_2,2023-09-08T19:53:53.013Z,,0,,,NaN,,,,,,false,,,,440114.09999990463,440114,,440113.90000009537,,440141.629,8,400,,,
sequence,flow.Sequence,4_76,2023-09-08T19:53:53.014Z,,0,,,3039.652000000002,completion,,,,,false,,,,440114.30000019073,440114,437057.644,437066.80000019073,437074.348,440141.629,8,400,,,
trial,html.Screen,4_77_0,2023-09-08T19:53:56.165Z,,0,2,,3123.3709999999846,response,ISIC_0558485.JPG,10,ISIC_1120654.JPG,ISIC_1120654.JPG,false,0,keypress(z),500,443265.2000002861,443265,440124.186,440114.30000019073,440141.629,443274.011,8,400,28,,ISIC_0558485.JPG
break,html.Screen,4_77_1,2023-09-08T19:53:56.166Z,,0,,,NaN,,,,,,false,,,,443266.2000002861,443266,,443265.40000009537,,443274.011,8,400,,,
break_continue,html.Screen,4_77_2,2023-09-08T19:53:56.166Z,,0,,,NaN,,,,,,false,,,,443266.5,443266.40000009537,,443266.30000019073,,443274.011,8,400,,,
sequence,flow.Sequence,4_77,2023-09-08T19:53:56.166Z,,0,,,3124.771000095352,completion,,,,,false,,,,443266.7000002861,443266.40000009537,440124.186,440114.30000019073,440141.629,443274.011,8,400,,,
trial,html.Screen,4_78_0,2023-09-08T19:54:00.085Z,,0,2,,3911.088999904634,response,ISIC_0012758.JPG,10,ISIC_0034164.JPG,ISIC_0034164.JPG,false,0,keypress(z),500,447185.7000002861,447185.09999990463,443257.295,443266.80000019073,443274.011,447190.525,8,400,29,,ISIC_0012758.JPG
break,html.Screen,4_78_1,2023-09-08T19:54:00.086Z,,0,,,NaN,,,,,,false,,,,447186.7000002861,447186.5,,447185.90000009537,,447190.525,8,400,,,
break_continue,html.Screen,4_78_2,2023-09-08T19:54:00.086Z,,0,,,NaN,,,,,,false,,,,447187.09999990463,447186.90000009537,,447186.80000019073,,447190.525,8,400,,,
sequence,flow.Sequence,4_78,2023-09-08T19:54:00.087Z,,0,,,3912.889000095369,completion,,,,,false,,,,447187.40000009537,447186.90000009537,443257.295,443266.80000019073,443274.011,447190.525,8,400,,,
trial,html.Screen,4_79_0,2023-09-08T19:54:04.229Z,,0,2,,4138.775000190712,response,ISIC_1975042.JPG,9,ISIC_0034068.JPG,ISIC_0034068.JPG,false,0,keypress(z),500,451329.59999990463,451329.30000019073,447173.842,447187.7000002861,447190.525,451341.781,8,400,30,,ISIC_1975042.JPG
break,html.Screen,4_79_1,2023-09-08T19:54:04.230Z,,0,,,NaN,,,,,,false,,,,451330.59999990463,451330.40000009537,,451329.7000002861,,451341.781,8,400,,,
break_continue,html.Screen,4_79_2,2023-09-08T19:54:04.230Z,,0,,,NaN,,,,,,false,,,,451330.90000009537,451330.80000019073,,451330.7000002861,,451341.781,8,400,,,
sequence,flow.Sequence,4_79,2023-09-08T19:54:04.230Z,,0,,,4140.275000190712,completion,,,,,false,,,,451331.09999990463,451330.80000019073,447173.842,447187.59999990463,447190.525,451341.781,8,400,,,
trial,html.Screen,4_80_0,2023-09-08T19:54:07.557Z,,0,2,,3315.3189999046153,response,ISIC_6131393.JPG,9,ISIC_0046361.JPG,ISIC_0046361.JPG,false,0,keypress(z),500,454657.30000019073,454657.09999990463,451323.733,451331.2000002861,451341.781,454673.478,8,400,31,,ISIC_6131393.JPG
break,html.Screen,4_80_1,2023-09-08T19:54:07.558Z,,0,,,NaN,,,,,,false,,,,454658.09999990463,454658,,454657.5,,454673.478,8,400,,,
break_continue,html.Screen,4_80_2,2023-09-08T19:54:07.558Z,,0,,,NaN,,,,,,false,,,,454658.5,454658.30000019073,,454658.2000002861,,454673.478,8,400,,,
sequence,flow.Sequence,4_80,2023-09-08T19:54:07.558Z,,0,,,3316.5190001907176,completion,,,,,false,,,,454658.59999990463,454658.30000019073,451323.733,451331.09999990463,451341.781,454673.478,8,400,,,
trial,html.Screen,4_81_0,2023-09-08T19:54:10.365Z,,0,2,,2791.62199990463,response,ISIC_6558697.JPG,9,ISIC_0058768.JPG,ISIC_0058768.JPG,false,0,keypress(z),500,457465.30000019073,457465.09999990463,454656.852,454658.80000019073,454673.478,457473.323,8,400,32,,ISIC_6558697.JPG
break,html.Screen,4_81_1,2023-09-08T19:54:10.366Z,,0,,,NaN,,,,,,false,,,,457466.30000019073,457466.09999990463,,457465.59999990463,,457473.323,8,400,,,
break_continue,html.Screen,4_81_2,2023-09-08T19:54:10.366Z,,0,,,NaN,,,,,,false,,,,457466.59999990463,457466.5,,457466.40000009537,,457473.323,8,400,,,
sequence,flow.Sequence,4_81,2023-09-08T19:54:10.366Z,,0,,,2793.021999999997,completion,,,,,false,,,,457466.80000019073,457466.5,454656.852,454658.7000002861,454673.478,457473.323,8,400,,,
trial,html.Screen,4_82_0,2023-09-08T19:54:14.485Z,,0,2,,4111.776999904658,response,ISIC_8806357.JPG,9,ISIC_1753877.JPG,ISIC_1753877.JPG,false,0,keypress(z),500,461585.40000009537,461585.09999990463,457456.651,457466.80000019073,457473.323,461589.844,8,400,33,,ISIC_8806357.JPG
break,html.Screen,4_82_1,2023-09-08T19:54:14.486Z,,0,,,NaN,,,,,,false,,,,461586.40000009537,461586.2000002861,,461585.5,,461589.844,8,400,,,
break_continue,html.Screen,4_82_2,2023-09-08T19:54:14.486Z,,0,,,NaN,,,,,,false,,,,461586.7000002861,461586.59999990463,,461586.5,,461589.844,8,400,,,
sequence,flow.Sequence,4_82,2023-09-08T19:54:14.486Z,,0,,,4113.276999904658,completion,,,,,false,,,,461586.90000009537,461586.59999990463,457456.651,457466.80000019073,457473.323,461589.844,8,400,,,
trial,html.Screen,4_83_0,2023-09-08T19:54:18.869Z,,0,2,,4379.25599990465,response,ISIC_2457859.JPG,10,ISIC_0011209.JPG,ISIC_2457859.JPG,false,1,keypress(m),500,465969.30000019073,465969.09999990463,461573.134,461587,461589.844,465972.95,8,400,34,,ISIC_0011209.JPG
break,html.Screen,4_83_1,2023-09-08T19:54:18.870Z,,0,,,NaN,,,,,,false,,,,465970.90000009537,465970.7000002861,,465969.5,,465972.95,8,400,,,
break_continue,html.Screen,4_83_2,2023-09-08T19:54:18.871Z,,0,,,NaN,,,,,,false,,,,465971.2000002861,465971.2000002861,,465971,,465972.95,8,400,,,
sequence,flow.Sequence,4_83,2023-09-08T19:54:18.871Z,,0,,,4381.3560002861195,completion,,,,,false,,,,465971.40000009537,465971.2000002861,461573.134,461587,461589.844,465972.95,8,400,,,
trial,html.Screen,4_84_0,2023-09-08T19:54:23.901Z,,0,2,,5028.149999904621,response,ISIC_3060248.JPG,9,ISIC_4451735.JPG,ISIC_3060248.JPG,false,1,keypress(m),500,471001.40000009537,471001.09999990463,465956.284,465971.59999990463,465972.95,471006.045,8,400,35,,ISIC_4451735.JPG
break,html.Screen,4_84_1,2023-09-08T19:54:23.901Z,,0,,,NaN,,,,,,false,,,,471002.09999990463,471001.90000009537,,471001.5,,471006.045,8,400,,,
break_continue,html.Screen,4_84_2,2023-09-08T19:54:23.902Z,,0,,,NaN,,,,,,false,,,,471002.40000009537,471002.30000019073,,471002.2000002861,,471006.045,8,400,,,
sequence,flow.Sequence,4_84,2023-09-08T19:54:23.902Z,,0,,,5029.350000190723,completion,,,,,false,,,,471002.59999990463,471002.30000019073,465956.284,465971.5,465972.95,471006.045,8,400,,,
trial,html.Screen,4_85_0,2023-09-08T19:54:28.725Z,,0,2,,4819.054999904649,response,ISIC_8812621.JPG,10,ISIC_5213829.JPG,ISIC_5213829.JPG,false,0,keypress(z),500,475825.2000002861,475825.09999990463,470989.394,471002.7000002861,471006.045,475855.836,8,400,36,,ISIC_8812621.JPG
break,html.Screen,4_85_1,2023-09-08T19:54:28.725Z,,0,,,NaN,,,,,,false,,,,475825.90000009537,475825.7000002861,,475825.40000009537,,475855.836,8,400,,,
break_continue,html.Screen,4_85_2,2023-09-08T19:54:28.726Z,,0,,,NaN,,,,,,false,,,,475826.09999990463,475826.09999990463,,475826,,475855.836,8,400,,,
sequence,flow.Sequence,4_85,2023-09-08T19:54:28.726Z,,0,,,4820.054999904649,completion,,,,,false,,,,475826.30000019073,475826.09999990463,470989.394,471002.59999990463,471006.045,475855.836,8,400,,,
trial,html.Screen,4_86_0,2023-09-08T19:54:33.733Z,,0,2,,4977.16399999999,response,ISIC_5768032.JPG,10,ISIC_8036175.JPG,ISIC_8036175.JPG,false,0,keypress(z),500,480833.2000002861,480833,475839.19,475826.5,475855.836,480840.311,8,400,37,,ISIC_5768032.JPG
break,html.Screen,4_86_1,2023-09-08T19:54:33.733Z,,0,,,NaN,,,,,,false,,,,480834,480833.80000019073,,480833.40000009537,,480840.311,8,400,,,
break_continue,html.Screen,4_86_2,2023-09-08T19:54:33.734Z,,0,,,NaN,,,,,,false,,,,480834.40000009537,480834.30000019073,,480834.2000002861,,480840.311,8,400,,,
sequence,flow.Sequence,4_86,2023-09-08T19:54:33.734Z,,0,,,4978.464000190725,completion,,,,,false,,,,480834.5,480834.30000019073,475839.19,475826.40000009537,475855.836,480840.311,8,400,,,
trial,html.Screen,4_87_0,2023-09-08T19:54:38.893Z,,0,2,,5153.0890000953805,response,ISIC_1149693.JPG,10,ISIC_0056425.JPG,ISIC_1149693.JPG,false,1,keypress(m),500,485993.7000002861,485993.40000009537,480822.245,480834.59999990463,480840.311,486005.38,8,400,38,,ISIC_0056425.JPG
break,html.Screen,4_87_1,2023-09-08T19:54:38.894Z,,0,,,NaN,,,,,,false,,,,485994.59999990463,485994.40000009537,,485993.80000019073,,486005.38,8,400,,,
break_continue,html.Screen,4_87_2,2023-09-08T19:54:38.894Z,,0,,,NaN,,,,,,false,,,,485994.90000009537,485994.80000019073,,485994.59999990463,,486005.38,8,400,,,
sequence,flow.Sequence,4_87,2023-09-08T19:54:38.894Z,,0,,,5154.489000190748,completion,,,,,false,,,,485995,485994.80000019073,480822.245,480834.59999990463,480840.311,486005.38,8,400,,,
trial,html.Screen,4_88_0,2023-09-08T19:54:42.725Z,,0,2,,3820.1199999999953,response,ISIC_0071132.JPG,10,ISIC_0059248.JPG,ISIC_0059248.JPG,false,0,keypress(z),500,489825.7000002861,489825.5,485988.669,485995.2000002861,486005.38,489838.545,8,400,39,,ISIC_0071132.JPG
break,html.Screen,4_88_1,2023-09-08T19:54:42.726Z,,0,,,NaN,,,,,,false,,,,489826.5,489826.2000002861,,489825.80000019073,,489838.545,8,400,,,
break_continue,html.Screen,4_88_2,2023-09-08T19:54:42.726Z,,0,,,NaN,,,,,,false,,,,489826.80000019073,489826.7000002861,,489826.59999990463,,489838.545,8,400,,,
sequence,flow.Sequence,4_88,2023-09-08T19:54:42.726Z,,0,,,3821.3200002860976,completion,,,,,false,,,,489827,489826.7000002861,485988.669,485995.09999990463,486005.38,489838.545,8,400,,,
trial,html.Screen,4_89_0,2023-09-08T19:54:47.819Z,,0,2,,5083.155000286119,response,ISIC_0033561.JPG,10,ISIC_7620514.JPG,ISIC_7620514.JPG,false,0,keypress(z),500,494922,494921.7000002861,489821.853,489827,489838.545,494938.247,8,400,40,,ISIC_0033561.JPG
break,html.Screen,4_89_1,2023-09-08T19:54:47.820Z,,0,,,NaN,,,,,,false,,,,494922.7000002861,494922.59999990463,,494922.09999990463,,494938.247,8,400,,,
break_continue,html.Screen,4_89_2,2023-09-08T19:54:47.820Z,,0,,,NaN,,,,,,false,,,,494923.09999990463,494923,,494922.90000009537,,494938.247,8,400,,,
sequence,flow.Sequence,4_89,2023-09-08T19:54:47.820Z,,0,,,5084.455000000016,completion,,,,,false,,,,494923.2000002861,494923,489821.853,489827,489838.545,494938.247,8,400,,,
trial,html.Screen,4_90_0,2023-09-08T19:54:51.235Z,,0,2,,3399.253000000026,response,ISIC_0072773.JPG,9,ISIC_9232615.JPG,ISIC_0072773.JPG,false,1,keypress(m),500,498337.59999990463,498337.5,494921.612,494923.40000009537,494938.247,498354.836,8,400,41,,ISIC_9232615.JPG
break,html.Screen,4_90_1,2023-09-08T19:54:51.236Z,,0,,,NaN,,,,,,false,,,,498338.7000002861,498338.5,,498337.80000019073,,498354.836,8,400,,,
break_continue,html.Screen,4_90_2,2023-09-08T19:54:51.236Z,,0,,,NaN,,,,,,false,,,,498338.90000009537,498338.90000009537,,498338.80000019073,,498354.836,8,400,,,
sequence,flow.Sequence,4_90,2023-09-08T19:54:51.236Z,,0,,,3400.6530000953935,completion,,,,,false,,,,498339.09999990463,498338.90000009537,494921.612,494923.30000019073,494938.247,498354.836,8,400,,,
trial,html.Screen,4_91_0,2023-09-08T19:54:55.315Z,,0,2,,4062.6639999999898,response,ISIC_0010440.JPG,9,ISIC_0031543.JPG,ISIC_0031543.JPG,false,0,keypress(z),500,502417.80000019073,502417.5,498338.095,498339.2000002861,498354.836,502421.259,8,400,42,,ISIC_0010440.JPG
break,html.Screen,4_91_1,2023-09-08T19:54:55.315Z,,0,,,NaN,,,,,,false,,,,502418.5,502418.30000019073,,502417.90000009537,,502421.259,8,400,,,
break_continue,html.Screen,4_91_2,2023-09-08T19:54:55.316Z,,0,,,NaN,,,,,,false,,,,502418.80000019073,502418.7000002861,,502418.59999990463,,502421.259,8,400,,,
sequence,flow.Sequence,4_91,2023-09-08T19:54:55.316Z,,0,,,4063.864000286092,completion,,,,,false,,,,502418.90000009537,502418.7000002861,498338.095,498339.09999990463,498354.836,502421.259,8,400,,,
trial,html.Screen,4_92_0,2023-09-08T19:54:58.723Z,,0,2,,3404.1410000953474,response,ISIC_0651353.JPG,10,ISIC_0000162.JPG,ISIC_0000162.JPG,false,0,keypress(z),500,505825.59999990463,505825.40000009537,502404.585,502419.09999990463,502421.259,505837.758,8,400,43,,ISIC_0651353.JPG
break,html.Screen,4_92_1,2023-09-08T19:54:58.723Z,,0,,,NaN,,,,,,false,,,,505826.5,505826.30000019073,,505825.80000019073,,505837.758,8,400,,,
break_continue,html.Screen,4_92_2,2023-09-08T19:54:58.724Z,,0,,,NaN,,,,,,false,,,,505826.7000002861,505826.59999990463,,505826.59999990463,,505837.758,8,400,,,
sequence,flow.Sequence,4_92,2023-09-08T19:54:58.724Z,,0,,,3405.3409999046125,completion,,,,,false,,,,505826.90000009537,505826.59999990463,502404.585,502419,502421.259,505837.758,8,400,,,
trial,html.Screen,4_93_0,2023-09-08T19:55:02.216Z,,0,2,,3481.2420000000275,response,ISIC_0394140.JPG,10,ISIC_0000129.JPG,ISIC_0394140.JPG,false,1,keypress(m),500,509319.30000019073,509319,505821.048,505826.90000009537,505837.758,509320.919,8,400,44,,ISIC_0000129.JPG
break,html.Screen,4_93_1,2023-09-08T19:55:02.217Z,,0,,,NaN,,,,,,false,,,,509320.5,509320.30000019073,,509319.5,,509320.919,8,400,,,
break_continue,html.Screen,4_93_2,2023-09-08T19:55:02.218Z,,0,,,NaN,,,,,,false,,,,509321.09999990463,509320.80000019073,,509320.59999990463,,509320.919,8,400,,,
sequence,flow.Sequence,4_93,2023-09-08T19:55:02.219Z,,0,,,3483.0420001907623,completion,,,,,false,,,,509322.30000019073,509320.80000019073,505821.048,505826.90000009537,505837.758,509320.919,8,400,,,
trial,html.Screen,4_94_0,2023-09-08T19:55:06.779Z,,0,2,,4560.680999904638,response,ISIC_0005006.JPG,10,ISIC_3181394.JPG,ISIC_3181394.JPG,false,0,keypress(z),500,513881.90000009537,513881.59999990463,509304.236,509322.5,509320.919,513887.383,8,400,45,,ISIC_0005006.JPG
break,html.Screen,4_94_1,2023-09-08T19:55:06.780Z,,0,,,NaN,,,,,,false,,,,513882.59999990463,513882.5,,513882,,513887.383,8,400,,,
break_continue,html.Screen,4_94_2,2023-09-08T19:55:06.780Z,,0,,,NaN,,,,,,false,,,,513883,513882.90000009537,,513882.80000019073,,513887.383,8,400,,,
sequence,flow.Sequence,4_94,2023-09-08T19:55:06.780Z,,0,,,4561.981000095373,completion,,,,,false,,,,513883.2000002861,513882.90000009537,509304.236,509322.40000009537,509320.919,513887.383,8,400,,,
trial,html.Screen,4_95_0,2023-09-08T19:55:10.371Z,,0,2,,3586.3170002861298,response,ISIC_5438156.JPG,10,ISIC_1223849.JPG,ISIC_1223849.JPG,false,0,keypress(z),500,517474,517473.7000002861,513870.749,513883.2000002861,513887.383,517487.222,8,400,46,,ISIC_5438156.JPG
break,html.Screen,4_95_1,2023-09-08T19:55:10.372Z,,0,,,NaN,,,,,,false,,,,517474.90000009537,517474.80000019073,,517474.09999990463,,517487.222,8,400,,,
break_continue,html.Screen,4_95_2,2023-09-08T19:55:10.372Z,,0,,,NaN,,,,,,false,,,,517475.30000019073,517475.09999990463,,517475.09999990463,,517487.222,8,400,,,
sequence,flow.Sequence,4_95,2023-09-08T19:55:10.372Z,,0,,,3587.71699990466,completion,,,,,false,,,,517475.30000019073,517475.09999990463,513870.749,513883.2000002861,513887.383,517487.222,8,400,,,
trial,html.Screen,4_96_0,2023-09-08T19:55:14.059Z,,0,2,,3674.3779999046237,response,ISIC_0030194.JPG,9,ISIC_0010061.JPG,ISIC_0010061.JPG,false,0,keypress(z),500,521161.80000019073,521161.59999990463,517470.55,517475.5,517487.222,521170.342,8,400,47,,ISIC_0030194.JPG
break,html.Screen,4_96_1,2023-09-08T19:55:14.060Z,,0,,,NaN,,,,,,false,,,,521162.80000019073,521162.59999990463,,521162,,521170.342,8,400,,,
break_continue,html.Screen,4_96_2,2023-09-08T19:55:14.060Z,,0,,,NaN,,,,,,false,,,,521163.09999990463,521163,,521162.90000009537,,521170.342,8,400,,,
sequence,flow.Sequence,4_96,2023-09-08T19:55:14.060Z,,0,,,3675.777999999991,completion,,,,,false,,,,521163.30000019073,521163,517470.55,517475.5,517487.222,521170.342,8,400,,,
trial,html.Screen,4_97_0,2023-09-08T19:55:18.179Z,,0,2,,4111.257999904628,response,ISIC_0000142.JPG,12,ISIC_0024757.JPG,ISIC_0024757.JPG,false,0,keypress(z),500,525281.8000001907,525281.5999999046,521153.711,521163.40000009537,521170.342,525286.851,8,400,48,,ISIC_0000142.JPG
break,html.Screen,4_97_1,2023-09-08T19:55:18.180Z,,0,,,NaN,,,,,,false,,,,525282.7000002861,525282.4000000954,,525282,,525286.851,8,400,,,
break_continue,html.Screen,4_97_2,2023-09-08T19:55:18.180Z,,0,,,NaN,,,,,,false,,,,525283,525282.8000001907,,525282.7000002861,,525286.851,8,400,,,
sequence,flow.Sequence,4_97,2023-09-08T19:55:18.180Z,,0,,,4112.458000190731,completion,,,,,false,,,,525283.0999999046,525282.8000001907,521153.711,521163.40000009537,521170.342,525286.851,8,400,,,
trial,html.Screen,4_98_0,2023-09-08T19:55:21.475Z,,0,2,,3290.9490001907106,response,ISIC_0058877.JPG,15,ISIC_5092834.JPG,ISIC_0058877.JPG,false,1,keypress(m),500,528578,528577.8000001907,525270.207,525283.2000002861,525286.851,528586.685,8,400,49,,ISIC_5092834.JPG
break,html.Screen,4_98_1,2023-09-08T19:55:21.476Z,,0,,,NaN,,,,,,false,,,,528579,528578.8000001907,,528578.2000002861,,528586.685,8,400,,,
break_continue,html.Screen,4_98_2,2023-09-08T19:55:21.476Z,,0,,,NaN,,,,,,false,,,,528579.2000002861,528579.0999999046,,528579.0999999046,,528586.685,8,400,,,
sequence,flow.Sequence,4_98,2023-09-08T19:55:21.476Z,,0,,,3292.2489999046084,completion,,,,,false,,,,528579.4000000954,528579.0999999046,525270.207,525283.2000002861,525286.851,528586.685,8,400,,,
trial,html.Screen,4_99_0,2023-09-08T19:55:25.563Z,,0,2,,4079.314999999944,response,ISIC_2625894.JPG,9,ISIC_0028230.JPG,ISIC_0028230.JPG,false,0,keypress(z),500,532666.2000002861,532666,528570.016,528579.5999999046,528586.685,532670.135,8,400,50,,ISIC_2625894.JPG
break,html.Screen,4_99_1,2023-09-08T19:55:35.551Z,,0,,,9999.228999999934,timeout,,,,,false,,,,542653.7000002861,542652.792,532653.166,532666.3000001907,532670.135,542669.364,8,400,,,
break_continue,html.Screen,4_99_2,2023-09-08T19:55:38.710Z,,0,,,3120.5360000954242,response,,,,,false,continue,keypress(Space),,545813.5,545789.9000000954,542652.792,542653.8000001907,542669.364,545819.211,8,400,,,
sequence,flow.Sequence,4_99,2023-09-08T19:55:38.711Z,,0,,,17203.21500009531,completion,,,,,false,,,,545813.7000002861,545789.9000000954,528570.016,528579.5,528586.685,545819.211,8,400,,,
trial,html.Screen,4_100_0,2023-09-08T19:55:44.088Z,,0,3,,5371.888999904622,response,ISIC_0030898.JPG,12,ISIC_8297563.JPG,ISIC_8297563.JPG,false,0,keypress(z),500,551191.4000000954,551191.0999999046,545802.392,545813.8000001907,545819.211,551202.306,8,400,1,,ISIC_0030898.JPG
break,html.Screen,4_100_1,2023-09-08T19:55:44.089Z,,0,,,NaN,,,,,,false,,,,551192.4000000954,551192.2000002861,,551191.5,,551202.306,8,400,,,
break_continue,html.Screen,4_100_2,2023-09-08T19:55:44.090Z,,0,,,NaN,,,,,,false,,,,551192.8000001907,551192.5999999046,,551192.5,,551202.306,8,400,,,
sequence,flow.Sequence,4_100,2023-09-08T19:55:44.090Z,,0,,,5373.388999904622,completion,,,,,false,,,,551192.9000000954,551192.5999999046,545802.392,545813.7000002861,545819.211,551202.306,8,400,,,
trial,html.Screen,4_101_0,2023-09-08T19:55:47.261Z,,0,3,,3161.6940000000177,response,ISIC_0001118.JPG,11,ISIC_8635849.JPG,ISIC_0001118.JPG,false,1,keypress(m),500,554364.3000001907,554364,551185.639,551193,551202.306,554368.87,8,400,2,,ISIC_8635849.JPG
break,html.Screen,4_101_1,2023-09-08T19:55:47.262Z,,0,,,NaN,,,,,,false,,,,554365.0999999046,554365,,554364.5,,554368.87,8,400,,,
break_continue,html.Screen,4_101_2,2023-09-08T19:55:47.262Z,,0,,,NaN,,,,,,false,,,,554365.4000000954,554365.3000001907,,554365.3000001907,,554368.87,8,400,,,
sequence,flow.Sequence,4_101,2023-09-08T19:55:47.263Z,,0,,,3162.9940001907526,completion,,,,,false,,,,554365.7000002861,554365.3000001907,551185.639,551193,551202.306,554368.87,8,400,,,
trial,html.Screen,4_102_0,2023-09-08T19:55:50.403Z,,0,3,,3134.229999904637,response,ISIC_0057169.JPG,15,ISIC_3617159.JPG,ISIC_0057169.JPG,false,1,keypress(m),500,557504,557503.0999999046,554352.148,554365.8000001907,554368.87,557518.683,8,400,3,,ISIC_3617159.JPG
break,html.Screen,4_102_1,2023-09-08T19:55:50.404Z,,0,,,NaN,,,,,,false,,,,557505,557504.8000001907,,557504.2000002861,,557518.683,8,400,,,
break_continue,html.Screen,4_102_2,2023-09-08T19:55:50.405Z,,0,,,NaN,,,,,,false,,,,557505.3000001907,557505.2000002861,,557505.0999999046,,557518.683,8,400,,,
sequence,flow.Sequence,4_102,2023-09-08T19:55:50.405Z,,0,,,3136.330000286107,completion,,,,,false,,,,557505.5,557505.2000002861,554352.148,554365.8000001907,554368.87,557518.683,8,400,,,
trial,html.Screen,4_103_0,2023-09-08T19:55:53.131Z,,0,3,,2712.4169999046717,response,ISIC_7503950.JPG,10,ISIC_0057496.JPG,ISIC_7503950.JPG,false,1,keypress(m),500,560231.5,560231.0999999046,557501.978,557505.5,557518.683,560235.283,8,400,4,,ISIC_0057496.JPG
break,html.Screen,4_103_1,2023-09-08T19:55:53.132Z,,0,,,NaN,,,,,,false,,,,560232.5,560232.2000002861,,560231.5999999046,,560235.283,8,400,,,
break_continue,html.Screen,4_103_2,2023-09-08T19:55:53.132Z,,0,,,NaN,,,,,,false,,,,560232.8000001907,560232.5999999046,,560232.5999999046,,560235.283,8,400,,,
sequence,flow.Sequence,4_103,2023-09-08T19:55:53.132Z,,0,,,2713.9169999046717,completion,,,,,false,,,,560232.9000000954,560232.5999999046,557501.978,557505.5,557518.683,560235.283,8,400,,,
trial,html.Screen,4_104_0,2023-09-08T19:55:57.530Z,,0,3,,4395.417000286048,response,ISIC_6269543.JPG,9,ISIC_0197584.JPG,ISIC_6269543.JPG,false,1,keypress(m),500,564631,564630.7000002861,560218.506,560233,560235.283,564635.013,8,400,5,,ISIC_0197584.JPG
break,html.Screen,4_104_1,2023-09-08T19:55:57.531Z,,0,,,NaN,,,,,,false,,,,564631.8000001907,564631.5999999046,,564631.2000002861,,564635.013,8,400,,,
break_continue,html.Screen,4_104_2,2023-09-08T19:55:57.532Z,,0,,,NaN,,,,,,false,,,,564632.0999999046,564632,,564631.9000000954,,564635.013,8,400,,,
sequence,flow.Sequence,4_104,2023-09-08T19:55:57.532Z,,0,,,4396.716999999946,completion,,,,,false,,,,564632.3000001907,564632,560218.506,560233,560235.283,564635.013,8,400,,,
trial,html.Screen,4_105_0,2023-09-08T19:56:02.322Z,,0,3,,4787.687000286067,response,ISIC_0014217.JPG,10,ISIC_0064006.JPG,ISIC_0014217.JPG,false,1,keypress(m),500,569423,569422.7000002861,564618.354,564632.4000000954,564635.013,569434.793,8,400,6,,ISIC_0064006.JPG
break,html.Screen,4_105_1,2023-09-08T19:56:02.323Z,,0,,,NaN,,,,,,false,,,,569423.8000001907,569423.5999999046,,569423.2000002861,,569434.793,8,400,,,
break_continue,html.Screen,4_105_2,2023-09-08T19:56:02.323Z,,0,,,NaN,,,,,,false,,,,569424.0999999046,569424,,569423.9000000954,,569434.793,8,400,,,
sequence,flow.Sequence,4_105,2023-09-08T19:56:02.324Z,,0,,,4788.986999999965,completion,,,,,false,,,,569424.2000002861,569424,564618.354,564632.4000000954,564635.013,569434.793,8,400,,,
trial,html.Screen,4_106_0,2023-09-08T19:56:05.210Z,,0,3,,2875.9070002861554,response,ISIC_0010468.JPG,10,ISIC_6592334.JPG,ISIC_0010468.JPG,false,1,keypress(m),500,572311,572310.7000002861,569418.098,569424.4000000954,569434.793,572318.008,8,400,7,,ISIC_6592334.JPG
break,html.Screen,4_106_1,2023-09-08T19:56:05.211Z,,0,,,NaN,,,,,,false,,,,572312.0999999046,572311.9000000954,,572311.0999999046,,572318.008,8,400,,,
break_continue,html.Screen,4_106_2,2023-09-08T19:56:05.212Z,,0,,,NaN,,,,,,false,,,,572312.5,572312.4000000954,,572312.3000001907,,572318.008,8,400,,,
sequence,flow.Sequence,4_106,2023-09-08T19:56:05.212Z,,0,,,2877.6070000954205,completion,,,,,false,,,,572312.5999999046,572312.4000000954,569418.098,569424.4000000954,569434.793,572318.008,8,400,,,
trial,html.Screen,4_107_0,2023-09-08T19:56:08.538Z,,0,3,,3320.6920002860716,response,ISIC_0033876.JPG,6,ISIC_0062471.JPG,ISIC_0033876.JPG,false,1,keypress(m),500,575639,575638.7000002861,572301.258,572312.8000001907,572318.008,575651.166,8,400,8,,ISIC_0062471.JPG
break,html.Screen,4_107_1,2023-09-08T19:56:08.539Z,,0,,,NaN,,,,,,false,,,,575639.8000001907,575639.5999999046,,575639.0999999046,,575651.166,8,400,,,
break_continue,html.Screen,4_107_2,2023-09-08T19:56:08.539Z,,0,,,NaN,,,,,,false,,,,575640.0999999046,575640,,575639.9000000954,,575651.166,8,400,,,
sequence,flow.Sequence,4_107,2023-09-08T19:56:08.540Z,,0,,,3321.9919999999693,completion,,,,,false,,,,575640.3000001907,575640,572301.258,572312.8000001907,572318.008,575651.166,8,400,,,
trial,html.Screen,4_108_0,2023-09-08T19:56:11.578Z,,0,3,,3027.034000286134,response,ISIC_8023705.JPG,10,ISIC_0028024.JPG,ISIC_0028024.JPG,false,0,keypress(z),500,578678.4000000954,578678.2000002861,575634.477,575640.5,575651.166,578684.597,8,400,9,,ISIC_8023705.JPG
break,html.Screen,4_108_1,2023-09-08T19:56:11.579Z,,0,,,NaN,,,,,,false,,,,578679.2000002861,578679,,578678.5999999046,,578684.597,8,400,,,
break_continue,html.Screen,4_108_2,2023-09-08T19:56:11.579Z,,0,,,NaN,,,,,,false,,,,578679.5999999046,578679.5,,578679.4000000954,,578684.597,8,400,,,
sequence,flow.Sequence,4_108,2023-09-08T19:56:11.579Z,,0,,,3028.3340000000317,completion,,,,,false,,,,578679.7000002861,578679.5,575634.477,575640.5,575651.166,578684.597,8,400,,,
trial,html.Screen,4_109_0,2023-09-08T19:56:15.266Z,,0,3,,3681.803000095417,response,ISIC_4226395.JPG,10,ISIC_0053960.JPG,ISIC_0053960.JPG,false,0,keypress(z),500,582366.7000002861,582366.4000000954,578667.643,578679.8000001907,578684.597,582390.427,8,400,10,,ISIC_4226395.JPG
break,html.Screen,4_109_1,2023-09-08T19:56:15.267Z,,0,,,NaN,,,,,,false,,,,582367.5999999046,582367.2000002861,,582366.8000001907,,582390.427,8,400,,,
break_continue,html.Screen,4_109_2,2023-09-08T19:56:15.267Z,,0,,,NaN,,,,,,false,,,,582367.9000000954,582367.8000001907,,582367.8000001907,,582390.427,8,400,,,
sequence,flow.Sequence,4_109,2023-09-08T19:56:15.267Z,,0,,,3683.203000190784,completion,,,,,false,,,,582368,582367.8000001907,578667.643,578679.8000001907,578684.597,582390.427,8,400,,,
trial,html.Screen,4_110_0,2023-09-08T19:56:18.970Z,,0,3,,3679.9730000953423,response,ISIC_0061580.JPG,10,ISIC_2658858.JPG,ISIC_2658858.JPG,false,0,keypress(z),500,586070.7000002861,586070.4000000954,582350.888,582368.2000002861,582390.427,586084.27,8,400,11,,ISIC_0061580.JPG
break,html.Screen,4_110_1,2023-09-08T19:56:18.971Z,,0,,,NaN,,,,,,false,,,,586071.8000001907,586071.5999999046,,586070.8000001907,,586084.27,8,400,,,
break_continue,html.Screen,4_110_2,2023-09-08T19:56:18.971Z,,0,,,NaN,,,,,,false,,,,586072.0999999046,586072,,586071.9000000954,,586084.27,8,400,,,
sequence,flow.Sequence,4_110,2023-09-08T19:56:18.972Z,,0,,,3681.572999999975,completion,,,,,false,,,,586072.2000002861,586072,582350.888,582368.2000002861,582390.427,586084.27,8,400,,,
trial,html.Screen,4_111_0,2023-09-08T19:56:23.730Z,,0,3,,4746.229999999981,response,ISIC_0009993.JPG,10,ISIC_1418304.JPG,ISIC_0009993.JPG,false,1,keypress(m),500,590830.7000002861,590830.5,586067.331,586072.4000000954,586084.27,590833.831,8,400,12,,ISIC_1418304.JPG
break,html.Screen,4_111_1,2023-09-08T19:56:23.731Z,,0,,,NaN,,,,,,false,,,,590831.5999999046,590831.5,,590830.9000000954,,590833.831,8,400,,,
break_continue,html.Screen,4_111_2,2023-09-08T19:56:23.731Z,,0,,,NaN,,,,,,false,,,,590831.9000000954,590831.8000001907,,590831.7000002861,,590833.831,8,400,,,
sequence,flow.Sequence,4_111,2023-09-08T19:56:23.731Z,,0,,,4747.530000190716,completion,,,,,false,,,,590832.0999999046,590831.8000001907,586067.331,586072.4000000954,586084.27,590833.831,8,400,,,
trial,html.Screen,4_112_0,2023-09-08T19:56:26.650Z,,0,3,,2916.569000095362,response,ISIC_0595080.JPG,10,ISIC_0014327.JPG,ISIC_0014327.JPG,false,0,keypress(z),500,593750.7000002861,593750.4000000954,590817.115,590832.2000002861,590833.831,593767.008,8,400,13,,ISIC_0595080.JPG
break,html.Screen,4_112_1,2023-09-08T19:56:26.651Z,,0,,,NaN,,,,,,false,,,,593751.4000000954,593751.2000002861,,593750.9000000954,,593767.008,8,400,,,
break_continue,html.Screen,4_112_2,2023-09-08T19:56:26.651Z,,0,,,NaN,,,,,,false,,,,593751.8000001907,593751.5999999046,,593751.5,,593767.008,8,400,,,
sequence,flow.Sequence,4_112,2023-09-08T19:56:26.651Z,,0,,,2917.768999904627,completion,,,,,false,,,,593751.9000000954,593751.5999999046,590817.115,590832.2000002861,590833.831,593767.008,8,400,,,
trial,html.Screen,4_113_0,2023-09-08T19:56:32.115Z,,0,3,,5448.491999999969,response,ISIC_1507583.JPG,34,ISIC_0013472.JPG,ISIC_1507583.JPG,false,1,keypress(m),500,599215.8000001907,599215.5,593750.333,593752,593767.008,599238.311,8,400,14,,ISIC_0013472.JPG
break,html.Screen,4_113_1,2023-09-08T19:56:32.116Z,,0,,,NaN,,,,,,false,,,,599216.5999999046,599216.4000000954,,599215.9000000954,,599238.311,8,400,,,
break_continue,html.Screen,4_113_2,2023-09-08T19:56:32.116Z,,0,,,NaN,,,,,,false,,,,599217,599216.9000000954,,599216.7000002861,,599238.311,8,400,,,
sequence,flow.Sequence,4_113,2023-09-08T19:56:32.116Z,,0,,,5449.892000095337,completion,,,,,false,,,,599217.0999999046,599216.9000000954,593750.333,593751.9000000954,593767.008,599238.311,8,400,,,
trial,html.Screen,4_114_0,2023-09-08T19:56:35.362Z,,0,3,,3224.0890000953805,response,ISIC_0069933.JPG,9,ISIC_7203184.JPG,ISIC_0069933.JPG,false,1,keypress(m),500,602462.5999999046,602462.4000000954,599200.056,599217.2000002861,599238.311,602466.586,8,400,15,,ISIC_7203184.JPG
break,html.Screen,4_114_1,2023-09-08T19:56:35.363Z,,0,,,NaN,,,,,,false,,,,602463.5999999046,602463.4000000954,,602462.9000000954,,602466.586,8,400,,,
break_continue,html.Screen,4_114_2,2023-09-08T19:56:35.363Z,,0,,,NaN,,,,,,false,,,,602463.9000000954,602463.8000001907,,602463.5999999046,,602466.586,8,400,,,
sequence,flow.Sequence,4_114,2023-09-08T19:56:35.363Z,,0,,,3225.489000190748,completion,,,,,false,,,,602464,602463.8000001907,599200.056,599217.2000002861,599238.311,602466.586,8,400,,,
trial,html.Screen,4_115_0,2023-09-08T19:56:38.178Z,,0,3,,2811.814000095357,response,ISIC_0961235.JPG,10,ISIC_0060897.JPG,ISIC_0060897.JPG,false,0,keypress(z),500,605278.7000002861,605278.4000000954,602449.888,602464.0999999046,602466.586,605283.425,8,400,16,,ISIC_0961235.JPG
break,html.Screen,4_115_1,2023-09-08T19:56:38.179Z,,0,,,NaN,,,,,,false,,,,605279.5,605279.3000001907,,605278.8000001907,,605283.425,8,400,,,
break_continue,html.Screen,4_115_2,2023-09-08T19:56:38.179Z,,0,,,NaN,,,,,,false,,,,605279.8000001907,605279.7000002861,,605279.5999999046,,605283.425,8,400,,,
sequence,flow.Sequence,4_115,2023-09-08T19:56:38.179Z,,0,,,2813.114000286092,completion,,,,,false,,,,605279.9000000954,605279.7000002861,602449.888,602464.0999999046,602466.586,605283.425,8,400,,,
trial,html.Screen,4_116_0,2023-09-08T19:56:41.626Z,,0,3,,3442.975000095321,response,ISIC_0025265.JPG,16,ISIC_0024235.JPG,ISIC_0024235.JPG,false,0,keypress(z),500,608726.8000001907,608726.4000000954,605266.454,605280.0999999046,605283.425,608733.049,8,400,17,,ISIC_0025265.JPG
break,html.Screen,4_116_1,2023-09-08T19:56:41.628Z,,0,,,NaN,,,,,,false,,,,608728.2000002861,608728.0999999046,,608727.5,,608733.049,8,400,,,
break_continue,html.Screen,4_116_2,2023-09-08T19:56:41.628Z,,0,,,NaN,,,,,,false,,,,608728.5999999046,608728.5,,608728.4000000954,,608733.049,8,400,,,
sequence,flow.Sequence,4_116,2023-09-08T19:56:41.628Z,,0,,,3445.0749999999534,completion,,,,,false,,,,608728.7000002861,608728.5,605266.454,605280,605283.425,608733.049,8,400,,,
trial,html.Screen,4_117_0,2023-09-08T19:56:45.474Z,,0,3,,3841.3510000953684,response,ISIC_7358691.JPG,9,ISIC_6731470.JPG,ISIC_6731470.JPG,false,0,keypress(z),500,612574.5999999046,612574.4000000954,608716.285,608728.8000001907,608733.049,612582.741,8,400,18,,ISIC_7358691.JPG
break,html.Screen,4_117_1,2023-09-08T19:56:45.475Z,,0,,,NaN,,,,,,false,,,,612575.5999999046,612575.4000000954,,612574.8000001907,,612582.741,8,400,,,
break_continue,html.Screen,4_117_2,2023-09-08T19:56:45.475Z,,0,,,NaN,,,,,,false,,,,612575.8000001907,612575.7000002861,,612575.7000002861,,612582.741,8,400,,,
sequence,flow.Sequence,4_117,2023-09-08T19:56:45.475Z,,0,,,3842.651000286103,completion,,,,,false,,,,612576.0999999046,612575.7000002861,608716.285,608728.8000001907,608733.049,612582.741,8,400,,,
trial,html.Screen,4_118_0,2023-09-08T19:56:48.967Z,,0,3,,3488.0590001906967,response,ISIC_0027951.JPG,10,ISIC_0031843.JPG,ISIC_0031843.JPG,false,0,keypress(z),500,616071.7000002861,616070.8000001907,612566.113,612576.0999999046,612582.741,616082.575,8,400,19,,ISIC_0027951.JPG
break,html.Screen,4_118_1,2023-09-08T19:56:48.968Z,,0,,,NaN,,,,,,false,,,,616072.8000001907,616072.5999999046,,616072,,616082.575,8,400,,,
break_continue,html.Screen,4_118_2,2023-09-08T19:56:48.968Z,,0,,,NaN,,,,,,false,,,,616073.2000002861,616073,,616072.9000000954,,616082.575,8,400,,,
sequence,flow.Sequence,4_118,2023-09-08T19:56:48.968Z,,0,,,3490.258999999962,completion,,,,,false,,,,616073.3000001907,616073,612566.113,612576.0999999046,612582.741,616082.575,8,400,,,
trial,html.Screen,4_119_0,2023-09-08T19:56:52.494Z,,0,3,,3515.825000095414,response,ISIC_0060586.JPG,8,ISIC_0011126.JPG,ISIC_0011126.JPG,false,0,keypress(z),500,619598.7000002861,619598.4000000954,616065.939,616073.5,616082.575,619615.796,8,400,20,,ISIC_0060586.JPG
break,html.Screen,4_119_1,2023-09-08T19:56:52.495Z,,0,,,NaN,,,,,,false,,,,619599.5,619599.3000001907,,619598.8000001907,,619615.796,8,400,,,
break_continue,html.Screen,4_119_2,2023-09-08T19:56:52.495Z,,0,,,NaN,,,,,,false,,,,619599.7000002861,619599.5999999046,,619599.5999999046,,619615.796,8,400,,,
sequence,flow.Sequence,4_119,2023-09-08T19:56:52.495Z,,0,,,3517.024999904679,completion,,,,,false,,,,619599.9000000954,619599.5999999046,616065.939,616073.4000000954,616082.575,619615.796,8,400,,,
trial,html.Screen,4_120_0,2023-09-08T19:56:56.709Z,,0,3,,4198.104000095394,response,ISIC_5468164.JPG,9,ISIC_8907232.JPG,ISIC_8907232.JPG,false,0,keypress(z),500,623814.2000002861,623813.9000000954,619599.115,619600,619615.796,623837.791,8,400,21,,ISIC_5468164.JPG
break,html.Screen,4_120_1,2023-09-08T19:56:56.710Z,,0,,,NaN,,,,,,false,,,,623814.9000000954,623814.7000002861,,623814.3000001907,,623837.791,8,400,,,
break_continue,html.Screen,4_120_2,2023-09-08T19:56:56.710Z,,0,,,NaN,,,,,,false,,,,623815.2000002861,623815.2000002861,,623815,,623837.791,8,400,,,
sequence,flow.Sequence,4_120,2023-09-08T19:56:56.711Z,,0,,,4199.404000286129,completion,,,,,false,,,,623815.3000001907,623815.2000002861,619599.115,619600,619615.796,623837.791,8,400,,,
trial,html.Screen,4_121_0,2023-09-08T19:57:01.813Z,,0,3,,5079.609000095399,response,ISIC_2365588.JPG,10,ISIC_5852396.JPG,ISIC_5852396.JPG,false,0,keypress(z),500,628917.7000002861,628917.4000000954,623798.914,623815.5,623837.791,628932.009,8,400,22,,ISIC_2365588.JPG
break,html.Screen,4_121_1,2023-09-08T19:57:01.814Z,,0,,,NaN,,,,,,false,,,,628918.5,628918.3000001907,,628917.8000001907,,628932.009,8,400,,,
break_continue,html.Screen,4_121_2,2023-09-08T19:57:01.814Z,,0,,,NaN,,,,,,false,,,,628918.7000002861,628918.7000002861,,628918.5999999046,,628932.009,8,400,,,
sequence,flow.Sequence,4_121,2023-09-08T19:57:01.814Z,,0,,,5080.909000286134,completion,,,,,false,,,,628918.9000000954,628918.7000002861,623798.914,623815.5,623837.791,628932.009,8,400,,,
trial,html.Screen,4_122_0,2023-09-08T19:57:05.933Z,,0,3,,4105.491000000038,response,ISIC_0027431.JPG,10,ISIC_1004416.JPG,ISIC_1004416.JPG,false,0,keypress(z),500,633037.8000001907,633037.5,628915.27,628919,628932.009,633048.473,8,400,23,,ISIC_0027431.JPG
break,html.Screen,4_122_1,2023-09-08T19:57:05.934Z,,0,,,NaN,,,,,,false,,,,633039.3000001907,633039.0999999046,,633037.9000000954,,633048.473,8,400,,,
break_continue,html.Screen,4_122_2,2023-09-08T19:57:05.935Z,,0,,,NaN,,,,,,false,,,,633039.5999999046,633039.5,,633039.4000000954,,633048.473,8,400,,,
sequence,flow.Sequence,4_122,2023-09-08T19:57:05.935Z,,0,,,4107.491000000038,completion,,,,,false,,,,633039.8000001907,633039.5,628915.27,628919,628932.009,633048.473,8,400,,,
trial,html.Screen,4_123_0,2023-09-08T19:57:09.061Z,,0,3,,3116.9270000953693,response,ISIC_1560272.JPG,9,ISIC_2054180.JPG,ISIC_2054180.JPG,false,0,keypress(z),500,636165.7000002861,636165.4000000954,633031.807,633039.9000000954,633048.473,636181.699,8,400,24,,ISIC_1560272.JPG
break,html.Screen,4_123_1,2023-09-08T19:57:09.062Z,,0,,,NaN,,,,,,false,,,,636166.5999999046,636166.4000000954,,636165.9000000954,,636181.699,8,400,,,
break_continue,html.Screen,4_123_2,2023-09-08T19:57:09.062Z,,0,,,NaN,,,,,,false,,,,636166.8000001907,636166.8000001907,,636166.7000002861,,636181.699,8,400,,,
sequence,flow.Sequence,4_123,2023-09-08T19:57:09.062Z,,0,,,3118.3270001907367,completion,,,,,false,,,,636167,636166.8000001907,633031.807,633039.9000000954,633048.473,636181.699,8,400,,,
trial,html.Screen,4_124_0,2023-09-08T19:57:12.222Z,,0,3,,3145.40099990461,response,ISIC_0033555.JPG,9,ISIC_0024589.JPG,ISIC_0033555.JPG,false,1,keypress(m),500,639327.3000001907,639327.0999999046,636164.971,636167.2000002861,636181.699,639331.529,8,400,25,,ISIC_0024589.JPG
break,html.Screen,4_124_1,2023-09-08T19:57:12.224Z,,0,,,NaN,,,,,,false,,,,639328.9000000954,639328.8000001907,,639327.5,,639331.529,8,400,,,
break_continue,html.Screen,4_124_2,2023-09-08T19:57:12.224Z,,0,,,NaN,,,,,,false,,,,639329.2000002861,639329.0999999046,,639329.0999999046,,639331.529,8,400,,,
sequence,flow.Sequence,4_124,2023-09-08T19:57:12.225Z,,0,,,3147.40099990461,completion,,,,,false,,,,639329.4000000954,639329.0999999046,636164.971,636167.0999999046,636181.699,639331.529,8,400,,,
trial,html.Screen,4_125_0,2023-09-08T19:57:15.388Z,,0,3,,3161.371000095387,response,ISIC_0062547.JPG,7,ISIC_0000141.JPG,ISIC_0062547.JPG,false,1,keypress(m),500,642493.2000002861,642492.9000000954,639314.888,639329.5,639331.529,642498.048,8,400,26,,ISIC_0000141.JPG
break,html.Screen,4_125_1,2023-09-08T19:57:15.389Z,,0,,,NaN,,,,,,false,,,,642494,642493.7000002861,,642493.3000001907,,642498.048,8,400,,,
