sender,sender_type,sender_id,timestamp,meta,,blockNo,condition,duration,ended_on,img_left,img_reveal,img_right,loser,practice,response,response_action,selection_duration,time_commit,time_end,time_render,time_run,time_show,time_switch,total_blocks,total_trials,trialNo,url,winner
informed_consent,html.Screen,0,2023-11-01T21:40:26.771Z,"{""labjs_version"":""20.2.4"",""labjs_build"":{""flavor"":""production"",""commit"":""f5b4a49f956347addd546a832a3327688c2c0fef""},""location"":""https://run.pavlovia.org/MurrayBennett/melanoma-2afc/?participant=67607&platform=sona"",""userAgent"":""Mozilla/5.0 (Windows NT 10.0; Win64; x64) AppleWebKit/537.36 (KHTML, like Gecko) Chrome/118.0.0.0 Safari/537.36 Edg/118.0.2088.76"",""platform"":""Win32"",""language"":""en-US"",""locale"":""en-US"",""timeZone"":""America/Chicago"",""timezoneOffset"":300,""screen_width"":1664,""screen_height"":1110,""scroll_width"":1616,""scroll_height"":940,""window_innerWidth"":1616,""window_innerHeight"":988,""devicePixelRatio"":1.5}",,,,71661.09300000448,response,,,,,,consent,click button,,75455.70000000298,75449.30000000447,3754.814,3773.5,3788.207,75467.293,,,,"{""participant"":""67607"",""platform"":""sona""}",
Welcome,html.Screen,1,2023-11-01T21:40:33.207Z,,,,colourful,6420.706999999995,response,,,,,,continue,click button,,81891.39999999851,81888,75451.167,75456.30000000447,75467.293,81908.688,,,,,
trial,html.Screen,2_0_0,2023-11-01T21:40:37.148Z,,0,0,,3923.0120000029856,response,ISIC_0025593.JPG,,ISIC_0063388.JPG,ISIC_0063388.JPG,true,0,keypress(z),500,85832.10000000149,85831.70000000298,81884.333,81892.39999999851,81908.688,85850.098,1,6,1,,ISIC_0025593.JPG
sequence,flow.Sequence,2_0,2023-11-01T21:40:37.148Z,,0,,,3923.0120000029856,completion,,,,,true,,,,85832.60000000149,85831.70000000298,81884.333,81892.20000000298,81908.688,85850.098,1,6,,,
trial,html.Screen,2_1_0,2023-11-01T21:40:40.375Z,,0,0,,3209.002000001492,response,ISIC_0028178.JPG,,ISIC_1309015.JPG,ISIC_1309015.JPG,true,0,keypress(z),500,89059.60000000149,89059.10000000149,85820.668,85832.80000000447,85850.098,89077.648,1,6,2,,ISIC_0028178.JPG
sequence,flow.Sequence,2_1,2023-11-01T21:40:40.376Z,,0,,,3209.002000001492,completion,,,,,true,,,,89060,89059.10000000149,85820.668,85832.80000000447,85850.098,89077.648,1,6,,,
trial,html.Screen,2_2_0,2023-11-01T21:40:44.620Z,,0,0,,4225.952000001489,response,ISIC_3314853.JPG,,ISIC_0031128.JPG,ISIC_3314853.JPG,true,1,keypress(m),500,93303.89999999851,93303.60000000149,89058.75,89060.10000000149,89077.648,93321.502,1,6,3,,ISIC_0031128.JPG
sequence,flow.Sequence,2_2,2023-11-01T21:40:44.620Z,,0,,,4225.952000001489,completion,,,,,true,,,,93304.20000000298,93303.60000000149,89058.75,89060,89077.648,93321.502,1,6,,,
trial,html.Screen,2_3_0,2023-11-01T21:40:48.357Z,,0,0,,3719.798000004477,response,ISIC_8980141.JPG,,ISIC_0031612.JPG,ISIC_8980141.JPG,true,1,keypress(m),500,97041.60000000149,97041.30000000447,93300.889,93304.30000000447,93321.502,97059.121,1,6,4,,ISIC_0031612.JPG
sequence,flow.Sequence,2_3,2023-11-01T21:40:48.358Z,,0,,,3719.798000004477,completion,,,,,true,,,,97041.89999999851,97041.30000000447,93300.889,93304.30000000447,93321.502,97059.121,1,6,,,
trial,html.Screen,2_4_0,2023-11-01T21:40:52.009Z,,0,0,,3633.879000000001,response,ISIC_1197737.JPG,,ISIC_9721604.JPG,ISIC_9721604.JPG,true,0,keypress(z),500,100693.5,100693,97032.944,97042.10000000149,97059.121,100711.369,1,6,5,,ISIC_1197737.JPG
sequence,flow.Sequence,2_4,2023-11-01T21:40:52.010Z,,0,,,3633.879000000001,completion,,,,,true,,,,100693.89999999851,100693,97032.944,97042,97059.121,100711.369,1,6,,,
trial,html.Screen,2_5_0,2023-11-01T21:40:55.583Z,,0,0,,3555.630999999994,response,ISIC_0025346.JPG,,ISIC_0010681.JPG,ISIC_0010681.JPG,true,0,keypress(z),500,104267.39999999851,104267,100680.288,100694,100711.369,104285.137,1,6,6,,ISIC_0025346.JPG
sequence,flow.Sequence,2_5,2023-11-01T21:40:55.583Z,,0,,,3555.630999999994,completion,,,,,true,,,,104267.70000000298,104267,100680.288,100694,100711.369,104285.137,1,6,,,
loop,flow.Loop,2,2023-11-01T21:40:55.583Z,,,,,22358.312000000005,completion,,,,,true,,,,104267.80000000447,104267,81884.333,81892,81908.688,104285.137,1,6,,,
exp_instructions,html.Screen,3,2023-11-01T21:41:01.649Z,,,,,6046.963000001488,response,,,,,,continue,keypress(Space),,110333.39999999851,110332.10000000149,104264.282,104268.30000000447,104285.137,110350.502,,,,,
trial,html.Screen,4_0_0,2023-11-01T21:41:04.701Z,,0,1,,3034.198000002987,response,ISIC_0032771.JPG,6,ISIC_8579259.JPG,ISIC_8579259.JPG,false,0,keypress(z),500,113385,113384.70000000298,110320.61,110333.70000000298,110350.502,113403.06,8,400,1,,ISIC_0032771.JPG
break,html.Screen,4_0_1,2023-11-01T21:41:04.703Z,,0,,,NaN,,,,,,false,,,,113387.20000000298,113386.10000000149,,113385.20000000298,,113403.06,8,400,,,
break_continue,html.Screen,4_0_2,2023-11-01T21:41:04.703Z,,0,,,NaN,,,,,,false,,,,113387.5,113387.39999999851,,113387.30000000447,,113403.06,8,400,,,
sequence,flow.Sequence,4_0,2023-11-01T21:41:04.703Z,,0,,,3036.8979999985168,completion,,,,,false,,,,113387.70000000298,113387.39999999851,110320.61,110333.60000000149,110350.502,113403.06,8,400,,,
trial,html.Screen,4_1_0,2023-11-01T21:41:07.282Z,,0,1,,2563.0400000014924,response,ISIC_1452314.JPG,10,ISIC_0034107.JPG,ISIC_1452314.JPG,false,1,keypress(m),500,115966.80000000447,115966.10000000149,113382.463,113387.80000000447,113403.06,115984.468,8,400,2,,ISIC_0034107.JPG
break,html.Screen,4_1_1,2023-11-01T21:41:07.286Z,,0,,,NaN,,,,,,false,,,,115970.10000000149,115969,,115968.39999999851,,115984.468,8,400,,,
break_continue,html.Screen,4_1_2,2023-11-01T21:41:07.286Z,,0,,,NaN,,,,,,false,,,,115970.5,115970.30000000447,,115970.20000000298,,115984.468,8,400,,,
sequence,flow.Sequence,4_1,2023-11-01T21:41:07.286Z,,0,,,2567.2400000044727,completion,,,,,false,,,,115970.5,115970.30000000447,113382.463,113387.80000000447,113403.06,115984.468,8,400,,,
trial,html.Screen,4_2_0,2023-11-01T21:41:10.281Z,,0,1,,2980.6320000014966,response,ISIC_0027622.JPG,5,ISIC_0002901.JPG,ISIC_0002901.JPG,false,0,keypress(z),500,118965.39999999851,118965.10000000149,115960.799,115970.60000000149,115984.468,119000.017,8,400,3,,ISIC_0027622.JPG
break,html.Screen,4_2_1,2023-11-01T21:41:10.283Z,,0,,,NaN,,,,,,false,,,,118967.39999999851,118966.20000000298,,118965.60000000149,,119000.017,8,400,,,
break_continue,html.Screen,4_2_2,2023-11-01T21:41:10.283Z,,0,,,NaN,,,,,,false,,,,118967.80000000447,118967.70000000298,,118967.5,,119000.017,8,400,,,
sequence,flow.Sequence,4_2,2023-11-01T21:41:10.284Z,,0,,,2983.2320000029868,completion,,,,,false,,,,118967.89999999851,118967.70000000298,115960.799,115970.60000000149,115984.468,119000.017,8,400,,,
trial,html.Screen,4_3_0,2023-11-01T21:41:14.226Z,,0,1,,3909.7830000044632,response,ISIC_0061509.JPG,19,ISIC_0070432.JPG,ISIC_0061509.JPG,false,1,keypress(m),500,122910.30000000447,122909.80000000447,118983.277,118968,119000.017,122927.862,8,400,4,,ISIC_0070432.JPG
break,html.Screen,4_3_1,2023-11-01T21:41:14.228Z,,0,,,NaN,,,,,,false,,,,122912.39999999851,122911,,122910.5,,122927.862,8,400,,,
break_continue,html.Screen,4_3_2,2023-11-01T21:41:14.228Z,,0,,,NaN,,,,,,false,,,,122912.70000000298,122912.60000000149,,122912.5,,122927.862,8,400,,,
sequence,flow.Sequence,4_3,2023-11-01T21:41:14.228Z,,0,,,3912.583000001483,completion,,,,,false,,,,122912.80000000447,122912.60000000149,118983.277,118968,119000.017,122927.862,8,400,,,
trial,html.Screen,4_4_0,2023-11-01T21:41:17.130Z,,0,1,,2885.1380000000063,response,ISIC_0056110.JPG,6,ISIC_0034208.JPG,ISIC_0056110.JPG,false,1,keypress(m),500,125813.39999999851,125813,122896.362,122912.89999999851,122927.862,125831.431,8,400,5,,ISIC_0034208.JPG
break,html.Screen,4_4_1,2023-11-01T21:41:17.132Z,,0,,,NaN,,,,,,false,,,,125815.5,125814.20000000298,,125813.70000000298,,125831.431,8,400,,,
break_continue,html.Screen,4_4_2,2023-11-01T21:41:17.133Z,,0,,,NaN,,,,,,false,,,,125815.80000000447,125815.80000000447,,125815.60000000149,,125831.431,8,400,,,
sequence,flow.Sequence,4_4,2023-11-01T21:41:17.133Z,,0,,,2887.9380000044766,completion,,,,,false,,,,125816,125815.80000000447,122896.362,122912.80000000447,122927.862,125831.431,8,400,,,
trial,html.Screen,4_5_0,2023-11-01T21:41:21.087Z,,0,1,,3938.968999998513,response,ISIC_0032165.JPG,9,ISIC_2078053.JPG,ISIC_2078053.JPG,false,0,keypress(z),500,129770.80000000447,129770.39999999851,125799.847,125816.10000000149,125831.431,129788.288,8,400,6,,ISIC_0032165.JPG
break,html.Screen,4_5_1,2023-11-01T21:41:21.089Z,,0,,,NaN,,,,,,false,,,,129772.80000000447,129771.5,,129771,,129788.288,8,400,,,
break_continue,html.Screen,4_5_2,2023-11-01T21:41:21.090Z,,0,,,NaN,,,,,,false,,,,129773,129772.89999999851,,129772.89999999851,,129788.288,8,400,,,
sequence,flow.Sequence,4_5,2023-11-01T21:41:21.090Z,,0,,,3941.468999998513,completion,,,,,false,,,,129773.10000000149,129772.89999999851,125799.847,125816,125831.431,129788.288,8,400,,,
trial,html.Screen,4_6_0,2023-11-01T21:41:23.880Z,,0,1,,2775.1119999985094,response,ISIC_4108397.JPG,8,ISIC_0062765.JPG,ISIC_4108397.JPG,false,1,keypress(m),500,132563.70000000298,132563.3999999985,129766.419,129773.30000000447,129788.288,132581.812,8,400,7,,ISIC_0062765.JPG
break,html.Screen,4_6_1,2023-11-01T21:41:23.882Z,,0,,,NaN,,,,,,false,,,,132565.6000000015,132564.5,,132564,,132581.812,8,400,,,
break_continue,html.Screen,4_6_2,2023-11-01T21:41:23.883Z,,0,,,NaN,,,,,,false,,,,132566,132565.8999999985,,132565.80000000447,,132581.812,8,400,,,
sequence,flow.Sequence,4_6,2023-11-01T21:41:23.883Z,,0,,,2777.6119999985094,completion,,,,,false,,,,132566.1000000015,132565.8999999985,129766.419,129773.20000000298,129788.288,132581.812,8,400,,,
trial,html.Screen,4_7_0,2023-11-01T21:41:26.846Z,,0,1,,2946.988000004465,response,ISIC_0033429.JPG,12,ISIC_0030656.JPG,ISIC_0033429.JPG,false,1,keypress(m),500,135529.3999999985,135528.80000000447,132561.752,132566.20000000298,132581.812,135547.834,8,400,8,,ISIC_0030656.JPG
break,html.Screen,4_7_1,2023-11-01T21:41:26.849Z,,0,,,NaN,,,,,,false,,,,135531.8999999985,135530.5,,135529.70000000298,,135547.834,8,400,,,
break_continue,html.Screen,4_7_2,2023-11-01T21:41:26.849Z,,0,,,NaN,,,,,,false,,,,135532.30000000447,135532.20000000298,,135532.1000000015,,135547.834,8,400,,,
sequence,flow.Sequence,4_7,2023-11-01T21:41:26.849Z,,0,,,2950.388000002975,completion,,,,,false,,,,135532.6000000015,135532.20000000298,132561.752,132566.20000000298,132581.812,135547.834,8,400,,,
trial,html.Screen,4_8_0,2023-11-01T21:41:30.504Z,,0,1,,3638.6659999999974,response,ISIC_0013842.JPG,12,ISIC_0030508.JPG,ISIC_0013842.JPG,false,1,keypress(m),500,139186.80000000447,139186.5,135525.628,135532.80000000447,135547.834,139204.758,8,400,9,,ISIC_0030508.JPG
break,html.Screen,4_8_1,2023-11-01T21:41:30.505Z,,0,,,NaN,,,,,,false,,,,139188.70000000298,139187.6000000015,,139187,,139204.758,8,400,,,
break_continue,html.Screen,4_8_2,2023-11-01T21:41:30.506Z,,0,,,NaN,,,,,,false,,,,139189.1000000015,139189.1000000015,,139188.8999999985,,139204.758,8,400,,,
sequence,flow.Sequence,4_8,2023-11-01T21:41:30.506Z,,0,,,3641.2660000014876,completion,,,,,false,,,,139189.20000000298,139189.1000000015,135525.628,135532.70000000298,135547.834,139204.758,8,400,,,
trial,html.Screen,4_9_0,2023-11-01T21:41:33.618Z,,0,1,,3095.8420000014885,response,ISIC_9223679.JPG,20,ISIC_7341401.JPG,ISIC_9223679.JPG,false,1,keypress(m),500,142301,142300.6000000015,139179.904,139189.30000000447,139204.758,142318.32,8,400,10,,ISIC_7341401.JPG
break,html.Screen,4_9_1,2023-11-01T21:41:33.620Z,,0,,,NaN,,,,,,false,,,,142302.80000000447,142301.6000000015,,142301.20000000298,,142318.32,8,400,,,
break_continue,html.Screen,4_9_2,2023-11-01T21:41:33.620Z,,0,,,NaN,,,,,,false,,,,142303.20000000298,142303.1000000015,,142302.8999999985,,142318.32,8,400,,,
sequence,flow.Sequence,4_9,2023-11-01T21:41:33.620Z,,0,,,3098.3420000014885,completion,,,,,false,,,,142303.30000000447,142303.1000000015,139179.904,139189.20000000298,139204.758,142318.32,8,400,,,
trial,html.Screen,4_10_0,2023-11-01T21:41:36.986Z,,0,1,,3351.179999999993,response,ISIC_0010283.JPG,10,ISIC_6981061.JPG,ISIC_6981061.JPG,false,0,keypress(z),500,145669.70000000298,145669.5,142292.054,142303.3999999985,142318.32,145685.899,8,400,11,,ISIC_0010283.JPG
break,html.Screen,4_10_1,2023-11-01T21:41:36.987Z,,0,,,NaN,,,,,,false,,,,145670.70000000298,145670.3999999985,,145669.8999999985,,145685.899,8,400,,,
break_continue,html.Screen,4_10_2,2023-11-01T21:41:36.989Z,,0,,,NaN,,,,,,false,,,,145671.8999999985,145671.80000000447,,145671.70000000298,,145685.899,8,400,,,
sequence,flow.Sequence,4_10,2023-11-01T21:41:36.989Z,,0,,,3353.4800000044634,completion,,,,,false,,,,145672,145671.80000000447,142292.054,142303.30000000447,142318.32,145685.899,8,400,,,
trial,html.Screen,4_11_0,2023-11-01T21:41:40.402Z,,0,1,,3399.201000001485,response,ISIC_0031726.JPG,15,ISIC_0070422.JPG,ISIC_0031726.JPG,false,1,keypress(m),500,149085.3999999985,149085.1000000015,145668.724,145672.1000000015,145685.899,149117.366,8,400,12,,ISIC_0070422.JPG
break,html.Screen,4_11_1,2023-11-01T21:41:40.403Z,,0,,,NaN,,,,,,false,,,,149086.30000000447,149086.20000000298,,149085.70000000298,,149117.366,8,400,,,
break_continue,html.Screen,4_11_2,2023-11-01T21:41:40.404Z,,0,,,NaN,,,,,,false,,,,149086.8999999985,149086.70000000298,,149086.5,,149117.366,8,400,,,
sequence,flow.Sequence,4_11,2023-11-01T21:41:40.404Z,,0,,,3400.8010000029753,completion,,,,,false,,,,149087.1000000015,149086.70000000298,145668.724,145672.1000000015,145685.899,149117.366,8,400,,,
trial,html.Screen,4_12_0,2023-11-01T21:41:43.403Z,,0,1,,2968.834000002971,response,ISIC_0054025.JPG,9,ISIC_0009939.JPG,ISIC_0009939.JPG,false,0,keypress(z),500,152086.5,152086.20000000298,149101.116,149087.20000000298,149117.366,152103.848,8,400,13,,ISIC_0054025.JPG
break,html.Screen,4_12_1,2023-11-01T21:41:43.405Z,,0,,,NaN,,,,,,false,,,,152088.3999999985,152087.3999999985,,152086.70000000298,,152103.848,8,400,,,
break_continue,html.Screen,4_12_2,2023-11-01T21:41:43.406Z,,0,,,NaN,,,,,,false,,,,152088.80000000447,152088.80000000447,,152088.6000000015,,152103.848,8,400,,,
sequence,flow.Sequence,4_12,2023-11-01T21:41:43.406Z,,0,,,2971.4340000044613,completion,,,,,false,,,,152088.8999999985,152088.80000000447,149101.116,149087.1000000015,149117.366,152103.848,8,400,,,
trial,html.Screen,4_13_0,2023-11-01T21:41:46.259Z,,0,1,,2838.352000002982,response,ISIC_1919324.JPG,20,ISIC_8325260.JPG,ISIC_1919324.JPG,false,1,keypress(m),500,154942.80000000447,154942.20000000298,152081.733,152089,152103.848,154960.938,8,400,14,,ISIC_8325260.JPG
break,html.Screen,4_13_1,2023-11-01T21:41:46.262Z,,0,,,NaN,,,,,,false,,,,154944.8999999985,154943.70000000298,,154943.1000000015,,154960.938,8,400,,,
break_continue,html.Screen,4_13_2,2023-11-01T21:41:46.262Z,,0,,,NaN,,,,,,false,,,,154945.30000000447,154945.20000000298,,154945,,154960.938,8,400,,,
sequence,flow.Sequence,4_13,2023-11-01T21:41:46.262Z,,0,,,2841.352000002982,completion,,,,,false,,,,154945.5,154945.20000000298,152081.733,152089,152103.848,154960.938,8,400,,,
trial,html.Screen,4_14_0,2023-11-01T21:41:49.086Z,,0,1,,2808.5620000000054,response,ISIC_0000660.JPG,6,ISIC_9989936.JPG,ISIC_0000660.JPG,false,1,keypress(m),500,157769.70000000298,157769.5,154942.489,154945.6000000015,154960.938,157787.585,8,400,15,,ISIC_9989936.JPG
break,html.Screen,4_14_1,2023-11-01T21:41:49.087Z,,0,,,NaN,,,,,,false,,,,157770.80000000447,157770.3999999985,,157769.8999999985,,157787.585,8,400,,,
break_continue,html.Screen,4_14_2,2023-11-01T21:41:49.089Z,,0,,,NaN,,,,,,false,,,,157771.8999999985,157771.80000000447,,157771.6000000015,,157787.585,8,400,,,
sequence,flow.Sequence,4_14,2023-11-01T21:41:49.089Z,,0,,,2810.8620000044757,completion,,,,,false,,,,157772,157771.80000000447,154942.489,154945.6000000015,154960.938,157787.585,8,400,,,
trial,html.Screen,4_15_0,2023-11-01T21:41:51.687Z,,0,1,,2581.814999998518,response,ISIC_1869829.JPG,8,ISIC_0011691.JPG,ISIC_1869829.JPG,false,1,keypress(m),500,160370.1000000015,160369.3999999985,157757.487,157772.1000000015,157787.585,160388.442,8,400,16,,ISIC_0011691.JPG
break,html.Screen,4_15_1,2023-11-01T21:41:51.689Z,,0,,,NaN,,,,,,false,,,,160372.80000000447,160371.6000000015,,160370.6000000015,,160388.442,8,400,,,
break_continue,html.Screen,4_15_2,2023-11-01T21:41:51.690Z,,0,,,NaN,,,,,,false,,,,160373.30000000447,160373.1000000015,,160373,,160388.442,8,400,,,
sequence,flow.Sequence,4_15,2023-11-01T21:41:51.690Z,,0,,,2585.5150000014983,completion,,,,,false,,,,160373.5,160373.1000000015,157757.487,157772,157787.585,160388.442,8,400,,,
trial,html.Screen,4_16_0,2023-11-01T21:41:54.482Z,,0,1,,2776.4579999985,response,ISIC_3425388.JPG,11,ISIC_0025105.JPG,ISIC_3425388.JPG,false,1,keypress(m),500,163165.30000000447,163164.8999999985,160365.555,160373.6000000015,160388.442,163183.223,8,400,17,,ISIC_0025105.JPG
break,html.Screen,4_16_1,2023-11-01T21:41:54.484Z,,0,,,NaN,,,,,,false,,,,163167.20000000298,163166.1000000015,,163165.5,,163183.223,8,400,,,
break_continue,html.Screen,4_16_2,2023-11-01T21:41:54.484Z,,0,,,NaN,,,,,,false,,,,163167.5,163167.5,,163167.3999999985,,163183.223,8,400,,,
sequence,flow.Sequence,4_16,2023-11-01T21:41:54.484Z,,0,,,2779.05799999999,completion,,,,,false,,,,163167.6000000015,163167.5,160365.555,160373.6000000015,160388.442,163183.223,8,400,,,
trial,html.Screen,4_17_0,2023-11-01T21:41:57.499Z,,0,1,,2998.377000001492,response,ISIC_0006730.JPG,8,ISIC_0063753.JPG,ISIC_0006730.JPG,false,1,keypress(m),500,166182,166181.6000000015,163161.573,163167.80000000447,163183.223,166199.972,8,400,18,,ISIC_0063753.JPG
break,html.Screen,4_17_1,2023-11-01T21:41:57.501Z,,0,,,NaN,,,,,,false,,,,166184.1000000015,166183.20000000298,,166182.3999999985,,166199.972,8,400,,,
break_continue,html.Screen,4_17_2,2023-11-01T21:41:57.501Z,,0,,,NaN,,,,,,false,,,,166184.5,166184.3999999985,,166184.20000000298,,166199.972,8,400,,,
sequence,flow.Sequence,4_17,2023-11-01T21:41:57.501Z,,0,,,3001.1769999985117,completion,,,,,false,,,,166184.6000000015,166184.3999999985,163161.573,163167.70000000298,163183.223,166199.972,8,400,,,
trial,html.Screen,4_18_0,2023-11-01T21:42:00.373Z,,0,1,,2856.1280000014813,response,ISIC_0009510.JPG,12,ISIC_9207137.JPG,ISIC_0009510.JPG,false,1,keypress(m),500,169056.30000000447,169056.1000000015,166167.721,166184.80000000447,166199.972,169073.639,8,400,19,,ISIC_9207137.JPG
break,html.Screen,4_18_1,2023-11-01T21:42:00.374Z,,0,,,NaN,,,,,,false,,,,169057.30000000447,169057,,169056.6000000015,,169073.639,8,400,,,
break_continue,html.Screen,4_18_2,2023-11-01T21:42:00.374Z,,0,,,NaN,,,,,,false,,,,169057.6000000015,169057.6000000015,,169057.3999999985,,169073.639,8,400,,,
sequence,flow.Sequence,4_18,2023-11-01T21:42:00.374Z,,0,,,2857.6280000014813,completion,,,,,false,,,,169057.80000000447,169057.6000000015,166167.721,166184.70000000298,166199.972,169073.639,8,400,,,
trial,html.Screen,4_19_0,2023-11-01T21:42:03.322Z,,0,1,,2930.8610000000044,response,ISIC_6824842.JPG,7,ISIC_0054317.JPG,ISIC_6824842.JPG,false,1,keypress(m),500,172004.80000000447,172004.5,169041.598,169057.80000000447,169073.639,172022.816,8,400,20,,ISIC_0054317.JPG
break,html.Screen,4_19_1,2023-11-01T21:42:03.323Z,,0,,,NaN,,,,,,false,,,,172005.8999999985,172005.5,,172005,,172022.816,8,400,,,
break_continue,html.Screen,4_19_2,2023-11-01T21:42:03.324Z,,0,,,NaN,,,,,,false,,,,172006.8999999985,172006.80000000447,,172006.70000000298,,172022.816,8,400,,,
sequence,flow.Sequence,4_19,2023-11-01T21:42:03.324Z,,0,,,2933.1610000044748,completion,,,,,false,,,,172007.1000000015,172006.80000000447,169041.598,169057.80000000447,169073.639,172022.816,8,400,,,
trial,html.Screen,4_20_0,2023-11-01T21:42:06.019Z,,0,1,,2679.4840000044787,response,ISIC_0033332.JPG,8,ISIC_1026382.JPG,ISIC_0033332.JPG,false,1,keypress(m),500,174702.6000000015,174702.30000000447,171993.634,172007.1000000015,172022.816,174720.541,8,400,21,,ISIC_1026382.JPG
break,html.Screen,4_20_1,2023-11-01T21:42:06.021Z,,0,,,NaN,,,,,,false,,,,174704.6000000015,174703.5,,174702.80000000447,,174720.541,8,400,,,
break_continue,html.Screen,4_20_2,2023-11-01T21:42:06.022Z,,0,,,NaN,,,,,,false,,,,174704.8999999985,174704.80000000447,,174704.80000000447,,174720.541,8,400,,,
sequence,flow.Sequence,4_20,2023-11-01T21:42:06.022Z,,0,,,2681.9840000044787,completion,,,,,false,,,,174705,174704.80000000447,171993.634,172007.1000000015,172022.816,174720.541,8,400,,,
trial,html.Screen,4_21_0,2023-11-01T21:42:09.516Z,,0,1,,3478.0590000014927,response,ISIC_0064240.JPG,12,ISIC_0033885.JPG,ISIC_0033885.JPG,false,0,keypress(z),500,178198.8999999985,178198.6000000015,174691.164,174705.1000000015,174720.541,178216.315,8,400,22,,ISIC_0064240.JPG
break,html.Screen,4_21_1,2023-11-01T21:42:09.517Z,,0,,,NaN,,,,,,false,,,,178200.70000000298,178199.70000000298,,178199.1000000015,,178216.315,8,400,,,
break_continue,html.Screen,4_21_2,2023-11-01T21:42:09.518Z,,0,,,NaN,,,,,,false,,,,178201.1000000015,178201,,178200.8999999985,,178216.315,8,400,,,
sequence,flow.Sequence,4_21,2023-11-01T21:42:09.518Z,,0,,,3480.4590000000026,completion,,,,,false,,,,178201.20000000298,178201,174691.164,174705.1000000015,174720.541,178216.315,8,400,,,
trial,html.Screen,4_22_0,2023-11-01T21:42:12.627Z,,0,1,,3093.485000004468,response,ISIC_0025779.JPG,10,ISIC_1782911.JPG,ISIC_0025779.JPG,false,1,keypress(m),500,181310.20000000298,181309.80000000447,178194.486,178201.5,178216.315,181328.04,8,400,23,,ISIC_1782911.JPG
break,html.Screen,4_22_1,2023-11-01T21:42:12.628Z,,0,,,NaN,,,,,,false,,,,181311.30000000447,181310.80000000447,,181310.3999999985,,181328.04,8,400,,,
break_continue,html.Screen,4_22_2,2023-11-01T21:42:12.629Z,,0,,,NaN,,,,,,false,,,,181312.30000000447,181312.20000000298,,181312.1000000015,,181328.04,8,400,,,
sequence,flow.Sequence,4_22,2023-11-01T21:42:12.629Z,,0,,,3095.885000002978,completion,,,,,false,,,,181312.3999999985,181312.20000000298,178194.486,178201.3999999985,178216.315,181328.04,8,400,,,
trial,html.Screen,4_23_0,2023-11-01T21:42:16.811Z,,0,1,,4166.459999999992,response,ISIC_0031045.JPG,17,ISIC_0027266.JPG,ISIC_0027266.JPG,false,0,keypress(z),500,185494.70000000298,185494.5,181296.279,181312.5,181328.04,185512.79,8,400,24,,ISIC_0031045.JPG
break,html.Screen,4_23_1,2023-11-01T21:42:16.812Z,,0,,,NaN,,,,,,false,,,,185495.70000000298,185495.30000000447,,185494.8999999985,,185512.79,8,400,,,
break_continue,html.Screen,4_23_2,2023-11-01T21:42:16.814Z,,0,,,NaN,,,,,,false,,,,185496.8999999985,185496.70000000298,,185495.80000000447,,185512.79,8,400,,,
sequence,flow.Sequence,4_23,2023-11-01T21:42:16.814Z,,0,,,4168.660000002972,completion,,,,,false,,,,185497,185496.70000000298,181296.279,181312.5,181328.04,185512.79,8,400,,,
trial,html.Screen,4_24_0,2023-11-01T21:42:19.407Z,,0,1,,2577.410000002972,response,ISIC_7185036.JPG,10,ISIC_9958062.JPG,ISIC_7185036.JPG,false,1,keypress(m),500,188090.3999999985,188090.20000000298,185487.753,185497,185512.79,188116.676,8,400,25,,ISIC_9958062.JPG
break,html.Screen,4_24_1,2023-11-01T21:42:19.408Z,,0,,,NaN,,,,,,false,,,,188091,188090.8999999985,,188090.6000000015,,188116.676,8,400,,,
break_continue,html.Screen,4_24_2,2023-11-01T21:42:19.408Z,,0,,,NaN,,,,,,false,,,,188091.20000000298,188091.1000000015,,188091.1000000015,,188116.676,8,400,,,
sequence,flow.Sequence,4_24,2023-11-01T21:42:19.408Z,,0,,,2578.310000001482,completion,,,,,false,,,,188091.30000000447,188091.1000000015,185487.753,185497,185512.79,188116.676,8,400,,,
trial,html.Screen,4_25_0,2023-11-01T21:42:23.334Z,,0,1,,3900.1240000044636,response,ISIC_4482610.JPG,10,ISIC_2563948.JPG,ISIC_4482610.JPG,false,1,keypress(m),500,192017.1000000015,192016.80000000447,188100.292,188091.3999999985,188116.676,192035.181,8,400,26,,ISIC_2563948.JPG
break,html.Screen,4_25_1,2023-11-01T21:42:23.335Z,,0,,,NaN,,,,,,false,,,,192018.30000000447,192017.80000000447,,192017.30000000447,,192035.181,8,400,,,
break_continue,html.Screen,4_25_2,2023-11-01T21:42:23.336Z,,0,,,NaN,,,,,,false,,,,192019.3999999985,192019.30000000447,,192019.20000000298,,192035.181,8,400,,,
sequence,flow.Sequence,4_25,2023-11-01T21:42:23.336Z,,0,,,3902.6240000044636,completion,,,,,false,,,,192019.5,192019.30000000447,188100.292,188091.30000000447,188116.676,192035.181,8,400,,,
trial,html.Screen,4_26_0,2023-11-01T21:42:27.085Z,,0,1,,3732.3189999999886,response,ISIC_6145261.JPG,11,ISIC_3471815.JPG,ISIC_3471815.JPG,false,0,keypress(z),500,195767.8999999985,195767.5,192009.682,192019.5,192035.181,195775.978,8,400,27,,ISIC_6145261.JPG
break,html.Screen,4_26_1,2023-11-01T21:42:27.086Z,,0,,,NaN,,,,,,false,,,,195769,195768.6000000015,,195768.1000000015,,195775.978,8,400,,,
break_continue,html.Screen,4_26_2,2023-11-01T21:42:27.086Z,,0,,,NaN,,,,,,false,,,,195769.5,195769.30000000447,,195769.20000000298,,195775.978,8,400,,,
sequence,flow.Sequence,4_26,2023-11-01T21:42:27.086Z,,0,,,3734.119000004459,completion,,,,,false,,,,195769.6000000015,195769.30000000447,192009.682,192019.5,192035.181,195775.978,8,400,,,
trial,html.Screen,4_27_0,2023-11-01T21:42:29.832Z,,0,1,,2738.7220000029774,response,ISIC_8685259.JPG,17,ISIC_2077116.JPG,ISIC_2077116.JPG,false,0,keypress(z),500,198515,198514.70000000298,195761.225,195769.70000000298,195775.978,198533.051,8,400,28,,ISIC_8685259.JPG
break,html.Screen,4_27_1,2023-11-01T21:42:29.834Z,,0,,,NaN,,,,,,false,,,,198517.20000000298,198516,,198515.20000000298,,198533.051,8,400,,,
break_continue,html.Screen,4_27_2,2023-11-01T21:42:29.834Z,,0,,,NaN,,,,,,false,,,,198517.80000000447,198517.6000000015,,198517.5,,198533.051,8,400,,,
sequence,flow.Sequence,4_27,2023-11-01T21:42:29.835Z,,0,,,2741.6220000014873,completion,,,,,false,,,,198517.8999999985,198517.6000000015,195761.225,195769.70000000298,195775.978,198533.051,8,400,,,
trial,html.Screen,4_28_0,2023-11-01T21:42:32.451Z,,0,1,,2600.848999998503,response,ISIC_9348809.JPG,10,ISIC_0063568.JPG,ISIC_9348809.JPG,false,1,keypress(m),500,201134.1000000015,201133.8999999985,198513.29,198518,198533.051,201151.529,8,400,29,,ISIC_0063568.JPG
break,html.Screen,4_28_1,2023-11-01T21:42:32.452Z,,0,,,NaN,,,,,,false,,,,201135.30000000447,201134.8999999985,,201134.30000000447,,201151.529,8,400,,,
break_continue,html.Screen,4_28_2,2023-11-01T21:42:32.453Z,,0,,,NaN,,,,,,false,,,,201136.30000000447,201136.20000000298,,201136.1000000015,,201151.529,8,400,,,
sequence,flow.Sequence,4_28,2023-11-01T21:42:32.453Z,,0,,,2603.1490000029735,completion,,,,,false,,,,201136.3999999985,201136.20000000298,198513.29,198518,198533.051,201151.529,8,400,,,
trial,html.Screen,4_29_0,2023-11-01T21:42:35.015Z,,0,1,,2546.4709999999905,response,ISIC_6768006.JPG,8,ISIC_3564461.JPG,ISIC_3564461.JPG,false,0,keypress(z),500,203698.30000000447,203698,201121.991,201136.5,201151.529,203716.478,8,400,30,,ISIC_6768006.JPG
break,html.Screen,4_29_1,2023-11-01T21:42:35.016Z,,0,,,NaN,,,,,,false,,,,203699.6000000015,203699,,203698.5,,203716.478,8,400,,,
break_continue,html.Screen,4_29_2,2023-11-01T21:42:35.017Z,,0,,,NaN,,,,,,false,,,,203700.70000000298,203700.6000000015,,203700.3999999985,,203716.478,8,400,,,
sequence,flow.Sequence,4_29,2023-11-01T21:42:35.018Z,,0,,,2549.0710000014806,completion,,,,,false,,,,203700.80000000447,203700.6000000015,201121.991,201136.5,201151.529,203716.478,8,400,,,
trial,html.Screen,4_30_0,2023-11-01T21:42:38.867Z,,0,1,,3833.521999999997,response,ISIC_1050000.JPG,9,ISIC_0010817.JPG,ISIC_0010817.JPG,false,0,keypress(z),500,207550.3999999985,207550,203687.405,203701,203716.478,207568.146,8,400,31,,ISIC_1050000.JPG
break,html.Screen,4_30_1,2023-11-01T21:42:38.869Z,,0,,,NaN,,,,,,false,,,,207552.20000000298,207551.20000000298,,207550.6000000015,,207568.146,8,400,,,
break_continue,html.Screen,4_30_2,2023-11-01T21:42:38.869Z,,0,,,NaN,,,,,,false,,,,207552.5,207552.5,,207552.30000000447,,207568.146,8,400,,,
sequence,flow.Sequence,4_30,2023-11-01T21:42:38.869Z,,0,,,3836.021999999997,completion,,,,,false,,,,207552.6000000015,207552.5,203687.405,203700.8999999985,203716.478,207568.146,8,400,,,
trial,html.Screen,4_31_0,2023-11-01T21:42:43.183Z,,0,1,,4297.954000001482,response,ISIC_1438269.JPG,23,ISIC_9058340.JPG,ISIC_9058340.JPG,false,0,keypress(z),500,211866.3999999985,211866.1000000015,207543.869,207552.70000000298,207568.146,211884.531,8,400,32,,ISIC_1438269.JPG
break,html.Screen,4_31_1,2023-11-01T21:42:43.184Z,,0,,,NaN,,,,,,false,,,,211867.70000000298,211867.20000000298,,211866.6000000015,,211884.531,8,400,,,
break_continue,html.Screen,4_31_2,2023-11-01T21:42:43.186Z,,0,,,NaN,,,,,,false,,,,211868.80000000447,211868.70000000298,,211868.6000000015,,211884.531,8,400,,,
sequence,flow.Sequence,4_31,2023-11-01T21:42:43.186Z,,0,,,4300.554000002972,completion,,,,,false,,,,211868.8999999985,211868.70000000298,207543.869,207552.6000000015,207568.146,211884.531,8,400,,,
trial,html.Screen,4_32_0,2023-11-01T21:42:46.454Z,,0,1,,3252.569000001502,response,ISIC_0032638.JPG,7,ISIC_6373500.JPG,ISIC_6373500.JPG,false,0,keypress(z),500,215137.5,215137.1000000015,211864.527,211869,211884.531,215155.345,8,400,33,,ISIC_0032638.JPG
break,html.Screen,4_32_1,2023-11-01T21:42:46.455Z,,0,,,NaN,,,,,,false,,,,215138.3999999985,215138,,215137.70000000298,,215155.345,8,400,,,
break_continue,html.Screen,4_32_2,2023-11-01T21:42:46.456Z,,0,,,NaN,,,,,,false,,,,215139.6000000015,215139.5,,215139.3999999985,,215155.345,8,400,,,
sequence,flow.Sequence,4_32,2023-11-01T21:42:46.456Z,,0,,,3254.969000000012,completion,,,,,false,,,,215139.70000000298,215139.5,211864.527,211869,211884.531,215155.345,8,400,,,
trial,html.Screen,4_33_0,2023-11-01T21:42:50.529Z,,0,1,,4057.0549999985087,response,ISIC_0009441.JPG,29,ISIC_0028326.JPG,ISIC_0009441.JPG,false,1,keypress(m),500,219212.70000000298,219212.3999999985,215126.895,215139.80000000447,215155.345,219230.916,8,400,34,,ISIC_0028326.JPG
break,html.Screen,4_33_1,2023-11-01T21:42:50.531Z,,0,,,NaN,,,,,,false,,,,219213.8999999985,219213.5,,219212.8999999985,,219230.916,8,400,,,
break_continue,html.Screen,4_33_2,2023-11-01T21:42:50.532Z,,0,,,NaN,,,,,,false,,,,219215,219214.8999999985,,219214.80000000447,,219230.916,8,400,,,
sequence,flow.Sequence,4_33,2023-11-01T21:42:50.532Z,,0,,,4059.5549999985087,completion,,,,,false,,,,219215.1000000015,219214.8999999985,215126.895,215139.70000000298,215155.345,219230.916,8,400,,,
trial,html.Screen,4_34_0,2023-11-01T21:42:54.140Z,,0,1,,3591.784000002983,response,ISIC_0808203.JPG,8,ISIC_7327423.JPG,ISIC_7327423.JPG,false,0,keypress(z),500,222823,222822.70000000298,219207.18,219215.30000000447,219230.916,222841.048,8,400,35,,ISIC_0808203.JPG
break,html.Screen,4_34_1,2023-11-01T21:42:54.142Z,,0,,,NaN,,,,,,false,,,,222825,222823.8999999985,,222823.30000000447,,222841.048,8,400,,,
break_continue,html.Screen,4_34_2,2023-11-01T21:42:54.142Z,,0,,,NaN,,,,,,false,,,,222825.30000000447,222825.20000000298,,222825.1000000015,,222841.048,8,400,,,
sequence,flow.Sequence,4_34,2023-11-01T21:42:54.142Z,,0,,,3594.284000002983,completion,,,,,false,,,,222825.3999999985,222825.20000000298,219207.18,219215.30000000447,219230.916,222841.048,8,400,,,
trial,html.Screen,4_35_0,2023-11-01T21:42:57.140Z,,0,1,,2981.6520000029705,response,ISIC_0055440.JPG,7,ISIC_7017387.JPG,ISIC_7017387.JPG,false,0,keypress(z),500,225823.1000000015,225822.70000000298,222813.906,222825.6000000015,222841.048,225840.655,8,400,36,,ISIC_0055440.JPG
break,html.Screen,4_35_1,2023-11-01T21:42:57.142Z,,0,,,NaN,,,,,,false,,,,225825.30000000447,225824.20000000298,,225823.5,,225840.655,8,400,,,
break_continue,html.Screen,4_35_2,2023-11-01T21:42:57.142Z,,0,,,NaN,,,,,,false,,,,225825.6000000015,225825.3999999985,,225825.30000000447,,225840.655,8,400,,,
sequence,flow.Sequence,4_35,2023-11-01T21:42:57.142Z,,0,,,2984.3519999985,completion,,,,,false,,,,225825.70000000298,225825.3999999985,222813.906,222825.5,222841.048,225840.655,8,400,,,
trial,html.Screen,4_36_0,2023-11-01T21:43:00.972Z,,0,1,,3814.845000000001,response,ISIC_6653311.JPG,13,ISIC_3727059.JPG,ISIC_6653311.JPG,false,1,keypress(m),500,229655.80000000447,229655.5,225817.802,225825.80000000447,225840.655,229673.347,8,400,37,,ISIC_3727059.JPG
break,html.Screen,4_36_1,2023-11-01T21:43:00.974Z,,0,,,NaN,,,,,,false,,,,229657.6000000015,229656.5,,229656,,229673.347,8,400,,,
break_continue,html.Screen,4_36_2,2023-11-01T21:43:00.975Z,,0,,,NaN,,,,,,false,,,,229658.20000000298,229658.1000000015,,229658,,229673.347,8,400,,,
sequence,flow.Sequence,4_36,2023-11-01T21:43:00.975Z,,0,,,3817.4450000014913,completion,,,,,false,,,,229658.30000000447,229658.1000000015,225817.802,225825.70000000298,225840.655,229673.347,8,400,,,
trial,html.Screen,4_37_0,2023-11-01T21:43:03.844Z,,0,1,,2853.652999999991,response,ISIC_6785680.JPG,11,ISIC_4363603.JPG,ISIC_4363603.JPG,false,0,keypress(z),500,232527.20000000298,232527,229644.378,229658.3999999985,229673.347,232544.261,8,400,38,,ISIC_6785680.JPG
break,html.Screen,4_37_1,2023-11-01T21:43:03.846Z,,0,,,NaN,,,,,,false,,,,232528.8999999985,232527.70000000298,,232527.3999999985,,232544.261,8,400,,,
break_continue,html.Screen,4_37_2,2023-11-01T21:43:03.846Z,,0,,,NaN,,,,,,false,,,,232529.1000000015,232529.1000000015,,232529,,232544.261,8,400,,,
sequence,flow.Sequence,4_37,2023-11-01T21:43:03.846Z,,0,,,2855.7530000014813,completion,,,,,false,,,,232529.30000000447,232529.1000000015,229644.378,229658.30000000447,229673.347,232544.261,8,400,,,
trial,html.Screen,4_38_0,2023-11-01T21:43:07.608Z,,0,1,,3746.5390000044717,response,ISIC_0065128.JPG,8,ISIC_0064979.JPG,ISIC_0064979.JPG,false,0,keypress(z),500,236291.1000000015,236290.80000000447,232520.446,232529.30000000447,232544.261,236308.514,8,400,39,,ISIC_0065128.JPG
break,html.Screen,4_38_1,2023-11-01T21:43:07.610Z,,0,,,NaN,,,,,,false,,,,236292.8999999985,236291.80000000447,,236291.20000000298,,236308.514,8,400,,,
break_continue,html.Screen,4_38_2,2023-11-01T21:43:07.610Z,,0,,,NaN,,,,,,false,,,,236293.30000000447,236293.20000000298,,236293.1000000015,,236308.514,8,400,,,
sequence,flow.Sequence,4_38,2023-11-01T21:43:07.610Z,,0,,,3748.9390000029816,completion,,,,,false,,,,236293.3999999985,236293.20000000298,232520.446,232529.30000000447,232544.261,236308.514,8,400,,,
trial,html.Screen,4_39_0,2023-11-01T21:43:11.746Z,,0,1,,4120.786000004475,response,ISIC_9512048.JPG,10,ISIC_0026039.JPG,ISIC_9512048.JPG,false,1,keypress(m),500,240429.6000000015,240429.30000000447,236284.646,236293.6000000015,236308.514,240446.744,8,400,40,,ISIC_0026039.JPG
break,html.Screen,4_39_1,2023-11-01T21:43:11.747Z,,0,,,NaN,,,,,,false,,,,240430.3999999985,240430.1000000015,,240429.70000000298,,240446.744,8,400,,,
break_continue,html.Screen,4_39_2,2023-11-01T21:43:11.748Z,,0,,,NaN,,,,,,false,,,,240431.5,240431.3999999985,,240431.30000000447,,240446.744,8,400,,,
sequence,flow.Sequence,4_39,2023-11-01T21:43:11.748Z,,0,,,4122.885999998514,completion,,,,,false,,,,240431.5,240431.3999999985,236284.646,236293.6000000015,236308.514,240446.744,8,400,,,
trial,html.Screen,4_40_0,2023-11-01T21:43:16.093Z,,0,1,,4328.655999998504,response,ISIC_0579047.JPG,30,ISIC_0054914.JPG,ISIC_0579047.JPG,false,1,keypress(m),500,244775.70000000298,244775.3999999985,240421.472,240431.6000000015,240446.744,244793.593,8,400,41,,ISIC_0054914.JPG
break,html.Screen,4_40_1,2023-11-01T21:43:16.094Z,,0,,,NaN,,,,,,false,,,,244777.70000000298,244776.6000000015,,244776.1000000015,,244793.593,8,400,,,
break_continue,html.Screen,4_40_2,2023-11-01T21:43:16.095Z,,0,,,NaN,,,,,,false,,,,244778,244777.8999999985,,244777.80000000447,,244793.593,8,400,,,
sequence,flow.Sequence,4_40,2023-11-01T21:43:16.095Z,,0,,,4331.155999998504,completion,,,,,false,,,,244778.1000000015,244777.8999999985,240421.472,240431.6000000015,240446.744,244793.593,8,400,,,
trial,html.Screen,4_41_0,2023-11-01T21:43:18.919Z,,0,1,,2808.1070000029868,response,ISIC_8887039.JPG,12,ISIC_0064692.JPG,ISIC_0064692.JPG,false,0,keypress(z),500,247602.1000000015,247601.70000000298,244773.795,244778.20000000298,244793.593,247620.034,8,400,42,,ISIC_8887039.JPG
break,html.Screen,4_41_1,2023-11-01T21:43:18.920Z,,0,,,NaN,,,,,,false,,,,247603.30000000447,247602.80000000447,,247602.3999999985,,247620.034,8,400,,,
break_continue,html.Screen,4_41_2,2023-11-01T21:43:18.921Z,,0,,,NaN,,,,,,false,,,,247604.5,247604.3999999985,,247604.30000000447,,247620.034,8,400,,,
sequence,flow.Sequence,4_41,2023-11-01T21:43:18.921Z,,0,,,2810.8069999985164,completion,,,,,false,,,,247604.70000000298,247604.3999999985,244773.795,244778.20000000298,244793.593,247620.034,8,400,,,
trial,html.Screen,4_42_0,2023-11-01T21:43:21.662Z,,0,1,,2724.566000001476,response,ISIC_0046331.JPG,10,ISIC_2171940.JPG,ISIC_0046331.JPG,false,1,keypress(m),500,250345,250344.6000000015,247589.753,247604.70000000298,247620.034,250363.998,8,400,43,,ISIC_2171940.JPG
break,html.Screen,4_42_1,2023-11-01T21:43:21.663Z,,0,,,NaN,,,,,,false,,,,250345.8999999985,250345.70000000298,,250345.3999999985,,250363.998,8,400,,,
break_continue,html.Screen,4_42_2,2023-11-01T21:43:21.663Z,,0,,,NaN,,,,,,false,,,,250346.20000000298,250346.1000000015,,250346.1000000015,,250363.998,8,400,,,
sequence,flow.Sequence,4_42,2023-11-01T21:43:21.663Z,,0,,,2726.066000001476,completion,,,,,false,,,,250346.30000000447,250346.1000000015,247589.753,247604.70000000298,247620.034,250363.998,8,400,,,
trial,html.Screen,4_43_0,2023-11-01T21:43:24.326Z,,0,1,,2644.9019999985176,response,ISIC_0060089.JPG,10,ISIC_7852890.JPG,ISIC_0060089.JPG,false,1,keypress(m),500,253009.1000000015,253008.8999999985,250347.075,250346.5,250363.998,253029.323,8,400,44,,ISIC_7852890.JPG
break,html.Screen,4_43_1,2023-11-01T21:43:24.327Z,,0,,,NaN,,,,,,false,,,,253009.8999999985,253009.70000000298,,253009.3999999985,,253029.323,8,400,,,
break_continue,html.Screen,4_43_2,2023-11-01T21:43:24.327Z,,0,,,NaN,,,,,,false,,,,253010.20000000298,253010.1000000015,,253010,,253029.323,8,400,,,
sequence,flow.Sequence,4_43,2023-11-01T21:43:24.327Z,,0,,,2646.102000001498,completion,,,,,false,,,,253010.30000000447,253010.1000000015,250347.075,250346.3999999985,250363.998,253029.323,8,400,,,
trial,html.Screen,4_44_0,2023-11-01T21:43:27.948Z,,0,1,,3601.576999998506,response,ISIC_0025589.JPG,6,ISIC_2395624.JPG,ISIC_2395624.JPG,false,0,keypress(z),500,256631.30000000447,256630.8999999985,252996.088,253010.3999999985,253029.323,256649.102,8,400,45,,ISIC_0025589.JPG
break,html.Screen,4_44_1,2023-11-01T21:43:27.950Z,,0,,,NaN,,,,,,false,,,,256633.5,256632.30000000447,,256631.6000000015,,256649.102,8,400,,,
break_continue,html.Screen,4_44_2,2023-11-01T21:43:27.951Z,,0,,,NaN,,,,,,false,,,,256634.20000000298,256634.1000000015,,256633.8999999985,,256649.102,8,400,,,
sequence,flow.Sequence,4_44,2023-11-01T21:43:27.951Z,,0,,,3604.777000001486,completion,,,,,false,,,,256634.3999999985,256634.1000000015,252996.088,253010.3999999985,253029.323,256649.102,8,400,,,
trial,html.Screen,4_45_0,2023-11-01T21:43:30.580Z,,0,1,,2613.4980000014766,response,ISIC_6673956.JPG,11,ISIC_0060626.JPG,ISIC_0060626.JPG,false,0,keypress(z),500,259263,259262.6000000015,256620,256634.5,256649.102,259298.02,8,400,46,,ISIC_6673956.JPG
break,html.Screen,4_45_1,2023-11-01T21:43:30.581Z,,0,,,NaN,,,,,,false,,,,259264.3999999985,259263.70000000298,,259263.20000000298,,259298.02,8,400,,,
break_continue,html.Screen,4_45_2,2023-11-01T21:43:30.582Z,,0,,,NaN,,,,,,false,,,,259265.5,259265.3999999985,,259265.30000000447,,259298.02,8,400,,,
sequence,flow.Sequence,4_45,2023-11-01T21:43:30.583Z,,0,,,2616.2979999984964,completion,,,,,false,,,,259266.6000000015,259265.3999999985,256620,256634.5,256649.102,259298.02,8,400,,,
trial,html.Screen,4_46_0,2023-11-01T21:43:34.620Z,,0,1,,4004.8799999985204,response,ISIC_0060222.JPG,10,ISIC_0356904.JPG,ISIC_0356904.JPG,false,0,keypress(z),500,263303.200000003,263302.8999999985,259281.238,259266.70000000298,259298.02,263310.628,8,400,47,,ISIC_0060222.JPG
break,html.Screen,4_46_1,2023-11-01T21:43:34.621Z,,0,,,NaN,,,,,,false,,,,263304.200000003,263303.700000003,,263303.30000000447,,263310.628,8,400,,,
break_continue,html.Screen,4_46_2,2023-11-01T21:43:34.621Z,,0,,,NaN,,,,,,false,,,,263304.6000000015,263304.5,,263304.30000000447,,263310.628,8,400,,,
sequence,flow.Sequence,4_46,2023-11-01T21:43:34.621Z,,0,,,4006.4800000000105,completion,,,,,false,,,,263304.700000003,263304.5,259281.238,259266.6000000015,259298.02,263310.628,8,400,,,
trial,html.Screen,4_47_0,2023-11-01T21:43:37.236Z,,0,1,,2608.472000001464,response,ISIC_2463014.JPG,11,ISIC_1117369.JPG,ISIC_2463014.JPG,false,1,keypress(m),500,265919.3999999985,265919.1000000015,263294.899,263304.700000003,263310.628,265937.547,8,400,48,,ISIC_1117369.JPG
break,html.Screen,4_47_1,2023-11-01T21:43:37.237Z,,0,,,NaN,,,,,,false,,,,265920.6000000015,265920.1000000015,,265919.700000003,,265937.547,8,400,,,
break_continue,html.Screen,4_47_2,2023-11-01T21:43:37.238Z,,0,,,NaN,,,,,,false,,,,265921.700000003,265921.6000000015,,265921.6000000015,,265937.547,8,400,,,
sequence,flow.Sequence,4_47,2023-11-01T21:43:37.239Z,,0,,,2610.972000001464,completion,,,,,false,,,,265921.80000000447,265921.6000000015,263294.899,263304.700000003,263310.628,265937.547,8,400,,,
trial,html.Screen,4_48_0,2023-11-01T21:43:40.395Z,,0,1,,3139.9529999999795,response,ISIC_0437978.JPG,5,ISIC_0060700.JPG,ISIC_0437978.JPG,false,1,keypress(m),500,269077.80000000447,269077.5,265919.532,265921.8999999985,265937.547,269095.862,8,400,49,,ISIC_0060700.JPG
break,html.Screen,4_48_1,2023-11-01T21:43:40.397Z,,0,,,NaN,,,,,,false,,,,269079.80000000447,269078.5,,269078.1000000015,,269095.862,8,400,,,
break_continue,html.Screen,4_48_2,2023-11-01T21:43:40.397Z,,0,,,NaN,,,,,,false,,,,269080.1000000015,269080.1000000015,,269079.8999999985,,269095.862,8,400,,,
sequence,flow.Sequence,4_48,2023-11-01T21:43:40.397Z,,0,,,3142.5530000014696,completion,,,,,false,,,,269080.30000000447,269080.1000000015,265919.532,265921.8999999985,265937.547,269095.862,8,400,,,
trial,html.Screen,4_49_0,2023-11-01T21:43:47.426Z,,0,1,,7013.137999999977,response,ISIC_0058926.JPG,9,ISIC_4074537.JPG,ISIC_4074537.JPG,false,0,keypress(z),500,276109.30000000447,276109,269069.53,269080.30000000447,269095.862,276123.197,8,400,50,,ISIC_0058926.JPG
break,html.Screen,4_49_1,2023-11-01T21:43:57.428Z,,0,,,10003.223999999987,timeout,,,,,false,,,,286111.200000003,286109.747,276101.485,276109.6000000015,276123.197,286126.421,8,400,,,
break_continue,html.Screen,4_49_2,2023-11-01T21:43:59.889Z,,0,,,2431.7790000030072,response,,,,,false,continue,keypress(Space),,288572.700000003,288558.200000003,286109.747,286111.30000000447,286126.421,288589.369,8,400,,,
sequence,flow.Sequence,4_49,2023-11-01T21:43:59.890Z,,0,,,19462.338000002957,completion,,,,,false,,,,288572.80000000447,288558.200000003,269069.53,269080.30000000447,269095.862,288589.369,8,400,,,
trial,html.Screen,4_50_0,2023-11-01T21:44:02.919Z,,0,2,,3012.130999999994,response,ISIC_4554381.JPG,4,ISIC_6912979.JPG,ISIC_6912979.JPG,false,0,keypress(z),500,291601.80000000447,291601.5,288561.522,288572.8999999985,288589.369,291619.031,8,400,1,,ISIC_4554381.JPG
break,html.Screen,4_50_1,2023-11-01T21:44:02.920Z,,0,,,NaN,,,,,,false,,,,291603.3999999985,291602.3999999985,,291602,,291619.031,8,400,,,
break_continue,html.Screen,4_50_2,2023-11-01T21:44:02.920Z,,0,,,NaN,,,,,,false,,,,291603.700000003,291603.6000000015,,291603.3999999985,,291619.031,8,400,,,
sequence,flow.Sequence,4_50,2023-11-01T21:44:02.920Z,,0,,,3014.231000001484,completion,,,,,false,,,,291603.80000000447,291603.6000000015,288561.522,288572.8999999985,288589.369,291619.031,8,400,,,
trial,html.Screen,4_51_0,2023-11-01T21:44:05.635Z,,0,2,,2691.069000001473,response,ISIC_0071834.JPG,5,ISIC_6299036.JPG,ISIC_6299036.JPG,false,0,keypress(z),500,294317.80000000447,294310.1000000015,291587.828,291603.80000000447,291619.031,294335.135,8,400,2,,ISIC_0071834.JPG
break,html.Screen,4_51_1,2023-11-01T21:44:05.636Z,,0,,,NaN,,,,,,false,,,,294319.700000003,294318.6000000015,,294318,,294335.135,8,400,,,
break_continue,html.Screen,4_51_2,2023-11-01T21:44:05.637Z,,0,,,NaN,,,,,,false,,,,294320,294319.8999999985,,294319.80000000447,,294335.135,8,400,,,
sequence,flow.Sequence,4_51,2023-11-01T21:44:05.637Z,,0,,,2700.8689999984927,completion,,,,,false,,,,294320.200000003,294319.8999999985,291587.828,291603.80000000447,291619.031,294335.135,8,400,,,
trial,html.Screen,4_52_0,2023-11-01T21:44:08.586Z,,0,2,,2934.065000002971,response,ISIC_1985436.JPG,11,ISIC_9417173.JPG,ISIC_9417173.JPG,false,0,keypress(z),500,297269.3999999985,297269.200000003,294315.823,294320.30000000447,294335.135,297287.288,8,400,3,,ISIC_1985436.JPG
break,html.Screen,4_52_1,2023-11-01T21:44:08.587Z,,0,,,NaN,,,,,,false,,,,297270.5,297270.1000000015,,297269.6000000015,,297287.288,8,400,,,
break_continue,html.Screen,4_52_2,2023-11-01T21:44:08.588Z,,0,,,NaN,,,,,,false,,,,297271.700000003,297271.6000000015,,297270.700000003,,297287.288,8,400,,,
sequence,flow.Sequence,4_52,2023-11-01T21:44:08.589Z,,0,,,2936.465000001481,completion,,,,,false,,,,297271.80000000447,297271.6000000015,294315.823,294320.200000003,294335.135,297287.288,8,400,,,
trial,html.Screen,4_53_0,2023-11-01T21:44:12.884Z,,0,2,,4280.01200000447,response,ISIC_0053960.JPG,7,ISIC_0061265.JPG,ISIC_0053960.JPG,false,1,keypress(m),500,301567.5,301567.30000000447,297256.906,297271.80000000447,297287.288,301600.319,8,400,4,,ISIC_0061265.JPG
break,html.Screen,4_53_1,2023-11-01T21:44:12.885Z,,0,,,NaN,,,,,,false,,,,301568.1000000015,301568,,301567.700000003,,301600.319,8,400,,,
break_continue,html.Screen,4_53_2,2023-11-01T21:44:12.885Z,,0,,,NaN,,,,,,false,,,,301568.30000000447,301568.30000000447,,301568.200000003,,301600.319,8,400,,,
sequence,flow.Sequence,4_53,2023-11-01T21:44:12.885Z,,0,,,4281.01200000447,completion,,,,,false,,,,301568.3999999985,301568.30000000447,297256.906,297271.80000000447,297287.288,301600.319,8,400,,,
trial,html.Screen,4_54_0,2023-11-01T21:44:16.700Z,,0,2,,3782.3810000029625,response,ISIC_0026356.JPG,10,ISIC_4680417.JPG,ISIC_0026356.JPG,false,1,keypress(m),500,305382.8999999985,305382.700000003,301583.533,301568.5,301600.319,305400.242,8,400,5,,ISIC_4680417.JPG
break,html.Screen,4_54_1,2023-11-01T21:44:16.701Z,,0,,,NaN,,,,,,false,,,,305384.700000003,305383.3999999985,,305383.1000000015,,305400.242,8,400,,,
break_continue,html.Screen,4_54_2,2023-11-01T21:44:16.702Z,,0,,,NaN,,,,,,false,,,,305385,305384.8999999985,,305384.80000000447,,305400.242,8,400,,,
sequence,flow.Sequence,4_54,2023-11-01T21:44:16.702Z,,0,,,3784.580999998492,completion,,,,,false,,,,305385.1000000015,305384.8999999985,301583.533,301568.3999999985,301600.319,305400.242,8,400,,,
trial,html.Screen,4_55_0,2023-11-01T21:44:19.365Z,,0,2,,2647.1579999984824,response,ISIC_0012756.JPG,26,ISIC_0014480.JPG,ISIC_0014480.JPG,false,0,keypress(z),500,308047.80000000447,308047.3999999985,305379.984,305385.200000003,305400.242,308065.764,8,400,6,,ISIC_0012756.JPG
break,html.Screen,4_55_1,2023-11-01T21:44:19.367Z,,0,,,NaN,,,,,,false,,,,308049.80000000447,308048.5,,308048,,308065.764,8,400,,,
break_continue,html.Screen,4_55_2,2023-11-01T21:44:19.367Z,,0,,,NaN,,,,,,false,,,,308050.1000000015,308050.1000000015,,308049.8999999985,,308065.764,8,400,,,
sequence,flow.Sequence,4_55,2023-11-01T21:44:19.367Z,,0,,,2649.8580000014626,completion,,,,,false,,,,308050.200000003,308050.1000000015,305379.984,305385.200000003,305400.242,308065.764,8,400,,,
trial,html.Screen,4_56_0,2023-11-01T21:44:22.346Z,,0,2,,2963.135999998485,response,ISIC_0000519.JPG,6,ISIC_0068100.JPG,ISIC_0068100.JPG,false,0,keypress(z),500,311029.200000003,311028.8999999985,308033.369,308050.30000000447,308065.764,311046.765,8,400,7,,ISIC_0000519.JPG
break,html.Screen,4_56_1,2023-11-01T21:44:22.348Z,,0,,,NaN,,,,,,false,,,,311031.1000000015,311030,,311029.3999999985,,311046.765,8,400,,,
break_continue,html.Screen,4_56_2,2023-11-01T21:44:22.348Z,,0,,,NaN,,,,,,false,,,,311031.3999999985,311031.30000000447,,311031.30000000447,,311046.765,8,400,,,
sequence,flow.Sequence,4_56,2023-11-01T21:44:22.348Z,,0,,,2965.5360000044457,completion,,,,,false,,,,311031.6000000015,311031.30000000447,308033.369,308050.30000000447,308065.764,311046.765,8,400,,,
trial,html.Screen,4_57_0,2023-11-01T21:44:25.365Z,,0,2,,3000.734999999986,response,ISIC_0000135.JPG,11,ISIC_0057067.JPG,ISIC_0000135.JPG,false,1,keypress(m),500,314047.8999999985,314047.5,311022.775,311031.6000000015,311046.765,314065.857,8,400,8,,ISIC_0057067.JPG
break,html.Screen,4_57_1,2023-11-01T21:44:25.367Z,,0,,,NaN,,,,,,false,,,,314049,314048.5,,314048.1000000015,,314065.857,8,400,,,
break_continue,html.Screen,4_57_2,2023-11-01T21:44:25.367Z,,0,,,NaN,,,,,,false,,,,314050.1000000015,314050,,314049.8999999985,,314065.857,8,400,,,
sequence,flow.Sequence,4_57,2023-11-01T21:44:25.367Z,,0,,,3003.234999999986,completion,,,,,false,,,,314050.200000003,314050,311022.775,311031.6000000015,311046.765,314065.857,8,400,,,
trial,html.Screen,4_58_0,2023-11-01T21:44:27.887Z,,0,2,,2503.5429999984917,response,ISIC_0010597.JPG,8,ISIC_9222136.JPG,ISIC_9222136.JPG,false,0,keypress(z),500,316569.8999999985,316569.3999999985,314038.798,314050.30000000447,314065.857,316587.753,8,400,9,,ISIC_0010597.JPG
break,html.Screen,4_58_1,2023-11-01T21:44:27.889Z,,0,,,NaN,,,,,,false,,,,316571.8999999985,316570.80000000447,,316570.1000000015,,316587.753,8,400,,,
break_continue,html.Screen,4_58_2,2023-11-01T21:44:27.889Z,,0,,,NaN,,,,,,false,,,,316572.30000000447,316572.1000000015,,316572,,316587.753,8,400,,,
sequence,flow.Sequence,4_58,2023-11-01T21:44:27.889Z,,0,,,2506.243000001472,completion,,,,,false,,,,316572.3999999985,316572.1000000015,314038.798,314050.200000003,314065.857,316587.753,8,400,,,
trial,html.Screen,4_59_0,2023-11-01T21:44:32.714Z,,0,2,,4808.746999999974,response,ISIC_0066674.JPG,12,ISIC_0062547.JPG,ISIC_0066674.JPG,false,1,keypress(m),500,321396.8999999985,321396.5,316556.171,316572.3999999985,316587.753,321414.767,8,400,10,,ISIC_0062547.JPG
break,html.Screen,4_59_1,2023-11-01T21:44:32.716Z,,0,,,NaN,,,,,,false,,,,321399.3999999985,321398.1000000015,,321397.200000003,,321414.767,8,400,,,
break_continue,html.Screen,4_59_2,2023-11-01T21:44:32.717Z,,0,,,NaN,,,,,,false,,,,321399.8999999985,321399.80000000447,,321399.6000000015,,321414.767,8,400,,,
sequence,flow.Sequence,4_59,2023-11-01T21:44:32.717Z,,0,,,4812.047000004444,completion,,,,,false,,,,321400.200000003,321399.80000000447,316556.171,316572.3999999985,316587.753,321414.767,8,400,,,
trial,html.Screen,4_60_0,2023-11-01T21:44:35.749Z,,0,2,,3016.7330000000075,response,ISIC_2075121.JPG,11,ISIC_1353668.JPG,ISIC_2075121.JPG,false,1,keypress(m),500,324431.80000000447,324431.5,321397.975,321400.30000000447,321414.767,324449.994,8,400,11,,ISIC_1353668.JPG
break,html.Screen,4_60_1,2023-11-01T21:44:35.751Z,,0,,,NaN,,,,,,false,,,,324433.8999999985,324432.6000000015,,324432.1000000015,,324449.994,8,400,,,
break_continue,html.Screen,4_60_2,2023-11-01T21:44:35.751Z,,0,,,NaN,,,,,,false,,,,324434.30000000447,324434.200000003,,324434,,324449.994,8,400,,,
sequence,flow.Sequence,4_60,2023-11-01T21:44:35.751Z,,0,,,3019.4330000029877,completion,,,,,false,,,,324434.3999999985,324434.200000003,321397.975,321400.30000000447,321414.767,324449.994,8,400,,,
trial,html.Screen,4_61_0,2023-11-01T21:44:40.894Z,,0,2,,5126.706000002974,response,ISIC_6004197.JPG,21,ISIC_6806124.JPG,ISIC_6806124.JPG,false,0,keypress(z),500,329577.1000000015,329576.700000003,324422.31,324434.5,324449.994,329595.036,8,400,12,,ISIC_6004197.JPG
break,html.Screen,4_61_1,2023-11-01T21:44:40.895Z,,0,,,NaN,,,,,,false,,,,329578.200000003,329577.700000003,,329577.30000000447,,329595.036,8,400,,,
break_continue,html.Screen,4_61_2,2023-11-01T21:44:40.896Z,,0,,,NaN,,,,,,false,,,,329579.30000000447,329579.1000000015,,329579,,329595.036,8,400,,,
sequence,flow.Sequence,4_61,2023-11-01T21:44:40.896Z,,0,,,5129.106000001484,completion,,,,,false,,,,329579.30000000447,329579.1000000015,324422.31,324434.3999999985,324449.994,329595.036,8,400,,,
trial,html.Screen,4_62_0,2023-11-01T21:44:43.606Z,,0,2,,2694.363999998488,response,ISIC_0013316.JPG,5,ISIC_0028275.JPG,ISIC_0013316.JPG,false,1,keypress(m),500,332289.700000003,332289.3999999985,329567.119,329579.5,329595.036,332307.432,8,400,13,,ISIC_0028275.JPG
break,html.Screen,4_62_1,2023-11-01T21:44:43.608Z,,0,,,NaN,,,,,,false,,,,332290.80000000447,332290.3999999985,,332289.8999999985,,332307.432,8,400,,,
break_continue,html.Screen,4_62_2,2023-11-01T21:44:43.609Z,,0,,,NaN,,,,,,false,,,,332292.1000000015,332291.80000000447,,332291.700000003,,332307.432,8,400,,,
sequence,flow.Sequence,4_62,2023-11-01T21:44:43.609Z,,0,,,2696.7640000044485,completion,,,,,false,,,,332292.200000003,332291.80000000447,329567.119,329579.3999999985,329595.036,332307.432,8,400,,,
trial,html.Screen,4_63_0,2023-11-01T21:44:49.023Z,,0,2,,5398.268000003009,response,ISIC_8689112.JPG,5,ISIC_9727132.JPG,ISIC_8689112.JPG,false,1,keypress(m),500,337706,337705.700000003,332290.099,332292.30000000447,332307.432,337723.832,8,400,14,,ISIC_9727132.JPG
break,html.Screen,4_63_1,2023-11-01T21:44:49.025Z,,0,,,NaN,,,,,,false,,,,337708.200000003,337706.700000003,,337706.200000003,,337723.832,8,400,,,
break_continue,html.Screen,4_63_2,2023-11-01T21:44:49.025Z,,0,,,NaN,,,,,,false,,,,337708.3999999985,337708.3999999985,,337708.30000000447,,337723.832,8,400,,,
sequence,flow.Sequence,4_63,2023-11-01T21:44:49.025Z,,0,,,5400.967999998538,completion,,,,,false,,,,337708.6000000015,337708.3999999985,332290.099,332292.200000003,332307.432,337723.832,8,400,,,
trial,html.Screen,4_64_0,2023-11-01T21:44:52.165Z,,0,2,,3123.9680000044755,response,ISIC_6336926.JPG,5,ISIC_0028949.JPG,ISIC_6336926.JPG,false,1,keypress(m),500,340848,340847.80000000447,337705.971,337708.6000000015,337723.832,340865.262,8,400,15,,ISIC_0028949.JPG
break,html.Screen,4_64_1,2023-11-01T21:44:52.167Z,,0,,,NaN,,,,,,false,,,,340850,340848.700000003,,340848.30000000447,,340865.262,8,400,,,
break_continue,html.Screen,4_64_2,2023-11-01T21:44:52.167Z,,0,,,NaN,,,,,,false,,,,340850.200000003,340850.200000003,,340850,,340865.262,8,400,,,
sequence,flow.Sequence,4_64,2023-11-01T21:44:52.167Z,,0,,,3126.3680000029854,completion,,,,,false,,,,340850.30000000447,340850.200000003,337705.971,337708.6000000015,337723.832,340865.262,8,400,,,
trial,html.Screen,4_65_0,2023-11-01T21:44:55.098Z,,0,2,,2915.5380000044825,response,ISIC_0054185.JPG,21,ISIC_0046471.JPG,ISIC_0054185.JPG,false,1,keypress(m),500,343781.200000003,343780.80000000447,340847.929,340850.3999999985,340865.262,343798.93,8,400,16,,ISIC_0046471.JPG
break,html.Screen,4_65_1,2023-11-01T21:44:55.099Z,,0,,,NaN,,,,,,false,,,,343782.30000000447,343781.700000003,,343781.3999999985,,343798.93,8,400,,,
break_continue,html.Screen,4_65_2,2023-11-01T21:44:55.100Z,,0,,,NaN,,,,,,false,,,,343783.30000000447,343783.200000003,,343782.3999999985,,343798.93,8,400,,,
sequence,flow.Sequence,4_65,2023-11-01T21:44:55.100Z,,0,,,2917.9380000029923,completion,,,,,false,,,,343783.3999999985,343783.200000003,340847.929,340850.3999999985,340865.262,343798.93,8,400,,,
trial,html.Screen,4_66_0,2023-11-01T21:45:00.383Z,,0,2,,5266.969999998517,response,ISIC_0030366.JPG,6,ISIC_0060897.JPG,ISIC_0030366.JPG,false,1,keypress(m),500,349066.200000003,349065.8999999985,343766.279,343783.5,343798.93,349073.364,8,400,17,,ISIC_0060897.JPG
break,html.Screen,4_66_1,2023-11-01T21:45:00.384Z,,0,,,NaN,,,,,,false,,,,349067.30000000447,349067,,349066.5,,349073.364,8,400,,,
break_continue,html.Screen,4_66_2,2023-11-01T21:45:00.385Z,,0,,,NaN,,,,,,false,,,,349067.8999999985,349067.700000003,,349067.6000000015,,349073.364,8,400,,,
sequence,flow.Sequence,4_66,2023-11-01T21:45:00.385Z,,0,,,5268.770000002987,completion,,,,,false,,,,349068,349067.700000003,343766.279,343783.5,343798.93,349073.364,8,400,,,
trial,html.Screen,4_67_0,2023-11-01T21:45:03.925Z,,0,2,,3534.2360000014887,response,ISIC_0029581.JPG,7,ISIC_0000445.JPG,ISIC_0000445.JPG,false,0,keypress(z),500,352608.1000000015,352607.6000000015,349058.105,349068.1000000015,349073.364,352626.552,8,400,18,,ISIC_0029581.JPG
break,html.Screen,4_67_1,2023-11-01T21:45:03.926Z,,0,,,NaN,,,,,,false,,,,352609.3999999985,352608.80000000447,,352608.30000000447,,352626.552,8,400,,,
break_continue,html.Screen,4_67_2,2023-11-01T21:45:03.928Z,,0,,,NaN,,,,,,false,,,,352610.8999999985,352609.8999999985,,352609.6000000015,,352626.552,8,400,,,
sequence,flow.Sequence,4_67,2023-11-01T21:45:03.928Z,,0,,,3536.5359999985085,completion,,,,,false,,,,352611,352609.8999999985,349058.105,349068.1000000015,349073.364,352626.552,8,400,,,
trial,html.Screen,4_68_0,2023-11-01T21:45:06.513Z,,0,2,,2569.748000004445,response,ISIC_8316125.JPG,18,ISIC_0027836.JPG,ISIC_8316125.JPG,false,1,keypress(m),500,355196.700000003,355196.30000000447,352601.97,352611.200000003,352626.552,355219.909,8,400,19,,ISIC_0027836.JPG
break,html.Screen,4_68_1,2023-11-01T21:45:06.515Z,,0,,,NaN,,,,,,false,,,,355198.700000003,355197.6000000015,,355197,,355219.909,8,400,,,
break_continue,html.Screen,4_68_2,2023-11-01T21:45:06.516Z,,0,,,NaN,,,,,,false,,,,355198.8999999985,355198.8999999985,,355198.80000000447,,355219.909,8,400,,,
sequence,flow.Sequence,4_68,2023-11-01T21:45:06.516Z,,0,,,2572.3479999984847,completion,,,,,false,,,,355199.1000000015,355198.8999999985,352601.97,352611.200000003,352626.552,355219.909,8,400,,,
trial,html.Screen,4_69_0,2023-11-01T21:45:09.325Z,,0,2,,2788.091000000015,response,ISIC_8738598.JPG,6,ISIC_0065128.JPG,ISIC_8738598.JPG,false,1,keypress(m),500,358008.30000000447,358008,355196.272,355199.1000000015,355219.909,358026.329,8,400,20,,ISIC_0065128.JPG
break,html.Screen,4_69_1,2023-11-01T21:45:09.326Z,,0,,,NaN,,,,,,false,,,,358009.5,358009.1000000015,,358008.6000000015,,358026.329,8,400,,,
break_continue,html.Screen,4_69_2,2023-11-01T21:45:09.328Z,,0,,,NaN,,,,,,false,,,,358010.80000000447,358010.700000003,,358009.700000003,,358026.329,8,400,,,
sequence,flow.Sequence,4_69,2023-11-01T21:45:09.328Z,,0,,,2790.791000002995,completion,,,,,false,,,,358011.1000000015,358010.700000003,355196.272,355199.1000000015,355219.909,358026.329,8,400,,,
trial,html.Screen,4_70_0,2023-11-01T21:45:12.549Z,,0,2,,3205.871000002953,response,ISIC_0056309.JPG,10,ISIC_0030623.JPG,ISIC_0030623.JPG,false,0,keypress(z),500,361232.5,361232.200000003,358002.3,358011.30000000447,358026.329,361249.737,8,400,21,,ISIC_0056309.JPG
break,html.Screen,4_70_1,2023-11-01T21:45:12.551Z,,0,,,NaN,,,,,,false,,,,361234.3999999985,361233.3999999985,,361232.8999999985,,361249.737,8,400,,,
break_continue,html.Screen,4_70_2,2023-11-01T21:45:12.551Z,,0,,,NaN,,,,,,false,,,,361234.700000003,361234.6000000015,,361234.3999999985,,361249.737,8,400,,,
sequence,flow.Sequence,4_70,2023-11-01T21:45:12.552Z,,0,,,3208.271000001463,completion,,,,,false,,,,361234.700000003,361234.6000000015,358002.3,358011.30000000447,358026.329,361249.737,8,400,,,
trial,html.Screen,4_71_0,2023-11-01T21:45:17.950Z,,0,2,,5383.262999999977,response,ISIC_0032265.JPG,10,ISIC_9590080.JPG,ISIC_9590080.JPG,false,0,keypress(z),500,366633.200000003,366633,361227.784,361234.80000000447,361249.737,366650.705,8,400,22,,ISIC_0032265.JPG
break,html.Screen,4_71_1,2023-11-01T21:45:17.952Z,,0,,,NaN,,,,,,false,,,,366635.200000003,366633.80000000447,,366633.3999999985,,366650.705,8,400,,,
break_continue,html.Screen,4_71_2,2023-11-01T21:45:17.952Z,,0,,,NaN,,,,,,false,,,,366635.5,366635.3999999985,,366635.30000000447,,366650.705,8,400,,,
sequence,flow.Sequence,4_71,2023-11-01T21:45:17.952Z,,0,,,5385.662999998487,completion,,,,,false,,,,366635.5,366635.3999999985,361227.784,361234.80000000447,361249.737,366650.705,8,400,,,
trial,html.Screen,4_72_0,2023-11-01T21:45:21.026Z,,0,2,,3058.595000004454,response,ISIC_0066588.JPG,12,ISIC_1083681.JPG,ISIC_1083681.JPG,false,0,keypress(z),500,369709.5,369709.30000000447,366620.433,366635.6000000015,366650.705,369727.259,8,400,23,,ISIC_0066588.JPG
break,html.Screen,4_72_1,2023-11-01T21:45:21.028Z,,0,,,NaN,,,,,,false,,,,369711.30000000447,369710.200000003,,369709.700000003,,369727.259,8,400,,,
break_continue,html.Screen,4_72_2,2023-11-01T21:45:21.029Z,,0,,,NaN,,,,,,false,,,,369711.80000000447,369711.700000003,,369711.5,,369727.259,8,400,,,
sequence,flow.Sequence,4_72,2023-11-01T21:45:21.029Z,,0,,,3060.995000002964,completion,,,,,false,,,,369711.80000000447,369711.700000003,366620.433,366635.5,366650.705,369727.259,8,400,,,
trial,html.Screen,4_73_0,2023-11-01T21:45:25.143Z,,0,2,,4098.54100000445,response,ISIC_0034289.JPG,14,ISIC_0533122.JPG,ISIC_0034289.JPG,false,1,keypress(m),500,373826.1000000015,373825.80000000447,369697.163,369711.8999999985,369727.259,373844.065,8,400,24,,ISIC_0533122.JPG
break,html.Screen,4_73_1,2023-11-01T21:45:25.144Z,,0,,,NaN,,,,,,false,,,,373827,373826.6000000015,,373826.200000003,,373844.065,8,400,,,
break_continue,html.Screen,4_73_2,2023-11-01T21:45:25.145Z,,0,,,NaN,,,,,,false,,,,373828.30000000447,373827.3999999985,,373827.30000000447,,373844.065,8,400,,,
sequence,flow.Sequence,4_73,2023-11-01T21:45:25.145Z,,0,,,4100.14099999849,completion,,,,,false,,,,373828.3999999985,373827.3999999985,369697.163,369711.8999999985,369727.259,373844.065,8,400,,,
trial,html.Screen,4_74_0,2023-11-01T21:45:27.763Z,,0,2,,2601.735000004468,response,ISIC_0064124.JPG,8,ISIC_8873236.JPG,ISIC_8873236.JPG,false,0,keypress(z),500,376446,376445.80000000447,373826.999,373828.3999999985,373844.065,376463.578,8,400,25,,ISIC_0064124.JPG
break,html.Screen,4_74_1,2023-11-01T21:45:27.765Z,,0,,,NaN,,,,,,false,,,,376448.1000000015,376446.700000003,,376446.200000003,,376463.578,8,400,,,
break_continue,html.Screen,4_74_2,2023-11-01T21:45:27.765Z,,0,,,NaN,,,,,,false,,,,376448.5,376448.3999999985,,376448.30000000447,,376463.578,8,400,,,
sequence,flow.Sequence,4_74,2023-11-01T21:45:27.766Z,,0,,,2604.3349999985076,completion,,,,,false,,,,376448.6000000015,376448.3999999985,373826.999,373828.3999999985,373844.065,376463.578,8,400,,,
trial,html.Screen,4_75_0,2023-11-01T21:45:30.606Z,,0,2,,2825.5220000015106,response,ISIC_7633960.JPG,9,ISIC_1384527.JPG,ISIC_7633960.JPG,false,1,keypress(m),500,379289.3999999985,379289.1000000015,376441.062,376448.700000003,376463.578,379307.316,8,400,26,,ISIC_1384527.JPG
break,html.Screen,4_75_1,2023-11-01T21:45:30.608Z,,0,,,NaN,,,,,,false,,,,379290.6000000015,379290,,379289.6000000015,,379307.316,8,400,,,
break_continue,html.Screen,4_75_2,2023-11-01T21:45:30.609Z,,0,,,NaN,,,,,,false,,,,379291.700000003,379291.6000000015,,379291.5,,379307.316,8,400,,,
sequence,flow.Sequence,4_75,2023-11-01T21:45:30.609Z,,0,,,2828.0220000015106,completion,,,,,false,,,,379291.80000000447,379291.6000000015,376441.062,376448.700000003,376463.578,379307.316,8,400,,,
trial,html.Screen,4_76_0,2023-11-01T21:45:33.111Z,,0,2,,2486.5839999985183,response,ISIC_0057089.JPG,11,ISIC_8338755.JPG,ISIC_8338755.JPG,false,0,keypress(z),500,381794.3999999985,381793.8999999985,379284.28,379292,379307.316,381813.703,8,400,27,,ISIC_0057089.JPG
break,html.Screen,4_76_1,2023-11-01T21:45:33.113Z,,0,,,NaN,,,,,,false,,,,381795.700000003,381795.3999999985,,381794.8999999985,,381813.703,8,400,,,
break_continue,html.Screen,4_76_2,2023-11-01T21:45:33.113Z,,0,,,NaN,,,,,,false,,,,381796,381796,,381795.80000000447,,381813.703,8,400,,,
sequence,flow.Sequence,4_76,2023-11-01T21:45:33.113Z,,0,,,2488.6840000000084,completion,,,,,false,,,,381796.30000000447,381796,379284.28,379291.8999999985,379307.316,381813.703,8,400,,,
trial,html.Screen,4_77_0,2023-11-01T21:45:35.635Z,,0,2,,2503.9970000030007,response,ISIC_0070032.JPG,5,ISIC_0749263.JPG,ISIC_0749263.JPG,false,0,keypress(z),500,384318,384317.700000003,381791.839,381796.3999999985,381813.703,384335.056,8,400,28,,ISIC_0070032.JPG
break,html.Screen,4_77_1,2023-11-01T21:45:35.637Z,,0,,,NaN,,,,,,false,,,,384319.6000000015,384318.6000000015,,384318.1000000015,,384335.056,8,400,,,
break_continue,html.Screen,4_77_2,2023-11-01T21:45:35.637Z,,0,,,NaN,,,,,,false,,,,384320,384319.80000000447,,384319.700000003,,384335.056,8,400,,,
sequence,flow.Sequence,4_77,2023-11-01T21:45:35.637Z,,0,,,2506.097000004491,completion,,,,,false,,,,384320,384319.80000000447,381791.839,381796.30000000447,381813.703,384335.056,8,400,,,
trial,html.Screen,4_78_0,2023-11-01T21:45:38.239Z,,0,2,,2586.3439999985276,response,ISIC_0031224.JPG,12,ISIC_0000572.JPG,ISIC_0000572.JPG,false,0,keypress(z),500,386921.700000003,386921.3999999985,384306.768,384320.1000000015,384335.056,386939.439,8,400,29,,ISIC_0031224.JPG
break,html.Screen,4_78_1,2023-11-01T21:45:38.241Z,,0,,,NaN,,,,,,false,,,,386923.700000003,386922.200000003,,386921.8999999985,,386939.439,8,400,,,
break_continue,html.Screen,4_78_2,2023-11-01T21:45:38.241Z,,0,,,NaN,,,,,,false,,,,386924,386923.8999999985,,386923.80000000447,,386939.439,8,400,,,
sequence,flow.Sequence,4_78,2023-11-01T21:45:38.241Z,,0,,,2588.8439999985276,completion,,,,,false,,,,386924.1000000015,386923.8999999985,384306.768,384320.1000000015,384335.056,386939.439,8,400,,,
trial,html.Screen,4_79_0,2023-11-01T21:45:40.743Z,,0,2,,2485.761000002967,response,ISIC_2153301.JPG,7,ISIC_9187876.JPG,ISIC_2153301.JPG,false,1,keypress(m),500,389425.700000003,389425.200000003,386907.709,386924.1000000015,386939.439,389439.674,8,400,30,,ISIC_9187876.JPG
break,html.Screen,4_79_1,2023-11-01T21:45:40.744Z,,0,,,NaN,,,,,,false,,,,389427.1000000015,389426.6000000015,,389425.8999999985,,389439.674,8,400,,,
break_continue,html.Screen,4_79_2,2023-11-01T21:45:40.745Z,,0,,,NaN,,,,,,false,,,,389428.6000000015,389428.3999999985,,389427.5,,389439.674,8,400,,,
sequence,flow.Sequence,4_79,2023-11-01T21:45:40.746Z,,0,,,2488.960999998497,completion,,,,,false,,,,389428.700000003,389428.3999999985,386907.709,386924.1000000015,386939.439,389439.674,8,400,,,
trial,html.Screen,4_80_0,2023-11-01T21:45:45.434Z,,0,2,,4677.026000002981,response,ISIC_8795740.JPG,5,ISIC_1185006.JPG,ISIC_8795740.JPG,false,1,keypress(m),500,394116.8999999985,394116.700000003,389420.072,389428.80000000447,389439.674,394134.093,8,400,31,,ISIC_1185006.JPG
break,html.Screen,4_80_1,2023-11-01T21:45:45.436Z,,0,,,NaN,,,,,,false,,,,394118.6000000015,394117.5,,394117.1000000015,,394134.093,8,400,,,
break_continue,html.Screen,4_80_2,2023-11-01T21:45:45.436Z,,0,,,NaN,,,,,,false,,,,394119,394118.8999999985,,394118.8999999985,,394134.093,8,400,,,
sequence,flow.Sequence,4_80,2023-11-01T21:45:45.436Z,,0,,,4679.225999998511,completion,,,,,false,,,,394119.1000000015,394118.8999999985,389420.072,389428.700000003,389439.674,394134.093,8,400,,,
trial,html.Screen,4_81_0,2023-11-01T21:45:49.893Z,,0,2,,4441.806999998516,response,ISIC_8733345.JPG,30,ISIC_0059733.JPG,ISIC_0059733.JPG,false,0,keypress(z),500,398576.200000003,398575.8999999985,394110.699,394119.1000000015,394134.093,398593.611,8,400,32,,ISIC_8733345.JPG
break,html.Screen,4_81_1,2023-11-01T21:45:49.895Z,,0,,,NaN,,,,,,false,,,,398578.1000000015,398576.80000000447,,398576.3999999985,,398593.611,8,400,,,
break_continue,html.Screen,4_81_2,2023-11-01T21:45:49.895Z,,0,,,NaN,,,,,,false,,,,398578.30000000447,398578.30000000447,,398578.200000003,,398593.611,8,400,,,
sequence,flow.Sequence,4_81,2023-11-01T21:45:49.895Z,,0,,,4444.207000004477,completion,,,,,false,,,,398578.3999999985,398578.30000000447,394110.699,394119.1000000015,394134.093,398593.611,8,400,,,
trial,html.Screen,4_82_0,2023-11-01T21:45:53.249Z,,0,2,,3337.7889999985346,response,ISIC_5287679.JPG,5,ISIC_0031005.JPG,ISIC_5287679.JPG,false,1,keypress(m),500,401931.6000000015,401931.3999999985,398560.77,398578.3999999985,398593.611,401948.965,8,400,33,,ISIC_0031005.JPG
break,html.Screen,4_82_1,2023-11-01T21:45:53.250Z,,0,,,NaN,,,,,,false,,,,401933.30000000447,401932.1000000015,,401931.80000000447,,401948.965,8,400,,,
break_continue,html.Screen,4_82_2,2023-11-01T21:45:53.251Z,,0,,,NaN,,,,,,false,,,,401933.700000003,401933.6000000015,,401933.5,,401948.965,8,400,,,
sequence,flow.Sequence,4_82,2023-11-01T21:45:53.251Z,,0,,,3339.989000001515,completion,,,,,false,,,,401933.80000000447,401933.6000000015,398560.77,398578.3999999985,398593.611,401948.965,8,400,,,
trial,html.Screen,4_83_0,2023-11-01T21:45:58.122Z,,0,2,,4856.335000004445,response,ISIC_3026660.JPG,11,ISIC_0015412.JPG,ISIC_3026660.JPG,false,1,keypress(m),500,406805.5,406805.30000000447,401921.796,401933.8999999985,401948.965,406822.915,8,400,34,,ISIC_0015412.JPG
break,html.Screen,4_83_1,2023-11-01T21:45:58.124Z,,0,,,NaN,,,,,,false,,,,406807.6000000015,406806.5,,406805.700000003,,406822.915,8,400,,,
break_continue,html.Screen,4_83_2,2023-11-01T21:45:58.125Z,,0,,,NaN,,,,,,false,,,,406807.8999999985,406807.80000000447,,406807.700000003,,406822.915,8,400,,,
sequence,flow.Sequence,4_83,2023-11-01T21:45:58.125Z,,0,,,4858.835000004445,completion,,,,,false,,,,406807.8999999985,406807.80000000447,401921.796,401933.80000000447,401948.965,406822.915,8,400,,,
trial,html.Screen,4_84_0,2023-11-01T21:46:03.426Z,,0,2,,5286.185000001511,response,ISIC_0012082.JPG,7,ISIC_0011517.JPG,ISIC_0012082.JPG,false,1,keypress(m),500,412109.3999999985,412109.1000000015,406798.85,406808,406822.915,412120.047,8,400,35,,ISIC_0011517.JPG
break,html.Screen,4_84_1,2023-11-01T21:46:03.428Z,,0,,,NaN,,,,,,false,,,,412111.200000003,412110.1000000015,,412109.6000000015,,412120.047,8,400,,,
break_continue,html.Screen,4_84_2,2023-11-01T21:46:03.428Z,,0,,,NaN,,,,,,false,,,,412111.5,412111.5,,412111.3999999985,,412120.047,8,400,,,
sequence,flow.Sequence,4_84,2023-11-01T21:46:03.429Z,,0,,,5288.585000000021,completion,,,,,false,,,,412111.6000000015,412111.5,406798.85,406807.8999999985,406822.915,412120.047,8,400,,,
trial,html.Screen,4_85_0,2023-11-01T21:46:06.376Z,,0,2,,2939.1530000029597,response,ISIC_8724944.JPG,5,ISIC_0009100.JPG,ISIC_0009100.JPG,false,0,keypress(z),500,415059.6000000015,415059.200000003,412094.202,412111.700000003,412120.047,415077.381,8,400,36,,ISIC_8724944.JPG
break,html.Screen,4_85_1,2023-11-01T21:46:06.378Z,,0,,,NaN,,,,,,false,,,,415061.5,415060.30000000447,,415059.80000000447,,415077.381,8,400,,,
break_continue,html.Screen,4_85_2,2023-11-01T21:46:06.379Z,,0,,,NaN,,,,,,false,,,,415061.80000000447,415061.80000000447,,415061.6000000015,,415077.381,8,400,,,
sequence,flow.Sequence,4_85,2023-11-01T21:46:06.379Z,,0,,,2941.75300000445,completion,,,,,false,,,,415061.8999999985,415061.80000000447,412094.202,412111.6000000015,412120.047,415077.381,8,400,,,
trial,html.Screen,4_86_0,2023-11-01T21:46:09.120Z,,0,2,,2725.219000001496,response,ISIC_0066328.JPG,8,ISIC_5747942.JPG,ISIC_0066328.JPG,false,1,keypress(m),500,417803.1000000015,417802.6000000015,415046.253,415062,415077.381,417821.16,8,400,37,,ISIC_5747942.JPG
break,html.Screen,4_86_1,2023-11-01T21:46:09.122Z,,0,,,NaN,,,,,,false,,,,417805,417803.700000003,,417803.30000000447,,417821.16,8,400,,,
break_continue,html.Screen,4_86_2,2023-11-01T21:46:09.122Z,,0,,,NaN,,,,,,false,,,,417805.5,417805.30000000447,,417805.200000003,,417821.16,8,400,,,
sequence,flow.Sequence,4_86,2023-11-01T21:46:09.123Z,,0,,,2727.9190000044764,completion,,,,,false,,,,417805.700000003,417805.30000000447,415046.253,415062,415077.381,417821.16,8,400,,,
trial,html.Screen,4_87_0,2023-11-01T21:46:11.671Z,,0,2,,2532.640000004496,response,ISIC_0011715.JPG,11,ISIC_6370748.JPG,ISIC_6370748.JPG,false,0,keypress(z),500,420354.200000003,420353.80000000447,417801.844,417805.700000003,417821.16,420372.197,8,400,38,,ISIC_0011715.JPG
break,html.Screen,4_87_1,2023-11-01T21:46:11.673Z,,0,,,NaN,,,,,,false,,,,420355.6000000015,420355,,420354.3999999985,,420372.197,8,400,,,
break_continue,html.Screen,4_87_2,2023-11-01T21:46:11.674Z,,0,,,NaN,,,,,,false,,,,420356.80000000447,420356.80000000447,,420356.6000000015,,420372.197,8,400,,,
sequence,flow.Sequence,4_87,2023-11-01T21:46:11.674Z,,0,,,2535.640000004496,completion,,,,,false,,,,420357,420356.80000000447,417801.844,417805.700000003,417821.16,420372.197,8,400,,,
trial,html.Screen,4_88_0,2023-11-01T21:46:14.243Z,,0,2,,2553.603000004485,response,ISIC_7494625.JPG,10,ISIC_4875370.JPG,ISIC_7494625.JPG,false,1,keypress(m),500,422926.200000003,422925.80000000447,420346.874,420357.1000000015,420372.197,422944.047,8,400,39,,ISIC_4875370.JPG
break,html.Screen,4_88_1,2023-11-01T21:46:14.245Z,,0,,,NaN,,,,,,false,,,,422928.30000000447,422927.200000003,,422926.5,,422944.047,8,400,,,
break_continue,html.Screen,4_88_2,2023-11-01T21:46:14.245Z,,0,,,NaN,,,,,,false,,,,422928.6000000015,422928.5,,422928.3999999985,,422944.047,8,400,,,
sequence,flow.Sequence,4_88,2023-11-01T21:46:14.246Z,,0,,,2556.3030000000144,completion,,,,,false,,,,422928.6000000015,422928.5,420346.874,420357.1000000015,420372.197,422944.047,8,400,,,
trial,html.Screen,4_89_0,2023-11-01T21:46:16.893Z,,0,2,,2631.6530000029597,response,ISIC_6976570.JPG,10,ISIC_7873541.JPG,ISIC_7873541.JPG,false,0,keypress(z),500,425576.1000000015,425575.700000003,422918.832,422928.80000000447,422944.047,425593.997,8,400,40,,ISIC_6976570.JPG
break,html.Screen,4_89_1,2023-11-01T21:46:16.895Z,,0,,,NaN,,,,,,false,,,,425578,425576.8999999985,,425576.30000000447,,425593.997,8,400,,,
break_continue,html.Screen,4_89_2,2023-11-01T21:46:16.895Z,,0,,,NaN,,,,,,false,,,,425578.30000000447,425578.200000003,,425578.1000000015,,425593.997,8,400,,,
sequence,flow.Sequence,4_89,2023-11-01T21:46:16.895Z,,0,,,2634.1530000029597,completion,,,,,false,,,,425578.3999999985,425578.200000003,422918.832,422928.700000003,422944.047,425593.997,8,400,,,
trial,html.Screen,4_90_0,2023-11-01T21:46:19.443Z,,0,2,,2532.2030000030063,response,ISIC_0033444.JPG,5,ISIC_5737704.JPG,ISIC_0033444.JPG,false,1,keypress(m),500,428126.5,428126.200000003,425571.772,425578.6000000015,425593.997,428136.281,8,400,41,,ISIC_5737704.JPG
break,html.Screen,4_90_1,2023-11-01T21:46:19.444Z,,0,,,NaN,,,,,,false,,,,428127.8999999985,428127.3999999985,,428126.700000003,,428136.281,8,400,,,
break_continue,html.Screen,4_90_2,2023-11-01T21:46:19.445Z,,0,,,NaN,,,,,,false,,,,428128.30000000447,428128.1000000015,,428128,,428136.281,8,400,,,
sequence,flow.Sequence,4_90,2023-11-01T21:46:19.445Z,,0,,,2534.103000001516,completion,,,,,false,,,,428128.30000000447,428128.1000000015,425571.772,425578.5,425593.997,428136.281,8,400,,,
trial,html.Screen,4_91_0,2023-11-01T21:46:22.364Z,,0,2,,2910.519000004453,response,ISIC_0027149.JPG,11,ISIC_0028916.JPG,ISIC_0027149.JPG,false,1,keypress(m),500,431047.1000000015,431046.80000000447,428120.065,428128.5,428136.281,431064.735,8,400,42,,ISIC_0028916.JPG
break,html.Screen,4_91_1,2023-11-01T21:46:22.365Z,,0,,,NaN,,,,,,false,,,,431048.80000000447,431047.700000003,,431047.30000000447,,431064.735,8,400,,,
break_continue,html.Screen,4_91_2,2023-11-01T21:46:22.366Z,,0,,,NaN,,,,,,false,,,,431049.200000003,431049,,431048.8999999985,,431064.735,8,400,,,
sequence,flow.Sequence,4_91,2023-11-01T21:46:22.366Z,,0,,,2912.7189999999828,completion,,,,,false,,,,431049.30000000447,431049,428120.065,428128.5,428136.281,431064.735,8,400,,,
trial,html.Screen,4_92_0,2023-11-01T21:46:25.859Z,,0,2,,3477.465000002994,response,ISIC_0025996.JPG,12,ISIC_0069351.JPG,ISIC_0069351.JPG,false,0,keypress(z),500,434542.5,434542.200000003,431034.937,431049.30000000447,431064.735,434560.476,8,400,43,,ISIC_0025996.JPG
break,html.Screen,4_92_1,2023-11-01T21:46:25.860Z,,0,,,NaN,,,,,,false,,,,434543.6000000015,434543.1000000015,,434542.700000003,,434560.476,8,400,,,
break_continue,html.Screen,4_92_2,2023-11-01T21:46:25.861Z,,0,,,NaN,,,,,,false,,,,434544.6000000015,434544.6000000015,,434544.3999999985,,434560.476,8,400,,,
sequence,flow.Sequence,4_92,2023-11-01T21:46:25.861Z,,0,,,3479.865000001504,completion,,,,,false,,,,434544.80000000447,434544.6000000015,431034.937,431049.30000000447,431064.735,434560.476,8,400,,,
trial,html.Screen,4_93_0,2023-11-01T21:46:29.531Z,,0,2,,3653.9239999984857,response,ISIC_0067156.JPG,12,ISIC_0031034.JPG,ISIC_0031034.JPG,false,0,keypress(z),500,438214.700000003,438214.3999999985,434530.864,434544.8999999985,434560.476,438225.761,8,400,44,,ISIC_0067156.JPG
break,html.Screen,4_93_1,2023-11-01T21:46:29.532Z,,0,,,NaN,,,,,,false,,,,438215.700000003,438215.5,,438215,,438225.761,8,400,,,
break_continue,html.Screen,4_93_2,2023-11-01T21:46:29.533Z,,0,,,NaN,,,,,,false,,,,438216,438215.80000000447,,438215.80000000447,,438225.761,8,400,,,
sequence,flow.Sequence,4_93,2023-11-01T21:46:29.533Z,,0,,,3655.324000004446,completion,,,,,false,,,,438216.200000003,438215.80000000447,434530.864,434544.8999999985,434560.476,438225.761,8,400,,,
trial,html.Screen,4_94_0,2023-11-01T21:46:33.252Z,,0,2,,3709.6389999985113,response,ISIC_0030994.JPG,4,ISIC_6159783.JPG,ISIC_6159783.JPG,false,0,keypress(z),500,441935.6000000015,441935.3999999985,438209.351,438216.30000000447,438225.761,441953.289,8,400,45,,ISIC_0030994.JPG
break,html.Screen,4_94_1,2023-11-01T21:46:33.254Z,,0,,,NaN,,,,,,false,,,,441937.6000000015,441936.700000003,,441935.80000000447,,441953.289,8,400,,,
break_continue,html.Screen,4_94_2,2023-11-01T21:46:33.254Z,,0,,,NaN,,,,,,false,,,,441937.8999999985,441937.80000000447,,441937.700000003,,441953.289,8,400,,,
sequence,flow.Sequence,4_94,2023-11-01T21:46:33.255Z,,0,,,3712.0390000044717,completion,,,,,false,,,,441938,441937.80000000447,438209.351,438216.200000003,438225.761,441953.289,8,400,,,
trial,html.Screen,4_95_0,2023-11-01T21:46:36.312Z,,0,2,,3041.8110000015004,response,ISIC_6915759.JPG,8,ISIC_2752919.JPG,ISIC_6915759.JPG,false,1,keypress(m),500,444995.5,444995.1000000015,441931.194,441938.1000000015,441953.289,445013.473,8,400,46,,ISIC_2752919.JPG
break,html.Screen,4_95_1,2023-11-01T21:46:36.313Z,,0,,,NaN,,,,,,false,,,,444996.6000000015,444996.200000003,,444995.700000003,,445013.473,8,400,,,
break_continue,html.Screen,4_95_2,2023-11-01T21:46:36.315Z,,0,,,NaN,,,,,,false,,,,444998.200000003,444998,,444997.700000003,,445013.473,8,400,,,
sequence,flow.Sequence,4_95,2023-11-01T21:46:36.315Z,,0,,,3044.7110000000102,completion,,,,,false,,,,444998.3999999985,444998,441931.194,441938,441953.289,445013.473,8,400,,,
trial,html.Screen,4_96_0,2023-11-01T21:46:39.086Z,,0,2,,2755.327000004472,response,ISIC_0000585.JPG,4,ISIC_0014013.JPG,ISIC_0000585.JPG,false,1,keypress(m),500,447769.1000000015,447768.80000000447,444992.493,444998.5,445013.473,447804.75,8,400,47,,ISIC_0014013.JPG
break,html.Screen,4_96_1,2023-11-01T21:46:39.087Z,,0,,,NaN,,,,,,false,,,,447770.80000000447,447769.80000000447,,447769.3999999985,,447804.75,8,400,,,
break_continue,html.Screen,4_96_2,2023-11-01T21:46:39.088Z,,0,,,NaN,,,,,,false,,,,447771.1000000015,447771.1000000015,,447770.8999999985,,447804.75,8,400,,,
sequence,flow.Sequence,4_96,2023-11-01T21:46:39.088Z,,0,,,2757.627000001492,completion,,,,,false,,,,447771.200000003,447771.1000000015,444992.493,444998.3999999985,445013.473,447804.75,8,400,,,
trial,html.Screen,4_97_0,2023-11-01T21:46:41.780Z,,0,2,,2658.14999999851,response,ISIC_0056092.JPG,7,ISIC_7306131.JPG,ISIC_0056092.JPG,false,1,keypress(m),500,450463.30000000447,450462.8999999985,447761.609,447771.30000000447,447804.75,450480.663,8,400,48,,ISIC_7306131.JPG
break,html.Screen,4_97_1,2023-11-01T21:46:41.781Z,,0,,,NaN,,,,,,false,,,,450464.8999999985,450463.8999999985,,450463.5,,450480.663,8,400,,,
break_continue,html.Screen,4_97_2,2023-11-01T21:46:41.782Z,,0,,,NaN,,,,,,false,,,,450465.200000003,450465.1000000015,,450465,,450480.663,8,400,,,
sequence,flow.Sequence,4_97,2023-11-01T21:46:41.782Z,,0,,,2660.35000000149,completion,,,,,false,,,,450465.200000003,450465.1000000015,447761.609,447771.200000003,447804.75,450480.663,8,400,,,
trial,html.Screen,4_98_0,2023-11-01T21:46:44.619Z,,0,2,,2821.5370000029798,response,ISIC_3288342.JPG,7,ISIC_0066750.JPG,ISIC_3288342.JPG,false,1,keypress(m),500,453302.5,453302.200000003,450450.973,450465.5,450480.663,453319.96,8,400,49,,ISIC_0066750.JPG
break,html.Screen,4_98_1,2023-11-01T21:46:44.621Z,,0,,,NaN,,,,,,false,,,,453304.3999999985,453303.30000000447,,453302.80000000447,,453319.96,8,400,,,
break_continue,html.Screen,4_98_2,2023-11-01T21:46:44.621Z,,0,,,NaN,,,,,,false,,,,453304.700000003,453304.6000000015,,453304.5,,453319.96,8,400,,,
sequence,flow.Sequence,4_98,2023-11-01T21:46:44.621Z,,0,,,2823.9370000014897,completion,,,,,false,,,,453304.80000000447,453304.6000000015,450450.973,450465.5,450480.663,453319.96,8,400,,,
trial,html.Screen,4_99_0,2023-11-01T21:46:47.185Z,,0,2,,2547.939999998489,response,ISIC_0033524.JPG,8,ISIC_1166740.JPG,ISIC_0033524.JPG,false,1,keypress(m),500,455868.200000003,455867.8999999985,453287.977,453305,453319.96,455885.851,8,400,50,,ISIC_1166740.JPG
break,html.Screen,4_99_1,2023-11-01T21:46:57.190Z,,0,,,10002.408999999985,timeout,,,,,false,,,,465873,465871.68,455864.957,455868.3999999985,455885.851,465888.26,8,400,,,
break_continue,html.Screen,4_99_2,2023-11-01T21:46:58.471Z,,0,,,1239.1399999985006,response,,,,,false,continue,keypress(Space),,467154.3999999985,467127.3999999985,465871.68,465873.200000003,465888.26,467188.496,8,400,,,
sequence,flow.Sequence,4_99,2023-11-01T21:46:58.471Z,,0,,,13807.439999998489,completion,,,,,false,,,,467154.6000000015,467127.3999999985,453287.977,453304.8999999985,453319.96,467188.496,8,400,,,
trial,html.Screen,4_100_0,2023-11-01T21:47:01.068Z,,0,3,,2562.5040000000154,response,ISIC_0011904.JPG,9,ISIC_5041679.JPG,ISIC_5041679.JPG,false,0,keypress(z),500,469751.3999999985,469751,467171.84,467154.80000000447,467188.496,469769.154,8,400,1,,ISIC_0011904.JPG
break,html.Screen,4_100_1,2023-11-01T21:47:01.069Z,,0,,,NaN,,,,,,false,,,,469752.80000000447,469752.200000003,,469751.6000000015,,469769.154,8,400,,,
break_continue,html.Screen,4_100_2,2023-11-01T21:47:01.070Z,,0,,,NaN,,,,,,false,,,,469753.8999999985,469753.700000003,,469753.6000000015,,469769.154,8,400,,,
sequence,flow.Sequence,4_100,2023-11-01T21:47:01.071Z,,0,,,2565.2040000029956,completion,,,,,false,,,,469754,469753.700000003,467171.84,467154.700000003,467188.496,469769.154,8,400,,,
trial,html.Screen,4_101_0,2023-11-01T21:47:04.373Z,,0,3,,3286.7459999985294,response,ISIC_0060397.JPG,7,ISIC_0072865.JPG,ISIC_0072865.JPG,false,0,keypress(z),500,473056.1000000015,473055.8999999985,469746.653,469754.200000003,469769.154,473074.138,8,400,2,,ISIC_0060397.JPG
break,html.Screen,4_101_1,2023-11-01T21:47:04.375Z,,0,,,NaN,,,,,,false,,,,473058.1000000015,473057,,473056.3999999985,,473074.138,8,400,,,
break_continue,html.Screen,4_101_2,2023-11-01T21:47:04.375Z,,0,,,NaN,,,,,,false,,,,473058.3999999985,473058.30000000447,,473058.200000003,,473074.138,8,400,,,
sequence,flow.Sequence,4_101,2023-11-01T21:47:04.375Z,,0,,,3289.14600000449,completion,,,,,false,,,,473058.6000000015,473058.30000000447,469746.653,469754,469769.154,473074.138,8,400,,,
trial,html.Screen,4_102_0,2023-11-01T21:47:07.082Z,,0,3,,2690.662000004493,response,ISIC_2724278.JPG,5,ISIC_0010978.JPG,ISIC_2724278.JPG,false,1,keypress(m),500,475765.1000000015,475764.80000000447,473050.754,473058.6000000015,473074.138,475783.229,8,400,3,,ISIC_0010978.JPG
break,html.Screen,4_102_1,2023-11-01T21:47:07.083Z,,0,,,NaN,,,,,,false,,,,475766.3999999985,475765.8999999985,,475765.30000000447,,475783.229,8,400,,,
break_continue,html.Screen,4_102_2,2023-11-01T21:47:07.084Z,,0,,,NaN,,,,,,false,,,,475767.5,475767.30000000447,,475767.30000000447,,475783.229,8,400,,,
sequence,flow.Sequence,4_102,2023-11-01T21:47:07.084Z,,0,,,2693.162000004493,completion,,,,,false,,,,475767.6000000015,475767.30000000447,473050.754,473058.6000000015,473074.138,475783.229,8,400,,,
trial,html.Screen,4_103_0,2023-11-01T21:47:10.593Z,,0,3,,3492.471000002988,response,ISIC_7738955.JPG,4,ISIC_7582818.JPG,ISIC_7582818.JPG,false,0,keypress(z),500,479275.8999999985,479275.700000003,475764.804,475767.6000000015,475783.229,479293.861,8,400,4,,ISIC_7738955.JPG
break,html.Screen,4_103_1,2023-11-01T21:47:10.594Z,,0,,,NaN,,,,,,false,,,,479277.8999999985,479276.80000000447,,479276.200000003,,479293.861,8,400,,,
break_continue,html.Screen,4_103_2,2023-11-01T21:47:10.595Z,,0,,,NaN,,,,,,false,,,,479278.200000003,479278.1000000015,,479278,,479293.861,8,400,,,
sequence,flow.Sequence,4_103,2023-11-01T21:47:10.595Z,,0,,,3494.871000001498,completion,,,,,false,,,,479278.30000000447,479278.1000000015,475764.804,475767.6000000015,475783.229,479293.861,8,400,,,
trial,html.Screen,4_104_0,2023-11-01T21:47:13.799Z,,0,3,,3188.5389999985346,response,ISIC_7776719.JPG,11,ISIC_7203184.JPG,ISIC_7776719.JPG,false,1,keypress(m),500,482482.700000003,482482.3999999985,479274.594,479278.3999999985,479293.861,482500.653,8,400,5,,ISIC_7203184.JPG
break,html.Screen,4_104_1,2023-11-01T21:47:13.800Z,,0,,,NaN,,,,,,false,,,,482483.700000003,482483.3999999985,,482482.8999999985,,482500.653,8,400,,,
break_continue,html.Screen,4_104_2,2023-11-01T21:47:13.801Z,,0,,,NaN,,,,,,false,,,,482484.80000000447,482484.700000003,,482484.700000003,,482500.653,8,400,,,
sequence,flow.Sequence,4_104,2023-11-01T21:47:13.802Z,,0,,,3190.839000003005,completion,,,,,false,,,,482485,482484.700000003,479274.594,479278.3999999985,479293.861,482500.653,8,400,,,
trial,html.Screen,4_105_0,2023-11-01T21:47:17.217Z,,0,3,,3399.647000004479,response,ISIC_4691689.JPG,17,ISIC_2400177.JPG,ISIC_4691689.JPG,false,1,keypress(m),500,485900.5,485900.30000000447,482482.836,482485,482500.653,485902.967,8,400,6,,ISIC_2400177.JPG
break,html.Screen,4_105_1,2023-11-01T21:47:17.218Z,,0,,,NaN,,,,,,false,,,,485901.1000000015,485901,,485900.700000003,,485902.967,8,400,,,
break_continue,html.Screen,4_105_2,2023-11-01T21:47:17.219Z,,0,,,NaN,,,,,,false,,,,485902.200000003,485902.1000000015,,485901.30000000447,,485902.967,8,400,,,
sequence,flow.Sequence,4_105,2023-11-01T21:47:17.219Z,,0,,,3401.447000001499,completion,,,,,false,,,,485902.30000000447,485902.1000000015,482482.836,482485,482500.653,485902.967,8,400,,,
trial,html.Screen,4_106_0,2023-11-01T21:47:19.898Z,,0,3,,2678.333000004466,response,ISIC_0009236.JPG,5,ISIC_0064877.JPG,ISIC_0009236.JPG,false,1,keypress(m),500,488581.6000000015,488581.30000000447,485886.124,485902.3999999985,485902.967,488599.513,8,400,7,,ISIC_0064877.JPG
break,html.Screen,4_106_1,2023-11-01T21:47:19.899Z,,0,,,NaN,,,,,,false,,,,488582.6000000015,488582.200000003,,488581.8999999985,,488599.513,8,400,,,
break_continue,html.Screen,4_106_2,2023-11-01T21:47:19.900Z,,0,,,NaN,,,,,,false,,,,488583.80000000447,488582.8999999985,,488582.80000000447,,488599.513,8,400,,,
sequence,flow.Sequence,4_106,2023-11-01T21:47:19.901Z,,0,,,2679.9329999985057,completion,,,,,false,,,,488583.8999999985,488582.8999999985,485886.124,485902.3999999985,485902.967,488599.513,8,400,,,
trial,html.Screen,4_107_0,2023-11-01T21:47:22.883Z,,0,3,,2966.187000003003,response,ISIC_0064683.JPG,11,ISIC_0057898.JPG,ISIC_0057898.JPG,false,0,keypress(z),500,491566.200000003,491565.700000003,488568.155,488583.8999999985,488599.513,491584.479,8,400,8,,ISIC_0064683.JPG
break,html.Screen,4_107_1,2023-11-01T21:47:22.885Z,,0,,,NaN,,,,,,false,,,,491568.8999999985,491567.700000003,,491566.8999999985,,491584.479,8,400,,,
break_continue,html.Screen,4_107_2,2023-11-01T21:47:22.886Z,,0,,,NaN,,,,,,false,,,,491569.30000000447,491569.200000003,,491569.1000000015,,491584.479,8,400,,,
sequence,flow.Sequence,4_107,2023-11-01T21:47:22.886Z,,0,,,2969.687000003003,completion,,,,,false,,,,491569.5,491569.200000003,488568.155,488583.8999999985,488599.513,491584.479,8,400,,,
trial,html.Screen,4_108_0,2023-11-01T21:47:25.754Z,,0,3,,2852.621000001498,response,ISIC_0013634.JPG,6,ISIC_0011497.JPG,ISIC_0013634.JPG,false,1,keypress(m),500,494437.5,494437.1000000015,491554.808,491569.6000000015,491584.479,494454.778,8,400,9,,ISIC_0011497.JPG
break,html.Screen,4_108_1,2023-11-01T21:47:25.756Z,,0,,,NaN,,,,,,false,,,,494439.200000003,494438.1000000015,,494437.6000000015,,494454.778,8,400,,,
break_continue,html.Screen,4_108_2,2023-11-01T21:47:25.756Z,,0,,,NaN,,,,,,false,,,,494439.5,494439.3999999985,,494439.30000000447,,494454.778,8,400,,,
sequence,flow.Sequence,4_108,2023-11-01T21:47:25.756Z,,0,,,2854.920999998518,completion,,,,,false,,,,494439.6000000015,494439.3999999985,491554.808,491569.5,491584.479,494454.778,8,400,,,
trial,html.Screen,4_109_0,2023-11-01T21:47:29.376Z,,0,3,,3604.822000001499,response,ISIC_3256887.JPG,7,ISIC_7441957.JPG,ISIC_7441957.JPG,false,0,keypress(z),500,498059.80000000447,498059.6000000015,494425.427,494439.700000003,494454.778,498077.326,8,400,10,,ISIC_3256887.JPG
break,html.Screen,4_109_1,2023-11-01T21:47:29.377Z,,0,,,NaN,,,,,,false,,,,498060.6000000015,498060.30000000447,,498060,,498077.326,8,400,,,
break_continue,html.Screen,4_109_2,2023-11-01T21:47:29.379Z,,0,,,NaN,,,,,,false,,,,498062,498061.8999999985,,498061.80000000447,,498077.326,8,400,,,
sequence,flow.Sequence,4_109,2023-11-01T21:47:29.379Z,,0,,,3607.1219999985187,completion,,,,,false,,,,498062.1000000015,498061.8999999985,494425.427,494439.700000003,494454.778,498077.326,8,400,,,
trial,html.Screen,4_110_0,2023-11-01T21:47:34.631Z,,0,3,,5237.274000001489,response,ISIC_0006754.JPG,9,ISIC_1434141.JPG,ISIC_0006754.JPG,false,1,keypress(m),500,503314.8999999985,503314.6000000015,498052.749,498062.1000000015,498077.326,503332.268,8,400,11,,ISIC_1434141.JPG
break,html.Screen,4_110_1,2023-11-01T21:47:34.633Z,,0,,,NaN,,,,,,false,,,,503316.6000000015,503315.3999999985,,503315,,503332.268,8,400,,,
break_continue,html.Screen,4_110_2,2023-11-01T21:47:34.634Z,,0,,,NaN,,,,,,false,,,,503316.8999999985,503316.80000000447,,503316.80000000447,,503332.268,8,400,,,
sequence,flow.Sequence,4_110,2023-11-01T21:47:34.634Z,,0,,,5239.474000004469,completion,,,,,false,,,,503317.200000003,503316.80000000447,498052.749,498062.1000000015,498077.326,503332.268,8,400,,,
trial,html.Screen,4_111_0,2023-11-01T21:47:38.686Z,,0,3,,4036.5320000044885,response,ISIC_0070217.JPG,11,ISIC_0057395.JPG,ISIC_0070217.JPG,false,1,keypress(m),500,507369.200000003,507368.80000000447,503301.154,503317.30000000447,503332.268,507387.093,8,400,12,,ISIC_0057395.JPG
break,html.Screen,4_111_1,2023-11-01T21:47:38.688Z,,0,,,NaN,,,,,,false,,,,507371.30000000447,507369.80000000447,,507369.30000000447,,507387.093,8,400,,,
break_continue,html.Screen,4_111_2,2023-11-01T21:47:38.688Z,,0,,,NaN,,,,,,false,,,,507371.5,507371.3999999985,,507371.30000000447,,507387.093,8,400,,,
sequence,flow.Sequence,4_111,2023-11-01T21:47:38.688Z,,0,,,4039.131999998528,completion,,,,,false,,,,507371.700000003,507371.3999999985,503301.154,503317.200000003,503332.268,507387.093,8,400,,,
trial,html.Screen,4_112_0,2023-11-01T21:47:42.186Z,,0,3,,3481.5070000014966,response,ISIC_0060486.JPG,22,ISIC_2930792.JPG,ISIC_0060486.JPG,false,1,keypress(m),500,510869,510868.6000000015,507357.567,507371.700000003,507387.093,510886.976,8,400,13,,ISIC_2930792.JPG
break,html.Screen,4_112_1,2023-11-01T21:47:42.187Z,,0,,,NaN,,,,,,false,,,,510870.6000000015,510870,,510869.30000000447,,510886.976,8,400,,,
break_continue,html.Screen,4_112_2,2023-11-01T21:47:42.188Z,,0,,,NaN,,,,,,false,,,,510871.80000000447,510871.700000003,,510871.5,,510886.976,8,400,,,
sequence,flow.Sequence,4_112,2023-11-01T21:47:42.189Z,,0,,,3484.6070000029868,completion,,,,,false,,,,510871.8999999985,510871.700000003,507357.567,507371.700000003,507387.093,510886.976,8,400,,,
trial,html.Screen,4_113_0,2023-11-01T21:47:44.992Z,,0,3,,2788.224000002956,response,ISIC_0013365.JPG,5,ISIC_1280780.JPG,ISIC_0013365.JPG,false,1,keypress(m),500,513675.5,513675.200000003,510860.788,510872.1000000015,510886.976,513692.794,8,400,14,,ISIC_1280780.JPG
break,html.Screen,4_113_1,2023-11-01T21:47:44.994Z,,0,,,NaN,,,,,,false,,,,513677.3999999985,513676.200000003,,513675.6000000015,,513692.794,8,400,,,
break_continue,html.Screen,4_113_2,2023-11-01T21:47:44.994Z,,0,,,NaN,,,,,,false,,,,513677.700000003,513677.6000000015,,513677.5,,513692.794,8,400,,,
sequence,flow.Sequence,4_113,2023-11-01T21:47:44.994Z,,0,,,2790.624000001466,completion,,,,,false,,,,513677.80000000447,513677.6000000015,510860.788,510872,510886.976,513692.794,8,400,,,
trial,html.Screen,4_114_0,2023-11-01T21:47:51.608Z,,0,3,,6598.206000000006,response,ISIC_0025597.JPG,10,ISIC_0030519.JPG,ISIC_0025597.JPG,false,1,keypress(m),500,520291.200000003,520291,513664.307,513677.80000000447,513692.794,520308.552,8,400,15,,ISIC_0030519.JPG
break,html.Screen,4_114_1,2023-11-01T21:47:51.610Z,,0,,,NaN,,,,,,false,,,,520293,520291.700000003,,520291.30000000447,,520308.552,8,400,,,
break_continue,html.Screen,4_114_2,2023-11-01T21:47:51.610Z,,0,,,NaN,,,,,,false,,,,520293.700000003,520293.6000000015,,520293.3999999985,,520308.552,8,400,,,
sequence,flow.Sequence,4_114,2023-11-01T21:47:51.610Z,,0,,,6600.806000001496,completion,,,,,false,,,,520293.80000000447,520293.6000000015,513664.307,513677.80000000447,513692.794,520308.552,8,400,,,
trial,html.Screen,4_115_0,2023-11-01T21:47:55.103Z,,0,3,,3478.048000001465,response,ISIC_0067476.JPG,5,ISIC_6722934.JPG,ISIC_0067476.JPG,false,1,keypress(m),500,523786.8999999985,523786.6000000015,520290.785,520293.80000000447,520308.552,523796.413,8,400,16,,ISIC_6722934.JPG
break,html.Screen,4_115_1,2023-11-01T21:47:55.104Z,,0,,,NaN,,,,,,false,,,,523787.700000003,523787.3999999985,,523787,,523796.413,8,400,,,
break_continue,html.Screen,4_115_2,2023-11-01T21:47:55.105Z,,0,,,NaN,,,,,,false,,,,523788.5,523788.30000000447,,523788.200000003,,523796.413,8,400,,,
sequence,flow.Sequence,4_115,2023-11-01T21:47:55.106Z,,0,,,3479.748000004445,completion,,,,,false,,,,523789.3999999985,523788.30000000447,520290.785,520293.80000000447,520308.552,523796.413,8,400,,,
trial,html.Screen,4_116_0,2023-11-01T21:47:58.981Z,,0,3,,3867.4869999985094,response,ISIC_0056799.JPG,19,ISIC_0015969.JPG,ISIC_0015969.JPG,false,0,keypress(z),500,527664.200000003,527663.8999999985,523787.025,523789.5,523796.413,527682.021,8,400,17,,ISIC_0056799.JPG
break,html.Screen,4_116_1,2023-11-01T21:47:58.982Z,,0,,,NaN,,,,,,false,,,,527665.3999999985,527664.8000000045,,527664.3999999985,,527682.021,8,400,,,
break_continue,html.Screen,4_116_2,2023-11-01T21:47:58.983Z,,0,,,NaN,,,,,,false,,,,527666.3999999985,527666.3000000045,,527666.3000000045,,527682.021,8,400,,,
sequence,flow.Sequence,4_116,2023-11-01T21:47:58.983Z,,0,,,3869.88700000447,completion,,,,,false,,,,527666.5,527666.3000000045,523787.025,523789.3999999985,523796.413,527682.021,8,400,,,
trial,html.Screen,4_117_0,2023-11-01T21:48:06.971Z,,0,3,,7971.779000004521,response,ISIC_4927943.JPG,12,ISIC_0058906.JPG,ISIC_4927943.JPG,false,1,keypress(m),500,535654.200000003,535653.8000000045,527653.963,527666.6000000015,527682.021,535672.085,8,400,18,,ISIC_0058906.JPG
break,html.Screen,4_117_1,2023-11-01T21:48:06.972Z,,0,,,NaN,,,,,,false,,,,535655.5,535654.8000000045,,535654.3000000045,,535672.085,8,400,,,
break_continue,html.Screen,4_117_2,2023-11-01T21:48:06.973Z,,0,,,NaN,,,,,,false,,,,535656.5,535656.5,,535656.3000000045,,535672.085,8,400,,,
sequence,flow.Sequence,4_117,2023-11-01T21:48:06.973Z,,0,,,7974.47900000005,completion,,,,,false,,,,535656.6000000015,535656.5,527653.963,527666.6000000015,527682.021,535672.085,8,400,,,
trial,html.Screen,4_118_0,2023-11-01T21:48:18.475Z,,0,3,,11517.967000000062,timeout,ISIC_0031127.JPG,6,ISIC_2490481.JPG,ISIC_2490481.JPG,false,,,500,547157.700000003,547157.3999999985,535650.912,535656.700000003,535672.085,547190.052,8,400,19,,ISIC_0031127.JPG
break,html.Screen,4_118_1,2023-11-01T21:48:18.475Z,,0,,,NaN,,,,,,false,,,,547158.3000000045,547158.1000000015,,547157.8999999985,,547190.052,8,400,,,
break_continue,html.Screen,4_118_2,2023-11-01T21:48:18.475Z,,0,,,NaN,,,,,,false,,,,547158.5,547158.3999999985,,547158.3999999985,,547190.052,8,400,,,
sequence,flow.Sequence,4_118,2023-11-01T21:48:18.475Z,,0,,,11486.314999998547,completion,,,,,false,,,,547158.6000000015,547158.3999999985,535650.912,535656.700000003,535672.085,547190.052,8,400,,,
trial,html.Screen,4_119_0,2023-11-01T21:48:21.103Z,,0,3,,2595.8479999984847,response,ISIC_0014325.JPG,7,ISIC_5509212.JPG,ISIC_5509212.JPG,false,0,keypress(z),500,549786.200000003,549785.8999999985,547173.375,547158.700000003,547190.052,549803.488,8,400,20,,ISIC_0014325.JPG
break,html.Screen,4_119_1,2023-11-01T21:48:21.105Z,,0,,,NaN,,,,,,false,,,,549787.8000000045,549786.8999999985,,549786.3000000045,,549803.488,8,400,,,
break_continue,html.Screen,4_119_2,2023-11-01T21:48:21.105Z,,0,,,NaN,,,,,,false,,,,549788.1000000015,549788,,549788,,549803.488,8,400,,,
sequence,flow.Sequence,4_119,2023-11-01T21:48:21.105Z,,0,,,2597.947999999975,completion,,,,,false,,,,549788.200000003,549788,547173.375,547158.700000003,547190.052,549803.488,8,400,,,
trial,html.Screen,4_120_0,2023-11-01T21:48:23.546Z,,0,3,,2425.411999998498,response,ISIC_1472777.JPG,10,ISIC_0032034.JPG,ISIC_0032034.JPG,false,0,keypress(z),500,552229.200000003,552228.8999999985,549777.29,549788.3000000045,549803.488,552246.817,8,400,21,,ISIC_1472777.JPG
break,html.Screen,4_120_1,2023-11-01T21:48:23.547Z,,0,,,NaN,,,,,,false,,,,552230,552229.700000003,,552229.3000000045,,552246.817,8,400,,,
break_continue,html.Screen,4_120_2,2023-11-01T21:48:23.548Z,,0,,,NaN,,,,,,false,,,,552231.1000000015,552231,,552230.8999999985,,552246.817,8,400,,,
sequence,flow.Sequence,4_120,2023-11-01T21:48:23.548Z,,0,,,2427.511999999988,completion,,,,,false,,,,552231.200000003,552231,549777.29,549788.200000003,549803.488,552246.817,8,400,,,
trial,html.Screen,4_121_0,2023-11-01T21:48:26.033Z,,0,3,,2469.0829999984708,response,ISIC_0013059.JPG,11,ISIC_9050608.JPG,ISIC_9050608.JPG,false,0,keypress(z),500,554716.1000000015,554715.8999999985,552217.297,552231.3000000045,552246.817,554733.124,8,400,22,,ISIC_0013059.JPG
break,html.Screen,4_121_1,2023-11-01T21:48:26.035Z,,0,,,NaN,,,,,,false,,,,554717.8999999985,554716.8000000045,,554716.3999999985,,554733.124,8,400,,,
break_continue,html.Screen,4_121_2,2023-11-01T21:48:26.035Z,,0,,,NaN,,,,,,false,,,,554718.200000003,554718.1000000015,,554718,,554733.124,8,400,,,
sequence,flow.Sequence,4_121,2023-11-01T21:48:26.035Z,,0,,,2471.283000001451,completion,,,,,false,,,,554718.3000000045,554718.1000000015,552217.297,552231.3000000045,552246.817,554733.124,8,400,,,
trial,html.Screen,4_122_0,2023-11-01T21:48:28.473Z,,0,3,,2423.0760000030277,response,ISIC_2614347.JPG,6,ISIC_1785627.JPG,ISIC_2614347.JPG,false,1,keypress(m),500,557156.5,557156.200000003,554715.284,554718.3000000045,554733.124,557181.384,8,400,23,,ISIC_1785627.JPG
break,html.Screen,4_122_1,2023-11-01T21:48:28.474Z,,0,,,NaN,,,,,,false,,,,557157.3999999985,557157.200000003,,557156.8000000045,,557181.384,8,400,,,
break_continue,html.Screen,4_122_2,2023-11-01T21:48:28.475Z,,0,,,NaN,,,,,,false,,,,557157.8000000045,557157.6000000015,,557157.5,,557181.384,8,400,,,
sequence,flow.Sequence,4_122,2023-11-01T21:48:28.475Z,,0,,,2424.4760000015376,completion,,,,,false,,,,557158,557157.6000000015,554715.284,554718.3000000045,554733.124,557181.384,8,400,,,
trial,html.Screen,4_123_0,2023-11-01T21:48:30.994Z,,0,3,,2495.2160000015283,response,ISIC_0032968.JPG,6,ISIC_0031389.JPG,ISIC_0031389.JPG,false,0,keypress(z),500,559677.1000000015,559676.6000000015,557164.402,557158.1000000015,557181.384,559693.232,8,400,24,,ISIC_0032968.JPG
break,html.Screen,4_123_1,2023-11-01T21:48:30.994Z,,0,,,NaN,,,,,,false,,,,559677.6000000015,559677.3999999985,,559677.200000003,,559693.232,8,400,,,
break_continue,html.Screen,4_123_2,2023-11-01T21:48:30.995Z,,0,,,NaN,,,,,,false,,,,559678,559677.8999999985,,559677.700000003,,559693.232,8,400,,,
sequence,flow.Sequence,4_123,2023-11-01T21:48:30.995Z,,0,,,2496.515999998548,completion,,,,,false,,,,559678.200000003,559677.8999999985,557164.402,557158.1000000015,557181.384,559693.232,8,400,,,
trial,html.Screen,4_124_0,2023-11-01T21:48:33.434Z,,0,3,,2423.5680000045104,response,ISIC_7136995.JPG,10,ISIC_0066399.JPG,ISIC_7136995.JPG,false,1,keypress(m),500,562117.1000000015,562116.8000000045,559676.578,559678.200000003,559693.232,562141.798,8,400,25,,ISIC_0066399.JPG
break,html.Screen,4_124_1,2023-11-01T21:48:33.435Z,,0,,,NaN,,,,,,false,,,,562117.700000003,562117.5,,562117.200000003,,562141.798,8,400,,,
break_continue,html.Screen,4_124_2,2023-11-01T21:48:33.435Z,,0,,,NaN,,,,,,false,,,,562118.5,562118.1000000015,,562117.8999999985,,562141.798,8,400,,,
sequence,flow.Sequence,4_124,2023-11-01T21:48:33.436Z,,0,,,2424.86800000153,completion,,,,,false,,,,562118.700000003,562118.1000000015,559676.578,559678.200000003,559693.232,562141.798,8,400,,,
trial,html.Screen,4_125_0,2023-11-01T21:48:36.006Z,,0,3,,2547.3020000015385,response,ISIC_2885086.JPG,0,ISIC_8719134.JPG,ISIC_8719134.JPG,false,0,keypress(z),500,564689.3999999985,564689.1000000015,562124.864,562118.8999999985,562141.798,564705.44,8,400,26,,ISIC_2885086.JPG
break,html.Screen,4_125_1,2023-11-01T21:48:36.007Z,,0,,,NaN,,,,,,false,,,,564690.1000000015,564689.8999999985,,564689.6000000015,,564705.44,8,400,,,
break_continue,html.Screen,4_125_2,2023-11-01T21:48:36.007Z,,0,,,NaN,,,,,,false,,,,564690.3000000045,564690.200000003,,564690.1000000015,,564705.44,8,400,,,
