sender,sender_type,sender_id,timestamp,meta,,blockNo,condition,duration,ended_on,img_left,img_reveal,img_right,loser,practice,response,response_action,selection_duration,time_commit,time_end,time_render,time_run,time_show,time_switch,total_blocks,total_trials,trialNo,url,winner
informed_consent,html.Screen,0,2023-09-08T20:42:23.545Z,"{""labjs_version"":""20.2.4"",""labjs_build"":{""flavor"":""production"",""commit"":""f5b4a49f956347addd546a832a3327688c2c0fef""},""location"":""https://run.pavlovia.org/MurrayBennett/melanoma-2afc/?participant=615880a66bc32302998866d9&STUDY_ID=64f8c92207ba404bcb356c90&SESSION_ID=64fb8722aa737e752d789c65&platform=prolific"",""userAgent"":""Mozilla/5.0 (Macintosh; Intel Mac OS X 10_15_7) AppleWebKit/537.36 (KHTML, like Gecko) Chrome/116.0.0.0 Safari/537.36"",""platform"":""MacIntel"",""language"":""en-US"",""locale"":""en-US"",""timeZone"":""America/Chicago"",""timezoneOffset"":300,""screen_width"":2560,""screen_height"":1440,""scroll_width"":2516,""scroll_height"":1151,""window_innerWidth"":2516,""window_innerHeight"":1199,""devicePixelRatio"":2}",,,,5183.8420000476835,response,,,,,,consent,click button,,6797.200000047684,6774.200000047684,1573.69,1569.8999999761581,1590.358,6807.833,,,,"{""participant"":""615880a66bc32302998866d9"",""STUDY_ID"":""64f8c92207ba404bcb356c90"",""SESSION_ID"":""64fb8722aa737e752d789c65"",""platform"":""prolific""}",
Welcome,html.Screen,1,2023-09-08T20:43:01.054Z,,,,regular,37484.167,response,,,,,,continue,click button,,44307.5,44292,6791.165,6797.299999952316,6807.833,44312.153,,,,,
trial,html.Screen,2_0_0,2023-09-08T20:43:10.124Z,,0,0,,9065.146999952318,response,ISIC_0061792.JPG,,ISIC_4679428.JPG,ISIC_4679428.JPG,true,0,keypress(z),500,53377.5,53377.299999952316,44295.485,44307.700000047684,44312.153,53380.143,1,6,1,,ISIC_0061792.JPG
sequence,flow.Sequence,2_0,2023-09-08T20:43:10.124Z,,0,,,9065.146999952318,completion,,,,,true,,,,53377.799999952316,53377.299999952316,44295.485,44307.59999990463,44312.153,53380.143,1,6,,,
trial,html.Screen,2_1_0,2023-09-08T20:43:15.854Z,,0,0,,5727.65699995232,response,ISIC_5199497.JPG,,ISIC_0776486.JPG,ISIC_0776486.JPG,true,0,keypress(z),500,59108,59107.799999952316,53363.475,53377.90000009537,53380.143,59113.935,1,6,2,,ISIC_5199497.JPG
sequence,flow.Sequence,2_1,2023-09-08T20:43:15.854Z,,0,,,5727.65699995232,completion,,,,,true,,,,59108.09999990463,59107.799999952316,53363.475,53377.90000009537,53380.143,59113.935,1,6,,,
trial,html.Screen,2_2_0,2023-09-08T20:43:21.697Z,,0,0,,5837.164999904635,response,ISIC_8575776.JPG,,ISIC_2556187.JPG,ISIC_8575776.JPG,true,1,keypress(m),500,64951.200000047684,64951.09999990463,59097.267,59108.299999952316,59113.935,64964.853,1,6,3,,ISIC_2556187.JPG
sequence,flow.Sequence,2_2,2023-09-08T20:43:21.697Z,,0,,,5837.164999904635,completion,,,,,true,,,,64951.40000009537,64951.09999990463,59097.267,59108.200000047684,59113.935,64964.853,1,6,,,
trial,html.Screen,2_3_0,2023-09-08T20:43:28.515Z,,0,0,,6804.24699990463,response,ISIC_9238366.JPG,,ISIC_8141769.JPG,ISIC_8141769.JPG,true,0,keypress(z),500,71769.40000009537,71769.09999990463,64948.185,64951.59999990463,64964.853,71782.065,1,6,4,,ISIC_9238366.JPG
sequence,flow.Sequence,2_3,2023-09-08T20:43:28.515Z,,0,,,6804.24699990463,completion,,,,,true,,,,71769.59999990463,71769.09999990463,64948.185,64951.5,64964.853,71782.065,1,6,,,
trial,html.Screen,2_4_0,2023-09-08T20:43:34.153Z,,0,0,,5625.934999999998,response,ISIC_9959593.JPG,,ISIC_8949026.JPG,ISIC_9959593.JPG,true,1,keypress(m),500,77408.29999995232,77408,71765.397,71769.79999995232,71782.065,77416.334,1,6,5,,ISIC_8949026.JPG
sequence,flow.Sequence,2_4,2023-09-08T20:43:34.154Z,,0,,,5625.934999999998,completion,,,,,true,,,,77408.40000009537,77408,71765.397,71769.70000004768,71782.065,77416.334,1,6,,,
trial,html.Screen,2_5_0,2023-09-08T20:43:39.970Z,,0,0,,5808.566000095365,response,ISIC_0460240.JPG,,ISIC_0010479.JPG,ISIC_0460240.JPG,true,1,keypress(m),500,83225.09999990463,83224.90000009537,77399.666,77408.59999990463,77416.334,83233.466,1,6,6,,ISIC_0010479.JPG
sequence,flow.Sequence,2_5,2023-09-08T20:43:39.970Z,,0,,,5808.566000095365,completion,,,,,true,,,,83225.29999995232,83224.90000009537,77399.666,77408.5,77416.334,83233.466,1,6,,,
loop,flow.Loop,2,2023-09-08T20:43:39.970Z,,,,,38912.74700009537,completion,,,,,true,,,,83225.5,83224.90000009537,44295.485,44307.59999990463,44312.153,83233.466,1,6,,,
exp_instructions,html.Screen,3,2023-09-08T20:43:46.105Z,,,,,6123.434000095367,response,,,,,,continue,keypress(Space),,89360.20000004768,89356.90000009537,83216.798,83225.5,83233.466,89367.29,,,,,
trial,html.Screen,4_0_0,2023-09-08T20:43:50.962Z,,0,1,,4849.91000004769,response,ISIC_6951506.JPG,6,ISIC_5099569.JPG,ISIC_6951506.JPG,false,1,keypress(m),500,94217.29999995232,94217.20000004768,89350.622,89360.40000009537,89367.29,94218.163,8,400,1,,ISIC_5099569.JPG
break,html.Screen,4_0_1,2023-09-08T20:43:50.962Z,,0,,,NaN,,,,,,false,,,,94217.90000009537,94217.79999995232,,94217.5,,94218.163,8,400,,,
break_continue,html.Screen,4_0_2,2023-09-08T20:43:50.963Z,,0,,,NaN,,,,,,false,,,,94218.20000004768,94218.20000004768,,94218,,94218.163,8,400,,,
sequence,flow.Sequence,4_0,2023-09-08T20:43:50.963Z,,0,,,4850.91000004769,completion,,,,,false,,,,94218.40000009537,94218.20000004768,89350.622,89360.40000009537,89367.29,94218.163,8,400,,,
trial,html.Screen,4_1_0,2023-09-08T20:43:56.583Z,,0,1,,5620.3369999999995,response,ISIC_7620514.JPG,7,ISIC_3487151.JPG,ISIC_7620514.JPG,false,1,keypress(m),500,99838.70000004768,99838.5,94201.495,94219.20000004768,94218.163,99851.947,8,400,2,,ISIC_3487151.JPG
break,html.Screen,4_1_1,2023-09-08T20:43:56.583Z,,0,,,NaN,,,,,,false,,,,99839.09999990463,99839,,99838.79999995232,,99851.947,8,400,,,
break_continue,html.Screen,4_1_2,2023-09-08T20:43:56.584Z,,0,,,NaN,,,,,,false,,,,99839.29999995232,99839.20000004768,,99839.20000004768,,99851.947,8,400,,,
sequence,flow.Sequence,4_1,2023-09-08T20:43:56.584Z,,0,,,5621.037000047683,completion,,,,,false,,,,99839.5,99839.20000004768,94201.495,94218.5,94218.163,99851.947,8,400,,,
trial,html.Screen,4_2_0,2023-09-08T20:43:59.836Z,,0,1,,3239.852999952316,response,ISIC_6577767.JPG,8,ISIC_5324987.JPG,ISIC_6577767.JPG,false,1,keypress(m),500,103091.90000009537,103091.79999995232,99835.279,99839.59999990463,99851.947,103102.615,8,400,3,,ISIC_5324987.JPG
break,html.Screen,4_2_1,2023-09-08T20:43:59.836Z,,0,,,NaN,,,,,,false,,,,103092.40000009537,103092.29999995232,,103092,,103102.615,8,400,,,
break_continue,html.Screen,4_2_2,2023-09-08T20:43:59.837Z,,0,,,NaN,,,,,,false,,,,103092.59999990463,103092.59999990463,,103092.40000009537,,103102.615,8,400,,,
sequence,flow.Sequence,4_2,2023-09-08T20:43:59.837Z,,0,,,3240.6529999046325,completion,,,,,false,,,,103092.70000004768,103092.59999990463,99835.279,99839.59999990463,99851.947,103102.615,8,400,,,
trial,html.Screen,4_3_0,2023-09-08T20:44:03.440Z,,0,1,,3592.9849999046273,response,ISIC_0032861.JPG,8,ISIC_0032872.JPG,ISIC_0032872.JPG,false,0,keypress(z),500,106695.70000004768,106695.59999990463,103085.947,103092.79999995232,103102.615,106702.903,8,400,4,,ISIC_0032861.JPG
break,html.Screen,4_3_1,2023-09-08T20:44:03.440Z,,0,,,NaN,,,,,,false,,,,106696.20000004768,106696.09999990463,,106695.79999995232,,106702.903,8,400,,,
break_continue,html.Screen,4_3_2,2023-09-08T20:44:03.440Z,,0,,,NaN,,,,,,false,,,,106696.29999995232,106696.29999995232,,106696.20000004768,,106702.903,8,400,,,
sequence,flow.Sequence,4_3,2023-09-08T20:44:03.440Z,,0,,,3593.684999952311,completion,,,,,false,,,,106696.5,106696.29999995232,103085.947,103092.79999995232,103102.615,106702.903,8,400,,,
trial,html.Screen,4_4_0,2023-09-08T20:44:06.437Z,,0,1,,2989.5969999999943,response,ISIC_3700351.JPG,5,ISIC_3431915.JPG,ISIC_3700351.JPG,false,1,keypress(m),500,109692.59999990463,109692.5,106686.235,106696.5,106702.903,109703.143,8,400,5,,ISIC_3431915.JPG
break,html.Screen,4_4_1,2023-09-08T20:44:06.437Z,,0,,,NaN,,,,,,false,,,,109693.20000004768,109693.09999990463,,109692.90000009537,,109703.143,8,400,,,
break_continue,html.Screen,4_4_2,2023-09-08T20:44:06.437Z,,0,,,NaN,,,,,,false,,,,109693.40000009537,109693.40000009537,,109693.29999995232,,109703.143,8,400,,,
sequence,flow.Sequence,4_4,2023-09-08T20:44:06.437Z,,0,,,2990.4970000953617,completion,,,,,false,,,,109693.59999990463,109693.40000009537,106686.235,106696.5,106702.903,109703.143,8,400,,,
trial,html.Screen,4_5_0,2023-09-08T20:44:09.142Z,,0,1,,2695.3570000000036,response,ISIC_4156010.JPG,5,ISIC_8521610.JPG,ISIC_8521610.JPG,false,0,keypress(z),500,112398.70000004768,112398.5,109686.475,109693.70000004768,109703.143,112403.75,8,400,6,,ISIC_4156010.JPG
break,html.Screen,4_5_1,2023-09-08T20:44:09.143Z,,0,,,NaN,,,,,,false,,,,112399.09999990463,112399,,112398.79999995232,,112403.75,8,400,,,
break_continue,html.Screen,4_5_2,2023-09-08T20:44:09.143Z,,0,,,NaN,,,,,,false,,,,112399.29999995232,112399.20000004768,,112399.09999990463,,112403.75,8,400,,,
sequence,flow.Sequence,4_5,2023-09-08T20:44:09.143Z,,0,,,2696.0570000476873,completion,,,,,false,,,,112399.40000009537,112399.20000004768,109686.475,109693.59999990463,109703.143,112403.75,8,400,,,
trial,html.Screen,4_6_0,2023-09-08T20:44:14.497Z,,0,1,,5349.150000095367,response,ISIC_6976570.JPG,7,ISIC_0025757.JPG,ISIC_6976570.JPG,false,1,keypress(m),500,117753,117752.90000009537,112387.082,112399.5,112403.75,117754.178,8,400,7,,ISIC_0025757.JPG
break,html.Screen,4_6_1,2023-09-08T20:44:14.497Z,,0,,,NaN,,,,,,false,,,,117753.5,117753.29999995232,,117753.09999990463,,117754.178,8,400,,,
break_continue,html.Screen,4_6_2,2023-09-08T20:44:14.497Z,,0,,,NaN,,,,,,false,,,,117753.59999990463,117753.59999990463,,117753.59999990463,,117754.178,8,400,,,
sequence,flow.Sequence,4_6,2023-09-08T20:44:14.497Z,,0,,,5349.849999904633,completion,,,,,false,,,,117753.70000004768,117753.59999990463,112387.082,112399.40000009537,112403.75,117754.178,8,400,,,
trial,html.Screen,4_7_0,2023-09-08T20:44:19.221Z,,0,1,,4723.421999904633,response,ISIC_2162728.JPG,7,ISIC_1850388.JPG,ISIC_2162728.JPG,false,1,keypress(m),500,122477.70000004768,122477.59999990463,117737.51,117753.79999995232,117754.178,122488.362,8,400,8,,ISIC_1850388.JPG
break,html.Screen,4_7_1,2023-09-08T20:44:19.221Z,,0,,,NaN,,,,,,false,,,,122478.09999990463,122478,,122477.79999995232,,122488.362,8,400,,,
break_continue,html.Screen,4_7_2,2023-09-08T20:44:19.222Z,,0,,,NaN,,,,,,false,,,,122478.40000009537,122478.29999995232,,122478.09999990463,,122488.362,8,400,,,
sequence,flow.Sequence,4_7,2023-09-08T20:44:19.222Z,,0,,,4724.121999952316,completion,,,,,false,,,,122478.40000009537,122478.29999995232,117737.51,117753.79999995232,117754.178,122488.362,8,400,,,
trial,html.Screen,4_8_0,2023-09-08T20:44:25.226Z,,0,1,,5994.237999904639,response,ISIC_0033394.JPG,6,ISIC_0062525.JPG,ISIC_0033394.JPG,false,1,keypress(m),500,128482.79999995232,128482.59999990463,122471.694,122478.5,122488.362,128488.842,8,400,9,,ISIC_0062525.JPG
break,html.Screen,4_8_1,2023-09-08T20:44:25.226Z,,0,,,NaN,,,,,,false,,,,128483.29999995232,128483.20000004768,,128482.90000009537,,128488.842,8,400,,,
break_continue,html.Screen,4_8_2,2023-09-08T20:44:25.227Z,,0,,,NaN,,,,,,false,,,,128483.5,128483.40000009537,,128483.40000009537,,128488.842,8,400,,,
sequence,flow.Sequence,4_8,2023-09-08T20:44:25.227Z,,0,,,5995.038000095374,completion,,,,,false,,,,128483.5,128483.40000009537,122471.694,122478.40000009537,122488.362,128488.842,8,400,,,
trial,html.Screen,4_9_0,2023-09-08T20:44:28.729Z,,0,1,,3496.657999999996,response,ISIC_0945844.JPG,6,ISIC_7059794.JPG,ISIC_7059794.JPG,false,0,keypress(z),500,131985.79999995232,131985.5,128472.174,128483.59999990463,128488.842,131989.122,8,400,10,,ISIC_0945844.JPG
break,html.Screen,4_9_1,2023-09-08T20:44:28.729Z,,0,,,NaN,,,,,,false,,,,131986.20000004768,131986,,131985.90000009537,,131989.122,8,400,,,
break_continue,html.Screen,4_9_2,2023-09-08T20:44:28.729Z,,0,,,NaN,,,,,,false,,,,131986.40000009537,131986.40000009537,,131986.20000004768,,131989.122,8,400,,,
sequence,flow.Sequence,4_9,2023-09-08T20:44:28.729Z,,0,,,3497.5580000953632,completion,,,,,false,,,,131986.5,131986.40000009537,128472.174,128483.59999990463,128488.842,131989.122,8,400,,,
trial,html.Screen,4_10_0,2023-09-08T20:44:33.353Z,,0,1,,4621.078000047681,response,ISIC_9837030.JPG,6,ISIC_0073156.JPG,ISIC_0073156.JPG,false,0,keypress(z),500,136610.40000009537,136610.20000004768,131972.454,131986.59999990463,131989.122,136623.216,8,400,11,,ISIC_9837030.JPG
break,html.Screen,4_10_1,2023-09-08T20:44:33.354Z,,0,,,NaN,,,,,,false,,,,136610.79999995232,136610.70000004768,,136610.5,,136623.216,8,400,,,
break_continue,html.Screen,4_10_2,2023-09-08T20:44:33.354Z,,0,,,NaN,,,,,,false,,,,136611.09999990463,136610.90000009537,,136610.90000009537,,136623.216,8,400,,,
sequence,flow.Sequence,4_10,2023-09-08T20:44:33.354Z,,0,,,4621.778000095364,completion,,,,,false,,,,136611.20000004768,136610.90000009537,131972.454,131986.5,131989.122,136623.216,8,400,,,
trial,html.Screen,4_11_0,2023-09-08T20:44:37.791Z,,0,1,,4425.284000000014,response,ISIC_0062208.JPG,8,ISIC_0067697.JPG,ISIC_0062208.JPG,false,1,keypress(m),500,141048.59999990463,141048.5,136606.548,136611.29999995232,136623.216,141056.904,8,400,12,,ISIC_0067697.JPG
break,html.Screen,4_11_1,2023-09-08T20:44:37.792Z,,0,,,NaN,,,,,,false,,,,141049.09999990463,141049,,141048.70000004768,,141056.904,8,400,,,
break_continue,html.Screen,4_11_2,2023-09-08T20:44:37.792Z,,0,,,NaN,,,,,,false,,,,141049.29999995232,141049.20000004768,,141049.09999990463,,141056.904,8,400,,,
sequence,flow.Sequence,4_11,2023-09-08T20:44:37.792Z,,0,,,4425.984000047698,completion,,,,,false,,,,141049.5,141049.20000004768,136606.548,136611.29999995232,136623.216,141056.904,8,400,,,
trial,html.Screen,4_12_0,2023-09-08T20:44:42.744Z,,0,1,,4944.195999904623,response,ISIC_2508901.JPG,8,ISIC_3610783.JPG,ISIC_2508901.JPG,false,1,keypress(m),500,146001.29999995232,146001.09999990463,141040.236,141049.5,141056.904,146007.692,8,400,13,,ISIC_3610783.JPG
break,html.Screen,4_12_1,2023-09-08T20:44:42.744Z,,0,,,NaN,,,,,,false,,,,146001.79999995232,146001.70000004768,,146001.40000009537,,146007.692,8,400,,,
break_continue,html.Screen,4_12_2,2023-09-08T20:44:42.744Z,,0,,,NaN,,,,,,false,,,,146002,146001.90000009537,,146001.90000009537,,146007.692,8,400,,,
sequence,flow.Sequence,4_12,2023-09-08T20:44:42.744Z,,0,,,4944.996000095358,completion,,,,,false,,,,146002.09999990463,146001.90000009537,141040.236,141049.5,141056.904,146007.692,8,400,,,
trial,html.Screen,4_13_0,2023-09-08T20:44:46.906Z,,0,1,,4156.008000047674,response,ISIC_6968422.JPG,5,ISIC_0002162.JPG,ISIC_6968422.JPG,false,1,keypress(m),500,150163.79999995232,150163.70000004768,145991.024,146002.09999990463,146007.692,150174.692,8,400,14,,ISIC_0002162.JPG
break,html.Screen,4_13_1,2023-09-08T20:44:46.906Z,,0,,,NaN,,,,,,false,,,,150164.20000004768,150164.09999990463,,150163.90000009537,,150174.692,8,400,,,
break_continue,html.Screen,4_13_2,2023-09-08T20:44:46.907Z,,0,,,NaN,,,,,,false,,,,150164.5,150164.40000009537,,150164.29999995232,,150174.692,8,400,,,
sequence,flow.Sequence,4_13,2023-09-08T20:44:46.907Z,,0,,,4156.708000095357,completion,,,,,false,,,,150164.59999990463,150164.40000009537,145991.024,146002.09999990463,146007.692,150174.692,8,400,,,
trial,html.Screen,4_14_0,2023-09-08T20:44:51.687Z,,0,1,,4770.508000047674,response,ISIC_9934037.JPG,8,ISIC_3181358.JPG,ISIC_3181358.JPG,false,0,keypress(z),500,154945.40000009537,154945.20000004768,150158.024,150164.70000004768,150174.692,154958.889,8,400,15,,ISIC_9934037.JPG
break,html.Screen,4_14_1,2023-09-08T20:44:51.688Z,,0,,,NaN,,,,,,false,,,,154945.79999995232,154945.70000004768,,154945.5,,154958.889,8,400,,,
break_continue,html.Screen,4_14_2,2023-09-08T20:44:51.688Z,,0,,,NaN,,,,,,false,,,,154946.09999990463,154946,,154945.90000009537,,154958.889,8,400,,,
sequence,flow.Sequence,4_14,2023-09-08T20:44:51.688Z,,0,,,4771.30799999999,completion,,,,,false,,,,154946.09999990463,154946,150158.024,150164.70000004768,150174.692,154958.889,8,400,,,
trial,html.Screen,4_15_0,2023-09-08T20:44:55.983Z,,0,1,,4282.410999952321,response,ISIC_9187876.JPG,5,ISIC_6983970.JPG,ISIC_6983970.JPG,false,0,keypress(z),500,159241.40000009537,159241.29999995232,154942.221,154946.20000004768,154958.889,159242.565,8,400,16,,ISIC_9187876.JPG
break,html.Screen,4_15_1,2023-09-08T20:44:55.984Z,,0,,,NaN,,,,,,false,,,,159241.79999995232,159241.70000004768,,159241.59999990463,,159242.565,8,400,,,
break_continue,html.Screen,4_15_2,2023-09-08T20:44:55.984Z,,0,,,NaN,,,,,,false,,,,159242,159242,,159241.90000009537,,159242.565,8,400,,,
sequence,flow.Sequence,4_15,2023-09-08T20:44:55.984Z,,0,,,4283.111000000004,completion,,,,,false,,,,159242.20000004768,159242,154942.221,154946.20000004768,154958.889,159242.565,8,400,,,
trial,html.Screen,4_16_0,2023-09-08T20:44:59.761Z,,0,1,,3776.734999952314,response,ISIC_5641619.JPG,9,ISIC_2283509.JPG,ISIC_2283509.JPG,false,0,keypress(z),500,163019.40000009537,163019.29999995232,159225.897,159242.20000004768,159242.565,163026.201,8,400,17,,ISIC_5641619.JPG
break,html.Screen,4_16_1,2023-09-08T20:44:59.762Z,,0,,,NaN,,,,,,false,,,,163019.90000009537,163019.79999995232,,163019.5,,163026.201,8,400,,,
break_continue,html.Screen,4_16_2,2023-09-08T20:44:59.762Z,,0,,,NaN,,,,,,false,,,,163020,163020,,163019.90000009537,,163026.201,8,400,,,
sequence,flow.Sequence,4_16,2023-09-08T20:44:59.762Z,,0,,,3777.4349999999977,completion,,,,,false,,,,163020.20000004768,163020,159225.897,159242.20000004768,159242.565,163026.201,8,400,,,
trial,html.Screen,4_17_0,2023-09-08T20:45:05.364Z,,0,1,,5596.1990000953665,response,ISIC_0806138.JPG,6,ISIC_1615996.JPG,ISIC_0806138.JPG,false,1,keypress(m),500,168622.59999990463,168622.40000009537,163009.533,163020.20000004768,163026.201,168627.043,8,400,18,,ISIC_1615996.JPG
break,html.Screen,4_17_1,2023-09-08T20:45:05.364Z,,0,,,NaN,,,,,,false,,,,168623.09999990463,168622.90000009537,,168622.79999995232,,168627.043,8,400,,,
break_continue,html.Screen,4_17_2,2023-09-08T20:45:05.365Z,,0,,,NaN,,,,,,false,,,,168623.29999995232,168623.20000004768,,168623.09999990463,,168627.043,8,400,,,
sequence,flow.Sequence,4_17,2023-09-08T20:45:05.365Z,,0,,,5596.999000047683,completion,,,,,false,,,,168623.40000009537,168623.20000004768,163009.533,163020.20000004768,163026.201,168627.043,8,400,,,
trial,html.Screen,4_18_0,2023-09-08T20:45:09.193Z,,0,1,,3824.8570000953623,response,ISIC_0065513.JPG,8,ISIC_6734679.JPG,ISIC_0065513.JPG,false,1,keypress(m),500,172452,172451.90000009537,168610.375,168623.5,168627.043,172460.683,8,400,19,,ISIC_6734679.JPG
break,html.Screen,4_18_1,2023-09-08T20:45:09.194Z,,0,,,NaN,,,,,,false,,,,172452.5,172452.40000009537,,172452.20000004768,,172460.683,8,400,,,
break_continue,html.Screen,4_18_2,2023-09-08T20:45:09.194Z,,0,,,NaN,,,,,,false,,,,172452.70000004768,172452.70000004768,,172452.59999990463,,172460.683,8,400,,,
sequence,flow.Sequence,4_18,2023-09-08T20:45:09.194Z,,0,,,3825.6570000476786,completion,,,,,false,,,,172452.79999995232,172452.70000004768,168610.375,168623.5,168627.043,172460.683,8,400,,,
trial,html.Screen,4_19_0,2023-09-08T20:45:14.174Z,,0,1,,4972.517000047694,response,ISIC_8635849.JPG,7,ISIC_7972996.JPG,ISIC_8635849.JPG,false,1,keypress(m),500,177433.29999995232,177433.20000004768,172444.015,172452.90000009537,172460.683,177444.898,8,400,20,,ISIC_7972996.JPG
break,html.Screen,4_19_1,2023-09-08T20:45:14.175Z,,0,,,NaN,,,,,,false,,,,177433.70000004768,177433.59999990463,,177433.5,,177444.898,8,400,,,
break_continue,html.Screen,4_19_2,2023-09-08T20:45:14.175Z,,0,,,NaN,,,,,,false,,,,177433.90000009537,177433.90000009537,,177433.79999995232,,177444.898,8,400,,,
sequence,flow.Sequence,4_19,2023-09-08T20:45:14.175Z,,0,,,4973.217000095377,completion,,,,,false,,,,177434.09999990463,177433.90000009537,172444.015,172452.90000009537,172460.683,177444.898,8,400,,,
trial,html.Screen,4_20_0,2023-09-08T20:45:19.297Z,,0,1,,5110.802000047697,response,ISIC_0033171.JPG,7,ISIC_0033337.JPG,ISIC_0033337.JPG,false,0,keypress(z),500,182555.90000009537,182555.70000004768,177428.23,177434.20000004768,177444.898,182561.974,8,400,21,,ISIC_0033171.JPG
break,html.Screen,4_20_1,2023-09-08T20:45:19.297Z,,0,,,NaN,,,,,,false,,,,182556.29999995232,182556.09999990463,,182556,,182561.974,8,400,,,
break_continue,html.Screen,4_20_2,2023-09-08T20:45:19.297Z,,0,,,NaN,,,,,,false,,,,182556.59999990463,182556.40000009537,,182556.40000009537,,182561.974,8,400,,,
sequence,flow.Sequence,4_20,2023-09-08T20:45:19.298Z,,0,,,5111.502000095381,completion,,,,,false,,,,182556.59999990463,182556.40000009537,177428.23,177434.20000004768,177444.898,182561.974,8,400,,,
trial,html.Screen,4_21_0,2023-09-08T20:45:24.414Z,,0,1,,5111.125999904645,response,ISIC_0059440.JPG,5,ISIC_1568268.JPG,ISIC_0059440.JPG,false,1,keypress(m),500,187673.29999995232,187673.09999990463,182545.306,182556.70000004768,182561.974,187679.448,8,400,22,,ISIC_1568268.JPG
break,html.Screen,4_21_1,2023-09-08T20:45:24.414Z,,0,,,NaN,,,,,,false,,,,187673.79999995232,187673.59999990463,,187673.40000009537,,187679.448,8,400,,,
break_continue,html.Screen,4_21_2,2023-09-08T20:45:24.415Z,,0,,,NaN,,,,,,false,,,,187674,187673.90000009537,,187673.79999995232,,187679.448,8,400,,,
sequence,flow.Sequence,4_21,2023-09-08T20:45:24.415Z,,0,,,5111.92600009538,completion,,,,,false,,,,187674.20000004768,187673.90000009537,182545.306,182556.70000004768,182561.974,187679.448,8,400,,,
trial,html.Screen,4_22_0,2023-09-08T20:45:28.129Z,,0,1,,3708.9520000953635,response,ISIC_9738202.JPG,8,ISIC_8513112.JPG,ISIC_8513112.JPG,false,0,keypress(z),500,191388.5,191388.40000009537,187662.78,187674.29999995232,187679.448,191396.412,8,400,23,,ISIC_9738202.JPG
break,html.Screen,4_22_1,2023-09-08T20:45:28.129Z,,0,,,NaN,,,,,,false,,,,191389,191388.90000009537,,191388.59999990463,,191396.412,8,400,,,
break_continue,html.Screen,4_22_2,2023-09-08T20:45:28.130Z,,0,,,NaN,,,,,,false,,,,191389.09999990463,191389.09999990463,,191389.09999990463,,191396.412,8,400,,,
sequence,flow.Sequence,4_22,2023-09-08T20:45:28.130Z,,0,,,3709.6519999046286,completion,,,,,false,,,,191389.29999995232,191389.09999990463,187662.78,187674.20000004768,187679.448,191396.412,8,400,,,
trial,html.Screen,4_23_0,2023-09-08T20:45:31.317Z,,0,1,,3179.887999952305,response,ISIC_6101007.JPG,9,ISIC_4765919.JPG,ISIC_6101007.JPG,false,1,keypress(m),500,194576.40000009537,194576.29999995232,191379.744,191389.29999995232,191396.412,194580,8,400,24,,ISIC_4765919.JPG
break,html.Screen,4_23_1,2023-09-08T20:45:31.317Z,,0,,,NaN,,,,,,false,,,,194576.90000009537,194576.79999995232,,194576.5,,194580,8,400,,,
break_continue,html.Screen,4_23_2,2023-09-08T20:45:31.317Z,,0,,,NaN,,,,,,false,,,,194577.09999990463,194577,,194576.90000009537,,194580,8,400,,,
sequence,flow.Sequence,4_23,2023-09-08T20:45:31.318Z,,0,,,3180.587999999989,completion,,,,,false,,,,194577.20000004768,194577,191379.744,191389.29999995232,191396.412,194580,8,400,,,
trial,html.Screen,4_24_0,2023-09-08T20:45:37.003Z,,0,1,,5682.400000095367,response,ISIC_0071906.JPG,6,ISIC_0011642.JPG,ISIC_0071906.JPG,false,1,keypress(m),500,200262.59999990463,200262.40000009537,194563.332,194577.20000004768,194580,200264.19,8,400,25,,ISIC_0011642.JPG
break,html.Screen,4_24_1,2023-09-08T20:45:37.003Z,,0,,,NaN,,,,,,false,,,,200263,200262.90000009537,,200262.70000004768,,200264.19,8,400,,,
break_continue,html.Screen,4_24_2,2023-09-08T20:45:37.003Z,,0,,,NaN,,,,,,false,,,,200263.20000004768,200263.09999990463,,200263.09999990463,,200264.19,8,400,,,
sequence,flow.Sequence,4_24,2023-09-08T20:45:37.003Z,,0,,,5683.099999904633,completion,,,,,false,,,,200263.29999995232,200263.09999990463,194563.332,194577.20000004768,194580,200264.19,8,400,,,
trial,html.Screen,4_25_0,2023-09-08T20:45:43.029Z,,0,1,,6024.510000047681,response,ISIC_8109460.JPG,5,ISIC_0061735.JPG,ISIC_8109460.JPG,false,1,keypress(m),500,206288.90000009537,206288.70000004768,200247.522,200263.40000009537,200264.19,206298.006,8,400,26,,ISIC_0061735.JPG
break,html.Screen,4_25_1,2023-09-08T20:45:43.029Z,,0,,,NaN,,,,,,false,,,,206289.29999995232,206289.20000004768,,206289,,206298.006,8,400,,,
break_continue,html.Screen,4_25_2,2023-09-08T20:45:43.029Z,,0,,,NaN,,,,,,false,,,,206289.59999990463,206289.40000009537,,206289.40000009537,,206298.006,8,400,,,
sequence,flow.Sequence,4_25,2023-09-08T20:45:43.030Z,,0,,,6025.210000095365,completion,,,,,false,,,,206289.70000004768,206289.40000009537,200247.522,200263.40000009537,200264.19,206298.006,8,400,,,
trial,html.Screen,4_26_0,2023-09-08T20:45:47.317Z,,0,1,,4279.3940000953735,response,ISIC_3544821.JPG,6,ISIC_8384985.JPG,ISIC_8384985.JPG,false,0,keypress(z),500,210577.59999990463,210577.40000009537,206281.338,206289.79999995232,206298.006,210582.083,8,400,27,,ISIC_3544821.JPG
break,html.Screen,4_26_1,2023-09-08T20:45:47.318Z,,0,,,NaN,,,,,,false,,,,210578,210577.90000009537,,210577.70000004768,,210582.083,8,400,,,
break_continue,html.Screen,4_26_2,2023-09-08T20:45:47.318Z,,0,,,NaN,,,,,,false,,,,210578.29999995232,210578.09999990463,,210578.09999990463,,210582.083,8,400,,,
sequence,flow.Sequence,4_26,2023-09-08T20:45:47.318Z,,0,,,4280.093999904639,completion,,,,,false,,,,210578.29999995232,210578.09999990463,206281.338,206289.70000004768,206298.006,210582.083,8,400,,,
trial,html.Screen,4_27_0,2023-09-08T20:45:50.888Z,,0,1,,3565.9169999999867,response,ISIC_4829706.JPG,8,ISIC_0011365.JPG,ISIC_0011365.JPG,false,0,keypress(z),500,214148.20000004768,214148,210565.415,210578.40000009537,210582.083,214149.035,8,400,28,,ISIC_4829706.JPG
break,html.Screen,4_27_1,2023-09-08T20:45:50.888Z,,0,,,NaN,,,,,,false,,,,214148.59999990463,214148.5,,214148.29999995232,,214149.035,8,400,,,
break_continue,html.Screen,4_27_2,2023-09-08T20:45:50.888Z,,0,,,NaN,,,,,,false,,,,214148.90000009537,214148.79999995232,,214148.70000004768,,214149.035,8,400,,,
sequence,flow.Sequence,4_27,2023-09-08T20:45:50.889Z,,0,,,3566.716999952303,completion,,,,,false,,,,214148.90000009537,214148.79999995232,210565.415,210578.40000009537,210582.083,214149.035,8,400,,,
trial,html.Screen,4_28_0,2023-09-08T20:45:54.076Z,,0,1,,3187.064999904629,response,ISIC_5194331.JPG,8,ISIC_0029913.JPG,ISIC_5194331.JPG,false,1,keypress(m),500,217336.20000004768,217336.09999990463,214132.367,214149,214149.035,217349.291,8,400,29,,ISIC_0029913.JPG
break,html.Screen,4_28_1,2023-09-08T20:45:54.076Z,,0,,,NaN,,,,,,false,,,,217336.70000004768,217336.59999990463,,217336.29999995232,,217349.291,8,400,,,
break_continue,html.Screen,4_28_2,2023-09-08T20:45:54.076Z,,0,,,NaN,,,,,,false,,,,217336.90000009537,217336.79999995232,,217336.79999995232,,217349.291,8,400,,,
sequence,flow.Sequence,4_28,2023-09-08T20:45:54.076Z,,0,,,3187.764999952313,completion,,,,,false,,,,217337,217336.79999995232,214132.367,214149,214149.035,217349.291,8,400,,,
trial,html.Screen,4_29_0,2023-09-08T20:45:57.873Z,,0,1,,3784.2090000000026,response,ISIC_1484659.JPG,8,ISIC_2341100.JPG,ISIC_2341100.JPG,false,0,keypress(z),500,221133.70000004768,221133.5,217332.623,217337.09999990463,217349.291,221150.006,8,400,30,,ISIC_1484659.JPG
break,html.Screen,4_29_1,2023-09-08T20:45:57.873Z,,0,,,NaN,,,,,,false,,,,221134.09999990463,221134,,221133.79999995232,,221150.006,8,400,,,
break_continue,html.Screen,4_29_2,2023-09-08T20:45:57.874Z,,0,,,NaN,,,,,,false,,,,221134.40000009537,221134.20000004768,,221134.09999990463,,221150.006,8,400,,,
sequence,flow.Sequence,4_29,2023-09-08T20:45:57.874Z,,0,,,3784.9090000476863,completion,,,,,false,,,,221134.5,221134.20000004768,217332.623,217337.09999990463,217349.291,221150.006,8,400,,,
trial,html.Screen,4_30_0,2023-09-08T20:46:01.063Z,,0,1,,3173.1940000476898,response,ISIC_0028031.JPG,9,ISIC_2868199.JPG,ISIC_0028031.JPG,false,1,keypress(m),500,224323.40000009537,224323.20000004768,221133.338,221134.5,221150.006,224333.594,8,400,31,,ISIC_2868199.JPG
break,html.Screen,4_30_1,2023-09-08T20:46:01.063Z,,0,,,NaN,,,,,,false,,,,224323.79999995232,224323.70000004768,,224323.5,,224333.594,8,400,,,
break_continue,html.Screen,4_30_2,2023-09-08T20:46:01.063Z,,0,,,NaN,,,,,,false,,,,224324.09999990463,224323.90000009537,,224323.90000009537,,224333.594,8,400,,,
sequence,flow.Sequence,4_30,2023-09-08T20:46:01.063Z,,0,,,3173.8940000953735,completion,,,,,false,,,,224324.09999990463,224323.90000009537,221133.338,221134.5,221150.006,224333.594,8,400,,,
trial,html.Screen,4_31_0,2023-09-08T20:46:04.860Z,,0,1,,3787.3060000953556,response,ISIC_4938994.JPG,8,ISIC_0011510.JPG,ISIC_0011510.JPG,false,0,keypress(z),500,228121,228120.90000009537,224316.926,224324.20000004768,224333.594,228133.898,8,400,32,,ISIC_4938994.JPG
break,html.Screen,4_31_1,2023-09-08T20:46:04.861Z,,0,,,NaN,,,,,,false,,,,228121.5,228121.40000009537,,228121.20000004768,,228133.898,8,400,,,
break_continue,html.Screen,4_31_2,2023-09-08T20:46:04.861Z,,0,,,NaN,,,,,,false,,,,228121.70000004768,228121.59999990463,,228121.5,,228133.898,8,400,,,
sequence,flow.Sequence,4_31,2023-09-08T20:46:04.861Z,,0,,,3788.0059999046207,completion,,,,,false,,,,228121.70000004768,228121.59999990463,224316.926,224324.20000004768,224333.594,228133.898,8,400,,,
trial,html.Screen,4_32_0,2023-09-08T20:46:08.060Z,,0,1,,3187.201999904646,response,ISIC_3521671.JPG,7,ISIC_0350472.JPG,ISIC_3521671.JPG,false,1,keypress(m),500,231321.29999995232,231321.09999990463,228117.23,228121.90000009537,228133.898,231334.574,8,400,33,,ISIC_0350472.JPG
break,html.Screen,4_32_1,2023-09-08T20:46:08.061Z,,0,,,NaN,,,,,,false,,,,231321.70000004768,231321.59999990463,,231321.29999995232,,231334.574,8,400,,,
break_continue,html.Screen,4_32_2,2023-09-08T20:46:08.061Z,,0,,,NaN,,,,,,false,,,,231321.79999995232,231321.79999995232,,231321.70000004768,,231334.574,8,400,,,
sequence,flow.Sequence,4_32,2023-09-08T20:46:08.061Z,,0,,,3187.90199995233,completion,,,,,false,,,,231321.90000009537,231321.79999995232,228117.23,228121.79999995232,228133.898,231334.574,8,400,,,
trial,html.Screen,4_33_0,2023-09-08T20:46:11.588Z,,0,1,,3514.0259999046393,response,ISIC_0030932.JPG,8,ISIC_6785680.JPG,ISIC_6785680.JPG,false,0,keypress(z),500,234848.79999995232,234848.59999990463,231317.906,231322.09999990463,231334.574,234851.522,8,400,34,,ISIC_0030932.JPG
break,html.Screen,4_33_1,2023-09-08T20:46:11.588Z,,0,,,NaN,,,,,,false,,,,234849.20000004768,234849.09999990463,,234848.90000009537,,234851.522,8,400,,,
break_continue,html.Screen,4_33_2,2023-09-08T20:46:11.588Z,,0,,,NaN,,,,,,false,,,,234849.5,234849.40000009537,,234849.29999995232,,234851.522,8,400,,,
sequence,flow.Sequence,4_33,2023-09-08T20:46:11.588Z,,0,,,3514.826000095374,completion,,,,,false,,,,234849.5,234849.40000009537,231317.906,231322,231334.574,234851.522,8,400,,,
trial,html.Screen,4_34_0,2023-09-08T20:46:14.919Z,,0,1,,3328.277999952319,response,ISIC_7824688.JPG,7,ISIC_0061067.JPG,ISIC_7824688.JPG,false,1,keypress(m),500,238179.90000009537,238179.79999995232,234834.854,234849.59999990463,234851.522,238185.122,8,400,35,,ISIC_0061067.JPG
break,html.Screen,4_34_1,2023-09-08T20:46:14.919Z,,0,,,NaN,,,,,,false,,,,238180.40000009537,238180.29999995232,,238180.09999990463,,238185.122,8,400,,,
break_continue,html.Screen,4_34_2,2023-09-08T20:46:14.919Z,,0,,,NaN,,,,,,false,,,,238180.59999990463,238180.5,,238180.40000009537,,238185.122,8,400,,,
sequence,flow.Sequence,4_34,2023-09-08T20:46:14.919Z,,0,,,3328.978000000003,completion,,,,,false,,,,238180.70000004768,238180.5,234834.854,234849.5,234851.522,238185.122,8,400,,,
trial,html.Screen,4_35_0,2023-09-08T20:46:18.773Z,,0,1,,3849.1779999523133,response,ISIC_0011196.JPG,7,ISIC_0182020.JPG,ISIC_0011196.JPG,false,1,keypress(m),500,242034.5,242034.29999995232,238168.454,238180.79999995232,238185.122,242035.822,8,400,36,,ISIC_0182020.JPG
break,html.Screen,4_35_1,2023-09-08T20:46:18.773Z,,0,,,NaN,,,,,,false,,,,242035,242034.90000009537,,242034.70000004768,,242035.822,8,400,,,
break_continue,html.Screen,4_35_2,2023-09-08T20:46:18.774Z,,0,,,NaN,,,,,,false,,,,242035.20000004768,242035.09999990463,,242035,,242035.822,8,400,,,
sequence,flow.Sequence,4_35,2023-09-08T20:46:18.774Z,,0,,,3849.9779999046295,completion,,,,,false,,,,242035.20000004768,242035.09999990463,238168.454,238180.70000004768,238185.122,242035.822,8,400,,,
trial,html.Screen,4_36_0,2023-09-08T20:46:23.316Z,,0,1,,4541.678000000014,response,ISIC_6440229.JPG,9,ISIC_0027684.JPG,ISIC_6440229.JPG,false,1,keypress(m),500,246577.70000004768,246577.5,242019.154,242035.40000009537,242035.822,246586.186,8,400,37,,ISIC_0027684.JPG
break,html.Screen,4_36_1,2023-09-08T20:46:23.316Z,,0,,,NaN,,,,,,false,,,,246578.20000004768,246578.09999990463,,246577.90000009537,,246586.186,8,400,,,
break_continue,html.Screen,4_36_2,2023-09-08T20:46:23.317Z,,0,,,NaN,,,,,,false,,,,246578.29999995232,246578.29999995232,,246578.20000004768,,246586.186,8,400,,,
sequence,flow.Sequence,4_36,2023-09-08T20:46:23.317Z,,0,,,4542.477999952331,completion,,,,,false,,,,246578.40000009537,246578.29999995232,242019.154,242035.29999995232,242035.822,246586.186,8,400,,,
trial,html.Screen,4_37_0,2023-09-08T20:46:28.934Z,,0,1,,5610.014000047697,response,ISIC_0054599.JPG,7,ISIC_0025313.JPG,ISIC_0025313.JPG,false,0,keypress(z),500,252196.29999995232,252196.20000004768,246569.518,246578.5,246586.186,252203.788,8,400,38,,ISIC_0054599.JPG
break,html.Screen,4_37_1,2023-09-08T20:46:28.935Z,,0,,,NaN,,,,,,false,,,,252196.79999995232,252196.70000004768,,252196.5,,252203.788,8,400,,,
break_continue,html.Screen,4_37_2,2023-09-08T20:46:28.935Z,,0,,,NaN,,,,,,false,,,,252196.90000009537,252196.90000009537,,252196.90000009537,,252203.788,8,400,,,
sequence,flow.Sequence,4_37,2023-09-08T20:46:28.935Z,,0,,,5610.7140000953805,completion,,,,,false,,,,252197.09999990463,252196.90000009537,246569.518,246578.5,246586.186,252203.788,8,400,,,
trial,html.Screen,4_38_0,2023-09-08T20:46:32.435Z,,0,1,,3493.011999952316,response,ISIC_0046450.JPG,7,ISIC_1530981.JPG,ISIC_1530981.JPG,false,0,keypress(z),500,255696.90000009537,255696.79999995232,252187.12,252197.20000004768,252203.788,255704.068,8,400,39,,ISIC_0046450.JPG
break,html.Screen,4_38_1,2023-09-08T20:46:32.435Z,,0,,,NaN,,,,,,false,,,,255697.40000009537,255697.29999995232,,255697,,255704.068,8,400,,,
break_continue,html.Screen,4_38_2,2023-09-08T20:46:32.435Z,,0,,,NaN,,,,,,false,,,,255697.59999990463,255697.5,,255697.40000009537,,255704.068,8,400,,,
sequence,flow.Sequence,4_38,2023-09-08T20:46:32.436Z,,0,,,3493.7119999999995,completion,,,,,false,,,,255697.59999990463,255697.5,252187.12,252197.20000004768,252203.788,255704.068,8,400,,,
trial,html.Screen,4_39_0,2023-09-08T20:46:39.237Z,,0,1,,6794.832000095368,response,ISIC_1847556.JPG,6,ISIC_1328804.JPG,ISIC_1847556.JPG,false,1,keypress(m),500,262499.09999990463,262498.90000009537,255687.4,255697.70000004768,255704.068,262505.013,8,400,40,,ISIC_1328804.JPG
break,html.Screen,4_39_1,2023-09-08T20:46:39.237Z,,0,,,NaN,,,,,,false,,,,262499.5,262499.40000009537,,262499.2000000477,,262505.013,8,400,,,
break_continue,html.Screen,4_39_2,2023-09-08T20:46:39.237Z,,0,,,NaN,,,,,,false,,,,262499.7999999523,262499.59999990463,,262499.59999990463,,262505.013,8,400,,,
sequence,flow.Sequence,4_39,2023-09-08T20:46:39.238Z,,0,,,6795.531999904633,completion,,,,,false,,,,262499.7999999523,262499.59999990463,255687.4,255697.70000004768,255704.068,262505.013,8,400,,,
trial,html.Screen,4_40_0,2023-09-08T20:46:42.410Z,,0,1,,3167.5869999046554,response,ISIC_7518524.JPG,7,ISIC_0034090.JPG,ISIC_0034090.JPG,false,0,keypress(z),500,265672.90000009537,265672.59999990463,262488.345,262500,262505.013,265688.601,8,400,41,,ISIC_7518524.JPG
break,html.Screen,4_40_1,2023-09-08T20:46:42.411Z,,0,,,NaN,,,,,,false,,,,265673.2000000477,265673.2000000477,,265672.90000009537,,265688.601,8,400,,,
break_continue,html.Screen,4_40_2,2023-09-08T20:46:42.411Z,,0,,,NaN,,,,,,false,,,,265673.5,265673.40000009537,,265673.40000009537,,265688.601,8,400,,,
sequence,flow.Sequence,4_40,2023-09-08T20:46:42.411Z,,0,,,3168.3870000953902,completion,,,,,false,,,,265673.59999990463,265673.40000009537,262488.345,262499.90000009537,262505.013,265688.601,8,400,,,
trial,html.Screen,4_41_0,2023-09-08T20:46:47.506Z,,0,1,,5080.398999999976,response,ISIC_5768032.JPG,8,ISIC_2987613.JPG,ISIC_2987613.JPG,false,0,keypress(z),500,270769.2000000477,270769,265671.933,265674.2999999523,265688.601,270772.341,8,400,42,,ISIC_5768032.JPG
break,html.Screen,4_41_1,2023-09-08T20:46:47.507Z,,0,,,NaN,,,,,,false,,,,270769.59999990463,270769.5,,270769.2999999523,,270772.341,8,400,,,
break_continue,html.Screen,4_41_2,2023-09-08T20:46:47.507Z,,0,,,NaN,,,,,,false,,,,270769.7999999523,270769.7000000477,,270769.7000000477,,270772.341,8,400,,,
sequence,flow.Sequence,4_41,2023-09-08T20:46:47.507Z,,0,,,5081.0990000476595,completion,,,,,false,,,,270769.90000009537,270769.7000000477,265671.933,265674.2999999523,265688.601,270772.341,8,400,,,
trial,html.Screen,4_42_0,2023-09-08T20:46:50.490Z,,0,1,,2980.5590000953525,response,ISIC_3738751.JPG,5,ISIC_1911193.JPG,ISIC_3738751.JPG,false,1,keypress(m),500,273753.09999990463,273752.90000009537,270755.673,270770,270772.341,273756.314,8,400,43,,ISIC_1911193.JPG
break,html.Screen,4_42_1,2023-09-08T20:46:50.491Z,,0,,,NaN,,,,,,false,,,,273753.5,273753.5,,273753.2000000477,,273756.314,8,400,,,
break_continue,html.Screen,4_42_2,2023-09-08T20:46:50.491Z,,0,,,NaN,,,,,,false,,,,273753.7999999523,273753.7000000477,,273753.59999990463,,273756.314,8,400,,,
sequence,flow.Sequence,4_42,2023-09-08T20:46:50.491Z,,0,,,2981.359000047669,completion,,,,,false,,,,273753.90000009537,273753.7000000477,270755.673,270770,270772.341,273756.314,8,400,,,
trial,html.Screen,4_43_0,2023-09-08T20:46:54.064Z,,0,1,,3569.9859999523032,response,ISIC_0053555.JPG,7,ISIC_3105924.JPG,ISIC_0053555.JPG,false,1,keypress(m),500,277326.5,277326.2999999523,273739.646,273753.90000009537,273756.314,277339.934,8,400,44,,ISIC_3105924.JPG
break,html.Screen,4_43_1,2023-09-08T20:46:54.064Z,,0,,,NaN,,,,,,false,,,,277326.90000009537,277326.7999999523,,277326.7000000477,,277339.934,8,400,,,
break_continue,html.Screen,4_43_2,2023-09-08T20:46:54.064Z,,0,,,NaN,,,,,,false,,,,277327.2000000477,277327.09999990463,,277327,,277339.934,8,400,,,
sequence,flow.Sequence,4_43,2023-09-08T20:46:54.064Z,,0,,,3570.7859999046195,completion,,,,,false,,,,277327.2000000477,277327.09999990463,273739.646,273753.90000009537,273756.314,277339.934,8,400,,,
trial,html.Screen,4_44_0,2023-09-08T20:46:57.338Z,,0,1,,3260.5659999999916,response,ISIC_0156642.JPG,5,ISIC_0016127.JPG,ISIC_0016127.JPG,false,0,keypress(z),500,280600.59999990463,280600.5,277323.266,277327.2999999523,277339.934,280606.862,8,400,45,,ISIC_0156642.JPG
break,html.Screen,4_44_1,2023-09-08T20:46:57.338Z,,0,,,NaN,,,,,,false,,,,280601.09999990463,280601,,280600.7999999523,,280606.862,8,400,,,
break_continue,html.Screen,4_44_2,2023-09-08T20:46:57.338Z,,0,,,NaN,,,,,,false,,,,280601.2999999523,280601.2999999523,,280601.09999990463,,280606.862,8,400,,,
sequence,flow.Sequence,4_44,2023-09-08T20:46:57.338Z,,0,,,3261.365999952308,completion,,,,,false,,,,280601.40000009537,280601.2999999523,277323.266,277327.2999999523,277339.934,280606.862,8,400,,,
trial,html.Screen,4_45_0,2023-09-08T20:47:03.272Z,,0,1,,5928.538000095345,response,ISIC_4658487.JPG,7,ISIC_0068837.JPG,ISIC_4658487.JPG,false,1,keypress(m),500,286535.59999990463,286535.40000009537,280590.194,280601.5,280606.862,286541.11,8,400,46,,ISIC_0068837.JPG
break,html.Screen,4_45_1,2023-09-08T20:47:03.273Z,,0,,,NaN,,,,,,false,,,,286536.09999990463,286536,,286535.7999999523,,286541.11,8,400,,,
break_continue,html.Screen,4_45_2,2023-09-08T20:47:03.273Z,,0,,,NaN,,,,,,false,,,,286536.2000000477,286536.09999990463,,286536.09999990463,,286541.11,8,400,,,
sequence,flow.Sequence,4_45,2023-09-08T20:47:03.273Z,,0,,,5929.23799990461,completion,,,,,false,,,,286536.2999999523,286536.09999990463,280590.194,280601.40000009537,280606.862,286541.11,8,400,,,
trial,html.Screen,4_46_0,2023-09-08T20:47:08.158Z,,0,1,,4880.4899999046465,response,ISIC_0003550.JPG,8,ISIC_0519719.JPG,ISIC_0003550.JPG,false,1,keypress(m),500,291421.7999999523,291421.59999990463,286524.442,286536.40000009537,286541.11,291424.834,8,400,47,,ISIC_0519719.JPG
break,html.Screen,4_46_1,2023-09-08T20:47:08.159Z,,0,,,NaN,,,,,,false,,,,291422.2000000477,291422.09999990463,,291421.90000009537,,291424.834,8,400,,,
break_continue,html.Screen,4_46_2,2023-09-08T20:47:08.159Z,,0,,,NaN,,,,,,false,,,,291422.5,291422.40000009537,,291422.2999999523,,291424.834,8,400,,,
sequence,flow.Sequence,4_46,2023-09-08T20:47:08.159Z,,0,,,4881.290000095381,completion,,,,,false,,,,291422.59999990463,291422.40000009537,286524.442,286536.40000009537,286541.11,291424.834,8,400,,,
trial,html.Screen,4_47_0,2023-09-08T20:47:11.538Z,,0,1,,3377.1660000000265,response,ISIC_0065582.JPG,8,ISIC_0002347.JPG,ISIC_0065582.JPG,false,1,keypress(m),500,294802.09999990463,294802,291408.166,291422.59999990463,291424.834,294808.855,8,400,48,,ISIC_0002347.JPG
break,html.Screen,4_47_1,2023-09-08T20:47:11.539Z,,0,,,NaN,,,,,,false,,,,294802.5,294802.5,,294802.2000000477,,294808.855,8,400,,,
break_continue,html.Screen,4_47_2,2023-09-08T20:47:11.539Z,,0,,,NaN,,,,,,false,,,,294802.7999999523,294802.7000000477,,294802.59999990463,,294808.855,8,400,,,
sequence,flow.Sequence,4_47,2023-09-08T20:47:11.539Z,,0,,,3377.8660000477103,completion,,,,,false,,,,294802.7999999523,294802.7000000477,291408.166,291422.59999990463,291424.834,294808.855,8,400,,,
trial,html.Screen,4_48_0,2023-09-08T20:47:16.184Z,,0,1,,4638.444999952335,response,ISIC_0319928.JPG,8,ISIC_0029508.JPG,ISIC_0029508.JPG,false,0,keypress(z),500,299447.40000009537,299447.2999999523,294792.187,294803,294808.855,299459.227,8,400,49,,ISIC_0319928.JPG
break,html.Screen,4_48_1,2023-09-08T20:47:16.184Z,,0,,,NaN,,,,,,false,,,,299447.7999999523,299447.7999999523,,299447.5,,299459.227,8,400,,,
break_continue,html.Screen,4_48_2,2023-09-08T20:47:16.184Z,,0,,,NaN,,,,,,false,,,,299448.09999990463,299448,,299447.90000009537,,299459.227,8,400,,,
sequence,flow.Sequence,4_48,2023-09-08T20:47:16.184Z,,0,,,4639.145000000019,completion,,,,,false,,,,299448.2000000477,299448,294792.187,294803,294808.855,299459.227,8,400,,,
trial,html.Screen,4_49_0,2023-09-08T20:47:22.529Z,,0,1,,6333.572999952303,response,ISIC_5900778.JPG,5,ISIC_0056201.JPG,ISIC_0056201.JPG,false,0,keypress(z),500,305793,305792.7999999523,299442.559,299448.2999999523,299459.227,305793.47,8,400,50,,ISIC_5900778.JPG
break,html.Screen,4_49_1,2023-09-08T20:47:32.515Z,,0,,,10001.190000000002,timeout,,,,,false,,,,315779.59999990463,315777.992,305776.802,305793.09999990463,305793.47,315794.66,8,400,,,
break_continue,html.Screen,4_49_2,2023-09-08T20:47:33.467Z,,0,,,930.1399999523419,response,,,,,false,continue,keypress(Space),,316731.2999999523,316724.7999999523,315777.992,315779.7000000477,315794.66,316744.736,8,400,,,
sequence,flow.Sequence,4_49,2023-09-08T20:47:33.467Z,,0,,,17265.572999952303,completion,,,,,false,,,,316731.40000009537,316724.7999999523,299442.559,299448.2000000477,299459.227,316744.736,8,400,,,
trial,html.Screen,4_50_0,2023-09-08T20:47:38.044Z,,0,2,,4563.764000000025,response,ISIC_0033578.JPG,7,ISIC_0033068.JPG,ISIC_0033578.JPG,false,1,keypress(m),500,321308.7999999523,321308.5,316728.068,316731.40000009537,316744.736,321311.768,8,400,1,,ISIC_0033068.JPG
break,html.Screen,4_50_1,2023-09-08T20:47:38.044Z,,0,,,NaN,,,,,,false,,,,321309.2000000477,321309.09999990463,,321308.7999999523,,321311.768,8,400,,,
break_continue,html.Screen,4_50_2,2023-09-08T20:47:38.045Z,,0,,,NaN,,,,,,false,,,,321309.40000009537,321309.2999999523,,321309.2999999523,,321311.768,8,400,,,
sequence,flow.Sequence,4_50,2023-09-08T20:47:38.045Z,,0,,,4564.563999952341,completion,,,,,false,,,,321309.5,321309.2999999523,316728.068,316731.40000009537,316744.736,321311.768,8,400,,,
trial,html.Screen,4_51_0,2023-09-08T20:47:41.022Z,,0,2,,2974.8319999046507,response,ISIC_0033512.JPG,8,ISIC_0012072.JPG,ISIC_0033512.JPG,false,1,keypress(m),500,324286.7999999523,324286.59999990463,321295.1,321309.59999990463,321311.768,324295.34,8,400,2,,ISIC_0012072.JPG
break,html.Screen,4_51_1,2023-09-08T20:47:41.022Z,,0,,,NaN,,,,,,false,,,,324287.2999999523,324287.2000000477,,324287,,324295.34,8,400,,,
break_continue,html.Screen,4_51_2,2023-09-08T20:47:41.023Z,,0,,,NaN,,,,,,false,,,,324287.5,324287.40000009537,,324287.2999999523,,324295.34,8,400,,,
sequence,flow.Sequence,4_51,2023-09-08T20:47:41.023Z,,0,,,2975.6320000953856,completion,,,,,false,,,,324287.59999990463,324287.40000009537,321295.1,321309.5,321311.768,324295.34,8,400,,,
trial,html.Screen,4_52_0,2023-09-08T20:47:45.267Z,,0,2,,4236.560000095342,response,ISIC_4927943.JPG,8,ISIC_4139260.JPG,ISIC_4927943.JPG,false,1,keypress(m),500,328532.09999990463,328531.90000009537,324278.672,324287.7000000477,324295.34,328546.094,8,400,3,,ISIC_4139260.JPG
break,html.Screen,4_52_1,2023-09-08T20:47:45.267Z,,0,,,NaN,,,,,,false,,,,328532.40000009537,328532.40000009537,,328532.2000000477,,328546.094,8,400,,,
break_continue,html.Screen,4_52_2,2023-09-08T20:47:45.268Z,,0,,,NaN,,,,,,false,,,,328532.7000000477,328532.59999990463,,328532.5,,328546.094,8,400,,,
sequence,flow.Sequence,4_52,2023-09-08T20:47:45.268Z,,0,,,4237.259999904607,completion,,,,,false,,,,328532.7999999523,328532.59999990463,324278.672,324287.7000000477,324295.34,328546.094,8,400,,,
trial,html.Screen,4_53_0,2023-09-08T20:47:49.928Z,,0,2,,4647.106000047701,response,ISIC_1308081.JPG,8,ISIC_0013639.JPG,ISIC_0013639.JPG,false,0,keypress(z),500,333193.40000009537,333193.2000000477,328529.426,328532.90000009537,328546.094,333196.466,8,400,4,,ISIC_1308081.JPG
break,html.Screen,4_53_1,2023-09-08T20:47:49.929Z,,0,,,NaN,,,,,,false,,,,333193.7000000477,333193.59999990463,,333193.5,,333196.466,8,400,,,
break_continue,html.Screen,4_53_2,2023-09-08T20:47:49.929Z,,0,,,NaN,,,,,,false,,,,333194,333194,,333193.7999999523,,333196.466,8,400,,,
sequence,flow.Sequence,4_53,2023-09-08T20:47:49.929Z,,0,,,4647.906000000017,completion,,,,,false,,,,333194.09999990463,333194,328529.426,328532.90000009537,328546.094,333196.466,8,400,,,
trial,html.Screen,4_54_0,2023-09-08T20:47:55.693Z,,0,2,,5761.9340000953525,response,ISIC_0071778.JPG,8,ISIC_7339533.JPG,ISIC_0071778.JPG,false,1,keypress(m),500,338958.59999990463,338958.40000009537,333179.798,333194.2000000477,333196.466,338964.104,8,400,5,,ISIC_7339533.JPG
break,html.Screen,4_54_1,2023-09-08T20:47:55.694Z,,0,,,NaN,,,,,,false,,,,338959,338958.90000009537,,338958.7000000477,,338964.104,8,400,,,
break_continue,html.Screen,4_54_2,2023-09-08T20:47:55.694Z,,0,,,NaN,,,,,,false,,,,338959.2000000477,338959.2000000477,,338959.09999990463,,338964.104,8,400,,,
sequence,flow.Sequence,4_54,2023-09-08T20:47:55.694Z,,0,,,5762.734000047669,completion,,,,,false,,,,338959.2999999523,338959.2000000477,333179.798,333194.2000000477,333196.466,338964.104,8,400,,,
trial,html.Screen,4_55_0,2023-09-08T20:48:01.491Z,,0,2,,5792.096000047692,response,ISIC_0066379.JPG,7,ISIC_3188062.JPG,ISIC_0066379.JPG,false,1,keypress(m),500,344756.2999999523,344756.2000000477,338947.436,338959.5,338964.104,344764.568,8,400,6,,ISIC_3188062.JPG
break,html.Screen,4_55_1,2023-09-08T20:48:01.491Z,,0,,,NaN,,,,,,false,,,,344756.7000000477,344756.59999990463,,344756.5,,344764.568,8,400,,,
break_continue,html.Screen,4_55_2,2023-09-08T20:48:01.491Z,,0,,,NaN,,,,,,false,,,,344756.90000009537,344756.7999999523,,344756.7999999523,,344764.568,8,400,,,
sequence,flow.Sequence,4_55,2023-09-08T20:48:01.491Z,,0,,,5792.695999952324,completion,,,,,false,,,,344757.09999990463,344756.7999999523,338947.436,338959.5,338964.104,344764.568,8,400,,,
trial,html.Screen,4_56_0,2023-09-08T20:48:07.007Z,,0,2,,5508.132000047655,response,ISIC_0071651.JPG,7,ISIC_3941123.JPG,ISIC_3941123.JPG,false,0,keypress(z),500,350272.90000009537,350272.7000000477,344747.9,344757.09999990463,344764.568,350282.081,8,400,7,,ISIC_0071651.JPG
break,html.Screen,4_56_1,2023-09-08T20:48:07.007Z,,0,,,NaN,,,,,,false,,,,350273.40000009537,350273.2999999523,,350273,,350282.081,8,400,,,
break_continue,html.Screen,4_56_2,2023-09-08T20:48:07.008Z,,0,,,NaN,,,,,,false,,,,350273.5,350273.5,,350273.40000009537,,350282.081,8,400,,,
sequence,flow.Sequence,4_56,2023-09-08T20:48:07.008Z,,0,,,5508.931999999972,completion,,,,,false,,,,350273.7000000477,350273.5,344747.9,344757.09999990463,344764.568,350282.081,8,400,,,
trial,html.Screen,4_57_0,2023-09-08T20:48:10.482Z,,0,2,,3465.819000095362,response,ISIC_8495875.JPG,6,ISIC_8659618.JPG,ISIC_8495875.JPG,false,1,keypress(m),500,353748.09999990463,353747.90000009537,350265.413,350273.7999999523,350282.081,353749.025,8,400,8,,ISIC_8659618.JPG
break,html.Screen,4_57_1,2023-09-08T20:48:10.482Z,,0,,,NaN,,,,,,false,,,,353748.5,353748.40000009537,,353748.2000000477,,353749.025,8,400,,,
break_continue,html.Screen,4_57_2,2023-09-08T20:48:10.483Z,,0,,,NaN,,,,,,false,,,,353748.7000000477,353748.59999990463,,353748.5,,353749.025,8,400,,,
sequence,flow.Sequence,4_57,2023-09-08T20:48:10.483Z,,0,,,3466.518999904627,completion,,,,,false,,,,353748.7000000477,353748.59999990463,350265.413,350273.7000000477,350282.081,353749.025,8,400,,,
trial,html.Screen,4_58_0,2023-09-08T20:48:13.829Z,,0,2,,3345.9749999999767,response,ISIC_0872145.JPG,6,ISIC_0000384.JPG,ISIC_0872145.JPG,false,1,keypress(m),500,357095.2000000477,357095,353732.357,353748.7999999523,353749.025,357099.293,8,400,9,,ISIC_0000384.JPG
break,html.Screen,4_58_1,2023-09-08T20:48:13.829Z,,0,,,NaN,,,,,,false,,,,357095.5,357095.40000009537,,357095.2000000477,,357099.293,8,400,,,
break_continue,html.Screen,4_58_2,2023-09-08T20:48:13.830Z,,0,,,NaN,,,,,,false,,,,357095.7999999523,357095.7000000477,,357095.7000000477,,357099.293,8,400,,,
sequence,flow.Sequence,4_58,2023-09-08T20:48:13.830Z,,0,,,3346.6750000476604,completion,,,,,false,,,,357095.90000009537,357095.7000000477,353732.357,353748.7999999523,353749.025,357099.293,8,400,,,
trial,html.Screen,4_59_0,2023-09-08T20:48:16.855Z,,0,2,,3021.9070000476786,response,ISIC_4620425.JPG,5,ISIC_9425937.JPG,ISIC_4620425.JPG,false,1,keypress(m),500,360121.2999999523,360121.2000000477,357082.625,357096,357099.293,360133.29,8,400,10,,ISIC_9425937.JPG
break,html.Screen,4_59_1,2023-09-08T20:48:16.855Z,,0,,,NaN,,,,,,false,,,,360121.7999999523,360121.59999990463,,360121.40000009537,,360133.29,8,400,,,
break_continue,html.Screen,4_59_2,2023-09-08T20:48:16.856Z,,0,,,NaN,,,,,,false,,,,360122,360121.90000009537,,360121.90000009537,,360133.29,8,400,,,
sequence,flow.Sequence,4_59,2023-09-08T20:48:16.856Z,,0,,,3022.6070000953623,completion,,,,,false,,,,360122.2000000477,360121.90000009537,357082.625,357096,357099.293,360133.29,8,400,,,
trial,html.Screen,4_60_0,2023-09-08T20:48:23.628Z,,0,2,,6761.210000000021,response,ISIC_0663588.JPG,8,ISIC_0063168.JPG,ISIC_0063168.JPG,false,0,keypress(z),500,366894.59999990463,366894.5,360116.622,360122.2000000477,360133.29,366900.498,8,400,11,,ISIC_0663588.JPG
break,html.Screen,4_60_1,2023-09-08T20:48:23.628Z,,0,,,NaN,,,,,,false,,,,366895.09999990463,366895,,366894.7000000477,,366900.498,8,400,,,
break_continue,html.Screen,4_60_2,2023-09-08T20:48:23.629Z,,0,,,NaN,,,,,,false,,,,366895.2999999523,366895.2000000477,,366895.09999990463,,366900.498,8,400,,,
sequence,flow.Sequence,4_60,2023-09-08T20:48:23.629Z,,0,,,6761.910000047705,completion,,,,,false,,,,366895.40000009537,366895.2000000477,360116.622,360122.2000000477,360133.29,366900.498,8,400,,,
trial,html.Screen,4_61_0,2023-09-08T20:48:26.982Z,,0,2,,3348.601999904611,response,ISIC_0010398.JPG,8,ISIC_9870885.JPG,ISIC_0010398.JPG,false,1,keypress(m),500,370249.09999990463,370249.09999990463,366883.83,366895.5,366900.498,370251.161,8,400,12,,ISIC_9870885.JPG
break,html.Screen,4_61_1,2023-09-08T20:48:26.983Z,,0,,,NaN,,,,,,false,,,,370249.59999990463,370249.40000009537,,370249.40000009537,,370251.161,8,400,,,
break_continue,html.Screen,4_61_2,2023-09-08T20:48:26.983Z,,0,,,NaN,,,,,,false,,,,370249.7999999523,370249.7000000477,,370249.7000000477,,370251.161,8,400,,,
sequence,flow.Sequence,4_61,2023-09-08T20:48:26.983Z,,0,,,3349.2020000476623,completion,,,,,false,,,,370249.90000009537,370249.7000000477,366883.83,366895.40000009537,366900.498,370251.161,8,400,,,
trial,html.Screen,4_62_0,2023-09-08T20:48:29.926Z,,0,2,,2941.9389999046107,response,ISIC_0070888.JPG,8,ISIC_2166957.JPG,ISIC_0070888.JPG,false,1,keypress(m),500,373193.2999999523,373193.09999990463,370234.493,370250,370251.161,373201.397,8,400,13,,ISIC_2166957.JPG
break,html.Screen,4_62_1,2023-09-08T20:48:29.927Z,,0,,,NaN,,,,,,false,,,,373193.59999990463,373193.5,,373193.40000009537,,373201.397,8,400,,,
break_continue,html.Screen,4_62_2,2023-09-08T20:48:29.927Z,,0,,,NaN,,,,,,false,,,,373193.90000009537,373193.90000009537,,373193.7999999523,,373201.397,8,400,,,
sequence,flow.Sequence,4_62,2023-09-08T20:48:29.927Z,,0,,,2942.7390000953455,completion,,,,,false,,,,373194,373193.90000009537,370234.493,370250,370251.161,373201.397,8,400,,,
trial,html.Screen,4_63_0,2023-09-08T20:48:33.756Z,,0,2,,3821.00300009537,response,ISIC_6919856.JPG,7,ISIC_1154109.JPG,ISIC_1154109.JPG,false,0,keypress(z),500,377022.59999990463,377022.40000009537,373184.729,373194.09999990463,373201.397,377035.037,8,400,14,,ISIC_6919856.JPG
break,html.Screen,4_63_1,2023-09-08T20:48:33.756Z,,0,,,NaN,,,,,,false,,,,377023,377022.90000009537,,377022.7999999523,,377035.037,8,400,,,
break_continue,html.Screen,4_63_2,2023-09-08T20:48:33.756Z,,0,,,NaN,,,,,,false,,,,377023.2000000477,377023.09999990463,,377023.09999990463,,377035.037,8,400,,,
sequence,flow.Sequence,4_63,2023-09-08T20:48:33.756Z,,0,,,3821.7029999046354,completion,,,,,false,,,,377023.2999999523,377023.09999990463,373184.729,373194.09999990463,373201.397,377035.037,8,400,,,
trial,html.Screen,4_64_0,2023-09-08T20:48:38.065Z,,0,2,,4296.6630000476725,response,ISIC_9141065.JPG,4,ISIC_5833015.JPG,ISIC_5833015.JPG,false,0,keypress(z),500,381331.90000009537,381331.7000000477,377018.369,377023.40000009537,377035.037,381335.783,8,400,15,,ISIC_9141065.JPG
break,html.Screen,4_64_1,2023-09-08T20:48:38.065Z,,0,,,NaN,,,,,,false,,,,381332.2999999523,381332.2000000477,,381332.09999990463,,381335.783,8,400,,,
break_continue,html.Screen,4_64_2,2023-09-08T20:48:38.065Z,,0,,,NaN,,,,,,false,,,,381332.59999990463,381332.5,,381332.40000009537,,381335.783,8,400,,,
sequence,flow.Sequence,4_64,2023-09-08T20:48:38.065Z,,0,,,4297.462999999989,completion,,,,,false,,,,381332.7000000477,381332.5,377018.369,377023.40000009537,377035.037,381335.783,8,400,,,
trial,html.Screen,4_65_0,2023-09-08T20:48:41.238Z,,0,2,,3169.0169999523205,response,ISIC_0031977.JPG,8,ISIC_0002162.JPG,ISIC_0031977.JPG,false,1,keypress(m),500,384505,384504.7999999523,381319.115,381332.7000000477,381335.783,384519.371,8,400,16,,ISIC_0002162.JPG
break,html.Screen,4_65_1,2023-09-08T20:48:41.238Z,,0,,,NaN,,,,,,false,,,,384505.40000009537,384505.40000009537,,384505.2000000477,,384519.371,8,400,,,
break_continue,html.Screen,4_65_2,2023-09-08T20:48:41.238Z,,0,,,NaN,,,,,,false,,,,384505.7000000477,384505.59999990463,,384505.59999990463,,384519.371,8,400,,,
sequence,flow.Sequence,4_65,2023-09-08T20:48:41.239Z,,0,,,3169.8169999046368,completion,,,,,false,,,,384505.7999999523,384505.59999990463,381319.115,381332.7000000477,381335.783,384519.371,8,400,,,
trial,html.Screen,4_66_0,2023-09-08T20:48:46.187Z,,0,2,,4935.428999952332,response,ISIC_0367225.JPG,6,ISIC_0059929.JPG,ISIC_0059929.JPG,false,0,keypress(z),500,389454.7999999523,389454.7999999523,384502.703,384505.90000009537,384519.371,389469.767,8,400,17,,ISIC_0367225.JPG
break,html.Screen,4_66_1,2023-09-08T20:48:46.188Z,,0,,,NaN,,,,,,false,,,,389455.2999999523,389455.2000000477,,389455,,389469.767,8,400,,,
break_continue,html.Screen,4_66_2,2023-09-08T20:48:46.188Z,,0,,,NaN,,,,,,false,,,,389455.5,389455.5,,389455.40000009537,,389469.767,8,400,,,
sequence,flow.Sequence,4_66,2023-09-08T20:48:46.188Z,,0,,,4936.129000000015,completion,,,,,false,,,,389455.7000000477,389455.5,384502.703,384505.7999999523,384519.371,389469.767,8,400,,,
trial,html.Screen,4_67_0,2023-09-08T20:48:48.966Z,,0,2,,2763.133000095375,response,ISIC_5148474.JPG,7,ISIC_0011994.JPG,ISIC_5148474.JPG,false,1,keypress(m),500,392233.09999990463,392232.90000009537,389453.099,389455.7000000477,389469.767,392237.059,8,400,18,,ISIC_0011994.JPG
break,html.Screen,4_67_1,2023-09-08T20:48:48.966Z,,0,,,NaN,,,,,,false,,,,392233.5,392233.40000009537,,392233.2999999523,,392237.059,8,400,,,
break_continue,html.Screen,4_67_2,2023-09-08T20:48:48.966Z,,0,,,NaN,,,,,,false,,,,392233.7999999523,392233.7000000477,,392233.59999990463,,392237.059,8,400,,,
sequence,flow.Sequence,4_67,2023-09-08T20:48:48.966Z,,0,,,2763.933000047691,completion,,,,,false,,,,392233.90000009537,392233.7000000477,389453.099,389455.7000000477,389469.767,392237.059,8,400,,,
trial,html.Screen,4_68_0,2023-09-08T20:48:52.695Z,,0,2,,3725.1410000476753,response,ISIC_7797853.JPG,8,ISIC_4374554.JPG,ISIC_7797853.JPG,false,1,keypress(m),500,395962.2999999523,395962.2000000477,392220.391,392233.90000009537,392237.059,395970.691,8,400,19,,ISIC_4374554.JPG
break,html.Screen,4_68_1,2023-09-08T20:48:52.696Z,,0,,,NaN,,,,,,false,,,,395963.7000000477,395963.2000000477,,395962.40000009537,,395970.691,8,400,,,
break_continue,html.Screen,4_68_2,2023-09-08T20:48:52.696Z,,0,,,NaN,,,,,,false,,,,395964,395963.7999999523,,395963.7000000477,,395970.691,8,400,,,
sequence,flow.Sequence,4_68,2023-09-08T20:48:52.696Z,,0,,,3726.740999952308,completion,,,,,false,,,,395964,395963.7999999523,392220.391,392233.90000009537,392237.059,395970.691,8,400,,,
trial,html.Screen,4_69_0,2023-09-08T20:48:55.466Z,,0,2,,2763.009000047692,response,ISIC_0062471.JPG,6,ISIC_0204355.JPG,ISIC_0062471.JPG,false,1,keypress(m),500,398733.7999999523,398733.7000000477,395954.023,395964.09999990463,395970.691,398737.579,8,400,20,,ISIC_0204355.JPG
break,html.Screen,4_69_1,2023-09-08T20:48:55.466Z,,0,,,NaN,,,,,,false,,,,398734.2000000477,398734.2000000477,,398733.90000009537,,398737.579,8,400,,,
break_continue,html.Screen,4_69_2,2023-09-08T20:48:55.467Z,,0,,,NaN,,,,,,false,,,,398734.40000009537,398734.40000009537,,398734.2999999523,,398737.579,8,400,,,
sequence,flow.Sequence,4_69,2023-09-08T20:48:55.467Z,,0,,,2763.709000095376,completion,,,,,false,,,,398734.59999990463,398734.40000009537,395954.023,395964.09999990463,395970.691,398737.579,8,400,,,
trial,html.Screen,4_70_0,2023-09-08T20:48:59.900Z,,0,2,,4430.621000047657,response,ISIC_9740245.JPG,8,ISIC_6356522.JPG,ISIC_6356522.JPG,false,0,keypress(z),500,403168.2999999523,403168.2000000477,398720.911,398734.59999990463,398737.579,403171.719,8,400,21,,ISIC_9740245.JPG
break,html.Screen,4_70_1,2023-09-08T20:48:59.901Z,,0,,,NaN,,,,,,false,,,,403168.7999999523,403168.7000000477,,403168.40000009537,,403171.719,8,400,,,
break_continue,html.Screen,4_70_2,2023-09-08T20:48:59.901Z,,0,,,NaN,,,,,,false,,,,403169,403168.90000009537,,403168.90000009537,,403171.719,8,400,,,
sequence,flow.Sequence,4_70,2023-09-08T20:48:59.901Z,,0,,,4431.32100009534,completion,,,,,false,,,,403169.09999990463,403168.90000009537,398720.911,398734.59999990463,398737.579,403171.719,8,400,,,
trial,html.Screen,4_71_0,2023-09-08T20:49:03.378Z,,0,2,,3474.2810000000172,response,ISIC_0069257.JPG,7,ISIC_0032914.JPG,ISIC_0032914.JPG,false,0,keypress(z),500,406646.09999990463,406646,403155.051,403169.2000000477,403171.719,406655.331,8,400,22,,ISIC_0069257.JPG
break,html.Screen,4_71_1,2023-09-08T20:49:03.378Z,,0,,,NaN,,,,,,false,,,,406646.5,406646.40000009537,,406646.2000000477,,406655.331,8,400,,,
break_continue,html.Screen,4_71_2,2023-09-08T20:49:03.379Z,,0,,,NaN,,,,,,false,,,,406646.7000000477,406646.59999990463,,406646.59999990463,,406655.331,8,400,,,
sequence,flow.Sequence,4_71,2023-09-08T20:49:03.379Z,,0,,,3474.88099990465,completion,,,,,false,,,,406646.90000009537,406646.59999990463,403155.051,403169.2000000477,403171.719,406655.331,8,400,,,
trial,html.Screen,4_72_0,2023-09-08T20:49:08.725Z,,0,2,,5337.768999904627,response,ISIC_0012512.JPG,6,ISIC_0010304.JPG,ISIC_0012512.JPG,false,1,keypress(m),500,411993.2999999523,411993.09999990463,406638.663,406646.90000009537,406655.331,412005.759,8,400,23,,ISIC_0010304.JPG
break,html.Screen,4_72_1,2023-09-08T20:49:08.725Z,,0,,,NaN,,,,,,false,,,,411993.7000000477,411993.7000000477,,411993.40000009537,,412005.759,8,400,,,
break_continue,html.Screen,4_72_2,2023-09-08T20:49:08.726Z,,0,,,NaN,,,,,,false,,,,411993.90000009537,411993.90000009537,,411993.7000000477,,412005.759,8,400,,,
sequence,flow.Sequence,4_72,2023-09-08T20:49:08.726Z,,0,,,5338.569000095362,completion,,,,,false,,,,411994.09999990463,411993.90000009537,406638.663,406646.90000009537,406655.331,412005.759,8,400,,,
trial,html.Screen,4_73_0,2023-09-08T20:49:12.744Z,,0,2,,4006.74099999998,response,ISIC_0789732.JPG,8,ISIC_1957685.JPG,ISIC_1957685.JPG,false,0,keypress(z),500,416012.59999990463,416012.5,411989.091,411994.09999990463,412005.759,416023.173,8,400,24,,ISIC_0789732.JPG
break,html.Screen,4_73_1,2023-09-08T20:49:12.744Z,,0,,,NaN,,,,,,false,,,,416013.09999990463,416012.90000009537,,416012.7999999523,,416023.173,8,400,,,
break_continue,html.Screen,4_73_2,2023-09-08T20:49:12.745Z,,0,,,NaN,,,,,,false,,,,416013.2999999523,416013.2000000477,,416013.09999990463,,416023.173,8,400,,,
sequence,flow.Sequence,4_73,2023-09-08T20:49:12.745Z,,0,,,4007.4410000476637,completion,,,,,false,,,,416013.40000009537,416013.2000000477,411989.091,411994.09999990463,412005.759,416023.173,8,400,,,
trial,html.Screen,4_74_0,2023-09-08T20:49:17.597Z,,0,2,,4842.727000095358,response,ISIC_0027696.JPG,9,ISIC_0028944.JPG,ISIC_0027696.JPG,false,1,keypress(m),500,420866.09999990463,420865.90000009537,416006.505,416013.5,416023.173,420873.561,8,400,25,,ISIC_0028944.JPG
break,html.Screen,4_74_1,2023-09-08T20:49:17.598Z,,0,,,NaN,,,,,,false,,,,420866.5,420866.40000009537,,420866.2000000477,,420873.561,8,400,,,
break_continue,html.Screen,4_74_2,2023-09-08T20:49:17.598Z,,0,,,NaN,,,,,,false,,,,420866.7000000477,420866.59999990463,,420866.5,,420873.561,8,400,,,
sequence,flow.Sequence,4_74,2023-09-08T20:49:17.598Z,,0,,,4843.426999904623,completion,,,,,false,,,,420866.7999999523,420866.59999990463,416006.505,416013.5,416023.173,420873.561,8,400,,,
trial,html.Screen,4_75_0,2023-09-08T20:49:20.560Z,,0,2,,2955.1390000476968,response,ISIC_3878174.JPG,5,ISIC_7125023.JPG,ISIC_3878174.JPG,false,1,keypress(m),500,423828.7999999523,423828.7000000477,420856.893,420866.90000009537,420873.561,423840.866,8,400,26,,ISIC_7125023.JPG
break,html.Screen,4_75_1,2023-09-08T20:49:20.560Z,,0,,,NaN,,,,,,false,,,,423829.2999999523,423829.2000000477,,423829,,423840.866,8,400,,,
break_continue,html.Screen,4_75_2,2023-09-08T20:49:20.561Z,,0,,,NaN,,,,,,false,,,,423829.5,423829.40000009537,,423829.40000009537,,423840.866,8,400,,,
sequence,flow.Sequence,4_75,2023-09-08T20:49:20.561Z,,0,,,2955.8390000953805,completion,,,,,false,,,,423829.59999990463,423829.40000009537,420856.893,420866.90000009537,420873.561,423840.866,8,400,,,
trial,html.Screen,4_76_0,2023-09-08T20:49:26.292Z,,0,2,,5720.233999904653,response,ISIC_5029636.JPG,7,ISIC_0014922.JPG,ISIC_5029636.JPG,false,1,keypress(m),500,429561.2999999523,429561.09999990463,423824.198,423829.7000000477,423840.866,429574.658,8,400,27,,ISIC_0014922.JPG
break,html.Screen,4_76_1,2023-09-08T20:49:26.293Z,,0,,,NaN,,,,,,false,,,,429561.7000000477,429561.59999990463,,429561.40000009537,,429574.658,8,400,,,
break_continue,html.Screen,4_76_2,2023-09-08T20:49:26.293Z,,0,,,NaN,,,,,,false,,,,429561.90000009537,429561.90000009537,,429561.7999999523,,429574.658,8,400,,,
sequence,flow.Sequence,4_76,2023-09-08T20:49:26.293Z,,0,,,5721.0340000953875,completion,,,,,false,,,,429562,429561.90000009537,423824.198,423829.7000000477,423840.866,429574.658,8,400,,,
trial,html.Screen,4_77_0,2023-09-08T20:49:28.921Z,,0,2,,2615.842000000004,response,ISIC_0028027.JPG,8,ISIC_0061606.JPG,ISIC_0061606.JPG,false,0,keypress(z),500,432190.59999990463,432190.5,429557.99,429562.09999990463,429574.658,432191.534,8,400,28,,ISIC_0028027.JPG
break,html.Screen,4_77_1,2023-09-08T20:49:28.922Z,,0,,,NaN,,,,,,false,,,,432191,432190.90000009537,,432190.7000000477,,432191.534,8,400,,,
break_continue,html.Screen,4_77_2,2023-09-08T20:49:28.922Z,,0,,,NaN,,,,,,false,,,,432191.2000000477,432191.2000000477,,432191.09999990463,,432191.534,8,400,,,
sequence,flow.Sequence,4_77,2023-09-08T20:49:28.922Z,,0,,,2616.542000047688,completion,,,,,false,,,,432191.2999999523,432191.2000000477,429557.99,429562.09999990463,429574.658,432191.534,8,400,,,
trial,html.Screen,4_78_0,2023-09-08T20:49:33.470Z,,0,2,,4547.866000095382,response,ISIC_5839679.JPG,5,ISIC_0033562.JPG,ISIC_0033562.JPG,false,0,keypress(z),500,436739.59999990463,436739.40000009537,432174.866,432191.40000009537,432191.534,436742.301,8,400,29,,ISIC_5839679.JPG
break,html.Screen,4_78_1,2023-09-08T20:49:33.471Z,,0,,,NaN,,,,,,false,,,,436740,436739.90000009537,,436739.7000000477,,436742.301,8,400,,,
break_continue,html.Screen,4_78_2,2023-09-08T20:49:33.471Z,,0,,,NaN,,,,,,false,,,,436740.2000000477,436740.09999990463,,436740.09999990463,,436742.301,8,400,,,
sequence,flow.Sequence,4_78,2023-09-08T20:49:33.471Z,,0,,,4548.5659999046475,completion,,,,,false,,,,436740.2999999523,436740.09999990463,432174.866,432191.40000009537,432191.534,436742.301,8,400,,,
trial,html.Screen,4_79_0,2023-09-08T20:49:36.588Z,,0,2,,3115.09900009539,response,ISIC_0679553.JPG,8,ISIC_0027436.JPG,ISIC_0027436.JPG,false,0,keypress(z),500,439857.59999990463,439857.40000009537,436725.633,436740.2999999523,436742.301,439859.217,8,400,30,,ISIC_0679553.JPG
break,html.Screen,4_79_1,2023-09-08T20:49:36.589Z,,0,,,NaN,,,,,,false,,,,439858.09999990463,439858,,439857.7999999523,,439859.217,8,400,,,
break_continue,html.Screen,4_79_2,2023-09-08T20:49:36.589Z,,0,,,NaN,,,,,,false,,,,439858.2999999523,439858.2000000477,,439858.2000000477,,439859.217,8,400,,,
sequence,flow.Sequence,4_79,2023-09-08T20:49:36.589Z,,0,,,3115.899000047706,completion,,,,,false,,,,439858.40000009537,439858.2000000477,436725.633,436740.2999999523,436742.301,439859.217,8,400,,,
trial,html.Screen,4_80_0,2023-09-08T20:49:39.743Z,,0,2,,3153.3829999046284,response,ISIC_1202976.JPG,9,ISIC_9756117.JPG,ISIC_9756117.JPG,false,0,keypress(z),500,443012.7000000477,443012.59999990463,439842.549,439858.40000009537,439859.217,443026.137,8,400,31,,ISIC_1202976.JPG
break,html.Screen,4_80_1,2023-09-08T20:49:39.744Z,,0,,,NaN,,,,,,false,,,,443013.2000000477,443013.09999990463,,443012.90000009537,,443026.137,8,400,,,
break_continue,html.Screen,4_80_2,2023-09-08T20:49:39.744Z,,0,,,NaN,,,,,,false,,,,443013.40000009537,443013.40000009537,,443013.2999999523,,443026.137,8,400,,,
sequence,flow.Sequence,4_80,2023-09-08T20:49:39.744Z,,0,,,3154.1830000953632,completion,,,,,false,,,,443013.59999990463,443013.40000009537,439842.549,439858.40000009537,439859.217,443026.137,8,400,,,
trial,html.Screen,4_81_0,2023-09-08T20:49:43.908Z,,0,2,,4151.863000000012,response,ISIC_0010773.JPG,7,ISIC_0010500.JPG,ISIC_0010500.JPG,false,0,keypress(z),500,447178.2000000477,447178,443009.469,443013.59999990463,443026.137,447193.54,8,400,32,,ISIC_0010773.JPG
break,html.Screen,4_81_1,2023-09-08T20:49:43.909Z,,0,,,NaN,,,,,,false,,,,447178.59999990463,447178.5,,447178.2999999523,,447193.54,8,400,,,
break_continue,html.Screen,4_81_2,2023-09-08T20:49:43.909Z,,0,,,NaN,,,,,,false,,,,447178.7999999523,447178.7000000477,,447178.59999990463,,447193.54,8,400,,,
sequence,flow.Sequence,4_81,2023-09-08T20:49:43.909Z,,0,,,4152.563000047696,completion,,,,,false,,,,447178.90000009537,447178.7000000477,443009.469,443013.59999990463,443026.137,447193.54,8,400,,,
trial,html.Screen,4_82_0,2023-09-08T20:49:48.746Z,,0,2,,4821.960000000021,response,ISIC_7787118.JPG,5,ISIC_0591011.JPG,ISIC_0591011.JPG,false,0,keypress(z),500,452015.7000000477,452015.5,447176.872,447178.90000009537,447193.54,452027.26,8,400,33,,ISIC_7787118.JPG
break,html.Screen,4_82_1,2023-09-08T20:49:48.746Z,,0,,,NaN,,,,,,false,,,,452016.09999990463,452016,,452015.7999999523,,452027.26,8,400,,,
break_continue,html.Screen,4_82_2,2023-09-08T20:49:48.746Z,,0,,,NaN,,,,,,false,,,,452016.2999999523,452016.2000000477,,452016.2000000477,,452027.26,8,400,,,
sequence,flow.Sequence,4_82,2023-09-08T20:49:48.746Z,,0,,,4822.660000047705,completion,,,,,false,,,,452016.40000009537,452016.2000000477,447176.872,447178.90000009537,447193.54,452027.26,8,400,,,
trial,html.Screen,4_83_0,2023-09-08T20:49:51.939Z,,0,2,,3181.4400000476744,response,ISIC_0031070.JPG,7,ISIC_4114269.JPG,ISIC_0031070.JPG,false,1,keypress(m),500,455209,455208.7000000477,452010.592,452016.5,452027.26,455211.264,8,400,34,,ISIC_4114269.JPG
break,html.Screen,4_83_1,2023-09-08T20:49:51.939Z,,0,,,NaN,,,,,,false,,,,455209.40000009537,455209.2999999523,,455209,,455211.264,8,400,,,
break_continue,html.Screen,4_83_2,2023-09-08T20:49:51.939Z,,0,,,NaN,,,,,,false,,,,455209.59999990463,455209.5,,455209.5,,455211.264,8,400,,,
sequence,flow.Sequence,4_83,2023-09-08T20:49:51.940Z,,0,,,3182.2399999999907,completion,,,,,false,,,,455209.7000000477,455209.5,452010.592,452016.5,452027.26,455211.264,8,400,,,
trial,html.Screen,4_84_0,2023-09-08T20:49:56.568Z,,0,2,,4626.436000047659,response,ISIC_0010306.JPG,8,ISIC_0014745.JPG,ISIC_0010306.JPG,false,1,keypress(m),500,459837.7999999523,459837.7000000477,455194.596,455209.7000000477,455211.264,459844.968,8,400,35,,ISIC_0014745.JPG
break,html.Screen,4_84_1,2023-09-08T20:49:56.568Z,,0,,,NaN,,,,,,false,,,,459838.2000000477,459838.09999990463,,459837.90000009537,,459844.968,8,400,,,
break_continue,html.Screen,4_84_2,2023-09-08T20:49:56.568Z,,0,,,NaN,,,,,,false,,,,459838.5,459838.40000009537,,459838.40000009537,,459844.968,8,400,,,
sequence,flow.Sequence,4_84,2023-09-08T20:49:56.568Z,,0,,,4627.136000095343,completion,,,,,false,,,,459838.59999990463,459838.40000009537,455194.596,455209.7000000477,455211.264,459844.968,8,400,,,
trial,html.Screen,4_85_0,2023-09-08T20:49:59.276Z,,0,2,,2701.7320000476902,response,ISIC_0010630.JPG,8,ISIC_1952599.JPG,ISIC_0010630.JPG,false,1,keypress(m),500,462546.90000009537,462546.7000000477,459828.3,459838.59999990463,459844.968,462561.852,8,400,36,,ISIC_1952599.JPG
break,html.Screen,4_85_1,2023-09-08T20:49:59.277Z,,0,,,NaN,,,,,,false,,,,462547.2000000477,462547.2000000477,,462547,,462561.852,8,400,,,
break_continue,html.Screen,4_85_2,2023-09-08T20:49:59.277Z,,0,,,NaN,,,,,,false,,,,462547.40000009537,462547.40000009537,,462547.2999999523,,462561.852,8,400,,,
sequence,flow.Sequence,4_85,2023-09-08T20:49:59.277Z,,0,,,2702.432000095374,completion,,,,,false,,,,462547.5,462547.40000009537,459828.3,459838.59999990463,459844.968,462561.852,8,400,,,
trial,html.Screen,4_86_0,2023-09-08T20:50:03.554Z,,0,2,,4262.447999952303,response,ISIC_0033427.JPG,7,ISIC_0072826.JPG,ISIC_0072826.JPG,false,0,keypress(z),500,466824.40000009537,466824.2999999523,462545.184,462547.59999990463,462561.852,466829.263,8,400,37,,ISIC_0033427.JPG
break,html.Screen,4_86_1,2023-09-08T20:50:03.554Z,,0,,,NaN,,,,,,false,,,,466824.90000009537,466824.7000000477,,466824.5,,466829.263,8,400,,,
break_continue,html.Screen,4_86_2,2023-09-08T20:50:03.554Z,,0,,,NaN,,,,,,false,,,,466825.09999990463,466825,,466824.90000009537,,466829.263,8,400,,,
sequence,flow.Sequence,4_86,2023-09-08T20:50:03.555Z,,0,,,4263.1479999999865,completion,,,,,false,,,,466825.2000000477,466825,462545.184,462547.59999990463,462561.852,466829.263,8,400,,,
trial,html.Screen,4_87_0,2023-09-08T20:50:09.122Z,,0,2,,5563.836999904655,response,ISIC_0010958.JPG,7,ISIC_0062196.JPG,ISIC_0010958.JPG,false,1,keypress(m),500,472393.2999999523,472393.09999990463,466812.595,466825.2000000477,466829.263,472396.375,8,400,38,,ISIC_0062196.JPG
break,html.Screen,4_87_1,2023-09-08T20:50:09.123Z,,0,,,NaN,,,,,,false,,,,472393.7000000477,472393.59999990463,,472393.40000009537,,472396.375,8,400,,,
break_continue,html.Screen,4_87_2,2023-09-08T20:50:09.123Z,,0,,,NaN,,,,,,false,,,,472393.90000009537,472393.7999999523,,472393.7999999523,,472396.375,8,400,,,
sequence,flow.Sequence,4_87,2023-09-08T20:50:09.123Z,,0,,,5564.536999952339,completion,,,,,false,,,,472394,472393.7999999523,466812.595,466825.2000000477,466829.263,472396.375,8,400,,,
trial,html.Screen,4_88_0,2023-09-08T20:50:13.912Z,,0,2,,4786.125,response,ISIC_0058224.JPG,8,ISIC_0014501.JPG,ISIC_0058224.JPG,false,1,keypress(m),500,477182.59999990463,477182.5,472379.707,472394.09999990463,472396.375,477197.212,8,400,39,,ISIC_0014501.JPG
break,html.Screen,4_88_1,2023-09-08T20:50:13.912Z,,0,,,NaN,,,,,,false,,,,477183.09999990463,477183,,477182.7999999523,,477197.212,8,400,,,
break_continue,html.Screen,4_88_2,2023-09-08T20:50:13.912Z,,0,,,NaN,,,,,,false,,,,477183.2999999523,477183.2000000477,,477183.2000000477,,477197.212,8,400,,,
sequence,flow.Sequence,4_88,2023-09-08T20:50:13.912Z,,0,,,4786.825000047684,completion,,,,,false,,,,477183.2999999523,477183.2000000477,472379.707,472394.09999990463,472396.375,477197.212,8,400,,,
trial,html.Screen,4_89_0,2023-09-08T20:50:16.946Z,,0,2,,3019.7880000000005,response,ISIC_3183782.JPG,8,ISIC_3300710.JPG,ISIC_3183782.JPG,false,1,keypress(m),500,480217.2000000477,480217,477180.544,477183.40000009537,477197.212,480230.788,8,400,40,,ISIC_3300710.JPG
break,html.Screen,4_89_1,2023-09-08T20:50:16.946Z,,0,,,NaN,,,,,,false,,,,480217.59999990463,480217.5,,480217.2999999523,,480230.788,8,400,,,
break_continue,html.Screen,4_89_2,2023-09-08T20:50:16.947Z,,0,,,NaN,,,,,,false,,,,480217.7999999523,480217.7000000477,,480217.59999990463,,480230.788,8,400,,,
sequence,flow.Sequence,4_89,2023-09-08T20:50:16.947Z,,0,,,3020.488000047684,completion,,,,,false,,,,480217.90000009537,480217.7000000477,477180.544,477183.2999999523,477197.212,480230.788,8,400,,,
trial,html.Screen,4_90_0,2023-09-08T20:50:22.071Z,,0,2,,5111.7119999999995,response,ISIC_0033149.JPG,7,ISIC_0068776.JPG,ISIC_0033149.JPG,false,1,keypress(m),500,485342.59999990463,485342.5,480214.12,480218.7000000477,480230.788,485347.864,8,400,41,,ISIC_0068776.JPG
break,html.Screen,4_90_1,2023-09-08T20:50:22.072Z,,0,,,NaN,,,,,,false,,,,485343.09999990463,485342.90000009537,,485342.7999999523,,485347.864,8,400,,,
break_continue,html.Screen,4_90_2,2023-09-08T20:50:22.072Z,,0,,,NaN,,,,,,false,,,,485343.2000000477,485343.2000000477,,485343.09999990463,,485347.864,8,400,,,
sequence,flow.Sequence,4_90,2023-09-08T20:50:22.072Z,,0,,,5112.412000047683,completion,,,,,false,,,,485343.2999999523,485343.2000000477,480214.12,480218.7000000477,480230.788,485347.864,8,400,,,
trial,html.Screen,4_91_0,2023-09-08T20:50:26.476Z,,0,2,,4399.235999904631,response,ISIC_0010644.JPG,8,ISIC_0012706.JPG,ISIC_0010644.JPG,false,1,keypress(m),500,489747.2999999523,489747.09999990463,485331.196,485343.40000009537,485347.864,489748.612,8,400,42,,ISIC_0012706.JPG
break,html.Screen,4_91_1,2023-09-08T20:50:26.476Z,,0,,,NaN,,,,,,false,,,,489747.59999990463,489747.59999990463,,489747.2999999523,,489748.612,8,400,,,
break_continue,html.Screen,4_91_2,2023-09-08T20:50:26.476Z,,0,,,NaN,,,,,,false,,,,489747.90000009537,489747.7000000477,,489747.7000000477,,489748.612,8,400,,,
sequence,flow.Sequence,4_91,2023-09-08T20:50:26.476Z,,0,,,4399.836000047682,completion,,,,,false,,,,489747.90000009537,489747.7000000477,485331.196,485343.40000009537,485347.864,489748.612,8,400,,,
trial,html.Screen,4_92_0,2023-09-08T20:50:29.889Z,,0,2,,3411.4879999046098,response,ISIC_7844565.JPG,8,ISIC_0032047.JPG,ISIC_0032047.JPG,false,0,keypress(z),500,493160.2999999523,493160.09999990463,489731.944,489748,489748.612,493165.552,8,400,43,,ISIC_7844565.JPG
break,html.Screen,4_92_1,2023-09-08T20:50:29.889Z,,0,,,NaN,,,,,,false,,,,493160.7000000477,493160.59999990463,,493160.40000009537,,493165.552,8,400,,,
break_continue,html.Screen,4_92_2,2023-09-08T20:50:29.889Z,,0,,,NaN,,,,,,false,,,,493161,493160.90000009537,,493160.7999999523,,493165.552,8,400,,,
sequence,flow.Sequence,4_92,2023-09-08T20:50:29.889Z,,0,,,3412.2880000953446,completion,,,,,false,,,,493161.09999990463,493160.90000009537,489731.944,489748,489748.612,493165.552,8,400,,,
trial,html.Screen,4_93_0,2023-09-08T20:50:32.758Z,,0,2,,2864.5479999046074,response,ISIC_0061359.JPG,8,ISIC_0014707.JPG,ISIC_0061359.JPG,false,1,keypress(m),500,496030.2999999523,496030.09999990463,493148.884,493161.09999990463,493165.552,496032.448,8,400,44,,ISIC_0014707.JPG
break,html.Screen,4_93_1,2023-09-08T20:50:32.759Z,,0,,,NaN,,,,,,false,,,,496030.7000000477,496030.59999990463,,496030.40000009537,,496032.448,8,400,,,
break_continue,html.Screen,4_93_2,2023-09-08T20:50:32.759Z,,0,,,NaN,,,,,,false,,,,496030.7999999523,496030.7999999523,,496030.7000000477,,496032.448,8,400,,,
sequence,flow.Sequence,4_93,2023-09-08T20:50:32.759Z,,0,,,2865.247999952291,completion,,,,,false,,,,496031,496030.7999999523,493148.884,493161.09999990463,493165.552,496032.448,8,400,,,
trial,html.Screen,4_94_0,2023-09-08T20:50:37.468Z,,0,2,,4707.351999952341,response,ISIC_0061623.JPG,8,ISIC_7663476.JPG,ISIC_0061623.JPG,false,1,keypress(m),500,500740,500739.7999999523,496015.78,496031.09999990463,496032.448,500749.889,8,400,45,,ISIC_7663476.JPG
break,html.Screen,4_94_1,2023-09-08T20:50:37.468Z,,0,,,NaN,,,,,,false,,,,500740.40000009537,500740.2000000477,,500740.09999990463,,500749.889,8,400,,,
break_continue,html.Screen,4_94_2,2023-09-08T20:50:37.469Z,,0,,,NaN,,,,,,false,,,,500740.59999990463,500740.5,,500740.40000009537,,500749.889,8,400,,,
sequence,flow.Sequence,4_94,2023-09-08T20:50:37.469Z,,0,,,4708.052000000025,completion,,,,,false,,,,500740.7000000477,500740.5,496015.78,496031,496032.448,500749.889,8,400,,,
trial,html.Screen,4_95_0,2023-09-08T20:50:40.545Z,,0,2,,3067.311000047659,response,ISIC_9107280.JPG,8,ISIC_8910589.JPG,ISIC_8910589.JPG,false,0,keypress(z),500,503817.2999999523,503817.2000000477,500733.221,500740.7999999523,500749.889,503833.469,8,400,46,,ISIC_9107280.JPG
break,html.Screen,4_95_1,2023-09-08T20:50:40.546Z,,0,,,NaN,,,,,,false,,,,503817.7999999523,503817.59999990463,,503817.40000009537,,503833.469,8,400,,,
break_continue,html.Screen,4_95_2,2023-09-08T20:50:40.546Z,,0,,,NaN,,,,,,false,,,,503818.09999990463,503818,,503817.90000009537,,503833.469,8,400,,,
sequence,flow.Sequence,4_95,2023-09-08T20:50:40.546Z,,0,,,3068.1109999999753,completion,,,,,false,,,,503818.2000000477,503818,500733.221,500740.7000000477,500749.889,503833.469,8,400,,,
trial,html.Screen,4_96_0,2023-09-08T20:50:43.588Z,,0,2,,3026.231000047701,response,ISIC_0032742.JPG,5,ISIC_3608788.JPG,ISIC_3608788.JPG,false,0,keypress(z),500,506859.90000009537,506859.7000000477,503816.801,503818.2000000477,503833.469,506867.045,8,400,47,,ISIC_0032742.JPG
break,html.Screen,4_96_1,2023-09-08T20:50:43.588Z,,0,,,NaN,,,,,,false,,,,506860.2999999523,506860.2000000477,,506860,,506867.045,8,400,,,
break_continue,html.Screen,4_96_2,2023-09-08T20:50:43.588Z,,0,,,NaN,,,,,,false,,,,506860.5,506860.40000009537,,506860.40000009537,,506867.045,8,400,,,
sequence,flow.Sequence,4_96,2023-09-08T20:50:43.588Z,,0,,,3026.9310000953847,completion,,,,,false,,,,506860.59999990463,506860.40000009537,503816.801,503818.2000000477,503833.469,506867.045,8,400,,,
trial,html.Screen,4_97_0,2023-09-08T20:50:50.550Z,,0,2,,6955.554999904649,response,ISIC_6973257.JPG,5,ISIC_0054332.JPG,ISIC_0054332.JPG,false,0,keypress(z),500,513822.7999999523,513822.59999990463,506850.377,506860.7000000477,506867.045,513834.691,8,400,48,,ISIC_6973257.JPG
break,html.Screen,4_97_1,2023-09-08T20:50:50.551Z,,0,,,NaN,,,,,,false,,,,513823.2000000477,513823.09999990463,,513822.90000009537,,513834.691,8,400,,,
break_continue,html.Screen,4_97_2,2023-09-08T20:50:50.551Z,,0,,,NaN,,,,,,false,,,,513823.40000009537,513823.2999999523,,513823.2999999523,,513834.691,8,400,,,
sequence,flow.Sequence,4_97,2023-09-08T20:50:50.551Z,,0,,,6956.254999952333,completion,,,,,false,,,,513823.59999990463,513823.2999999523,506850.377,506860.7000000477,506867.045,513834.691,8,400,,,
trial,html.Screen,4_98_0,2023-09-08T20:50:54.187Z,,0,2,,3625.1089999523247,response,ISIC_0031325.JPG,6,ISIC_0065740.JPG,ISIC_0065740.JPG,false,0,keypress(z),500,517460,517459.7999999523,513818.023,513823.7000000477,513834.691,517468.315,8,400,49,,ISIC_0031325.JPG
break,html.Screen,4_98_1,2023-09-08T20:50:54.188Z,,0,,,NaN,,,,,,false,,,,517460.40000009537,517460.2999999523,,517460.09999990463,,517468.315,8,400,,,
break_continue,html.Screen,4_98_2,2023-09-08T20:50:54.189Z,,0,,,NaN,,,,,,false,,,,517461.40000009537,517461.2000000477,,517461.2000000477,,517468.315,8,400,,,
sequence,flow.Sequence,4_98,2023-09-08T20:50:54.189Z,,0,,,3626.509000047692,completion,,,,,false,,,,517461.5,517461.2000000477,513818.023,513823.59999990463,513834.691,517468.315,8,400,,,
trial,html.Screen,4_99_0,2023-09-08T20:50:56.991Z,,0,2,,2795.3850000476814,response,ISIC_0013867.JPG,9,ISIC_7161651.JPG,ISIC_0013867.JPG,false,1,keypress(m),500,520263.90000009537,520263.7000000477,517451.647,517461.7000000477,517468.315,520268.952,8,400,50,,ISIC_7161651.JPG
break,html.Screen,4_99_1,2023-09-08T20:51:06.982Z,,0,,,10001.190000000002,timeout,,,,,false,,,,530255.0999999046,530253.474,520252.284,520264,520268.952,530270.142,8,400,,,
break_continue,html.Screen,4_99_2,2023-09-08T20:51:08.049Z,,0,,,1043.2580000953749,response,,,,,false,continue,keypress(Space),,531322.2000000477,531313.4000000954,530253.474,530255.2000000477,530270.142,531336.894,8,400,,,
sequence,flow.Sequence,4_99,2023-09-08T20:51:08.049Z,,0,,,13845.085000095365,completion,,,,,false,,,,531322.2000000477,531313.4000000954,517451.647,517461.59999990463,517468.315,531336.894,8,400,,,
trial,html.Screen,4_100_0,2023-09-08T20:51:11.141Z,,0,3,,3077.606000000029,response,ISIC_0064986.JPG,8,ISIC_0374029.JPG,ISIC_0064986.JPG,false,1,keypress(m),500,534414.5999999046,534414.5,531320.226,531322.2999999523,531336.894,534420.474,8,400,1,,ISIC_0374029.JPG
break,html.Screen,4_100_1,2023-09-08T20:51:11.142Z,,0,,,NaN,,,,,,false,,,,534415.0999999046,534415,,534414.7999999523,,534420.474,8,400,,,
break_continue,html.Screen,4_100_2,2023-09-08T20:51:11.142Z,,0,,,NaN,,,,,,false,,,,534415.4000000954,534415.2000000477,,534415.0999999046,,534420.474,8,400,,,
sequence,flow.Sequence,4_100,2023-09-08T20:51:11.142Z,,0,,,3078.3060000477126,completion,,,,,false,,,,534415.4000000954,534415.2000000477,531320.226,531322.2000000477,531336.894,534420.474,8,400,,,
trial,html.Screen,4_101_0,2023-09-08T20:51:14.762Z,,0,3,,3615.426000095322,response,ISIC_8015541.JPG,7,ISIC_0025128.JPG,ISIC_0025128.JPG,false,0,keypress(z),500,538036,538035.9000000954,534403.806,534415.5,534420.474,538037.43,8,400,2,,ISIC_8015541.JPG
break,html.Screen,4_101_1,2023-09-08T20:51:14.763Z,,0,,,NaN,,,,,,false,,,,538036.4000000954,538036.2999999523,,538036.0999999046,,538037.43,8,400,,,
break_continue,html.Screen,4_101_2,2023-09-08T20:51:14.764Z,,0,,,NaN,,,,,,false,,,,538037.5,538037.4000000954,,538037.2999999523,,538037.43,8,400,,,
sequence,flow.Sequence,4_101,2023-09-08T20:51:14.764Z,,0,,,3616.926000095322,completion,,,,,false,,,,538037.5999999046,538037.4000000954,534403.806,534415.5,534420.474,538037.43,8,400,,,
trial,html.Screen,4_102_0,2023-09-08T20:51:17.440Z,,0,3,,2675.7700000476325,response,ISIC_0000305.JPG,7,ISIC_5658900.JPG,ISIC_0000305.JPG,false,1,keypress(m),500,540713.4000000954,540713.2000000477,538020.762,538037.7000000477,538037.43,540721.388,8,400,3,,ISIC_5658900.JPG
break,html.Screen,4_102_1,2023-09-08T20:51:17.440Z,,0,,,NaN,,,,,,false,,,,540713.7999999523,540713.7000000477,,540713.4000000954,,540721.388,8,400,,,
break_continue,html.Screen,4_102_2,2023-09-08T20:51:17.440Z,,0,,,NaN,,,,,,false,,,,540714,540713.9000000954,,540713.9000000954,,540721.388,8,400,,,
sequence,flow.Sequence,4_102,2023-09-08T20:51:17.440Z,,0,,,2676.470000095316,completion,,,,,false,,,,540714.0999999046,540713.9000000954,538020.762,538037.7000000477,538037.43,540721.388,8,400,,,
trial,html.Screen,4_103_0,2023-09-08T20:51:21.527Z,,0,3,,4078.8120000476483,response,ISIC_0004558.JPG,8,ISIC_7685761.JPG,ISIC_7685761.JPG,false,0,keypress(z),500,544800.2999999523,544800.2000000477,540704.72,540714.0999999046,540721.388,544805.048,8,400,4,,ISIC_0004558.JPG
break,html.Screen,4_103_1,2023-09-08T20:51:21.527Z,,0,,,NaN,,,,,,false,,,,544800.7999999523,544800.7000000477,,544800.5,,544805.048,8,400,,,
break_continue,html.Screen,4_103_2,2023-09-08T20:51:21.527Z,,0,,,NaN,,,,,,false,,,,544801,544801,,544800.7999999523,,544805.048,8,400,,,
sequence,flow.Sequence,4_103,2023-09-08T20:51:21.527Z,,0,,,4079.6119999999646,completion,,,,,false,,,,544801.2000000477,544801,540704.72,540714.0999999046,540721.388,544805.048,8,400,,,
trial,html.Screen,4_104_0,2023-09-08T20:51:24.476Z,,0,3,,2944.4520000000484,response,ISIC_9407690.JPG,6,ISIC_9972518.JPG,ISIC_9407690.JPG,false,1,keypress(m),500,547749.5999999046,547749.5,544788.38,544801.2000000477,544805.048,547755.284,8,400,5,,ISIC_9972518.JPG
break,html.Screen,4_104_1,2023-09-08T20:51:24.476Z,,0,,,NaN,,,,,,false,,,,547750,547749.9000000954,,547749.7000000477,,547755.284,8,400,,,
break_continue,html.Screen,4_104_2,2023-09-08T20:51:24.476Z,,0,,,NaN,,,,,,false,,,,547750.2000000477,547750.0999999046,,547750.0999999046,,547755.284,8,400,,,
sequence,flow.Sequence,4_104,2023-09-08T20:51:24.476Z,,0,,,2945.051999904681,completion,,,,,false,,,,547750.4000000954,547750.0999999046,544788.38,544801.2000000477,544805.048,547755.284,8,400,,,
trial,html.Screen,4_105_0,2023-09-08T20:51:28.496Z,,0,3,,4015.015999952331,response,ISIC_5362869.JPG,6,ISIC_3449290.JPG,ISIC_5362869.JPG,false,1,keypress(m),500,551770.5,551770.2999999523,547738.616,547750.4000000954,547755.284,551772.67,8,400,6,,ISIC_3449290.JPG
break,html.Screen,4_105_1,2023-09-08T20:51:28.497Z,,0,,,NaN,,,,,,false,,,,551770.9000000954,551770.7999999523,,551770.5999999046,,551772.67,8,400,,,
break_continue,html.Screen,4_105_2,2023-09-08T20:51:28.497Z,,0,,,NaN,,,,,,false,,,,551771.0999999046,551771.0999999046,,551771,,551772.67,8,400,,,
sequence,flow.Sequence,4_105,2023-09-08T20:51:28.497Z,,0,,,4015.8159999046475,completion,,,,,false,,,,551771.2999999523,551771.0999999046,547738.616,547750.4000000954,547755.284,551772.67,8,400,,,
trial,html.Screen,4_106_0,2023-09-08T20:51:33.231Z,,0,3,,4732.429999904591,response,ISIC_0064517.JPG,5,ISIC_0064376.JPG,ISIC_0064376.JPG,false,0,keypress(z),500,556505.2999999523,556505.0999999046,551756.002,551771.2999999523,551772.67,556506.382,8,400,7,,ISIC_0064517.JPG
break,html.Screen,4_106_1,2023-09-08T20:51:33.231Z,,0,,,NaN,,,,,,false,,,,556505.7000000477,556505.5999999046,,556505.4000000954,,556506.382,8,400,,,
break_continue,html.Screen,4_106_2,2023-09-08T20:51:33.232Z,,0,,,NaN,,,,,,false,,,,556505.9000000954,556505.9000000954,,556505.7999999523,,556506.382,8,400,,,
sequence,flow.Sequence,4_106,2023-09-08T20:51:33.232Z,,0,,,4733.2300000953255,completion,,,,,false,,,,556506.0999999046,556505.9000000954,551756.002,551771.2999999523,551772.67,556506.382,8,400,,,
trial,html.Screen,4_107_0,2023-09-08T20:51:36.628Z,,0,3,,3396.1180000000168,response,ISIC_0064517.JPG,8,ISIC_0055526.JPG,ISIC_0055526.JPG,false,0,keypress(z),500,559902.7000000477,559902.5,556489.714,556506.2000000477,556506.382,559907.049,8,400,8,,ISIC_0064517.JPG
break,html.Screen,4_107_1,2023-09-08T20:51:36.629Z,,0,,,NaN,,,,,,false,,,,559903.2000000477,559903,,559902.7999999523,,559907.049,8,400,,,
break_continue,html.Screen,4_107_2,2023-09-08T20:51:36.629Z,,0,,,NaN,,,,,,false,,,,559903.5,559903.2999999523,,559903.2000000477,,559907.049,8,400,,,
sequence,flow.Sequence,4_107,2023-09-08T20:51:36.629Z,,0,,,3396.917999952333,completion,,,,,false,,,,559903.5,559903.2999999523,556489.714,556506.2000000477,556506.382,559907.049,8,400,,,
trial,html.Screen,4_108_0,2023-09-08T20:51:40.567Z,,0,3,,3934.250999952317,response,ISIC_0027122.JPG,5,ISIC_0073227.JPG,ISIC_0073227.JPG,false,0,keypress(z),500,563841.5,563841.2999999523,559890.381,559903.5999999046,559907.049,563857.365,8,400,9,,ISIC_0027122.JPG
break,html.Screen,4_108_1,2023-09-08T20:51:40.567Z,,0,,,NaN,,,,,,false,,,,563841.7999999523,563841.7999999523,,563841.5,,563857.365,8,400,,,
break_continue,html.Screen,4_108_2,2023-09-08T20:51:40.568Z,,0,,,NaN,,,,,,false,,,,563842.0999999046,563842.0999999046,,563841.9000000954,,563857.365,8,400,,,
sequence,flow.Sequence,4_108,2023-09-08T20:51:40.568Z,,0,,,3935.0509999046335,completion,,,,,false,,,,563842.2000000477,563842.0999999046,559890.381,559903.5999999046,559907.049,563857.365,8,400,,,
trial,html.Screen,4_109_0,2023-09-08T20:51:45.804Z,,0,3,,5221.335000047693,response,ISIC_0012538.JPG,5,ISIC_0033304.JPG,ISIC_0033304.JPG,false,0,keypress(z),500,569078.9000000954,569078.7000000477,563840.697,563842.2999999523,563857.365,569091.117,8,400,10,,ISIC_0012538.JPG
break,html.Screen,4_109_1,2023-09-08T20:51:45.805Z,,0,,,NaN,,,,,,false,,,,569079.2999999523,569079.2000000477,,569079,,569091.117,8,400,,,
break_continue,html.Screen,4_109_2,2023-09-08T20:51:45.805Z,,0,,,NaN,,,,,,false,,,,569079.5999999046,569079.5,,569079.4000000954,,569091.117,8,400,,,
sequence,flow.Sequence,4_109,2023-09-08T20:51:45.805Z,,0,,,5222.135000000009,completion,,,,,false,,,,569079.7000000477,569079.5,563840.697,563842.2000000477,563857.365,569091.117,8,400,,,
trial,html.Screen,4_110_0,2023-09-08T20:51:48.670Z,,0,3,,2854.0830000477144,response,ISIC_4715386.JPG,8,ISIC_6761269.JPG,ISIC_6761269.JPG,false,0,keypress(z),500,571945.4000000954,571945.2000000477,569074.449,569079.7000000477,569091.117,571958.415,8,400,11,,ISIC_4715386.JPG
break,html.Screen,4_110_1,2023-09-08T20:51:48.671Z,,0,,,NaN,,,,,,false,,,,571945.7000000477,571945.7000000477,,571945.5,,571958.415,8,400,,,
break_continue,html.Screen,4_110_2,2023-09-08T20:51:48.671Z,,0,,,NaN,,,,,,false,,,,571946,571945.9000000954,,571945.9000000954,,571958.415,8,400,,,
sequence,flow.Sequence,4_110,2023-09-08T20:51:48.671Z,,0,,,2854.783000095398,completion,,,,,false,,,,571946.0999999046,571945.9000000954,569074.449,569079.7000000477,569091.117,571958.415,8,400,,,
trial,html.Screen,4_111_0,2023-09-08T20:51:54.356Z,,0,3,,5672.084999999963,response,ISIC_0830131.JPG,7,ISIC_9895220.JPG,ISIC_0830131.JPG,false,1,keypress(m),500,577630.5999999046,577630.5,571941.747,571946.2000000477,571958.415,577642.203,8,400,12,,ISIC_9895220.JPG
break,html.Screen,4_111_1,2023-09-08T20:51:54.356Z,,0,,,NaN,,,,,,false,,,,577631.0999999046,577631,,577630.7999999523,,577642.203,8,400,,,
break_continue,html.Screen,4_111_2,2023-09-08T20:51:54.356Z,,0,,,NaN,,,,,,false,,,,577631.2999999523,577631.2000000477,,577631.0999999046,,577642.203,8,400,,,
sequence,flow.Sequence,4_111,2023-09-08T20:51:54.356Z,,0,,,5672.7850000476465,completion,,,,,false,,,,577631.4000000954,577631.2000000477,571941.747,571946.2000000477,571958.415,577642.203,8,400,,,
trial,html.Screen,4_112_0,2023-09-08T20:52:00.264Z,,0,3,,5897.096999952337,response,ISIC_5126638.JPG,8,ISIC_2232442.JPG,ISIC_2232442.JPG,false,0,keypress(z),500,583539.5,583539.2999999523,577625.535,577631.4000000954,577642.203,583543.145,8,400,13,,ISIC_5126638.JPG
break,html.Screen,4_112_1,2023-09-08T20:52:00.265Z,,0,,,NaN,,,,,,false,,,,583540,583539.7999999523,,583539.5999999046,,583543.145,8,400,,,
break_continue,html.Screen,4_112_2,2023-09-08T20:52:00.265Z,,0,,,NaN,,,,,,false,,,,583540.0999999046,583540.0999999046,,583540,,583543.145,8,400,,,
sequence,flow.Sequence,4_112,2023-09-08T20:52:00.265Z,,0,,,5897.896999904653,completion,,,,,false,,,,583540.2999999523,583540.0999999046,577625.535,577631.4000000954,577642.203,583543.145,8,400,,,
trial,html.Screen,4_113_0,2023-09-08T20:52:05.150Z,,0,3,,4881.954999904614,response,ISIC_0054287.JPG,9,ISIC_8777813.JPG,ISIC_8777813.JPG,false,0,keypress(z),500,588425.2999999523,588425.0999999046,583526.477,583540.4000000954,583543.145,588426.869,8,400,14,,ISIC_0054287.JPG
break,html.Screen,4_113_1,2023-09-08T20:52:05.150Z,,0,,,NaN,,,,,,false,,,,588425.9000000954,588425.7000000477,,588425.5,,588426.869,8,400,,,
break_continue,html.Screen,4_113_2,2023-09-08T20:52:05.151Z,,0,,,NaN,,,,,,false,,,,588426.0999999046,588426,,588425.9000000954,,588426.869,8,400,,,
sequence,flow.Sequence,4_113,2023-09-08T20:52:05.151Z,,0,,,4882.854999999981,completion,,,,,false,,,,588426.0999999046,588426,583526.477,583540.2999999523,583543.145,588426.869,8,400,,,
trial,html.Screen,4_114_0,2023-09-08T20:52:11.539Z,,0,3,,6387.631000000052,response,ISIC_0055727.JPG,8,ISIC_1251639.JPG,ISIC_1251639.JPG,false,0,keypress(z),500,594814.7000000477,594814.5,588410.201,588426.2999999523,588426.869,594827.831,8,400,15,,ISIC_0055727.JPG
break,html.Screen,4_114_1,2023-09-08T20:52:11.539Z,,0,,,NaN,,,,,,false,,,,594815.0999999046,594815,,594814.7999999523,,594827.831,8,400,,,
break_continue,html.Screen,4_114_2,2023-09-08T20:52:11.540Z,,0,,,NaN,,,,,,false,,,,594815.2999999523,594815.2000000477,,594815.0999999046,,594827.831,8,400,,,
sequence,flow.Sequence,4_114,2023-09-08T20:52:11.540Z,,0,,,6388.331000047736,completion,,,,,false,,,,594815.5,594815.2000000477,588410.201,588426.2000000477,588426.869,594827.831,8,400,,,
trial,html.Screen,4_115_0,2023-09-08T20:52:15.447Z,,0,3,,3895.069000095362,response,ISIC_0030508.JPG,7,ISIC_0951519.JPG,ISIC_0951519.JPG,false,0,keypress(z),500,598723.0999999046,598722.9000000954,594811.163,594815.5,594827.831,598728.143,8,400,16,,ISIC_0030508.JPG
break,html.Screen,4_115_1,2023-09-08T20:52:15.448Z,,0,,,NaN,,,,,,false,,,,598723.5,598723.4000000954,,598723.2000000477,,598728.143,8,400,,,
break_continue,html.Screen,4_115_2,2023-09-08T20:52:15.448Z,,0,,,NaN,,,,,,false,,,,598723.7999999523,598723.7000000477,,598723.5999999046,,598728.143,8,400,,,
sequence,flow.Sequence,4_115,2023-09-08T20:52:15.448Z,,0,,,3895.869000047678,completion,,,,,false,,,,598723.9000000954,598723.7000000477,594811.163,594815.5,594827.831,598728.143,8,400,,,
trial,html.Screen,4_116_0,2023-09-08T20:52:22.076Z,,0,3,,6623.557000047644,response,ISIC_0238824.JPG,9,ISIC_5098778.JPG,ISIC_0238824.JPG,false,1,keypress(m),500,605351.9000000954,605351.7000000477,598711.475,598723.9000000954,598728.143,605362.448,8,400,17,,ISIC_5098778.JPG
break,html.Screen,4_116_1,2023-09-08T20:52:22.076Z,,0,,,NaN,,,,,,false,,,,605352.2999999523,605352.2000000477,,605352,,605362.448,8,400,,,
break_continue,html.Screen,4_116_2,2023-09-08T20:52:22.076Z,,0,,,NaN,,,,,,false,,,,605352.5,605352.4000000954,,605352.2999999523,,605362.448,8,400,,,
sequence,flow.Sequence,4_116,2023-09-08T20:52:22.076Z,,0,,,6624.257000095327,completion,,,,,false,,,,605352.7000000477,605352.4000000954,598711.475,598723.9000000954,598728.143,605362.448,8,400,,,
trial,html.Screen,4_117_0,2023-09-08T20:52:26.158Z,,0,3,,4072.052000000025,response,ISIC_0058828.JPG,5,ISIC_2391053.JPG,ISIC_2391053.JPG,false,0,keypress(z),500,609434.5999999046,609434.5,605345.78,605352.7000000477,605362.448,609446.108,8,400,18,,ISIC_0058828.JPG
break,html.Screen,4_117_1,2023-09-08T20:52:26.159Z,,0,,,NaN,,,,,,false,,,,609434.9000000954,609434.9000000954,,609434.7000000477,,609446.108,8,400,,,
break_continue,html.Screen,4_117_2,2023-09-08T20:52:26.159Z,,0,,,NaN,,,,,,false,,,,609435.0999999046,609435.0999999046,,609435,,609446.108,8,400,,,
sequence,flow.Sequence,4_117,2023-09-08T20:52:26.159Z,,0,,,4072.6519999046577,completion,,,,,false,,,,609435.2000000477,609435.0999999046,605345.78,605352.7000000477,605362.448,609446.108,8,400,,,
trial,html.Screen,4_118_0,2023-09-08T20:52:31.357Z,,0,3,,5186.991999904625,response,ISIC_8384985.JPG,8,ISIC_9546876.JPG,ISIC_8384985.JPG,false,1,keypress(m),500,614633.4000000954,614633.0999999046,609429.44,609435.2999999523,609446.108,614646.524,8,400,19,,ISIC_9546876.JPG
break,html.Screen,4_118_1,2023-09-08T20:52:31.357Z,,0,,,NaN,,,,,,false,,,,614633.7000000477,614633.5999999046,,614633.4000000954,,614646.524,8,400,,,
break_continue,html.Screen,4_118_2,2023-09-08T20:52:31.357Z,,0,,,NaN,,,,,,false,,,,614633.9000000954,614633.7999999523,,614633.7999999523,,614646.524,8,400,,,
sequence,flow.Sequence,4_118,2023-09-08T20:52:31.357Z,,0,,,5187.691999952309,completion,,,,,false,,,,614634,614633.7999999523,609429.44,609435.2000000477,609446.108,614646.524,8,400,,,
trial,html.Screen,4_119_0,2023-09-08T20:52:35.452Z,,0,3,,4082.176000047708,response,ISIC_0027067.JPG,8,ISIC_0028755.JPG,ISIC_0027067.JPG,false,1,keypress(m),500,618729,618728.7000000477,614629.856,614634.0999999046,614646.524,618730.593,8,400,20,,ISIC_0028755.JPG
break,html.Screen,4_119_1,2023-09-08T20:52:35.453Z,,0,,,NaN,,,,,,false,,,,618729.4000000954,618729.2999999523,,618729.0999999046,,618730.593,8,400,,,
break_continue,html.Screen,4_119_2,2023-09-08T20:52:35.453Z,,0,,,NaN,,,,,,false,,,,618729.5999999046,618729.5,,618729.5,,618730.593,8,400,,,
sequence,flow.Sequence,4_119,2023-09-08T20:52:35.453Z,,0,,,4082.976000000024,completion,,,,,false,,,,618729.7000000477,618729.5,614629.856,614634.0999999046,614646.524,618730.593,8,400,,,
trial,html.Screen,4_120_0,2023-09-08T20:52:38.865Z,,0,3,,3411.4070000000065,response,ISIC_5791954.JPG,8,ISIC_0024894.JPG,ISIC_0024894.JPG,false,0,keypress(z),500,622142.2000000477,622142,618713.925,618729.7999999523,618730.593,622147.533,8,400,21,,ISIC_5791954.JPG
break,html.Screen,4_120_1,2023-09-08T20:52:38.866Z,,0,,,NaN,,,,,,false,,,,622142.7000000477,622142.5,,622142.2999999523,,622147.533,8,400,,,
break_continue,html.Screen,4_120_2,2023-09-08T20:52:38.866Z,,0,,,NaN,,,,,,false,,,,622142.9000000954,622142.7000000477,,622142.7000000477,,622147.533,8,400,,,
sequence,flow.Sequence,4_120,2023-09-08T20:52:38.866Z,,0,,,3412.1070000476902,completion,,,,,false,,,,622142.9000000954,622142.7000000477,618713.925,618729.7999999523,618730.593,622147.533,8,400,,,
trial,html.Screen,4_121_0,2023-09-08T20:52:41.590Z,,0,3,,2719.6670000476297,response,ISIC_0024806.JPG,8,ISIC_0011729.JPG,ISIC_0024806.JPG,false,1,keypress(m),500,624867.4000000954,624867.2000000477,622130.865,622143.0999999046,622147.533,624881.085,8,400,22,,ISIC_0011729.JPG
break,html.Screen,4_121_1,2023-09-08T20:52:41.591Z,,0,,,NaN,,,,,,false,,,,624867.7000000477,624867.5999999046,,624867.4000000954,,624881.085,8,400,,,
break_continue,html.Screen,4_121_2,2023-09-08T20:52:41.591Z,,0,,,NaN,,,,,,false,,,,624868,624867.9000000954,,624867.7999999523,,624881.085,8,400,,,
sequence,flow.Sequence,4_121,2023-09-08T20:52:41.591Z,,0,,,2720.3670000953134,completion,,,,,false,,,,624868.0999999046,624867.9000000954,622130.865,622143.0999999046,622147.533,624881.085,8,400,,,
trial,html.Screen,4_122_0,2023-09-08T20:52:45.813Z,,0,3,,4209.01499990467,response,ISIC_6128108.JPG,8,ISIC_7262685.JPG,ISIC_7262685.JPG,false,0,keypress(z),500,629090.2000000477,629090.0999999046,624864.417,624868.0999999046,624881.085,629098.505,8,400,23,,ISIC_6128108.JPG
break,html.Screen,4_122_1,2023-09-08T20:52:45.813Z,,0,,,NaN,,,,,,false,,,,629090.7000000477,629090.5,,629090.4000000954,,629098.505,8,400,,,
break_continue,html.Screen,4_122_2,2023-09-08T20:52:45.814Z,,0,,,NaN,,,,,,false,,,,629091,629090.7999999523,,629090.7999999523,,629098.505,8,400,,,
sequence,flow.Sequence,4_122,2023-09-08T20:52:45.814Z,,0,,,4209.7149999523535,completion,,,,,false,,,,629091.0999999046,629090.7999999523,624864.417,624868.0999999046,624881.085,629098.505,8,400,,,
trial,html.Screen,4_123_0,2023-09-08T20:52:49.735Z,,0,3,,3913.395000095363,response,ISIC_4377208.JPG,6,ISIC_4502605.JPG,ISIC_4377208.JPG,false,1,keypress(m),500,633012,633011.9000000954,629081.837,629091.2000000477,629098.505,633015.485,8,400,24,,ISIC_4502605.JPG
break,html.Screen,4_123_1,2023-09-08T20:52:49.735Z,,0,,,NaN,,,,,,false,,,,633012.4000000954,633012.2999999523,,633012.0999999046,,633015.485,8,400,,,
break_continue,html.Screen,4_123_2,2023-09-08T20:52:49.735Z,,0,,,NaN,,,,,,false,,,,633012.7000000477,633012.5999999046,,633012.5,,633015.485,8,400,,,
sequence,flow.Sequence,4_123,2023-09-08T20:52:49.735Z,,0,,,3914.094999904628,completion,,,,,false,,,,633012.7999999523,633012.5999999046,629081.837,629091.2000000477,629098.505,633015.485,8,400,,,
trial,html.Screen,4_124_0,2023-09-08T20:52:52.739Z,,0,3,,3001.3149999523303,response,ISIC_3984167.JPG,8,ISIC_0189694.JPG,ISIC_0189694.JPG,false,0,keypress(z),500,636017,636016.7999999523,632998.817,633012.9000000954,633015.485,636032.393,8,400,25,,ISIC_3984167.JPG
break,html.Screen,4_124_1,2023-09-08T20:52:52.740Z,,0,,,NaN,,,,,,false,,,,636017.4000000954,636017.2000000477,,636017.0999999046,,636032.393,8,400,,,
break_continue,html.Screen,4_124_2,2023-09-08T20:52:52.740Z,,0,,,NaN,,,,,,false,,,,636017.5999999046,636017.5,,636017.4000000954,,636032.393,8,400,,,
sequence,flow.Sequence,4_124,2023-09-08T20:52:52.740Z,,0,,,3002.015000000014,completion,,,,,false,,,,636017.7999999523,636017.5,632998.817,633012.7999999523,633015.485,636032.393,8,400,,,
