sender,sender_type,sender_id,timestamp,meta,,blockNo,condition,duration,ended_on,img_left,img_reveal,img_right,loser,practice,response,response_action,selection_duration,time_commit,time_end,time_render,time_run,time_show,time_switch,total_blocks,total_trials,trialNo,url,winner
informed_consent,html.Screen,0,2023-05-01T17:09:33.302Z,"{""labjs_version"":""20.2.4"",""labjs_build"":{""flavor"":""production"",""commit"":""f5b4a49f956347addd546a832a3327688c2c0fef""},""location"":""https://run.pavlovia.org/MurrayBennett/melanoma-2afc/?participant=64601"",""userAgent"":""Mozilla/5.0 (Macintosh; Intel Mac OS X 10_15_7) AppleWebKit/537.36 (KHTML, like Gecko) Chrome/112.0.0.0 Safari/537.36"",""platform"":""MacIntel"",""language"":""en-US"",""locale"":""en-US"",""timeZone"":""America/Chicago"",""timezoneOffset"":300,""screen_width"":1440,""screen_height"":900,""scroll_width"":1440,""scroll_height"":657,""window_innerWidth"":1440,""window_innerHeight"":705,""devicePixelRatio"":2}",,,,4811.492,response,,,,,,continue,click button,,8983.59999999404,8980,4151.842,4153.199999988079,4168.508,9001.648,,,,"{""participant"":""64601""}",
Welcome,html.Screen,1,2023-05-01T17:09:39.599Z,,,,regular,6276.352000000001,response,,,,,,continue,click button,,15280.90000000596,15278,8968.316,8983.799999982119,9001.648,15285.125,,,,,
trial,html.Screen,2_0_0,2023-05-01T17:09:44.882Z,,0,0,,5278.074999988079,response,ISIC_0061792.JPG,,ISIC_4679428.JPG,ISIC_4679428.JPG,true,0,keypress(z),500,20563.90000000596,20563.19999998808,15268.459,15281.199999988079,15285.125,20568.247,1,6,1,,ISIC_0061792.JPG
sequence,flow.Sequence,2_0,2023-05-01T17:09:44.882Z,,0,,,5278.074999988079,completion,,,,,true,,,,20564.40000000596,20563.19999998808,15268.459,15281.199999988079,15285.125,20568.247,1,6,,,
trial,html.Screen,2_1_0,2023-05-01T17:09:49.177Z,,0,0,,4290.552999982119,response,ISIC_0776486.JPG,,ISIC_5199497.JPG,ISIC_0776486.JPG,true,1,keypress(m),500,24859.19999998808,24858.79999998212,20551.581,20564.59999999404,20568.247,24868.512,1,6,2,,ISIC_5199497.JPG
sequence,flow.Sequence,2_1,2023-05-01T17:09:49.178Z,,0,,,4290.552999982119,completion,,,,,true,,,,24859.59999999404,24858.79999998212,20551.581,20564.5,20568.247,24868.512,1,6,,,
trial,html.Screen,2_2_0,2023-05-01T17:09:53.057Z,,0,0,,3870.3880000059617,response,ISIC_2556187.JPG,,ISIC_8575776.JPG,ISIC_8575776.JPG,true,0,keypress(z),500,28739.40000000596,28738.90000000596,24851.846,24859.79999998212,24868.512,28751.69,1,6,3,,ISIC_2556187.JPG
sequence,flow.Sequence,2_2,2023-05-01T17:09:53.058Z,,0,,,3870.3880000059617,completion,,,,,true,,,,28739.79999998212,28738.90000000596,24851.846,24859.69999998808,24868.512,28751.69,1,6,,,
trial,html.Screen,2_3_0,2023-05-01T17:09:56.450Z,,0,0,,3379.8100000000013,response,ISIC_8141769.JPG,,ISIC_9238366.JPG,ISIC_9238366.JPG,true,0,keypress(z),500,32132,32131.5,28735.024,28740.09999999404,28751.69,32135.278,1,6,4,,ISIC_8141769.JPG
sequence,flow.Sequence,2_3,2023-05-01T17:09:56.450Z,,0,,,3379.8100000000013,completion,,,,,true,,,,32132.59999999404,32131.5,28735.024,28739.90000000596,28751.69,32135.278,1,6,,,
trial,html.Screen,2_4_0,2023-05-01T17:10:01.202Z,,0,0,,4747.821999994041,response,ISIC_8949026.JPG,,ISIC_9959593.JPG,ISIC_8949026.JPG,true,1,keypress(m),500,36883.79999998212,36883.09999999404,32118.612,32132.90000000596,32135.278,36901.754,1,6,5,,ISIC_9959593.JPG
sequence,flow.Sequence,2_4,2023-05-01T17:10:01.202Z,,0,,,4747.821999994041,completion,,,,,true,,,,36884.5,36883.09999999404,32118.612,32132.79999998212,32135.278,36901.754,1,6,,,
trial,html.Screen,2_5_0,2023-05-01T17:10:11.073Z,,0,0,,9853.045999982118,response,ISIC_0010479.JPG,,ISIC_0460240.JPG,ISIC_0460240.JPG,true,0,keypress(z),500,46755.40000000596,46754.79999998212,36885.088,36884.69999998808,36901.754,46768.619,1,6,6,,ISIC_0010479.JPG
sequence,flow.Sequence,2_5,2023-05-01T17:10:11.074Z,,0,,,9853.045999982118,completion,,,,,true,,,,46755.79999998212,46754.79999998212,36885.088,36884.59999999404,36901.754,46768.619,1,6,,,
loop,flow.Loop,2,2023-05-01T17:10:11.074Z,,,,,31469.67499998212,completion,,,,,true,,,,46756.19999998808,46754.79999998212,15268.459,15281.09999999404,15285.125,46768.619,1,6,,,
exp_instructions,html.Screen,3,2023-05-01T17:10:26.016Z,,,,,14921.381000000001,response,,,,,,continue,keypress(Space),,61698.09999999404,61690,46751.953,46756.29999998212,46768.619,61701.355,,,,,
trial,html.Screen,4_0_0,2023-05-01T17:10:30.258Z,,0,1,,4238.045000005957,response,ISIC_2768150.JPG,,ISIC_5747486.JPG,ISIC_2768150.JPG,false,1,keypress(m),500,65940,65939.40000000596,61684.689,61698.29999998212,61701.355,65951.263,6,300,1,,ISIC_5747486.JPG
break,html.Screen,4_0_1,2023-05-01T17:10:30.260Z,,0,,,NaN,,,,,,false,,,,65942,65941.5,,65940.29999998212,,65951.263,6,300,,,
break_continue,html.Screen,4_0_2,2023-05-01T17:10:30.260Z,,0,,,NaN,,,,,,false,,,,65942.5,65942.29999998212,,65942.09999999404,,65951.263,6,300,,,
sequence,flow.Sequence,4_0,2023-05-01T17:10:30.260Z,,0,,,4240.944999982115,completion,,,,,false,,,,65942.69999998808,65942.29999998212,61684.689,61698.29999998212,61701.355,65951.263,6,300,,,
trial,html.Screen,4_1_0,2023-05-01T17:10:40.258Z,,0,1,,10016.265999999989,timeout,ISIC_7421214.JPG,,ISIC_0010995.JPG,,false,,,500,75940.19999998808,75939.69999998808,65934.597,65942.90000000596,65951.263,75967.529,6,300,2,,
break,html.Screen,4_1_1,2023-05-01T17:10:40.259Z,,0,,,NaN,,,,,,false,,,,75941.90000000596,75941.5,,75940.5,,75967.529,6,300,,,
break_continue,html.Screen,4_1_2,2023-05-01T17:10:40.260Z,,0,,,NaN,,,,,,false,,,,75942.29999998212,75942.19999998808,,75942,,75967.529,6,300,,,
sequence,flow.Sequence,4_1,2023-05-01T17:10:40.260Z,,0,,,9990.936999988073,completion,,,,,false,,,,75942.5,75942.19999998808,65934.597,65942.79999998212,65951.263,75967.529,6,300,,,
trial,html.Screen,4_2_0,2023-05-01T17:10:44.289Z,,0,1,,4003.3710000059655,response,ISIC_0066878.JPG,,ISIC_6377883.JPG,ISIC_6377883.JPG,false,0,keypress(z),500,79971.40000000596,79970.90000000596,75950.863,75942.59999999404,75967.529,79984.87,6,300,3,,ISIC_0066878.JPG
break,html.Screen,4_2_1,2023-05-01T17:10:44.291Z,,0,,,NaN,,,,,,false,,,,79973.09999999404,79972.79999998212,,79971.79999998212,,79984.87,6,300,,,
break_continue,html.Screen,4_2_2,2023-05-01T17:10:44.291Z,,0,,,NaN,,,,,,false,,,,79973.59999999404,79973.5,,79973.19999998808,,79984.87,6,300,,,
sequence,flow.Sequence,4_2,2023-05-01T17:10:44.291Z,,0,,,4005.971000000005,completion,,,,,false,,,,79973.59999999404,79973.5,75950.863,75942.5,75967.529,79984.87,6,300,,,
trial,html.Screen,4_3_0,2023-05-01T17:10:47.579Z,,0,1,,3275.729999994044,response,ISIC_9719936.JPG,,ISIC_0001151.JPG,ISIC_9719936.JPG,false,1,keypress(m),500,83261.09999999404,83260.59999999404,79968.204,79973.79999998212,79984.87,83268.072,6,300,4,,ISIC_0001151.JPG
break,html.Screen,4_3_1,2023-05-01T17:10:47.580Z,,0,,,NaN,,,,,,false,,,,83262.79999998212,83262.40000000596,,83261.29999998212,,83268.072,6,300,,,
break_continue,html.Screen,4_3_2,2023-05-01T17:10:47.581Z,,0,,,NaN,,,,,,false,,,,83263.40000000596,83263.19999998808,,83263,,83268.072,6,300,,,
sequence,flow.Sequence,4_3,2023-05-01T17:10:47.581Z,,0,,,3278.3299999880837,completion,,,,,false,,,,83263.5,83263.19999998808,79968.204,79973.79999998212,79984.87,83268.072,6,300,,,
trial,html.Screen,4_4_0,2023-05-01T17:10:52.574Z,,0,1,,4988.428,response,ISIC_0059303.JPG,,ISIC_0009100.JPG,ISIC_0009100.JPG,false,0,keypress(z),500,88256.90000000596,88256.5,83251.406,83263.69999998808,83268.072,88285.352,6,300,5,,ISIC_0059303.JPG
break,html.Screen,4_4_1,2023-05-01T17:10:52.576Z,,0,,,NaN,,,,,,false,,,,88258.5,88258.19999998808,,88257.19999998808,,88285.352,6,300,,,
break_continue,html.Screen,4_4_2,2023-05-01T17:10:52.576Z,,0,,,NaN,,,,,,false,,,,88258.90000000596,88258.79999998212,,88258.59999999404,,88285.352,6,300,,,
sequence,flow.Sequence,4_4,2023-05-01T17:10:52.576Z,,0,,,4990.7279999821185,completion,,,,,false,,,,88259,88258.79999998212,83251.406,83263.59999999404,83268.072,88285.352,6,300,,,
trial,html.Screen,4_5_0,2023-05-01T17:10:56.769Z,,0,1,,4165.94799998212,response,ISIC_1292607.JPG,,ISIC_7755106.JPG,ISIC_7755106.JPG,false,0,keypress(z),500,92451.79999998212,92451.29999998212,88268.686,88259.09999999404,88285.352,92468.518,6,300,6,,ISIC_1292607.JPG
break,html.Screen,4_5_1,2023-05-01T17:10:56.771Z,,0,,,NaN,,,,,,false,,,,92453.5,92453.19999998808,,92452.09999999404,,92468.518,6,300,,,
break_continue,html.Screen,4_5_2,2023-05-01T17:10:56.771Z,,0,,,NaN,,,,,,false,,,,92453.90000000596,92453.79999998212,,92453.59999999404,,92468.518,6,300,,,
sequence,flow.Sequence,4_5,2023-05-01T17:10:56.771Z,,0,,,4168.44799998212,completion,,,,,false,,,,92454.09999999404,92453.79999998212,88268.686,88259,88285.352,92468.518,6,300,,,
trial,html.Screen,4_6_0,2023-05-01T17:11:00.939Z,,0,1,,4153.281999982122,response,ISIC_0027214.JPG,,ISIC_0072371.JPG,ISIC_0072371.JPG,false,0,keypress(z),500,96622.19999998808,96621.79999998212,92451.852,92454.19999998808,92468.518,96635.018,6,300,7,,ISIC_0027214.JPG
break,html.Screen,4_6_1,2023-05-01T17:11:00.941Z,,0,,,NaN,,,,,,false,,,,96623.79999998212,96623.5,,96622.5,,96635.018,6,300,,,
break_continue,html.Screen,4_6_2,2023-05-01T17:11:00.941Z,,0,,,NaN,,,,,,false,,,,96624.09999999404,96624,,96623.90000000596,,96635.018,6,300,,,
sequence,flow.Sequence,4_6,2023-05-01T17:11:00.941Z,,0,,,4155.482000000004,completion,,,,,false,,,,96624.19999998808,96624,92451.852,92454.19999998808,92468.518,96635.018,6,300,,,
trial,html.Screen,4_7_0,2023-05-01T17:11:05.496Z,,0,1,,4542.982000000004,response,ISIC_0010555.JPG,,ISIC_0527170.JPG,ISIC_0527170.JPG,false,0,keypress(z),500,101178.5,101178,96618.352,96624.29999998212,96635.018,101185.244,6,300,8,,ISIC_0010555.JPG
break,html.Screen,4_7_1,2023-05-01T17:11:05.497Z,,0,,,NaN,,,,,,false,,,,101180,101179.69999998808,,101178.69999998808,,101185.244,6,300,,,
break_continue,html.Screen,4_7_2,2023-05-01T17:11:05.498Z,,0,,,NaN,,,,,,false,,,,101180.5,101180.29999998212,,101180.09999999404,,101185.244,6,300,,,
sequence,flow.Sequence,4_7,2023-05-01T17:11:05.498Z,,0,,,4545.281999982122,completion,,,,,false,,,,101180.59999999404,101180.29999998212,96618.352,96624.19999998808,96635.018,101185.244,6,300,,,
trial,html.Screen,4_8_0,2023-05-01T17:11:08.665Z,,0,1,,3162.0559999821126,response,ISIC_0032987.JPG,,ISIC_6678508.JPG,ISIC_6678508.JPG,false,0,keypress(z),500,104347.69999998808,104347.29999998212,101168.578,101180.79999998212,101185.244,104351.784,6,300,9,,ISIC_0032987.JPG
break,html.Screen,4_8_1,2023-05-01T17:11:08.667Z,,0,,,NaN,,,,,,false,,,,104349.29999998212,104349,,104348.09999999404,,104351.784,6,300,,,
break_continue,html.Screen,4_8_2,2023-05-01T17:11:08.667Z,,0,,,NaN,,,,,,false,,,,104349.59999999404,104349.5,,104349.40000000596,,104351.784,6,300,,,
sequence,flow.Sequence,4_8,2023-05-01T17:11:08.667Z,,0,,,3164.255999999994,completion,,,,,false,,,,104349.69999998808,104349.5,101168.578,101180.69999998808,101185.244,104351.784,6,300,,,
trial,html.Screen,4_9_0,2023-05-01T17:11:12.497Z,,0,1,,3827.515999982119,response,ISIC_0147869.JPG,,ISIC_0046316.JPG,ISIC_0147869.JPG,false,1,keypress(m),500,108179.59999999404,108179.29999998212,104335.118,104349.79999998212,104351.784,108184.964,6,300,10,,ISIC_0046316.JPG
break,html.Screen,4_9_1,2023-05-01T17:11:12.498Z,,0,,,NaN,,,,,,false,,,,108180.5,108180.29999998212,,108179.79999998212,,108184.964,6,300,,,
break_continue,html.Screen,4_9_2,2023-05-01T17:11:12.498Z,,0,,,NaN,,,,,,false,,,,108180.79999998212,108180.69999998808,,108180.5,,108184.964,6,300,,,
sequence,flow.Sequence,4_9,2023-05-01T17:11:12.498Z,,0,,,3828.9159999880794,completion,,,,,false,,,,108180.79999998212,108180.69999998808,104335.118,104349.79999998212,104351.784,108184.964,6,300,,,
trial,html.Screen,4_10_0,2023-05-01T17:11:15.601Z,,0,1,,3098.235999988072,response,ISIC_2894223.JPG,,ISIC_0067012.JPG,ISIC_2894223.JPG,false,1,keypress(m),500,111283.69999998808,111283.19999998808,108168.298,108180.90000000596,108184.964,111285.247,6,300,11,,ISIC_0067012.JPG
break,html.Screen,4_10_1,2023-05-01T17:11:15.602Z,,0,,,NaN,,,,,,false,,,,111285,111284.69999998808,,111283.90000000596,,111285.247,6,300,,,
break_continue,html.Screen,4_10_2,2023-05-01T17:11:15.603Z,,0,,,NaN,,,,,,false,,,,111285.40000000596,111285.40000000596,,111285.19999998808,,111285.247,6,300,,,
sequence,flow.Sequence,4_10,2023-05-01T17:11:15.603Z,,0,,,3100.4360000059532,completion,,,,,false,,,,111285.5,111285.40000000596,108168.298,108180.90000000596,108184.964,111285.247,6,300,,,
trial,html.Screen,4_11_0,2023-05-01T17:11:18.730Z,,0,1,,3127.5529999821156,response,ISIC_0002675.JPG,,ISIC_4407580.JPG,ISIC_0002675.JPG,false,1,keypress(m),500,114413.19999998808,114412.79999998212,111268.581,111285.59999999404,111285.247,114418.455,6,300,12,,ISIC_4407580.JPG
break,html.Screen,4_11_1,2023-05-01T17:11:18.732Z,,0,,,NaN,,,,,,false,,,,114414.59999999404,114414.29999998212,,114413.5,,114418.455,6,300,,,
break_continue,html.Screen,4_11_2,2023-05-01T17:11:18.732Z,,0,,,NaN,,,,,,false,,,,114415,114414.90000000596,,114414.69999998808,,114418.455,6,300,,,
sequence,flow.Sequence,4_11,2023-05-01T17:11:18.732Z,,0,,,3129.6530000059574,completion,,,,,false,,,,114415.29999998212,114414.90000000596,111268.581,111285.59999999404,111285.247,114418.455,6,300,,,
trial,html.Screen,4_12_0,2023-05-01T17:11:21.857Z,,0,1,,3120.844999982117,response,ISIC_0070992.JPG,,ISIC_0058132.JPG,ISIC_0058132.JPG,false,0,keypress(z),500,117539.40000000596,117539.29999998212,114401.789,114415.40000000596,114418.455,117551.663,6,300,13,,ISIC_0070992.JPG
break,html.Screen,4_12_1,2023-05-01T17:11:21.857Z,,0,,,NaN,,,,,,false,,,,117540.19999998808,117540.09999999404,,117539.59999999404,,117551.663,6,300,,,
break_continue,html.Screen,4_12_2,2023-05-01T17:11:21.858Z,,0,,,NaN,,,,,,false,,,,117540.5,117540.40000000596,,117540.29999998212,,117551.663,6,300,,,
sequence,flow.Sequence,4_12,2023-05-01T17:11:21.858Z,,0,,,3121.9450000059587,completion,,,,,false,,,,117540.59999999404,117540.40000000596,114401.789,114415.29999998212,114418.455,117551.663,6,300,,,
trial,html.Screen,4_13_0,2023-05-01T17:11:25.952Z,,0,1,,4083.23700000596,response,ISIC_0465385.JPG,,ISIC_0450295.JPG,ISIC_0450295.JPG,false,0,keypress(z),500,121635.29999998212,121634.90000000596,117534.997,117540.69999998808,117551.663,121651.898,6,300,14,,ISIC_0465385.JPG
break,html.Screen,4_13_1,2023-05-01T17:11:25.954Z,,0,,,NaN,,,,,,false,,,,121636.69999998808,121636.5,,121635.59999999404,,121651.898,6,300,,,
break_continue,html.Screen,4_13_2,2023-05-01T17:11:25.954Z,,0,,,NaN,,,,,,false,,,,121637.19999998808,121637.09999999404,,121636.90000000596,,121651.898,6,300,,,
sequence,flow.Sequence,4_13,2023-05-01T17:11:25.955Z,,0,,,4085.436999994039,completion,,,,,false,,,,121637.40000000596,121637.09999999404,117534.997,117540.59999999404,117551.663,121651.898,6,300,,,
trial,html.Screen,4_14_0,2023-05-01T17:11:34.169Z,,0,1,,8199.50200000596,response,ISIC_7797853.JPG,,ISIC_7299650.JPG,ISIC_7299650.JPG,false,0,keypress(z),500,129851.59999999404,129851.40000000596,121635.232,121637.5,121651.898,129868.461,6,300,15,,ISIC_7797853.JPG
break,html.Screen,4_14_1,2023-05-01T17:11:34.170Z,,0,,,NaN,,,,,,false,,,,129853.19999998808,129853,,129851.90000000596,,129868.461,6,300,,,
break_continue,html.Screen,4_14_2,2023-05-01T17:11:34.171Z,,0,,,NaN,,,,,,false,,,,129853.59999999404,129853.5,,129853.29999998212,,129868.461,6,300,,,
sequence,flow.Sequence,4_14,2023-05-01T17:11:34.171Z,,0,,,8201.601999999999,completion,,,,,false,,,,129853.90000000596,129853.5,121635.232,121637.40000000596,121651.898,129868.461,6,300,,,
trial,html.Screen,4_15_0,2023-05-01T17:11:38.376Z,,0,1,,4189.939000005965,response,ISIC_0046345.JPG,,ISIC_8397011.JPG,ISIC_8397011.JPG,false,0,keypress(z),500,134058.79999998212,134058.40000000596,129851.795,129853.90000000596,129868.461,134068.293,6,300,16,,ISIC_0046345.JPG
break,html.Screen,4_15_1,2023-05-01T17:11:38.377Z,,0,,,NaN,,,,,,false,,,,134060.5,134060.19999998808,,134059.19999998808,,134068.293,6,300,,,
break_continue,html.Screen,4_15_2,2023-05-01T17:11:38.378Z,,0,,,NaN,,,,,,false,,,,134060.90000000596,134060.79999998212,,134060.59999999404,,134068.293,6,300,,,
sequence,flow.Sequence,4_15,2023-05-01T17:11:38.378Z,,0,,,4192.338999982123,completion,,,,,false,,,,134061.09999999404,134060.79999998212,129851.795,129853.90000000596,129868.461,134068.293,6,300,,,
trial,html.Screen,4_16_0,2023-05-01T17:11:42.625Z,,0,1,,4239.0069999821135,response,ISIC_7870290.JPG,,ISIC_3046905.JPG,ISIC_3046905.JPG,false,0,keypress(z),500,138307.69999998808,138307.29999998212,134051.627,134061.29999998212,134068.293,138318.123,6,300,17,,ISIC_7870290.JPG
break,html.Screen,4_16_1,2023-05-01T17:11:42.626Z,,0,,,NaN,,,,,,false,,,,138309.19999998808,138308.90000000596,,138308.09999999404,,138318.123,6,300,,,
break_continue,html.Screen,4_16_2,2023-05-01T17:11:42.627Z,,0,,,NaN,,,,,,false,,,,138309.79999998212,138309.5,,138309.40000000596,,138318.123,6,300,,,
sequence,flow.Sequence,4_16,2023-05-01T17:11:42.627Z,,0,,,4241.206999999995,completion,,,,,false,,,,138309.90000000596,138309.5,134051.627,134061.29999998212,134068.293,138318.123,6,300,,,
trial,html.Screen,4_17_0,2023-05-01T17:11:46.600Z,,0,1,,3964.0769999880868,response,ISIC_0072010.JPG,,ISIC_8646115.JPG,ISIC_8646115.JPG,false,0,keypress(z),500,142282.59999999404,142282.19999998808,138301.457,138310,138318.123,142285.286,6,300,18,,ISIC_0072010.JPG
break,html.Screen,4_17_1,2023-05-01T17:11:46.601Z,,0,,,NaN,,,,,,false,,,,142284.09999999404,142283.79999998212,,142282.90000000596,,142285.286,6,300,,,
break_continue,html.Screen,4_17_2,2023-05-01T17:11:46.602Z,,0,,,NaN,,,,,,false,,,,142284.59999999404,142284.40000000596,,142284.19999998808,,142285.286,6,300,,,
sequence,flow.Sequence,4_17,2023-05-01T17:11:46.602Z,,0,,,3966.277000005968,completion,,,,,false,,,,142284.69999998808,142284.40000000596,138301.457,138309.90000000596,138318.123,142285.286,6,300,,,
trial,html.Screen,4_18_0,2023-05-01T17:11:50.937Z,,0,1,,4334.114000005968,response,ISIC_0010960.JPG,,ISIC_0003593.JPG,ISIC_0003593.JPG,false,0,keypress(z),500,146619.79999998212,146619.40000000596,142268.62,142284.90000000596,142285.286,146635.112,6,300,19,,ISIC_0010960.JPG
break,html.Screen,4_18_1,2023-05-01T17:11:50.938Z,,0,,,NaN,,,,,,false,,,,146621.29999998212,146621.09999999404,,146620.09999999404,,146635.112,6,300,,,
break_continue,html.Screen,4_18_2,2023-05-01T17:11:50.939Z,,0,,,NaN,,,,,,false,,,,146621.90000000596,146621.69999998808,,146621.5,,146635.112,6,300,,,
sequence,flow.Sequence,4_18,2023-05-01T17:11:50.939Z,,0,,,4336.413999988086,completion,,,,,false,,,,146622,146621.69999998808,142268.62,142284.90000000596,142285.286,146635.112,6,300,,,
trial,html.Screen,4_19_0,2023-05-01T17:11:54.161Z,,0,1,,3208.2880000059668,response,ISIC_0011267.JPG,,ISIC_0071043.JPG,ISIC_0011267.JPG,false,1,keypress(m),500,149843.79999998212,149843.40000000596,146618.446,146622.09999999404,146635.112,149851.65,6,300,20,,ISIC_0071043.JPG
break,html.Screen,4_19_1,2023-05-01T17:11:54.162Z,,0,,,NaN,,,,,,false,,,,149845.40000000596,149845.09999999404,,149844.19999998808,,149851.65,6,300,,,
break_continue,html.Screen,4_19_2,2023-05-01T17:11:54.163Z,,0,,,NaN,,,,,,false,,,,149845.90000000596,149845.69999998808,,149845.5,,149851.65,6,300,,,
sequence,flow.Sequence,4_19,2023-05-01T17:11:54.163Z,,0,,,3210.5879999880854,completion,,,,,false,,,,149846.09999999404,149845.69999998808,146618.446,146622,146635.112,149851.65,6,300,,,
trial,html.Screen,4_20_0,2023-05-01T17:12:00.681Z,,0,1,,6512.350000000006,response,ISIC_9819223.JPG,,ISIC_4652186.JPG,ISIC_9819223.JPG,false,1,keypress(m),500,156364.40000000596,156364,149834.984,149846.19999998808,149851.65,156368.462,6,300,21,,ISIC_4652186.JPG
break,html.Screen,4_20_1,2023-05-01T17:12:00.683Z,,0,,,NaN,,,,,,false,,,,156366,156365.69999998808,,156364.79999998212,,156368.462,6,300,,,
break_continue,html.Screen,4_20_2,2023-05-01T17:12:00.683Z,,0,,,NaN,,,,,,false,,,,156366.29999998212,156366.19999998808,,156366.09999999404,,156368.462,6,300,,,
sequence,flow.Sequence,4_20,2023-05-01T17:12:00.683Z,,0,,,6514.549999988085,completion,,,,,false,,,,156366.40000000596,156366.19999998808,149834.984,149846.19999998808,149851.65,156368.462,6,300,,,
trial,html.Screen,4_21_0,2023-05-01T17:12:04.225Z,,0,1,,3538.938000005961,response,ISIC_0010581.JPG,,ISIC_2635051.JPG,ISIC_0010581.JPG,false,1,keypress(m),500,159907.90000000596,159907.40000000596,156351.796,156366.5,156368.462,159918.32,6,300,22,,ISIC_2635051.JPG
break,html.Screen,4_21_1,2023-05-01T17:12:04.226Z,,0,,,NaN,,,,,,false,,,,159909.40000000596,159909.09999999404,,159908.19999998808,,159918.32,6,300,,,
break_continue,html.Screen,4_21_2,2023-05-01T17:12:04.227Z,,0,,,NaN,,,,,,false,,,,159909.79999998212,159909.59999999404,,159909.40000000596,,159918.32,6,300,,,
sequence,flow.Sequence,4_21,2023-05-01T17:12:04.227Z,,0,,,3541.13799999404,completion,,,,,false,,,,159910,159909.59999999404,156351.796,156366.40000000596,156368.462,159918.32,6,300,,,
trial,html.Screen,4_22_0,2023-05-01T17:12:07.002Z,,0,1,,2766.379999988072,response,ISIC_3273370.JPG,,ISIC_7335659.JPG,ISIC_3273370.JPG,false,1,keypress(m),500,162685.09999999404,162684.69999998808,159901.654,159910.09999999404,159918.32,162701.949,6,300,23,,ISIC_7335659.JPG
break,html.Screen,4_22_1,2023-05-01T17:12:07.003Z,,0,,,NaN,,,,,,false,,,,162686.59999999404,162686.40000000596,,162685.40000000596,,162701.949,6,300,,,
break_continue,html.Screen,4_22_2,2023-05-01T17:12:07.004Z,,0,,,NaN,,,,,,false,,,,162687.09999999404,162687,,162686.79999998212,,162701.949,6,300,,,
sequence,flow.Sequence,4_22,2023-05-01T17:12:07.004Z,,0,,,2768.679999999993,completion,,,,,false,,,,162687.29999998212,162687,159901.654,159910,159918.32,162701.949,6,300,,,
trial,html.Screen,4_23_0,2023-05-01T17:12:11.040Z,,0,1,,4021.3509999821254,response,ISIC_0000469.JPG,,ISIC_0026664.JPG,ISIC_0026664.JPG,false,0,keypress(z),500,166723.69999998808,166723.29999998212,162685.283,162687.5,162701.949,166735.121,6,300,24,,ISIC_0000469.JPG
break,html.Screen,4_23_1,2023-05-01T17:12:11.042Z,,0,,,NaN,,,,,,false,,,,166725.19999998808,166725,,166724,,166735.121,6,300,,,
break_continue,html.Screen,4_23_2,2023-05-01T17:12:11.043Z,,0,,,NaN,,,,,,false,,,,166725.79999998212,166725.79999998212,,166725.5,,166735.121,6,300,,,
sequence,flow.Sequence,4_23,2023-05-01T17:12:11.043Z,,0,,,4023.8509999821254,completion,,,,,false,,,,166725.90000000596,166725.79999998212,162685.283,162687.40000000596,162701.949,166735.121,6,300,,,
trial,html.Screen,4_24_0,2023-05-01T17:12:16.393Z,,0,1,,5340.279000005947,response,ISIC_0375034.JPG,,ISIC_0009894.JPG,ISIC_0375034.JPG,false,1,keypress(m),500,172075.79999998212,172075.40000000596,166718.455,166726,166735.121,172085.263,6,300,25,,ISIC_0009894.JPG
break,html.Screen,4_24_1,2023-05-01T17:12:16.394Z,,0,,,NaN,,,,,,false,,,,172077.40000000596,172077.09999999404,,172076.09999999404,,172085.263,6,300,,,
break_continue,html.Screen,4_24_2,2023-05-01T17:12:16.394Z,,0,,,NaN,,,,,,false,,,,172077.69999998808,172077.59999999404,,172077.40000000596,,172085.263,6,300,,,
sequence,flow.Sequence,4_24,2023-05-01T17:12:16.395Z,,0,,,5342.478999994026,completion,,,,,false,,,,172077.79999998212,172077.59999999404,166718.455,166726,166735.121,172085.263,6,300,,,
trial,html.Screen,4_25_0,2023-05-01T17:12:19.265Z,,0,1,,2862.3369999940332,response,ISIC_0420249.JPG,,ISIC_0772836.JPG,ISIC_0420249.JPG,false,1,keypress(m),500,174948,174947.59999999404,172068.597,172078,172085.263,174951.815,6,300,26,,ISIC_0772836.JPG
break,html.Screen,4_25_1,2023-05-01T17:12:19.266Z,,0,,,NaN,,,,,,false,,,,174949.29999998212,174949.09999999404,,174948.19999998808,,174951.815,6,300,,,
break_continue,html.Screen,4_25_2,2023-05-01T17:12:19.266Z,,0,,,NaN,,,,,,false,,,,174949.69999998808,174949.59999999404,,174949.40000000596,,174951.815,6,300,,,
sequence,flow.Sequence,4_25,2023-05-01T17:12:19.267Z,,0,,,2864.3369999940332,completion,,,,,false,,,,174949.79999998212,174949.59999999404,172068.597,172077.90000000596,172085.263,174951.815,6,300,,,
trial,html.Screen,4_26_0,2023-05-01T17:12:23.024Z,,0,1,,3755.3849999880767,response,ISIC_3613392.JPG,,ISIC_7387061.JPG,ISIC_7387061.JPG,false,0,keypress(z),500,178707.69999998808,178707.19999998808,174935.149,174949.90000000596,174951.815,178718.331,6,300,27,,ISIC_3613392.JPG
break,html.Screen,4_26_1,2023-05-01T17:12:23.026Z,,0,,,NaN,,,,,,false,,,,178709.40000000596,178709.09999999404,,178708,,178718.331,6,300,,,
break_continue,html.Screen,4_26_2,2023-05-01T17:12:23.027Z,,0,,,NaN,,,,,,false,,,,178709.79999998212,178709.69999998808,,178709.5,,178718.331,6,300,,,
sequence,flow.Sequence,4_26,2023-05-01T17:12:23.027Z,,0,,,3757.8849999880767,completion,,,,,false,,,,178710,178709.69999998808,174935.149,174949.90000000596,174951.815,178718.331,6,300,,,
trial,html.Screen,4_27_0,2023-05-01T17:12:26.832Z,,0,1,,3796.6689999999944,response,ISIC_9605122.JPG,,ISIC_7670817.JPG,ISIC_9605122.JPG,false,1,keypress(m),500,182515.59999999404,182515,178701.665,178710.19999998808,178718.331,182518.664,6,300,28,,ISIC_7670817.JPG
break,html.Screen,4_27_1,2023-05-01T17:12:26.834Z,,0,,,NaN,,,,,,false,,,,182517.40000000596,182517,,182516,,182518.664,6,300,,,
break_continue,html.Screen,4_27_2,2023-05-01T17:12:26.835Z,,0,,,NaN,,,,,,false,,,,182517.90000000596,182517.69999998808,,182517.59999999404,,182518.664,6,300,,,
sequence,flow.Sequence,4_27,2023-05-01T17:12:26.835Z,,0,,,3799.3689999880735,completion,,,,,false,,,,182518.09999999404,182517.69999998808,178701.665,178710.09999999404,178718.331,182518.664,6,300,,,
trial,html.Screen,4_28_0,2023-05-01T17:12:32.762Z,,0,1,,5926.33600000001,response,ISIC_0010225.JPG,,ISIC_0011086.JPG,ISIC_0011086.JPG,false,0,keypress(z),500,188445.40000000596,188445,182501.998,182518.29999998212,182518.664,188451.76,6,300,29,,ISIC_0010225.JPG
break,html.Screen,4_28_1,2023-05-01T17:12:32.763Z,,0,,,NaN,,,,,,false,,,,188446.79999998212,188446.59999999404,,188445.69999998808,,188451.76,6,300,,,
break_continue,html.Screen,4_28_2,2023-05-01T17:12:32.764Z,,0,,,NaN,,,,,,false,,,,188447.29999998212,188447.19999998808,,188447,,188451.76,6,300,,,
sequence,flow.Sequence,4_28,2023-05-01T17:12:32.764Z,,0,,,5928.535999988089,completion,,,,,false,,,,188447.5,188447.19999998808,182501.998,182518.19999998808,182518.664,188451.76,6,300,,,
trial,html.Screen,4_29_0,2023-05-01T17:12:36.704Z,,0,1,,3935.140000005951,response,ISIC_0010759.JPG,,ISIC_8101493.JPG,ISIC_8101493.JPG,false,0,keypress(z),500,192387.40000000596,192386.90000000596,188435.094,188447.69999998808,188451.76,192401.602,6,300,30,,ISIC_0010759.JPG
break,html.Screen,4_29_1,2023-05-01T17:12:36.705Z,,0,,,NaN,,,,,,false,,,,192388.90000000596,192388.59999999404,,192387.59999999404,,192401.602,6,300,,,
break_continue,html.Screen,4_29_2,2023-05-01T17:12:36.706Z,,0,,,NaN,,,,,,false,,,,192389.29999998212,192389.19999998808,,192389,,192401.602,6,300,,,
sequence,flow.Sequence,4_29,2023-05-01T17:12:36.706Z,,0,,,3937.4399999880698,completion,,,,,false,,,,192389.5,192389.19999998808,188435.094,188447.59999999404,188451.76,192401.602,6,300,,,
trial,html.Screen,4_30_0,2023-05-01T17:12:40.234Z,,0,1,,3515.798000005947,response,ISIC_0010503.JPG,,ISIC_4069836.JPG,ISIC_0010503.JPG,false,1,keypress(m),500,195917.69999998808,195917.40000000596,192384.936,192389.69999998808,192401.602,195918.6,6,300,31,,ISIC_4069836.JPG
break,html.Screen,4_30_1,2023-05-01T17:12:40.235Z,,0,,,NaN,,,,,,false,,,,195918.90000000596,195918.69999998808,,195917.90000000596,,195918.6,6,300,,,
break_continue,html.Screen,4_30_2,2023-05-01T17:12:40.236Z,,0,,,NaN,,,,,,false,,,,195919.19999998808,195919.19999998808,,195919,,195918.6,6,300,,,
sequence,flow.Sequence,4_30,2023-05-01T17:12:40.236Z,,0,,,3517.5979999880656,completion,,,,,false,,,,195919.29999998212,195919.19999998808,192384.936,192389.59999999404,192401.602,195918.6,6,300,,,
trial,html.Screen,4_31_0,2023-05-01T17:12:43.216Z,,0,1,,2980.199999982113,response,ISIC_6990973.JPG,,ISIC_5281762.JPG,ISIC_6990973.JPG,false,1,keypress(m),500,198899.19999998808,198898.79999998212,195901.934,195919.40000000596,195918.6,198901.814,6,300,32,,ISIC_5281762.JPG
break,html.Screen,4_31_1,2023-05-01T17:12:43.217Z,,0,,,NaN,,,,,,false,,,,198900.69999998808,198900.40000000596,,198899.5,,198901.814,6,300,,,
break_continue,html.Screen,4_31_2,2023-05-01T17:12:43.218Z,,0,,,NaN,,,,,,false,,,,198901.19999998808,198901.09999999404,,198900.90000000596,,198901.814,6,300,,,
sequence,flow.Sequence,4_31,2023-05-01T17:12:43.218Z,,0,,,2982.4999999940337,completion,,,,,false,,,,198901.5,198901.09999999404,195901.934,195919.40000000596,195918.6,198901.814,6,300,,,
trial,html.Screen,4_32_0,2023-05-01T17:12:46.587Z,,0,1,,3367.7859999940265,response,ISIC_1285870.JPG,,ISIC_0031278.JPG,ISIC_0031278.JPG,false,0,keypress(z),500,202270.09999999404,202269.59999999404,198885.148,198901.59999999404,198901.814,202285.012,6,300,33,,ISIC_1285870.JPG
break,html.Screen,4_32_1,2023-05-01T17:12:46.588Z,,0,,,NaN,,,,,,false,,,,202271.5,202271.29999998212,,202270.29999998212,,202285.012,6,300,,,
break_continue,html.Screen,4_32_2,2023-05-01T17:12:46.588Z,,0,,,NaN,,,,,,false,,,,202271.79999998212,202271.69999998808,,202271.59999999404,,202285.012,6,300,,,
sequence,flow.Sequence,4_32,2023-05-01T17:12:46.588Z,,0,,,3369.885999988066,completion,,,,,false,,,,202271.90000000596,202271.69999998808,198885.148,198901.5,198901.814,202285.012,6,300,,,
trial,html.Screen,4_33_0,2023-05-01T17:12:50.408Z,,0,1,,3806.2879999821307,response,ISIC_0030193.JPG,,ISIC_2096695.JPG,ISIC_2096695.JPG,false,0,keypress(z),500,206091.69999998808,206091.29999998212,202268.346,202272.09999999404,202285.012,206101.947,6,300,34,,ISIC_0030193.JPG
break,html.Screen,4_33_1,2023-05-01T17:12:50.410Z,,0,,,NaN,,,,,,false,,,,206093.29999998212,206093,,206092.09999999404,,206101.947,6,300,,,
break_continue,html.Screen,4_33_2,2023-05-01T17:12:50.410Z,,0,,,NaN,,,,,,false,,,,206093.69999998808,206093.59999999404,,206093.40000000596,,206101.947,6,300,,,
sequence,flow.Sequence,4_33,2023-05-01T17:12:50.410Z,,0,,,3808.5879999940516,completion,,,,,false,,,,206093.69999998808,206093.59999999404,202268.346,202272,202285.012,206101.947,6,300,,,
trial,html.Screen,4_34_0,2023-05-01T17:12:54.720Z,,0,1,,4301.352999982133,response,ISIC_3800541.JPG,,ISIC_2203247.JPG,ISIC_3800541.JPG,false,1,keypress(m),500,210403.79999998212,210403.29999998212,206085.281,206093.79999998212,206101.947,210418.441,6,300,35,,ISIC_2203247.JPG
break,html.Screen,4_34_1,2023-05-01T17:12:54.722Z,,0,,,NaN,,,,,,false,,,,210405.29999998212,210405,,210404.09999999404,,210418.441,6,300,,,
break_continue,html.Screen,4_34_2,2023-05-01T17:12:54.722Z,,0,,,NaN,,,,,,false,,,,210405.69999998808,210405.59999999404,,210405.40000000596,,210418.441,6,300,,,
sequence,flow.Sequence,4_34,2023-05-01T17:12:54.722Z,,0,,,4303.652999994054,completion,,,,,false,,,,210405.90000000596,210405.59999999404,206085.281,206093.79999998212,206101.947,210418.441,6,300,,,
trial,html.Screen,4_35_0,2023-05-01T17:13:03.600Z,,0,1,,8864.858999982127,response,ISIC_0894785.JPG,,ISIC_0028489.JPG,ISIC_0028489.JPG,false,0,keypress(z),500,219283.79999998212,219283.29999998212,210401.775,210406.09999999404,210418.441,219285.345,6,300,36,,ISIC_0894785.JPG
break,html.Screen,4_35_1,2023-05-01T17:13:03.602Z,,0,,,NaN,,,,,,false,,,,219285.19999998808,219285,,219284,,219285.345,6,300,,,
break_continue,html.Screen,4_35_2,2023-05-01T17:13:03.602Z,,0,,,NaN,,,,,,false,,,,219285.79999998212,219285.69999998808,,219285.40000000596,,219285.345,6,300,,,
sequence,flow.Sequence,4_35,2023-05-01T17:13:03.602Z,,0,,,8867.258999988087,completion,,,,,false,,,,219285.90000000596,219285.69999998808,210401.775,210406,210418.441,219285.345,6,300,,,
trial,html.Screen,4_36_0,2023-05-01T17:13:13.590Z,,0,1,,10016.579999999987,timeout,ISIC_0033091.JPG,,ISIC_0028325.JPG,,false,,,500,229273.29999998212,229272.79999998212,219268.679,219286,219285.345,229301.925,6,300,37,,
break,html.Screen,4_36_1,2023-05-01T17:13:13.591Z,,0,,,NaN,,,,,,false,,,,229274.79999998212,229274.40000000596,,229273.5,,229301.925,6,300,,,
break_continue,html.Screen,4_36_2,2023-05-01T17:13:13.592Z,,0,,,NaN,,,,,,false,,,,229275.5,229275.19999998808,,229275,,229301.925,6,300,,,
sequence,flow.Sequence,4_36,2023-05-01T17:13:13.592Z,,0,,,9989.854999988078,completion,,,,,false,,,,229275.69999998808,229275.19999998808,219268.679,219286,219285.345,229301.925,6,300,,,
trial,html.Screen,4_37_0,2023-05-01T17:13:23.605Z,,0,1,,10016.266000000003,timeout,ISIC_0231745.JPG,,ISIC_0485529.JPG,,false,,,500,239289.19999998808,239288.69999998808,229284.945,229275.79999998212,229301.925,239318.191,6,300,38,,
break,html.Screen,4_37_1,2023-05-01T17:13:23.607Z,,0,,,NaN,,,,,,false,,,,239290.69999998808,239290.40000000596,,239289.40000000596,,239318.191,6,300,,,
break_continue,html.Screen,4_37_2,2023-05-01T17:13:23.607Z,,0,,,NaN,,,,,,false,,,,239291,239290.90000000596,,239290.79999998212,,239318.191,6,300,,,
sequence,flow.Sequence,4_37,2023-05-01T17:13:23.607Z,,0,,,9988.975000005972,completion,,,,,false,,,,239291.09999999404,239290.90000000596,229284.945,229275.79999998212,229301.925,239318.191,6,300,,,
trial,html.Screen,4_38_0,2023-05-01T17:13:33.622Z,,0,1,,10016.76000000001,timeout,ISIC_0032996.JPG,,ISIC_3664380.JPG,,false,,,500,249305.79999998212,249305.40000000596,239301.525,239291.19999998808,239318.191,249334.951,6,300,39,,
break,html.Screen,4_38_1,2023-05-01T17:13:33.623Z,,0,,,NaN,,,,,,false,,,,249306.69999998808,249306.5,,249305.90000000596,,249334.951,6,300,,,
break_continue,html.Screen,4_38_2,2023-05-01T17:13:33.623Z,,0,,,NaN,,,,,,false,,,,249307,249306.90000000596,,249306.79999998212,,249334.951,6,300,,,
sequence,flow.Sequence,4_38,2023-05-01T17:13:33.623Z,,0,,,9988.709000005969,completion,,,,,false,,,,249307,249306.90000000596,239301.525,239291.09999999404,239318.191,249334.951,6,300,,,
trial,html.Screen,4_39_0,2023-05-01T17:13:43.639Z,,0,1,,10016.266000000003,timeout,ISIC_0030969.JPG,,ISIC_3826102.JPG,,false,,,500,259323.29999998212,259322.69999998808,249318.285,249307.09999999404,249334.951,259351.217,6,300,40,,
break,html.Screen,4_39_1,2023-05-01T17:13:43.641Z,,0,,,NaN,,,,,,false,,,,259324.79999998212,259324.40000000596,,259323.40000000596,,259351.217,6,300,,,
break_continue,html.Screen,4_39_2,2023-05-01T17:13:43.641Z,,0,,,NaN,,,,,,false,,,,259325.09999999404,259325,,259324.79999998212,,259351.217,6,300,,,
sequence,flow.Sequence,4_39,2023-05-01T17:13:43.641Z,,0,,,9990.048999999999,completion,,,,,false,,,,259325.29999998212,259325,249318.285,249307,249334.951,259351.217,6,300,,,
trial,html.Screen,4_40_0,2023-05-01T17:13:53.655Z,,0,1,,10016.825000000012,timeout,ISIC_0064080.JPG,,ISIC_2424673.JPG,,false,,,500,269339.2999999821,269338.7999999821,259334.551,259325.5,259351.217,269368.042,6,300,41,,
break,html.Screen,4_40_1,2023-05-01T17:13:53.657Z,,0,,,NaN,,,,,,false,,,,269340.7999999821,269340.5,,269339.5,,269368.042,6,300,,,
break_continue,html.Screen,4_40_2,2023-05-01T17:13:53.657Z,,0,,,NaN,,,,,,false,,,,269341.1999999881,269341.09999999404,,269340.90000000596,,269368.042,6,300,,,
sequence,flow.Sequence,4_40,2023-05-01T17:13:53.657Z,,0,,,9989.882999994035,completion,,,,,false,,,,269341.40000000596,269341.09999999404,259334.551,259325.40000000596,259351.217,269368.042,6,300,,,
trial,html.Screen,4_41_0,2023-05-01T17:14:03.669Z,,0,1,,10017.321999999986,timeout,ISIC_5520533.JPG,,ISIC_7462746.JPG,,false,,,500,279353.40000000596,279352.90000000596,269351.376,269341.5,269368.042,279385.364,6,300,42,,
break,html.Screen,4_41_1,2023-05-01T17:14:03.671Z,,0,,,NaN,,,,,,false,,,,279354.7999999821,279354.59999999404,,279353.59999999404,,279385.364,6,300,,,
break_continue,html.Screen,4_41_2,2023-05-01T17:14:03.671Z,,0,,,NaN,,,,,,false,,,,279355.1999999881,279355.09999999404,,279355,,279385.364,6,300,,,
sequence,flow.Sequence,4_41,2023-05-01T17:14:03.671Z,,0,,,9987.057999994024,completion,,,,,false,,,,279355.2999999821,279355.09999999404,269351.376,269341.5,269368.042,279385.364,6,300,,,
trial,html.Screen,4_42_0,2023-05-01T17:14:13.689Z,,0,1,,10016.266000000003,timeout,ISIC_9214649.JPG,,ISIC_0034268.JPG,,false,,,500,289373.1999999881,289372.7999999821,279367.642,279355.2999999821,279385.364,289401.63,6,300,43,,
break,html.Screen,4_42_1,2023-05-01T17:14:13.690Z,,0,,,NaN,,,,,,false,,,,289374.6999999881,289374.2999999821,,289373.40000000596,,289401.63,6,300,,,
break_continue,html.Screen,4_42_2,2023-05-01T17:14:13.691Z,,0,,,NaN,,,,,,false,,,,289375,289374.90000000596,,289374.6999999881,,289401.63,6,300,,,
sequence,flow.Sequence,4_42,2023-05-01T17:14:13.691Z,,0,,,9989.536000005959,completion,,,,,false,,,,289375.1999999881,289374.90000000596,279367.642,279355.2999999821,279385.364,289401.63,6,300,,,
trial,html.Screen,4_43_0,2023-05-01T17:14:22.184Z,,0,1,,8466.069999988074,response,ISIC_7521698.JPG,,ISIC_0026531.JPG,ISIC_0026531.JPG,false,0,keypress(z),500,297868.1999999881,297867.6999999881,289384.964,289375.2999999821,289401.63,297884.938,6,300,44,,ISIC_7521698.JPG
break,html.Screen,4_43_1,2023-05-01T17:14:22.185Z,,0,,,NaN,,,,,,false,,,,297869.6999999881,297869.40000000596,,297868.59999999404,,297884.938,6,300,,,
break_continue,html.Screen,4_43_2,2023-05-01T17:14:22.186Z,,0,,,NaN,,,,,,false,,,,297870.1999999881,297870,,297869.90000000596,,297884.938,6,300,,,
sequence,flow.Sequence,4_43,2023-05-01T17:14:22.186Z,,0,,,8468.369999999995,completion,,,,,false,,,,297870.40000000596,297870,289384.964,289375.2999999821,289401.63,297884.938,6,300,,,
trial,html.Screen,4_44_0,2023-05-01T17:14:25.680Z,,0,1,,3478.361999982095,response,ISIC_8195528.JPG,,ISIC_0031246.JPG,ISIC_0031246.JPG,false,0,keypress(z),500,301363.7999999821,301363.2999999821,297868.272,297870.59999999404,297884.938,301368.724,6,300,45,,ISIC_8195528.JPG
break,html.Screen,4_44_1,2023-05-01T17:14:25.681Z,,0,,,NaN,,,,,,false,,,,301365.40000000596,301365,,301364.09999999404,,301368.724,6,300,,,
break_continue,html.Screen,4_44_2,2023-05-01T17:14:25.682Z,,0,,,NaN,,,,,,false,,,,301365.90000000596,301365.6999999881,,301365.5,,301368.724,6,300,,,
sequence,flow.Sequence,4_44,2023-05-01T17:14:25.682Z,,0,,,3480.7619999880553,completion,,,,,false,,,,301366,301365.6999999881,297868.272,297870.59999999404,297884.938,301368.724,6,300,,,
trial,html.Screen,4_45_0,2023-05-01T17:14:28.927Z,,0,1,,3242.575999982131,response,ISIC_4984668.JPG,,ISIC_0961235.JPG,ISIC_4984668.JPG,false,1,keypress(m),500,304611.7999999821,304611.2999999821,301352.058,301366.09999999404,301368.724,304618.594,6,300,46,,ISIC_0961235.JPG
break,html.Screen,4_45_1,2023-05-01T17:14:28.929Z,,0,,,NaN,,,,,,false,,,,304613.40000000596,304613,,304612.09999999404,,304618.594,6,300,,,
break_continue,html.Screen,4_45_2,2023-05-01T17:14:28.930Z,,0,,,NaN,,,,,,false,,,,304613.7999999821,304613.6999999881,,304613.59999999404,,304618.594,6,300,,,
sequence,flow.Sequence,4_45,2023-05-01T17:14:28.930Z,,0,,,3244.9759999880916,completion,,,,,false,,,,304614.09999999404,304613.6999999881,301352.058,301366.09999999404,301368.724,304618.594,6,300,,,
trial,html.Screen,4_46_0,2023-05-01T17:14:32.216Z,,0,1,,3280.8060000059777,response,ISIC_2092911.JPG,,ISIC_7223327.JPG,ISIC_7223327.JPG,false,0,keypress(z),500,307900,307899.40000000596,304601.928,304614.1999999881,304618.594,307901.796,6,300,47,,ISIC_2092911.JPG
break,html.Screen,4_46_1,2023-05-01T17:14:32.217Z,,0,,,NaN,,,,,,false,,,,307901.59999999404,307901.2999999821,,307900.1999999881,,307901.796,6,300,,,
break_continue,html.Screen,4_46_2,2023-05-01T17:14:32.218Z,,0,,,NaN,,,,,,false,,,,307902,307901.90000000596,,307901.7999999821,,307901.796,6,300,,,
sequence,flow.Sequence,4_46,2023-05-01T17:14:32.218Z,,0,,,3283.3060000059777,completion,,,,,false,,,,307902,307901.90000000596,304601.928,304614.1999999881,304618.594,307901.796,6,300,,,
trial,html.Screen,4_47_0,2023-05-01T17:14:35.239Z,,0,1,,3021.5039999821456,response,ISIC_0024441.JPG,,ISIC_7441957.JPG,ISIC_0024441.JPG,false,1,keypress(m),500,310923.7999999821,310923.2999999821,307885.13,307902.1999999881,307901.796,310935.008,6,300,48,,ISIC_7441957.JPG
break,html.Screen,4_47_1,2023-05-01T17:14:35.241Z,,0,,,NaN,,,,,,false,,,,310925.40000000596,310925,,310924.09999999404,,310935.008,6,300,,,
break_continue,html.Screen,4_47_2,2023-05-01T17:14:35.242Z,,0,,,NaN,,,,,,false,,,,310925.7999999821,310925.6999999881,,310925.5,,310935.008,6,300,,,
sequence,flow.Sequence,4_47,2023-05-01T17:14:35.242Z,,0,,,3023.903999988106,completion,,,,,false,,,,310926,310925.6999999881,307885.13,307902.09999999404,307901.796,310935.008,6,300,,,
trial,html.Screen,4_48_0,2023-05-01T17:14:45.238Z,,0,1,,10016.713000000047,timeout,ISIC_0315631.JPG,,ISIC_0030952.JPG,,false,,,500,320922.6999999881,320922.2999999821,310918.342,310926.09999999404,310935.008,320951.721,6,300,49,,
break,html.Screen,4_48_1,2023-05-01T17:14:45.240Z,,0,,,NaN,,,,,,false,,,,320924.1999999881,320923.90000000596,,320923,,320951.721,6,300,,,
break_continue,html.Screen,4_48_2,2023-05-01T17:14:45.240Z,,0,,,NaN,,,,,,false,,,,320924.5,320924.40000000596,,320924.40000000596,,320951.721,6,300,,,
sequence,flow.Sequence,4_48,2023-05-01T17:14:45.240Z,,0,,,9989.392000005988,completion,,,,,false,,,,320924.6999999881,320924.40000000596,310918.342,310926,310935.008,320951.721,6,300,,,