sender,sender_type,sender_id,timestamp,meta,,blockNo,condition,duration,ended_on,img_left,img_reveal,img_right,loser,practice,response,response_action,selection_duration,time_commit,time_end,time_render,time_run,time_show,time_switch,total_blocks,total_trials,trialNo,url,winner
informed_consent,html.Screen,0,2023-09-12T20:11:12.225Z,"{""labjs_version"":""20.2.4"",""labjs_build"":{""flavor"":""production"",""commit"":""f5b4a49f956347addd546a832a3327688c2c0fef""},""location"":""https://run.pavlovia.org/MurrayBennett/melanoma-2afc/?participant=66197&platform=sona"",""userAgent"":""Mozilla/5.0 (Windows NT 10.0; Win64; x64) AppleWebKit/537.36 (KHTML, like Gecko) Chrome/116.0.0.0 Safari/537.36"",""platform"":""Win32"",""language"":""en-US"",""locale"":""en-US"",""timeZone"":""America/Chicago"",""timezoneOffset"":300,""screen_width"":1366,""screen_height"":768,""scroll_width"":1366,""scroll_height"":595,""window_innerWidth"":1366,""window_innerHeight"":643,""devicePixelRatio"":1}",,,,277507.9140000004,response,,,,,,consent,click button,,282123.5,282113.9000000004,4589.299,4590.200000001118,4605.986,282176.161,,,,"{""participant"":""66197"",""platform"":""sona""}",
Welcome,html.Screen,1,2023-09-12T20:12:19.196Z,,,,asymmetry,66915.73900000035,response,,,,,,continue,click button,,349094.2000000011,349091.9000000004,282109.807,282124.9000000004,282176.161,349106.411,,,,,
trial,html.Screen,2_0_0,2023-09-12T20:12:23.894Z,,0,0,,4684.889000000723,response,ISIC_6997061.JPG,,ISIC_0069348.JPG,ISIC_6997061.JPG,true,1,keypress(m),500,353792.1000000015,353791.30000000075,349089.833,349095,349106.411,353806.159,1,6,1,,ISIC_0069348.JPG
sequence,flow.Sequence,2_0,2023-09-12T20:12:23.895Z,,0,,,4684.889000000723,completion,,,,,true,,,,353793.2000000011,353791.30000000075,349089.833,349094.9000000004,349106.411,353806.159,1,6,,,
trial,html.Screen,2_1_0,2023-09-12T20:12:28.623Z,,0,0,,4714.741000000387,response,ISIC_0009529.JPG,,ISIC_0057368.JPG,ISIC_0009529.JPG,true,1,keypress(m),500,358521.5,358520.9000000004,353789.789,353793.6000000015,353806.159,358539.277,1,6,2,,ISIC_0057368.JPG
sequence,flow.Sequence,2_1,2023-09-12T20:12:28.624Z,,0,,,4714.741000000387,completion,,,,,true,,,,358522.30000000075,358520.9000000004,353789.789,353793.5,353806.159,358539.277,1,6,,,
trial,html.Screen,2_2_0,2023-09-12T20:12:34.676Z,,0,0,,6034.523000000743,response,ISIC_9758671.JPG,,ISIC_0064954.JPG,ISIC_0064954.JPG,true,0,keypress(z),500,364574.4000000004,364573.80000000075,358522.69,358523,358539.277,364588.986,1,6,3,,ISIC_9758671.JPG
sequence,flow.Sequence,2_2,2023-09-12T20:12:34.677Z,,0,,,6034.523000000743,completion,,,,,true,,,,364575.1000000015,364573.80000000075,358522.69,358522.6000000015,358539.277,364588.986,1,6,,,
trial,html.Screen,2_3_0,2023-09-12T20:12:41.240Z,,0,0,,6548.914000000397,response,ISIC_0005785.JPG,,ISIC_0000080.JPG,ISIC_0000080.JPG,true,0,keypress(z),500,371138.6000000015,371137.9000000004,364572.596,364575.7000000011,364588.986,371155.347,1,6,4,,ISIC_0005785.JPG
sequence,flow.Sequence,2_3,2023-09-12T20:12:41.241Z,,0,,,6548.914000000397,completion,,,,,true,,,,371139.80000000075,371137.9000000004,364572.596,364575.5,364588.986,371155.347,1,6,,,
trial,html.Screen,2_4_0,2023-09-12T20:12:47.694Z,,0,0,,6435.853000001109,response,ISIC_5390060.JPG,,ISIC_7944028.JPG,ISIC_7944028.JPG,true,0,keypress(z),500,377592,377591.2000000011,371139.235,371140.4000000004,371155.347,377605.038,1,6,5,,ISIC_5390060.JPG
sequence,flow.Sequence,2_4,2023-09-12T20:12:47.695Z,,0,,,6435.853000001109,completion,,,,,true,,,,377592.80000000075,377591.2000000011,371139.235,371140.2000000011,371155.347,377605.038,1,6,,,
trial,html.Screen,2_5_0,2023-09-12T20:12:52.210Z,,0,0,,4502.9619999999995,response,ISIC_0010188.JPG,,ISIC_0794216.JPG,ISIC_0794216.JPG,true,0,keypress(z),500,382108.7000000011,382108,377588.672,377593.5,377605.038,382121.483,1,6,6,,ISIC_0010188.JPG
sequence,flow.Sequence,2_5,2023-09-12T20:12:52.211Z,,0,,,4502.9619999999995,completion,,,,,true,,,,382109.6000000015,382108,377588.672,377593.2000000011,377605.038,382121.483,1,6,,,
loop,flow.Loop,2,2023-09-12T20:12:52.212Z,,,,,33001.58899999998,completion,,,,,true,,,,382110.4000000004,382108,349089.833,349094.80000000075,349106.411,382121.483,1,6,,,
exp_instructions,html.Screen,3,2023-09-12T20:13:35.410Z,,,,,43186.01699999999,response,,,,,,continue,keypress(Space),,425309,425307.5,382104.613,382110.7000000011,382121.483,425319.472,,,,,
trial,html.Screen,4_0_0,2023-09-12T20:13:40.900Z,,0,1,,5479.228000001109,response,ISIC_5662381.JPG,5,ISIC_0010278.JPG,ISIC_5662381.JPG,false,1,keypress(m),500,430799.2000000011,430798.7000000011,425303.896,425309.80000000075,425319.472,430802.535,8,400,1,,ISIC_0010278.JPG
break,html.Screen,4_0_1,2023-09-12T20:13:40.903Z,,0,,,NaN,,,,,,false,,,,430801.5,430800.9000000004,,430799.6000000015,,430802.535,8,400,,,
break_continue,html.Screen,4_0_2,2023-09-12T20:13:40.904Z,,0,,,NaN,,,,,,false,,,,430803,430802.30000000075,,430801.9000000004,,430802.535,8,400,,,
sequence,flow.Sequence,4_0,2023-09-12T20:13:40.905Z,,0,,,5482.828000000736,completion,,,,,false,,,,430803.7000000011,430802.30000000075,425303.896,425309.6000000015,425319.472,430802.535,8,400,,,
trial,html.Screen,4_1_0,2023-09-12T20:13:47.102Z,,0,1,,6197.565000001516,response,ISIC_8138363.JPG,6,ISIC_6383486.JPG,ISIC_6383486.JPG,false,0,keypress(z),500,437000.7000000011,437000.1000000015,430785.862,430804.2000000011,430802.535,437020.207,8,400,2,,ISIC_8138363.JPG
break,html.Screen,4_1_1,2023-09-12T20:13:47.104Z,,0,,,NaN,,,,,,false,,,,437002.7000000011,437001.9000000004,,437001.2000000011,,437020.207,8,400,,,
break_continue,html.Screen,4_1_2,2023-09-12T20:13:47.105Z,,0,,,NaN,,,,,,false,,,,437003.80000000075,437003.30000000075,,437003,,437020.207,8,400,,,
sequence,flow.Sequence,4_1,2023-09-12T20:13:47.105Z,,0,,,6200.765000000771,completion,,,,,false,,,,437004.2000000011,437003.30000000075,430785.862,430804,430802.535,437020.207,8,400,,,
trial,html.Screen,4_2_0,2023-09-12T20:13:51.429Z,,0,1,,4306.793000000005,response,ISIC_7141153.JPG,5,ISIC_0064589.JPG,ISIC_7141153.JPG,false,1,keypress(m),500,441327.4000000004,441327,436985.56,437004.6000000015,437020.207,441335.376,8,400,3,,ISIC_0064589.JPG
break,html.Screen,4_2_1,2023-09-12T20:13:51.430Z,,0,,,NaN,,,,,,false,,,,441329.2000000011,441328.7000000011,,441328.1000000015,,441335.376,8,400,,,
break_continue,html.Screen,4_2_2,2023-09-12T20:13:51.431Z,,0,,,NaN,,,,,,false,,,,441330.1000000015,441329.80000000075,,441329.6000000015,,441335.376,8,400,,,
sequence,flow.Sequence,4_2,2023-09-12T20:13:51.432Z,,0,,,4309.59300000075,completion,,,,,false,,,,441330.7000000011,441329.80000000075,436985.56,437004.4000000004,437020.207,441335.376,8,400,,,
trial,html.Screen,4_3_0,2023-09-12T20:13:57.169Z,,0,1,,5731.724000001501,response,ISIC_0014695.JPG,5,ISIC_1460932.JPG,ISIC_1460932.JPG,false,0,keypress(z),500,447068.30000000075,447067.1000000015,441318.432,441331.1000000015,441335.376,447085.1,8,400,4,,ISIC_0014695.JPG
break,html.Screen,4_3_1,2023-09-12T20:13:57.172Z,,0,,,NaN,,,,,,false,,,,447070.6000000015,447069.9000000004,,447069.2000000011,,447085.1,8,400,,,
break_continue,html.Screen,4_3_2,2023-09-12T20:13:57.173Z,,0,,,NaN,,,,,,false,,,,447071.6000000015,447071.30000000075,,447071,,447085.1,8,400,,,
sequence,flow.Sequence,4_3,2023-09-12T20:13:57.173Z,,0,,,5735.924000000756,completion,,,,,false,,,,447072.1000000015,447071.30000000075,441318.432,441330.9000000004,441335.376,447085.1,8,400,,,
trial,html.Screen,4_4_0,2023-09-12T20:14:03.033Z,,0,1,,5846.500000001513,response,ISIC_1142933.JPG,6,ISIC_0055931.JPG,ISIC_1142933.JPG,false,1,keypress(m),500,452932.1000000015,452931.6000000015,447068.691,447072.6000000015,447085.1,452934.821,8,400,5,,ISIC_0055931.JPG
break,html.Screen,4_4_1,2023-09-12T20:14:03.035Z,,0,,,NaN,,,,,,false,,,,452934,452933.4000000004,,452932.6000000015,,452934.821,8,400,,,
break_continue,html.Screen,4_4_2,2023-09-12T20:14:03.036Z,,0,,,NaN,,,,,,false,,,,452934.9000000004,452934.6000000015,,452934.30000000075,,452934.821,8,400,,,
sequence,flow.Sequence,4_4,2023-09-12T20:14:03.037Z,,0,,,5849.500000001513,completion,,,,,false,,,,452935.7000000011,452934.6000000015,447068.691,447072.4000000004,447085.1,452934.821,8,400,,,
trial,html.Screen,4_5_0,2023-09-12T20:14:09.907Z,,0,1,,6870.379000001121,response,ISIC_0056186.JPG,5,ISIC_6533176.JPG,ISIC_0056186.JPG,false,1,keypress(m),500,459805.6000000015,459805.2000000011,452918.263,452938,452934.821,459817.857,8,400,6,,ISIC_6533176.JPG
break,html.Screen,4_5_1,2023-09-12T20:14:09.909Z,,0,,,NaN,,,,,,false,,,,459807.5,459806.9000000004,,459806.2000000011,,459817.857,8,400,,,
break_continue,html.Screen,4_5_2,2023-09-12T20:14:09.910Z,,0,,,NaN,,,,,,false,,,,459808.5,459808.2000000011,,459807.9000000004,,459817.857,8,400,,,
sequence,flow.Sequence,4_5,2023-09-12T20:14:09.910Z,,0,,,6873.379000001121,completion,,,,,false,,,,459809,459808.2000000011,452918.263,452937.9000000004,452934.821,459817.857,8,400,,,
trial,html.Screen,4_6_0,2023-09-12T20:14:15.673Z,,0,1,,5753.943000000727,response,ISIC_0014108.JPG,5,ISIC_0057481.JPG,ISIC_0057481.JPG,false,0,keypress(z),500,465572.30000000075,465571.80000000075,459801.093,459809.4000000004,459817.857,465584.231,8,400,7,,ISIC_0014108.JPG
break,html.Screen,4_6_1,2023-09-12T20:14:15.675Z,,0,,,NaN,,,,,,false,,,,465574.30000000075,465573.9000000004,,465572.7000000011,,465584.231,8,400,,,
break_continue,html.Screen,4_6_2,2023-09-12T20:14:15.676Z,,0,,,NaN,,,,,,false,,,,465575.2000000011,465574.9000000004,,465574.6000000015,,465584.231,8,400,,,
sequence,flow.Sequence,4_6,2023-09-12T20:14:15.677Z,,0,,,5757.043000000354,completion,,,,,false,,,,465575.7000000011,465574.9000000004,459801.093,459809.30000000075,459817.857,465584.231,8,400,,,
trial,html.Screen,4_7_0,2023-09-12T20:14:21.062Z,,0,1,,5375.369000001461,response,ISIC_0011471.JPG,4,ISIC_0013136.JPG,ISIC_0013136.JPG,false,0,keypress(z),500,470960.2000000011,470959.6000000015,465567.493,465576.1000000015,465584.231,470967.329,8,400,8,,ISIC_0011471.JPG
break,html.Screen,4_7_1,2023-09-12T20:14:21.063Z,,0,,,NaN,,,,,,false,,,,470962,470961.4000000004,,470960.6000000015,,470967.329,8,400,,,
break_continue,html.Screen,4_7_2,2023-09-12T20:14:21.064Z,,0,,,NaN,,,,,,false,,,,470962.80000000075,470962.6000000015,,470962.2000000011,,470967.329,8,400,,,
sequence,flow.Sequence,4_7,2023-09-12T20:14:21.065Z,,0,,,5378.369000001461,completion,,,,,false,,,,470963.30000000075,470962.6000000015,465567.493,465575.9000000004,465584.231,470967.329,8,400,,,
trial,html.Screen,4_8_0,2023-09-12T20:14:25.181Z,,0,1,,4111.670999999973,response,ISIC_0054006.JPG,5,ISIC_9470876.JPG,ISIC_9470876.JPG,false,0,keypress(z),500,475079.4000000004,475079,470950.639,470963.7000000011,470967.329,475083.788,8,400,9,,ISIC_0054006.JPG
break,html.Screen,4_8_1,2023-09-12T20:14:25.183Z,,0,,,NaN,,,,,,false,,,,475081.30000000075,475080.7000000011,,475079.9000000004,,475083.788,8,400,,,
break_continue,html.Screen,4_8_2,2023-09-12T20:14:25.184Z,,0,,,NaN,,,,,,false,,,,475082.2000000011,475081.9000000004,,475081.6000000015,,475083.788,8,400,,,
sequence,flow.Sequence,4_8,2023-09-12T20:14:25.184Z,,0,,,4114.5710000003455,completion,,,,,false,,,,475082.80000000075,475081.9000000004,470950.639,470963.5,470967.329,475083.788,8,400,,,
trial,html.Screen,4_9_0,2023-09-12T20:14:32.121Z,,0,1,,6935.412000001117,response,ISIC_0000549.JPG,5,ISIC_0056710.JPG,ISIC_0056710.JPG,false,0,keypress(z),500,482019.7000000011,482019.2000000011,475066.93,475083.2000000011,475083.788,482033.464,8,400,10,,ISIC_0000549.JPG
break,html.Screen,4_9_1,2023-09-12T20:14:32.123Z,,0,,,NaN,,,,,,false,,,,482021.6000000015,482021.1000000015,,482020.2000000011,,482033.464,8,400,,,
break_continue,html.Screen,4_9_2,2023-09-12T20:14:32.124Z,,0,,,NaN,,,,,,false,,,,482022.6000000015,482022.2000000011,,482021.9000000004,,482033.464,8,400,,,
sequence,flow.Sequence,4_9,2023-09-12T20:14:32.124Z,,0,,,6938.412000001117,completion,,,,,false,,,,482023,482022.2000000011,475066.93,475083,475083.788,482033.464,8,400,,,
trial,html.Screen,4_10_0,2023-09-12T20:14:38.337Z,,0,1,,6201.2360000011395,response,ISIC_6971606.JPG,5,ISIC_7852890.JPG,ISIC_6971606.JPG,false,1,keypress(m),500,488235.2000000011,488234.7000000011,482016.735,482023.4000000004,482033.464,488249.841,8,400,11,,ISIC_7852890.JPG
break,html.Screen,4_10_1,2023-09-12T20:14:38.338Z,,0,,,NaN,,,,,,false,,,,488236.9000000004,488236.4000000004,,488235.7000000011,,488249.841,8,400,,,
break_continue,html.Screen,4_10_2,2023-09-12T20:14:38.339Z,,0,,,NaN,,,,,,false,,,,488237.9000000004,488237.5,,488237.2000000011,,488249.841,8,400,,,
sequence,flow.Sequence,4_10,2023-09-12T20:14:38.340Z,,0,,,6204.036000000022,completion,,,,,false,,,,488238.30000000075,488237.5,482016.735,482023.30000000075,482033.464,488249.841,8,400,,,
trial,html.Screen,4_11_0,2023-09-12T20:14:43.771Z,,0,1,,5419.45900000073,response,ISIC_2894223.JPG,5,ISIC_0024516.JPG,ISIC_0024516.JPG,false,0,keypress(z),500,493669.80000000075,493669.30000000075,488233.173,488238.7000000011,488249.841,493682.916,8,400,12,,ISIC_2894223.JPG
break,html.Screen,4_11_1,2023-09-12T20:14:43.773Z,,0,,,NaN,,,,,,false,,,,493671.5,493671,,493670.30000000075,,493682.916,8,400,,,
break_continue,html.Screen,4_11_2,2023-09-12T20:14:43.774Z,,0,,,NaN,,,,,,false,,,,493672.5,493672.2000000011,,493671.80000000075,,493682.916,8,400,,,
sequence,flow.Sequence,4_11,2023-09-12T20:14:43.774Z,,0,,,5422.359000001103,completion,,,,,false,,,,493672.9000000004,493672.2000000011,488233.173,488238.5,488249.841,493682.916,8,400,,,
trial,html.Screen,4_12_0,2023-09-12T20:14:48.420Z,,0,1,,4635.3840000007185,response,ISIC_5736624.JPG,4,ISIC_8733745.JPG,ISIC_5736624.JPG,false,1,keypress(m),500,498318.7000000011,498318.30000000075,493666.205,493673.5,493682.916,498332.677,8,400,13,,ISIC_8733745.JPG
break,html.Screen,4_12_1,2023-09-12T20:14:48.422Z,,0,,,NaN,,,,,,false,,,,498320.6000000015,498320,,498319.30000000075,,498332.677,8,400,,,
break_continue,html.Screen,4_12_2,2023-09-12T20:14:48.423Z,,0,,,NaN,,,,,,false,,,,498321.7000000011,498321.30000000075,,498321,,498332.677,8,400,,,
sequence,flow.Sequence,4_12,2023-09-12T20:14:48.424Z,,0,,,4638.3840000007185,completion,,,,,false,,,,498322.2000000011,498321.30000000075,493666.205,493673.4000000004,493682.916,498332.677,8,400,,,
trial,html.Screen,4_13_0,2023-09-12T20:14:54.589Z,,0,1,,6154.223000000347,response,ISIC_8789051.JPG,5,ISIC_0028469.JPG,ISIC_0028469.JPG,false,0,keypress(z),500,504487.4000000004,504486.9000000004,498316.21,498322.6000000015,498332.677,504499.08,8,400,14,,ISIC_8789051.JPG
break,html.Screen,4_13_1,2023-09-12T20:14:54.591Z,,0,,,NaN,,,,,,false,,,,504489.30000000075,504488.80000000075,,504487.9000000004,,504499.08,8,400,,,
break_continue,html.Screen,4_13_2,2023-09-12T20:14:54.592Z,,0,,,NaN,,,,,,false,,,,504490.30000000075,504490,,504489.7000000011,,504499.08,8,400,,,
sequence,flow.Sequence,4_13,2023-09-12T20:14:54.592Z,,0,,,6157.322999999975,completion,,,,,false,,,,504490.80000000075,504490,498316.21,498322.5,498332.677,504499.08,8,400,,,
trial,html.Screen,4_14_0,2023-09-12T20:14:58.295Z,,0,1,,3693.6200000011013,response,ISIC_7043369.JPG,5,ISIC_0013634.JPG,ISIC_7043369.JPG,false,1,keypress(m),500,508193.1000000015,508192.7000000011,504482.319,504491.30000000075,504499.08,508215.563,8,400,15,,ISIC_0013634.JPG
break,html.Screen,4_14_1,2023-09-12T20:14:58.296Z,,0,,,NaN,,,,,,false,,,,508194.6000000015,508194.2000000011,,508193.7000000011,,508215.563,8,400,,,
break_continue,html.Screen,4_14_2,2023-09-12T20:14:58.297Z,,0,,,NaN,,,,,,false,,,,508195.4000000004,508195.1000000015,,508194.80000000075,,508215.563,8,400,,,
sequence,flow.Sequence,4_14,2023-09-12T20:14:58.297Z,,0,,,3696.020000001474,completion,,,,,false,,,,508195.80000000075,508195.1000000015,504482.319,504491.1000000015,504499.08,508215.563,8,400,,,
trial,html.Screen,4_15_0,2023-09-12T20:15:02.018Z,,0,1,,3700.5370000014664,response,ISIC_0000467.JPG,5,ISIC_3573969.JPG,ISIC_3573969.JPG,false,0,keypress(z),500,511916.6000000015,511916.1000000015,508198.898,508196.1000000015,508215.563,511932.035,8,400,16,,ISIC_0000467.JPG
break,html.Screen,4_15_1,2023-09-12T20:15:02.020Z,,0,,,NaN,,,,,,false,,,,511918.5,511917.9000000004,,511917.2000000011,,511932.035,8,400,,,
break_continue,html.Screen,4_15_2,2023-09-12T20:15:02.021Z,,0,,,NaN,,,,,,false,,,,511919.30000000075,511919,,511918.7000000011,,511932.035,8,400,,,
sequence,flow.Sequence,4_15,2023-09-12T20:15:02.021Z,,0,,,3703.4369999999763,completion,,,,,false,,,,511919.80000000075,511919,508198.898,508196.1000000015,508215.563,511932.035,8,400,,,
trial,html.Screen,4_16_0,2023-09-12T20:15:07.919Z,,0,1,,5884.465000000026,response,ISIC_2051564.JPG,6,ISIC_0024865.JPG,ISIC_2051564.JPG,false,1,keypress(m),500,517817,517816.5,511915.087,511920.2000000011,511932.035,517831.775,8,400,17,,ISIC_0024865.JPG
break,html.Screen,4_16_1,2023-09-12T20:15:07.920Z,,0,,,NaN,,,,,,false,,,,517818.80000000075,517818.30000000075,,517817.6000000015,,517831.775,8,400,,,
break_continue,html.Screen,4_16_2,2023-09-12T20:15:07.921Z,,0,,,NaN,,,,,,false,,,,517819.80000000075,517819.5,,517819.2000000011,,517831.775,8,400,,,
sequence,flow.Sequence,4_16,2023-09-12T20:15:07.922Z,,0,,,5887.465000000026,completion,,,,,false,,,,517820.30000000075,517819.5,511915.087,511920.1000000015,511932.035,517831.775,8,400,,,
trial,html.Screen,4_17_0,2023-09-12T20:15:12.246Z,,0,1,,4312.724999999977,response,ISIC_0024702.JPG,5,ISIC_2395624.JPG,ISIC_2395624.JPG,false,0,keypress(z),500,522145,522144.5,517814.894,517820.7000000011,517831.775,522148.206,8,400,18,,ISIC_0024702.JPG
break,html.Screen,4_17_1,2023-09-12T20:15:12.248Z,,0,,,NaN,,,,,,false,,,,522146.9000000004,522146.5,,522145.5,,522148.206,8,400,,,
break_continue,html.Screen,4_17_2,2023-09-12T20:15:12.249Z,,0,,,NaN,,,,,,false,,,,522147.9000000004,522147.6000000015,,522147.2000000011,,522148.206,8,400,,,
sequence,flow.Sequence,4_17,2023-09-12T20:15:12.250Z,,0,,,4315.825000001467,completion,,,,,false,,,,522148.7000000011,522147.6000000015,517814.894,517820.7000000011,517831.775,522148.206,8,400,,,
trial,html.Screen,4_18_0,2023-09-12T20:15:23.734Z,,0,1,,11500.92000000074,timeout,ISIC_2430137.JPG,6,ISIC_8759207.JPG,ISIC_2430137.JPG,false,,,500,533632.9000000004,533632.3000000007,522131.38,522149.2000000011,522148.206,,8,400,19,,ISIC_8759207.JPG
break,html.Screen,4_18_1,2023-09-12T20:15:23.736Z,,0,,,NaN,,,,,,false,,,,533634.4000000004,533634,,533633.4000000004,,533664.449,8,400,,,
break_continue,html.Screen,4_18_2,2023-09-12T20:15:23.737Z,,0,,,NaN,,,,,,false,,,,533635.4000000004,533635,,533634.8000000007,,533664.449,8,400,,,
sequence,flow.Sequence,4_18,2023-09-12T20:15:23.737Z,,0,,,11486.793999999994,completion,,,,,false,,,,533635.9000000004,533635,522131.38,522149.1000000015,522148.206,533664.449,8,400,,,
trial,html.Screen,4_18_0,2023-09-12T20:15:23.760Z,,0,1,,11509.394000001485,response,ISIC_2430137.JPG,6,ISIC_8759207.JPG,ISIC_2430137.JPG,false,1,keypress(m),500,533658.2000000011,533657.6000000015,522131.38,522149.2000000011,522148.206,533664.449,8,400,19,,ISIC_8759207.JPG
trial,html.Screen,4_19_0,2023-09-12T20:15:27.680Z,,0,1,,3913.7510000010952,response,ISIC_0062235.JPG,5,ISIC_0030032.JPG,ISIC_0062235.JPG,false,1,keypress(m),500,537578.7000000011,537578.2000000011,533647.671,533636.3000000007,533664.449,537598.629,8,400,20,,ISIC_0030032.JPG
break,html.Screen,4_19_1,2023-09-12T20:15:27.682Z,,0,,,NaN,,,,,,false,,,,537580.5,537579.9000000004,,537579.2000000011,,537598.629,8,400,,,
break_continue,html.Screen,4_19_2,2023-09-12T20:15:27.683Z,,0,,,NaN,,,,,,false,,,,537581.4000000004,537581.1000000015,,537580.8000000007,,537598.629,8,400,,,
sequence,flow.Sequence,4_19,2023-09-12T20:15:27.683Z,,0,,,3916.6510000014678,completion,,,,,false,,,,537581.9000000004,537581.1000000015,533647.671,533636.2000000011,533664.449,537598.629,8,400,,,
trial,html.Screen,4_20_0,2023-09-12T20:15:31.224Z,,0,1,,3523.0710000011604,response,ISIC_0000414.JPG,5,ISIC_7137995.JPG,ISIC_7137995.JPG,false,0,keypress(z),500,541122.3000000007,541121.7000000011,537564.105,537582.4000000004,537598.629,541130.679,8,400,21,,ISIC_0000414.JPG
break,html.Screen,4_20_1,2023-09-12T20:15:31.226Z,,0,,,NaN,,,,,,false,,,,541124.1000000015,541123.4000000004,,541122.8000000007,,541130.679,8,400,,,
break_continue,html.Screen,4_20_2,2023-09-12T20:15:31.227Z,,0,,,NaN,,,,,,false,,,,541125.1000000015,541124.7000000011,,541124.5,,541130.679,8,400,,,
sequence,flow.Sequence,4_20,2023-09-12T20:15:31.227Z,,0,,,3526.0710000011604,completion,,,,,false,,,,541125.6000000015,541124.7000000011,537564.105,537582.3000000007,537598.629,541130.679,8,400,,,
trial,html.Screen,4_21_0,2023-09-12T20:15:35.380Z,,0,1,,4147.721000000369,response,ISIC_0034211.JPG,6,ISIC_2175855.JPG,ISIC_0034211.JPG,false,1,keypress(m),500,545278.9000000004,545278.4000000004,541113.977,541126,541130.679,545297.674,8,400,22,,ISIC_2175855.JPG
break,html.Screen,4_21_1,2023-09-12T20:15:35.383Z,,0,,,NaN,,,,,,false,,,,545281,545280.3000000007,,545279.5,,545297.674,8,400,,,
break_continue,html.Screen,4_21_2,2023-09-12T20:15:35.384Z,,0,,,NaN,,,,,,false,,,,545282,545281.7000000011,,545281.4000000004,,545297.674,8,400,,,
sequence,flow.Sequence,4_21,2023-09-12T20:15:35.384Z,,0,,,4151.021000001114,completion,,,,,false,,,,545282.5,545281.7000000011,541113.977,541125.9000000004,541130.679,545297.674,8,400,,,
trial,html.Screen,4_22_0,2023-09-12T20:15:39.676Z,,0,1,,4276.326000000001,response,ISIC_0033975.JPG,5,ISIC_5049365.JPG,ISIC_5049365.JPG,false,0,keypress(z),500,549574.4000000004,549574,545263.744,545283,545297.674,549580.276,8,400,23,,ISIC_0033975.JPG
break,html.Screen,4_22_1,2023-09-12T20:15:39.678Z,,0,,,NaN,,,,,,false,,,,549576.2000000011,549575.8000000007,,549574.9000000004,,549580.276,8,400,,,
break_continue,html.Screen,4_22_2,2023-09-12T20:15:39.679Z,,0,,,NaN,,,,,,false,,,,549577.4000000004,549576.8000000007,,549576.6000000015,,549580.276,8,400,,,
sequence,flow.Sequence,4_22,2023-09-12T20:15:39.679Z,,0,,,4279.126000000746,completion,,,,,false,,,,549577.9000000004,549576.8000000007,545263.744,545282.8000000007,545297.674,549580.276,8,400,,,
trial,html.Screen,4_23_0,2023-09-12T20:15:44.186Z,,0,1,,4503.624000000418,response,ISIC_0005028.JPG,6,ISIC_0029740.JPG,ISIC_0005028.JPG,false,1,keypress(m),500,554084.4000000004,554083.9000000004,549563.327,549578.3000000007,549580.276,554096.715,8,400,24,,ISIC_0029740.JPG
break,html.Screen,4_23_1,2023-09-12T20:15:44.188Z,,0,,,NaN,,,,,,false,,,,554086.2000000011,554085.6000000015,,554084.9000000004,,554096.715,8,400,,,
break_continue,html.Screen,4_23_2,2023-09-12T20:15:44.189Z,,0,,,NaN,,,,,,false,,,,554087.2000000011,554086.8000000007,,554086.6000000015,,554096.715,8,400,,,
sequence,flow.Sequence,4_23,2023-09-12T20:15:44.189Z,,0,,,4506.524000000791,completion,,,,,false,,,,554087.7000000011,554086.8000000007,549563.327,549578.1000000015,549580.276,554096.715,8,400,,,
trial,html.Screen,4_24_0,2023-09-12T20:15:48.548Z,,0,1,,4349.385000001523,response,ISIC_0025289.JPG,5,ISIC_0001743.JPG,ISIC_0001743.JPG,false,0,keypress(z),500,558446.7000000011,558446.1000000015,554080,554088.1000000015,554096.715,558463.176,8,400,25,,ISIC_0025289.JPG
break,html.Screen,4_24_1,2023-09-12T20:15:48.550Z,,0,,,NaN,,,,,,false,,,,558448.5,558447.9000000004,,558447.2000000011,,558463.176,8,400,,,
break_continue,html.Screen,4_24_2,2023-09-12T20:15:48.551Z,,0,,,NaN,,,,,,false,,,,558449.5,558449.2000000011,,558448.9000000004,,558463.176,8,400,,,
sequence,flow.Sequence,4_24,2023-09-12T20:15:48.552Z,,0,,,4352.48500000115,completion,,,,,false,,,,558450,558449.2000000011,554080,554088,554096.715,558463.176,8,400,,,
trial,html.Screen,4_25_0,2023-09-12T20:15:52.979Z,,0,1,,4414.224000000395,response,ISIC_0067727.JPG,6,ISIC_0057949.JPG,ISIC_0057949.JPG,false,0,keypress(z),500,562877.9000000004,562877.4000000004,558446.25,558450.5,558463.176,562897.357,8,400,26,,ISIC_0067727.JPG
break,html.Screen,4_25_1,2023-09-12T20:15:52.982Z,,0,,,NaN,,,,,,false,,,,562880.1000000015,562879.3000000007,,562878.5,,562897.357,8,400,,,
break_continue,html.Screen,4_25_2,2023-09-12T20:15:52.983Z,,0,,,NaN,,,,,,false,,,,562881.2000000011,562880.8000000007,,562880.5,,562897.357,8,400,,,
sequence,flow.Sequence,4_25,2023-09-12T20:15:52.983Z,,0,,,4417.624000000767,completion,,,,,false,,,,562881.8000000007,562880.8000000007,558446.25,558450.3000000007,558463.176,562897.357,8,400,,,
trial,html.Screen,4_26_0,2023-09-12T20:15:57.627Z,,0,1,,4627.543000000413,response,ISIC_2993032.JPG,5,ISIC_0059597.JPG,ISIC_0059597.JPG,false,0,keypress(z),500,567525.5,567524.9000000004,562862.902,562882.2000000011,562897.357,567529.41,8,400,27,,ISIC_2993032.JPG
break,html.Screen,4_26_1,2023-09-12T20:15:57.629Z,,0,,,NaN,,,,,,false,,,,567527.3000000007,567526.8000000007,,567526,,567529.41,8,400,,,
break_continue,html.Screen,4_26_2,2023-09-12T20:15:57.630Z,,0,,,NaN,,,,,,false,,,,567528.2000000011,567528,,567527.6000000015,,567529.41,8,400,,,
sequence,flow.Sequence,4_26,2023-09-12T20:15:57.630Z,,0,,,4630.64300000004,completion,,,,,false,,,,567528.7000000011,567528,562862.902,562882,562897.357,567529.41,8,400,,,
trial,html.Screen,4_27_0,2023-09-12T20:16:01.314Z,,0,1,,3682.3900000007125,response,ISIC_3596927.JPG,5,ISIC_0030417.JPG,ISIC_3596927.JPG,false,1,keypress(m),500,571212.3000000007,571211.8000000007,567512.684,567529.2000000011,567529.41,571229.214,8,400,28,,ISIC_0030417.JPG
break,html.Screen,4_27_1,2023-09-12T20:16:01.316Z,,0,,,NaN,,,,,,false,,,,571214.2000000011,571213.7000000011,,571212.8000000007,,571229.214,8,400,,,
break_continue,html.Screen,4_27_2,2023-09-12T20:16:01.317Z,,0,,,NaN,,,,,,false,,,,571215.2000000011,571214.8000000007,,571214.5,,571229.214,8,400,,,
sequence,flow.Sequence,4_27,2023-09-12T20:16:01.317Z,,0,,,3685.3900000007125,completion,,,,,false,,,,571215.7000000011,571214.8000000007,567512.684,567529,567529.41,571229.214,8,400,,,
trial,html.Screen,4_28_0,2023-09-12T20:16:05.641Z,,0,1,,4310.186000000336,response,ISIC_0063369.JPG,5,ISIC_6298228.JPG,ISIC_6298228.JPG,false,0,keypress(z),500,575539.9000000004,575539.4000000004,571212.336,571216,571229.214,575545.709,8,400,29,,ISIC_0063369.JPG
break,html.Screen,4_28_1,2023-09-12T20:16:05.643Z,,0,,,NaN,,,,,,false,,,,575541.7000000011,575541.2000000011,,575540.4000000004,,575545.709,8,400,,,
break_continue,html.Screen,4_28_2,2023-09-12T20:16:05.644Z,,0,,,NaN,,,,,,false,,,,575542.6000000015,575542.3000000007,,575542,,575545.709,8,400,,,
sequence,flow.Sequence,4_28,2023-09-12T20:16:05.645Z,,0,,,4313.086000000709,completion,,,,,false,,,,575543.2000000011,575542.3000000007,571212.336,571215.9000000004,571229.214,575545.709,8,400,,,
trial,html.Screen,4_29_0,2023-09-12T20:16:10.977Z,,0,1,,5328.891000001458,response,ISIC_0069488.JPG,5,ISIC_0071457.JPG,ISIC_0071457.JPG,false,0,keypress(z),500,580875.2000000011,580874.6000000015,575528.9,575543.5,575545.709,580878.786,8,400,30,,ISIC_0069488.JPG
break,html.Screen,4_29_1,2023-09-12T20:16:10.979Z,,0,,,NaN,,,,,,false,,,,580877.4000000004,580876.8000000007,,580875.9000000004,,580878.786,8,400,,,
break_continue,html.Screen,4_29_2,2023-09-12T20:16:10.980Z,,0,,,NaN,,,,,,false,,,,580878.3000000007,580877.9000000004,,580877.7000000011,,580878.786,8,400,,,
sequence,flow.Sequence,4_29,2023-09-12T20:16:10.980Z,,0,,,5332.191000000341,completion,,,,,false,,,,580878.8000000007,580877.9000000004,575528.9,575543.5,575545.709,580878.786,8,400,,,
trial,html.Screen,4_30_0,2023-09-12T20:16:15.593Z,,0,1,,4612.614000000409,response,ISIC_5298216.JPG,5,ISIC_1872823.JPG,ISIC_1872823.JPG,false,0,keypress(z),500,585492,585491.4000000004,580862.103,580879.7000000011,580878.786,585512.255,8,400,31,,ISIC_5298216.JPG
break,html.Screen,4_30_1,2023-09-12T20:16:15.595Z,,0,,,NaN,,,,,,false,,,,585493.5,585493.1000000015,,585492.5,,585512.255,8,400,,,
break_continue,html.Screen,4_30_2,2023-09-12T20:16:15.596Z,,0,,,NaN,,,,,,false,,,,585494.4000000004,585494,,585493.8000000007,,585512.255,8,400,,,
sequence,flow.Sequence,4_30,2023-09-12T20:16:15.596Z,,0,,,4615.214000000036,completion,,,,,false,,,,585494.9000000004,585494,580862.103,580879.5,580878.786,585512.255,8,400,,,
trial,html.Screen,4_31_0,2023-09-12T20:16:19.776Z,,0,1,,4161.945000001113,response,ISIC_0024826.JPG,5,ISIC_5204796.JPG,ISIC_0024826.JPG,false,1,keypress(m),500,589674.6000000015,589674.2000000011,585495.287,585495.2000000011,585512.255,589678.363,8,400,32,,ISIC_5204796.JPG
break,html.Screen,4_31_1,2023-09-12T20:16:19.778Z,,0,,,NaN,,,,,,false,,,,589676.5,589676,,589675.4000000004,,589678.363,8,400,,,
break_continue,html.Screen,4_31_2,2023-09-12T20:16:19.779Z,,0,,,NaN,,,,,,false,,,,589677.4000000004,589677.1000000015,,589676.9000000004,,589678.363,8,400,,,
sequence,flow.Sequence,4_31,2023-09-12T20:16:19.779Z,,0,,,4164.8450000014855,completion,,,,,false,,,,589677.9000000004,589677.1000000015,585495.287,585495.1000000015,585512.255,589678.363,8,400,,,
trial,html.Screen,4_32_0,2023-09-12T20:16:24.445Z,,0,1,,4664.636999999988,response,ISIC_6529819.JPG,5,ISIC_4894802.JPG,ISIC_6529819.JPG,false,1,keypress(m),500,594343.6000000015,594343,589661.536,589678.3000000007,589678.363,594361.574,8,400,33,,ISIC_4894802.JPG
break,html.Screen,4_32_1,2023-09-12T20:16:24.447Z,,0,,,NaN,,,,,,false,,,,594345.7000000011,594344.9000000004,,594344,,594361.574,8,400,,,
break_continue,html.Screen,4_32_2,2023-09-12T20:16:24.448Z,,0,,,NaN,,,,,,false,,,,594346.9000000004,594346.6000000015,,594346.3000000007,,594361.574,8,400,,,
sequence,flow.Sequence,4_32,2023-09-12T20:16:24.449Z,,0,,,4668.237000001478,completion,,,,,false,,,,594347.4000000004,594346.6000000015,589661.536,589678.2000000011,589678.363,594361.574,8,400,,,
trial,html.Screen,4_33_0,2023-09-12T20:16:29.045Z,,0,1,,4581.425999999978,response,ISIC_0000394.JPG,4,ISIC_1988058.JPG,ISIC_1988058.JPG,false,0,keypress(z),500,598943.5,598943,594344.905,594347.9000000004,594361.574,598961.269,8,400,34,,ISIC_0000394.JPG
break,html.Screen,4_33_1,2023-09-12T20:16:29.047Z,,0,,,NaN,,,,,,false,,,,598945.5,598944.8000000007,,598944,,598961.269,8,400,,,
break_continue,html.Screen,4_33_2,2023-09-12T20:16:29.048Z,,0,,,NaN,,,,,,false,,,,598946.4000000004,598946.2000000011,,598945.9000000004,,598961.269,8,400,,,
sequence,flow.Sequence,4_33,2023-09-12T20:16:29.048Z,,0,,,4584.626000001095,completion,,,,,false,,,,598947,598946.2000000011,594344.905,594347.7000000011,594361.574,598961.269,8,400,,,
trial,html.Screen,4_34_0,2023-09-12T20:16:33.628Z,,0,1,,4565.031000000774,response,ISIC_0010705.JPG,5,ISIC_0070017.JPG,ISIC_0070017.JPG,false,0,keypress(z),500,603526.7000000011,603526.3000000007,598944.441,598947.4000000004,598961.269,603544.764,8,400,35,,ISIC_0010705.JPG
break,html.Screen,4_34_1,2023-09-12T20:16:33.629Z,,0,,,NaN,,,,,,false,,,,603527.2000000011,603527.1000000015,,603526.8000000007,,603544.764,8,400,,,
break_continue,html.Screen,4_34_2,2023-09-12T20:16:33.629Z,,0,,,NaN,,,,,,false,,,,603527.6000000015,603527.5,,603527.4000000004,,603544.764,8,400,,,
sequence,flow.Sequence,4_34,2023-09-12T20:16:33.629Z,,0,,,4566.231000000029,completion,,,,,false,,,,603527.9000000004,603527.5,598944.441,598947.2000000011,598961.269,603544.764,8,400,,,
trial,html.Screen,4_35_0,2023-09-12T20:16:37.423Z,,0,1,,3776.5360000007786,response,ISIC_0021442.JPG,5,ISIC_8791744.JPG,ISIC_8791744.JPG,false,0,keypress(z),500,607321.8000000007,607321.3000000007,603511.104,603528,603544.764,607327.531,8,400,36,,ISIC_0021442.JPG
break,html.Screen,4_35_1,2023-09-12T20:16:37.425Z,,0,,,NaN,,,,,,false,,,,607323.5,607322.9000000004,,607322.3000000007,,607327.531,8,400,,,
break_continue,html.Screen,4_35_2,2023-09-12T20:16:37.426Z,,0,,,NaN,,,,,,false,,,,607324.4000000004,607324.1000000015,,607323.8000000007,,607327.531,8,400,,,
sequence,flow.Sequence,4_35,2023-09-12T20:16:37.426Z,,0,,,3779.3360000015236,completion,,,,,false,,,,607324.9000000004,607324.1000000015,603511.104,603528,603544.764,607327.531,8,400,,,
trial,html.Screen,4_36_0,2023-09-12T20:16:41.467Z,,0,1,,4037.3690000004135,response,ISIC_7883190.JPG,5,ISIC_9969907.JPG,ISIC_9969907.JPG,false,0,keypress(z),500,611365.5,611364.9000000004,607310.796,607325.4000000004,607327.531,611377.358,8,400,37,,ISIC_7883190.JPG
break,html.Screen,4_36_1,2023-09-12T20:16:41.469Z,,0,,,NaN,,,,,,false,,,,611367.3000000007,611366.7000000011,,611365.9000000004,,611377.358,8,400,,,
break_continue,html.Screen,4_36_2,2023-09-12T20:16:41.470Z,,0,,,NaN,,,,,,false,,,,611368.2000000011,611367.9000000004,,611367.6000000015,,611377.358,8,400,,,
sequence,flow.Sequence,4_36,2023-09-12T20:16:41.470Z,,0,,,4040.3690000004135,completion,,,,,false,,,,611368.7000000011,611367.9000000004,607310.796,607325.2000000011,607327.531,611377.358,8,400,,,
trial,html.Screen,4_37_0,2023-09-12T20:16:45.898Z,,0,1,,4418.542000000365,response,ISIC_8685259.JPG,6,ISIC_0073115.JPG,ISIC_8685259.JPG,false,1,keypress(m),500,615796.4000000004,615795.9000000004,611360.608,611369.1000000015,611377.358,615810.476,8,400,38,,ISIC_0073115.JPG
break,html.Screen,4_37_1,2023-09-12T20:16:45.900Z,,0,,,NaN,,,,,,false,,,,615798.3000000007,615797.8000000007,,615796.9000000004,,615810.476,8,400,,,
break_continue,html.Screen,4_37_2,2023-09-12T20:16:45.901Z,,0,,,NaN,,,,,,false,,,,615799.2000000011,615798.9000000004,,615798.6000000015,,615810.476,8,400,,,
sequence,flow.Sequence,4_37,2023-09-12T20:16:45.901Z,,0,,,4421.542000000365,completion,,,,,false,,,,615799.7000000011,615798.9000000004,611360.608,611369,611377.358,615810.476,8,400,,,
trial,html.Screen,4_38_0,2023-09-12T20:16:50.593Z,,0,1,,4680.624000001466,response,ISIC_0054239.JPG,6,ISIC_3975743.JPG,ISIC_0054239.JPG,false,1,keypress(m),500,620491.6000000015,620491.1000000015,615793.738,615800.1000000015,615810.476,620511.998,8,400,39,,ISIC_3975743.JPG
break,html.Screen,4_38_1,2023-09-12T20:16:50.595Z,,0,,,NaN,,,,,,false,,,,620493.6000000015,620493,,620492.3000000007,,620511.998,8,400,,,
break_continue,html.Screen,4_38_2,2023-09-12T20:16:50.596Z,,0,,,NaN,,,,,,false,,,,620494.9000000004,620494.5,,620494.1000000015,,620511.998,8,400,,,
sequence,flow.Sequence,4_38,2023-09-12T20:16:50.597Z,,0,,,4684.023999999976,completion,,,,,false,,,,620495.4000000004,620494.5,615793.738,615800.1000000015,615810.476,620511.998,8,400,,,
trial,html.Screen,4_39_0,2023-09-12T20:16:55.786Z,,0,1,,5171.702000001096,response,ISIC_6557642.JPG,5,ISIC_0002184.JPG,ISIC_0002184.JPG,false,0,keypress(z),500,625684.2000000011,625683.7000000011,620476.675,620495.8000000007,620511.998,625709.996,8,400,40,,ISIC_6557642.JPG
break,html.Screen,4_39_1,2023-09-12T20:16:55.787Z,,0,,,NaN,,,,,,false,,,,625685.8000000007,625685.4000000004,,625684.8000000007,,625709.996,8,400,,,
break_continue,html.Screen,4_39_2,2023-09-12T20:16:55.788Z,,0,,,NaN,,,,,,false,,,,625686.7000000011,625686.4000000004,,625686.1000000015,,625709.996,8,400,,,
sequence,flow.Sequence,4_39,2023-09-12T20:16:55.789Z,,0,,,5174.402000000351,completion,,,,,false,,,,625687.3000000007,625686.4000000004,620476.675,620495.7000000011,620511.998,625709.996,8,400,,,
trial,html.Screen,4_40_0,2023-09-12T20:16:59.953Z,,0,1,,4141.304000000702,response,ISIC_0000445.JPG,4,ISIC_0029212.JPG,ISIC_0000445.JPG,false,1,keypress(m),500,629851.6000000015,629851.3000000007,625693.354,625687.7000000011,625709.996,629859.878,8,400,41,,ISIC_0029212.JPG
break,html.Screen,4_40_1,2023-09-12T20:16:59.954Z,,0,,,NaN,,,,,,false,,,,629852.3000000007,629852,,629851.7000000011,,629859.878,8,400,,,
break_continue,html.Screen,4_40_2,2023-09-12T20:16:59.954Z,,0,,,NaN,,,,,,false,,,,629852.6000000015,629852.5,,629852.4000000004,,629859.878,8,400,,,
sequence,flow.Sequence,4_40,2023-09-12T20:16:59.954Z,,0,,,4142.503999999957,completion,,,,,false,,,,629852.8000000007,629852.5,625693.354,625687.6000000015,625709.996,629859.878,8,400,,,
trial,html.Screen,4_41_0,2023-09-12T20:17:03.573Z,,0,1,,3611.5220000003465,response,ISIC_0030663.JPG,5,ISIC_9409255.JPG,ISIC_9409255.JPG,false,0,keypress(z),500,633472,633471.4000000004,629843.504,629852.9000000004,629859.878,633476.295,8,400,42,,ISIC_0030663.JPG
break,html.Screen,4_41_1,2023-09-12T20:17:03.575Z,,0,,,NaN,,,,,,false,,,,633473.8000000007,633473.3000000007,,633472.4000000004,,633476.295,8,400,,,
break_continue,html.Screen,4_41_2,2023-09-12T20:17:03.576Z,,0,,,NaN,,,,,,false,,,,633474.8000000007,633474.4000000004,,633474.1000000015,,633476.295,8,400,,,
sequence,flow.Sequence,4_41,2023-09-12T20:17:03.577Z,,0,,,3614.5220000003465,completion,,,,,false,,,,633475.2000000011,633474.4000000004,629843.504,629852.9000000004,629859.878,633476.295,8,400,,,
trial,html.Screen,4_42_0,2023-09-12T20:17:09.148Z,,0,1,,5570.204999999958,response,ISIC_0072266.JPG,5,ISIC_3734674.JPG,ISIC_3734674.JPG,false,0,keypress(z),500,639047,639046.5,633459.37,633475.7000000011,633476.295,639059.401,8,400,43,,ISIC_0072266.JPG
break,html.Screen,4_42_1,2023-09-12T20:17:09.150Z,,0,,,NaN,,,,,,false,,,,639048.9000000004,639048.3000000007,,639047.5,,639059.401,8,400,,,
break_continue,html.Screen,4_42_2,2023-09-12T20:17:09.151Z,,0,,,NaN,,,,,,false,,,,639049.8000000007,639049.5,,639049.2000000011,,639059.401,8,400,,,
sequence,flow.Sequence,4_42,2023-09-12T20:17:09.152Z,,0,,,5573.204999999958,completion,,,,,false,,,,639050.2000000011,639049.5,633459.37,633475.5,633476.295,639059.401,8,400,,,
trial,html.Screen,4_43_0,2023-09-12T20:17:13.336Z,,0,1,,4174.399000000791,response,ISIC_0071735.JPG,5,ISIC_0062048.JPG,ISIC_0071735.JPG,false,1,keypress(m),500,643234.4000000004,643233.8000000007,639042.683,639050.7000000011,639059.401,643242.518,8,400,44,,ISIC_0062048.JPG
break,html.Screen,4_43_1,2023-09-12T20:17:13.338Z,,0,,,NaN,,,,,,false,,,,643236.2000000011,643235.7000000011,,643234.9000000004,,643242.518,8,400,,,
break_continue,html.Screen,4_43_2,2023-09-12T20:17:13.339Z,,0,,,NaN,,,,,,false,,,,643237.2000000011,643236.8000000007,,643236.5,,643242.518,8,400,,,
sequence,flow.Sequence,4_43,2023-09-12T20:17:13.339Z,,0,,,4177.399000000791,completion,,,,,false,,,,643237.7000000011,643236.8000000007,639042.683,639050.6000000015,639059.401,643242.518,8,400,,,
trial,html.Screen,4_44_0,2023-09-12T20:17:17.711Z,,0,1,,4366.782000000705,response,ISIC_0623284.JPG,5,ISIC_4023381.JPG,ISIC_4023381.JPG,false,0,keypress(z),500,647609.9000000004,647609.3000000007,643225.852,643238.1000000015,643242.518,647625.646,8,400,45,,ISIC_0623284.JPG
break,html.Screen,4_44_1,2023-09-12T20:17:17.713Z,,0,,,NaN,,,,,,false,,,,647611.6000000015,647611.1000000015,,647610.4000000004,,647625.646,8,400,,,
break_continue,html.Screen,4_44_2,2023-09-12T20:17:17.714Z,,0,,,NaN,,,,,,false,,,,647612.6000000015,647612.2000000011,,647611.9000000004,,647625.646,8,400,,,
sequence,flow.Sequence,4_44,2023-09-12T20:17:17.715Z,,0,,,4369.6820000010775,completion,,,,,false,,,,647613.1000000015,647612.2000000011,643225.852,643238,643242.518,647625.646,8,400,,,
trial,html.Screen,4_45_0,2023-09-12T20:17:21.974Z,,0,1,,4246.45400000154,response,ISIC_0031529.JPG,6,ISIC_3950753.JPG,ISIC_3950753.JPG,false,0,keypress(z),500,651872.5,651872.1000000015,647608.903,647613.4000000004,647625.646,651875.422,8,400,46,,ISIC_0031529.JPG
break,html.Screen,4_45_1,2023-09-12T20:17:21.976Z,,0,,,NaN,,,,,,false,,,,651874.4000000004,651873.8000000007,,651873.1000000015,,651875.422,8,400,,,
break_continue,html.Screen,4_45_2,2023-09-12T20:17:21.977Z,,0,,,NaN,,,,,,false,,,,651875.3000000007,651875,,651874.7000000011,,651875.422,8,400,,,
sequence,flow.Sequence,4_45,2023-09-12T20:17:21.978Z,,0,,,4249.35400000005,completion,,,,,false,,,,651876.1000000015,651875,647608.903,647613.3000000007,647625.646,651875.422,8,400,,,
trial,html.Screen,4_46_0,2023-09-12T20:17:25.508Z,,0,1,,3530.0779999999795,response,ISIC_6831482.JPG,5,ISIC_0025751.JPG,ISIC_6831482.JPG,false,1,keypress(m),500,655406,655405.5,651858.694,651876.6000000015,651875.422,655408.619,8,400,47,,ISIC_0025751.JPG
break,html.Screen,4_46_1,2023-09-12T20:17:25.509Z,,0,,,NaN,,,,,,false,,,,655407.9000000004,655407.3000000007,,655406.5,,655408.619,8,400,,,
break_continue,html.Screen,4_46_2,2023-09-12T20:17:25.511Z,,0,,,NaN,,,,,,false,,,,655409.2000000011,655408.5,,655408.2000000011,,655408.619,8,400,,,
sequence,flow.Sequence,4_46,2023-09-12T20:17:25.511Z,,0,,,3533.0779999999795,completion,,,,,false,,,,655409.8000000007,655408.5,651858.694,651876.5,651875.422,655408.619,8,400,,,
trial,html.Screen,4_47_0,2023-09-12T20:17:29.307Z,,0,1,,3795.9810000015423,response,ISIC_0054123.JPG,6,ISIC_0024586.JPG,ISIC_0024586.JPG,false,0,keypress(z),500,659205.1000000015,659204.6000000015,655391.658,655410.2000000011,655408.619,659208.422,8,400,48,,ISIC_0054123.JPG
break,html.Screen,4_47_1,2023-09-12T20:17:29.308Z,,0,,,NaN,,,,,,false,,,,659206.9000000004,659206.4000000004,,659205.6000000015,,659208.422,8,400,,,
break_continue,html.Screen,4_47_2,2023-09-12T20:17:29.309Z,,0,,,NaN,,,,,,false,,,,659207.9000000004,659207.5,,659207.2000000011,,659208.422,8,400,,,
sequence,flow.Sequence,4_47,2023-09-12T20:17:29.310Z,,0,,,3798.881000000052,completion,,,,,false,,,,659208.3000000007,659207.5,655391.658,655410.1000000015,655408.619,659208.422,8,400,,,
trial,html.Screen,4_48_0,2023-09-12T20:17:32.918Z,,0,1,,3607.6780000014696,response,ISIC_0031717.JPG,5,ISIC_0073119.JPG,ISIC_0073119.JPG,false,0,keypress(z),500,662816.6000000015,662816.1000000015,659191.476,659209.1000000015,659208.422,662824.93,8,400,49,,ISIC_0031717.JPG
break,html.Screen,4_48_1,2023-09-12T20:17:32.920Z,,0,,,NaN,,,,,,false,,,,662818.4000000004,662817.8000000007,,662817.1000000015,,662824.93,8,400,,,
break_continue,html.Screen,4_48_2,2023-09-12T20:17:32.921Z,,0,,,NaN,,,,,,false,,,,662819.3000000007,662819,,662818.7000000011,,662824.93,8,400,,,
sequence,flow.Sequence,4_48,2023-09-12T20:17:32.921Z,,0,,,3610.5779999999795,completion,,,,,false,,,,662819.8000000007,662819,659191.476,659208.9000000004,659208.422,662824.93,8,400,,,
trial,html.Screen,4_49_0,2023-09-12T20:17:35.953Z,,0,1,,3026.2700000010664,response,ISIC_0011459.JPG,7,ISIC_7051167.JPG,ISIC_7051167.JPG,false,0,keypress(z),500,665851.8000000007,665851.2000000011,662808.179,662820.5,662824.93,665858.122,8,400,50,,ISIC_0011459.JPG
break,html.Screen,4_49_1,2023-09-12T20:17:45.944Z,,0,,,9999.501000000047,timeout,,,,,false,,,,675842.7000000011,675841.349,665841.405,665852.3000000007,665858.122,675857.623,8,400,,,
break_continue,html.Screen,4_49_2,2023-09-12T20:17:48.802Z,,0,,,2823.277000000351,response,,,,,false,continue,keypress(Space),,678700.8000000007,678680.9000000004,675841.349,675843.1000000015,675857.623,678707.473,8,400,,,
sequence,flow.Sequence,4_49,2023-09-12T20:17:48.803Z,,0,,,15855.970000000321,completion,,,,,false,,,,678701.1000000015,678680.9000000004,662808.179,662820.3000000007,662824.93,678707.473,8,400,,,
trial,html.Screen,4_50_0,2023-09-12T20:17:52.949Z,,0,2,,4139.527000000002,response,ISIC_0009940.JPG,5,ISIC_0026360.JPG,ISIC_0026360.JPG,false,0,keypress(z),500,682847.6000000015,682847,678689.333,678701.2000000011,678707.473,682857.353,8,400,1,,ISIC_0009940.JPG
break,html.Screen,4_50_1,2023-09-12T20:17:52.951Z,,0,,,NaN,,,,,,false,,,,682849.6000000015,682849.1000000015,,682848,,682857.353,8,400,,,
break_continue,html.Screen,4_50_2,2023-09-12T20:17:52.952Z,,0,,,NaN,,,,,,false,,,,682850.7000000011,682850.4000000004,,682850.1000000015,,682857.353,8,400,,,
sequence,flow.Sequence,4_50,2023-09-12T20:17:52.953Z,,0,,,4142.927000000374,completion,,,,,false,,,,682851.3000000007,682850.4000000004,678689.333,678701.1000000015,678707.473,682857.353,8,400,,,
trial,html.Screen,4_51_0,2023-09-12T20:17:56.077Z,,0,2,,3117.347000001115,response,ISIC_6028082.JPG,5,ISIC_9301005.JPG,ISIC_6028082.JPG,false,1,keypress(m),500,685975.1000000015,685974.7000000011,682840.683,682851.6000000015,682857.353,685990.498,8,400,2,,ISIC_9301005.JPG
break,html.Screen,4_51_1,2023-09-12T20:17:56.078Z,,0,,,NaN,,,,,,false,,,,685976.9000000004,685976.3000000007,,685975.6000000015,,685990.498,8,400,,,
break_continue,html.Screen,4_51_2,2023-09-12T20:17:56.079Z,,0,,,NaN,,,,,,false,,,,685977.8000000007,685977.4000000004,,685977.2000000011,,685990.498,8,400,,,
sequence,flow.Sequence,4_51,2023-09-12T20:17:56.080Z,,0,,,3120.0470000003697,completion,,,,,false,,,,685978.3000000007,685977.4000000004,682840.683,682851.6000000015,682857.353,685990.498,8,400,,,
trial,html.Screen,4_52_0,2023-09-12T20:18:00.644Z,,0,2,,4551.802000000724,response,ISIC_0011964.JPG,5,ISIC_0072953.JPG,ISIC_0011964.JPG,false,1,keypress(m),500,690542.8000000007,690542.3000000007,685973.843,685978.6000000015,685990.498,690556.926,8,400,3,,ISIC_0072953.JPG
break,html.Screen,4_52_1,2023-09-12T20:18:00.646Z,,0,,,NaN,,,,,,false,,,,690544.7000000011,690544.2000000011,,690543.4000000004,,690556.926,8,400,,,
break_continue,html.Screen,4_52_2,2023-09-12T20:18:00.647Z,,0,,,NaN,,,,,,false,,,,690545.8000000007,690545.4000000004,,690545.1000000015,,690556.926,8,400,,,
sequence,flow.Sequence,4_52,2023-09-12T20:18:00.648Z,,0,,,4554.902000000351,completion,,,,,false,,,,690546.4000000004,690545.4000000004,685973.843,685978.5,685990.498,690556.926,8,400,,,
trial,html.Screen,4_53_0,2023-09-12T20:18:04.235Z,,0,2,,3576.1740000015125,response,ISIC_0028883.JPG,5,ISIC_0013499.JPG,ISIC_0013499.JPG,false,0,keypress(z),500,694133.6000000015,694133.1000000015,690540.205,690546.7000000011,690556.926,694140.144,8,400,4,,ISIC_0028883.JPG
break,html.Screen,4_53_1,2023-09-12T20:18:04.237Z,,0,,,NaN,,,,,,false,,,,694135.4000000004,694134.9000000004,,694134.1000000015,,694140.144,8,400,,,
break_continue,html.Screen,4_53_2,2023-09-12T20:18:04.238Z,,0,,,NaN,,,,,,false,,,,694136.4000000004,694136,,694135.8000000007,,694140.144,8,400,,,
sequence,flow.Sequence,4_53,2023-09-12T20:18:04.239Z,,0,,,3579.0740000000224,completion,,,,,false,,,,694137.1000000015,694136,690540.205,690546.7000000011,690556.926,694140.144,8,400,,,
trial,html.Screen,4_54_0,2023-09-12T20:18:08.643Z,,0,2,,4401.256000000401,response,ISIC_6488658.JPG,5,ISIC_2904474.JPG,ISIC_2904474.JPG,false,0,keypress(z),500,698541.9000000004,698541.4000000004,694123.179,694137.6000000015,694140.144,698556.585,8,400,5,,ISIC_6488658.JPG
break,html.Screen,4_54_1,2023-09-12T20:18:08.645Z,,0,,,NaN,,,,,,false,,,,698543.5,698543,,698542.3000000007,,698556.585,8,400,,,
break_continue,html.Screen,4_54_2,2023-09-12T20:18:08.646Z,,0,,,NaN,,,,,,false,,,,698544.5,698544.2000000011,,698543.9000000004,,698556.585,8,400,,,
sequence,flow.Sequence,4_54,2023-09-12T20:18:08.647Z,,0,,,4404.0560000011465,completion,,,,,false,,,,698544.9000000004,698544.2000000011,694123.179,694137.5,694140.144,698556.585,8,400,,,
trial,html.Screen,4_55_0,2023-09-12T20:18:14.461Z,,0,2,,5802.81500000041,response,ISIC_0034076.JPG,4,ISIC_0033399.JPG,ISIC_0033399.JPG,false,0,keypress(z),500,704359.8000000007,704359.4000000004,698539.921,698545.4000000004,698556.585,704372.966,8,400,6,,ISIC_0034076.JPG
break,html.Screen,4_55_1,2023-09-12T20:18:14.463Z,,0,,,NaN,,,,,,false,,,,704361.6000000015,704361,,704360.3000000007,,704372.966,8,400,,,
break_continue,html.Screen,4_55_2,2023-09-12T20:18:14.464Z,,0,,,NaN,,,,,,false,,,,704362.4000000004,704362.1000000015,,704361.9000000004,,704372.966,8,400,,,
sequence,flow.Sequence,4_55,2023-09-12T20:18:14.464Z,,0,,,5805.515000001527,completion,,,,,false,,,,704362.8000000007,704362.1000000015,698539.921,698545.2000000011,698556.585,704372.966,8,400,,,
trial,html.Screen,4_56_0,2023-09-12T20:18:18.452Z,,0,2,,3976.9340000003576,response,ISIC_8748070.JPG,6,ISIC_4846741.JPG,ISIC_4846741.JPG,false,0,keypress(z),500,708350.5,708349.9000000004,704356.397,704363.2000000011,704372.966,708356.111,8,400,7,,ISIC_8748070.JPG
break,html.Screen,4_56_1,2023-09-12T20:18:18.454Z,,0,,,NaN,,,,,,false,,,,708352,708351.5,,708350.9000000004,,708356.111,8,400,,,
break_continue,html.Screen,4_56_2,2023-09-12T20:18:18.454Z,,0,,,NaN,,,,,,false,,,,708352.9000000004,708352.6000000015,,708352.4000000004,,708356.111,8,400,,,
sequence,flow.Sequence,4_56,2023-09-12T20:18:18.455Z,,0,,,3979.634000001475,completion,,,,,false,,,,708353.4000000004,708352.6000000015,704356.397,704363.2000000011,704372.966,708356.111,8,400,,,
trial,html.Screen,4_57_0,2023-09-12T20:18:22.954Z,,0,2,,4496.3889999999665,response,ISIC_5926550.JPG,4,ISIC_0025841.JPG,ISIC_0025841.JPG,false,0,keypress(z),500,712853.1000000015,712852.5,708339.249,708353.8000000007,708356.111,712855.883,8,400,8,,ISIC_5926550.JPG
break,html.Screen,4_57_1,2023-09-12T20:18:22.956Z,,0,,,NaN,,,,,,false,,,,712854.9000000004,712854.3000000007,,712853.6000000015,,712855.883,8,400,,,
break_continue,html.Screen,4_57_2,2023-09-12T20:18:22.957Z,,0,,,NaN,,,,,,false,,,,712855.8000000007,712855.4000000004,,712855.2000000011,,712855.883,8,400,,,
sequence,flow.Sequence,4_57,2023-09-12T20:18:22.958Z,,0,,,4499.289000000339,completion,,,,,false,,,,712856.7000000011,712855.4000000004,708339.249,708353.7000000011,708356.111,712855.883,8,400,,,
trial,html.Screen,4_58_0,2023-09-12T20:18:26.146Z,,0,2,,3188.2170000014594,response,ISIC_5820693.JPG,6,ISIC_4079108.JPG,ISIC_5820693.JPG,false,1,keypress(m),500,716044.6000000015,716044.1000000015,712839.252,712857.1000000015,712855.883,716055.756,8,400,9,,ISIC_4079108.JPG
break,html.Screen,4_58_1,2023-09-12T20:18:26.148Z,,0,,,NaN,,,,,,false,,,,716046.4000000004,716045.8000000007,,716045,,716055.756,8,400,,,
break_continue,html.Screen,4_58_2,2023-09-12T20:18:26.149Z,,0,,,NaN,,,,,,false,,,,716047.3000000007,716047,,716046.7000000011,,716055.756,8,400,,,
sequence,flow.Sequence,4_58,2023-09-12T20:18:26.149Z,,0,,,3191.1169999999693,completion,,,,,false,,,,716047.9000000004,716047,712839.252,712856.9000000004,712855.883,716055.756,8,400,,,
trial,html.Screen,4_59_0,2023-09-12T20:18:29.801Z,,0,2,,3643.544000000693,response,ISIC_2337786.JPG,5,ISIC_5835414.JPG,ISIC_5835414.JPG,false,0,keypress(z),500,719699.9000000004,719699.3000000007,716039.004,716048.2000000011,716055.756,719705.585,8,400,10,,ISIC_2337786.JPG
break,html.Screen,4_59_1,2023-09-12T20:18:29.803Z,,0,,,NaN,,,,,,false,,,,719701.5,719701,,719700.4000000004,,719705.585,8,400,,,
break_continue,html.Screen,4_59_2,2023-09-12T20:18:29.804Z,,0,,,NaN,,,,,,false,,,,719702.5,719702.1000000015,,719701.9000000004,,719705.585,8,400,,,
sequence,flow.Sequence,4_59,2023-09-12T20:18:29.805Z,,0,,,3646.344000001438,completion,,,,,false,,,,719703.2000000011,719702.1000000015,716039.004,716048.2000000011,716055.756,719705.585,8,400,,,
trial,html.Screen,4_60_0,2023-09-12T20:18:35.655Z,,0,2,,5848.115000001155,response,ISIC_0034211.JPG,7,ISIC_0071916.JPG,ISIC_0071916.JPG,false,0,keypress(z),500,725553.9000000004,725553.7000000011,719688.826,719703.5,719705.585,725572.349,8,400,11,,ISIC_0034211.JPG
break,html.Screen,4_60_1,2023-09-12T20:18:35.656Z,,0,,,NaN,,,,,,false,,,,725554.8000000007,725554.5,,725554.2000000011,,725572.349,8,400,,,
break_continue,html.Screen,4_60_2,2023-09-12T20:18:35.656Z,,0,,,NaN,,,,,,false,,,,725555,725555,,725554.9000000004,,725572.349,8,400,,,
sequence,flow.Sequence,4_60,2023-09-12T20:18:35.657Z,,0,,,5849.415000000037,completion,,,,,false,,,,725555.2000000011,725555,719688.826,719703.4000000004,719705.585,725572.349,8,400,,,
trial,html.Screen,4_61_0,2023-09-12T20:18:40.604Z,,0,2,,4929.451000000699,response,ISIC_0062026.JPG,6,ISIC_3663705.JPG,ISIC_3663705.JPG,false,0,keypress(z),500,730502.4000000004,730501.8000000007,725538.353,725555.3000000007,725572.349,730505.05,8,400,12,,ISIC_0062026.JPG
break,html.Screen,4_61_1,2023-09-12T20:18:40.606Z,,0,,,NaN,,,,,,false,,,,730504.2000000011,730503.7000000011,,730502.8000000007,,730505.05,8,400,,,
break_continue,html.Screen,4_61_2,2023-09-12T20:18:40.607Z,,0,,,NaN,,,,,,false,,,,730505.3000000007,730504.8000000007,,730504.5,,730505.05,8,400,,,
sequence,flow.Sequence,4_61,2023-09-12T20:18:40.608Z,,0,,,4932.451000000699,completion,,,,,false,,,,730506.1000000015,730504.8000000007,725538.353,725555.3000000007,725572.349,730505.05,8,400,,,
trial,html.Screen,4_62_0,2023-09-12T20:18:44.355Z,,0,2,,3748.150000001071,response,ISIC_9254641.JPG,4,ISIC_7084553.JPG,ISIC_7084553.JPG,false,0,keypress(z),500,734253.8000000007,734253.2000000011,730488.17,730506.5,730505.05,734271.632,8,400,13,,ISIC_9254641.JPG
break,html.Screen,4_62_1,2023-09-12T20:18:44.357Z,,0,,,NaN,,,,,,false,,,,734255.8000000007,734255.1000000015,,734254.3000000007,,734271.632,8,400,,,
break_continue,html.Screen,4_62_2,2023-09-12T20:18:44.358Z,,0,,,NaN,,,,,,false,,,,734256.7000000011,734256.5,,734256.2000000011,,734271.632,8,400,,,
sequence,flow.Sequence,4_62,2023-09-12T20:18:44.359Z,,0,,,3751.4499999999534,completion,,,,,false,,,,734257.3000000007,734256.5,730488.17,730506.4000000004,730505.05,734271.632,8,400,,,
trial,html.Screen,4_63_0,2023-09-12T20:18:49.695Z,,0,2,,5320.968000001507,response,ISIC_9453737.JPG,5,ISIC_0007501.JPG,ISIC_9453737.JPG,false,1,keypress(m),500,739593,739592.6000000015,734254.797,734257.7000000011,734271.632,739604.644,8,400,14,,ISIC_0007501.JPG
break,html.Screen,4_63_1,2023-09-12T20:18:49.696Z,,0,,,NaN,,,,,,false,,,,739595,739594.4000000004,,739593.6000000015,,739604.644,8,400,,,
break_continue,html.Screen,4_63_2,2023-09-12T20:18:49.697Z,,0,,,NaN,,,,,,false,,,,739595.9000000004,739595.6000000015,,739595.3000000007,,739604.644,8,400,,,
sequence,flow.Sequence,4_63,2023-09-12T20:18:49.698Z,,0,,,5323.968000001507,completion,,,,,false,,,,739596.4000000004,739595.6000000015,734254.797,734257.6000000015,734271.632,739604.644,8,400,,,
trial,html.Screen,4_64_0,2023-09-12T20:18:52.952Z,,0,2,,3245.2560000004014,response,ISIC_0033476.JPG,5,ISIC_0003217.JPG,ISIC_0003217.JPG,false,0,keypress(z),500,742850.4000000004,742849.9000000004,739587.694,739596.7000000011,739604.644,742854.472,8,400,15,,ISIC_0033476.JPG
break,html.Screen,4_64_1,2023-09-12T20:18:52.953Z,,0,,,NaN,,,,,,false,,,,742852.1000000015,742851.5,,742850.9000000004,,742854.472,8,400,,,
break_continue,html.Screen,4_64_2,2023-09-12T20:18:52.954Z,,0,,,NaN,,,,,,false,,,,742853,742852.7000000011,,742852.4000000004,,742854.472,8,400,,,
sequence,flow.Sequence,4_64,2023-09-12T20:18:52.955Z,,0,,,3248.0560000011465,completion,,,,,false,,,,742853.5,742852.7000000011,739587.694,739596.6000000015,739604.644,742854.472,8,400,,,
trial,html.Screen,4_65_0,2023-09-12T20:18:56.177Z,,0,2,,3220.6280000015395,response,ISIC_6380209.JPG,5,ISIC_0032687.JPG,ISIC_6380209.JPG,false,1,keypress(m),500,746075.6000000015,746075.1000000015,742837.74,742853.8000000007,742854.472,746087.658,8,400,16,,ISIC_0032687.JPG
break,html.Screen,4_65_1,2023-09-12T20:18:56.179Z,,0,,,NaN,,,,,,false,,,,746077.6000000015,746077,,746076.1000000015,,746087.658,8,400,,,
break_continue,html.Screen,4_65_2,2023-09-12T20:18:56.180Z,,0,,,NaN,,,,,,false,,,,746078.5,746078.1000000015,,746077.9000000004,,746087.658,8,400,,,
sequence,flow.Sequence,4_65,2023-09-12T20:18:56.180Z,,0,,,3223.6280000015395,completion,,,,,false,,,,746079,746078.1000000015,742837.74,742853.7000000011,742854.472,746087.658,8,400,,,
trial,html.Screen,4_66_0,2023-09-12T20:18:59.678Z,,0,2,,3488.642000000691,response,ISIC_0029630.JPG,6,ISIC_2583592.JPG,ISIC_2583592.JPG,false,0,keypress(z),500,749576.8000000007,749576.3000000007,746070.91,746079.4000000004,746087.658,749604.207,8,400,17,,ISIC_0029630.JPG
break,html.Screen,4_66_1,2023-09-12T20:18:59.680Z,,0,,,NaN,,,,,,false,,,,749578.4000000004,749577.9000000004,,749577.3000000007,,749604.207,8,400,,,
break_continue,html.Screen,4_66_2,2023-09-12T20:18:59.681Z,,0,,,NaN,,,,,,false,,,,749579.3000000007,749578.9000000004,,749578.6000000015,,749604.207,8,400,,,
sequence,flow.Sequence,4_66,2023-09-12T20:18:59.681Z,,0,,,3491.2420000003185,completion,,,,,false,,,,749579.7000000011,749578.9000000004,746070.91,746079.3000000007,746087.658,749604.207,8,400,,,
trial,html.Screen,4_67_0,2023-09-12T20:19:03.865Z,,0,2,,4158.9930000010645,response,ISIC_4081632.JPG,5,ISIC_6613150.JPG,ISIC_4081632.JPG,false,1,keypress(m),500,753763.4000000004,753763.2000000011,749587.87,749580.1000000015,749604.207,753770.67,8,400,18,,ISIC_6613150.JPG
break,html.Screen,4_67_1,2023-09-12T20:19:03.865Z,,0,,,NaN,,,,,,false,,,,753764.1000000015,753763.8000000007,,753763.5,,753770.67,8,400,,,
break_continue,html.Screen,4_67_2,2023-09-12T20:19:03.866Z,,0,,,NaN,,,,,,false,,,,753764.3000000007,753764.2000000011,,753764.2000000011,,753770.67,8,400,,,
sequence,flow.Sequence,4_67,2023-09-12T20:19:03.866Z,,0,,,4159.9930000010645,completion,,,,,false,,,,753764.5,753764.2000000011,749587.87,749580.1000000015,749604.207,753770.67,8,400,,,
trial,html.Screen,4_68_0,2023-09-12T20:19:08.548Z,,0,2,,4675.230000000331,response,ISIC_9433388.JPG,5,ISIC_0068382.JPG,ISIC_9433388.JPG,false,1,keypress(m),500,758446.5,758445.9000000004,753754.061,753764.7000000011,753770.67,758453.755,8,400,19,,ISIC_0068382.JPG
break,html.Screen,4_68_1,2023-09-12T20:19:08.550Z,,0,,,NaN,,,,,,false,,,,758448.3000000007,758447.7000000011,,758446.9000000004,,758453.755,8,400,,,
break_continue,html.Screen,4_68_2,2023-09-12T20:19:08.551Z,,0,,,NaN,,,,,,false,,,,758449.2000000011,758448.8000000007,,758448.6000000015,,758453.755,8,400,,,
sequence,flow.Sequence,4_68,2023-09-12T20:19:08.551Z,,0,,,4678.130000000703,completion,,,,,false,,,,758449.7000000011,758448.8000000007,753754.061,753764.6000000015,753770.67,758453.755,8,400,,,
trial,html.Screen,4_69_0,2023-09-12T20:19:12.671Z,,0,2,,4115.445000001113,response,ISIC_0070419.JPG,5,ISIC_7903838.JPG,ISIC_7903838.JPG,false,0,keypress(z),500,762569.8000000007,762569.2000000011,758436.751,758450.1000000015,758453.755,762586.88,8,400,20,,ISIC_0070419.JPG
break,html.Screen,4_69_1,2023-09-12T20:19:12.673Z,,0,,,NaN,,,,,,false,,,,762571.8000000007,762571.3000000007,,762570.3000000007,,762586.88,8,400,,,
break_continue,html.Screen,4_69_2,2023-09-12T20:19:12.674Z,,0,,,NaN,,,,,,false,,,,762572.8000000007,762572.5,,762572.2000000011,,762586.88,8,400,,,
sequence,flow.Sequence,4_69,2023-09-12T20:19:12.675Z,,0,,,4118.744999999995,completion,,,,,false,,,,762573.3000000007,762572.5,758436.751,758450,758453.755,762586.88,8,400,,,
trial,html.Screen,4_70_0,2023-09-12T20:19:17.847Z,,0,2,,5157.820000001113,response,ISIC_0071069.JPG,5,ISIC_0021052.JPG,ISIC_0071069.JPG,false,1,keypress(m),500,767745.3000000007,767744.7000000011,762570.124,762573.6000000015,762586.88,767753.297,8,400,21,,ISIC_0021052.JPG
break,html.Screen,4_70_1,2023-09-12T20:19:17.849Z,,0,,,NaN,,,,,,false,,,,767747.2000000011,767746.5,,767745.7000000011,,767753.297,8,400,,,
break_continue,html.Screen,4_70_2,2023-09-12T20:19:17.849Z,,0,,,NaN,,,,,,false,,,,767748.1000000015,767747.7000000011,,767747.5,,767753.297,8,400,,,
sequence,flow.Sequence,4_70,2023-09-12T20:19:17.850Z,,0,,,5160.820000001113,completion,,,,,false,,,,767748.6000000015,767747.7000000011,762570.124,762573.5,762586.88,767753.297,8,400,,,
trial,html.Screen,4_71_0,2023-09-12T20:19:22.718Z,,0,2,,4862.2029999999795,response,ISIC_8051628.JPG,5,ISIC_6882582.JPG,ISIC_8051628.JPG,false,1,keypress(m),500,772616,772615.5,767736.337,767748.9000000004,767753.297,772636.769,8,400,22,,ISIC_6882582.JPG
break,html.Screen,4_71_1,2023-09-12T20:19:22.719Z,,0,,,NaN,,,,,,false,,,,772617.8000000007,772617.3000000007,,772616.5,,772636.769,8,400,,,
break_continue,html.Screen,4_71_2,2023-09-12T20:19:22.720Z,,0,,,NaN,,,,,,false,,,,772618.7000000011,772618.5,,772618.2000000011,,772636.769,8,400,,,
sequence,flow.Sequence,4_71,2023-09-12T20:19:22.721Z,,0,,,4865.2029999999795,completion,,,,,false,,,,772619.2000000011,772618.5,767736.337,767748.8000000007,767753.297,772636.769,8,400,,,
trial,html.Screen,4_72_0,2023-09-12T20:19:26.316Z,,0,2,,3577.1310000004014,response,ISIC_3912838.JPG,5,ISIC_3416107.JPG,ISIC_3912838.JPG,false,1,keypress(m),500,776214.4000000004,776213.9000000004,772619.742,772619.6000000015,772636.769,776219.569,8,400,23,,ISIC_3416107.JPG
break,html.Screen,4_72_1,2023-09-12T20:19:26.318Z,,0,,,NaN,,,,,,false,,,,776216.2000000011,776215.8000000007,,776214.9000000004,,776219.569,8,400,,,
break_continue,html.Screen,4_72_2,2023-09-12T20:19:26.319Z,,0,,,NaN,,,,,,false,,,,776217.2000000011,776216.9000000004,,776216.6000000015,,776219.569,8,400,,,
sequence,flow.Sequence,4_72,2023-09-12T20:19:26.319Z,,0,,,3580.1310000004014,completion,,,,,false,,,,776217.8000000007,776216.9000000004,772619.742,772619.4000000004,772636.769,776219.569,8,400,,,
trial,html.Screen,4_73_0,2023-09-12T20:19:30.812Z,,0,2,,4490.1310000011,response,ISIC_0031074.JPG,5,ISIC_6647306.JPG,ISIC_6647306.JPG,false,0,keypress(z),500,780710.4000000004,780709.7000000011,776202.832,776218.1000000015,776219.569,780719.295,8,400,24,,ISIC_0031074.JPG
break,html.Screen,4_73_1,2023-09-12T20:19:30.813Z,,0,,,NaN,,,,,,false,,,,780711.1000000015,780710.8000000007,,780710.5,,780719.295,8,400,,,
break_continue,html.Screen,4_73_2,2023-09-12T20:19:30.813Z,,0,,,NaN,,,,,,false,,,,780711.4000000004,780711.3000000007,,780711.1000000015,,780719.295,8,400,,,
sequence,flow.Sequence,4_73,2023-09-12T20:19:30.813Z,,0,,,4491.731000000727,completion,,,,,false,,,,780711.5,780711.3000000007,776202.832,776218,776219.569,780719.295,8,400,,,
trial,html.Screen,4_74_0,2023-09-12T20:19:36.613Z,,0,2,,5791.704999999958,response,ISIC_6066292.JPG,5,ISIC_5190920.JPG,ISIC_5190920.JPG,false,0,keypress(z),500,786511.5,786511,780702.639,780711.6000000015,780719.295,786519.087,8,400,25,,ISIC_6066292.JPG
break,html.Screen,4_74_1,2023-09-12T20:19:36.615Z,,0,,,NaN,,,,,,false,,,,786513.1000000015,786512.6000000015,,786511.9000000004,,786519.087,8,400,,,
break_continue,html.Screen,4_74_2,2023-09-12T20:19:36.615Z,,0,,,NaN,,,,,,false,,,,786513.8000000007,786513.5,,786513.3000000007,,786519.087,8,400,,,
sequence,flow.Sequence,4_74,2023-09-12T20:19:36.616Z,,0,,,5794.204999999958,completion,,,,,false,,,,786514.2000000011,786513.5,780702.639,780711.6000000015,780719.295,786519.087,8,400,,,
trial,html.Screen,4_75_0,2023-09-12T20:19:41.195Z,,0,2,,4574.013000001432,response,ISIC_6529073.JPG,6,ISIC_2077116.JPG,ISIC_2077116.JPG,false,0,keypress(z),500,791093.7000000011,791093.1000000015,786502.577,786514.5,786519.087,791102.202,8,400,26,,ISIC_6529073.JPG
break,html.Screen,4_75_1,2023-09-12T20:19:41.197Z,,0,,,NaN,,,,,,false,,,,791095.5,791094.9000000004,,791094.1000000015,,791102.202,8,400,,,
break_continue,html.Screen,4_75_2,2023-09-12T20:19:41.198Z,,0,,,NaN,,,,,,false,,,,791096.6000000015,791096.2000000011,,791095.9000000004,,791102.202,8,400,,,
sequence,flow.Sequence,4_75,2023-09-12T20:19:41.198Z,,0,,,4577.11300000106,completion,,,,,false,,,,791097,791096.2000000011,786502.577,786514.4000000004,786519.087,791102.202,8,400,,,
trial,html.Screen,4_76_0,2023-09-12T20:19:45.858Z,,0,2,,4653.498000001069,response,ISIC_0056900.JPG,5,ISIC_0010809.JPG,ISIC_0056900.JPG,false,1,keypress(m),500,795756.1000000015,795755.7000000011,791085.534,791097.4000000004,791102.202,795768.663,8,400,27,,ISIC_0010809.JPG
break,html.Screen,4_76_1,2023-09-12T20:19:45.860Z,,0,,,NaN,,,,,,false,,,,795758.1000000015,795757.6000000015,,795756.7000000011,,795768.663,8,400,,,
break_continue,html.Screen,4_76_2,2023-09-12T20:19:45.861Z,,0,,,NaN,,,,,,false,,,,795759,795758.7000000011,,795758.4000000004,,795768.663,8,400,,,
sequence,flow.Sequence,4_76,2023-09-12T20:19:45.861Z,,0,,,4656.498000001069,completion,,,,,false,,,,795759.5,795758.7000000011,791085.534,791097.3000000007,791102.202,795768.663,8,400,,,
trial,html.Screen,4_77_0,2023-09-12T20:19:50.014Z,,0,2,,4142.937000001548,response,ISIC_0064261.JPG,5,ISIC_0062160.JPG,ISIC_0064261.JPG,false,1,keypress(m),500,799912.1000000015,799911.6000000015,795751.694,795759.8000000007,795768.663,799918.42,8,400,28,,ISIC_0062160.JPG
break,html.Screen,4_77_1,2023-09-12T20:19:50.015Z,,0,,,NaN,,,,,,false,,,,799913.9000000004,799913.4000000004,,799912.6000000015,,799918.42,8,400,,,
break_continue,html.Screen,4_77_2,2023-09-12T20:19:50.016Z,,0,,,NaN,,,,,,false,,,,799914.8000000007,799914.5,,799914.2000000011,,799918.42,8,400,,,
sequence,flow.Sequence,4_77,2023-09-12T20:19:50.017Z,,0,,,4145.837000000058,completion,,,,,false,,,,799915.3000000007,799914.5,795751.694,795759.8000000007,795768.663,799918.42,8,400,,,
trial,html.Screen,4_78_0,2023-09-12T20:19:54.763Z,,0,2,,4742.280000001076,response,ISIC_0008447.JPG,5,ISIC_1216201.JPG,ISIC_0008447.JPG,false,1,keypress(m),500,804661.3000000007,804660.7000000011,799901.523,799915.8000000007,799918.42,804668.226,8,400,29,,ISIC_1216201.JPG
break,html.Screen,4_78_1,2023-09-12T20:19:54.765Z,,0,,,NaN,,,,,,false,,,,804663.2000000011,804662.7000000011,,804661.8000000007,,804668.226,8,400,,,
break_continue,html.Screen,4_78_2,2023-09-12T20:19:54.766Z,,0,,,NaN,,,,,,false,,,,804664.1000000015,804663.8000000007,,804663.5,,804668.226,8,400,,,
sequence,flow.Sequence,4_78,2023-09-12T20:19:54.766Z,,0,,,4745.380000000703,completion,,,,,false,,,,804664.6000000015,804663.8000000007,799901.523,799915.6000000015,799918.42,804668.226,8,400,,,
trial,html.Screen,4_79_0,2023-09-12T20:19:58.514Z,,0,2,,3743.6740000003483,response,ISIC_7246852.JPG,5,ISIC_4350093.JPG,ISIC_7246852.JPG,false,1,keypress(m),500,808412.4000000004,808411.9000000004,804651.492,804665,804668.226,808418.061,8,400,30,,ISIC_4350093.JPG
break,html.Screen,4_79_1,2023-09-12T20:19:58.516Z,,0,,,NaN,,,,,,false,,,,808414.3000000007,808413.7000000011,,808412.9000000004,,808418.061,8,400,,,
break_continue,html.Screen,4_79_2,2023-09-12T20:19:58.517Z,,0,,,NaN,,,,,,false,,,,808415.2000000011,808414.9000000004,,808414.6000000015,,808418.061,8,400,,,
sequence,flow.Sequence,4_79,2023-09-12T20:19:58.517Z,,0,,,3746.6740000003483,completion,,,,,false,,,,808415.7000000011,808414.9000000004,804651.492,804664.9000000004,804668.226,808418.061,8,400,,,
trial,html.Screen,4_80_0,2023-09-12T20:20:03.213Z,,0,2,,4693.039000001503,response,ISIC_0027659.JPG,5,ISIC_8071637.JPG,ISIC_8071637.JPG,false,0,keypress(z),500,813111.7000000011,813111.1000000015,808401.167,808416,808418.061,813117.884,8,400,31,,ISIC_0027659.JPG
break,html.Screen,4_80_1,2023-09-12T20:20:03.215Z,,0,,,NaN,,,,,,false,,,,813113.5,813112.9000000004,,813112.2000000011,,813117.884,8,400,,,
break_continue,html.Screen,4_80_2,2023-09-12T20:20:03.216Z,,0,,,NaN,,,,,,false,,,,813114.6000000015,813114.2000000011,,813114,,813117.884,8,400,,,
sequence,flow.Sequence,4_80,2023-09-12T20:20:03.217Z,,0,,,4696.139000001131,completion,,,,,false,,,,813115.1000000015,813114.2000000011,808401.167,808416,808418.061,813117.884,8,400,,,
trial,html.Screen,4_81_0,2023-09-12T20:20:07.637Z,,0,2,,4417.216000001528,response,ISIC_6178099.JPG,5,ISIC_1445277.JPG,ISIC_1445277.JPG,false,0,keypress(z),500,817535.6000000015,817535.1000000015,813101.192,813115.6000000015,813117.884,817550.957,8,400,32,,ISIC_6178099.JPG
break,html.Screen,4_81_1,2023-09-12T20:20:07.639Z,,0,,,NaN,,,,,,false,,,,817537.3000000007,817536.8000000007,,817536.1000000015,,817550.957,8,400,,,
break_continue,html.Screen,4_81_2,2023-09-12T20:20:07.640Z,,0,,,NaN,,,,,,false,,,,817538.3000000007,817538,,817537.7000000011,,817550.957,8,400,,,
sequence,flow.Sequence,4_81,2023-09-12T20:20:07.640Z,,0,,,4420.116000000038,completion,,,,,false,,,,817538.8000000007,817538,813101.192,813115.4000000004,813117.884,817550.957,8,400,,,
trial,html.Screen,4_82_0,2023-09-12T20:20:12.748Z,,0,2,,5094.943000000319,response,ISIC_0025138.JPG,5,ISIC_2271767.JPG,ISIC_2271767.JPG,false,0,keypress(z),500,822646.3000000007,822645.9000000004,817534.005,817539.1000000015,817550.957,822650.709,8,400,33,,ISIC_0025138.JPG
break,html.Screen,4_82_1,2023-09-12T20:20:12.750Z,,0,,,NaN,,,,,,false,,,,822648.1000000015,822647.5,,822646.8000000007,,822650.709,8,400,,,
break_continue,html.Screen,4_82_2,2023-09-12T20:20:12.751Z,,0,,,NaN,,,,,,false,,,,822649.1000000015,822648.6000000015,,822648.3000000007,,822650.709,8,400,,,
sequence,flow.Sequence,4_82,2023-09-12T20:20:12.751Z,,0,,,5097.643000001437,completion,,,,,false,,,,822649.6000000015,822648.6000000015,817534.005,817539.1000000015,817550.957,822650.709,8,400,,,
trial,html.Screen,4_83_0,2023-09-12T20:20:17.012Z,,0,2,,4259.491000001086,response,ISIC_0010789.JPG,5,ISIC_9538419.JPG,ISIC_9538419.JPG,false,0,keypress(z),500,826910.5,826910.2000000011,822633.876,822650.4000000004,822650.709,826917.154,8,400,34,,ISIC_0010789.JPG
break,html.Screen,4_83_1,2023-09-12T20:20:17.013Z,,0,,,NaN,,,,,,false,,,,826911.2000000011,826910.9000000004,,826910.6000000015,,826917.154,8,400,,,
break_continue,html.Screen,4_83_2,2023-09-12T20:20:17.013Z,,0,,,NaN,,,,,,false,,,,826911.6000000015,826911.4000000004,,826911.4000000004,,826917.154,8,400,,,
sequence,flow.Sequence,4_83,2023-09-12T20:20:17.013Z,,0,,,4260.691000000341,completion,,,,,false,,,,826911.7000000011,826911.4000000004,822633.876,822650.2000000011,822650.709,826917.154,8,400,,,
trial,html.Screen,4_84_0,2023-09-12T20:20:20.263Z,,0,2,,3243.8460000000196,response,ISIC_0056444.JPG,4,ISIC_0066798.JPG,ISIC_0066798.JPG,false,0,keypress(z),500,830161.5,830161,826900.221,826911.9000000004,826917.154,830167.002,8,400,35,,ISIC_0056444.JPG
break,html.Screen,4_84_1,2023-09-12T20:20:20.265Z,,0,,,NaN,,,,,,false,,,,830163.4000000004,830162.9000000004,,830162,,830167.002,8,400,,,
break_continue,html.Screen,4_84_2,2023-09-12T20:20:20.266Z,,0,,,NaN,,,,,,false,,,,830164.4000000004,830164,,830163.8000000007,,830167.002,8,400,,,
sequence,flow.Sequence,4_84,2023-09-12T20:20:20.266Z,,0,,,3246.8460000000196,completion,,,,,false,,,,830164.8000000007,830164,826900.221,826911.8000000007,826917.154,830167.002,8,400,,,
trial,html.Screen,4_85_0,2023-09-12T20:20:23.470Z,,0,2,,3200.7980000007665,response,ISIC_0015136.JPG,5,ISIC_6056121.JPG,ISIC_6056121.JPG,false,0,keypress(z),500,833368.3000000007,833367.8000000007,830150.443,830165.2000000011,830167.002,833383.626,8,400,36,,ISIC_0015136.JPG
break,html.Screen,4_85_1,2023-09-12T20:20:23.471Z,,0,,,NaN,,,,,,false,,,,833370,833369.5,,833368.8000000007,,833383.626,8,400,,,
break_continue,html.Screen,4_85_2,2023-09-12T20:20:23.472Z,,0,,,NaN,,,,,,false,,,,833370.9000000004,833370.5,,833370.3000000007,,833383.626,8,400,,,
sequence,flow.Sequence,4_85,2023-09-12T20:20:23.473Z,,0,,,3203.4980000000214,completion,,,,,false,,,,833371.3000000007,833370.5,830150.443,830165.1000000015,830167.002,833383.626,8,400,,,
trial,html.Screen,4_86_0,2023-09-12T20:20:27.805Z,,0,2,,4319.07400000107,response,ISIC_0060972.JPG,5,ISIC_2894223.JPG,ISIC_2894223.JPG,false,0,keypress(z),500,837703.2000000011,837702.7000000011,833366.595,833371.6000000015,833383.626,837716.659,8,400,37,,ISIC_0060972.JPG
break,html.Screen,4_86_1,2023-09-12T20:20:27.806Z,,0,,,NaN,,,,,,false,,,,837705,837704.4000000004,,837703.7000000011,,837716.659,8,400,,,
break_continue,html.Screen,4_86_2,2023-09-12T20:20:27.807Z,,0,,,NaN,,,,,,false,,,,837705.8000000007,837705.5,,837705.3000000007,,837716.659,8,400,,,
sequence,flow.Sequence,4_86,2023-09-12T20:20:27.808Z,,0,,,4321.8739999999525,completion,,,,,false,,,,837706.3000000007,837705.5,833366.595,833371.6000000015,833383.626,837716.659,8,400,,,
trial,html.Screen,4_87_0,2023-09-12T20:20:31.444Z,,0,2,,3624.941000001505,response,ISIC_2394181.JPG,4,ISIC_5097947.JPG,ISIC_5097947.JPG,false,0,keypress(z),500,841342.1000000015,841341.6000000015,837699.893,837706.7000000011,837716.659,841349.834,8,400,38,,ISIC_2394181.JPG
break,html.Screen,4_87_1,2023-09-12T20:20:31.446Z,,0,,,NaN,,,,,,false,,,,841344.4000000004,841343.9000000004,,841343.2000000011,,841349.834,8,400,,,
break_continue,html.Screen,4_87_2,2023-09-12T20:20:31.447Z,,0,,,NaN,,,,,,false,,,,841345.3000000007,841345,,841344.7000000011,,841349.834,8,400,,,
sequence,flow.Sequence,4_87,2023-09-12T20:20:31.447Z,,0,,,3628.341000000015,completion,,,,,false,,,,841345.7000000011,841345,837699.893,837706.5,837716.659,841349.834,8,400,,,
trial,html.Screen,4_88_0,2023-09-12T20:20:36.491Z,,0,2,,5038.766000001458,response,ISIC_0024987.JPG,5,ISIC_0011995.JPG,ISIC_0011995.JPG,false,0,keypress(z),500,846389.1000000015,846388.6000000015,841333.081,841346,841349.834,846399.605,8,400,39,,ISIC_0024987.JPG
break,html.Screen,4_88_1,2023-09-12T20:20:36.492Z,,0,,,NaN,,,,,,false,,,,846390.8000000007,846390.2000000011,,846389.6000000015,,846399.605,8,400,,,
break_continue,html.Screen,4_88_2,2023-09-12T20:20:36.493Z,,0,,,NaN,,,,,,false,,,,846391.8000000007,846391.4000000004,,846391.2000000011,,846399.605,8,400,,,
sequence,flow.Sequence,4_88,2023-09-12T20:20:36.494Z,,0,,,5041.566000000341,completion,,,,,false,,,,846392.2000000011,846391.4000000004,841333.081,841346,841349.834,846399.605,8,400,,,
trial,html.Screen,4_89_0,2023-09-12T20:20:39.729Z,,0,2,,3227.6950000007637,response,ISIC_3296136.JPG,5,ISIC_1768733.JPG,ISIC_3296136.JPG,false,1,keypress(m),500,849627.9000000004,849627.3000000007,846382.854,846392.7000000011,846399.605,849632.767,8,400,40,,ISIC_1768733.JPG
break,html.Screen,4_89_1,2023-09-12T20:20:39.731Z,,0,,,NaN,,,,,,false,,,,849629.8000000007,849629.2000000011,,849628.4000000004,,849632.767,8,400,,,
break_continue,html.Screen,4_89_2,2023-09-12T20:20:39.732Z,,0,,,NaN,,,,,,false,,,,849630.7000000011,849630.4000000004,,849630.1000000015,,849632.767,8,400,,,
sequence,flow.Sequence,4_89,2023-09-12T20:20:39.733Z,,0,,,3230.795000000391,completion,,,,,false,,,,849631.2000000011,849630.4000000004,846382.854,846392.6000000015,846399.605,849632.767,8,400,,,
trial,html.Screen,4_90_0,2023-09-12T20:20:42.809Z,,0,2,,3074.5330000007525,response,ISIC_1253960.JPG,5,ISIC_0033946.JPG,ISIC_1253960.JPG,false,1,keypress(m),500,852707.8000000007,852707.3000000007,849615.849,849631.5,849632.767,852715.963,8,400,41,,ISIC_0033946.JPG
break,html.Screen,4_90_1,2023-09-12T20:20:42.811Z,,0,,,NaN,,,,,,false,,,,852709.8000000007,852709.2000000011,,852708.3000000007,,852715.963,8,400,,,
break_continue,html.Screen,4_90_2,2023-09-12T20:20:42.812Z,,0,,,NaN,,,,,,false,,,,852710.7000000011,852710.4000000004,,852710.1000000015,,852715.963,8,400,,,
sequence,flow.Sequence,4_90,2023-09-12T20:20:42.813Z,,0,,,3077.63300000038,completion,,,,,false,,,,852711.2000000011,852710.4000000004,849615.849,849631.5,849632.767,852715.963,8,400,,,
trial,html.Screen,4_91_0,2023-09-12T20:20:45.984Z,,0,2,,3166.2370000011288,response,ISIC_1758558.JPG,6,ISIC_9141065.JPG,ISIC_9141065.JPG,false,0,keypress(z),500,855883,855882.2000000011,852699.003,852711.6000000015,852715.963,855899.243,8,400,42,,ISIC_1758558.JPG
break,html.Screen,4_91_1,2023-09-12T20:20:45.986Z,,0,,,NaN,,,,,,false,,,,855884.7000000011,855884.2000000011,,855883.5,,855899.243,8,400,,,
break_continue,html.Screen,4_91_2,2023-09-12T20:20:45.987Z,,0,,,NaN,,,,,,false,,,,855885.7000000011,855885.3000000007,,855885.1000000015,,855899.243,8,400,,,
sequence,flow.Sequence,4_91,2023-09-12T20:20:45.988Z,,0,,,3169.3370000007562,completion,,,,,false,,,,855886.2000000011,855885.3000000007,852699.003,852711.5,852715.963,855899.243,8,400,,,
trial,html.Screen,4_92_0,2023-09-12T20:20:49.646Z,,0,2,,3644.8570000014734,response,ISIC_0046635.JPG,5,ISIC_0030873.JPG,ISIC_0046635.JPG,false,1,keypress(m),500,859544.4000000004,859544.1000000015,855882.404,855886.5,855899.243,859565.637,8,400,43,,ISIC_0030873.JPG
break,html.Screen,4_92_1,2023-09-12T20:20:49.647Z,,0,,,NaN,,,,,,false,,,,859545,859544.8000000007,,859544.5,,859565.637,8,400,,,
break_continue,html.Screen,4_92_2,2023-09-12T20:20:49.647Z,,0,,,NaN,,,,,,false,,,,859545.2000000011,859545.1000000015,,859545.1000000015,,859565.637,8,400,,,
sequence,flow.Sequence,4_92,2023-09-12T20:20:49.647Z,,0,,,3645.8570000014734,completion,,,,,false,,,,859545.4000000004,859545.1000000015,855882.404,855886.4000000004,855899.243,859565.637,8,400,,,
trial,html.Screen,4_93_0,2023-09-12T20:20:54.114Z,,0,2,,4446.263000000385,response,ISIC_5504560.JPG,6,ISIC_5877410.JPG,ISIC_5877410.JPG,false,0,keypress(z),500,864012.4000000004,864011.9000000004,859548.924,859545.5,859565.637,864015.419,8,400,44,,ISIC_5504560.JPG
break,html.Screen,4_93_1,2023-09-12T20:20:54.116Z,,0,,,NaN,,,,,,false,,,,864014.3000000007,864013.7000000011,,864012.8000000007,,864015.419,8,400,,,
break_continue,html.Screen,4_93_2,2023-09-12T20:20:54.117Z,,0,,,NaN,,,,,,false,,,,864015.2000000011,864014.8000000007,,864014.6000000015,,864015.419,8,400,,,
sequence,flow.Sequence,4_93,2023-09-12T20:20:54.118Z,,0,,,4449.163000000757,completion,,,,,false,,,,864016,864014.8000000007,859548.924,859545.5,859565.637,864015.419,8,400,,,
trial,html.Screen,4_94_0,2023-09-12T20:20:57.808Z,,0,2,,3690.0810000000056,response,ISIC_0071647.JPG,6,ISIC_3981425.JPG,ISIC_3981425.JPG,false,0,keypress(z),500,867706,867705.5,863998.837,864016.4000000004,864015.419,867715.264,8,400,45,,ISIC_0071647.JPG
break,html.Screen,4_94_1,2023-09-12T20:20:57.809Z,,0,,,NaN,,,,,,false,,,,867707.9000000004,867707.3000000007,,867706.5,,867715.264,8,400,,,
break_continue,html.Screen,4_94_2,2023-09-12T20:20:57.810Z,,0,,,NaN,,,,,,false,,,,867708.8000000007,867708.5,,867708.2000000011,,867715.264,8,400,,,
sequence,flow.Sequence,4_94,2023-09-12T20:20:57.811Z,,0,,,3693.0810000000056,completion,,,,,false,,,,867709.2000000011,867708.5,863998.837,864016.3000000007,864015.419,867715.264,8,400,,,
trial,html.Screen,4_95_0,2023-09-12T20:21:01.755Z,,0,2,,3937.5360000007786,response,ISIC_0014110.JPG,4,ISIC_7824688.JPG,ISIC_0014110.JPG,false,1,keypress(m),500,871653.4000000004,871652.8000000007,867698.292,867709.6000000015,867715.264,871665.083,8,400,46,,ISIC_7824688.JPG
break,html.Screen,4_95_1,2023-09-12T20:21:01.757Z,,0,,,NaN,,,,,,false,,,,871655.4000000004,871654.8000000007,,871654,,871665.083,8,400,,,
break_continue,html.Screen,4_95_2,2023-09-12T20:21:01.758Z,,0,,,NaN,,,,,,false,,,,871656.5,871656,,871655.8000000007,,871665.083,8,400,,,
sequence,flow.Sequence,4_95,2023-09-12T20:21:01.759Z,,0,,,3940.7360000000335,completion,,,,,false,,,,871657,871656,867698.292,867709.6000000015,867715.264,871665.083,8,400,,,
trial,html.Screen,4_96_0,2023-09-12T20:21:04.867Z,,0,2,,3100.017000001506,response,ISIC_4738636.JPG,5,ISIC_0067521.JPG,ISIC_4738636.JPG,false,1,keypress(m),500,874765.6000000015,874765.1000000015,871648.323,871657.4000000004,871665.083,874781.584,8,400,47,,ISIC_0067521.JPG
break,html.Screen,4_96_1,2023-09-12T20:21:04.869Z,,0,,,NaN,,,,,,false,,,,874767.3000000007,874766.8000000007,,874766.1000000015,,874781.584,8,400,,,
break_continue,html.Screen,4_96_2,2023-09-12T20:21:04.870Z,,0,,,NaN,,,,,,false,,,,874768.3000000007,874768,,874767.7000000011,,874781.584,8,400,,,
sequence,flow.Sequence,4_96,2023-09-12T20:21:04.870Z,,0,,,3102.917000000016,completion,,,,,false,,,,874768.7000000011,874768,871648.323,871657.3000000007,871665.083,874781.584,8,400,,,
trial,html.Screen,4_97_0,2023-09-12T20:21:08.842Z,,0,2,,3958.616000001086,response,ISIC_1043267.JPG,5,ISIC_0679781.JPG,ISIC_0679781.JPG,false,0,keypress(z),500,878740.8000000007,878740.2000000011,874764.722,874769.1000000015,874781.584,878748.072,8,400,48,,ISIC_1043267.JPG
break,html.Screen,4_97_1,2023-09-12T20:21:08.844Z,,0,,,NaN,,,,,,false,,,,878742.4000000004,878741.9000000004,,878741.2000000011,,878748.072,8,400,,,
break_continue,html.Screen,4_97_2,2023-09-12T20:21:08.845Z,,0,,,NaN,,,,,,false,,,,878743.3000000007,878743,,878742.7000000011,,878748.072,8,400,,,
sequence,flow.Sequence,4_97,2023-09-12T20:21:08.845Z,,0,,,3961.4159999999683,completion,,,,,false,,,,878743.7000000011,878743,874764.722,874769,874781.584,878748.072,8,400,,,
trial,html.Screen,4_98_0,2023-09-12T20:21:13.105Z,,0,2,,4254.927999999956,response,ISIC_5843614.JPG,6,ISIC_0025595.JPG,ISIC_0025595.JPG,false,0,keypress(z),500,883003.5,883003,878731.33,878744.1000000015,878748.072,883014.52,8,400,49,,ISIC_5843614.JPG
break,html.Screen,4_98_1,2023-09-12T20:21:13.107Z,,0,,,NaN,,,,,,false,,,,883005.3000000007,883004.8000000007,,883003.9000000004,,883014.52,8,400,,,
break_continue,html.Screen,4_98_2,2023-09-12T20:21:13.108Z,,0,,,NaN,,,,,,false,,,,883006.2000000011,883005.9000000004,,883005.6000000015,,883014.52,8,400,,,
sequence,flow.Sequence,4_98,2023-09-12T20:21:13.108Z,,0,,,4257.828000000329,completion,,,,,false,,,,883006.7000000011,883005.9000000004,878731.33,878744,878748.072,883014.52,8,400,,,
trial,html.Screen,4_99_0,2023-09-12T20:21:16.457Z,,0,2,,3340.4799999999814,response,ISIC_8637134.JPG,5,ISIC_0034107.JPG,ISIC_8637134.JPG,false,1,keypress(m),500,886355.5,886355,882997.79,883007,883014.52,886364.462,8,400,50,,ISIC_0034107.JPG
break,html.Screen,4_99_1,2023-09-12T20:21:26.450Z,,0,,,9999.465999999898,timeout,,,,,false,,,,896349.5,896347.708,886347.638,886355.9000000004,886364.462,896363.928,8,400,,,
break_continue,html.Screen,4_99_2,2023-09-12T20:21:31.161Z,,0,,,4644.072000000044,response,,,,,false,continue,keypress(Space),,901059.7000000011,901008,896347.708,896349.8000000007,896363.928,901063.602,8,400,,,
sequence,flow.Sequence,4_99,2023-09-12T20:21:31.161Z,,0,,,17993.47999999998,completion,,,,,false,,,,901060,901008,882997.79,883006.9000000004,883014.52,901063.602,8,400,,,
trial,html.Screen,4_100_0,2023-09-12T20:21:35.180Z,,0,3,,4014.5980000011623,response,ISIC_4350093.JPG,5,ISIC_0059170.JPG,ISIC_0059170.JPG,false,0,keypress(z),500,905078.9000000004,905078.2000000011,901044.294,901060.1000000015,901063.602,905096.796,8,400,1,,ISIC_4350093.JPG
break,html.Screen,4_100_1,2023-09-12T20:21:35.182Z,,0,,,NaN,,,,,,false,,,,905080.9000000004,905080.1000000015,,905079.4000000004,,905096.796,8,400,,,
break_continue,html.Screen,4_100_2,2023-09-12T20:21:35.183Z,,0,,,NaN,,,,,,false,,,,905081.9000000004,905081.5,,905081.2000000011,,905096.796,8,400,,,
sequence,flow.Sequence,4_100,2023-09-12T20:21:35.183Z,,0,,,4017.8980000000447,completion,,,,,false,,,,905082.4000000004,905081.5,901044.294,901060.1000000015,901063.602,905096.796,8,400,,,
trial,html.Screen,4_101_0,2023-09-12T20:21:38.675Z,,0,3,,3476.504000000772,response,ISIC_0029089.JPG,5,ISIC_2445765.JPG,ISIC_0029089.JPG,false,1,keypress(m),500,908573.8000000007,908573.3000000007,905079.794,905082.8000000007,905096.796,908580.027,8,400,2,,ISIC_2445765.JPG
break,html.Screen,4_101_1,2023-09-12T20:21:38.676Z,,0,,,NaN,,,,,,false,,,,908575.4000000004,908575,,908574.3000000007,,908580.027,8,400,,,
break_continue,html.Screen,4_101_2,2023-09-12T20:21:38.677Z,,0,,,NaN,,,,,,false,,,,908576.4000000004,908576.1000000015,,908575.8000000007,,908580.027,8,400,,,
sequence,flow.Sequence,4_101,2023-09-12T20:21:38.678Z,,0,,,3479.304000001517,completion,,,,,false,,,,908576.9000000004,908576.1000000015,905079.794,905082.7000000011,905096.796,908580.027,8,400,,,
trial,html.Screen,4_102_0,2023-09-12T20:21:42.088Z,,0,3,,3407.273000000743,response,ISIC_4156010.JPG,5,ISIC_4307626.JPG,ISIC_4156010.JPG,false,1,keypress(m),500,911987.4000000004,911987.3000000007,908563.251,908577.2000000011,908580.027,911996.416,8,400,3,,ISIC_4307626.JPG
break,html.Screen,4_102_1,2023-09-12T20:21:42.089Z,,0,,,NaN,,,,,,false,,,,911988.2000000011,911987.9000000004,,911987.6000000015,,911996.416,8,400,,,
break_continue,html.Screen,4_102_2,2023-09-12T20:21:42.090Z,,0,,,NaN,,,,,,false,,,,911988.6000000015,911988.5,,911988.3000000007,,911996.416,8,400,,,
sequence,flow.Sequence,4_102,2023-09-12T20:21:42.090Z,,0,,,3408.472999999998,completion,,,,,false,,,,911988.8000000007,911988.5,908563.251,908577.2000000011,908580.027,911996.416,8,400,,,
trial,html.Screen,4_103_0,2023-09-12T20:21:45.820Z,,0,3,,3721.984000000404,response,ISIC_5353986.JPG,5,ISIC_0313507.JPG,ISIC_0313507.JPG,false,0,keypress(z),500,915718.9000000004,915718.4000000004,911979.746,911988.9000000004,911996.416,915729.664,8,400,4,,ISIC_5353986.JPG
break,html.Screen,4_103_1,2023-09-12T20:21:45.822Z,,0,,,NaN,,,,,,false,,,,915720.7000000011,915720.1000000015,,915719.3000000007,,915729.664,8,400,,,
break_continue,html.Screen,4_103_2,2023-09-12T20:21:45.822Z,,0,,,NaN,,,,,,false,,,,915721.6000000015,915721.2000000011,,915720.9000000004,,915729.664,8,400,,,
sequence,flow.Sequence,4_103,2023-09-12T20:21:45.823Z,,0,,,3724.7840000011493,completion,,,,,false,,,,915722,915721.2000000011,911979.746,911988.9000000004,911996.416,915729.664,8,400,,,
trial,html.Screen,4_104_0,2023-09-12T20:21:50.546Z,,0,3,,4714.9360000015,response,ISIC_3374533.JPG,4,ISIC_4756979.JPG,ISIC_3374533.JPG,false,1,keypress(m),500,920444.8000000007,920444.6000000015,915712.652,915722.4000000004,915729.664,920463.683,8,400,5,,ISIC_4756979.JPG
break,html.Screen,4_104_1,2023-09-12T20:21:50.546Z,,0,,,NaN,,,,,,false,,,,920445.6000000015,920445.3000000007,,920445,,920463.683,8,400,,,
break_continue,html.Screen,4_104_2,2023-09-12T20:21:50.547Z,,0,,,NaN,,,,,,false,,,,920445.8000000007,920445.8000000007,,920445.7000000011,,920463.683,8,400,,,
sequence,flow.Sequence,4_104,2023-09-12T20:21:50.547Z,,0,,,4716.136000000755,completion,,,,,false,,,,920446,920445.8000000007,915712.652,915722.3000000007,915729.664,920463.683,8,400,,,
trial,html.Screen,4_105_0,2023-09-12T20:21:53.741Z,,0,3,,3175.317000000039,response,ISIC_5823292.JPG,6,ISIC_8624186.JPG,ISIC_8624186.JPG,false,0,keypress(z),500,923639.6000000015,923639,920429.41,920446.1000000015,920463.683,923645.938,8,400,6,,ISIC_5823292.JPG
break,html.Screen,4_105_1,2023-09-12T20:21:53.742Z,,0,,,NaN,,,,,,false,,,,923641.4000000004,923640.8000000007,,923640.1000000015,,923645.938,8,400,,,
break_continue,html.Screen,4_105_2,2023-09-12T20:21:53.743Z,,0,,,NaN,,,,,,false,,,,923642.3000000007,923642,,923641.7000000011,,923645.938,8,400,,,
sequence,flow.Sequence,4_105,2023-09-12T20:21:53.744Z,,0,,,3178.317000000039,completion,,,,,false,,,,923642.8000000007,923642,920429.41,920446,920463.683,923645.938,8,400,,,
trial,html.Screen,4_106_0,2023-09-12T20:21:57.029Z,,0,3,,3281.762000001152,response,ISIC_0072266.JPG,5,ISIC_0071857.JPG,ISIC_0072266.JPG,false,1,keypress(m),500,926928.2000000011,926927.7000000011,923628.945,923643.2000000011,923645.938,926945.895,8,400,7,,ISIC_0071857.JPG
break,html.Screen,4_106_1,2023-09-12T20:21:57.031Z,,0,,,NaN,,,,,,false,,,,926930.6000000015,926930,,926928.8000000007,,926945.895,8,400,,,
break_continue,html.Screen,4_106_2,2023-09-12T20:21:57.032Z,,0,,,NaN,,,,,,false,,,,926931.4000000004,926931.1000000015,,926930.8000000007,,926945.895,8,400,,,
sequence,flow.Sequence,4_106,2023-09-12T20:21:57.033Z,,0,,,3285.1620000015246,completion,,,,,false,,,,926931.9000000004,926931.1000000015,923628.945,923643.1000000015,923645.938,926945.895,8,400,,,
trial,html.Screen,4_107_0,2023-09-12T20:22:01.564Z,,0,3,,4517.104999999981,response,ISIC_4141315.JPG,4,ISIC_3791309.JPG,ISIC_4141315.JPG,false,1,keypress(m),500,931463.5,931463,926929.104,926932.3000000007,926945.895,931478.865,8,400,8,,ISIC_3791309.JPG
break,html.Screen,4_107_1,2023-09-12T20:22:01.566Z,,0,,,NaN,,,,,,false,,,,931465.2000000011,931464.7000000011,,931464,,931478.865,8,400,,,
break_continue,html.Screen,4_107_2,2023-09-12T20:22:01.567Z,,0,,,NaN,,,,,,false,,,,931466.2000000011,931465.8000000007,,931465.6000000015,,931478.865,8,400,,,
sequence,flow.Sequence,4_107,2023-09-12T20:22:01.568Z,,0,,,4519.905000000726,completion,,,,,false,,,,931466.7000000011,931465.8000000007,926929.104,926932.2000000011,926945.895,931478.865,8,400,,,
trial,html.Screen,4_108_0,2023-09-12T20:22:07.363Z,,0,3,,5782.735000001499,response,ISIC_0004789.JPG,6,ISIC_8872225.JPG,ISIC_8872225.JPG,false,0,keypress(z),500,937262.2000000011,937261.6000000015,931462.172,931467,931478.865,937278.625,8,400,9,,ISIC_0004789.JPG
break,html.Screen,4_108_1,2023-09-12T20:22:07.365Z,,0,,,NaN,,,,,,false,,,,937264,937263.5,,937262.8000000007,,937278.625,8,400,,,
break_continue,html.Screen,4_108_2,2023-09-12T20:22:07.366Z,,0,,,NaN,,,,,,false,,,,937264.9000000004,937264.6000000015,,937264.4000000004,,937278.625,8,400,,,
sequence,flow.Sequence,4_108,2023-09-12T20:22:07.366Z,,0,,,5785.735000001499,completion,,,,,false,,,,937265.4000000004,937264.6000000015,931462.172,931466.9000000004,931478.865,937278.625,8,400,,,
trial,html.Screen,4_109_0,2023-09-12T20:22:11.194Z,,0,3,,3814.0750000011176,response,ISIC_7895093.JPG,5,ISIC_0026278.JPG,ISIC_0026278.JPG,false,0,keypress(z),500,941093.2000000011,941092.7000000011,937262.004,937265.8000000007,937278.625,941112.269,8,400,10,,ISIC_7895093.JPG
break,html.Screen,4_109_1,2023-09-12T20:22:11.196Z,,0,,,NaN,,,,,,false,,,,941094.9000000004,941094.4000000004,,941093.7000000011,,941112.269,8,400,,,
break_continue,html.Screen,4_109_2,2023-09-12T20:22:11.197Z,,0,,,NaN,,,,,,false,,,,941096.1000000015,941095.7000000011,,941095.2000000011,,941112.269,8,400,,,
sequence,flow.Sequence,4_109,2023-09-12T20:22:11.198Z,,0,,,3817.0750000011176,completion,,,,,false,,,,941096.6000000015,941095.7000000011,937262.004,937265.7000000011,937278.625,941112.269,8,400,,,
trial,html.Screen,4_110_0,2023-09-12T20:22:14.916Z,,0,3,,3702.6310000004014,response,ISIC_0033893.JPG,5,ISIC_8447658.JPG,ISIC_8447658.JPG,false,0,keypress(z),500,944815.5,944814.9000000004,941078.267,941096.9000000004,941112.269,944828.258,8,400,11,,ISIC_0033893.JPG
break,html.Screen,4_110_1,2023-09-12T20:22:14.918Z,,0,,,NaN,,,,,,false,,,,944817.3000000007,944816.8000000007,,944816,,944828.258,8,400,,,
break_continue,html.Screen,4_110_2,2023-09-12T20:22:14.919Z,,0,,,NaN,,,,,,false,,,,944818.3000000007,944817.9000000004,,944817.7000000011,,944828.258,8,400,,,
sequence,flow.Sequence,4_110,2023-09-12T20:22:14.920Z,,0,,,3705.6310000004014,completion,,,,,false,,,,944818.6000000015,944817.9000000004,941078.267,941096.8000000007,941112.269,944828.258,8,400,,,
trial,html.Screen,4_111_0,2023-09-12T20:22:18.924Z,,0,3,,3993.8420000014594,response,ISIC_0032709.JPG,5,ISIC_5229861.JPG,ISIC_5229861.JPG,false,0,keypress(z),500,948822.8000000007,948822.1000000015,944811.634,944819.1000000015,944828.258,948828.086,8,400,12,,ISIC_0032709.JPG
break,html.Screen,4_111_1,2023-09-12T20:22:18.926Z,,0,,,NaN,,,,,,false,,,,948824.6000000015,948824,,948823.3000000007,,948828.086,8,400,,,
break_continue,html.Screen,4_111_2,2023-09-12T20:22:18.927Z,,0,,,NaN,,,,,,false,,,,948825.5,948825.1000000015,,948824.9000000004,,948828.086,8,400,,,
sequence,flow.Sequence,4_111,2023-09-12T20:22:18.927Z,,0,,,3996.8420000014594,completion,,,,,false,,,,948826,948825.1000000015,944811.634,944819,944828.258,948828.086,8,400,,,
trial,html.Screen,4_112_0,2023-09-12T20:22:21.827Z,,0,3,,2897.3140000003623,response,ISIC_3413138.JPG,5,ISIC_9063429.JPG,ISIC_3413138.JPG,false,1,keypress(m),500,951725.9000000004,951725.4000000004,948811.112,948826.3000000007,948828.086,951745.094,8,400,13,,ISIC_9063429.JPG
break,html.Screen,4_112_1,2023-09-12T20:22:21.829Z,,0,,,NaN,,,,,,false,,,,951727.8000000007,951727.2000000011,,951726.4000000004,,951745.094,8,400,,,
break_continue,html.Screen,4_112_2,2023-09-12T20:22:21.830Z,,0,,,NaN,,,,,,false,,,,951728.8000000007,951728.3000000007,,951728,,951745.094,8,400,,,
sequence,flow.Sequence,4_112,2023-09-12T20:22:21.831Z,,0,,,2900.214000000735,completion,,,,,false,,,,951729.3000000007,951728.3000000007,948811.112,948826.2000000011,948828.086,951745.094,8,400,,,
trial,html.Screen,4_113_0,2023-09-12T20:22:24.829Z,,0,3,,2981.506000001449,response,ISIC_0032149.JPG,5,ISIC_0010825.JPG,ISIC_0010825.JPG,false,0,keypress(z),500,954727.1000000015,954726.6000000015,951710.987,951729.7000000011,951745.094,954744.896,8,400,14,,ISIC_0032149.JPG
break,html.Screen,4_113_1,2023-09-12T20:22:24.831Z,,0,,,NaN,,,,,,false,,,,954729.2000000011,954728.7000000011,,954727.7000000011,,954744.896,8,400,,,
break_continue,html.Screen,4_113_2,2023-09-12T20:22:24.832Z,,0,,,NaN,,,,,,false,,,,954730.1000000015,954729.8000000007,,954729.6000000015,,954744.896,8,400,,,
sequence,flow.Sequence,4_113,2023-09-12T20:22:24.832Z,,0,,,2984.706000000704,completion,,,,,false,,,,954730.7000000011,954729.8000000007,951710.987,951729.6000000015,951745.094,954744.896,8,400,,,
trial,html.Screen,4_114_0,2023-09-12T20:22:28.340Z,,0,3,,3493.504000000423,response,ISIC_7333928.JPG,5,ISIC_0046659.JPG,ISIC_7333928.JPG,false,1,keypress(m),500,958238.9000000004,958238.4000000004,954727.842,954731,954744.896,958244.333,8,400,15,,ISIC_0046659.JPG
break,html.Screen,4_114_1,2023-09-12T20:22:28.342Z,,0,,,NaN,,,,,,false,,,,958240.7000000011,958240.2000000011,,958239.4000000004,,958244.333,8,400,,,
break_continue,html.Screen,4_114_2,2023-09-12T20:22:28.343Z,,0,,,NaN,,,,,,false,,,,958241.6000000015,958241.3000000007,,958241,,958244.333,8,400,,,
sequence,flow.Sequence,4_114,2023-09-12T20:22:28.344Z,,0,,,3496.4040000007953,completion,,,,,false,,,,958242.1000000015,958241.3000000007,954727.842,954730.9000000004,954744.896,958244.333,8,400,,,
trial,html.Screen,4_115_0,2023-09-12T20:22:31.355Z,,0,3,,3009.167000000016,response,ISIC_0028898.JPG,5,ISIC_5190484.JPG,ISIC_5190484.JPG,false,0,keypress(z),500,961254,961253.5,958227.567,958242.5,958244.333,961260.835,8,400,16,,ISIC_0028898.JPG
break,html.Screen,4_115_1,2023-09-12T20:22:31.357Z,,0,,,NaN,,,,,,false,,,,961255.8000000007,961255.3000000007,,961254.5,,961260.835,8,400,,,
break_continue,html.Screen,4_115_2,2023-09-12T20:22:31.358Z,,0,,,NaN,,,,,,false,,,,961256.8000000007,961256.4000000004,,961256.2000000011,,961260.835,8,400,,,
sequence,flow.Sequence,4_115,2023-09-12T20:22:31.359Z,,0,,,3012.0670000003884,completion,,,,,false,,,,961257.3000000007,961256.4000000004,958227.567,958242.4000000004,958244.333,961260.835,8,400,,,
trial,html.Screen,4_116_0,2023-09-12T20:22:34.531Z,,0,3,,3168.2650000015274,response,ISIC_1476361.JPG,5,ISIC_0031233.JPG,ISIC_1476361.JPG,false,1,keypress(m),500,964429.5,964429.1000000015,961244.125,961257.6000000015,961260.835,964444.023,8,400,17,,ISIC_0031233.JPG
break,html.Screen,4_116_1,2023-09-12T20:22:34.533Z,,0,,,NaN,,,,,,false,,,,964431.4000000004,964430.8000000007,,964430.1000000015,,964444.023,8,400,,,
break_continue,html.Screen,4_116_2,2023-09-12T20:22:34.534Z,,0,,,NaN,,,,,,false,,,,964432.2000000011,964431.9000000004,,964431.7000000011,,964444.023,8,400,,,
sequence,flow.Sequence,4_116,2023-09-12T20:22:34.534Z,,0,,,3171.06500000041,completion,,,,,false,,,,964432.7000000011,964431.9000000004,961244.125,961257.5,961260.835,964444.023,8,400,,,
trial,html.Screen,4_117_0,2023-09-12T20:22:38.831Z,,0,3,,4284.976999999955,response,ISIC_9716860.JPG,6,ISIC_0010350.JPG,ISIC_0010350.JPG,false,0,keypress(z),500,968729.5,968729,964427.408,964433.1000000015,964444.023,968743.814,8,400,18,,ISIC_9716860.JPG
break,html.Screen,4_117_1,2023-09-12T20:22:38.833Z,,0,,,NaN,,,,,,false,,,,968731.3000000007,968730.7000000011,,968730.1000000015,,968743.814,8,400,,,
break_continue,html.Screen,4_117_2,2023-09-12T20:22:38.834Z,,0,,,NaN,,,,,,false,,,,968732.2000000011,968731.9000000004,,968731.6000000015,,968743.814,8,400,,,
sequence,flow.Sequence,4_117,2023-09-12T20:22:38.834Z,,0,,,4287.877000000328,completion,,,,,false,,,,968732.7000000011,968731.9000000004,964427.408,964433,964444.023,968743.814,8,400,,,
trial,html.Screen,4_118_0,2023-09-12T20:22:42.199Z,,0,3,,3352.786000001477,response,ISIC_0062025.JPG,5,ISIC_8892236.JPG,ISIC_8892236.JPG,false,0,keypress(z),500,972097.2000000011,972096.6000000015,968726.861,968733.1000000015,968743.814,972110.322,8,400,19,,ISIC_0062025.JPG
break,html.Screen,4_118_1,2023-09-12T20:22:42.201Z,,0,,,NaN,,,,,,false,,,,972099.2000000011,972098.6000000015,,972097.7000000011,,972110.322,8,400,,,
break_continue,html.Screen,4_118_2,2023-09-12T20:22:42.202Z,,0,,,NaN,,,,,,false,,,,972100,972099.7000000011,,972099.4000000004,,972110.322,8,400,,,
sequence,flow.Sequence,4_118,2023-09-12T20:22:42.202Z,,0,,,3355.8860000011045,completion,,,,,false,,,,972100.5,972099.7000000011,968726.861,968733,968743.814,972110.322,8,400,,,
trial,html.Screen,4_119_0,2023-09-12T20:22:46.525Z,,0,3,,4312.778000001446,response,ISIC_0033211.JPG,4,ISIC_0030910.JPG,ISIC_0033211.JPG,false,1,keypress(m),500,976423.6000000015,976423.1000000015,972093.625,972100.9000000004,972110.322,976426.811,8,400,20,,ISIC_0030910.JPG
break,html.Screen,4_119_1,2023-09-12T20:22:46.527Z,,0,,,NaN,,,,,,false,,,,976425.4000000004,976424.9000000004,,976424.1000000015,,976426.811,8,400,,,
break_continue,html.Screen,4_119_2,2023-09-12T20:22:46.528Z,,0,,,NaN,,,,,,false,,,,976426.3000000007,976426,,976425.7000000011,,976426.811,8,400,,,
sequence,flow.Sequence,4_119,2023-09-12T20:22:46.528Z,,0,,,4315.677999999956,completion,,,,,false,,,,976426.7000000011,976426,972093.625,972100.8000000007,972110.322,976426.811,8,400,,,
trial,html.Screen,4_120_0,2023-09-12T20:22:50.292Z,,0,3,,3763.689000000013,response,ISIC_8995044.JPG,6,ISIC_0046315.JPG,ISIC_0046315.JPG,false,0,keypress(z),500,980190.8000000007,980190.5,976409.837,976427.3000000007,976426.811,980193.215,8,400,21,,ISIC_8995044.JPG
break,html.Screen,4_120_1,2023-09-12T20:22:50.293Z,,0,,,NaN,,,,,,false,,,,980191.6000000015,980191.3000000007,,980190.9000000004,,980193.215,8,400,,,
break_continue,html.Screen,4_120_2,2023-09-12T20:22:50.293Z,,0,,,NaN,,,,,,false,,,,980191.9000000004,980191.9000000004,,980191.7000000011,,980193.215,8,400,,,
sequence,flow.Sequence,4_120,2023-09-12T20:22:50.294Z,,0,,,3765.0890000003856,completion,,,,,false,,,,980192.1000000015,980191.9000000004,976409.837,976427.3000000007,976426.811,980193.215,8,400,,,
trial,html.Screen,4_121_0,2023-09-12T20:22:53.768Z,,0,3,,3472.2850000000326,response,ISIC_0066401.JPG,6,ISIC_0012435.JPG,ISIC_0012435.JPG,false,0,keypress(z),500,983666.1000000015,983665.5,980176.588,980192.2000000011,980193.215,983676.457,8,400,22,,ISIC_0066401.JPG
break,html.Screen,4_121_1,2023-09-12T20:22:53.769Z,,0,,,NaN,,,,,,false,,,,983667.7000000011,983667.2000000011,,983666.5,,983676.457,8,400,,,
break_continue,html.Screen,4_121_2,2023-09-12T20:22:53.770Z,,0,,,NaN,,,,,,false,,,,983668.7000000011,983668.3000000007,,983668.1000000015,,983676.457,8,400,,,
sequence,flow.Sequence,4_121,2023-09-12T20:22:53.771Z,,0,,,3475.0850000007777,completion,,,,,false,,,,983669.1000000015,983668.3000000007,980176.588,980192.1000000015,980193.215,983676.457,8,400,,,
trial,html.Screen,4_122_0,2023-09-12T20:22:57.265Z,,0,3,,3486.4430000003194,response,ISIC_3967213.JPG,6,ISIC_0030784.JPG,ISIC_3967213.JPG,false,1,keypress(m),500,987163.5,987162.9000000004,983659.783,983669.5,983676.457,987176.274,8,400,23,,ISIC_0030784.JPG
break,html.Screen,4_122_1,2023-09-12T20:22:57.267Z,,0,,,NaN,,,,,,false,,,,987165.3000000007,987164.8000000007,,987163.9000000004,,987176.274,8,400,,,
break_continue,html.Screen,4_122_2,2023-09-12T20:22:57.268Z,,0,,,NaN,,,,,,false,,,,987166.2000000011,987165.9000000004,,987165.6000000015,,987176.274,8,400,,,
sequence,flow.Sequence,4_122,2023-09-12T20:22:57.268Z,,0,,,3489.4430000003194,completion,,,,,false,,,,987166.7000000011,987165.9000000004,983659.783,983669.4000000004,983676.457,987176.274,8,400,,,
trial,html.Screen,4_123_0,2023-09-12T20:23:01.340Z,,0,3,,4061.926000001142,response,ISIC_8135931.JPG,5,ISIC_0952221.JPG,ISIC_0952221.JPG,false,0,keypress(z),500,991238.7000000011,991238.2000000011,987159.626,987167,987176.274,991242.746,8,400,24,,ISIC_8135931.JPG
break,html.Screen,4_123_1,2023-09-12T20:23:01.342Z,,0,,,NaN,,,,,,false,,,,991240.5,991240,,991239.2000000011,,991242.746,8,400,,,
break_continue,html.Screen,4_123_2,2023-09-12T20:23:01.343Z,,0,,,NaN,,,,,,false,,,,991241.4000000004,991241.1000000015,,991240.8000000007,,991242.746,8,400,,,
sequence,flow.Sequence,4_123,2023-09-12T20:23:01.343Z,,0,,,4064.8260000015143,completion,,,,,false,,,,991241.9000000004,991241.1000000015,987159.626,987167,987176.274,991242.746,8,400,,,
trial,html.Screen,4_124_0,2023-09-12T20:23:04.852Z,,0,3,,3506.9540000010747,response,ISIC_0014270.JPG,5,ISIC_0962787.JPG,ISIC_0962787.JPG,false,0,keypress(z),500,994750.2000000011,994749.7000000011,991226.032,991242.2000000011,991242.746,994759.274,8,400,25,,ISIC_0014270.JPG
break,html.Screen,4_124_1,2023-09-12T20:23:04.853Z,,0,,,NaN,,,,,,false,,,,994751.8000000007,994751.3000000007,,994750.7000000011,,994759.274,8,400,,,
break_continue,html.Screen,4_124_2,2023-09-12T20:23:04.854Z,,0,,,NaN,,,,,,false,,,,994752.9000000004,994752.5,,994752.2000000011,,994759.274,8,400,,,
sequence,flow.Sequence,4_124,2023-09-12T20:23:04.855Z,,0,,,3509.753999999957,completion,,,,,false,,,,994753.3000000007,994752.5,991226.032,991242.2000000011,991242.746,994759.274,8,400,,,
trial,html.Screen,4_125_0,2023-09-12T20:23:08.706Z,,0,3,,3844.3260000015143,response,ISIC_9822801.JPG,5,ISIC_0070351.JPG,ISIC_9822801.JPG,false,1,keypress(m),500,998604.2000000011,998603.6000000015,994742.561,994753.7000000011,994759.274,998609.063,8,400,26,,ISIC_0070351.JPG
break,html.Screen,4_125_1,2023-09-12T20:23:08.707Z,,0,,,NaN,,,,,,false,,,,998605.9000000004,998605.4000000004,,998604.6000000015,,998609.063,8,400,,,
break_continue,html.Screen,4_125_2,2023-09-12T20:23:08.708Z,,0,,,NaN,,,,,,false,,,,998606.8000000007,998606.5,,998606.3000000007,,998609.063,8,400,,,
sequence,flow.Sequence,4_125,2023-09-12T20:23:08.709Z,,0,,,3847.226000000024,completion,,,,,false,,,,998607.2000000011,998606.5,994742.561,994753.6000000015,994759.274,998609.063,8,400,,,
