sender,sender_type,sender_id,timestamp,meta,,blockNo,condition,duration,ended_on,img_left,img_reveal,img_right,loser,practice,response,response_action,selection_duration,time_commit,time_end,time_render,time_run,time_show,time_switch,total_blocks,total_trials,trialNo,url,winner
informed_consent,html.Screen,0,2023-09-15T22:49:58.841Z,"{""labjs_version"":""20.2.4"",""labjs_build"":{""flavor"":""production"",""commit"":""f5b4a49f956347addd546a832a3327688c2c0fef""},""location"":""https://run.pavlovia.org/MurrayBennett/melanoma-2afc/?participant=66213&platform=sona"",""userAgent"":""Mozilla/5.0 (Windows NT 10.0; Win64; x64) AppleWebKit/537.36 (KHTML, like Gecko) Chrome/116.0.0.0 Safari/537.36 Edg/116.0.1938.81"",""platform"":""Win32"",""language"":""en-US"",""locale"":""en-US"",""timeZone"":""America/Chicago"",""timezoneOffset"":300,""screen_width"":1536,""screen_height"":864,""scroll_width"":1482,""scroll_height"":698,""window_innerWidth"":1482,""window_innerHeight"":746,""devicePixelRatio"":1.25}",,,,6986.846999904633,response,,,,,,consent,click button,,12552.400000095367,12549.599999904633,5546.076,5346.5,5562.753,12612.795,,,,"{""participant"":""66213"",""platform"":""sona""}",
Welcome,html.Screen,1,2023-09-15T22:50:04.744Z,,,,irregular,5840.904999809265,response,,,,,,continue,click button,,18455.199999809265,18453.699999809265,12546.146,12552.900000095367,12612.795,18463.021,,,,,
trial,html.Screen,2_0_0,2023-09-15T22:50:10.511Z,,0,0,,5758.978999999999,response,ISIC_0061792.JPG,,ISIC_4679428.JPG,ISIC_0061792.JPG,true,1,keypress(m),500,24222.5,24222,18446.192,18455.400000095367,18463.021,24229.509,1,6,1,,ISIC_4679428.JPG
sequence,flow.Sequence,2_0,2023-09-15T22:50:10.512Z,,0,,,5758.978999999999,completion,,,,,true,,,,24222.900000095367,24222,18446.192,18455.400000095367,18463.021,24229.509,1,6,,,
trial,html.Screen,2_1_0,2023-09-15T22:50:19.039Z,,0,0,,8520.491000000002,response,ISIC_5199497.JPG,,ISIC_0776486.JPG,ISIC_5199497.JPG,true,1,keypress(m),500,32750.5,32750,24212.944,24223.099999904633,24229.509,32762.797,1,6,2,,ISIC_0776486.JPG
sequence,flow.Sequence,2_1,2023-09-15T22:50:19.040Z,,0,,,8520.491000000002,completion,,,,,true,,,,32750.900000095367,32750,24212.944,24223.099999904633,24229.509,32762.797,1,6,,,
trial,html.Screen,2_2_0,2023-09-15T22:50:25.850Z,,0,0,,6797.802999904634,response,ISIC_2556187.JPG,,ISIC_8575776.JPG,ISIC_8575776.JPG,true,0,keypress(z),500,39561,39560.59999990463,32746.326,32751.099999904633,32762.797,39581.46,1,6,3,,ISIC_2556187.JPG
sequence,flow.Sequence,2_2,2023-09-15T22:50:25.850Z,,0,,,6797.802999904634,completion,,,,,true,,,,39561.40000009537,39560.59999990463,32746.326,32751,32762.797,39581.46,1,6,,,
trial,html.Screen,2_3_0,2023-09-15T22:50:29.439Z,,0,0,,3567.9400000953683,response,ISIC_9238366.JPG,,ISIC_8141769.JPG,ISIC_9238366.JPG,true,1,keypress(m),500,43149.90000009537,43149.40000009537,39546.874,39561.699999809265,39581.46,43163.037,1,6,4,,ISIC_8141769.JPG
sequence,flow.Sequence,2_3,2023-09-15T22:50:29.439Z,,0,,,3567.9400000953683,completion,,,,,true,,,,43150.5,43149.40000009537,39546.874,39561.59999990463,39581.46,43163.037,1,6,,,
trial,html.Screen,2_4_0,2023-09-15T22:50:34.028Z,,0,0,,4575.262999713901,response,ISIC_9959593.JPG,,ISIC_8949026.JPG,ISIC_8949026.JPG,true,0,keypress(z),500,47738.699999809265,47738.2999997139,43146.259,43150.90000009537,43163.037,47746.398,1,6,5,,ISIC_9959593.JPG
sequence,flow.Sequence,2_4,2023-09-15T22:50:34.028Z,,0,,,4575.262999713901,completion,,,,,true,,,,47739.09999990463,47738.2999997139,43146.259,43150.7999997139,43163.037,47746.398,1,6,,,
trial,html.Screen,2_5_0,2023-09-15T22:50:36.961Z,,0,0,,2925.0020000953664,response,ISIC_0010479.JPG,,ISIC_0460240.JPG,ISIC_0460240.JPG,true,0,keypress(z),500,50671.7999997139,50671.40000009537,47729.584,47739.2999997139,47746.398,50680.322,1,6,6,,ISIC_0010479.JPG
sequence,flow.Sequence,2_5,2023-09-15T22:50:36.961Z,,0,,,2925.0020000953664,completion,,,,,true,,,,50672.2999997139,50671.40000009537,47729.584,47739.199999809265,47746.398,50680.322,1,6,,,
loop,flow.Loop,2,2023-09-15T22:50:36.961Z,,,,,32208.379000095367,completion,,,,,true,,,,50672.5,50671.40000009537,18446.192,18455.400000095367,18463.021,50680.322,1,6,,,
exp_instructions,html.Screen,3,2023-09-15T22:50:38.600Z,,,,,1630.0780000953673,response,,,,,,continue,keypress(Space),,52311.59999990463,52310.40000009537,50663.149,50672.699999809265,50680.322,52331.918,,,,,
trial,html.Screen,4_0_0,2023-09-15T22:50:42.979Z,,0,1,,4357.781999809267,response,ISIC_5960765.JPG,8,ISIC_5798015.JPG,ISIC_5798015.JPG,false,0,keypress(z),500,56690,56689.699999809265,52296.775,52311.7999997139,52331.918,56696.367,8,400,1,,ISIC_5960765.JPG
break,html.Screen,4_0_1,2023-09-15T22:50:42.980Z,,0,,,NaN,,,,,,false,,,,56691.199999809265,56690.7999997139,,56690.199999809265,,56696.367,8,400,,,
break_continue,html.Screen,4_0_2,2023-09-15T22:50:42.981Z,,0,,,NaN,,,,,,false,,,,56691.699999809265,56691.5,,56691.40000009537,,56696.367,8,400,,,
sequence,flow.Sequence,4_0,2023-09-15T22:50:42.981Z,,0,,,4359.582000000002,completion,,,,,false,,,,56692,56691.5,52296.775,52311.699999809265,52331.918,56696.367,8,400,,,
trial,html.Screen,4_1_0,2023-09-15T22:50:49.110Z,,0,1,,6124.133000000002,response,ISIC_0250064.JPG,0,ISIC_0057988.JPG,ISIC_0057988.JPG,false,0,keypress(z),500,62820.699999809265,62820.5,56679.96,56692.09999990463,56696.367,62829.84,8,400,2,,ISIC_0250064.JPG
break,html.Screen,4_1_1,2023-09-15T22:50:49.111Z,,0,,,NaN,,,,,,false,,,,62822,62821.7999997139,,62821,,62829.84,8,400,,,
break_continue,html.Screen,4_1_2,2023-09-15T22:50:49.111Z,,0,,,NaN,,,,,,false,,,,62822.2999997139,62822.199999809265,,62822.09999990463,,62829.84,8,400,,,
sequence,flow.Sequence,4_1,2023-09-15T22:50:49.111Z,,0,,,6125.832999809267,completion,,,,,false,,,,62822.5,62822.199999809265,56679.96,56692,56696.367,62829.84,8,400,,,
trial,html.Screen,4_2_0,2023-09-15T22:50:53.442Z,,0,1,,4317.6600000000035,response,ISIC_0028584.JPG,13,ISIC_0028626.JPG,ISIC_0028626.JPG,false,0,keypress(z),500,67147.90000009537,67147.5,62814.714,62822.699999809265,62829.84,67163.264,8,400,3,,ISIC_0028584.JPG
break,html.Screen,4_2_1,2023-09-15T22:50:53.444Z,,0,,,NaN,,,,,,false,,,,67149.59999990463,67149.19999980927,,67148.2999997139,,67163.264,8,400,,,
break_continue,html.Screen,4_2_2,2023-09-15T22:50:53.445Z,,0,,,NaN,,,,,,false,,,,67150.19999980927,67150.09999990463,,67149.90000009537,,67163.264,8,400,,,
sequence,flow.Sequence,4_2,2023-09-15T22:50:53.445Z,,0,,,4320.259999904636,completion,,,,,false,,,,67150.2999997139,67150.09999990463,62814.714,62822.59999990463,62829.84,67163.264,8,400,,,
trial,html.Screen,4_3_0,2023-09-15T22:50:56.341Z,,0,1,,2883.4359998092696,response,ISIC_5307086.JPG,3,ISIC_4341261.JPG,ISIC_4341261.JPG,false,0,keypress(z),500,70047.09999990463,70046.69999980927,67146.563,67150.5,67163.264,70063.103,8,400,4,,ISIC_5307086.JPG
break,html.Screen,4_3_1,2023-09-15T22:50:56.342Z,,0,,,NaN,,,,,,false,,,,70048,70047.69999980927,,70047.2999997139,,70063.103,8,400,,,
break_continue,html.Screen,4_3_2,2023-09-15T22:50:56.343Z,,0,,,NaN,,,,,,false,,,,70048.40000009537,70048.19999980927,,70048.09999990463,,70063.103,8,400,,,
sequence,flow.Sequence,4_3,2023-09-15T22:50:56.343Z,,0,,,2884.9359998092696,completion,,,,,false,,,,70048.5,70048.19999980927,67146.563,67150.40000009537,67163.264,70063.103,8,400,,,
trial,html.Screen,4_4_0,2023-09-15T22:50:59.145Z,,0,1,,2786.696999713895,response,ISIC_6148533.JPG,15,ISIC_0024701.JPG,ISIC_6148533.JPG,false,1,keypress(m),500,72850.09999990463,72849.7999997139,70046.84,70048.69999980927,70063.103,72879.69,8,400,5,,ISIC_0024701.JPG
break,html.Screen,4_4_1,2023-09-15T22:50:59.146Z,,0,,,NaN,,,,,,false,,,,72851.5,72851.19999980927,,72850.5,,72879.69,8,400,,,
break_continue,html.Screen,4_4_2,2023-09-15T22:50:59.147Z,,0,,,NaN,,,,,,false,,,,72852.19999980927,72851.90000009537,,72851.7999997139,,72879.69,8,400,,,
sequence,flow.Sequence,4_4,2023-09-15T22:50:59.147Z,,0,,,2788.7970000953646,completion,,,,,false,,,,72852.5,72851.90000009537,70046.84,70048.59999990463,70063.103,72879.69,8,400,,,
trial,html.Screen,4_5_0,2023-09-15T22:51:02.770Z,,0,1,,3596.009999809263,response,ISIC_0010044.JPG,7,ISIC_9104982.JPG,ISIC_9104982.JPG,false,0,keypress(z),500,76476.09999990463,76475.69999980927,72863.142,72852.7999997139,72879.69,76479.871,8,400,6,,ISIC_0010044.JPG
break,html.Screen,4_5_1,2023-09-15T22:51:02.771Z,,0,,,NaN,,,,,,false,,,,76476.90000009537,76476.59999990463,,76476.2999997139,,76479.871,8,400,,,
break_continue,html.Screen,4_5_2,2023-09-15T22:51:02.772Z,,0,,,NaN,,,,,,false,,,,76477.2999997139,76477.09999990463,,76477,,76479.871,8,400,,,
sequence,flow.Sequence,4_5,2023-09-15T22:51:02.772Z,,0,,,3597.4099999046302,completion,,,,,false,,,,76477.5,76477.09999990463,72863.142,72852.69999980927,72879.69,76479.871,8,400,,,
trial,html.Screen,4_6_0,2023-09-15T22:51:06.175Z,,0,1,,3400.5290000953682,response,ISIC_6988514.JPG,9,ISIC_5573566.JPG,ISIC_5573566.JPG,false,0,keypress(z),500,79880.69999980927,79880.40000009537,76463.226,76477.59999990463,76479.871,79896.448,8,400,7,,ISIC_6988514.JPG
break,html.Screen,4_6_1,2023-09-15T22:51:06.176Z,,0,,,NaN,,,,,,false,,,,79881.69999980927,79881.5,,79881.09999990463,,79896.448,8,400,,,
break_continue,html.Screen,4_6_2,2023-09-15T22:51:06.177Z,,0,,,NaN,,,,,,false,,,,79882.2999997139,79882.09999990463,,79882,,79896.448,8,400,,,
sequence,flow.Sequence,4_6,2023-09-15T22:51:06.177Z,,0,,,3402.2289999046334,completion,,,,,false,,,,79882.5,79882.09999990463,76463.226,76477.5,76479.871,79896.448,8,400,,,
trial,html.Screen,4_7_0,2023-09-15T22:51:13.698Z,,0,1,,7507.051999999996,response,ISIC_8773962.JPG,30,ISIC_8160596.JPG,ISIC_8773962.JPG,false,1,keypress(m),500,87403.7999997139,87403.5,79879.96,79882.69999980927,79896.448,87413.734,8,400,8,,ISIC_8160596.JPG
break,html.Screen,4_7_1,2023-09-15T22:51:13.699Z,,0,,,NaN,,,,,,false,,,,87404.69999980927,87404.2999997139,,87403.90000009537,,87413.734,8,400,,,
break_continue,html.Screen,4_7_2,2023-09-15T22:51:13.699Z,,0,,,NaN,,,,,,false,,,,87405,87405,,87404.7999997139,,87413.734,8,400,,,
sequence,flow.Sequence,4_7,2023-09-15T22:51:13.700Z,,0,,,7508.551999999996,completion,,,,,false,,,,87405.19999980927,87405,79879.96,79882.59999990463,79896.448,87413.734,8,400,,,
trial,html.Screen,4_8_0,2023-09-15T22:51:23.676Z,,0,1,,9967.766000000003,response,ISIC_2740756.JPG,15,ISIC_0028986.JPG,ISIC_2740756.JPG,false,1,keypress(m),500,97381.7999997139,97381.5,87396.41,87405.19999980927,87413.734,97413.37,8,400,9,,ISIC_0028986.JPG
break,html.Screen,4_8_1,2023-09-15T22:51:23.677Z,,0,,,NaN,,,,,,false,,,,97382.69999980927,97382.59999990463,,97382.09999990463,,97413.37,8,400,,,
break_continue,html.Screen,4_8_2,2023-09-15T22:51:23.677Z,,0,,,NaN,,,,,,false,,,,97383.09999990463,97383,,97382.7999997139,,97413.37,8,400,,,
sequence,flow.Sequence,4_8,2023-09-15T22:51:23.678Z,,0,,,9969.266000000003,completion,,,,,false,,,,97383.2999997139,97383,87396.41,87405.19999980927,87413.734,97413.37,8,400,,,
trial,html.Screen,4_9_0,2023-09-15T22:51:32.658Z,,0,1,,8950.130000000005,response,ISIC_0002549.JPG,1,ISIC_0064471.JPG,ISIC_0002549.JPG,false,1,keypress(m),500,106363.7999997139,106363.5,97396.693,97383.40000009537,97413.37,106380.195,8,400,10,,ISIC_0064471.JPG
break,html.Screen,4_9_1,2023-09-15T22:51:32.659Z,,0,,,NaN,,,,,,false,,,,106365.09999990463,106364.59999990463,,106364.09999990463,,106380.195,8,400,,,
break_continue,html.Screen,4_9_2,2023-09-15T22:51:32.660Z,,0,,,NaN,,,,,,false,,,,106365.40000009537,106365.2999997139,,106365.19999980927,,106380.195,8,400,,,
sequence,flow.Sequence,4_9,2023-09-15T22:51:32.660Z,,0,,,8951.929999713902,completion,,,,,false,,,,106365.59999990463,106365.2999997139,97396.693,97383.40000009537,97413.37,106380.195,8,400,,,
trial,html.Screen,4_10_0,2023-09-15T22:51:39.371Z,,0,1,,6696.004999809258,response,ISIC_0069274.JPG,9,ISIC_6168754.JPG,ISIC_6168754.JPG,false,0,keypress(z),500,113076.5,113076.19999980927,106363.443,106365.7999997139,106380.195,113080.035,8,400,11,,ISIC_0069274.JPG
break,html.Screen,4_10_1,2023-09-15T22:51:39.372Z,,0,,,NaN,,,,,,false,,,,113077.2999997139,113077,,113076.69999980927,,113080.035,8,400,,,
break_continue,html.Screen,4_10_2,2023-09-15T22:51:39.372Z,,0,,,NaN,,,,,,false,,,,113077.7999997139,113077.59999990463,,113077.40000009537,,113080.035,8,400,,,
sequence,flow.Sequence,4_10,2023-09-15T22:51:39.372Z,,0,,,6697.404999904626,completion,,,,,false,,,,113078,113077.59999990463,106363.443,106365.69999980927,106380.195,113080.035,8,400,,,
trial,html.Screen,4_11_0,2023-09-15T22:51:45.873Z,,0,1,,6496.764999713894,response,ISIC_0015241.JPG,14,ISIC_0624779.JPG,ISIC_0624779.JPG,false,0,keypress(z),500,119578.19999980927,119576.7999997139,113063.453,113078.19999980927,113080.035,119600.412,8,400,12,,ISIC_0015241.JPG
break,html.Screen,4_11_1,2023-09-15T22:51:45.874Z,,0,,,NaN,,,,,,false,,,,119579.2999997139,119578.90000009537,,119578.5,,119600.412,8,400,,,
break_continue,html.Screen,4_11_2,2023-09-15T22:51:45.874Z,,0,,,NaN,,,,,,false,,,,119579.59999990463,119579.40000009537,,119579.40000009537,,119600.412,8,400,,,
sequence,flow.Sequence,4_11,2023-09-15T22:51:45.874Z,,0,,,6499.365000095364,completion,,,,,false,,,,119579.59999990463,119579.40000009537,113063.453,113078.19999980927,113080.035,119600.412,8,400,,,
trial,html.Screen,4_12_0,2023-09-15T22:51:54.025Z,,0,1,,8130.088000000003,response,ISIC_3655327.JPG,12,ISIC_5787517.JPG,ISIC_5787517.JPG,false,0,keypress(z),500,127730.90000009537,127730.5,119563.596,119579.7999997139,119600.412,127746.73,8,400,13,,ISIC_3655327.JPG
break,html.Screen,4_12_1,2023-09-15T22:51:54.026Z,,0,,,NaN,,,,,,false,,,,127732,127731.59999990463,,127731.09999990463,,127746.73,8,400,,,
break_continue,html.Screen,4_12_2,2023-09-15T22:51:54.027Z,,0,,,NaN,,,,,,false,,,,127732.2999997139,127732.19999980927,,127732.09999990463,,127746.73,8,400,,,
sequence,flow.Sequence,4_12,2023-09-15T22:51:54.027Z,,0,,,8131.7879998092685,completion,,,,,false,,,,127732.40000009537,127732.19999980927,119563.596,119579.69999980927,119600.412,127746.73,8,400,,,
trial,html.Screen,4_13_0,2023-09-15T22:51:58.768Z,,0,1,,4726.469999809269,response,ISIC_0068000.JPG,10,ISIC_1579745.JPG,ISIC_1579745.JPG,false,0,keypress(z),500,132473.5,132473.19999980927,127730.042,127732.5,127746.73,132480.34,8,400,14,,ISIC_0068000.JPG
break,html.Screen,4_13_1,2023-09-15T22:51:58.769Z,,0,,,NaN,,,,,,false,,,,132474.2999997139,132474.09999990463,,132473.69999980927,,132480.34,8,400,,,
break_continue,html.Screen,4_13_2,2023-09-15T22:51:58.769Z,,0,,,NaN,,,,,,false,,,,132474.59999990463,132474.5,,132474.40000009537,,132480.34,8,400,,,
sequence,flow.Sequence,4_13,2023-09-15T22:51:58.769Z,,0,,,4727.770000000004,completion,,,,,false,,,,132474.90000009537,132474.5,127730.042,127732.5,127746.73,132480.34,8,400,,,
trial,html.Screen,4_14_0,2023-09-15T22:52:04.372Z,,0,1,,5596.560000095371,response,ISIC_0025602.JPG,29,ISIC_0010283.JPG,ISIC_0025602.JPG,false,1,keypress(m),500,138077.09999990463,138076.90000009537,132463.497,132475,132480.34,138080.254,8,400,15,,ISIC_0010283.JPG
break,html.Screen,4_14_1,2023-09-15T22:52:04.372Z,,0,,,NaN,,,,,,false,,,,138078,138077.7999997139,,138077.5,,138080.254,8,400,,,
break_continue,html.Screen,4_14_2,2023-09-15T22:52:04.373Z,,0,,,NaN,,,,,,false,,,,138078.5,138078.40000009537,,138078.19999980927,,138080.254,8,400,,,
sequence,flow.Sequence,4_14,2023-09-15T22:52:04.373Z,,0,,,5598.060000095371,completion,,,,,false,,,,138078.5,138078.40000009537,132463.497,132474.90000009537,132480.34,138080.254,8,400,,,
trial,html.Screen,4_15_0,2023-09-15T22:52:12.397Z,,0,1,,8021.746000000014,response,ISIC_0056406.JPG,0,ISIC_8671702.JPG,ISIC_0056406.JPG,false,1,keypress(m),500,146102.2999997139,146102,138063.593,138078.69999980927,138080.254,146113.6,8,400,16,,ISIC_8671702.JPG
break,html.Screen,4_15_1,2023-09-15T22:52:12.398Z,,0,,,NaN,,,,,,false,,,,146103.09999990463,146102.90000009537,,146102.5,,146113.6,8,400,,,
break_continue,html.Screen,4_15_2,2023-09-15T22:52:12.398Z,,0,,,NaN,,,,,,false,,,,146103.59999990463,146103.5,,146103.40000009537,,146113.6,8,400,,,
sequence,flow.Sequence,4_15,2023-09-15T22:52:12.398Z,,0,,,8023.246000000014,completion,,,,,false,,,,146103.7999997139,146103.5,138063.593,138078.69999980927,138080.254,146113.6,8,400,,,
trial,html.Screen,4_16_0,2023-09-15T22:52:20.501Z,,0,1,,8092.800000095362,response,ISIC_0061509.JPG,2,ISIC_0046449.JPG,ISIC_0061509.JPG,false,1,keypress(m),500,154206.69999980927,154206.40000009537,146096.734,146103.90000009537,146113.6,154213.609,8,400,17,,ISIC_0046449.JPG
break,html.Screen,4_16_1,2023-09-15T22:52:20.503Z,,0,,,NaN,,,,,,false,,,,154208.19999980927,154208,,154207,,154213.609,8,400,,,
break_continue,html.Screen,4_16_2,2023-09-15T22:52:20.503Z,,0,,,NaN,,,,,,false,,,,154208.69999980927,154208.5,,154208.40000009537,,154213.609,8,400,,,
sequence,flow.Sequence,4_16,2023-09-15T22:52:20.503Z,,0,,,8094.899999999994,completion,,,,,false,,,,154209,154208.5,146096.734,146103.7999997139,146113.6,154213.609,8,400,,,
trial,html.Screen,4_17_0,2023-09-15T22:52:28.952Z,,0,1,,8443.891000000003,response,ISIC_4906385.JPG,10,ISIC_4255013.JPG,ISIC_4255013.JPG,false,0,keypress(z),500,162657.90000009537,162657.5,154197.524,154209.19999980927,154213.609,162664.056,8,400,18,,ISIC_4906385.JPG
break,html.Screen,4_17_1,2023-09-15T22:52:28.954Z,,0,,,NaN,,,,,,false,,,,162659.09999990463,162658.90000009537,,162658.09999990463,,162664.056,8,400,,,
break_continue,html.Screen,4_17_2,2023-09-15T22:52:28.954Z,,0,,,NaN,,,,,,false,,,,162659.40000009537,162659.2999997139,,162659.19999980927,,162664.056,8,400,,,
sequence,flow.Sequence,4_17,2023-09-15T22:52:28.954Z,,0,,,8445.690999713901,completion,,,,,false,,,,162659.59999990463,162659.2999997139,154197.524,154209.19999980927,154213.609,162664.056,8,400,,,
trial,html.Screen,4_18_0,2023-09-15T22:52:36.164Z,,0,1,,7204.943999999989,response,ISIC_0061491.JPG,19,ISIC_9323095.JPG,ISIC_9323095.JPG,false,0,keypress(z),500,169869.2999997139,169869,162647.134,162659.69999980927,162664.056,169880.34,8,400,19,,ISIC_0061491.JPG
break,html.Screen,4_18_1,2023-09-15T22:52:36.164Z,,0,,,NaN,,,,,,false,,,,169869.90000009537,169869.7999997139,,169869.40000009537,,169880.34,8,400,,,
break_continue,html.Screen,4_18_2,2023-09-15T22:52:36.165Z,,0,,,NaN,,,,,,false,,,,169870.5,169870.40000009537,,169870.2999997139,,169880.34,8,400,,,
sequence,flow.Sequence,4_18,2023-09-15T22:52:36.165Z,,0,,,7206.344000095356,completion,,,,,false,,,,169870.69999980927,169870.40000009537,162647.134,162659.69999980927,162664.056,169880.34,8,400,,,
trial,html.Screen,4_19_0,2023-09-15T22:52:44.418Z,,0,1,,8243.359999809269,response,ISIC_0013844.JPG,2,ISIC_0000287.JPG,ISIC_0000287.JPG,false,0,keypress(z),500,178123.90000009537,178123.69999980927,169864.031,169870.7999997139,169880.34,178130.428,8,400,20,,ISIC_0013844.JPG
break,html.Screen,4_19_1,2023-09-15T22:52:44.419Z,,0,,,NaN,,,,,,false,,,,178124.90000009537,178124.5,,178124.09999990463,,178130.428,8,400,,,
break_continue,html.Screen,4_19_2,2023-09-15T22:52:44.420Z,,0,,,NaN,,,,,,false,,,,178125.19999980927,178125.19999980927,,178124.90000009537,,178130.428,8,400,,,
sequence,flow.Sequence,4_19,2023-09-15T22:52:44.420Z,,0,,,8244.859999809269,completion,,,,,false,,,,178125.5,178125.19999980927,169864.031,169870.7999997139,169880.34,178130.428,8,400,,,
trial,html.Screen,4_20_0,2023-09-15T22:52:52.420Z,,0,1,,7994.671999904618,response,ISIC_5468164.JPG,10,ISIC_3922602.JPG,ISIC_5468164.JPG,false,1,keypress(m),500,186125.5,186125.09999990463,178113.976,178125.59999990463,178130.428,186130.463,8,400,21,,ISIC_3922602.JPG
break,html.Screen,4_20_1,2023-09-15T22:52:52.421Z,,0,,,NaN,,,,,,false,,,,186126.59999990463,186126.2999997139,,186125.7999997139,,186130.463,8,400,,,
break_continue,html.Screen,4_20_2,2023-09-15T22:52:52.421Z,,0,,,NaN,,,,,,false,,,,186127.09999990463,186126.90000009537,,186126.69999980927,,186130.463,8,400,,,
sequence,flow.Sequence,4_20,2023-09-15T22:52:52.422Z,,0,,,7996.472000095353,completion,,,,,false,,,,186127.19999980927,186126.90000009537,178113.976,178125.5,178130.428,186130.463,8,400,,,
trial,html.Screen,4_21_0,2023-09-15T22:53:03.910Z,,0,1,,11516.695000000007,timeout,ISIC_0006850.JPG,15,ISIC_0073238.JPG,,false,,,500,197615.5,197615.19999980927,186113.829,186127.40000009537,186130.463,197647.158,8,400,22,,
break,html.Screen,4_21_1,2023-09-15T22:53:03.911Z,,0,,,NaN,,,,,,false,,,,197616.19999980927,197616.09999990463,,197615.69999980927,,197647.158,8,400,,,
break_continue,html.Screen,4_21_2,2023-09-15T22:53:03.911Z,,0,,,NaN,,,,,,false,,,,197616.59999990463,197616.5,,197616.40000009537,,197647.158,8,400,,,
sequence,flow.Sequence,4_21,2023-09-15T22:53:03.911Z,,0,,,11486.037000000011,completion,,,,,false,,,,197616.69999980927,197616.5,186113.829,186127.40000009537,186130.463,197647.158,8,400,,,
trial,html.Screen,4_22_0,2023-09-15T22:53:09.753Z,,0,1,,5810.742000095372,response,ISIC_7428248.JPG,5,ISIC_0010783.JPG,ISIC_7428248.JPG,false,1,keypress(m),500,203458.2999997139,203457.90000009537,197630.485,197617,197647.158,203463.989,8,400,23,,ISIC_0010783.JPG
break,html.Screen,4_22_1,2023-09-15T22:53:09.754Z,,0,,,NaN,,,,,,false,,,,203459.69999980927,203459.2999997139,,203458.5,,203463.989,8,400,,,
break_continue,html.Screen,4_22_2,2023-09-15T22:53:09.755Z,,0,,,NaN,,,,,,false,,,,203460.19999980927,203460.09999990463,,203459.90000009537,,203463.989,8,400,,,
sequence,flow.Sequence,4_22,2023-09-15T22:53:09.755Z,,0,,,5812.941999904637,completion,,,,,false,,,,203460.2999997139,203460.09999990463,197630.485,197616.90000009537,197647.158,203463.989,8,400,,,
trial,html.Screen,4_23_0,2023-09-15T22:53:14.307Z,,0,1,,4548.510999999999,response,ISIC_4624973.JPG,7,ISIC_0071040.JPG,ISIC_4624973.JPG,false,1,keypress(m),500,208013,208012.5,203447.372,203460.5,203463.989,208030.539,8,400,24,,ISIC_0071040.JPG
break,html.Screen,4_23_1,2023-09-15T22:53:14.309Z,,0,,,NaN,,,,,,false,,,,208014.40000009537,208013.69999980927,,208013.19999980927,,208030.539,8,400,,,
break_continue,html.Screen,4_23_2,2023-09-15T22:53:14.309Z,,0,,,NaN,,,,,,false,,,,208015.09999990463,208015,,208014.69999980927,,208030.539,8,400,,,
sequence,flow.Sequence,4_23,2023-09-15T22:53:14.310Z,,0,,,4551.010999999999,completion,,,,,false,,,,208015.2999997139,208015,203447.372,203460.5,203463.989,208030.539,8,400,,,
trial,html.Screen,4_24_0,2023-09-15T22:53:20.687Z,,0,1,,6361.560999904643,response,ISIC_7623407.JPG,26,ISIC_0031079.JPG,ISIC_0031079.JPG,false,0,keypress(z),500,214392.40000009537,214392.09999990463,207997.868,208015.40000009537,208030.539,214397.557,8,400,25,,ISIC_7623407.JPG
break,html.Screen,4_24_1,2023-09-15T22:53:20.688Z,,0,,,NaN,,,,,,false,,,,214393.2999997139,214393,,214392.59999990463,,214397.557,8,400,,,
break_continue,html.Screen,4_24_2,2023-09-15T22:53:20.688Z,,0,,,NaN,,,,,,false,,,,214393.69999980927,214393.5,,214393.40000009537,,214397.557,8,400,,,
sequence,flow.Sequence,4_24,2023-09-15T22:53:20.688Z,,0,,,6362.96100000001,completion,,,,,false,,,,214393.90000009537,214393.5,207997.868,208015.2999997139,208030.539,214397.557,8,400,,,
trial,html.Screen,4_25_0,2023-09-15T22:53:25.878Z,,0,1,,5186.142999809264,response,ISIC_2829088.JPG,1,ISIC_4728167.JPG,ISIC_4728167.JPG,false,0,keypress(z),500,219583.90000009537,219583.69999980927,214381.111,214394,214397.557,219597.381,8,400,26,,ISIC_2829088.JPG
break,html.Screen,4_25_1,2023-09-15T22:53:25.879Z,,0,,,NaN,,,,,,false,,,,219585.09999990463,219584.69999980927,,219584.19999980927,,219597.381,8,400,,,
break_continue,html.Screen,4_25_2,2023-09-15T22:53:25.880Z,,0,,,NaN,,,,,,false,,,,219585.5,219585.40000009537,,219585.19999980927,,219597.381,8,400,,,
sequence,flow.Sequence,4_25,2023-09-15T22:53:25.880Z,,0,,,5187.843000095367,completion,,,,,false,,,,219585.69999980927,219585.40000009537,214381.111,214394,214397.557,219597.381,8,400,,,
trial,html.Screen,4_26_0,2023-09-15T22:53:33.030Z,,0,1,,7138.218999904639,response,ISIC_5491641.JPG,14,ISIC_9499185.JPG,ISIC_5491641.JPG,false,1,keypress(m),500,226736,226735.59999990463,219580.948,219585.7999997139,219597.381,226747.381,8,400,27,,ISIC_9499185.JPG
break,html.Screen,4_26_1,2023-09-15T22:53:33.032Z,,0,,,NaN,,,,,,false,,,,226737.2999997139,226737.09999990463,,226736.19999980927,,226747.381,8,400,,,
break_continue,html.Screen,4_26_2,2023-09-15T22:53:33.032Z,,0,,,NaN,,,,,,false,,,,226737.69999980927,226737.59999990463,,226737.5,,226747.381,8,400,,,
sequence,flow.Sequence,4_26,2023-09-15T22:53:33.032Z,,0,,,7140.218999904639,completion,,,,,false,,,,226737.7999997139,226737.59999990463,219580.948,219585.7999997139,219597.381,226747.381,8,400,,,
trial,html.Screen,4_27_0,2023-09-15T22:53:37.468Z,,0,1,,4426.218999904639,response,ISIC_0059248.JPG,21,ISIC_0313507.JPG,ISIC_0313507.JPG,false,0,keypress(z),500,231173.90000009537,231173.59999990463,226730.56,226738,226747.381,231181.05,8,400,28,,ISIC_0059248.JPG
break,html.Screen,4_27_1,2023-09-15T22:53:37.470Z,,0,,,NaN,,,,,,false,,,,231175.09999990463,231175,,231174.19999980927,,231181.05,8,400,,,
break_continue,html.Screen,4_27_2,2023-09-15T22:53:37.470Z,,0,,,NaN,,,,,,false,,,,231175.5,231175.40000009537,,231175.2999997139,,231181.05,8,400,,,
sequence,flow.Sequence,4_27,2023-09-15T22:53:37.470Z,,0,,,4428.0190000953735,completion,,,,,false,,,,231175.69999980927,231175.40000009537,226730.56,226737.90000009537,226747.381,231181.05,8,400,,,
trial,html.Screen,4_28_0,2023-09-15T22:53:44.445Z,,0,1,,6969.649999809277,response,ISIC_1532684.JPG,30,ISIC_4102922.JPG,ISIC_4102922.JPG,false,0,keypress(z),500,238151,238150.69999980927,231164.082,231175.90000009537,231181.05,238164.034,8,400,29,,ISIC_1532684.JPG
break,html.Screen,4_28_1,2023-09-15T22:53:44.446Z,,0,,,NaN,,,,,,false,,,,238151.90000009537,238151.69999980927,,238151.19999980927,,238164.034,8,400,,,
break_continue,html.Screen,4_28_2,2023-09-15T22:53:44.447Z,,0,,,NaN,,,,,,false,,,,238152.2999997139,238152.19999980927,,238152.09999990463,,238164.034,8,400,,,
sequence,flow.Sequence,4_28,2023-09-15T22:53:44.447Z,,0,,,6971.149999809277,completion,,,,,false,,,,238152.5,238152.19999980927,231164.082,231175.7999997139,231181.05,238164.034,8,400,,,
trial,html.Screen,4_29_0,2023-09-15T22:53:50.473Z,,0,1,,6014.2659997138835,response,ISIC_0011378.JPG,13,ISIC_0028528.JPG,ISIC_0011378.JPG,false,1,keypress(m),500,244178.59999990463,244178.2999997139,238147.975,238152.69999980927,238164.034,244180.791,8,400,30,,ISIC_0028528.JPG
break,html.Screen,4_29_1,2023-09-15T22:53:50.474Z,,0,,,NaN,,,,,,false,,,,244179.5,244179.40000009537,,244178.90000009537,,244180.791,8,400,,,
break_continue,html.Screen,4_29_2,2023-09-15T22:53:50.474Z,,0,,,NaN,,,,,,false,,,,244180,244179.90000009537,,244179.59999990463,,244180.791,8,400,,,
sequence,flow.Sequence,4_29,2023-09-15T22:53:50.475Z,,0,,,6015.866000095353,completion,,,,,false,,,,244180.19999980927,244179.90000009537,238147.975,238152.59999990463,238164.034,244180.791,8,400,,,
trial,html.Screen,4_30_0,2023-09-15T22:53:55.250Z,,0,1,,4775.0089997139,response,ISIC_6231450.JPG,6,ISIC_0030110.JPG,ISIC_6231450.JPG,false,1,keypress(m),500,248956.09999990463,248955.7999997139,244164.292,244180.2999997139,244180.791,248964.225,8,400,31,,ISIC_0030110.JPG
break,html.Screen,4_30_1,2023-09-15T22:53:55.252Z,,0,,,NaN,,,,,,false,,,,248957.19999980927,248956.7999997139,,248956.2999997139,,248964.225,8,400,,,
break_continue,html.Screen,4_30_2,2023-09-15T22:53:55.252Z,,0,,,NaN,,,,,,false,,,,248957.7999997139,248957.59999990463,,248957.40000009537,,248964.225,8,400,,,
sequence,flow.Sequence,4_30,2023-09-15T22:53:55.252Z,,0,,,4776.808999904635,completion,,,,,false,,,,248958,248957.59999990463,244164.292,244180.2999997139,244180.791,248964.225,8,400,,,
trial,html.Screen,4_31_0,2023-09-15T22:54:01.254Z,,0,1,,5994.675000095362,response,ISIC_0030623.JPG,30,ISIC_2226940.JPG,ISIC_0030623.JPG,false,1,keypress(m),500,254959.2999997139,254958.90000009537,248947.724,248958.19999980927,248964.225,254964.208,8,400,32,,ISIC_2226940.JPG
break,html.Screen,4_31_1,2023-09-15T22:54:01.254Z,,0,,,NaN,,,,,,false,,,,254960.19999980927,254959.7999997139,,254959.5,,254964.208,8,400,,,
break_continue,html.Screen,4_31_2,2023-09-15T22:54:01.255Z,,0,,,NaN,,,,,,false,,,,254960.69999980927,254960.40000009537,,254960.40000009537,,254964.208,8,400,,,
sequence,flow.Sequence,4_31,2023-09-15T22:54:01.255Z,,0,,,5996.175000095362,completion,,,,,false,,,,254960.7999997139,254960.40000009537,248947.724,248958.09999990463,248964.225,254964.208,8,400,,,
trial,html.Screen,4_32_0,2023-09-15T22:54:07.935Z,,0,1,,6676.491999809252,response,ISIC_7758102.JPG,10,ISIC_1233104.JPG,ISIC_1233104.JPG,false,0,keypress(z),500,261641,261640.69999980927,254947.693,254960.90000009537,254964.208,261648.256,8,400,33,,ISIC_7758102.JPG
break,html.Screen,4_32_1,2023-09-15T22:54:07.937Z,,0,,,NaN,,,,,,false,,,,261642.40000009537,261642.19999980927,,261641.19999980927,,261648.256,8,400,,,
break_continue,html.Screen,4_32_2,2023-09-15T22:54:07.937Z,,0,,,NaN,,,,,,false,,,,261642.7999997139,261642.59999990463,,261642.5,,261648.256,8,400,,,
sequence,flow.Sequence,4_32,2023-09-15T22:54:07.937Z,,0,,,6678.391999904619,completion,,,,,false,,,,261642.90000009537,261642.59999990463,254947.693,254960.90000009537,254964.208,261648.256,8,400,,,
trial,html.Screen,4_33_0,2023-09-15T22:54:14.370Z,,0,1,,6427.443999809271,response,ISIC_4371210.JPG,13,ISIC_3212781.JPG,ISIC_3212781.JPG,false,0,keypress(z),500,268076,268075.69999980927,261630.865,261643.09999990463,261648.256,268080.972,8,400,34,,ISIC_4371210.JPG
break,html.Screen,4_33_1,2023-09-15T22:54:14.371Z,,0,,,NaN,,,,,,false,,,,268077.09999990463,268076.7999997139,,268076.19999980927,,268080.972,8,400,,,
break_continue,html.Screen,4_33_2,2023-09-15T22:54:14.372Z,,0,,,NaN,,,,,,false,,,,268077.69999980927,268077.59999990463,,268077.40000009537,,268080.972,8,400,,,
sequence,flow.Sequence,4_33,2023-09-15T22:54:14.372Z,,0,,,6429.343999904639,completion,,,,,false,,,,268077.90000009537,268077.59999990463,261630.865,261642.90000009537,261648.256,268080.972,8,400,,,
trial,html.Screen,4_34_0,2023-09-15T22:54:21.326Z,,0,1,,6950.627999904624,response,ISIC_8837880.JPG,14,ISIC_6292348.JPG,ISIC_6292348.JPG,false,0,keypress(z),500,275032,275031.59999990463,268064.434,268078,268080.972,275047.707,8,400,35,,ISIC_8837880.JPG
break,html.Screen,4_34_1,2023-09-15T22:54:21.327Z,,0,,,NaN,,,,,,false,,,,275032.90000009537,275032.59999990463,,275032.2999997139,,275047.707,8,400,,,
break_continue,html.Screen,4_34_2,2023-09-15T22:54:21.328Z,,0,,,NaN,,,,,,false,,,,275033.2999997139,275033.19999980927,,275033.09999990463,,275047.707,8,400,,,
sequence,flow.Sequence,4_34,2023-09-15T22:54:21.328Z,,0,,,6952.227999809256,completion,,,,,false,,,,275033.59999990463,275033.19999980927,268064.434,268078,268080.972,275047.707,8,400,,,
trial,html.Screen,4_35_0,2023-09-15T22:54:24.283Z,,0,1,,2940.592999713903,response,ISIC_0025277.JPG,12,ISIC_0255997.JPG,ISIC_0255997.JPG,false,0,keypress(z),500,277988.69999980927,277988.2999997139,275031.578,275033.59999990463,275047.707,278014.76,8,400,36,,ISIC_0025277.JPG
break,html.Screen,4_35_1,2023-09-15T22:54:24.284Z,,0,,,NaN,,,,,,false,,,,277989.5,277989.40000009537,,277989,,278014.76,8,400,,,
break_continue,html.Screen,4_35_2,2023-09-15T22:54:24.284Z,,0,,,NaN,,,,,,false,,,,277989.7999997139,277989.69999980927,,277989.59999990463,,278014.76,8,400,,,
sequence,flow.Sequence,4_35,2023-09-15T22:54:24.284Z,,0,,,2941.9929998092703,completion,,,,,false,,,,277990,277989.69999980927,275031.578,275033.59999990463,275047.707,278014.76,8,400,,,
trial,html.Screen,4_36_0,2023-09-15T22:54:32.125Z,,0,1,,7815.239999999991,response,ISIC_1223648.JPG,13,ISIC_9485536.JPG,ISIC_1223648.JPG,false,1,keypress(m),500,285830.40000009537,285830,277997.7,277990.19999980927,278014.76,285847.686,8,400,37,,ISIC_9485536.JPG
break,html.Screen,4_36_1,2023-09-15T22:54:32.126Z,,0,,,NaN,,,,,,false,,,,285832,285831.69999980927,,285830.59999990463,,285847.686,8,400,,,
break_continue,html.Screen,4_36_2,2023-09-15T22:54:32.127Z,,0,,,NaN,,,,,,false,,,,285832.69999980927,285832.40000009537,,285832.19999980927,,285847.686,8,400,,,
sequence,flow.Sequence,4_36,2023-09-15T22:54:32.127Z,,0,,,7817.640000095358,completion,,,,,false,,,,285833,285832.40000009537,277997.7,277990.09999990463,278014.76,285847.686,8,400,,,
trial,html.Screen,4_37_0,2023-09-15T22:54:35.183Z,,0,1,,3040.814000000013,response,ISIC_3169133.JPG,6,ISIC_0068234.JPG,ISIC_3169133.JPG,false,1,keypress(m),500,288888.7999997139,288888.5,285831.037,285833.09999990463,285847.686,288897.804,8,400,38,,ISIC_0068234.JPG
break,html.Screen,4_37_1,2023-09-15T22:54:35.184Z,,0,,,NaN,,,,,,false,,,,288890,288889.5,,288889.09999990463,,288897.804,8,400,,,
break_continue,html.Screen,4_37_2,2023-09-15T22:54:35.185Z,,0,,,NaN,,,,,,false,,,,288890.40000009537,288890.2999997139,,288890.19999980927,,288897.804,8,400,,,
sequence,flow.Sequence,4_37,2023-09-15T22:54:35.185Z,,0,,,3042.6139997139107,completion,,,,,false,,,,288890.59999990463,288890.2999997139,285831.037,285833.09999990463,285847.686,288897.804,8,400,,,
trial,html.Screen,4_38_0,2023-09-15T22:54:41.850Z,,0,1,,6657.495999713894,response,ISIC_0012082.JPG,1,ISIC_6340564.JPG,ISIC_6340564.JPG,false,0,keypress(z),500,295555.69999980927,295555.2999997139,288880.909,288890.7999997139,288897.804,295564.417,8,400,39,,ISIC_0012082.JPG
break,html.Screen,4_38_1,2023-09-15T22:54:41.851Z,,0,,,NaN,,,,,,false,,,,295556.40000009537,295556.19999980927,,295555.7999997139,,295564.417,8,400,,,
break_continue,html.Screen,4_38_2,2023-09-15T22:54:41.851Z,,0,,,NaN,,,,,,false,,,,295556.69999980927,295556.59999990463,,295556.5,,295564.417,8,400,,,
sequence,flow.Sequence,4_38,2023-09-15T22:54:41.851Z,,0,,,6658.795999904629,completion,,,,,false,,,,295556.7999997139,295556.59999990463,288880.909,288890.69999980927,288897.804,295564.417,8,400,,,
trial,html.Screen,4_39_0,2023-09-15T22:54:45.719Z,,0,1,,3860.382999713882,response,ISIC_0033103.JPG,6,ISIC_0033181.JPG,ISIC_0033103.JPG,false,1,keypress(m),500,299425.09999990463,299424.7999997139,295548.254,295557,295564.417,299431.676,8,400,40,,ISIC_0033181.JPG
break,html.Screen,4_39_1,2023-09-15T22:54:45.721Z,,0,,,NaN,,,,,,false,,,,299426.2999997139,299426.09999990463,,299425.40000009537,,299431.676,8,400,,,
break_continue,html.Screen,4_39_2,2023-09-15T22:54:45.721Z,,0,,,NaN,,,,,,false,,,,299426.59999990463,299426.5,,299426.40000009537,,299431.676,8,400,,,
sequence,flow.Sequence,4_39,2023-09-15T22:54:45.721Z,,0,,,3862.082999999984,completion,,,,,false,,,,299426.90000009537,299426.5,295548.254,295556.90000009537,295564.417,299431.676,8,400,,,
trial,html.Screen,4_40_0,2023-09-15T22:54:52.755Z,,0,1,,7029.12399971392,response,ISIC_4236274.JPG,28,ISIC_0027863.JPG,ISIC_4236274.JPG,false,1,keypress(m),500,306461,306460.7999997139,299416.301,299426.90000009537,299431.676,306464.511,8,400,41,,ISIC_0027863.JPG
break,html.Screen,4_40_1,2023-09-15T22:54:52.756Z,,0,,,NaN,,,,,,false,,,,306461.90000009537,306461.59999990463,,306461.2999997139,,306464.511,8,400,,,
break_continue,html.Screen,4_40_2,2023-09-15T22:54:52.757Z,,0,,,NaN,,,,,,false,,,,306462.40000009537,306462.2999997139,,306462.09999990463,,306464.511,8,400,,,
sequence,flow.Sequence,4_40,2023-09-15T22:54:52.757Z,,0,,,7030.62399971392,completion,,,,,false,,,,306462.5,306462.2999997139,299416.301,299426.90000009537,299431.676,306464.511,8,400,,,
trial,html.Screen,4_41_0,2023-09-15T22:54:59.068Z,,0,1,,6308.788999713899,response,ISIC_0004986.JPG,9,ISIC_1580034.JPG,ISIC_0004986.JPG,false,1,keypress(m),500,312773.5,312773.2999997139,306448.195,306462.59999990463,306464.511,312781.216,8,400,42,,ISIC_1580034.JPG
break,html.Screen,4_41_1,2023-09-15T22:54:59.069Z,,0,,,NaN,,,,,,false,,,,312774.2999997139,312774.19999980927,,312773.7999997139,,312781.216,8,400,,,
break_continue,html.Screen,4_41_2,2023-09-15T22:54:59.069Z,,0,,,NaN,,,,,,false,,,,312774.7999997139,312774.69999980927,,312774.5,,312781.216,8,400,,,
sequence,flow.Sequence,4_41,2023-09-15T22:54:59.069Z,,0,,,6310.1889998092665,completion,,,,,false,,,,312775,312774.69999980927,306448.195,306462.59999990463,306464.511,312781.216,8,400,,,
trial,html.Screen,4_42_0,2023-09-15T22:55:06.969Z,,0,1,,7893.383999904618,response,ISIC_0011288.JPG,20,ISIC_8176449.JPG,ISIC_0011288.JPG,false,1,keypress(m),500,320674.90000009537,320674.59999990463,312764.828,312775.19999980927,312781.216,320681.496,8,400,43,,ISIC_8176449.JPG
break,html.Screen,4_42_1,2023-09-15T22:55:06.970Z,,0,,,NaN,,,,,,false,,,,320675.7999997139,320675.59999990463,,320675.19999980927,,320681.496,8,400,,,
break_continue,html.Screen,4_42_2,2023-09-15T22:55:06.971Z,,0,,,NaN,,,,,,false,,,,320676.2999997139,320676.19999980927,,320676,,320681.496,8,400,,,
sequence,flow.Sequence,4_42,2023-09-15T22:55:06.971Z,,0,,,7894.98399980925,completion,,,,,false,,,,320676.5,320676.19999980927,312764.828,312775.19999980927,312781.216,320681.496,8,400,,,
trial,html.Screen,4_43_0,2023-09-15T22:55:13.521Z,,0,1,,6544.404000095383,response,ISIC_7567699.JPG,12,ISIC_0065351.JPG,ISIC_0065351.JPG,false,0,keypress(z),500,327226.2999997139,327225.90000009537,320664.549,320676.59999990463,320681.496,327231.286,8,400,44,,ISIC_7567699.JPG
break,html.Screen,4_43_1,2023-09-15T22:55:13.522Z,,0,,,NaN,,,,,,false,,,,327227.59999990463,327227.09999990463,,327226.69999980927,,327231.286,8,400,,,
break_continue,html.Screen,4_43_2,2023-09-15T22:55:13.522Z,,0,,,NaN,,,,,,false,,,,327227.90000009537,327227.90000009537,,327227.69999980927,,327231.286,8,400,,,
sequence,flow.Sequence,4_43,2023-09-15T22:55:13.522Z,,0,,,6546.404000095383,completion,,,,,false,,,,327228.19999980927,327227.90000009537,320664.549,320676.59999990463,320681.496,327231.286,8,400,,,
trial,html.Screen,4_44_0,2023-09-15T22:55:20.182Z,,0,1,,6655.813999904611,response,ISIC_0061164.JPG,11,ISIC_9241599.JPG,ISIC_0061164.JPG,false,1,keypress(m),500,333887.59999990463,333887.09999990463,327214.714,327228.19999980927,327231.286,333898.004,8,400,45,,ISIC_9241599.JPG
break,html.Screen,4_44_1,2023-09-15T22:55:20.184Z,,0,,,NaN,,,,,,false,,,,333889.5,333889.19999980927,,333887.90000009537,,333898.004,8,400,,,
break_continue,html.Screen,4_44_2,2023-09-15T22:55:20.184Z,,0,,,NaN,,,,,,false,,,,333890,333889.7999997139,,333889.69999980927,,333898.004,8,400,,,
sequence,flow.Sequence,4_44,2023-09-15T22:55:20.185Z,,0,,,6658.513999713876,completion,,,,,false,,,,333890.19999980927,333889.7999997139,327214.714,327228.19999980927,327231.286,333898.004,8,400,,,
trial,html.Screen,4_45_0,2023-09-15T22:55:23.982Z,,0,1,,3789.6959998092498,response,ISIC_4474170.JPG,0,ISIC_0068381.JPG,ISIC_4474170.JPG,false,1,keypress(m),500,337688,337687.69999980927,333881.525,333890.69999980927,333898.004,337698.234,8,400,46,,ISIC_0068381.JPG
break,html.Screen,4_45_1,2023-09-15T22:55:23.983Z,,0,,,NaN,,,,,,false,,,,337688.7999997139,337688.59999990463,,337688.2999997139,,337698.234,8,400,,,
break_continue,html.Screen,4_45_2,2023-09-15T22:55:23.984Z,,0,,,NaN,,,,,,false,,,,337689.2999997139,337689.09999990463,,337688.90000009537,,337698.234,8,400,,,
sequence,flow.Sequence,4_45,2023-09-15T22:55:23.984Z,,0,,,3791.095999904617,completion,,,,,false,,,,337689.40000009537,337689.09999990463,333881.525,333890.69999980927,333898.004,337698.234,8,400,,,
trial,html.Screen,4_46_0,2023-09-15T22:55:27.281Z,,0,1,,3288.365999904636,response,ISIC_0061516.JPG,11,ISIC_4724660.JPG,ISIC_4724660.JPG,false,0,keypress(z),500,340986.90000009537,340986.59999990463,337681.3,337689.59999990463,337698.234,340998.103,8,400,47,,ISIC_0061516.JPG
break,html.Screen,4_46_1,2023-09-15T22:55:27.282Z,,0,,,NaN,,,,,,false,,,,340987.7999997139,340987.40000009537,,340987.09999990463,,340998.103,8,400,,,
break_continue,html.Screen,4_46_2,2023-09-15T22:55:27.283Z,,0,,,NaN,,,,,,false,,,,340988.19999980927,340988.09999990463,,340987.90000009537,,340998.103,8,400,,,
sequence,flow.Sequence,4_46,2023-09-15T22:55:27.283Z,,0,,,3289.865999904636,completion,,,,,false,,,,340988.40000009537,340988.09999990463,337681.3,337689.5,337698.234,340998.103,8,400,,,
trial,html.Screen,4_47_0,2023-09-15T22:55:31.495Z,,0,1,,4202.297000095365,response,ISIC_4472903.JPG,20,ISIC_1077375.JPG,ISIC_1077375.JPG,false,0,keypress(z),500,345200.69999980927,345200.40000009537,340981.404,340988.59999990463,340998.103,345214.673,8,400,48,,ISIC_4472903.JPG
break,html.Screen,4_47_1,2023-09-15T22:55:31.496Z,,0,,,NaN,,,,,,false,,,,345201.40000009537,345201.2999997139,,345200.90000009537,,345214.673,8,400,,,
break_continue,html.Screen,4_47_2,2023-09-15T22:55:31.496Z,,0,,,NaN,,,,,,false,,,,345201.7999997139,345201.59999990463,,345201.59999990463,,345214.673,8,400,,,
sequence,flow.Sequence,4_47,2023-09-15T22:55:31.496Z,,0,,,4203.49699990463,completion,,,,,false,,,,345201.90000009537,345201.59999990463,340981.404,340988.59999990463,340998.103,345214.673,8,400,,,
trial,html.Screen,4_48_0,2023-09-15T22:55:38.880Z,,0,1,,7370.926999904623,response,ISIC_0012904.JPG,29,ISIC_8060329.JPG,ISIC_8060329.JPG,false,0,keypress(z),500,352585.90000009537,352585.59999990463,345198.22,345202,345214.673,352598.214,8,400,49,,ISIC_0012904.JPG
break,html.Screen,4_48_1,2023-09-15T22:55:38.882Z,,0,,,NaN,,,,,,false,,,,352587.2999997139,352587,,352586.19999980927,,352598.214,8,400,,,
break_continue,html.Screen,4_48_2,2023-09-15T22:55:38.882Z,,0,,,NaN,,,,,,false,,,,352587.5,352587.5,,352587.2999997139,,352598.214,8,400,,,
sequence,flow.Sequence,4_48,2023-09-15T22:55:38.882Z,,0,,,7372.82699999999,completion,,,,,false,,,,352587.69999980927,352587.5,345198.22,345202,345214.673,352598.214,8,400,,,
trial,html.Screen,4_49_0,2023-09-15T22:55:43.359Z,,0,1,,4465.686000095389,response,ISIC_0010765.JPG,5,ISIC_0067094.JPG,ISIC_0067094.JPG,false,0,keypress(z),500,357064.19999980927,357063.90000009537,352581.937,352587.69999980927,352598.214,357098.148,8,400,50,,ISIC_0010765.JPG
break,html.Screen,4_49_1,2023-09-15T22:55:53.371Z,,0,,,10000.016999999993,timeout,,,,,false,,,,367082.7999997139,367081.621,357081.493,357064.40000009537,357098.148,367098.165,8,400,,,
break_continue,html.Screen,4_49_2,2023-09-15T22:56:20.760Z,,0,,,27356.73500009539,response,,,,,false,continue,keypress(Space),,394471.90000009537,394454.90000009537,367081.621,367082.90000009537,367098.165,394481.735,8,400,,,
sequence,flow.Sequence,4_49,2023-09-15T22:56:20.760Z,,0,,,41856.68600009539,completion,,,,,false,,,,394472.19999980927,394454.90000009537,352581.937,352587.69999980927,352598.214,394481.735,8,400,,,
trial,html.Screen,4_50_0,2023-09-15T22:56:25.001Z,,0,2,,4231.265000000014,response,ISIC_4446385.JPG,13,ISIC_2940684.JPG,ISIC_4446385.JPG,false,1,keypress(m),500,398713.2999997139,398713,394462.511,394472.40000009537,394481.735,398736.564,8,400,1,,ISIC_2940684.JPG
break,html.Screen,4_50_1,2023-09-15T22:56:25.002Z,,0,,,NaN,,,,,,false,,,,398714.5,398713.90000009537,,398713.5,,398736.564,8,400,,,
break_continue,html.Screen,4_50_2,2023-09-15T22:56:25.003Z,,0,,,NaN,,,,,,false,,,,398714.7999997139,398714.69999980927,,398714.59999990463,,398736.564,8,400,,,
sequence,flow.Sequence,4_50,2023-09-15T22:56:25.003Z,,0,,,4232.964999809279,completion,,,,,false,,,,398715.09999990463,398714.69999980927,394462.511,394472.19999980927,394481.735,398736.564,8,400,,,
trial,html.Screen,4_51_0,2023-09-15T22:56:30.880Z,,0,2,,5854.935999999987,response,ISIC_0002347.JPG,3,ISIC_0064863.JPG,ISIC_0064863.JPG,false,0,keypress(z),500,404591.7999997139,404591.5,398698.734,398715.40000009537,398736.564,404598.931,8,400,2,,ISIC_0002347.JPG
break,html.Screen,4_51_1,2023-09-15T22:56:30.881Z,,0,,,NaN,,,,,,false,,,,404593,404592.7999997139,,404592.09999990463,,404598.931,8,400,,,
break_continue,html.Screen,4_51_2,2023-09-15T22:56:30.881Z,,0,,,NaN,,,,,,false,,,,404593.40000009537,404593.19999980927,,404593.09999990463,,404598.931,8,400,,,
sequence,flow.Sequence,4_51,2023-09-15T22:56:30.881Z,,0,,,5856.635999809252,completion,,,,,false,,,,404593.5,404593.19999980927,398698.734,398715.2999997139,398736.564,404598.931,8,400,,,
trial,html.Screen,4_52_0,2023-09-15T22:56:34.938Z,,0,2,,4051.268999809283,response,ISIC_7208412.JPG,14,ISIC_0073044.JPG,ISIC_7208412.JPG,false,1,keypress(m),500,408650.5,408650.19999980927,404582.18,404593.69999980927,404598.931,408681.759,8,400,3,,ISIC_0073044.JPG
break,html.Screen,4_52_1,2023-09-15T22:56:34.939Z,,0,,,NaN,,,,,,false,,,,408651.19999980927,408651,,408650.69999980927,,408681.759,8,400,,,
break_continue,html.Screen,4_52_2,2023-09-15T22:56:34.939Z,,0,,,NaN,,,,,,false,,,,408651.59999990463,408651.5,,408651.2999997139,,408681.759,8,400,,,
sequence,flow.Sequence,4_52,2023-09-15T22:56:34.940Z,,0,,,4052.5690000000177,completion,,,,,false,,,,408651.90000009537,408651.5,404582.18,404593.69999980927,404598.931,408681.759,8,400,,,
trial,html.Screen,4_53_0,2023-09-15T22:56:40.191Z,,0,2,,5220.74099999998,response,ISIC_6400232.JPG,25,ISIC_8535451.JPG,ISIC_8535451.JPG,false,0,keypress(z),500,413902.90000009537,413902.5,408665.498,408652.09999990463,408681.759,413915.401,8,400,4,,ISIC_6400232.JPG
break,html.Screen,4_53_1,2023-09-15T22:56:40.192Z,,0,,,NaN,,,,,,false,,,,413904.2999997139,413903.7999997139,,413903.2999997139,,413915.401,8,400,,,
break_continue,html.Screen,4_53_2,2023-09-15T22:56:40.193Z,,0,,,NaN,,,,,,false,,,,413904.7999997139,413904.69999980927,,413904.5,,413915.401,8,400,,,
sequence,flow.Sequence,4_53,2023-09-15T22:56:40.193Z,,0,,,5222.940999809245,completion,,,,,false,,,,413905.09999990463,413904.69999980927,408665.498,408652.09999990463,408681.759,413915.401,8,400,,,
trial,html.Screen,4_54_0,2023-09-15T22:56:46.417Z,,0,2,,6213.398999713885,response,ISIC_6207818.JPG,8,ISIC_5315062.JPG,ISIC_5315062.JPG,false,0,keypress(z),500,420129.19999980927,420128.7999997139,413899.291,413905.2999997139,413915.401,420131.838,8,400,5,,ISIC_6207818.JPG
break,html.Screen,4_54_1,2023-09-15T22:56:46.419Z,,0,,,NaN,,,,,,false,,,,420130.7999997139,420130.40000009537,,420129.40000009537,,420131.838,8,400,,,
break_continue,html.Screen,4_54_2,2023-09-15T22:56:46.419Z,,0,,,NaN,,,,,,false,,,,420131.5,420131.40000009537,,420131.09999990463,,420131.838,8,400,,,
sequence,flow.Sequence,4_54,2023-09-15T22:56:46.420Z,,0,,,6215.999000095355,completion,,,,,false,,,,420131.7999997139,420131.40000009537,413899.291,413905.19999980927,413915.401,420131.838,8,400,,,
trial,html.Screen,4_55_0,2023-09-15T22:56:53.496Z,,0,2,,7069.861999809276,response,ISIC_4926788.JPG,6,ISIC_0026897.JPG,ISIC_4926788.JPG,false,1,keypress(m),500,427202.09999990463,427201.69999980927,420115.2,420132.7999997139,420131.838,427215.313,8,400,6,,ISIC_0026897.JPG
break,html.Screen,4_55_1,2023-09-15T22:56:53.498Z,,0,,,NaN,,,,,,false,,,,427203.40000009537,427203.2999997139,,427202.2999997139,,427215.313,8,400,,,
break_continue,html.Screen,4_55_2,2023-09-15T22:56:53.498Z,,0,,,NaN,,,,,,false,,,,427203.7999997139,427203.69999980927,,427203.59999990463,,427215.313,8,400,,,
sequence,flow.Sequence,4_55,2023-09-15T22:56:53.498Z,,0,,,7071.861999809276,completion,,,,,false,,,,427204,427203.69999980927,420115.2,420132.69999980927,420131.838,427215.313,8,400,,,
trial,html.Screen,4_56_0,2023-09-15T22:56:56.881Z,,0,2,,3370.5870000953437,response,ISIC_0055675.JPG,3,ISIC_6976570.JPG,ISIC_6976570.JPG,false,0,keypress(z),500,430586.19999980927,430585.90000009537,427198.61,427205.40000009537,427215.313,430598.563,8,400,7,,ISIC_0055675.JPG
break,html.Screen,4_56_1,2023-09-15T22:56:56.882Z,,0,,,NaN,,,,,,false,,,,430587.5,430587,,430586.40000009537,,430598.563,8,400,,,
break_continue,html.Screen,4_56_2,2023-09-15T22:56:56.882Z,,0,,,NaN,,,,,,false,,,,430587.90000009537,430587.7999997139,,430587.59999990463,,430598.563,8,400,,,
sequence,flow.Sequence,4_56,2023-09-15T22:56:56.882Z,,0,,,3372.486999713874,completion,,,,,false,,,,430588.09999990463,430587.7999997139,427198.61,427205.19999980927,427215.313,430598.563,8,400,,,
trial,html.Screen,4_57_0,2023-09-15T22:57:02.955Z,,0,2,,6061.337000095344,response,ISIC_0060355.JPG,24,ISIC_0054087.JPG,ISIC_0054087.JPG,false,0,keypress(z),500,436660.2999997139,436659.90000009537,430582.426,430588.19999980927,430598.563,436665.276,8,400,8,,ISIC_0060355.JPG
break,html.Screen,4_57_1,2023-09-15T22:57:02.956Z,,0,,,NaN,,,,,,false,,,,436661.59999990463,436661.19999980927,,436660.69999980927,,436665.276,8,400,,,
break_continue,html.Screen,4_57_2,2023-09-15T22:57:02.956Z,,0,,,NaN,,,,,,false,,,,436662,436661.90000009537,,436661.7999997139,,436665.276,8,400,,,
sequence,flow.Sequence,4_57,2023-09-15T22:57:02.957Z,,0,,,6063.337000095344,completion,,,,,false,,,,436662.19999980927,436661.90000009537,430582.426,430588.19999980927,430598.563,436665.276,8,400,,,
trial,html.Screen,4_58_0,2023-09-15T22:57:09.087Z,,0,2,,6127.124000095355,response,ISIC_0072473.JPG,9,ISIC_0032494.JPG,ISIC_0032494.JPG,false,0,keypress(z),500,442792.7999997139,442792.40000009537,436649.112,436662.40000009537,436665.276,442798.635,8,400,9,,ISIC_0072473.JPG
break,html.Screen,4_58_1,2023-09-15T22:57:09.088Z,,0,,,NaN,,,,,,false,,,,442793.5,442793.2999997139,,442793,,442798.635,8,400,,,
break_continue,html.Screen,4_58_2,2023-09-15T22:57:09.088Z,,0,,,NaN,,,,,,false,,,,442794.09999990463,442793.90000009537,,442793.7999997139,,442798.635,8,400,,,
sequence,flow.Sequence,4_58,2023-09-15T22:57:09.089Z,,0,,,6128.624000095355,completion,,,,,false,,,,442794.2999997139,442793.90000009537,436649.112,436662.40000009537,436665.276,442798.635,8,400,,,
trial,html.Screen,4_59_0,2023-09-15T22:57:14.947Z,,0,2,,5853.464999904623,response,ISIC_0066143.JPG,10,ISIC_0060629.JPG,ISIC_0066143.JPG,false,1,keypress(m),500,448652.5,448652.09999990463,442781.927,442794.40000009537,442798.635,448665.417,8,400,10,,ISIC_0060629.JPG
break,html.Screen,4_59_1,2023-09-15T22:57:14.948Z,,0,,,NaN,,,,,,false,,,,448653.59999990463,448653.40000009537,,448652.59999990463,,448665.417,8,400,,,
break_continue,html.Screen,4_59_2,2023-09-15T22:57:14.948Z,,0,,,NaN,,,,,,false,,,,448654,448653.90000009537,,448653.69999980927,,448665.417,8,400,,,
sequence,flow.Sequence,4_59,2023-09-15T22:57:14.949Z,,0,,,5855.265000095358,completion,,,,,false,,,,448654.2999997139,448653.90000009537,442781.927,442794.40000009537,442798.635,448665.417,8,400,,,
trial,html.Screen,4_60_0,2023-09-15T22:57:23.941Z,,0,2,,8981.082999999984,response,ISIC_0033612.JPG,12,ISIC_2126084.JPG,ISIC_2126084.JPG,false,0,keypress(z),500,457646.7999997139,457646.5,448648.752,448654.5,448665.417,457670.26,8,400,11,,ISIC_0033612.JPG
break,html.Screen,4_60_1,2023-09-15T22:57:23.942Z,,0,,,NaN,,,,,,false,,,,457647.7999997139,457647.5,,457647,,457670.26,8,400,,,
break_continue,html.Screen,4_60_2,2023-09-15T22:57:23.943Z,,0,,,NaN,,,,,,false,,,,457648.19999980927,457648,,457647.90000009537,,457670.26,8,400,,,
sequence,flow.Sequence,4_60,2023-09-15T22:57:23.943Z,,0,,,8982.582999999984,completion,,,,,false,,,,457648.2999997139,457648,448648.752,448654.40000009537,448665.417,457670.26,8,400,,,
trial,html.Screen,4_61_0,2023-09-15T22:57:28.809Z,,0,2,,4843.640000095358,response,ISIC_8942967.JPG,9,ISIC_6344073.JPG,ISIC_6344073.JPG,false,0,keypress(z),500,462514.19999980927,462513.90000009537,457632.421,457648.40000009537,457670.26,462549.309,8,400,12,,ISIC_8942967.JPG
break,html.Screen,4_61_1,2023-09-15T22:57:28.811Z,,0,,,NaN,,,,,,false,,,,462516.2999997139,462516,,462514.5,,462549.309,8,400,,,
break_continue,html.Screen,4_61_2,2023-09-15T22:57:28.811Z,,0,,,NaN,,,,,,false,,,,462516.7999997139,462516.59999990463,,462516.5,,462549.309,8,400,,,
sequence,flow.Sequence,4_61,2023-09-15T22:57:28.811Z,,0,,,4846.339999904623,completion,,,,,false,,,,462517.09999990463,462516.59999990463,457632.421,457648.40000009537,457670.26,462549.309,8,400,,,
trial,html.Screen,4_62_0,2023-09-15T22:57:34.605Z,,0,2,,5761.490999713889,response,ISIC_2841488.JPG,19,ISIC_8634334.JPG,ISIC_2841488.JPG,false,1,keypress(m),500,468311.09999990463,468310.7999997139,462532.077,462517.19999980927,462549.309,468315.471,8,400,13,,ISIC_8634334.JPG
break,html.Screen,4_62_1,2023-09-15T22:57:34.607Z,,0,,,NaN,,,,,,false,,,,468312.2999997139,468311.7999997139,,468311.2999997139,,468315.471,8,400,,,
break_continue,html.Screen,4_62_2,2023-09-15T22:57:34.607Z,,0,,,NaN,,,,,,false,,,,468312.59999990463,468312.5,,468312.2999997139,,468315.471,8,400,,,
sequence,flow.Sequence,4_62,2023-09-15T22:57:34.607Z,,0,,,5763.190999999992,completion,,,,,false,,,,468312.7999997139,468312.5,462532.077,462517.19999980927,462549.309,468315.471,8,400,,,
trial,html.Screen,4_63_0,2023-09-15T22:57:42.078Z,,0,2,,7467.52899999998,response,ISIC_0072294.JPG,16,ISIC_5490257.JPG,ISIC_0072294.JPG,false,1,keypress(m),500,475783.5,475783,468298.805,468313,468315.471,475798.793,8,400,14,,ISIC_5490257.JPG
break,html.Screen,4_63_1,2023-09-15T22:57:42.079Z,,0,,,NaN,,,,,,false,,,,475784.69999980927,475784.19999980927,,475783.69999980927,,475798.793,8,400,,,
break_continue,html.Screen,4_63_2,2023-09-15T22:57:42.079Z,,0,,,NaN,,,,,,false,,,,475785.09999990463,475784.90000009537,,475784.7999997139,,475798.793,8,400,,,
sequence,flow.Sequence,4_63,2023-09-15T22:57:42.080Z,,0,,,7469.429000095348,completion,,,,,false,,,,475785.19999980927,475784.90000009537,468298.805,468312.90000009537,468315.471,475798.793,8,400,,,
trial,html.Screen,4_64_0,2023-09-15T22:57:47.449Z,,0,2,,5355.607000095362,response,ISIC_6780901.JPG,13,ISIC_9579922.JPG,ISIC_6780901.JPG,false,1,keypress(m),500,481154.7999997139,481154.40000009537,475782.12,475785.40000009537,475798.793,481165.63,8,400,15,,ISIC_9579922.JPG
break,html.Screen,4_64_1,2023-09-15T22:57:47.450Z,,0,,,NaN,,,,,,false,,,,481156,481155.5,,481155.09999990463,,481165.63,8,400,,,
break_continue,html.Screen,4_64_2,2023-09-15T22:57:47.451Z,,0,,,NaN,,,,,,false,,,,481156.40000009537,481156.2999997139,,481156.09999990463,,481165.63,8,400,,,
sequence,flow.Sequence,4_64,2023-09-15T22:57:47.451Z,,0,,,5357.506999713893,completion,,,,,false,,,,481156.5,481156.2999997139,475782.12,475785.40000009537,475798.793,481165.63,8,400,,,
trial,html.Screen,4_65_0,2023-09-15T22:57:54.343Z,,0,2,,6883.0699998092605,response,ISIC_0010900.JPG,11,ISIC_0056167.JPG,ISIC_0056167.JPG,false,0,keypress(z),500,488049,488048.69999980927,481148.859,481156.59999990463,481165.63,488065.498,8,400,16,,ISIC_0010900.JPG
break,html.Screen,4_65_1,2023-09-15T22:57:54.344Z,,0,,,NaN,,,,,,false,,,,488050,488049.59999990463,,488049.2999997139,,488065.498,8,400,,,
break_continue,html.Screen,4_65_2,2023-09-15T22:57:54.345Z,,0,,,NaN,,,,,,false,,,,488050.40000009537,488050.19999980927,,488050.09999990463,,488065.498,8,400,,,
sequence,flow.Sequence,4_65,2023-09-15T22:57:54.345Z,,0,,,6884.5699998092605,completion,,,,,false,,,,488050.59999990463,488050.19999980927,481148.859,481156.59999990463,481165.63,488065.498,8,400,,,
trial,html.Screen,4_66_0,2023-09-15T22:57:59.761Z,,0,2,,5400.501999999979,response,ISIC_2259190.JPG,1,ISIC_0351547.JPG,ISIC_2259190.JPG,false,1,keypress(m),500,493466.2999997139,493466,488049.257,488050.69999980927,488065.498,493482.256,8,400,17,,ISIC_0351547.JPG
break,html.Screen,4_66_1,2023-09-15T22:57:59.763Z,,0,,,NaN,,,,,,false,,,,493468.19999980927,493467.90000009537,,493466.90000009537,,493482.256,8,400,,,
break_continue,html.Screen,4_66_2,2023-09-15T22:57:59.763Z,,0,,,NaN,,,,,,false,,,,493468.59999990463,493468.5,,493468.40000009537,,493482.256,8,400,,,
sequence,flow.Sequence,4_66,2023-09-15T22:57:59.763Z,,0,,,5403.001999999979,completion,,,,,false,,,,493468.90000009537,493468.5,488049.257,488050.69999980927,488065.498,493482.256,8,400,,,
trial,html.Screen,4_67_0,2023-09-15T22:58:07.114Z,,0,2,,7337.443999809271,response,ISIC_0032955.JPG,9,ISIC_1350519.JPG,ISIC_1350519.JPG,false,0,keypress(z),500,500819.90000009537,500819.69999980927,493466.061,493469,493482.256,500832.449,8,400,18,,ISIC_0032955.JPG
break,html.Screen,4_67_1,2023-09-15T22:58:07.116Z,,0,,,NaN,,,,,,false,,,,500821.09999990463,500820.90000009537,,500820.09999990463,,500832.449,8,400,,,
break_continue,html.Screen,4_67_2,2023-09-15T22:58:07.116Z,,0,,,NaN,,,,,,false,,,,500821.5,500821.2999997139,,500821.19999980927,,500832.449,8,400,,,
sequence,flow.Sequence,4_67,2023-09-15T22:58:07.116Z,,0,,,7339.043999713904,completion,,,,,false,,,,500821.69999980927,500821.2999997139,493466.061,493468.90000009537,493482.256,500832.449,8,400,,,
trial,html.Screen,4_68_0,2023-09-15T22:58:14.448Z,,0,2,,7320.250999809243,response,ISIC_1076474.JPG,18,ISIC_0025512.JPG,ISIC_1076474.JPG,false,1,keypress(m),500,508153,508152.69999980927,500816.02,500821.7999997139,500832.449,508165.645,8,400,19,,ISIC_0025512.JPG
break,html.Screen,4_68_1,2023-09-15T22:58:14.448Z,,0,,,NaN,,,,,,false,,,,508153.90000009537,508153.59999990463,,508153.2999997139,,508165.645,8,400,,,
break_continue,html.Screen,4_68_2,2023-09-15T22:58:14.449Z,,0,,,NaN,,,,,,false,,,,508154.40000009537,508154.19999980927,,508154.19999980927,,508165.645,8,400,,,
sequence,flow.Sequence,4_68,2023-09-15T22:58:14.449Z,,0,,,7321.750999809243,completion,,,,,false,,,,508154.59999990463,508154.19999980927,500816.02,500821.69999980927,500832.449,508165.645,8,400,,,
trial,html.Screen,4_69_0,2023-09-15T22:58:19.706Z,,0,2,,5245.954999904614,response,ISIC_8436194.JPG,16,ISIC_8357420.JPG,ISIC_8357420.JPG,false,0,keypress(z),500,513411.90000009537,513411.59999990463,508149.382,508154.69999980927,508165.645,513415.739,8,400,20,,ISIC_8436194.JPG
break,html.Screen,4_69_1,2023-09-15T22:58:19.708Z,,0,,,NaN,,,,,,false,,,,513413.69999980927,513413.5,,513412.19999980927,,513415.739,8,400,,,
break_continue,html.Screen,4_69_2,2023-09-15T22:58:19.709Z,,0,,,NaN,,,,,,false,,,,513414.19999980927,513414,,513413.90000009537,,513415.739,8,400,,,
sequence,flow.Sequence,4_69,2023-09-15T22:58:19.709Z,,0,,,5248.354999999981,completion,,,,,false,,,,513414.40000009537,513414,508149.382,508154.69999980927,508165.645,513415.739,8,400,,,
trial,html.Screen,4_70_0,2023-09-15T22:58:24.767Z,,0,2,,5056.060999713896,response,ISIC_0033625.JPG,14,ISIC_0072943.JPG,ISIC_0033625.JPG,false,1,keypress(m),500,518472.09999990463,518471.7999997139,513399.415,513414.59999990463,513415.739,518482.488,8,400,21,,ISIC_0072943.JPG
break,html.Screen,4_70_1,2023-09-15T22:58:24.768Z,,0,,,NaN,,,,,,false,,,,518473.40000009537,518472.7999997139,,518472.2999997139,,518482.488,8,400,,,
break_continue,html.Screen,4_70_2,2023-09-15T22:58:24.769Z,,0,,,NaN,,,,,,false,,,,518474.90000009537,518473.59999990463,,518473.5,,518482.488,8,400,,,
sequence,flow.Sequence,4_70,2023-09-15T22:58:24.770Z,,0,,,5057.860999904631,completion,,,,,false,,,,518475.19999980927,518473.59999990463,513399.415,513414.5,513415.739,518482.488,8,400,,,
trial,html.Screen,4_71_0,2023-09-15T22:58:31.525Z,,0,2,,6748.011999999988,response,ISIC_5234605.JPG,1,ISIC_0010803.JPG,ISIC_0010803.JPG,false,0,keypress(z),500,525230.7999997139,525230.5,518466.325,518475.2999997139,518482.488,525254.301,8,400,22,,ISIC_5234605.JPG
break,html.Screen,4_71_1,2023-09-15T22:58:31.527Z,,0,,,NaN,,,,,,false,,,,525232,525231.5,,525231,,525254.301,8,400,,,
break_continue,html.Screen,4_71_2,2023-09-15T22:58:31.527Z,,0,,,NaN,,,,,,false,,,,525232.5,525232.2999997139,,525232.0999999046,,525254.301,8,400,,,
sequence,flow.Sequence,4_71,2023-09-15T22:58:31.527Z,,0,,,6749.811999713886,completion,,,,,false,,,,525232.6999998093,525232.2999997139,518466.325,518475.19999980927,518482.488,525254.301,8,400,,,
trial,html.Screen,4_72_0,2023-09-15T22:58:37.621Z,,0,2,,6071.49899971392,response,ISIC_9538004.JPG,7,ISIC_0010809.JPG,ISIC_9538004.JPG,false,1,keypress(m),500,531326.1999998093,531325.7999997139,525216.19,525233,525254.301,531333.069,8,400,23,,ISIC_0010809.JPG
break,html.Screen,4_72_1,2023-09-15T22:58:37.622Z,,0,,,NaN,,,,,,false,,,,531327.2999997139,531326.7999997139,,531326.2999997139,,531333.069,8,400,,,
break_continue,html.Screen,4_72_2,2023-09-15T22:58:37.622Z,,0,,,NaN,,,,,,false,,,,531327.6999998093,531327.5999999046,,531327.5,,531333.069,8,400,,,
sequence,flow.Sequence,4_72,2023-09-15T22:58:37.622Z,,0,,,6073.298999904655,completion,,,,,false,,,,531327.9000000954,531327.5999999046,525216.19,525233,525254.301,531333.069,8,400,,,
trial,html.Screen,4_73_0,2023-09-15T22:58:45.178Z,,0,2,,7550.130999809247,response,ISIC_6785249.JPG,11,ISIC_0028618.JPG,ISIC_6785249.JPG,false,1,keypress(m),500,538883.5999999046,538883.1999998093,531316.154,531327.9000000954,531333.069,538899.117,8,400,24,,ISIC_0028618.JPG
break,html.Screen,4_73_1,2023-09-15T22:58:45.180Z,,0,,,NaN,,,,,,false,,,,538885.1999998093,538884.5,,538883.9000000954,,538899.117,8,400,,,
break_continue,html.Screen,4_73_2,2023-09-15T22:58:45.180Z,,0,,,NaN,,,,,,false,,,,538885.5,538885.4000000954,,538885.2999997139,,538899.117,8,400,,,
sequence,flow.Sequence,4_73,2023-09-15T22:58:45.180Z,,0,,,7552.33100009535,completion,,,,,false,,,,538885.6999998093,538885.4000000954,531316.154,531327.9000000954,531333.069,538899.117,8,400,,,
trial,html.Screen,4_74_0,2023-09-15T22:58:51.754Z,,0,2,,6559.883000000031,response,ISIC_5352684.JPG,4,ISIC_0026746.JPG,ISIC_5352684.JPG,false,1,keypress(m),500,545459.4000000954,545459,538882.9,538885.7999997139,538899.117,545466.835,8,400,25,,ISIC_0026746.JPG
break,html.Screen,4_74_1,2023-09-15T22:58:51.755Z,,0,,,NaN,,,,,,false,,,,545460.6999998093,545460.5,,545459.5999999046,,545466.835,8,400,,,
break_continue,html.Screen,4_74_2,2023-09-15T22:58:51.756Z,,0,,,NaN,,,,,,false,,,,545461.0999999046,545460.9000000954,,545460.9000000954,,545466.835,8,400,,,
sequence,flow.Sequence,4_74,2023-09-15T22:58:51.756Z,,0,,,6561.783000095398,completion,,,,,false,,,,545461.2999997139,545460.9000000954,538882.9,538885.7999997139,538899.117,545466.835,8,400,,,
trial,html.Screen,4_75_0,2023-09-15T22:58:58.830Z,,0,2,,7068.76499990467,response,ISIC_8447658.JPG,2,ISIC_0024266.JPG,ISIC_0024266.JPG,false,0,keypress(z),500,552535.9000000954,552535.5999999046,545449.601,545461.4000000954,545466.835,552549.207,8,400,26,,ISIC_8447658.JPG
break,html.Screen,4_75_1,2023-09-15T22:58:58.831Z,,0,,,NaN,,,,,,false,,,,552537.0999999046,552536.9000000954,,552536.0999999046,,552549.207,8,400,,,
break_continue,html.Screen,4_75_2,2023-09-15T22:58:58.832Z,,0,,,NaN,,,,,,false,,,,552537.5,552537.2999997139,,552537.1999998093,,552549.207,8,400,,,
sequence,flow.Sequence,4_75,2023-09-15T22:58:58.832Z,,0,,,7070.464999713935,completion,,,,,false,,,,552537.5999999046,552537.2999997139,545449.601,545461.2999997139,545466.835,552549.207,8,400,,,
trial,html.Screen,4_76_0,2023-09-15T22:59:05.221Z,,0,2,,6376.8929999045795,response,ISIC_0063180.JPG,11,ISIC_0012069.JPG,ISIC_0063180.JPG,false,1,keypress(m),500,558926.4000000954,558926.0999999046,552532.973,552537.7999997139,552549.207,558933.572,8,400,27,,ISIC_0012069.JPG
break,html.Screen,4_76_1,2023-09-15T22:59:05.222Z,,0,,,NaN,,,,,,false,,,,558927.6999998093,558927.5,,558926.5999999046,,558933.572,8,400,,,
break_continue,html.Screen,4_76_2,2023-09-15T22:59:05.222Z,,0,,,NaN,,,,,,false,,,,558928.0999999046,558928,,558927.9000000954,,558933.572,8,400,,,
sequence,flow.Sequence,4_76,2023-09-15T22:59:05.223Z,,0,,,6378.792999999947,completion,,,,,false,,,,558928.2999997139,558928,552532.973,552537.6999998093,552549.207,558933.572,8,400,,,
trial,html.Screen,4_77_0,2023-09-15T22:59:12.157Z,,0,2,,6929.227999713854,response,ISIC_9538004.JPG,1,ISIC_5097947.JPG,ISIC_9538004.JPG,false,1,keypress(m),500,565863.0999999046,565862.7999997139,558916.006,558928.4000000954,558933.572,565866.008,8,400,28,,ISIC_5097947.JPG
break,html.Screen,4_77_1,2023-09-15T22:59:12.159Z,,0,,,NaN,,,,,,false,,,,565864.2999997139,565864.0999999046,,565863.2999997139,,565866.008,8,400,,,
break_continue,html.Screen,4_77_2,2023-09-15T22:59:12.159Z,,0,,,NaN,,,,,,false,,,,565864.6999998093,565864.5999999046,,565864.4000000954,,565866.008,8,400,,,
sequence,flow.Sequence,4_77,2023-09-15T22:59:12.159Z,,0,,,6931.027999904589,completion,,,,,false,,,,565864.9000000954,565864.5999999046,558916.006,558928.4000000954,558933.572,565866.008,8,400,,,
trial,html.Screen,4_78_0,2023-09-15T22:59:17.535Z,,0,2,,5373.791999713867,response,ISIC_0055246.JPG,13,ISIC_0010061.JPG,ISIC_0010061.JPG,false,0,keypress(z),500,571240.1999998093,571239.7999997139,565849.776,565865,565866.008,571249.622,8,400,29,,ISIC_0055246.JPG
break,html.Screen,4_78_1,2023-09-15T22:59:17.536Z,,0,,,NaN,,,,,,false,,,,571241.2999997139,571240.9000000954,,571240.4000000954,,571249.622,8,400,,,
break_continue,html.Screen,4_78_2,2023-09-15T22:59:17.536Z,,0,,,NaN,,,,,,false,,,,571241.6999998093,571241.5999999046,,571241.5,,571249.622,8,400,,,
sequence,flow.Sequence,4_78,2023-09-15T22:59:17.536Z,,0,,,5375.591999904602,completion,,,,,false,,,,571241.9000000954,571241.5999999046,565849.776,565864.9000000954,565866.008,571249.622,8,400,,,
trial,html.Screen,4_79_0,2023-09-15T22:59:23.081Z,,0,2,,5536.677999713924,response,ISIC_0011132.JPG,7,ISIC_4132082.JPG,ISIC_4132082.JPG,false,0,keypress(z),500,576786.5999999046,576786.2999997139,571233.086,571242,571249.622,576799.435,8,400,30,,ISIC_0011132.JPG
break,html.Screen,4_79_1,2023-09-15T22:59:23.082Z,,0,,,NaN,,,,,,false,,,,576787.6999998093,576787.5,,576786.6999998093,,576799.435,8,400,,,
break_continue,html.Screen,4_79_2,2023-09-15T22:59:23.083Z,,0,,,NaN,,,,,,false,,,,576788.0999999046,576788,,576787.9000000954,,576799.435,8,400,,,
sequence,flow.Sequence,4_79,2023-09-15T22:59:23.083Z,,0,,,5538.378000000026,completion,,,,,false,,,,576788.2999997139,576788,571233.086,571242,571249.622,576799.435,8,400,,,
trial,html.Screen,4_80_0,2023-09-15T22:59:28.152Z,,0,2,,5057.864999713842,response,ISIC_0028219.JPG,12,ISIC_4686317.JPG,ISIC_0028219.JPG,false,1,keypress(m),500,581857.6999998093,581857.2999997139,576782.721,576788.4000000954,576799.435,581866.166,8,400,31,,ISIC_4686317.JPG
break,html.Screen,4_80_1,2023-09-15T22:59:28.153Z,,0,,,NaN,,,,,,false,,,,581858.5999999046,581858.2999997139,,581858,,581866.166,8,400,,,
break_continue,html.Screen,4_80_2,2023-09-15T22:59:28.153Z,,0,,,NaN,,,,,,false,,,,581859.0999999046,581858.9000000954,,581858.7999997139,,581866.166,8,400,,,
sequence,flow.Sequence,4_80,2023-09-15T22:59:28.154Z,,0,,,5059.465000095312,completion,,,,,false,,,,581859.1999998093,581858.9000000954,576782.721,576788.4000000954,576799.435,581866.166,8,400,,,
trial,html.Screen,4_81_0,2023-09-15T22:59:32.417Z,,0,2,,4256.334000000032,response,ISIC_0064279.JPG,3,ISIC_0027356.JPG,ISIC_0027356.JPG,false,0,keypress(z),500,586122.7999997139,586122.5,581849.832,581859.4000000954,581866.166,586132.773,8,400,32,,ISIC_0064279.JPG
break,html.Screen,4_81_1,2023-09-15T22:59:32.418Z,,0,,,NaN,,,,,,false,,,,586124,586123.7999997139,,586123,,586132.773,8,400,,,
break_continue,html.Screen,4_81_2,2023-09-15T22:59:32.419Z,,0,,,NaN,,,,,,false,,,,586124.2999997139,586124.1999998093,,586124.1999998093,,586132.773,8,400,,,
sequence,flow.Sequence,4_81,2023-09-15T22:59:32.419Z,,0,,,4258.033999809297,completion,,,,,false,,,,586124.5,586124.1999998093,581849.832,581859.2999997139,581866.166,586132.773,8,400,,,
trial,html.Screen,4_82_0,2023-09-15T22:59:36.117Z,,0,2,,3689.4269998092204,response,ISIC_0012721.JPG,3,ISIC_0007257.JPG,ISIC_0007257.JPG,false,0,keypress(z),500,589822.5,589822.1999998093,586116.576,586124.6999998093,586132.773,589832.812,8,400,33,,ISIC_0012721.JPG
break,html.Screen,4_82_1,2023-09-15T22:59:36.118Z,,0,,,NaN,,,,,,false,,,,589824,589823.7999997139,,589822.7999997139,,589832.812,8,400,,,
break_continue,html.Screen,4_82_2,2023-09-15T22:59:36.119Z,,0,,,NaN,,,,,,false,,,,589824.5,589824.2999997139,,589824.1999998093,,589832.812,8,400,,,
sequence,flow.Sequence,4_82,2023-09-15T22:59:36.119Z,,0,,,3691.526999713853,completion,,,,,false,,,,589824.5999999046,589824.2999997139,586116.576,586124.5999999046,586132.773,589832.812,8,400,,,
trial,html.Screen,4_83_0,2023-09-15T22:59:42.879Z,,0,2,,6750.987999713863,response,ISIC_0033589.JPG,3,ISIC_0339930.JPG,ISIC_0339930.JPG,false,0,keypress(z),500,596584.1999998093,596583.7999997139,589816.189,589824.7999997139,589832.812,596599.553,8,400,34,,ISIC_0033589.JPG
break,html.Screen,4_83_1,2023-09-15T22:59:42.880Z,,0,,,NaN,,,,,,false,,,,596585.4000000954,596584.9000000954,,596584.4000000954,,596599.553,8,400,,,
break_continue,html.Screen,4_83_2,2023-09-15T22:59:42.880Z,,0,,,NaN,,,,,,false,,,,596585.7999997139,596585.6999998093,,596585.6999998093,,596599.553,8,400,,,
sequence,flow.Sequence,4_83,2023-09-15T22:59:42.880Z,,0,,,6752.887999809231,completion,,,,,false,,,,596586.0999999046,596585.6999998093,589816.189,589824.7999997139,589832.812,596599.553,8,400,,,
trial,html.Screen,4_84_0,2023-09-15T22:59:46.934Z,,0,2,,4040.0469999046763,response,ISIC_4023381.JPG,11,ISIC_0053594.JPG,ISIC_4023381.JPG,false,1,keypress(m),500,600639.7999997139,600639.5999999046,596582.875,596586.1999998093,596599.553,600649.707,8,400,35,,ISIC_0053594.JPG
break,html.Screen,4_84_1,2023-09-15T22:59:46.935Z,,0,,,NaN,,,,,,false,,,,600641.0999999046,600640.9000000954,,600640.0999999046,,600649.707,8,400,,,
break_continue,html.Screen,4_84_2,2023-09-15T22:59:46.936Z,,0,,,NaN,,,,,,false,,,,600641.5,600641.4000000954,,600641.1999998093,,600649.707,8,400,,,
sequence,flow.Sequence,4_84,2023-09-15T22:59:46.936Z,,0,,,4041.847000095411,completion,,,,,false,,,,600641.6999998093,600641.4000000954,596582.875,596586.0999999046,596599.553,600649.707,8,400,,,
trial,html.Screen,4_85_0,2023-09-15T22:59:53.728Z,,0,2,,6783.592999713845,response,ISIC_0013842.JPG,9,ISIC_0069274.JPG,ISIC_0013842.JPG,false,1,keypress(m),500,607433.5999999046,607433.2999997139,600633.417,600641.7999997139,600649.707,607450.001,8,400,36,,ISIC_0069274.JPG
break,html.Screen,4_85_1,2023-09-15T22:59:53.730Z,,0,,,NaN,,,,,,false,,,,607435.5999999046,607435.2999997139,,607433.9000000954,,607450.001,8,400,,,
break_continue,html.Screen,4_85_2,2023-09-15T22:59:53.731Z,,0,,,NaN,,,,,,false,,,,607436.0999999046,607436,,607435.7999997139,,607450.001,8,400,,,
sequence,flow.Sequence,4_85,2023-09-15T22:59:53.731Z,,0,,,6786.292999999947,completion,,,,,false,,,,607436.4000000954,607436,600633.417,600641.6999998093,600649.707,607450.001,8,400,,,
trial,html.Screen,4_86_0,2023-09-15T23:00:00.496Z,,0,2,,6751.198999809218,response,ISIC_0060233.JPG,8,ISIC_0448485.JPG,ISIC_0448485.JPG,false,0,keypress(z),500,614201.4000000954,614201.1999998093,607433.387,607436.5999999046,607450.001,614216.294,8,400,37,,ISIC_0060233.JPG
break,html.Screen,4_86_1,2023-09-15T23:00:00.497Z,,0,,,NaN,,,,,,false,,,,614202.4000000954,614202,,614201.5999999046,,614216.294,8,400,,,
break_continue,html.Screen,4_86_2,2023-09-15T23:00:00.497Z,,0,,,NaN,,,,,,false,,,,614202.9000000954,614202.7999997139,,614202.6999998093,,614216.294,8,400,,,
sequence,flow.Sequence,4_86,2023-09-15T23:00:00.498Z,,0,,,6752.79899971385,completion,,,,,false,,,,614203.1999998093,614202.7999997139,607433.387,607436.5,607450.001,614216.294,8,400,,,
trial,html.Screen,4_87_0,2023-09-15T23:00:06.729Z,,0,2,,6217.606000095373,response,ISIC_4699989.JPG,12,ISIC_7651838.JPG,ISIC_7651838.JPG,false,0,keypress(z),500,620434.4000000954,620433.9000000954,614200.134,614203.2999997139,614216.294,620449.68,8,400,38,,ISIC_4699989.JPG
break,html.Screen,4_87_1,2023-09-15T23:00:06.730Z,,0,,,NaN,,,,,,false,,,,620435.9000000954,620435.1999998093,,620434.5999999046,,620449.68,8,400,,,
break_continue,html.Screen,4_87_2,2023-09-15T23:00:06.731Z,,0,,,NaN,,,,,,false,,,,620436.1999998093,620436.0999999046,,620435.9000000954,,620449.68,8,400,,,
sequence,flow.Sequence,4_87,2023-09-15T23:00:06.731Z,,0,,,6219.805999904638,completion,,,,,false,,,,620436.4000000954,620436.0999999046,614200.134,614203.1999998093,614216.294,620449.68,8,400,,,
trial,html.Screen,4_88_0,2023-09-15T23:00:13.081Z,,0,2,,6336.419999904581,response,ISIC_6455702.JPG,13,ISIC_0011800.JPG,ISIC_6455702.JPG,false,1,keypress(m),500,626786.4000000954,626786.0999999046,620432.932,620436.5,620449.68,626799.652,8,400,39,,ISIC_0011800.JPG
break,html.Screen,4_88_1,2023-09-15T23:00:13.082Z,,0,,,NaN,,,,,,false,,,,626787.5,626787.0999999046,,626786.5,,626799.652,8,400,,,
break_continue,html.Screen,4_88_2,2023-09-15T23:00:13.082Z,,0,,,NaN,,,,,,false,,,,626787.9000000954,626787.6999998093,,626787.5999999046,,626799.652,8,400,,,
sequence,flow.Sequence,4_88,2023-09-15T23:00:13.082Z,,0,,,6338.019999809214,completion,,,,,false,,,,626788,626787.6999998093,620432.932,620436.5,620449.68,626799.652,8,400,,,
trial,html.Screen,4_89_0,2023-09-15T23:00:19.844Z,,0,2,,6749.748000095366,response,ISIC_8651765.JPG,2,ISIC_2200924.JPG,ISIC_8651765.JPG,false,1,keypress(m),500,633550.0999999046,633549.4000000954,626783.424,626788.1999998093,626799.652,633566.403,8,400,40,,ISIC_2200924.JPG
break,html.Screen,4_89_1,2023-09-15T23:00:19.846Z,,0,,,NaN,,,,,,false,,,,633551.4000000954,633551,,633550.5,,633566.403,8,400,,,
break_continue,html.Screen,4_89_2,2023-09-15T23:00:19.846Z,,0,,,NaN,,,,,,false,,,,633551.7999997139,633551.6999998093,,633551.5999999046,,633566.403,8,400,,,
sequence,flow.Sequence,4_89,2023-09-15T23:00:19.846Z,,0,,,6752.047999809263,completion,,,,,false,,,,633552,633551.6999998093,626783.424,626788.0999999046,626799.652,633566.403,8,400,,,
trial,html.Screen,4_90_0,2023-09-15T23:00:28.154Z,,0,2,,8292.497000095318,response,ISIC_6025721.JPG,8,ISIC_0000148.JPG,ISIC_6025721.JPG,false,1,keypress(m),500,641859.2999997139,641858.9000000954,633550.187,633552.0999999046,633566.403,641867.222,8,400,41,,ISIC_0000148.JPG
break,html.Screen,4_90_1,2023-09-15T23:00:28.155Z,,0,,,NaN,,,,,,false,,,,641860.6999998093,641860.1999998093,,641859.5,,641867.222,8,400,,,
break_continue,html.Screen,4_90_2,2023-09-15T23:00:28.156Z,,0,,,NaN,,,,,,false,,,,641861.1999998093,641861.0999999046,,641860.9000000954,,641867.222,8,400,,,
sequence,flow.Sequence,4_90,2023-09-15T23:00:28.156Z,,0,,,8294.696999904583,completion,,,,,false,,,,641861.4000000954,641861.0999999046,633550.187,633552,633566.403,641867.222,8,400,,,
trial,html.Screen,4_91_0,2023-09-15T23:00:35.512Z,,0,2,,7349.577999713947,response,ISIC_1794249.JPG,10,ISIC_0034069.JPG,ISIC_1794249.JPG,false,1,keypress(m),500,649217.1999998093,649216.7999997139,641849.787,641861.5999999046,641867.222,649233.138,8,400,42,,ISIC_0034069.JPG
break,html.Screen,4_91_1,2023-09-15T23:00:35.513Z,,0,,,NaN,,,,,,false,,,,649218.5,649218.1999998093,,649217.5,,649233.138,8,400,,,
break_continue,html.Screen,4_91_2,2023-09-15T23:00:35.513Z,,0,,,NaN,,,,,,false,,,,649219,649218.7999997139,,649218.6999998093,,649233.138,8,400,,,
sequence,flow.Sequence,4_91,2023-09-15T23:00:35.514Z,,0,,,7351.577999713947,completion,,,,,false,,,,649219.1999998093,649218.7999997139,641849.787,641861.5999999046,641867.222,649233.138,8,400,,,
trial,html.Screen,4_92_0,2023-09-15T23:00:42.273Z,,0,2,,6744.762000095332,response,ISIC_1507583.JPG,6,ISIC_8292279.JPG,ISIC_1507583.JPG,false,1,keypress(m),500,655978.1999998093,655977.9000000954,649216.522,649219.2999997139,649233.138,655983.197,8,400,43,,ISIC_8292279.JPG
break,html.Screen,4_92_1,2023-09-15T23:00:42.274Z,,0,,,NaN,,,,,,false,,,,655979.4000000954,655979.1999998093,,655978.4000000954,,655983.197,8,400,,,
break_continue,html.Screen,4_92_2,2023-09-15T23:00:42.274Z,,0,,,NaN,,,,,,false,,,,655979.6999998093,655979.5999999046,,655979.5,,655983.197,8,400,,,
sequence,flow.Sequence,4_92,2023-09-15T23:00:42.274Z,,0,,,6746.461999904597,completion,,,,,false,,,,655979.9000000954,655979.5999999046,649216.522,649219.2999997139,649233.138,655983.197,8,400,,,
trial,html.Screen,4_93_0,2023-09-15T23:00:50.027Z,,0,2,,7749.002999809221,response,ISIC_0071869.JPG,12,ISIC_0033678.JPG,ISIC_0033678.JPG,false,0,keypress(z),500,663732.5999999046,663732.1999998093,655966.945,655980.0999999046,655983.197,663749.849,8,400,44,,ISIC_0071869.JPG
break,html.Screen,4_93_1,2023-09-15T23:00:50.029Z,,0,,,NaN,,,,,,false,,,,663734.4000000954,663734,,663732.9000000954,,663749.849,8,400,,,
break_continue,html.Screen,4_93_2,2023-09-15T23:00:50.029Z,,0,,,NaN,,,,,,false,,,,663735,663734.7999997139,,663734.6999998093,,663749.849,8,400,,,
sequence,flow.Sequence,4_93,2023-09-15T23:00:50.030Z,,0,,,7751.602999713854,completion,,,,,false,,,,663735.1999998093,663734.7999997139,655966.945,655980,655983.197,663749.849,8,400,,,
trial,html.Screen,4_94_0,2023-09-15T23:00:58.365Z,,0,2,,8320.551000095322,response,ISIC_5388485.JPG,6,ISIC_0025056.JPG,ISIC_5388485.JPG,false,1,keypress(m),500,672070.5999999046,672070.4000000954,663733.293,663735.2999997139,663749.849,672083.508,8,400,45,,ISIC_0025056.JPG
break,html.Screen,4_94_1,2023-09-15T23:00:58.366Z,,0,,,NaN,,,,,,false,,,,672072,672071.4000000954,,672070.9000000954,,672083.508,8,400,,,
break_continue,html.Screen,4_94_2,2023-09-15T23:00:58.367Z,,0,,,NaN,,,,,,false,,,,672072.2999997139,672072.1999998093,,672072.0999999046,,672083.508,8,400,,,
sequence,flow.Sequence,4_94,2023-09-15T23:00:58.367Z,,0,,,8322.35099980922,completion,,,,,false,,,,672072.5,672072.1999998093,663733.293,663735.2999997139,663749.849,672083.508,8,400,,,
trial,html.Screen,4_95_0,2023-09-15T23:01:04.361Z,,0,2,,5982.591999904602,response,ISIC_5545874.JPG,3,ISIC_0000413.JPG,ISIC_5545874.JPG,false,1,keypress(m),500,678066.2999997139,678066.0999999046,672067.029,672072.5999999046,672083.508,678083.643,8,400,46,,ISIC_0000413.JPG
break,html.Screen,4_95_1,2023-09-15T23:01:04.362Z,,0,,,NaN,,,,,,false,,,,678067.4000000954,678067,,678066.5,,678083.643,8,400,,,
break_continue,html.Screen,4_95_2,2023-09-15T23:01:04.362Z,,0,,,NaN,,,,,,false,,,,678067.7999997139,678067.5999999046,,678067.5999999046,,678083.643,8,400,,,
sequence,flow.Sequence,4_95,2023-09-15T23:01:04.362Z,,0,,,5984.091999904602,completion,,,,,false,,,,678067.9000000954,678067.5999999046,672067.029,672072.5,672083.508,678083.643,8,400,,,
trial,html.Screen,4_96_0,2023-09-15T23:01:10.836Z,,0,2,,6458.156999713858,response,ISIC_7508320.JPG,10,ISIC_8956001.JPG,ISIC_8956001.JPG,false,0,keypress(z),500,684542.0999999046,684541.7999997139,678066.657,678068,678083.643,684550.139,8,400,47,,ISIC_7508320.JPG
break,html.Screen,4_96_1,2023-09-15T23:01:10.837Z,,0,,,NaN,,,,,,false,,,,684543.1999998093,684542.7999997139,,684542.4000000954,,684550.139,8,400,,,
break_continue,html.Screen,4_96_2,2023-09-15T23:01:10.838Z,,0,,,NaN,,,,,,false,,,,684543.5999999046,684543.5,,684543.2999997139,,684550.139,8,400,,,
sequence,flow.Sequence,4_96,2023-09-15T23:01:10.838Z,,0,,,6459.85699999996,completion,,,,,false,,,,684543.7999997139,684543.5,678066.657,678068,678083.643,684550.139,8,400,,,
trial,html.Screen,4_97_0,2023-09-15T23:01:15.728Z,,0,2,,4882.960999904666,response,ISIC_2975580.JPG,6,ISIC_0053469.JPG,ISIC_2975580.JPG,false,1,keypress(m),500,689433.4000000954,689433.0999999046,684533.451,684544,684550.139,689450.661,8,400,48,,ISIC_0053469.JPG
break,html.Screen,4_97_1,2023-09-15T23:01:15.729Z,,0,,,NaN,,,,,,false,,,,689434.5,689434.0999999046,,689433.5999999046,,689450.661,8,400,,,
break_continue,html.Screen,4_97_2,2023-09-15T23:01:15.729Z,,0,,,NaN,,,,,,false,,,,689434.7999997139,689434.6999998093,,689434.5999999046,,689450.661,8,400,,,
sequence,flow.Sequence,4_97,2023-09-15T23:01:15.729Z,,0,,,4884.560999809299,completion,,,,,false,,,,689435,689434.6999998093,684533.451,684543.9000000954,684550.139,689450.661,8,400,,,
trial,html.Screen,4_98_0,2023-09-15T23:01:20.209Z,,0,2,,4463.5389998093015,response,ISIC_4470206.JPG,7,ISIC_0799535.JPG,ISIC_0799535.JPG,false,0,keypress(z),500,693914.5999999046,693914.1999998093,689433.416,689435.1999998093,689450.661,693916.773,8,400,49,,ISIC_4470206.JPG
break,html.Screen,4_98_1,2023-09-15T23:01:20.210Z,,0,,,NaN,,,,,,false,,,,693915.9000000954,693915.6999998093,,693914.7999997139,,693916.773,8,400,,,
break_continue,html.Screen,4_98_2,2023-09-15T23:01:20.211Z,,0,,,NaN,,,,,,false,,,,693916.1999998093,693916.0999999046,,693915.9000000954,,693916.773,8,400,,,
sequence,flow.Sequence,4_98,2023-09-15T23:01:20.211Z,,0,,,4465.438999904669,completion,,,,,false,,,,693916.4000000954,693916.0999999046,689433.416,689435.0999999046,689450.661,693916.773,8,400,,,
trial,html.Screen,4_99_0,2023-09-15T23:01:26.071Z,,0,2,,5859.127000095323,response,ISIC_2739547.JPG,2,ISIC_0066200.JPG,ISIC_0066200.JPG,false,0,keypress(z),500,699776.1999998093,699775.9000000954,693900.043,693916.5,693916.773,699783.47,8,400,50,,ISIC_2739547.JPG
break,html.Screen,4_99_1,2023-09-15T23:01:36.063Z,,0,,,10000.32500000007,timeout,,,,,false,,,,709768.4000000954,709767.204,699767.382,699776.4000000954,699783.47,709783.795,8,400,,,
break_continue,html.Screen,4_99_2,2023-09-15T23:03:10.721Z,,0,,,94606.30499990459,response,,,,,false,continue,keypress(Space),,804426.7999997139,804390.0999999046,709767.204,709768.5999999046,709783.795,804434.006,8,400,,,
sequence,flow.Sequence,4_99,2023-09-15T23:03:10.721Z,,0,,,110473.32699990459,completion,,,,,false,,,,804426.9000000954,804390.0999999046,693900.043,693916.5,693916.773,804434.006,8,400,,,
trial,html.Screen,4_100_0,2023-09-15T23:03:14.729Z,,0,3,,4000.7939997138456,response,ISIC_9509757.JPG,10,ISIC_0064072.JPG,ISIC_0064072.JPG,false,0,keypress(z),500,808435.0999999046,808434.7999997139,804424.478,804427.0999999046,804434.006,808450.715,8,400,1,,ISIC_9509757.JPG
break,html.Screen,4_100_1,2023-09-15T23:03:14.731Z,,0,,,NaN,,,,,,false,,,,808436.4000000954,808435.9000000954,,808435.4000000954,,808450.715,8,400,,,
break_continue,html.Screen,4_100_2,2023-09-15T23:03:14.731Z,,0,,,NaN,,,,,,false,,,,808436.7999997139,808436.6999998093,,808436.5999999046,,808450.715,8,400,,,
sequence,flow.Sequence,4_100,2023-09-15T23:03:14.731Z,,0,,,4002.693999809213,completion,,,,,false,,,,808437,808436.6999998093,804424.478,804427,804434.006,808450.715,8,400,,,
trial,html.Screen,4_101_0,2023-09-15T23:03:20.907Z,,0,3,,6161.785000000033,response,ISIC_2858419.JPG,25,ISIC_0059427.JPG,ISIC_2858419.JPG,false,1,keypress(m),500,814612.7999997139,814612.5,808434.109,808437.0999999046,808450.715,814617.468,8,400,2,,ISIC_0059427.JPG
break,html.Screen,4_101_1,2023-09-15T23:03:20.908Z,,0,,,NaN,,,,,,false,,,,814614.0999999046,814613.5,,814613,,814617.468,8,400,,,
break_continue,html.Screen,4_101_2,2023-09-15T23:03:20.909Z,,0,,,NaN,,,,,,false,,,,814614.4000000954,814614.2999997139,,814614.1999998093,,814617.468,8,400,,,
sequence,flow.Sequence,4_101,2023-09-15T23:03:20.909Z,,0,,,6163.58499971393,completion,,,,,false,,,,814614.5,814614.2999997139,808434.109,808437.0999999046,808450.715,814617.468,8,400,,,
trial,html.Screen,4_102_0,2023-09-15T23:03:30.995Z,,0,3,,10083.231999809272,response,ISIC_0001121.JPG,14,ISIC_5777181.JPG,ISIC_0001121.JPG,false,1,keypress(m),500,824701,824700.6999998093,814601.283,814614.6999998093,814617.468,824717.47,8,400,3,,ISIC_5777181.JPG
break,html.Screen,4_102_1,2023-09-15T23:03:30.997Z,,0,,,NaN,,,,,,false,,,,824702.2999997139,824701.9000000954,,824701.4000000954,,824717.47,8,400,,,
break_continue,html.Screen,4_102_2,2023-09-15T23:03:30.997Z,,0,,,NaN,,,,,,false,,,,824702.7999997139,824702.6999998093,,824702.5,,824717.47,8,400,,,
sequence,flow.Sequence,4_102,2023-09-15T23:03:30.997Z,,0,,,10085.231999809272,completion,,,,,false,,,,824703.0999999046,824702.6999998093,814601.283,814614.5999999046,814617.468,824717.47,8,400,,,
trial,html.Screen,4_103_0,2023-09-15T23:03:38.540Z,,0,3,,7527.930000095395,response,ISIC_1579745.JPG,12,ISIC_5415761.JPG,ISIC_1579745.JPG,false,1,keypress(m),500,832245.6999998093,832245.4000000954,824701.474,824703.1999998093,824717.47,832250.925,8,400,4,,ISIC_5415761.JPG
break,html.Screen,4_103_1,2023-09-15T23:03:38.541Z,,0,,,NaN,,,,,,false,,,,832246.7999997139,832246.4000000954,,832245.9000000954,,832250.925,8,400,,,
break_continue,html.Screen,4_103_2,2023-09-15T23:03:38.542Z,,0,,,NaN,,,,,,false,,,,832247.1999998093,832247.0999999046,,832247,,832250.925,8,400,,,
sequence,flow.Sequence,4_103,2023-09-15T23:03:38.542Z,,0,,,7529.6299999046605,completion,,,,,false,,,,832247.4000000954,832247.0999999046,824701.474,824703.1999998093,824717.47,832250.925,8,400,,,
trial,html.Screen,4_104_0,2023-09-15T23:03:46.808Z,,0,3,,8262.374999713851,response,ISIC_0068246.JPG,14,ISIC_0033530.JPG,ISIC_0068246.JPG,false,1,keypress(m),500,840513.6999998093,840513.2999997139,832234.501,832247.5,832250.925,840517.646,8,400,5,,ISIC_0033530.JPG
break,html.Screen,4_104_1,2023-09-15T23:03:46.809Z,,0,,,NaN,,,,,,false,,,,840514.9000000954,840514.7999997139,,840514,,840517.646,8,400,,,
break_continue,html.Screen,4_104_2,2023-09-15T23:03:46.810Z,,0,,,NaN,,,,,,false,,,,840515.4000000954,840515.1999998093,,840515.0999999046,,840517.646,8,400,,,
sequence,flow.Sequence,4_104,2023-09-15T23:03:46.810Z,,0,,,8264.274999809219,completion,,,,,false,,,,840515.5,840515.1999998093,832234.501,832247.5,832250.925,840517.646,8,400,,,
trial,html.Screen,4_105_0,2023-09-15T23:03:52.479Z,,0,3,,5666.453999904683,response,ISIC_0007501.JPG,10,ISIC_2948811.JPG,ISIC_2948811.JPG,false,0,keypress(z),500,846184.5,846184.0999999046,840500.963,840515.6999998093,840517.646,846200.973,8,400,6,,ISIC_0007501.JPG
break,html.Screen,4_105_1,2023-09-15T23:03:52.480Z,,0,,,NaN,,,,,,false,,,,846185.9000000954,846185.5,,846184.7999997139,,846200.973,8,400,,,
break_continue,html.Screen,4_105_2,2023-09-15T23:03:52.481Z,,0,,,NaN,,,,,,false,,,,846186.5,846186.2999997139,,846186.0999999046,,846200.973,8,400,,,
sequence,flow.Sequence,4_105,2023-09-15T23:03:52.481Z,,0,,,5668.653999713948,completion,,,,,false,,,,846186.6999998093,846186.2999997139,840500.963,840515.5999999046,840517.646,846200.973,8,400,,,
trial,html.Screen,4_106_0,2023-09-15T23:03:57.928Z,,0,3,,5432.527000000002,response,ISIC_0032783.JPG,5,ISIC_0030784.JPG,ISIC_0032783.JPG,false,1,keypress(m),500,851633.9000000954,851633.5,846184.78,846186.7999997139,846200.973,851651.014,8,400,7,,ISIC_0030784.JPG
break,html.Screen,4_106_1,2023-09-15T23:03:57.930Z,,0,,,NaN,,,,,,false,,,,851635.6999998093,851635.5,,851634.1999998093,,851651.014,8,400,,,
break_continue,html.Screen,4_106_2,2023-09-15T23:03:57.931Z,,0,,,NaN,,,,,,false,,,,851636.2999997139,851636.0999999046,,851635.9000000954,,851651.014,8,400,,,
sequence,flow.Sequence,4_106,2023-09-15T23:03:57.931Z,,0,,,5435.126999904634,completion,,,,,false,,,,851636.5,851636.0999999046,846184.78,846186.6999998093,846200.973,851651.014,8,400,,,
trial,html.Screen,4_107_0,2023-09-15T23:04:04.904Z,,0,3,,6958.4860000000335,response,ISIC_0060452.JPG,15,ISIC_3936223.JPG,ISIC_0060452.JPG,false,1,keypress(m),500,858609.7999997139,858609.5,851618.941,851636.6999998093,851651.014,858617.768,8,400,8,,ISIC_3936223.JPG
break,html.Screen,4_107_1,2023-09-15T23:04:04.905Z,,0,,,NaN,,,,,,false,,,,858611,858610.5,,858610,,858617.768,8,400,,,
break_continue,html.Screen,4_107_2,2023-09-15T23:04:04.906Z,,0,,,NaN,,,,,,false,,,,858611.2999997139,858611.1999998093,,858611.0999999046,,858617.768,8,400,,,
sequence,flow.Sequence,4_107,2023-09-15T23:04:04.906Z,,0,,,6960.185999809299,completion,,,,,false,,,,858611.5,858611.1999998093,851618.941,851636.5999999046,851651.014,858617.768,8,400,,,
trial,html.Screen,4_108_0,2023-09-15T23:04:08.164Z,,0,3,,3251.6320000953274,response,ISIC_0014144.JPG,12,ISIC_0064427.JPG,ISIC_0014144.JPG,false,1,keypress(m),500,861869.6999998093,861869.4000000954,858601.441,858611.5999999046,858617.768,861884.41,8,400,9,,ISIC_0064427.JPG
break,html.Screen,4_108_1,2023-09-15T23:04:08.165Z,,0,,,NaN,,,,,,false,,,,861871,861870.6999998093,,861869.9000000954,,861884.41,8,400,,,
break_continue,html.Screen,4_108_2,2023-09-15T23:04:08.166Z,,0,,,NaN,,,,,,false,,,,861871.4000000954,861871.2999997139,,861871.0999999046,,861884.41,8,400,,,
sequence,flow.Sequence,4_108,2023-09-15T23:04:08.166Z,,0,,,3253.5319997138577,completion,,,,,false,,,,861871.5,861871.2999997139,858601.441,858611.5999999046,858617.768,861884.41,8,400,,,
trial,html.Screen,4_109_0,2023-09-15T23:04:13.908Z,,0,3,,5729.2899998092325,response,ISIC_6892561.JPG,3,ISIC_8483458.JPG,ISIC_8483458.JPG,false,0,keypress(z),500,867614,867613.6999998093,861868.36,861871.6999998093,861884.41,867617.806,8,400,10,,ISIC_6892561.JPG
break,html.Screen,4_109_1,2023-09-15T23:04:13.910Z,,0,,,NaN,,,,,,false,,,,867615.1999998093,867614.6999998093,,867614.2999997139,,867617.806,8,400,,,
break_continue,html.Screen,4_109_2,2023-09-15T23:04:13.910Z,,0,,,NaN,,,,,,false,,,,867615.5999999046,867615.4000000954,,867615.4000000954,,867617.806,8,400,,,
sequence,flow.Sequence,4_109,2023-09-15T23:04:13.910Z,,0,,,5730.990000095335,completion,,,,,false,,,,867615.6999998093,867615.4000000954,861868.36,861871.6999998093,861884.41,867617.806,8,400,,,
trial,html.Screen,4_110_0,2023-09-15T23:04:19.571Z,,0,3,,5658.393999809283,response,ISIC_7233368.JPG,7,ISIC_0939648.JPG,ISIC_7233368.JPG,false,1,keypress(m),500,873276.5,873276.1999998093,867601.536,867615.9000000954,867617.806,873284.608,8,400,11,,ISIC_0939648.JPG
break,html.Screen,4_110_1,2023-09-15T23:04:19.572Z,,0,,,NaN,,,,,,false,,,,873277.4000000954,873277.0999999046,,873276.6999998093,,873284.608,8,400,,,
break_continue,html.Screen,4_110_2,2023-09-15T23:04:19.572Z,,0,,,NaN,,,,,,false,,,,873277.7999997139,873277.5999999046,,873277.5,,873284.608,8,400,,,
sequence,flow.Sequence,4_110,2023-09-15T23:04:19.572Z,,0,,,5659.79399990465,completion,,,,,false,,,,873277.9000000954,873277.5999999046,867601.536,867615.7999997139,867617.806,873284.608,8,400,,,
trial,html.Screen,4_111_0,2023-09-15T23:04:26.617Z,,0,3,,7037.29200009536,response,ISIC_0579047.JPG,15,ISIC_1369273.JPG,ISIC_1369273.JPG,false,0,keypress(z),500,880322.1999998093,880321.9000000954,873268.254,873278,873284.608,880334.474,8,400,12,,ISIC_0579047.JPG
break,html.Screen,4_111_1,2023-09-15T23:04:26.618Z,,0,,,NaN,,,,,,false,,,,880323.5,880323.2999997139,,880322.4000000954,,880334.474,8,400,,,
break_continue,html.Screen,4_111_2,2023-09-15T23:04:26.618Z,,0,,,NaN,,,,,,false,,,,880323.7999997139,880323.6999998093,,880323.5999999046,,880334.474,8,400,,,
sequence,flow.Sequence,4_111,2023-09-15T23:04:26.618Z,,0,,,7039.091999809258,completion,,,,,false,,,,880324,880323.6999998093,873268.254,873278,873284.608,880334.474,8,400,,,
trial,html.Screen,4_112_0,2023-09-15T23:04:35.332Z,,0,3,,8703.22599980922,response,ISIC_5736979.JPG,12,ISIC_0034049.JPG,ISIC_5736979.JPG,false,1,keypress(m),500,889038,889037.6999998093,880319.245,880324.1999998093,880334.474,889051.195,8,400,13,,ISIC_0034049.JPG
break,html.Screen,4_112_1,2023-09-15T23:04:35.334Z,,0,,,NaN,,,,,,false,,,,889039.1999998093,889039,,889038.1999998093,,889051.195,8,400,,,
break_continue,html.Screen,4_112_2,2023-09-15T23:04:35.334Z,,0,,,NaN,,,,,,false,,,,889039.5,889039.4000000954,,889039.2999997139,,889051.195,8,400,,,
sequence,flow.Sequence,4_112,2023-09-15T23:04:35.334Z,,0,,,8704.926000095322,completion,,,,,false,,,,889039.7999997139,889039.4000000954,880319.245,880324.0999999046,880334.474,889051.195,8,400,,,
trial,html.Screen,4_113_0,2023-09-15T23:04:42.757Z,,0,3,,7410.904999904684,response,ISIC_5932383.JPG,14,ISIC_0054391.JPG,ISIC_0054391.JPG,false,0,keypress(z),500,896462.4000000954,896462.0999999046,889034.974,889039.9000000954,889051.195,896467.937,8,400,14,,ISIC_5932383.JPG
break,html.Screen,4_113_1,2023-09-15T23:04:42.758Z,,0,,,NaN,,,,,,false,,,,896463.6999998093,896463.5,,896462.5999999046,,896467.937,8,400,,,
break_continue,html.Screen,4_113_2,2023-09-15T23:04:42.758Z,,0,,,NaN,,,,,,false,,,,896464,896463.9000000954,,896463.7999997139,,896467.937,8,400,,,
sequence,flow.Sequence,4_113,2023-09-15T23:04:42.759Z,,0,,,7412.705000095419,completion,,,,,false,,,,896464.1999998093,896463.9000000954,889034.974,889039.7999997139,889051.195,896467.937,8,400,,,
trial,html.Screen,4_114_0,2023-09-15T23:04:49.341Z,,0,3,,6578.662999904598,response,ISIC_0062468.JPG,1,ISIC_0029937.JPG,ISIC_0062468.JPG,false,1,keypress(m),500,903046.9000000954,903046.5999999046,896451.652,896464.2999997139,896467.937,903051.338,8,400,15,,ISIC_0029937.JPG
break,html.Screen,4_114_1,2023-09-15T23:04:49.343Z,,0,,,NaN,,,,,,false,,,,903048.2999997139,903048,,903047.2999997139,,903051.338,8,400,,,
break_continue,html.Screen,4_114_2,2023-09-15T23:04:49.343Z,,0,,,NaN,,,,,,false,,,,903048.9000000954,903048.6999998093,,903048.5,,903051.338,8,400,,,
sequence,flow.Sequence,4_114,2023-09-15T23:04:49.344Z,,0,,,6580.762999809231,completion,,,,,false,,,,903049.0999999046,903048.6999998093,896451.652,896464.1999998093,896467.937,903051.338,8,400,,,
trial,html.Screen,4_115_0,2023-09-15T23:04:55.738Z,,0,3,,6391.662000000011,response,ISIC_0000287.JPG,12,ISIC_0025379.JPG,ISIC_0025379.JPG,false,0,keypress(z),500,909443.4000000954,909443,903034.632,903049.4000000954,903051.338,909451.39,8,400,16,,ISIC_0000287.JPG
break,html.Screen,4_115_1,2023-09-15T23:04:55.739Z,,0,,,NaN,,,,,,false,,,,909444.7999997139,909444.2999997139,,909443.5999999046,,909451.39,8,400,,,
break_continue,html.Screen,4_115_2,2023-09-15T23:04:55.740Z,,0,,,NaN,,,,,,false,,,,909445.4000000954,909445.1999998093,,909445,,909451.39,8,400,,,
sequence,flow.Sequence,4_115,2023-09-15T23:04:55.740Z,,0,,,6393.861999809276,completion,,,,,false,,,,909445.5999999046,909445.1999998093,903034.632,903049.2999997139,903051.338,909451.39,8,400,,,
trial,html.Screen,4_116_0,2023-09-15T23:05:03.235Z,,0,3,,7489.409999713884,response,ISIC_9510497.JPG,11,ISIC_0543351.JPG,ISIC_0543351.JPG,false,0,keypress(z),500,916941.0999999046,916940.7999997139,909435.093,909445.7999997139,909451.39,916951.437,8,400,17,,ISIC_9510497.JPG
break,html.Screen,4_116_1,2023-09-15T23:05:03.237Z,,0,,,NaN,,,,,,false,,,,916942.1999998093,916941.7999997139,,916941.2999997139,,916951.437,8,400,,,
break_continue,html.Screen,4_116_2,2023-09-15T23:05:03.237Z,,0,,,NaN,,,,,,false,,,,916942.5999999046,916942.5,,916942.4000000954,,916951.437,8,400,,,
sequence,flow.Sequence,4_116,2023-09-15T23:05:03.237Z,,0,,,7491.109999999986,completion,,,,,false,,,,916942.7999997139,916942.5,909435.093,909445.6999998093,909451.39,916951.437,8,400,,,
trial,html.Screen,4_117_0,2023-09-15T23:05:10.474Z,,0,3,,7228.262999809231,response,ISIC_0061918.JPG,11,ISIC_5721110.JPG,ISIC_5721110.JPG,false,0,keypress(z),500,924180.0999999046,924179.6999998093,916934.765,916942.9000000954,916951.437,924184.77,8,400,18,,ISIC_0061918.JPG
break,html.Screen,4_117_1,2023-09-15T23:05:10.476Z,,0,,,NaN,,,,,,false,,,,924181.2999997139,924181,,924180.1999998093,,924184.77,8,400,,,
break_continue,html.Screen,4_117_2,2023-09-15T23:05:10.476Z,,0,,,NaN,,,,,,false,,,,924181.5999999046,924181.5,,924181.2999997139,,924184.77,8,400,,,
sequence,flow.Sequence,4_117,2023-09-15T23:05:10.476Z,,0,,,7230.0629999999655,completion,,,,,false,,,,924181.7999997139,924181.5,916934.765,916942.9000000954,916951.437,924184.77,8,400,,,
trial,html.Screen,4_118_0,2023-09-15T23:05:17.239Z,,0,3,,6759.4299998092465,response,ISIC_0032695.JPG,0,ISIC_3541663.JPG,ISIC_3541663.JPG,false,0,keypress(z),500,930944.5,930944.1999998093,924168.53,924181.7999997139,924184.77,930951.637,8,400,19,,ISIC_0032695.JPG
break,html.Screen,4_118_1,2023-09-15T23:05:17.240Z,,0,,,NaN,,,,,,false,,,,930945.6999998093,930945.5,,930944.7999997139,,930951.637,8,400,,,
break_continue,html.Screen,4_118_2,2023-09-15T23:05:17.240Z,,0,,,NaN,,,,,,false,,,,930946.0999999046,930946,,930945.7999997139,,930951.637,8,400,,,
sequence,flow.Sequence,4_118,2023-09-15T23:05:17.241Z,,0,,,6761.229999999981,completion,,,,,false,,,,930946.2999997139,930946,924168.53,924181.7999997139,924184.77,930951.637,8,400,,,
trial,html.Screen,4_119_0,2023-09-15T23:05:25.073Z,,0,3,,7826.562999809277,response,ISIC_0021713.JPG,12,ISIC_2076902.JPG,ISIC_2076902.JPG,false,0,keypress(z),500,938778.4000000954,938778.1999998093,930934.741,930946.4000000954,930951.637,938784.875,8,400,20,,ISIC_0021713.JPG
break,html.Screen,4_119_1,2023-09-15T23:05:25.074Z,,0,,,NaN,,,,,,false,,,,938779.2999997139,938779,,938778.5999999046,,938784.875,8,400,,,
break_continue,html.Screen,4_119_2,2023-09-15T23:05:25.074Z,,0,,,NaN,,,,,,false,,,,938779.6999998093,938779.5999999046,,938779.5,,938784.875,8,400,,,
sequence,flow.Sequence,4_119,2023-09-15T23:05:25.074Z,,0,,,7827.962999904645,completion,,,,,false,,,,938779.9000000954,938779.5999999046,930934.741,930946.2999997139,930951.637,938784.875,8,400,,,
trial,html.Screen,4_120_0,2023-09-15T23:05:32.935Z,,0,3,,7855.625,response,ISIC_0059846.JPG,1,ISIC_5100319.JPG,ISIC_0059846.JPG,false,1,keypress(m),500,946641.0999999046,946640.5,938768.231,938780,938784.875,946651.786,8,400,21,,ISIC_5100319.JPG
break,html.Screen,4_120_1,2023-09-15T23:05:32.937Z,,0,,,NaN,,,,,,false,,,,946642.2999997139,946641.7999997139,,946641.4000000954,,946651.786,8,400,,,
break_continue,html.Screen,4_120_2,2023-09-15T23:05:32.937Z,,0,,,NaN,,,,,,false,,,,946642.6999998093,946642.5999999046,,946642.5,,946651.786,8,400,,,
sequence,flow.Sequence,4_120,2023-09-15T23:05:32.937Z,,0,,,7857.724999904633,completion,,,,,false,,,,946643,946642.5999999046,938768.231,938780,938784.875,946651.786,8,400,,,
trial,html.Screen,4_121_0,2023-09-15T23:05:39.002Z,,0,3,,6055.214000000036,response,ISIC_7658729.JPG,15,ISIC_0031208.JPG,ISIC_7658729.JPG,false,1,keypress(m),500,952707.2999997139,952707,946635.284,946643,946651.786,952718.251,8,400,22,,ISIC_0031208.JPG
break,html.Screen,4_121_1,2023-09-15T23:05:39.003Z,,0,,,NaN,,,,,,false,,,,952708.5999999046,952708.1999998093,,952707.5999999046,,952718.251,8,400,,,
break_continue,html.Screen,4_121_2,2023-09-15T23:05:39.003Z,,0,,,NaN,,,,,,false,,,,952709,952708.7999997139,,952708.6999998093,,952718.251,8,400,,,
sequence,flow.Sequence,4_121,2023-09-15T23:05:39.003Z,,0,,,6057.013999713934,completion,,,,,false,,,,952709.1999998093,952708.7999997139,946635.284,946643,946651.786,952718.251,8,400,,,
trial,html.Screen,4_122_0,2023-09-15T23:05:44.638Z,,0,3,,5625.348999904585,response,ISIC_0011094.JPG,16,ISIC_7642591.JPG,ISIC_7642591.JPG,false,0,keypress(z),500,958343.9000000954,958343.5999999046,952702.189,952709.2999997139,952718.251,958351.765,8,400,23,,ISIC_0011094.JPG
break,html.Screen,4_122_1,2023-09-15T23:05:44.639Z,,0,,,NaN,,,,,,false,,,,958344.7999997139,958344.5,,958344.0999999046,,958351.765,8,400,,,
break_continue,html.Screen,4_122_2,2023-09-15T23:05:44.639Z,,0,,,NaN,,,,,,false,,,,958345.0999999046,958345,,958344.9000000954,,958351.765,8,400,,,
sequence,flow.Sequence,4_122,2023-09-15T23:05:44.640Z,,0,,,5626.7489999999525,completion,,,,,false,,,,958345.2999997139,958345,952702.189,952709.1999998093,952718.251,958351.765,8,400,,,
trial,html.Screen,4_123_0,2023-09-15T23:05:51.243Z,,0,3,,6597.034999713884,response,ISIC_0056271.JPG,13,ISIC_0011696.JPG,ISIC_0011696.JPG,false,0,keypress(z),500,964949.0999999046,964948.7999997139,958335.292,958345.5,958351.765,964951.694,8,400,24,,ISIC_0056271.JPG
break,html.Screen,4_123_1,2023-09-15T23:05:51.245Z,,0,,,NaN,,,,,,false,,,,964950.1999998093,964950.0999999046,,964949.2999997139,,964951.694,8,400,,,
break_continue,html.Screen,4_123_2,2023-09-15T23:05:51.245Z,,0,,,NaN,,,,,,false,,,,964950.5999999046,964950.5,,964950.4000000954,,964951.694,8,400,,,
sequence,flow.Sequence,4_123,2023-09-15T23:05:51.245Z,,0,,,6598.734999999986,completion,,,,,false,,,,964950.7999997139,964950.5,958335.292,958345.5,958351.765,964951.694,8,400,,,
trial,html.Screen,4_124_0,2023-09-15T23:05:59.017Z,,0,3,,7770.405999904615,response,ISIC_0844312.JPG,20,ISIC_8659639.JPG,ISIC_0844312.JPG,false,1,keypress(m),500,972722.4000000954,972722.0999999046,964935.988,964950.9000000954,964951.694,972735.106,8,400,25,,ISIC_8659639.JPG
break,html.Screen,4_124_1,2023-09-15T23:05:59.018Z,,0,,,NaN,,,,,,false,,,,972723.5,972723.0999999046,,972722.6999998093,,972735.106,8,400,,,
break_continue,html.Screen,4_124_2,2023-09-15T23:05:59.019Z,,0,,,NaN,,,,,,false,,,,972724.1999998093,972724.0999999046,,972723.7999997139,,972735.106,8,400,,,
sequence,flow.Sequence,4_124,2023-09-15T23:05:59.019Z,,0,,,7772.405999904615,completion,,,,,false,,,,972724.5,972724.0999999046,964935.988,964950.9000000954,964951.694,972735.106,8,400,,,
trial,html.Screen,4_125_0,2023-09-15T23:06:04.407Z,,0,3,,5377.093999809236,response,ISIC_0026392.JPG,9,ISIC_7298784.JPG,ISIC_7298784.JPG,false,0,keypress(z),500,978112.5,978112.1999998093,972718.799,972724.7999997139,972735.106,978118.776,8,400,26,,ISIC_0026392.JPG
break,html.Screen,4_125_1,2023-09-15T23:06:04.408Z,,0,,,NaN,,,,,,false,,,,978113.5999999046,978113.4000000954,,978112.6999998093,,978118.776,8,400,,,
break_continue,html.Screen,4_125_2,2023-09-15T23:06:04.408Z,,0,,,NaN,,,,,,false,,,,978114,978113.9000000954,,978113.7999997139,,978118.776,8,400,,,
sequence,flow.Sequence,4_125,2023-09-15T23:06:04.409Z,,0,,,5378.794000095339,completion,,,,,false,,,,978114.1999998093,978113.9000000954,972718.799,972724.6999998093,972735.106,978118.776,8,400,,,
trial,html.Screen,4_126_0,2023-09-15T23:06:12.148Z,,0,3,,7734.124000095413,response,ISIC_7302456.JPG,15,ISIC_0059412.JPG,ISIC_7302456.JPG,false,1,keypress(m),500,985853.2999997139,985852.9000000954,978102.511,978114.2999997139,978118.776,985868.535,8,400,27,,ISIC_0059412.JPG
