sender,sender_type,sender_id,timestamp,meta,,blockNo,condition,duration,ended_on,img_left,img_reveal,img_right,loser,practice,response,response_action,selection_duration,time_commit,time_end,time_render,time_run,time_show,time_switch,total_blocks,total_trials,trialNo,url,winner
informed_consent,html.Screen,0,2023-05-01T22:09:46.636Z,"{""labjs_version"":""20.2.4"",""labjs_build"":{""flavor"":""production"",""commit"":""f5b4a49f956347addd546a832a3327688c2c0fef""},""location"":""https://run.pavlovia.org/MurrayBennett/melanoma-2afc/?participant=65421"",""userAgent"":""Mozilla/5.0 (Macintosh; Intel Mac OS X 10_15_7) AppleWebKit/537.36 (KHTML, like Gecko) Chrome/112.0.0.0 Safari/537.36"",""platform"":""MacIntel"",""language"":""en-US"",""locale"":""en-US"",""timeZone"":""America/Chicago"",""timezoneOffset"":300,""screen_width"":1920,""screen_height"":1080,""scroll_width"":1865,""scroll_height"":767,""window_innerWidth"":1865,""window_innerHeight"":815,""devicePixelRatio"":1}",,,,5365.911,response,,,,,,consent,click button,,11231.700000047684,11226.5,5687.195,5859.200000047684,5860.589,11249.141,,,,"{""participant"":""65421""}",
Welcome,html.Screen,1,2023-05-01T22:11:30.363Z,,,,irregular,103709.15899995231,response,,,,,,continue,click button,,114960.60000002384,114958.29999995232,11235.803,11231.799999952316,11249.141,114967.939,,,,,
trial,html.Screen,2_0_0,2023-05-01T22:11:38.740Z,,0,0,,8368.661000023843,response,ISIC_0061792.JPG,,ISIC_4679428.JPG,ISIC_4679428.JPG,true,0,keypress(z),500,123337,123336.60000002384,114954.601,114960.89999997616,114967.939,123344.203,1,6,1,,ISIC_0061792.JPG
sequence,flow.Sequence,2_0,2023-05-01T22:11:38.740Z,,0,,,8368.661000023843,completion,,,,,true,,,,123337.5,123336.60000002384,114954.601,114960.89999997616,114967.939,123344.203,1,6,,,
trial,html.Screen,2_1_0,2023-05-01T22:11:47.132Z,,0,0,,8384.397000023848,response,ISIC_0776486.JPG,,ISIC_5199497.JPG,ISIC_5199497.JPG,true,0,keypress(z),500,131729.10000002384,131728.60000002384,123330.865,123337.60000002384,123344.203,131734.153,1,6,2,,ISIC_0776486.JPG
sequence,flow.Sequence,2_1,2023-05-01T22:11:47.132Z,,0,,,8384.397000023848,completion,,,,,true,,,,131729.39999997616,131728.60000002384,123330.865,123337.60000002384,123344.203,131734.153,1,6,,,
trial,html.Screen,2_2_0,2023-05-01T22:11:56.603Z,,0,0,,9466.146999952325,response,ISIC_2556187.JPG,,ISIC_8575776.JPG,ISIC_8575776.JPG,true,0,keypress(z),500,141201,141200.29999995232,131720.815,131729.60000002384,131734.153,141204.449,1,6,3,,ISIC_2556187.JPG
sequence,flow.Sequence,2_2,2023-05-01T22:11:56.604Z,,0,,,9466.146999952325,completion,,,,,true,,,,141201.39999997616,141200.29999995232,131720.815,131729.60000002384,131734.153,141204.449,1,6,,,
trial,html.Screen,2_3_0,2023-05-01T22:12:02.003Z,,0,0,,5396.051000000007,response,ISIC_8141769.JPG,,ISIC_9238366.JPG,ISIC_9238366.JPG,true,0,keypress(z),500,146601,146600.5,141191.111,141201.70000004768,141204.449,146606.339,1,6,4,,ISIC_8141769.JPG
sequence,flow.Sequence,2_3,2023-05-01T22:12:02.004Z,,0,,,5396.051000000007,completion,,,,,true,,,,146601.5,146600.5,141191.111,141201.60000002384,141204.449,146606.339,1,6,,,
trial,html.Screen,2_4_0,2023-05-01T22:12:05.966Z,,0,0,,3956.8610000476765,response,ISIC_8949026.JPG,,ISIC_9959593.JPG,ISIC_8949026.JPG,true,1,keypress(m),500,150563.70000004768,150563.20000004768,146593.001,146601.70000004768,146606.339,150567.725,1,6,5,,ISIC_9959593.JPG
sequence,flow.Sequence,2_4,2023-05-01T22:12:05.966Z,,0,,,3956.8610000476765,completion,,,,,true,,,,150564.20000004768,150563.20000004768,146593.001,146601.70000004768,146606.339,150567.725,1,6,,,
trial,html.Screen,2_5_0,2023-05-01T22:12:11.612Z,,0,0,,5641.774999999994,response,ISIC_0010479.JPG,,ISIC_0460240.JPG,ISIC_0010479.JPG,true,1,keypress(m),500,156210.10000002384,156209.5,150554.387,150564.5,150567.725,156223.337,1,6,6,,ISIC_0460240.JPG
sequence,flow.Sequence,2_5,2023-05-01T22:12:11.613Z,,0,,,5641.774999999994,completion,,,,,true,,,,156210.60000002384,156209.5,150554.387,150564.39999997616,150567.725,156223.337,1,6,,,
loop,flow.Loop,2,2023-05-01T22:12:11.613Z,,,,,41241.561,completion,,,,,true,,,,156210.89999997616,156209.5,114954.601,114960.79999995232,114967.939,156223.337,1,6,,,
exp_instructions,html.Screen,3,2023-05-01T22:12:15.831Z,,,,,4203.263000023842,response,,,,,,continue,keypress(Space),,160429.39999997616,160426.60000002384,156209.999,156211.10000002384,156223.337,160438.145,,,,,
trial,html.Screen,4_0_0,2023-05-01T22:12:25.731Z,,0,1,,9890.555000047694,response,ISIC_1460932.JPG,,ISIC_9597731.JPG,ISIC_1460932.JPG,false,1,keypress(m),500,170329.20000004768,170328.70000004768,160424.807,160429.60000002384,160438.145,170335.184,8,400,1,,ISIC_9597731.JPG
break,html.Screen,4_0_1,2023-05-01T22:12:25.732Z,,0,,,NaN,,,,,,false,,,,170330.39999997616,170330.20000004768,,170329.5,,170335.184,8,400,,,
break_continue,html.Screen,4_0_2,2023-05-01T22:12:25.733Z,,0,,,NaN,,,,,,false,,,,170331,170330.70000004768,,170330.60000002384,,170335.184,8,400,,,
sequence,flow.Sequence,4_0,2023-05-01T22:12:25.733Z,,0,,,9892.555000047694,completion,,,,,false,,,,170331.20000004768,170330.70000004768,160424.807,160429.60000002384,160438.145,170335.184,8,400,,,
trial,html.Screen,4_1_0,2023-05-01T22:12:34.444Z,,0,1,,8706.815999999992,response,ISIC_0069946.JPG,,ISIC_0003767.JPG,ISIC_0003767.JPG,false,0,keypress(z),500,179042.5,179042,170321.846,170331.39999997616,170335.184,179045.237,8,400,2,,ISIC_0069946.JPG
break,html.Screen,4_1_1,2023-05-01T22:12:34.445Z,,0,,,NaN,,,,,,false,,,,179043.39999997616,179043.29999995232,,179042.79999995232,,179045.237,8,400,,,
break_continue,html.Screen,4_1_2,2023-05-01T22:12:34.446Z,,0,,,NaN,,,,,,false,,,,179043.89999997616,179043.70000004768,,179043.60000002384,,179045.237,8,400,,,
sequence,flow.Sequence,4_1,2023-05-01T22:12:34.446Z,,0,,,8708.516000047675,completion,,,,,false,,,,179044.10000002384,179043.70000004768,170321.846,170331.39999997616,170335.184,179045.237,8,400,,,
trial,html.Screen,4_2_0,2023-05-01T22:12:44.818Z,,0,1,,10371.263000000006,response,ISIC_7075474.JPG,,ISIC_0070419.JPG,ISIC_7075474.JPG,false,1,keypress(m),500,189417,189416.5,179031.899,179044.20000004768,179045.237,189422.429,8,400,3,,ISIC_0070419.JPG
break,html.Screen,4_2_1,2023-05-01T22:12:44.819Z,,0,,,NaN,,,,,,false,,,,189418,189417.79999995232,,189417.29999995232,,189422.429,8,400,,,
break_continue,html.Screen,4_2_2,2023-05-01T22:12:44.820Z,,0,,,NaN,,,,,,false,,,,189418.29999995232,189418.29999995232,,189418.20000004768,,189422.429,8,400,,,
sequence,flow.Sequence,4_2,2023-05-01T22:12:44.820Z,,0,,,10373.062999952323,completion,,,,,false,,,,189418.5,189418.29999995232,179031.899,179044.10000002384,179045.237,189422.429,8,400,,,
trial,html.Screen,4_3_0,2023-05-01T22:12:49.003Z,,0,1,,4178.77100004768,response,ISIC_8849004.JPG,,ISIC_4102922.JPG,ISIC_8849004.JPG,false,1,keypress(m),500,193601.70000004768,193601.20000004768,189409.091,189418.79999995232,189422.429,193610.561,8,400,4,,ISIC_4102922.JPG
break,html.Screen,4_3_1,2023-05-01T22:12:49.004Z,,0,,,NaN,,,,,,false,,,,193602.70000004768,193602.5,,193602,,193610.561,8,400,,,
break_continue,html.Screen,4_3_2,2023-05-01T22:12:49.004Z,,0,,,NaN,,,,,,false,,,,193603,193602.89999997616,,193602.79999995232,,193610.561,8,400,,,
sequence,flow.Sequence,4_3,2023-05-01T22:12:49.005Z,,0,,,4180.470999976154,completion,,,,,false,,,,193603.10000002384,193602.89999997616,189409.091,189418.70000004768,189422.429,193610.561,8,400,,,
trial,html.Screen,4_4_0,2023-05-01T22:12:56.635Z,,0,1,,7622.939000000013,response,ISIC_0033016.JPG,,ISIC_0055924.JPG,ISIC_0033016.JPG,false,1,keypress(m),500,201234,201233.5,193597.223,193603.39999997616,193610.561,201240.191,8,400,5,,ISIC_0055924.JPG
break,html.Screen,4_4_1,2023-05-01T22:12:56.636Z,,0,,,NaN,,,,,,false,,,,201235,201234.79999995232,,201234.29999995232,,201240.191,8,400,,,
break_continue,html.Screen,4_4_2,2023-05-01T22:12:56.637Z,,0,,,NaN,,,,,,false,,,,201235.29999995232,201235.20000004768,,201235.10000002384,,201240.191,8,400,,,
sequence,flow.Sequence,4_4,2023-05-01T22:12:56.637Z,,0,,,7624.639000047697,completion,,,,,false,,,,201235.60000002384,201235.20000004768,193597.223,193603.20000004768,193610.561,201240.191,8,400,,,
trial,html.Screen,4_5_0,2023-05-01T22:13:00.458Z,,0,1,,3816.6089999523247,response,ISIC_2555494.JPG,,ISIC_1308649.JPG,ISIC_1308649.JPG,false,0,keypress(z),500,205056.89999997616,205056.79999995232,201226.853,201235.70000004768,201240.191,205068.197,8,400,6,,ISIC_2555494.JPG
break,html.Screen,4_5_1,2023-05-01T22:13:00.458Z,,0,,,NaN,,,,,,false,,,,205057.29999995232,205057.20000004768,,205056.89999997616,,205068.197,8,400,,,
break_continue,html.Screen,4_5_2,2023-05-01T22:13:00.459Z,,0,,,NaN,,,,,,false,,,,205057.39999997616,205057.29999995232,,205057.29999995232,,205068.197,8,400,,,
sequence,flow.Sequence,4_5,2023-05-01T22:13:00.459Z,,0,,,3817.1089999523247,completion,,,,,false,,,,205057.5,205057.29999995232,201226.853,201235.60000002384,201240.191,205068.197,8,400,,,
trial,html.Screen,4_6_0,2023-05-01T22:13:09.058Z,,0,1,,8588.202999976173,response,ISIC_0063899.JPG,,ISIC_0028976.JPG,ISIC_0028976.JPG,false,0,keypress(z),500,213656.89999997616,213656.39999997616,205054.859,205057.60000002384,205068.197,213658.149,8,400,7,,ISIC_0063899.JPG
break,html.Screen,4_6_1,2023-05-01T22:13:09.059Z,,0,,,NaN,,,,,,false,,,,213657.89999997616,213657.70000004768,,213657.20000004768,,213658.149,8,400,,,
break_continue,html.Screen,4_6_2,2023-05-01T22:13:09.059Z,,0,,,NaN,,,,,,false,,,,213658.20000004768,213658.10000002384,,213658,,213658.149,8,400,,,
sequence,flow.Sequence,4_6,2023-05-01T22:13:09.059Z,,0,,,8589.903000023856,completion,,,,,false,,,,213658.39999997616,213658.10000002384,205054.859,205057.5,205068.197,213658.149,8,400,,,
trial,html.Screen,4_7_0,2023-05-01T22:13:13.644Z,,0,1,,4584.650999952311,response,ISIC_0008952.JPG,,ISIC_7145788.JPG,ISIC_0008952.JPG,false,1,keypress(m),500,218243.20000004768,218242.79999995232,213644.811,213658.60000002384,213658.149,218246.421,8,400,8,,ISIC_7145788.JPG
break,html.Screen,4_7_1,2023-05-01T22:13:13.645Z,,0,,,NaN,,,,,,false,,,,218244,218243.79999995232,,218243.39999997616,,218246.421,8,400,,,
break_continue,html.Screen,4_7_2,2023-05-01T22:13:13.645Z,,0,,,NaN,,,,,,false,,,,218244.10000002384,218244,,218244,,218246.421,8,400,,,
sequence,flow.Sequence,4_7,2023-05-01T22:13:13.645Z,,0,,,4585.850999999995,completion,,,,,false,,,,218244.29999995232,218244,213644.811,213658.5,213658.149,218246.421,8,400,,,
trial,html.Screen,4_8_0,2023-05-01T22:13:19.707Z,,0,1,,6059.078999999998,response,ISIC_0032510.JPG,,ISIC_0072371.JPG,ISIC_0072371.JPG,false,0,keypress(z),500,224306,224305.5,218233.083,218244.39999997616,218246.421,224315.478,8,400,9,,ISIC_0032510.JPG
break,html.Screen,4_8_1,2023-05-01T22:13:19.708Z,,0,,,NaN,,,,,,false,,,,224306.89999997616,224306.70000004768,,224306.20000004768,,224315.478,8,400,,,
break_continue,html.Screen,4_8_2,2023-05-01T22:13:19.708Z,,0,,,NaN,,,,,,false,,,,224307.20000004768,224307.10000002384,,224307,,224315.478,8,400,,,
sequence,flow.Sequence,4_8,2023-05-01T22:13:19.708Z,,0,,,6060.67900002384,completion,,,,,false,,,,224307.39999997616,224307.10000002384,218233.083,218244.29999995232,218246.421,224315.478,8,400,,,
trial,html.Screen,4_9_0,2023-05-01T22:13:25.346Z,,0,1,,5629.622000023839,response,ISIC_0000546.JPG,,ISIC_0010098.JPG,ISIC_0000546.JPG,false,1,keypress(m),500,229945.5,229945.10000002384,224302.14,224307.5,224315.478,229957.452,8,400,10,,ISIC_0010098.JPG
break,html.Screen,4_9_1,2023-05-01T22:13:25.347Z,,0,,,NaN,,,,,,false,,,,229946.29999995232,229946.10000002384,,229945.70000004768,,229957.452,8,400,,,
break_continue,html.Screen,4_9_2,2023-05-01T22:13:25.347Z,,0,,,NaN,,,,,,false,,,,229946.5,229946.5,,229946.39999997616,,229957.452,8,400,,,
sequence,flow.Sequence,4_9,2023-05-01T22:13:25.347Z,,0,,,5631.021999999997,completion,,,,,false,,,,229946.70000004768,229946.5,224302.14,224307.5,224315.478,229957.452,8,400,,,
trial,html.Screen,4_10_0,2023-05-01T22:13:34.578Z,,0,1,,9218.947999976168,response,ISIC_0289478.JPG,,ISIC_0030156.JPG,ISIC_0030156.JPG,false,0,keypress(z),500,239176.89999997616,239176.39999997616,229944.114,229946.79999995232,229957.452,239187.669,8,400,11,,ISIC_0289478.JPG
break,html.Screen,4_10_1,2023-05-01T22:13:34.578Z,,0,,,NaN,,,,,,false,,,,239177.89999997616,239177.60000002384,,239177.20000004768,,239187.669,8,400,,,
break_continue,html.Screen,4_10_2,2023-05-01T22:13:34.579Z,,0,,,NaN,,,,,,false,,,,239178.29999995232,239178.10000002384,,239178,,239187.669,8,400,,,
sequence,flow.Sequence,4_10,2023-05-01T22:13:34.579Z,,0,,,9220.648000023852,completion,,,,,false,,,,239178.39999997616,239178.10000002384,229944.114,229946.79999995232,229957.452,239187.669,8,400,,,
trial,html.Screen,4_11_0,2023-05-01T22:13:46.075Z,,0,1,,11510.951000000001,timeout,ISIC_8087949.JPG,,ISIC_1805163.JPG,ISIC_8087949.JPG,false,,,500,250674.20000004768,250673.89999997616,239174.331,239178.60000002384,239187.669,250698.62,8,400,12,,ISIC_1805163.JPG
break,html.Screen,4_11_1,2023-05-01T22:13:46.075Z,,0,,,NaN,,,,,,false,,,,250674.70000004768,250674.60000002384,,250674.39999997616,,250698.62,8,400,,,
break_continue,html.Screen,4_11_2,2023-05-01T22:13:46.075Z,,0,,,NaN,,,,,,false,,,,250674.89999997616,250674.79999995232,,250674.79999995232,,250698.62,8,400,,,
sequence,flow.Sequence,4_11,2023-05-01T22:13:46.075Z,,0,,,11487.130999952322,completion,,,,,false,,,,250675,250674.79999995232,239174.331,239178.5,239187.669,250698.62,8,400,,,
trial,html.Screen,4_12_0,2023-05-01T22:13:50.634Z,,0,1,,4534.4800000238465,response,ISIC_5122220.JPG,,ISIC_0000392.JPG,ISIC_5122220.JPG,false,1,keypress(m),500,255233.5,255233.10000002384,250685.282,250675.10000002384,250698.62,255246.878,8,400,13,,ISIC_0000392.JPG
break,html.Screen,4_12_1,2023-05-01T22:13:50.635Z,,0,,,NaN,,,,,,false,,,,255234.60000002384,255234.29999995232,,255233.89999997616,,255246.878,8,400,,,
break_continue,html.Screen,4_12_2,2023-05-01T22:13:50.635Z,,0,,,NaN,,,,,,false,,,,255235,255234.79999995232,,255234.70000004768,,255246.878,8,400,,,
sequence,flow.Sequence,4_12,2023-05-01T22:13:50.635Z,,0,,,4536.179999952321,completion,,,,,false,,,,255235.20000004768,255234.79999995232,250685.282,250675.10000002384,250698.62,255246.878,8,400,,,
trial,html.Screen,4_13_0,2023-05-01T22:13:55.370Z,,0,1,,4722.122000000003,response,ISIC_9100283.JPG,,ISIC_0031224.JPG,ISIC_0031224.JPG,false,0,keypress(z),500,259969.39999997616,259969,255233.54,255235.29999995232,255246.878,259981.868,8,400,14,,ISIC_9100283.JPG
break,html.Screen,4_13_1,2023-05-01T22:13:55.371Z,,0,,,NaN,,,,,,false,,,,259970.39999997616,259970.20000004768,,259969.79999995232,,259981.868,8,400,,,
break_continue,html.Screen,4_13_2,2023-05-01T22:13:55.371Z,,0,,,NaN,,,,,,false,,,,259970.60000002384,259970.5,,259970.39999997616,,259981.868,8,400,,,
sequence,flow.Sequence,4_13,2023-05-01T22:13:55.371Z,,0,,,4723.622000000003,completion,,,,,false,,,,259970.79999995232,259970.5,255233.54,255235.20000004768,255246.878,259981.868,8,400,,,
trial,html.Screen,4_14_0,2023-05-01T22:14:05.033Z,,0,1,,9650.431999952329,response,ISIC_0033957.JPG,,ISIC_1944650.JPG,ISIC_1944650.JPG,false,0,keypress(z),500,269632.7000000477,269632.2999999523,259968.53,259970.89999997616,259981.868,269638.885,8,400,15,,ISIC_0033957.JPG
break,html.Screen,4_14_1,2023-05-01T22:14:05.034Z,,0,,,NaN,,,,,,false,,,,269633.7000000477,269633.60000002384,,269633,,269638.885,8,400,,,
break_continue,html.Screen,4_14_2,2023-05-01T22:14:05.034Z,,0,,,NaN,,,,,,false,,,,269634.10000002384,269634,,269633.7999999523,,269638.885,8,400,,,
sequence,flow.Sequence,4_14,2023-05-01T22:14:05.034Z,,0,,,9652.132000000012,completion,,,,,false,,,,269634.2999999523,269634,259968.53,259970.89999997616,259981.868,269638.885,8,400,,,
trial,html.Screen,4_15_0,2023-05-01T22:14:10.161Z,,0,1,,5121.614999999991,response,ISIC_0064071.JPG,,ISIC_2757355.JPG,ISIC_0064071.JPG,false,1,keypress(m),500,274761,274760.5,269625.547,269634.5,269638.885,274774.254,8,400,16,,ISIC_2757355.JPG
break,html.Screen,4_15_1,2023-05-01T22:14:10.162Z,,0,,,NaN,,,,,,false,,,,274761.89999997616,274761.7000000477,,274761.2999999523,,274774.254,8,400,,,
break_continue,html.Screen,4_15_2,2023-05-01T22:14:10.162Z,,0,,,NaN,,,,,,false,,,,274762.2999999523,274762.2000000477,,274762.10000002384,,274774.254,8,400,,,
sequence,flow.Sequence,4_15,2023-05-01T22:14:10.162Z,,0,,,5123.315000047674,completion,,,,,false,,,,274762.5,274762.2000000477,269625.547,269634.39999997616,269638.885,274774.254,8,400,,,
trial,html.Screen,4_16_0,2023-05-01T22:14:14.345Z,,0,1,,4170.3460000238265,response,ISIC_0010316.JPG,,ISIC_0013277.JPG,ISIC_0013277.JPG,false,0,keypress(z),500,278945.10000002384,278944.60000002384,274760.916,274762.7000000477,274774.254,278949.048,8,400,17,,ISIC_0010316.JPG
break,html.Screen,4_16_1,2023-05-01T22:14:14.346Z,,0,,,NaN,,,,,,false,,,,278946,278945.89999997616,,278945.39999997616,,278949.048,8,400,,,
break_continue,html.Screen,4_16_2,2023-05-01T22:14:14.346Z,,0,,,NaN,,,,,,false,,,,278946.39999997616,278946.39999997616,,278946.10000002384,,278949.048,8,400,,,
sequence,flow.Sequence,4_16,2023-05-01T22:14:14.346Z,,0,,,4172.145999976143,completion,,,,,false,,,,278946.60000002384,278946.39999997616,274760.916,274762.7000000477,274774.254,278949.048,8,400,,,
trial,html.Screen,4_17_0,2023-05-01T22:14:23.482Z,,0,1,,9132.45199999999,response,ISIC_0000074.JPG,,ISIC_2320481.JPG,ISIC_2320481.JPG,false,0,keypress(z),500,288082,288081.5,278935.71,278946.7999999523,278949.048,288085.909,8,400,18,,ISIC_0000074.JPG
break,html.Screen,4_17_1,2023-05-01T22:14:23.483Z,,0,,,NaN,,,,,,false,,,,288083,288082.7000000477,,288082.2000000477,,288085.909,8,400,,,
break_continue,html.Screen,4_17_2,2023-05-01T22:14:23.483Z,,0,,,NaN,,,,,,false,,,,288083.2999999523,288083.10000002384,,288083,,288085.909,8,400,,,
sequence,flow.Sequence,4_17,2023-05-01T22:14:23.483Z,,0,,,9134.052000023832,completion,,,,,false,,,,288083.5,288083.10000002384,278935.71,278946.7999999523,278949.048,288085.909,8,400,,,
trial,html.Screen,4_18_0,2023-05-01T22:14:34.971Z,,0,1,,11510.694000000018,timeout,ISIC_0024236.JPG,,ISIC_2974214.JPG,,false,,,500,299571.89999997616,299571.39999997616,288072.571,288083.60000002384,288085.909,299596.603,8,400,19,,
break,html.Screen,4_18_1,2023-05-01T22:14:34.972Z,,0,,,NaN,,,,,,false,,,,299572.89999997616,299572.7000000477,,299572.2000000477,,299596.603,8,400,,,
break_continue,html.Screen,4_18_2,2023-05-01T22:14:34.973Z,,0,,,NaN,,,,,,false,,,,299573.2000000477,299573.10000002384,,299573,,299596.603,8,400,,,
sequence,flow.Sequence,4_18,2023-05-01T22:14:34.973Z,,0,,,11487.191000023857,completion,,,,,false,,,,299573.2999999523,299573.10000002384,288072.571,288083.60000002384,288085.909,299596.603,8,400,,,
trial,html.Screen,4_19_0,2023-05-01T22:14:39.120Z,,0,1,,4123.896999999997,response,ISIC_0056226.JPG,,ISIC_0032586.JPG,ISIC_0056226.JPG,false,1,keypress(m),500,303721,303720.5,299583.265,299573.5,299596.603,303744.977,8,400,20,,ISIC_0032586.JPG
break,html.Screen,4_19_1,2023-05-01T22:14:39.121Z,,0,,,NaN,,,,,,false,,,,303721.7000000477,303721.60000002384,,303721.2000000477,,303744.977,8,400,,,
break_continue,html.Screen,4_19_2,2023-05-01T22:14:39.122Z,,0,,,NaN,,,,,,false,,,,303722.10000002384,303722,,303721.89999997616,,303744.977,8,400,,,
sequence,flow.Sequence,4_19,2023-05-01T22:14:39.122Z,,0,,,4125.396999999997,completion,,,,,false,,,,303722.2999999523,303722,299583.265,299573.39999997616,299596.603,303744.977,8,400,,,
trial,html.Screen,4_20_0,2023-05-01T22:14:43.435Z,,0,1,,4290.0229999999865,response,ISIC_6118824.JPG,,ISIC_4252268.JPG,ISIC_6118824.JPG,false,1,keypress(m),500,308035.2999999523,308035,303731.639,303722.39999997616,303744.977,308039.813,8,400,21,,ISIC_4252268.JPG
break,html.Screen,4_20_1,2023-05-01T22:14:43.435Z,,0,,,NaN,,,,,,false,,,,308036.10000002384,308035.89999997616,,308035.60000002384,,308039.813,8,400,,,
break_continue,html.Screen,4_20_2,2023-05-01T22:14:43.436Z,,0,,,NaN,,,,,,false,,,,308036.5,308036.2999999523,,308036.2999999523,,308039.813,8,400,,,
sequence,flow.Sequence,4_20,2023-05-01T22:14:43.436Z,,0,,,4291.322999952303,completion,,,,,false,,,,308036.60000002384,308036.2999999523,303731.639,303722.39999997616,303744.977,308039.813,8,400,,,
trial,html.Screen,4_21_0,2023-05-01T22:14:47.155Z,,0,1,,3715.1869999999763,response,ISIC_9286292.JPG,,ISIC_0053742.JPG,ISIC_9286292.JPG,false,1,keypress(m),500,311755.39999997616,311755,308026.475,308036.7000000477,308039.813,311761.449,8,400,22,,ISIC_0053742.JPG
break,html.Screen,4_21_1,2023-05-01T22:14:47.156Z,,0,,,NaN,,,,,,false,,,,311756.2999999523,311756.2000000477,,311755.7000000477,,311761.449,8,400,,,
break_continue,html.Screen,4_21_2,2023-05-01T22:14:47.156Z,,0,,,NaN,,,,,,false,,,,311756.7000000477,311756.60000002384,,311756.39999997616,,311761.449,8,400,,,
sequence,flow.Sequence,4_21,2023-05-01T22:14:47.156Z,,0,,,3716.787000023818,completion,,,,,false,,,,311756.89999997616,311756.60000002384,308026.475,308036.7000000477,308039.813,311761.449,8,400,,,
trial,html.Screen,4_22_0,2023-05-01T22:14:51.248Z,,0,1,,4087.1510000238195,response,ISIC_0007257.JPG,,ISIC_8463871.JPG,ISIC_0007257.JPG,false,1,keypress(m),500,315848.7999999523,315848.60000002384,311748.111,311757,311761.449,315856.215,8,400,23,,ISIC_8463871.JPG
break,html.Screen,4_22_1,2023-05-01T22:14:51.249Z,,0,,,NaN,,,,,,false,,,,315849.5,315849.39999997616,,315849,,315856.215,8,400,,,
break_continue,html.Screen,4_22_2,2023-05-01T22:14:51.249Z,,0,,,NaN,,,,,,false,,,,315849.7999999523,315849.7000000477,,315849.60000002384,,315856.215,8,400,,,
sequence,flow.Sequence,4_22,2023-05-01T22:14:51.249Z,,0,,,4088.2510000476614,completion,,,,,false,,,,315850,315849.7000000477,311748.111,311757,311761.449,315856.215,8,400,,,
trial,html.Screen,4_23_0,2023-05-01T22:14:55.680Z,,0,1,,4423.784999999974,response,ISIC_5482426.JPG,,ISIC_0033075.JPG,ISIC_0033075.JPG,false,0,keypress(z),500,320280.5,320280,315842.877,315850.10000002384,315856.215,320284.431,8,400,24,,ISIC_5482426.JPG
break,html.Screen,4_23_1,2023-05-01T22:14:55.681Z,,0,,,NaN,,,,,,false,,,,320281.5,320281.2000000477,,320280.7999999523,,320284.431,8,400,,,
break_continue,html.Screen,4_23_2,2023-05-01T22:14:55.681Z,,0,,,NaN,,,,,,false,,,,320281.7999999523,320281.7000000477,,320281.5,,320284.431,8,400,,,
sequence,flow.Sequence,4_23,2023-05-01T22:14:55.681Z,,0,,,4425.485000047658,completion,,,,,false,,,,320282,320281.7000000477,315842.877,315850.10000002384,315856.215,320284.431,8,400,,,
trial,html.Screen,4_24_0,2023-05-01T22:14:59.392Z,,0,1,,3708.1690000238596,response,ISIC_5238111.JPG,,ISIC_0026264.JPG,ISIC_0026264.JPG,false,0,keypress(z),500,323993,323992.60000002384,320271.093,320282.2000000477,320284.431,324005.971,8,400,25,,ISIC_5238111.JPG
break,html.Screen,4_24_1,2023-05-01T22:14:59.393Z,,0,,,NaN,,,,,,false,,,,323994,323993.89999997616,,323993.39999997616,,324005.971,8,400,,,
break_continue,html.Screen,4_24_2,2023-05-01T22:14:59.393Z,,0,,,NaN,,,,,,false,,,,323994.39999997616,323994.2999999523,,323994.10000002384,,324005.971,8,400,,,
sequence,flow.Sequence,4_24,2023-05-01T22:14:59.394Z,,0,,,3709.868999952334,completion,,,,,false,,,,323994.5,323994.2999999523,320271.093,320282.10000002384,320284.431,324005.971,8,400,,,
trial,html.Screen,4_25_0,2023-05-01T22:15:07.178Z,,0,1,,7772.828999952297,response,ISIC_1412843.JPG,,ISIC_5706956.JPG,ISIC_1412843.JPG,false,1,keypress(m),500,331779.2000000477,331778.7999999523,323992.633,323994.7000000477,324005.971,331782.025,8,400,26,,ISIC_5706956.JPG
break,html.Screen,4_25_1,2023-05-01T22:15:07.179Z,,0,,,NaN,,,,,,false,,,,331780.10000002384,331779.89999997616,,331779.5,,331782.025,8,400,,,
break_continue,html.Screen,4_25_2,2023-05-01T22:15:07.179Z,,0,,,NaN,,,,,,false,,,,331780.5,331780.39999997616,,331780.2999999523,,331782.025,8,400,,,
sequence,flow.Sequence,4_25,2023-05-01T22:15:07.180Z,,0,,,7774.428999976139,completion,,,,,false,,,,331780.7000000477,331780.39999997616,323992.633,323994.7000000477,324005.971,331782.025,8,400,,,
trial,html.Screen,4_26_0,2023-05-01T22:15:12.528Z,,0,1,,5346.575000023819,response,ISIC_0001112.JPG,,ISIC_7477006.JPG,ISIC_7477006.JPG,false,0,keypress(z),500,337129.10000002384,337128.60000002384,331768.687,331780.7999999523,331782.025,337130.563,8,400,27,,ISIC_0001112.JPG
break,html.Screen,4_26_1,2023-05-01T22:15:12.529Z,,0,,,NaN,,,,,,false,,,,337130.10000002384,337129.7999999523,,337129.39999997616,,337130.563,8,400,,,
break_continue,html.Screen,4_26_2,2023-05-01T22:15:12.529Z,,0,,,NaN,,,,,,false,,,,337130.39999997616,337130.2999999523,,337130.2000000477,,337130.563,8,400,,,
sequence,flow.Sequence,4_26,2023-05-01T22:15:12.529Z,,0,,,5348.274999952293,completion,,,,,false,,,,337130.60000002384,337130.2999999523,331768.687,331780.7000000477,331782.025,337130.563,8,400,,,
trial,html.Screen,4_27_0,2023-05-01T22:15:16.784Z,,0,1,,4254.037000023818,response,ISIC_0806303.JPG,,ISIC_9099430.JPG,ISIC_9099430.JPG,false,0,keypress(z),500,341385,341384.60000002384,337117.225,337130.7000000477,337130.563,341398.723,8,400,28,,ISIC_0806303.JPG
break,html.Screen,4_27_1,2023-05-01T22:15:16.785Z,,0,,,NaN,,,,,,false,,,,341385.89999997616,341385.7000000477,,341385.2999999523,,341398.723,8,400,,,
break_continue,html.Screen,4_27_2,2023-05-01T22:15:16.785Z,,0,,,NaN,,,,,,false,,,,341386.2999999523,341386.2000000477,,341386.10000002384,,341398.723,8,400,,,
sequence,flow.Sequence,4_27,2023-05-01T22:15:16.785Z,,0,,,4255.63700004766,completion,,,,,false,,,,341386.5,341386.2000000477,337117.225,337130.7000000477,337130.563,341398.723,8,400,,,
trial,html.Screen,4_28_0,2023-05-01T22:15:22.634Z,,0,1,,5836.17699997616,response,ISIC_0066262.JPG,,ISIC_6004197.JPG,ISIC_6004197.JPG,false,0,keypress(z),500,347235.2000000477,347234.89999997616,341385.385,341386.60000002384,341398.723,347241.233,8,400,29,,ISIC_0066262.JPG
break,html.Screen,4_28_1,2023-05-01T22:15:22.635Z,,0,,,NaN,,,,,,false,,,,347236.2000000477,347236,,347235.5,,347241.233,8,400,,,
break_continue,html.Screen,4_28_2,2023-05-01T22:15:22.635Z,,0,,,NaN,,,,,,false,,,,347236.60000002384,347236.39999997616,,347236.2999999523,,347241.233,8,400,,,
sequence,flow.Sequence,4_28,2023-05-01T22:15:22.635Z,,0,,,5837.67699997616,completion,,,,,false,,,,347236.7000000477,347236.39999997616,341385.385,341386.60000002384,341398.723,347241.233,8,400,,,
trial,html.Screen,4_29_0,2023-05-01T22:15:29.409Z,,0,1,,6769.066999952309,response,ISIC_0061936.JPG,,ISIC_6532137.JPG,ISIC_6532137.JPG,false,0,keypress(z),500,354010.7999999523,354010.2999999523,347227.895,347236.7999999523,347241.233,354017.188,8,400,30,,ISIC_0061936.JPG
break,html.Screen,4_29_1,2023-05-01T22:15:29.410Z,,0,,,NaN,,,,,,false,,,,354011.7999999523,354011.60000002384,,354011.10000002384,,354017.188,8,400,,,
break_continue,html.Screen,4_29_2,2023-05-01T22:15:29.411Z,,0,,,NaN,,,,,,false,,,,354012.2000000477,354012,,354011.89999997616,,354017.188,8,400,,,
sequence,flow.Sequence,4_29,2023-05-01T22:15:29.411Z,,0,,,6770.766999999993,completion,,,,,false,,,,354012.39999997616,354012,347227.895,347236.7999999523,347241.233,354017.188,8,400,,,
trial,html.Screen,4_30_0,2023-05-01T22:15:34.762Z,,0,1,,5345.6119999522925,response,ISIC_0059925.JPG,,ISIC_0063516.JPG,ISIC_0059925.JPG,false,1,keypress(m),500,359363.2000000477,359362.7999999523,354003.85,354012.5,354017.188,359365.726,8,400,31,,ISIC_0063516.JPG
break,html.Screen,4_30_1,2023-05-01T22:15:34.763Z,,0,,,NaN,,,,,,false,,,,359364.2999999523,359364.10000002384,,359363.5,,359365.726,8,400,,,
break_continue,html.Screen,4_30_2,2023-05-01T22:15:34.763Z,,0,,,NaN,,,,,,false,,,,359364.60000002384,359364.39999997616,,359364.2999999523,,359365.726,8,400,,,
sequence,flow.Sequence,4_30,2023-05-01T22:15:34.763Z,,0,,,5347.211999976134,completion,,,,,false,,,,359364.7000000477,359364.39999997616,354003.85,354012.5,354017.188,359365.726,8,400,,,
trial,html.Screen,4_31_0,2023-05-01T22:15:39.103Z,,0,1,,4338.4740000476595,response,ISIC_1961064.JPG,,ISIC_0067159.JPG,ISIC_0067159.JPG,false,0,keypress(z),500,363704.7000000477,363704.2000000477,359352.388,359364.89999997616,359365.726,363713.914,8,400,32,,ISIC_1961064.JPG
break,html.Screen,4_31_1,2023-05-01T22:15:39.104Z,,0,,,NaN,,,,,,false,,,,363705.7000000477,363705.5,,363705,,363713.914,8,400,,,
break_continue,html.Screen,4_31_2,2023-05-01T22:15:39.104Z,,0,,,NaN,,,,,,false,,,,363706,363705.89999997616,,363705.7000000477,,363713.914,8,400,,,
sequence,flow.Sequence,4_31,2023-05-01T22:15:39.104Z,,0,,,4340.173999976134,completion,,,,,false,,,,363706.2000000477,363705.89999997616,359352.388,359364.89999997616,359365.726,363713.914,8,400,,,
trial,html.Screen,4_32_0,2023-05-01T22:15:42.959Z,,0,1,,3846.4859999761684,response,ISIC_3727059.JPG,,ISIC_1264576.JPG,ISIC_3727059.JPG,false,1,keypress(m),500,367560.89999997616,367560.39999997616,363700.576,363706.2999999523,363713.914,367568.862,8,400,33,,ISIC_1264576.JPG
break,html.Screen,4_32_1,2023-05-01T22:15:42.960Z,,0,,,NaN,,,,,,false,,,,367561.7999999523,367561.60000002384,,367561.10000002384,,367568.862,8,400,,,
break_continue,html.Screen,4_32_2,2023-05-01T22:15:42.960Z,,0,,,NaN,,,,,,false,,,,367562.2000000477,367562,,367561.89999997616,,367568.862,8,400,,,
sequence,flow.Sequence,4_32,2023-05-01T22:15:42.961Z,,0,,,3848.0860000000102,completion,,,,,false,,,,367562.2999999523,367562,363700.576,363706.2999999523,363713.914,367568.862,8,400,,,
trial,html.Screen,4_33_0,2023-05-01T22:15:47.241Z,,0,1,,4273.637999999977,response,ISIC_7141153.JPG,,ISIC_7642500.JPG,ISIC_7642500.JPG,false,0,keypress(z),500,371843.10000002384,371842.5,367555.524,367562.5,367568.862,371850.36,8,400,34,,ISIC_7141153.JPG
break,html.Screen,4_33_1,2023-05-01T22:15:47.242Z,,0,,,NaN,,,,,,false,,,,371844,371843.7000000477,,371843.39999997616,,371850.36,8,400,,,
break_continue,html.Screen,4_33_2,2023-05-01T22:15:47.243Z,,0,,,NaN,,,,,,false,,,,371844.39999997616,371844.2000000477,,371844.10000002384,,371850.36,8,400,,,
sequence,flow.Sequence,4_33,2023-05-01T22:15:47.243Z,,0,,,4275.338000047661,completion,,,,,false,,,,371844.5,371844.2000000477,367555.524,367562.39999997616,367568.862,371850.36,8,400,,,
trial,html.Screen,4_34_0,2023-05-01T22:15:52.424Z,,0,1,,5175.039999976172,response,ISIC_5926550.JPG,,ISIC_0031077.JPG,ISIC_5926550.JPG,false,1,keypress(m),500,377026,377025.39999997616,371837.022,371844.7000000477,371850.36,377039.121,8,400,35,,ISIC_0031077.JPG
break,html.Screen,4_34_1,2023-05-01T22:15:52.425Z,,0,,,NaN,,,,,,false,,,,377026.7999999523,377026.7000000477,,377026.2000000477,,377039.121,8,400,,,
break_continue,html.Screen,4_34_2,2023-05-01T22:15:52.425Z,,0,,,NaN,,,,,,false,,,,377027.10000002384,377027,,377026.89999997616,,377039.121,8,400,,,
sequence,flow.Sequence,4_34,2023-05-01T22:15:52.425Z,,0,,,5176.640000000014,completion,,,,,false,,,,377027.2999999523,377027,371837.022,371844.60000002384,371850.36,377039.121,8,400,,,
trial,html.Screen,4_35_0,2023-05-01T22:15:57.128Z,,0,1,,4690.379000000015,response,ISIC_0032995.JPG,,ISIC_3336353.JPG,ISIC_3336353.JPG,false,0,keypress(z),500,381729.89999997616,381729.5,377025.783,377027.5,377039.121,381734.097,8,400,36,,ISIC_0032995.JPG
break,html.Screen,4_35_1,2023-05-01T22:15:57.129Z,,0,,,NaN,,,,,,false,,,,381730.7999999523,381730.7000000477,,381730.10000002384,,381734.097,8,400,,,
break_continue,html.Screen,4_35_2,2023-05-01T22:15:57.129Z,,0,,,NaN,,,,,,false,,,,381731.2000000477,381731.10000002384,,381731,,381734.097,8,400,,,
sequence,flow.Sequence,4_35,2023-05-01T22:15:57.129Z,,0,,,4691.979000023857,completion,,,,,false,,,,381731.2999999523,381731.10000002384,377025.783,377027.39999997616,377039.121,381734.097,8,400,,,
trial,html.Screen,4_36_0,2023-05-01T22:16:02.615Z,,0,1,,5482.902999999991,response,ISIC_0055289.JPG,,ISIC_4884803.JPG,ISIC_4884803.JPG,false,0,keypress(z),500,387217.10000002384,387217,381720.759,381731.60000002384,381734.097,387229.595,8,400,37,,ISIC_0055289.JPG
break,html.Screen,4_36_1,2023-05-01T22:16:02.615Z,,0,,,NaN,,,,,,false,,,,387217.5,387217.39999997616,,387217.2000000477,,387229.595,8,400,,,
break_continue,html.Screen,4_36_2,2023-05-01T22:16:02.616Z,,0,,,NaN,,,,,,false,,,,387217.7000000477,387217.60000002384,,387217.60000002384,,387229.595,8,400,,,
sequence,flow.Sequence,4_36,2023-05-01T22:16:02.616Z,,0,,,5483.503000023833,completion,,,,,false,,,,387217.7000000477,387217.60000002384,381720.759,381731.5,381734.097,387229.595,8,400,,,
trial,html.Screen,4_37_0,2023-05-01T22:16:09.393Z,,0,1,,6765.605000047712,response,ISIC_5625747.JPG,,ISIC_0059005.JPG,ISIC_5625747.JPG,false,1,keypress(m),500,393995.7000000477,393995.2000000477,387216.257,387217.7999999523,387229.595,394005.299,8,400,38,,ISIC_0059005.JPG
break,html.Screen,4_37_1,2023-05-01T22:16:09.394Z,,0,,,NaN,,,,,,false,,,,393996.5,393996.2999999523,,393995.89999997616,,394005.299,8,400,,,
break_continue,html.Screen,4_37_2,2023-05-01T22:16:09.395Z,,0,,,NaN,,,,,,false,,,,393996.7999999523,393996.7000000477,,393996.60000002384,,394005.299,8,400,,,
sequence,flow.Sequence,4_37,2023-05-01T22:16:09.395Z,,0,,,6767.105000047712,completion,,,,,false,,,,393997,393996.7000000477,387216.257,387217.7000000477,387229.595,394005.299,8,400,,,
trial,html.Screen,4_38_0,2023-05-01T22:16:12.718Z,,0,1,,3315.100999976159,response,ISIC_0068924.JPG,,ISIC_0025382.JPG,ISIC_0025382.JPG,false,0,keypress(z),500,397320.7000000477,397320.39999997616,393991.961,393997.2000000477,394005.299,397326.704,8,400,39,,ISIC_0068924.JPG
break,html.Screen,4_38_1,2023-05-01T22:16:12.719Z,,0,,,NaN,,,,,,false,,,,397321.39999997616,397321.2999999523,,397321,,397326.704,8,400,,,
break_continue,html.Screen,4_38_2,2023-05-01T22:16:12.720Z,,0,,,NaN,,,,,,false,,,,397321.7999999523,397321.7000000477,,397321.60000002384,,397326.704,8,400,,,
sequence,flow.Sequence,4_38,2023-05-01T22:16:12.720Z,,0,,,3316.4010000476846,completion,,,,,false,,,,397322,397321.7000000477,393991.961,393997.10000002384,394005.299,397326.704,8,400,,,
trial,html.Screen,4_39_0,2023-05-01T22:16:19.534Z,,0,1,,6809.695999976131,response,ISIC_7714981.JPG,,ISIC_0046741.JPG,ISIC_7714981.JPG,false,1,keypress(m),500,404136.7000000477,404136.39999997616,397313.366,397322.10000002384,397326.704,404142.422,8,400,40,,ISIC_0046741.JPG
break,html.Screen,4_39_1,2023-05-01T22:16:19.535Z,,0,,,NaN,,,,,,false,,,,404137.39999997616,404137.2000000477,,404136.89999997616,,404142.422,8,400,,,
break_continue,html.Screen,4_39_2,2023-05-01T22:16:19.535Z,,0,,,NaN,,,,,,false,,,,404137.7000000477,404137.60000002384,,404137.5,,404142.422,8,400,,,
sequence,flow.Sequence,4_39,2023-05-01T22:16:19.535Z,,0,,,6810.896000023815,completion,,,,,false,,,,404137.7999999523,404137.60000002384,397313.366,397322,397326.704,404142.422,8,400,,,
trial,html.Screen,4_40_0,2023-05-01T22:16:24.713Z,,0,1,,5172.877999952296,response,ISIC_7254389.JPG,,ISIC_0034141.JPG,ISIC_0034141.JPG,false,0,keypress(z),500,409315.7999999523,409315.2999999523,404129.084,404138,404142.422,409317.829,8,400,41,,ISIC_7254389.JPG
break,html.Screen,4_40_1,2023-05-01T22:16:24.714Z,,0,,,NaN,,,,,,false,,,,409316.7000000477,409316.5,,409316,,409317.829,8,400,,,
break_continue,html.Screen,4_40_2,2023-05-01T22:16:24.715Z,,0,,,NaN,,,,,,false,,,,409317.10000002384,409317,,409316.89999997616,,409317.829,8,400,,,
sequence,flow.Sequence,4_40,2023-05-01T22:16:24.715Z,,0,,,5174.5779999999795,completion,,,,,false,,,,409317.2999999523,409317,404129.084,404137.89999997616,404142.422,409317.829,8,400,,,
trial,html.Screen,4_41_0,2023-05-01T22:16:30.647Z,,0,1,,5931.670999999973,response,ISIC_0027641.JPG,,ISIC_0060656.JPG,ISIC_0060656.JPG,false,0,keypress(z),500,415249.89999997616,415249.5,409304.491,409317.5,409317.829,415253.239,8,400,42,,ISIC_0027641.JPG
break,html.Screen,4_41_1,2023-05-01T22:16:30.648Z,,0,,,NaN,,,,,,false,,,,415250.89999997616,415250.7999999523,,415250.2999999523,,415253.239,8,400,,,
break_continue,html.Screen,4_41_2,2023-05-01T22:16:30.649Z,,0,,,NaN,,,,,,false,,,,415251.2000000477,415251.10000002384,,415251.10000002384,,415253.239,8,400,,,
sequence,flow.Sequence,4_41,2023-05-01T22:16:30.649Z,,0,,,5933.271000023815,completion,,,,,false,,,,415251.39999997616,415251.10000002384,409304.491,409317.39999997616,409317.829,415253.239,8,400,,,
trial,html.Screen,4_42_0,2023-05-01T22:16:35.310Z,,0,1,,4658.961000047682,response,ISIC_0011329.JPG,,ISIC_0000445.JPG,ISIC_0000445.JPG,false,0,keypress(z),500,419912.7000000477,419912.2000000477,415239.901,415251.60000002384,415253.239,419921.79,8,400,43,,ISIC_0011329.JPG
break,html.Screen,4_42_1,2023-05-01T22:16:35.311Z,,0,,,NaN,,,,,,false,,,,419913.7000000477,419913.5,,419913,,419921.79,8,400,,,
break_continue,html.Screen,4_42_2,2023-05-01T22:16:35.311Z,,0,,,NaN,,,,,,false,,,,419914,419913.89999997616,,419913.7999999523,,419921.79,8,400,,,
sequence,flow.Sequence,4_42,2023-05-01T22:16:35.312Z,,0,,,4660.660999976157,completion,,,,,false,,,,419914.2000000477,419913.89999997616,415239.901,415251.5,415253.239,419921.79,8,400,,,
trial,html.Screen,4_43_0,2023-05-01T22:16:41.160Z,,0,1,,5841.009999952337,response,ISIC_0189336.JPG,,ISIC_3203344.JPG,ISIC_3203344.JPG,false,0,keypress(z),500,425763.2000000477,425762.7999999523,419908.452,419914.39999997616,419921.79,425777.172,8,400,44,,ISIC_0189336.JPG
break,html.Screen,4_43_1,2023-05-01T22:16:41.161Z,,0,,,NaN,,,,,,false,,,,425764.2000000477,425764.10000002384,,425763.5,,425777.172,8,400,,,
break_continue,html.Screen,4_43_2,2023-05-01T22:16:41.162Z,,0,,,NaN,,,,,,false,,,,425764.60000002384,425764.39999997616,,425764.2999999523,,425777.172,8,400,,,
sequence,flow.Sequence,4_43,2023-05-01T22:16:41.162Z,,0,,,5842.609999976179,completion,,,,,false,,,,425764.7000000477,425764.39999997616,419908.452,419914.2000000477,419921.79,425777.172,8,400,,,
trial,html.Screen,4_44_0,2023-05-01T22:16:45.847Z,,0,1,,4672.3279999999795,response,ISIC_0821520.JPG,,ISIC_0031914.JPG,ISIC_0821520.JPG,false,1,keypress(m),500,430449.89999997616,430449.5,425763.834,425764.89999997616,425777.172,430459.051,8,400,45,,ISIC_0031914.JPG
break,html.Screen,4_44_1,2023-05-01T22:16:45.848Z,,0,,,NaN,,,,,,false,,,,430450.7999999523,430450.60000002384,,430450.2000000477,,430459.051,8,400,,,
break_continue,html.Screen,4_44_2,2023-05-01T22:16:45.848Z,,0,,,NaN,,,,,,false,,,,430451.2000000477,430451,,430450.89999997616,,430459.051,8,400,,,
sequence,flow.Sequence,4_44,2023-05-01T22:16:45.848Z,,0,,,4673.8279999999795,completion,,,,,false,,,,430451.2999999523,430451,425763.834,425764.7999999523,425777.172,430459.051,8,400,,,
trial,html.Screen,4_45_0,2023-05-01T22:16:50.582Z,,0,1,,4725.3489999761805,response,ISIC_4554381.JPG,,ISIC_7518524.JPG,ISIC_4554381.JPG,false,1,keypress(m),500,435184.89999997616,435184.39999997616,430445.713,430451.39999997616,430459.051,435194.041,8,400,46,,ISIC_7518524.JPG
break,html.Screen,4_45_1,2023-05-01T22:16:50.583Z,,0,,,NaN,,,,,,false,,,,435185.89999997616,435185.7000000477,,435185.2000000477,,435194.041,8,400,,,
break_continue,html.Screen,4_45_2,2023-05-01T22:16:50.583Z,,0,,,NaN,,,,,,false,,,,435186.2000000477,435186.10000002384,,435186,,435194.041,8,400,,,
sequence,flow.Sequence,4_45,2023-05-01T22:16:50.583Z,,0,,,4727.049000023864,completion,,,,,false,,,,435186.39999997616,435186.10000002384,430445.713,430451.39999997616,430459.051,435194.041,8,400,,,
trial,html.Screen,4_46_0,2023-05-01T22:16:54.974Z,,0,1,,4382.559000023815,response,ISIC_0029859.JPG,,ISIC_8812621.JPG,ISIC_0029859.JPG,false,1,keypress(m),500,439577,439576.60000002384,435180.703,435186.5,435194.041,439582.243,8,400,47,,ISIC_8812621.JPG
break,html.Screen,4_46_1,2023-05-01T22:16:54.975Z,,0,,,NaN,,,,,,false,,,,439578,439577.7999999523,,439577.39999997616,,439582.243,8,400,,,
break_continue,html.Screen,4_46_2,2023-05-01T22:16:54.975Z,,0,,,NaN,,,,,,false,,,,439578.2999999523,439578.2000000477,,439578.10000002384,,439582.243,8,400,,,
sequence,flow.Sequence,4_46,2023-05-01T22:16:54.975Z,,0,,,4384.159000047657,completion,,,,,false,,,,439578.5,439578.2000000477,435180.703,435186.5,435194.041,439582.243,8,400,,,
trial,html.Screen,4_47_0,2023-05-01T22:16:59.790Z,,0,1,,4810.357000023825,response,ISIC_0026369.JPG,,ISIC_6773367.JPG,ISIC_6773367.JPG,false,0,keypress(z),500,444393.10000002384,444392.60000002384,439568.905,439578.60000002384,439582.243,444397.52,8,400,48,,ISIC_0026369.JPG
break,html.Screen,4_47_1,2023-05-01T22:16:59.791Z,,0,,,NaN,,,,,,false,,,,444394,444393.7999999523,,444393.39999997616,,444397.52,8,400,,,
break_continue,html.Screen,4_47_2,2023-05-01T22:16:59.791Z,,0,,,NaN,,,,,,false,,,,444394.2999999523,444394.2000000477,,444394.10000002384,,444397.52,8,400,,,
sequence,flow.Sequence,4_47,2023-05-01T22:16:59.791Z,,0,,,4811.957000047667,completion,,,,,false,,,,444394.5,444394.2000000477,439568.905,439578.5,439582.243,444397.52,8,400,,,
trial,html.Screen,4_48_0,2023-05-01T22:17:03.256Z,,0,1,,3461.5800000238232,response,ISIC_2928274.JPG,,ISIC_5526879.JPG,ISIC_5526879.JPG,false,0,keypress(z),500,447859.5,447859.10000002384,444384.182,444394.60000002384,444397.52,447865.4,8,400,49,,ISIC_2928274.JPG
break,html.Screen,4_48_1,2023-05-01T22:17:03.257Z,,0,,,NaN,,,,,,false,,,,447860.5,447860.39999997616,,447859.89999997616,,447865.4,8,400,,,
break_continue,html.Screen,4_48_2,2023-05-01T22:17:03.258Z,,0,,,NaN,,,,,,false,,,,447861,447860.7999999523,,447860.7000000477,,447865.4,8,400,,,
sequence,flow.Sequence,4_48,2023-05-01T22:17:03.258Z,,0,,,3463.2799999522977,completion,,,,,false,,,,447861.10000002384,447860.7999999523,444384.182,444394.60000002384,444397.52,447865.4,8,400,,,
trial,html.Screen,4_49_0,2023-05-01T22:17:08.494Z,,0,1,,5230.899999952293,response,ISIC_0030156.JPG,,ISIC_8689583.JPG,ISIC_8689583.JPG,false,0,keypress(z),500,453096.89999997616,453096.2999999523,447852.062,447861.2999999523,447865.4,453107.496,8,400,50,,ISIC_0030156.JPG
break,html.Screen,4_49_1,2023-05-01T22:17:13.495Z,,0,,,5001.75,timeout,,,,,false,,,,458097.89999997616,458095.908,453094.158,453097.2000000477,453107.496,458109.246,8,400,,,
break_continue,html.Screen,4_49_2,2023-05-01T22:17:18.167Z,,0,,,4651.254000000015,response,,,,,false,continue,keypress(Space),,462770.89999997616,462760.5,458095.908,458098,458109.246,462777.546,8,400,,,
sequence,flow.Sequence,4_49,2023-05-01T22:17:18.168Z,,0,,,14895.099999999977,completion,,,,,false,,,,462771,462760.5,447852.062,447861.2000000477,447865.4,462777.546,8,400,,,
trial,html.Screen,4_50_0,2023-05-01T22:17:24.150Z,,0,2,,5975.853999976185,response,ISIC_9339756.JPG,,ISIC_0060975.JPG,ISIC_9339756.JPG,false,1,keypress(m),500,468754,468753.39999997616,462764.208,462771.2000000477,462777.546,468766.533,8,400,1,,ISIC_0060975.JPG
break,html.Screen,4_50_1,2023-05-01T22:17:24.151Z,,0,,,NaN,,,,,,false,,,,468755,468754.7999999523,,468754.2000000477,,468766.533,8,400,,,
break_continue,html.Screen,4_50_2,2023-05-01T22:17:24.152Z,,0,,,NaN,,,,,,false,,,,468755.2999999523,468755.2000000477,,468755.10000002384,,468766.533,8,400,,,
sequence,flow.Sequence,4_50,2023-05-01T22:17:24.152Z,,0,,,5977.654000047711,completion,,,,,false,,,,468755.5,468755.2000000477,462764.208,462771.10000002384,462777.546,468766.533,8,400,,,
trial,html.Screen,4_51_0,2023-05-01T22:17:30.837Z,,0,2,,6673.967000000004,response,ISIC_8624049.JPG,,ISIC_9498942.JPG,ISIC_9498942.JPG,false,0,keypress(z),500,475440.89999997616,475440.5,468753.195,468755.60000002384,468766.533,475449.152,8,400,2,,ISIC_8624049.JPG
break,html.Screen,4_51_1,2023-05-01T22:17:30.838Z,,0,,,NaN,,,,,,false,,,,475441.7999999523,475441.60000002384,,475441.2000000477,,475449.152,8,400,,,
break_continue,html.Screen,4_51_2,2023-05-01T22:17:30.838Z,,0,,,NaN,,,,,,false,,,,475442,475442,,475441.89999997616,,475449.152,8,400,,,
sequence,flow.Sequence,4_51,2023-05-01T22:17:30.839Z,,0,,,6675.467000000004,completion,,,,,false,,,,475442.2000000477,475442,468753.195,468755.60000002384,468766.533,475449.152,8,400,,,
trial,html.Screen,4_52_0,2023-05-01T22:17:35.629Z,,0,2,,4783.347999999998,response,ISIC_0028230.JPG,,ISIC_0058331.JPG,ISIC_0058331.JPG,false,0,keypress(z),500,480232.89999997616,480232.5,475435.814,475442.2999999523,475449.152,480237.494,8,400,3,,ISIC_0028230.JPG
break,html.Screen,4_52_1,2023-05-01T22:17:35.630Z,,0,,,NaN,,,,,,false,,,,480233.89999997616,480233.7000000477,,480233.2000000477,,480237.494,8,400,,,
break_continue,html.Screen,4_52_2,2023-05-01T22:17:35.630Z,,0,,,NaN,,,,,,false,,,,480234.2999999523,480234.10000002384,,480234,,480237.494,8,400,,,
sequence,flow.Sequence,4_52,2023-05-01T22:17:35.631Z,,0,,,4784.94800002384,completion,,,,,false,,,,480234.39999997616,480234.10000002384,475435.814,475442.2999999523,475449.152,480237.494,8,400,,,
trial,html.Screen,4_53_0,2023-05-01T22:17:41.149Z,,0,2,,5515.005999999994,response,ISIC_5333058.JPG,,ISIC_0009911.JPG,ISIC_5333058.JPG,false,1,keypress(m),500,485752.89999997616,485752.5,480224.156,480234.60000002384,480237.494,485759.674,8,400,4,,ISIC_0009911.JPG
break,html.Screen,4_53_1,2023-05-01T22:17:41.150Z,,0,,,NaN,,,,,,false,,,,485753.7999999523,485753.7000000477,,485753.2000000477,,485759.674,8,400,,,
break_continue,html.Screen,4_53_2,2023-05-01T22:17:41.150Z,,0,,,NaN,,,,,,false,,,,485754.2000000477,485754.10000002384,,485753.89999997616,,485759.674,8,400,,,
sequence,flow.Sequence,4_53,2023-05-01T22:17:41.150Z,,0,,,5516.606000023836,completion,,,,,false,,,,485754.39999997616,485754.10000002384,480224.156,480234.60000002384,480237.494,485759.674,8,400,,,
trial,html.Screen,4_54_0,2023-05-01T22:17:47.212Z,,0,2,,6056.026000047685,response,ISIC_0033470.JPG,,ISIC_4838916.JPG,ISIC_4838916.JPG,false,0,keypress(z),500,491816.2999999523,491815.7000000477,485746.336,485754.5,485759.674,491828.464,8,400,5,,ISIC_0033470.JPG
break,html.Screen,4_54_1,2023-05-01T22:17:47.213Z,,0,,,NaN,,,,,,false,,,,491817.2000000477,491817,,491816.5,,491828.464,8,400,,,
break_continue,html.Screen,4_54_2,2023-05-01T22:17:47.214Z,,0,,,NaN,,,,,,false,,,,491817.60000002384,491817.39999997616,,491817.2999999523,,491828.464,8,400,,,
sequence,flow.Sequence,4_54,2023-05-01T22:17:47.214Z,,0,,,6057.725999976159,completion,,,,,false,,,,491817.7000000477,491817.39999997616,485746.336,485754.39999997616,485759.674,491828.464,8,400,,,
trial,html.Screen,4_55_0,2023-05-01T22:17:52.165Z,,0,2,,4940.93599997618,response,ISIC_0830806.JPG,,ISIC_0055905.JPG,ISIC_0055905.JPG,false,0,keypress(z),500,496769.5,496769.39999997616,491815.126,491817.89999997616,491828.464,496790.46,8,400,6,,ISIC_0830806.JPG
break,html.Screen,4_55_1,2023-05-01T22:17:52.166Z,,0,,,NaN,,,,,,false,,,,496769.7999999523,496769.7999999523,,496769.60000002384,,496790.46,8,400,,,
break_continue,html.Screen,4_55_2,2023-05-01T22:17:52.166Z,,0,,,NaN,,,,,,false,,,,496770,496769.89999997616,,496769.89999997616,,496790.46,8,400,,,
sequence,flow.Sequence,4_55,2023-05-01T22:17:52.166Z,,0,,,4941.43599997618,completion,,,,,false,,,,496770,496769.89999997616,491815.126,491817.7999999523,491828.464,496790.46,8,400,,,
trial,html.Screen,4_56_0,2023-05-01T22:17:59.277Z,,0,2,,7089.939999976137,response,ISIC_3286956.JPG,,ISIC_8447658.JPG,ISIC_3286956.JPG,false,1,keypress(m),500,503881,503880.39999997616,496777.122,496770.10000002384,496790.46,503886.276,8,400,7,,ISIC_8447658.JPG
break,html.Screen,4_56_1,2023-05-01T22:17:59.278Z,,0,,,NaN,,,,,,false,,,,503881.89999997616,503881.7999999523,,503881.2999999523,,503886.276,8,400,,,
break_continue,html.Screen,4_56_2,2023-05-01T22:17:59.278Z,,0,,,NaN,,,,,,false,,,,503882.2999999523,503882.2000000477,,503882.10000002384,,503886.276,8,400,,,
sequence,flow.Sequence,4_56,2023-05-01T22:17:59.278Z,,0,,,7091.740000047663,completion,,,,,false,,,,503882.5,503882.2000000477,496777.122,496770.10000002384,496790.46,503886.276,8,400,,,
trial,html.Screen,4_57_0,2023-05-01T22:18:05.127Z,,0,2,,5844.324000023829,response,ISIC_2910705.JPG,,ISIC_8689112.JPG,ISIC_8689112.JPG,false,0,keypress(z),500,509731,509730.60000002384,503872.938,503882.60000002384,503886.276,509741.95,8,400,8,,ISIC_2910705.JPG
break,html.Screen,4_57_1,2023-05-01T22:18:05.128Z,,0,,,NaN,,,,,,false,,,,509732,509731.7000000477,,509731.2999999523,,509741.95,8,400,,,
break_continue,html.Screen,4_57_2,2023-05-01T22:18:05.128Z,,0,,,NaN,,,,,,false,,,,509732.39999997616,509732.2999999523,,509732.2000000477,,509741.95,8,400,,,
sequence,flow.Sequence,4_57,2023-05-01T22:18:05.128Z,,0,,,5846.023999952304,completion,,,,,false,,,,509732.60000002384,509732.2999999523,503872.938,503882.60000002384,503886.276,509741.95,8,400,,,
trial,html.Screen,4_58_0,2023-05-01T22:18:11.405Z,,0,2,,6266.549999999988,response,ISIC_9140779.JPG,,ISIC_5441247.JPG,ISIC_9140779.JPG,false,1,keypress(m),500,516009,516008.5,509728.612,509732.7000000477,509741.95,516010.81,8,400,9,,ISIC_5441247.JPG
break,html.Screen,4_58_1,2023-05-01T22:18:11.406Z,,0,,,NaN,,,,,,false,,,,516010,516009.7999999523,,516009.2999999523,,516010.81,8,400,,,
break_continue,html.Screen,4_58_2,2023-05-01T22:18:11.406Z,,0,,,NaN,,,,,,false,,,,516010.2999999523,516010.2000000477,,516010.10000002384,,516010.81,8,400,,,
sequence,flow.Sequence,4_58,2023-05-01T22:18:11.406Z,,0,,,6268.250000047672,completion,,,,,false,,,,516010.5,516010.2000000477,509728.612,509732.7000000477,509741.95,516010.81,8,400,,,
trial,html.Screen,4_59_0,2023-05-01T22:18:16.892Z,,0,2,,5485.5899999761605,response,ISIC_0028800.JPG,,ISIC_0065872.JPG,ISIC_0065872.JPG,false,0,keypress(z),500,521496.89999997616,521496.39999997616,515997.472,516010.7000000477,516010.81,521506.342,8,400,10,,ISIC_0028800.JPG
break,html.Screen,4_59_1,2023-05-01T22:18:16.893Z,,0,,,NaN,,,,,,false,,,,521497.89999997616,521497.7000000477,,521497.2000000477,,521506.342,8,400,,,
break_continue,html.Screen,4_59_2,2023-05-01T22:18:16.894Z,,0,,,NaN,,,,,,false,,,,521498.2999999523,521498.2000000477,,521498.10000002384,,521506.342,8,400,,,
sequence,flow.Sequence,4_59,2023-05-01T22:18:16.894Z,,0,,,5487.390000047686,completion,,,,,false,,,,521498.60000002384,521498.2000000477,515997.472,516010.60000002384,516010.81,521506.342,8,400,,,
trial,html.Screen,4_60_0,2023-05-01T22:18:22.499Z,,0,2,,5597.258000023838,response,ISIC_0031325.JPG,,ISIC_0939648.JPG,ISIC_0939648.JPG,false,0,keypress(z),500,527103.8999999762,527103.6000000238,521493.004,521498.7999999523,521506.342,527108.302,8,400,11,,ISIC_0031325.JPG
break,html.Screen,4_60_1,2023-05-01T22:18:22.500Z,,0,,,NaN,,,,,,false,,,,527104.7000000477,527104.6000000238,,527104.2000000477,,527108.302,8,400,,,
break_continue,html.Screen,4_60_2,2023-05-01T22:18:22.500Z,,0,,,NaN,,,,,,false,,,,527105.1000000238,527104.8999999762,,527104.8999999762,,527108.302,8,400,,,
sequence,flow.Sequence,4_60,2023-05-01T22:18:22.501Z,,0,,,5598.557999976154,completion,,,,,false,,,,527105.2000000477,527104.8999999762,521493.004,521498.7000000477,521506.342,527108.302,8,400,,,
trial,html.Screen,4_61_0,2023-05-01T22:18:26.933Z,,0,2,,4428.898000047659,response,ISIC_0026392.JPG,,ISIC_0005261.JPG,ISIC_0005261.JPG,false,0,keypress(z),500,531537.6000000238,531537.2000000477,527094.964,527105.2999999523,527108.302,531550.095,8,400,12,,ISIC_0026392.JPG
break,html.Screen,4_61_1,2023-05-01T22:18:26.934Z,,0,,,NaN,,,,,,false,,,,531538.6000000238,531538.2999999523,,531537.8999999762,,531550.095,8,400,,,
break_continue,html.Screen,4_61_2,2023-05-01T22:18:26.934Z,,0,,,NaN,,,,,,false,,,,531538.8999999762,531538.7999999523,,531538.7000000477,,531550.095,8,400,,,
sequence,flow.Sequence,4_61,2023-05-01T22:18:26.934Z,,0,,,4430.497999952291,completion,,,,,false,,,,531539.1000000238,531538.7999999523,527094.964,527105.2999999523,527108.302,531550.095,8,400,,,
trial,html.Screen,4_62_0,2023-05-01T22:18:31.948Z,,0,2,,5002.304999976186,response,ISIC_0033192.JPG,,ISIC_0011435.JPG,ISIC_0033192.JPG,false,1,keypress(m),500,536552.7999999523,536552.3999999762,531536.757,531539.2000000477,531550.095,536565.183,8,400,13,,ISIC_0011435.JPG
break,html.Screen,4_62_1,2023-05-01T22:18:31.949Z,,0,,,NaN,,,,,,false,,,,536553.7999999523,536553.6000000238,,536553.1000000238,,536565.183,8,400,,,
break_continue,html.Screen,4_62_2,2023-05-01T22:18:31.949Z,,0,,,NaN,,,,,,false,,,,536554.2000000477,536554,,536553.8999999762,,536565.183,8,400,,,
sequence,flow.Sequence,4_62,2023-05-01T22:18:31.950Z,,0,,,5003.905000000028,completion,,,,,false,,,,536554.3999999762,536554,531536.757,531539.1000000238,531550.095,536565.183,8,400,,,
trial,html.Screen,4_63_0,2023-05-01T22:18:37.575Z,,0,2,,5613.817000000039,response,ISIC_7967397.JPG,,ISIC_8375123.JPG,ISIC_8375123.JPG,false,0,keypress(z),500,542179.7000000477,542179,536551.845,536554.5,536565.183,542180.718,8,400,14,,ISIC_7967397.JPG
break,html.Screen,4_63_1,2023-05-01T22:18:37.576Z,,0,,,NaN,,,,,,false,,,,542180.7000000477,542180.5,,542180,,542180.718,8,400,,,
break_continue,html.Screen,4_63_2,2023-05-01T22:18:37.576Z,,0,,,NaN,,,,,,false,,,,542181.1000000238,542180.8999999762,,542180.7999999523,,542180.718,8,400,,,
sequence,flow.Sequence,4_63,2023-05-01T22:18:37.576Z,,0,,,5615.716999976197,completion,,,,,false,,,,542181.2000000477,542180.8999999762,536551.845,536554.5,536565.183,542180.718,8,400,,,
trial,html.Screen,4_64_0,2023-05-01T22:18:44.861Z,,0,2,,7284.581999952323,response,ISIC_1611503.JPG,,ISIC_0010982.JPG,ISIC_1611503.JPG,false,1,keypress(m),500,549465.5,549465.2999999523,542167.38,542181.2999999523,542180.718,549476.604,8,400,15,,ISIC_0010982.JPG
break,html.Screen,4_64_1,2023-05-01T22:18:44.861Z,,0,,,NaN,,,,,,false,,,,549466.2000000477,549466.1000000238,,549465.7999999523,,549476.604,8,400,,,
break_continue,html.Screen,4_64_2,2023-05-01T22:18:44.862Z,,0,,,NaN,,,,,,false,,,,549466.6000000238,549466.3999999762,,549466.2999999523,,549476.604,8,400,,,
sequence,flow.Sequence,4_64,2023-05-01T22:18:44.862Z,,0,,,7285.681999976165,completion,,,,,false,,,,549466.7000000477,549466.3999999762,542167.38,542181.2999999523,542180.718,549476.604,8,400,,,
trial,html.Screen,4_65_0,2023-05-01T22:18:51.526Z,,0,2,,6653.996000023792,response,ISIC_0024512.JPG,,ISIC_4906385.JPG,ISIC_4906385.JPG,false,0,keypress(z),500,556131.1000000238,556130.6000000238,549463.266,549466.7999999523,549476.604,556132.582,8,400,16,,ISIC_0024512.JPG
break,html.Screen,4_65_1,2023-05-01T22:18:51.527Z,,0,,,NaN,,,,,,false,,,,556132.1000000238,556131.8999999762,,556131.3999999762,,556132.582,8,400,,,
break_continue,html.Screen,4_65_2,2023-05-01T22:18:51.527Z,,0,,,NaN,,,,,,false,,,,556132.5,556132.2999999523,,556132.2000000477,,556132.582,8,400,,,
sequence,flow.Sequence,4_65,2023-05-01T22:18:51.527Z,,0,,,6655.695999952266,completion,,,,,false,,,,556132.6000000238,556132.2999999523,549463.266,549466.7999999523,549476.604,556132.582,8,400,,,
trial,html.Screen,4_66_0,2023-05-01T22:18:55.621Z,,0,2,,4092.917999999947,response,ISIC_2153686.JPG,,ISIC_9223156.JPG,ISIC_9223156.JPG,false,0,keypress(z),500,560225.8999999762,560225.5,556119.244,556132.6000000238,556132.582,560227.348,8,400,17,,ISIC_2153686.JPG
break,html.Screen,4_66_1,2023-05-01T22:18:55.622Z,,0,,,NaN,,,,,,false,,,,560226.8999999762,560226.7000000477,,560226.2999999523,,560227.348,8,400,,,
break_continue,html.Screen,4_66_2,2023-05-01T22:18:55.622Z,,0,,,NaN,,,,,,false,,,,560227.2999999523,560227.2000000477,,560227,,560227.348,8,400,,,
sequence,flow.Sequence,4_66,2023-05-01T22:18:55.622Z,,0,,,4094.6180000476306,completion,,,,,false,,,,560227.3999999762,560227.2000000477,556119.244,556132.6000000238,556132.582,560227.348,8,400,,,
trial,html.Screen,4_67_0,2023-05-01T22:19:01.982Z,,0,2,,6359.451999952318,response,ISIC_0062401.JPG,,ISIC_3576066.JPG,ISIC_3576066.JPG,false,0,keypress(z),500,566587.2999999523,566586.7999999523,560214.01,560227.5,560227.348,566589.837,8,400,18,,ISIC_0062401.JPG
break,html.Screen,4_67_1,2023-05-01T22:19:01.983Z,,0,,,NaN,,,,,,false,,,,566588.2000000477,566588.1000000238,,566587.6000000238,,566589.837,8,400,,,
break_continue,html.Screen,4_67_2,2023-05-01T22:19:01.983Z,,0,,,NaN,,,,,,false,,,,566588.6000000238,566588.3999999762,,566588.3999999762,,566589.837,8,400,,,
sequence,flow.Sequence,4_67,2023-05-01T22:19:01.983Z,,0,,,6361.05199997616,completion,,,,,false,,,,566588.7999999523,566588.3999999762,560214.01,560227.5,560227.348,566589.837,8,400,,,
trial,html.Screen,4_68_0,2023-05-01T22:19:08.507Z,,0,2,,6522.162999999942,response,ISIC_6445453.JPG,,ISIC_1223648.JPG,ISIC_1223648.JPG,false,0,keypress(z),500,573112.2000000477,573112,566576.499,566588.8999999762,566589.837,573125.457,8,400,19,,ISIC_6445453.JPG
break,html.Screen,4_68_1,2023-05-01T22:19:08.507Z,,0,,,NaN,,,,,,false,,,,573112.8999999762,573112.7000000477,,573112.3999999762,,573125.457,8,400,,,
break_continue,html.Screen,4_68_2,2023-05-01T22:19:08.508Z,,0,,,NaN,,,,,,false,,,,573113.2000000477,573113,,573112.8999999762,,573125.457,8,400,,,
sequence,flow.Sequence,4_68,2023-05-01T22:19:08.508Z,,0,,,6523.162999999942,completion,,,,,false,,,,573113.2999999523,573113,566576.499,566588.8999999762,566589.837,573125.457,8,400,,,
trial,html.Screen,4_69_0,2023-05-01T22:19:13.366Z,,0,2,,4845.942999976105,response,ISIC_9017110.JPG,,ISIC_2395624.JPG,ISIC_9017110.JPG,false,1,keypress(m),500,577971.7999999523,577971.3999999762,573112.119,573113.5,573125.457,577994.083,8,400,20,,ISIC_2395624.JPG
break,html.Screen,4_69_1,2023-05-01T22:19:13.367Z,,0,,,NaN,,,,,,false,,,,577972.7999999523,577972.5,,577972.1000000238,,577994.083,8,400,,,
break_continue,html.Screen,4_69_2,2023-05-01T22:19:13.368Z,,0,,,NaN,,,,,,false,,,,577973.1000000238,577973,,577972.8999999762,,577994.083,8,400,,,
sequence,flow.Sequence,4_69,2023-05-01T22:19:13.368Z,,0,,,4847.542999999947,completion,,,,,false,,,,577973.2999999523,577973,573112.119,573113.3999999762,573125.457,577994.083,8,400,,,
trial,html.Screen,4_70_0,2023-05-01T22:19:20.139Z,,0,2,,6750.316999976174,response,ISIC_1396573.JPG,,ISIC_0011648.JPG,ISIC_1396573.JPG,false,1,keypress(m),500,584744.7999999523,584744.3999999762,577980.745,577973.3999999762,577994.083,584756.449,8,400,21,,ISIC_0011648.JPG
break,html.Screen,4_70_1,2023-05-01T22:19:20.140Z,,0,,,NaN,,,,,,false,,,,584745.5,584745.2999999523,,584745,,584756.449,8,400,,,
break_continue,html.Screen,4_70_2,2023-05-01T22:19:20.140Z,,0,,,NaN,,,,,,false,,,,584745.7000000477,584745.6000000238,,584745.6000000238,,584756.449,8,400,,,
sequence,flow.Sequence,4_70,2023-05-01T22:19:20.140Z,,0,,,6751.517000023858,completion,,,,,false,,,,584745.7999999523,584745.6000000238,577980.745,577973.3999999762,577994.083,584756.449,8,400,,,
trial,html.Screen,4_71_0,2023-05-01T22:19:28.150Z,,0,2,,7998.450999976136,response,ISIC_8617277.JPG,,ISIC_4536709.JPG,ISIC_8617277.JPG,false,1,keypress(m),500,592755.3999999762,592754.8999999762,584743.111,584745.8999999762,584756.449,592759.575,8,400,22,,ISIC_4536709.JPG
break,html.Screen,4_71_1,2023-05-01T22:19:28.151Z,,0,,,NaN,,,,,,false,,,,592756.2999999523,592756.2000000477,,592755.7000000477,,592759.575,8,400,,,
break_continue,html.Screen,4_71_2,2023-05-01T22:19:28.151Z,,0,,,NaN,,,,,,false,,,,592756.6000000238,592756.5,,592756.5,,592759.575,8,400,,,
sequence,flow.Sequence,4_71,2023-05-01T22:19:28.151Z,,0,,,8000.050999999978,completion,,,,,false,,,,592756.7999999523,592756.5,584743.111,584745.8999999762,584756.449,592759.575,8,400,,,
trial,html.Screen,4_72_0,2023-05-01T22:19:32.603Z,,0,2,,4448.824999976205,response,ISIC_0033619.JPG,,ISIC_0026460.JPG,ISIC_0026460.JPG,false,0,keypress(z),500,597208.8999999762,597208.3999999762,592746.237,592757,592759.575,597214.467,8,400,23,,ISIC_0033619.JPG
break,html.Screen,4_72_1,2023-05-01T22:19:32.604Z,,0,,,NaN,,,,,,false,,,,597209.8999999762,597209.7000000477,,597209.2999999523,,597214.467,8,400,,,
break_continue,html.Screen,4_72_2,2023-05-01T22:19:32.604Z,,0,,,NaN,,,,,,false,,,,597210.2000000477,597210.2000000477,,597210,,597214.467,8,400,,,
sequence,flow.Sequence,4_72,2023-05-01T22:19:32.605Z,,0,,,4450.62500004773,completion,,,,,false,,,,597210.5,597210.2000000477,592746.237,592756.8999999762,592759.575,597214.467,8,400,,,
trial,html.Screen,4_73_0,2023-05-01T22:19:37.419Z,,0,2,,4809.932999976212,response,ISIC_5048124.JPG,,ISIC_7566505.JPG,ISIC_5048124.JPG,false,1,keypress(m),500,602024.8999999762,602024.3999999762,597201.129,597210.6000000238,597214.467,602029.485,8,400,24,,ISIC_7566505.JPG
break,html.Screen,4_73_1,2023-05-01T22:19:37.420Z,,0,,,NaN,,,,,,false,,,,602025.8999999762,602025.7000000477,,602025.2000000477,,602029.485,8,400,,,
break_continue,html.Screen,4_73_2,2023-05-01T22:19:37.420Z,,0,,,NaN,,,,,,false,,,,602026.2999999523,602026.1000000238,,602026.1000000238,,602029.485,8,400,,,
sequence,flow.Sequence,4_73,2023-05-01T22:19:37.420Z,,0,,,4811.633000023896,completion,,,,,false,,,,602026.3999999762,602026.1000000238,597201.129,597210.6000000238,597214.467,602029.485,8,400,,,
trial,html.Screen,4_74_0,2023-05-01T22:19:42.794Z,,0,2,,5370.914999976172,response,ISIC_1955991.JPG,,ISIC_9261199.JPG,ISIC_9261199.JPG,false,0,keypress(z),500,607400.5,607400.3999999762,602016.147,602026.6000000238,602029.485,607404.979,8,400,25,,ISIC_1955991.JPG
break,html.Screen,4_74_1,2023-05-01T22:19:42.795Z,,0,,,NaN,,,,,,false,,,,607400.8999999762,607400.7999999523,,607400.7000000477,,607404.979,8,400,,,
break_continue,html.Screen,4_74_2,2023-05-01T22:19:42.795Z,,0,,,NaN,,,,,,false,,,,607401,607401,,607401,,607404.979,8,400,,,
sequence,flow.Sequence,4_74,2023-05-01T22:19:42.795Z,,0,,,5371.515000000014,completion,,,,,false,,,,607401.1000000238,607401,602016.147,602026.6000000238,602029.485,607404.979,8,400,,,
trial,html.Screen,4_75_0,2023-05-01T22:19:48.309Z,,0,2,,5509.320999952266,response,ISIC_7492046.JPG,,ISIC_0064298.JPG,ISIC_7492046.JPG,false,1,keypress(m),500,612914.7000000477,612914.2999999523,607391.641,607401.2000000477,607404.979,612926.911,8,400,26,,ISIC_0064298.JPG
break,html.Screen,4_75_1,2023-05-01T22:19:48.310Z,,0,,,NaN,,,,,,false,,,,612915.7000000477,612915.5,,612915,,612926.911,8,400,,,
break_continue,html.Screen,4_75_2,2023-05-01T22:19:48.310Z,,0,,,NaN,,,,,,false,,,,612916.1000000238,612915.8999999762,,612915.7999999523,,612926.911,8,400,,,
sequence,flow.Sequence,4_75,2023-05-01T22:19:48.310Z,,0,,,5510.920999976108,completion,,,,,false,,,,612916.2999999523,612915.8999999762,607391.641,607401.2000000477,607404.979,612926.911,8,400,,,
trial,html.Screen,4_76_0,2023-05-01T22:19:53.572Z,,0,2,,5250.4889999761945,response,ISIC_1560455.JPG,,ISIC_2565154.JPG,ISIC_2565154.JPG,false,0,keypress(z),500,618177.8999999762,618177.3999999762,612913.573,612916.3999999762,612926.911,618182.335,8,400,27,,ISIC_1560455.JPG
break,html.Screen,4_76_1,2023-05-01T22:19:53.573Z,,0,,,NaN,,,,,,false,,,,618179,618178.7999999523,,618178.2000000477,,618182.335,8,400,,,
break_continue,html.Screen,4_76_2,2023-05-01T22:19:53.573Z,,0,,,NaN,,,,,,false,,,,618179.2999999523,618179.1000000238,,618179,,618182.335,8,400,,,
sequence,flow.Sequence,4_76,2023-05-01T22:19:53.573Z,,0,,,5252.189000023878,completion,,,,,false,,,,618179.5,618179.1000000238,612913.573,612916.2999999523,612926.911,618182.335,8,400,,,
trial,html.Screen,4_77_0,2023-05-01T22:20:01.562Z,,0,2,,7986.064999976195,response,ISIC_3026660.JPG,,ISIC_2757355.JPG,ISIC_2757355.JPG,false,0,keypress(z),500,626168.8999999762,626168.3999999762,618168.997,618179.7000000477,618182.335,626172.062,8,400,28,,ISIC_3026660.JPG
break,html.Screen,4_77_1,2023-05-01T22:20:01.563Z,,0,,,NaN,,,,,,false,,,,626169.7999999523,626169.6000000238,,626169.2000000477,,626172.062,8,400,,,
break_continue,html.Screen,4_77_2,2023-05-01T22:20:01.564Z,,0,,,NaN,,,,,,false,,,,626170.2000000477,626170.1000000238,,626170,,626172.062,8,400,,,
sequence,flow.Sequence,4_77,2023-05-01T22:20:01.564Z,,0,,,7987.765000023879,completion,,,,,false,,,,626170.5,626170.1000000238,618168.997,618179.7000000477,618182.335,626172.062,8,400,,,
trial,html.Screen,4_78_0,2023-05-01T22:20:08.106Z,,0,2,,6540.337999976124,response,ISIC_9470020.JPG,,ISIC_0011630.JPG,ISIC_9470020.JPG,false,1,keypress(m),500,632712.8999999762,632712.3999999762,626158.724,626170.7000000477,626172.062,632721.02,8,400,29,,ISIC_0011630.JPG
break,html.Screen,4_78_1,2023-05-01T22:20:08.107Z,,0,,,NaN,,,,,,false,,,,632713.8999999762,632713.6000000238,,632713.2000000477,,632721.02,8,400,,,
break_continue,html.Screen,4_78_2,2023-05-01T22:20:08.108Z,,0,,,NaN,,,,,,false,,,,632714.2000000477,632714.1000000238,,632714,,632721.02,8,400,,,
sequence,flow.Sequence,4_78,2023-05-01T22:20:08.108Z,,0,,,6542.038000023807,completion,,,,,false,,,,632714.3999999762,632714.1000000238,626158.724,626170.6000000238,626172.062,632721.02,8,400,,,
trial,html.Screen,4_79_0,2023-05-01T22:20:15.914Z,,0,2,,7799.479999999981,response,ISIC_0028396.JPG,,ISIC_2222091.JPG,ISIC_0028396.JPG,false,1,keypress(m),500,640521,640520.5,632707.682,632714.6000000238,632721.02,640524.052,8,400,30,,ISIC_2222091.JPG
break,html.Screen,4_79_1,2023-05-01T22:20:15.915Z,,0,,,NaN,,,,,,false,,,,640522,640521.7999999523,,640521.2999999523,,640524.052,8,400,,,
break_continue,html.Screen,4_79_2,2023-05-01T22:20:15.916Z,,0,,,NaN,,,,,,false,,,,640522.2999999523,640522.2999999523,,640522.1000000238,,640524.052,8,400,,,
sequence,flow.Sequence,4_79,2023-05-01T22:20:15.916Z,,0,,,7801.279999952298,completion,,,,,false,,,,640522.5,640522.2999999523,632707.682,632714.5,632721.02,640524.052,8,400,,,
trial,html.Screen,4_80_0,2023-05-01T22:20:20.394Z,,0,2,,4476.148000047659,response,ISIC_8732757.JPG,,ISIC_0033319.JPG,ISIC_0033319.JPG,false,0,keypress(z),500,645000.7000000477,645000.2000000477,640510.714,640522.7000000477,640524.052,645005.62,8,400,31,,ISIC_8732757.JPG
break,html.Screen,4_80_1,2023-05-01T22:20:20.395Z,,0,,,NaN,,,,,,false,,,,645001.6000000238,645001.3999999762,,645001,,645005.62,8,400,,,
break_continue,html.Screen,4_80_2,2023-05-01T22:20:20.395Z,,0,,,NaN,,,,,,false,,,,645002,645001.8999999762,,645001.7000000477,,645005.62,8,400,,,
sequence,flow.Sequence,4_80,2023-05-01T22:20:20.395Z,,0,,,4477.847999976133,completion,,,,,false,,,,645002.2000000477,645001.8999999762,640510.714,640522.5,640524.052,645005.62,8,400,,,
trial,html.Screen,4_81_0,2023-05-01T22:20:27.987Z,,0,2,,7587.580000047688,response,ISIC_6692344.JPG,,ISIC_8690631.JPG,ISIC_6692344.JPG,false,1,keypress(m),500,652593.7000000477,652593.2000000477,644992.282,645002.2999999523,645005.62,652595.223,8,400,32,,ISIC_8690631.JPG
break,html.Screen,4_81_1,2023-05-01T22:20:27.988Z,,0,,,NaN,,,,,,false,,,,652594.7000000477,652594.5,,652594,,652595.223,8,400,,,
break_continue,html.Screen,4_81_2,2023-05-01T22:20:27.988Z,,0,,,NaN,,,,,,false,,,,652595,652594.8999999762,,652594.7999999523,,652595.223,8,400,,,
sequence,flow.Sequence,4_81,2023-05-01T22:20:27.988Z,,0,,,7589.279999976163,completion,,,,,false,,,,652595.2999999523,652594.8999999762,644992.282,645002.2999999523,645005.62,652595.223,8,400,,,
trial,html.Screen,4_82_0,2023-05-01T22:20:35.602Z,,0,2,,7613.777000000002,response,ISIC_0000483.JPG,,ISIC_4738636.JPG,ISIC_0000483.JPG,false,1,keypress(m),500,660209.3999999762,660209,652581.885,652595.3999999762,652595.223,660211.221,8,400,33,,ISIC_4738636.JPG
break,html.Screen,4_82_1,2023-05-01T22:20:35.603Z,,0,,,NaN,,,,,,false,,,,660210.2999999523,660210.2000000477,,660209.7000000477,,660211.221,8,400,,,
break_continue,html.Screen,4_82_2,2023-05-01T22:20:35.604Z,,0,,,NaN,,,,,,false,,,,660210.7000000477,660210.6000000238,,660210.5,,660211.221,8,400,,,
sequence,flow.Sequence,4_82,2023-05-01T22:20:35.604Z,,0,,,7615.377000023844,completion,,,,,false,,,,660210.8999999762,660210.6000000238,652581.885,652595.3999999762,652595.223,660211.221,8,400,,,
trial,html.Screen,4_83_0,2023-05-01T22:20:42.154Z,,0,2,,6549.27899999998,response,ISIC_6208508.JPG,,ISIC_5226371.JPG,ISIC_5226371.JPG,false,0,keypress(z),500,666760.8999999762,666760.5,660197.883,660211.1000000238,660211.221,666773.852,8,400,34,,ISIC_6208508.JPG
break,html.Screen,4_83_1,2023-05-01T22:20:42.155Z,,0,,,NaN,,,,,,false,,,,666761.7000000477,666761.6000000238,,666761.1000000238,,666773.852,8,400,,,
break_continue,html.Screen,4_83_2,2023-05-01T22:20:42.155Z,,0,,,NaN,,,,,,false,,,,666762.1000000238,666761.8999999762,,666761.7999999523,,666773.852,8,400,,,
sequence,flow.Sequence,4_83,2023-05-01T22:20:42.155Z,,0,,,6550.678999976139,completion,,,,,false,,,,666762.2999999523,666761.8999999762,660197.883,660210.8999999762,660211.221,666773.852,8,400,,,
trial,html.Screen,4_84_0,2023-05-01T22:20:48.906Z,,0,2,,6738.547999976203,response,ISIC_9276931.JPG,,ISIC_0063181.JPG,ISIC_0063181.JPG,false,0,keypress(z),500,673512.8999999762,673512.3999999762,666760.514,666762.3999999762,666773.852,673522.88,8,400,35,,ISIC_9276931.JPG
break,html.Screen,4_84_1,2023-05-01T22:20:48.907Z,,0,,,NaN,,,,,,false,,,,673513.7999999523,673513.6000000238,,673513.2000000477,,673522.88,8,400,,,
break_continue,html.Screen,4_84_2,2023-05-01T22:20:48.907Z,,0,,,NaN,,,,,,false,,,,673514.2000000477,673514.1000000238,,673514,,673522.88,8,400,,,
sequence,flow.Sequence,4_84,2023-05-01T22:20:48.907Z,,0,,,6740.248000023887,completion,,,,,false,,,,673514.2999999523,673514.1000000238,666760.514,666762.3999999762,666773.852,673522.88,8,400,,,
trial,html.Screen,4_85_0,2023-05-01T22:20:53.241Z,,0,2,,4324.820000047679,response,ISIC_2366172.JPG,,ISIC_2266011.JPG,ISIC_2366172.JPG,false,1,keypress(m),500,677848.1000000238,677847.7000000477,673509.542,673514.5,673522.88,677858.005,8,400,36,,ISIC_2266011.JPG
break,html.Screen,4_85_1,2023-05-01T22:20:53.241Z,,0,,,NaN,,,,,,false,,,,677848.7000000477,677848.6000000238,,677848.2999999523,,677858.005,8,400,,,
break_continue,html.Screen,4_85_2,2023-05-01T22:20:53.242Z,,0,,,NaN,,,,,,false,,,,677848.8999999762,677848.8999999762,,677848.7999999523,,677858.005,8,400,,,
sequence,flow.Sequence,4_85,2023-05-01T22:20:53.242Z,,0,,,4326.0199999761535,completion,,,,,false,,,,677849,677848.8999999762,673509.542,673514.3999999762,673522.88,677858.005,8,400,,,
trial,html.Screen,4_86_0,2023-05-01T22:21:01.476Z,,0,2,,8224.894999976153,response,ISIC_0025409.JPG,,ISIC_0000029.JPG,ISIC_0000029.JPG,false,0,keypress(z),500,686083.3999999762,686082.8999999762,677844.667,677849.1000000238,677858.005,686087.551,8,400,37,,ISIC_0025409.JPG
break,html.Screen,4_86_1,2023-05-01T22:21:01.477Z,,0,,,NaN,,,,,,false,,,,686084.2999999523,686084.1000000238,,686083.7000000477,,686087.551,8,400,,,
break_continue,html.Screen,4_86_2,2023-05-01T22:21:01.477Z,,0,,,NaN,,,,,,false,,,,686084.7999999523,686084.6000000238,,686084.5,,686087.551,8,400,,,
sequence,flow.Sequence,4_86,2023-05-01T22:21:01.477Z,,0,,,8226.595000023837,completion,,,,,false,,,,686085,686084.6000000238,677844.667,677849,677858.005,686087.551,8,400,,,
trial,html.Screen,4_87_0,2023-05-01T22:21:12.729Z,,0,2,,11248.84899997618,response,ISIC_7973598.JPG,,ISIC_0068616.JPG,ISIC_0068616.JPG,false,0,keypress(z),500,697336.7999999523,697336.3999999762,686074.213,686085.1000000238,686087.551,697345.072,8,400,38,,ISIC_7973598.JPG
break,html.Screen,4_87_1,2023-05-01T22:21:12.730Z,,0,,,NaN,,,,,,false,,,,697337.7999999523,697337.7000000477,,697337.2000000477,,697345.072,8,400,,,
break_continue,html.Screen,4_87_2,2023-05-01T22:21:12.731Z,,0,,,NaN,,,,,,false,,,,697338.2000000477,697338.1000000238,,697338,,697345.072,8,400,,,
sequence,flow.Sequence,4_87,2023-05-01T22:21:12.731Z,,0,,,11250.549000023864,completion,,,,,false,,,,697338.3999999762,697338.1000000238,686074.213,686085,686087.551,697345.072,8,400,,,
trial,html.Screen,4_88_0,2023-05-01T22:21:20.627Z,,0,2,,7889.528000023798,response,ISIC_0029303.JPG,,ISIC_0033086.JPG,ISIC_0033086.JPG,false,0,keypress(z),500,705235,705234.6000000238,697331.734,697338.6000000238,697345.072,705241.413,8,400,39,,ISIC_0029303.JPG
break,html.Screen,4_88_1,2023-05-01T22:21:20.628Z,,0,,,NaN,,,,,,false,,,,705236.1000000238,705235.8999999762,,705235.3999999762,,705241.413,8,400,,,
break_continue,html.Screen,4_88_2,2023-05-01T22:21:20.629Z,,0,,,NaN,,,,,,false,,,,705236.3999999762,705236.2999999523,,705236.2000000477,,705241.413,8,400,,,
sequence,flow.Sequence,4_88,2023-05-01T22:21:20.629Z,,0,,,7891.2279999522725,completion,,,,,false,,,,705236.6000000238,705236.2999999523,697331.734,697338.3999999762,697345.072,705241.413,8,400,,,
trial,html.Screen,4_89_0,2023-05-01T22:21:26.521Z,,0,2,,5886.886999952374,response,ISIC_0055675.JPG,,ISIC_0014132.JPG,ISIC_0055675.JPG,false,1,keypress(m),500,711128.7999999523,711128.2999999523,705228.075,705236.7999999523,705241.413,711137.072,8,400,40,,ISIC_0014132.JPG
break,html.Screen,4_89_1,2023-05-01T22:21:26.522Z,,0,,,NaN,,,,,,false,,,,711129.8999999762,711129.7000000477,,711129.2000000477,,711137.072,8,400,,,
break_continue,html.Screen,4_89_2,2023-05-01T22:21:26.522Z,,0,,,NaN,,,,,,false,,,,711130.2000000477,711130.1000000238,,711130,,711137.072,8,400,,,
sequence,flow.Sequence,4_89,2023-05-01T22:21:26.522Z,,0,,,5888.6870000239,completion,,,,,false,,,,711130.2999999523,711130.1000000238,705228.075,705236.7000000477,705241.413,711137.072,8,400,,,
trial,html.Screen,4_90_0,2023-05-01T22:21:32.708Z,,0,2,,6178.12800004764,response,ISIC_0429825.JPG,,ISIC_0014629.JPG,ISIC_0429825.JPG,false,1,keypress(m),500,717315.6000000238,717315.2000000477,711123.734,711130.6000000238,711137.072,717325.904,8,400,41,,ISIC_0014629.JPG
break,html.Screen,4_90_1,2023-05-01T22:21:32.709Z,,0,,,NaN,,,,,,false,,,,717316.6000000238,717316.2999999523,,717315.8999999762,,717325.904,8,400,,,
break_continue,html.Screen,4_90_2,2023-05-01T22:21:32.709Z,,0,,,NaN,,,,,,false,,,,717316.8999999762,717316.7999999523,,717316.7000000477,,717325.904,8,400,,,
sequence,flow.Sequence,4_90,2023-05-01T22:21:32.709Z,,0,,,6179.7279999522725,completion,,,,,false,,,,717317.1000000238,717316.7999999523,711123.734,711130.5,711137.072,717325.904,8,400,,,
trial,html.Screen,4_91_0,2023-05-01T22:21:39.280Z,,0,2,,6561.796000047703,response,ISIC_0054568.JPG,,ISIC_6062657.JPG,ISIC_0054568.JPG,false,1,keypress(m),500,723888.1000000238,723887.7000000477,717312.566,717317.2000000477,717325.904,723901.828,8,400,42,,ISIC_6062657.JPG
break,html.Screen,4_91_1,2023-05-01T22:21:39.281Z,,0,,,NaN,,,,,,false,,,,723889,723888.8999999762,,723888.3999999762,,723901.828,8,400,,,
break_continue,html.Screen,4_91_2,2023-05-01T22:21:39.281Z,,0,,,NaN,,,,,,false,,,,723889.3999999762,723889.2999999523,,723889.2000000477,,723901.828,8,400,,,
sequence,flow.Sequence,4_91,2023-05-01T22:21:39.281Z,,0,,,6563.395999952336,completion,,,,,false,,,,723889.6000000238,723889.2999999523,717312.566,717317.2000000477,717325.904,723901.828,8,400,,,
trial,html.Screen,4_92_0,2023-05-01T22:21:43.305Z,,0,2,,4010.5719999761786,response,ISIC_8127323.JPG,,ISIC_0060968.JPG,ISIC_8127323.JPG,false,1,keypress(m),500,727912.8999999762,727912.3999999762,723888.49,723889.7999999523,723901.828,727916.566,8,400,43,,ISIC_0060968.JPG
break,html.Screen,4_92_1,2023-05-01T22:21:43.305Z,,0,,,NaN,,,,,,false,,,,727913.7999999523,727913.6000000238,,727913.1000000238,,727916.566,8,400,,,
break_continue,html.Screen,4_92_2,2023-05-01T22:21:43.306Z,,0,,,NaN,,,,,,false,,,,727913.8999999762,727913.8999999762,,727913.7999999523,,727916.566,8,400,,,
sequence,flow.Sequence,4_92,2023-05-01T22:21:43.306Z,,0,,,4012.0719999761786,completion,,,,,false,,,,727914.1000000238,727913.8999999762,723888.49,723889.7000000477,723901.828,727916.566,8,400,,,
trial,html.Screen,4_93_0,2023-05-01T22:21:47.465Z,,0,2,,4156.233999952325,response,ISIC_0959863.JPG,,ISIC_5859812.JPG,ISIC_5859812.JPG,false,0,keypress(z),500,732073.2000000477,732072.7999999523,727903.228,727914.2999999523,727916.566,732078.022,8,400,44,,ISIC_0959863.JPG
break,html.Screen,4_93_1,2023-05-01T22:21:47.466Z,,0,,,NaN,,,,,,false,,,,732074.2000000477,732074,,732073.5,,732078.022,8,400,,,
break_continue,html.Screen,4_93_2,2023-05-01T22:21:47.466Z,,0,,,NaN,,,,,,false,,,,732074.5,732074.2999999523,,732074.2000000477,,732078.022,8,400,,,
sequence,flow.Sequence,4_93,2023-05-01T22:21:47.466Z,,0,,,4157.733999952325,completion,,,,,false,,,,732074.7000000477,732074.2999999523,727903.228,727914.2000000477,727916.566,732078.022,8,400,,,
trial,html.Screen,4_94_0,2023-05-01T22:21:52.514Z,,0,2,,5044.478000000003,response,ISIC_1197584.JPG,,ISIC_8382969.JPG,ISIC_1197584.JPG,false,1,keypress(m),500,737122.8999999762,737122.5,732064.684,732074.7999999523,732078.022,737133.389,8,400,45,,ISIC_8382969.JPG
break,html.Screen,4_94_1,2023-05-01T22:21:52.515Z,,0,,,NaN,,,,,,false,,,,737123.7999999523,737123.6000000238,,737123.1000000238,,737133.389,8,400,,,
break_continue,html.Screen,4_94_2,2023-05-01T22:21:52.516Z,,0,,,NaN,,,,,,false,,,,737124.1000000238,737124,,737123.8999999762,,737133.389,8,400,,,
sequence,flow.Sequence,4_94,2023-05-01T22:21:52.516Z,,0,,,5045.978000000003,completion,,,,,false,,,,737124.2000000477,737124,732064.684,732074.7000000477,732078.022,737133.389,8,400,,,
trial,html.Screen,4_95_0,2023-05-01T22:22:00.786Z,,0,2,,8260.211000023875,response,ISIC_5300774.JPG,,ISIC_0061152.JPG,ISIC_5300774.JPG,false,1,keypress(m),500,745394.1000000238,745393.6000000238,737120.051,737124.3999999762,737133.389,745403.206,8,400,46,,ISIC_0061152.JPG
break,html.Screen,4_95_1,2023-05-01T22:22:00.787Z,,0,,,NaN,,,,,,false,,,,745395.1000000238,745394.8999999762,,745394.2999999523,,745403.206,8,400,,,
break_continue,html.Screen,4_95_2,2023-05-01T22:22:00.787Z,,0,,,NaN,,,,,,false,,,,745395.5,745395.2000000477,,745395.2000000477,,745403.206,8,400,,,
sequence,flow.Sequence,4_95,2023-05-01T22:22:00.787Z,,0,,,8261.811000047717,completion,,,,,false,,,,745395.7000000477,745395.2000000477,737120.051,737124.2999999523,737133.389,745403.206,8,400,,,
trial,html.Screen,4_96_0,2023-05-01T22:22:06.616Z,,0,2,,5821.193999976153,response,ISIC_0010346.JPG,,ISIC_0071901.JPG,ISIC_0071901.JPG,false,0,keypress(z),500,751224.8999999762,751224.3999999762,745389.868,745395.7999999523,745403.206,751231.912,8,400,47,,ISIC_0010346.JPG
break,html.Screen,4_96_1,2023-05-01T22:22:06.617Z,,0,,,NaN,,,,,,false,,,,751225.8999999762,751225.6000000238,,751225.2000000477,,751231.912,8,400,,,
break_continue,html.Screen,4_96_2,2023-05-01T22:22:06.618Z,,0,,,NaN,,,,,,false,,,,751226.2000000477,751226.1000000238,,751226,,751231.912,8,400,,,
sequence,flow.Sequence,4_96,2023-05-01T22:22:06.618Z,,0,,,5822.894000023836,completion,,,,,false,,,,751226.3999999762,751226.1000000238,745389.868,745395.7999999523,745403.206,751231.912,8,400,,,
trial,html.Screen,4_97_0,2023-05-01T22:22:13.592Z,,0,2,,6968.688000023831,response,ISIC_0231167.JPG,,ISIC_0073102.JPG,ISIC_0073102.JPG,false,0,keypress(z),500,758200.8999999762,758200.6000000238,751218.574,751226.6000000238,751231.912,758207.955,8,400,48,,ISIC_0231167.JPG
break,html.Screen,4_97_1,2023-05-01T22:22:13.593Z,,0,,,NaN,,,,,,false,,,,758201.7000000477,758201.5,,758201.2000000477,,758207.955,8,400,,,
break_continue,html.Screen,4_97_2,2023-05-01T22:22:13.593Z,,0,,,NaN,,,,,,false,,,,758202,758201.8999999762,,758201.7999999523,,758207.955,8,400,,,
sequence,flow.Sequence,4_97,2023-05-01T22:22:13.593Z,,0,,,6969.987999976147,completion,,,,,false,,,,758202.2000000477,758201.8999999762,751218.574,751226.3999999762,751231.912,758207.955,8,400,,,
trial,html.Screen,4_98_0,2023-05-01T22:22:19.624Z,,0,2,,6024.4449999762,response,ISIC_0061315.JPG,,ISIC_8918703.JPG,ISIC_8918703.JPG,false,0,keypress(z),500,764232.8999999762,764232.3999999762,758194.617,758202.2999999523,758207.955,764236.731,8,400,49,,ISIC_0061315.JPG
break,html.Screen,4_98_1,2023-05-01T22:22:19.625Z,,0,,,NaN,,,,,,false,,,,764233.8999999762,764233.7000000477,,764233.2000000477,,764236.731,8,400,,,
break_continue,html.Screen,4_98_2,2023-05-01T22:22:19.625Z,,0,,,NaN,,,,,,false,,,,764234.2999999523,764234.1000000238,,764234,,764236.731,8,400,,,
sequence,flow.Sequence,4_98,2023-05-01T22:22:19.626Z,,0,,,6026.145000023884,completion,,,,,false,,,,764234.2999999523,764234.1000000238,758194.617,758202.2000000477,758207.955,764236.731,8,400,,,
trial,html.Screen,4_99_0,2023-05-01T22:22:23.800Z,,0,2,,4171.668999976129,response,ISIC_0031582.JPG,,ISIC_2721699.JPG,ISIC_0031582.JPG,false,1,keypress(m),500,768408.5,768408.3999999762,764223.393,764234.5,764236.731,768411.782,8,400,50,,ISIC_2721699.JPG
break,html.Screen,4_99_1,2023-05-01T22:22:28.794Z,,0,,,5001.75,timeout,,,,,false,,,,773403,773400.194,768398.444,768408.7000000477,768411.782,773413.532,8,400,,,
break_continue,html.Screen,4_99_2,2023-05-01T22:22:31.549Z,,0,,,2727.5680000238353,response,,,,,false,continue,keypress(Space),,776158,776141.1000000238,773400.194,773403.2000000477,773413.532,776161.16,8,400,,,
sequence,flow.Sequence,4_99,2023-05-01T22:22:31.549Z,,0,,,11904.369000023813,completion,,,,,false,,,,776158.2000000477,776141.1000000238,764223.393,764234.5,764236.731,776161.16,8,400,,,
trial,html.Screen,4_100_0,2023-05-01T22:22:36.978Z,,0,3,,5425.940000023809,response,ISIC_0076742.JPG,,ISIC_0033180.JPG,ISIC_0033180.JPG,false,0,keypress(z),500,781587.5,781587.1000000238,776147.822,776158.2000000477,776161.16,781590.021,8,400,1,,ISIC_0076742.JPG
break,html.Screen,4_100_1,2023-05-01T22:22:36.979Z,,0,,,NaN,,,,,,false,,,,781588.5,781588.3999999762,,781587.8999999762,,781590.021,8,400,,,
break_continue,html.Screen,4_100_2,2023-05-01T22:22:36.980Z,,0,,,NaN,,,,,,false,,,,781588.8999999762,781588.7999999523,,781588.6000000238,,781590.021,8,400,,,
sequence,flow.Sequence,4_100,2023-05-01T22:22:36.980Z,,0,,,5427.639999952284,completion,,,,,false,,,,781589.1000000238,781588.7999999523,776147.822,776158.2000000477,776161.16,781590.021,8,400,,,
trial,html.Screen,4_101_0,2023-05-01T22:22:42.184Z,,0,3,,5202.378999976208,response,ISIC_0014975.JPG,,ISIC_0010817.JPG,ISIC_0010817.JPG,false,0,keypress(z),500,786792.8999999762,786792.3999999762,781576.683,781589.2000000477,781590.021,786805.179,8,400,2,,ISIC_0014975.JPG
break,html.Screen,4_101_1,2023-05-01T22:22:42.185Z,,0,,,NaN,,,,,,false,,,,786793.8999999762,786793.7000000477,,786793.2000000477,,786805.179,8,400,,,
break_continue,html.Screen,4_101_2,2023-05-01T22:22:42.185Z,,0,,,NaN,,,,,,false,,,,786794.2999999523,786794.2000000477,,786794,,786805.179,8,400,,,
sequence,flow.Sequence,4_101,2023-05-01T22:22:42.185Z,,0,,,5204.179000047734,completion,,,,,false,,,,786794.5,786794.2000000477,781576.683,781589.1000000238,781590.021,786805.179,8,400,,,
trial,html.Screen,4_102_0,2023-05-01T22:22:50.103Z,,0,3,,7907.320999999996,response,ISIC_8320640.JPG,,ISIC_0032685.JPG,ISIC_0032685.JPG,false,0,keypress(z),500,794712.8999999762,794712.5,786791.841,786794.7000000477,786805.179,794714.898,8,400,3,,ISIC_8320640.JPG
break,html.Screen,4_102_1,2023-05-01T22:22:50.105Z,,0,,,NaN,,,,,,false,,,,794714,794713.7999999523,,794713.2999999523,,794714.898,8,400,,,
break_continue,html.Screen,4_102_2,2023-05-01T22:22:50.105Z,,0,,,NaN,,,,,,false,,,,794714.2999999523,794714.2000000477,,794714.1000000238,,794714.898,8,400,,,
sequence,flow.Sequence,4_102,2023-05-01T22:22:50.105Z,,0,,,7909.02100004768,completion,,,,,false,,,,794714.5,794714.2000000477,786791.841,786794.6000000238,786805.179,794714.898,8,400,,,
trial,html.Screen,4_103_0,2023-05-01T22:22:55.415Z,,0,3,,5309.501999976113,response,ISIC_1068686.JPG,,ISIC_9228729.JPG,ISIC_9228729.JPG,false,0,keypress(z),500,800024.8999999762,800024.3999999762,794701.56,794714.7000000477,794714.898,800036.76,8,400,4,,ISIC_1068686.JPG
break,html.Screen,4_103_1,2023-05-01T22:22:55.416Z,,0,,,NaN,,,,,,false,,,,800025.8999999762,800025.7000000477,,800025.2000000477,,800036.76,8,400,,,
break_continue,html.Screen,4_103_2,2023-05-01T22:22:55.417Z,,0,,,NaN,,,,,,false,,,,800026.3999999762,800026.2000000477,,800026,,800036.76,8,400,,,
sequence,flow.Sequence,4_103,2023-05-01T22:22:55.417Z,,0,,,5311.302000047639,completion,,,,,false,,,,800026.5,800026.2000000477,794701.56,794714.6000000238,794714.898,800036.76,8,400,,,
trial,html.Screen,4_104_0,2023-05-01T22:22:59.394Z,,0,3,,3966.2399999999907,response,ISIC_1720856.JPG,,ISIC_1672821.JPG,ISIC_1720856.JPG,false,1,keypress(m),500,804003.3999999762,804003,800023.422,800026.6000000238,800036.76,804011.484,8,400,5,,ISIC_1672821.JPG
break,html.Screen,4_104_1,2023-05-01T22:22:59.395Z,,0,,,NaN,,,,,,false,,,,804004.3999999762,804004.2000000477,,804003.7000000477,,804011.484,8,400,,,
break_continue,html.Screen,4_104_2,2023-05-01T22:22:59.395Z,,0,,,NaN,,,,,,false,,,,804004.7999999523,804004.7000000477,,804004.5,,804011.484,8,400,,,
sequence,flow.Sequence,4_104,2023-05-01T22:22:59.395Z,,0,,,3967.9400000476744,completion,,,,,false,,,,804005,804004.7000000477,800023.422,800026.6000000238,800036.76,804011.484,8,400,,,
trial,html.Screen,4_105_0,2023-05-01T22:23:05.920Z,,0,3,,6518.216000047629,response,ISIC_0062162.JPG,,ISIC_0011437.JPG,ISIC_0062162.JPG,false,1,keypress(m),500,810530.1000000238,810529.7000000477,803998.146,804005.2000000477,804011.484,810534.057,8,400,6,,ISIC_0011437.JPG
break,html.Screen,4_105_1,2023-05-01T22:23:05.921Z,,0,,,NaN,,,,,,false,,,,810531.2000000477,810531,,810530.5,,810534.057,8,400,,,
break_continue,html.Screen,4_105_2,2023-05-01T22:23:05.922Z,,0,,,NaN,,,,,,false,,,,810531.6000000238,810531.3999999762,,810531.2999999523,,810534.057,8,400,,,
sequence,flow.Sequence,4_105,2023-05-01T22:23:05.922Z,,0,,,6519.915999976103,completion,,,,,false,,,,810531.7000000477,810531.3999999762,803998.146,804005.1000000238,804011.484,810534.057,8,400,,,
trial,html.Screen,4_106_0,2023-05-01T22:23:09.120Z,,0,3,,3195.44299999997,response,ISIC_0025800.JPG,,ISIC_2232883.JPG,ISIC_2232883.JPG,false,0,keypress(z),500,813729.8999999762,813729.5,810520.719,810531.8999999762,810534.057,813735.177,8,400,7,,ISIC_0025800.JPG
break,html.Screen,4_106_1,2023-05-01T22:23:09.121Z,,0,,,NaN,,,,,,false,,,,813730.7999999523,813730.7000000477,,813730.2000000477,,813735.177,8,400,,,
break_continue,html.Screen,4_106_2,2023-05-01T22:23:09.121Z,,0,,,NaN,,,,,,false,,,,813731.2000000477,813731.1000000238,,813731.1000000238,,813735.177,8,400,,,
sequence,flow.Sequence,4_106,2023-05-01T22:23:09.122Z,,0,,,3197.043000023812,completion,,,,,false,,,,813731.3999999762,813731.1000000238,810520.719,810531.7999999523,810534.057,813735.177,8,400,,,
trial,html.Screen,4_107_0,2023-05-01T22:23:18.055Z,,0,3,,8929.322999999975,response,ISIC_8525786.JPG,,ISIC_2977718.JPG,ISIC_2977718.JPG,false,0,keypress(z),500,822665,822664.5,813721.839,813731.3999999762,813735.177,822671.872,8,400,8,,ISIC_8525786.JPG
break,html.Screen,4_107_1,2023-05-01T22:23:18.056Z,,0,,,NaN,,,,,,false,,,,822666,822665.7999999523,,822665.2999999523,,822671.872,8,400,,,
break_continue,html.Screen,4_107_2,2023-05-01T22:23:18.056Z,,0,,,NaN,,,,,,false,,,,822666.2999999523,822666.2000000477,,822666,,822671.872,8,400,,,
sequence,flow.Sequence,4_107,2023-05-01T22:23:18.057Z,,0,,,8931.023000047659,completion,,,,,false,,,,822666.3999999762,822666.2000000477,813721.839,813731.3999999762,813735.177,822671.872,8,400,,,
trial,html.Screen,4_108_0,2023-05-01T22:23:23.743Z,,0,3,,5681.128000000026,response,ISIC_0010759.JPG,,ISIC_8897947.JPG,ISIC_0010759.JPG,false,1,keypress(m),500,828353.3999999762,828353,822658.534,822666.6000000238,822671.872,828367.466,8,400,9,,ISIC_8897947.JPG
break,html.Screen,4_108_1,2023-05-01T22:23:23.744Z,,0,,,NaN,,,,,,false,,,,828354.3999999762,828354.2000000477,,828353.7999999523,,828367.466,8,400,,,
break_continue,html.Screen,4_108_2,2023-05-01T22:23:23.745Z,,0,,,NaN,,,,,,false,,,,828354.7000000477,828354.7000000477,,828354.5,,828367.466,8,400,,,
sequence,flow.Sequence,4_108,2023-05-01T22:23:23.745Z,,0,,,5682.82800004771,completion,,,,,false,,,,828354.8999999762,828354.7000000477,822658.534,822666.6000000238,822671.872,828367.466,8,400,,,
trial,html.Screen,4_109_0,2023-05-01T22:23:27.007Z,,0,3,,3248.734000047669,response,ISIC_0000152.JPG,,ISIC_7564545.JPG,ISIC_0000152.JPG,false,1,keypress(m),500,831616.7000000477,831616.2000000477,828354.128,828355.1000000238,828367.466,831621.938,8,400,10,,ISIC_7564545.JPG
break,html.Screen,4_109_1,2023-05-01T22:23:27.007Z,,0,,,NaN,,,,,,false,,,,831617.5,831617.3999999762,,831617,,831621.938,8,400,,,
break_continue,html.Screen,4_109_2,2023-05-01T22:23:27.008Z,,0,,,NaN,,,,,,false,,,,831617.8999999762,831617.7999999523,,831617.7000000477,,831621.938,8,400,,,
sequence,flow.Sequence,4_109,2023-05-01T22:23:27.008Z,,0,,,3250.3339999523014,completion,,,,,false,,,,831618,831617.7999999523,828354.128,828355,828367.466,831621.938,8,400,,,
trial,html.Screen,4_110_0,2023-05-01T22:23:31.783Z,,0,3,,4770.5620000000345,response,ISIC_0062649.JPG,,ISIC_9498942.JPG,ISIC_9498942.JPG,false,0,keypress(z),500,836392.8999999762,836392.5,831608.6,831618.2000000477,831621.938,836396.942,8,400,11,,ISIC_0062649.JPG
break,html.Screen,4_110_1,2023-05-01T22:23:31.784Z,,0,,,NaN,,,,,,false,,,,836393.8999999762,836393.7000000477,,836393.2000000477,,836396.942,8,400,,,
break_continue,html.Screen,4_110_2,2023-05-01T22:23:31.784Z,,0,,,NaN,,,,,,false,,,,836394.2000000477,836394.1000000238,,836394,,836396.942,8,400,,,
sequence,flow.Sequence,4_110,2023-05-01T22:23:31.784Z,,0,,,4772.162000023876,completion,,,,,false,,,,836394.3999999762,836394.1000000238,831608.6,831618.1000000238,831621.938,836396.942,8,400,,,
trial,html.Screen,4_111_0,2023-05-01T22:23:37.583Z,,0,3,,5796.158000023803,response,ISIC_0000440.JPG,,ISIC_3306135.JPG,ISIC_3306135.JPG,false,0,keypress(z),500,842193.6000000238,842193.1000000238,836383.604,836394.5,836396.942,842199.228,8,400,12,,ISIC_0000440.JPG
break,html.Screen,4_111_1,2023-05-01T22:23:37.584Z,,0,,,NaN,,,,,,false,,,,842194.6000000238,842194.2999999523,,842193.8999999762,,842199.228,8,400,,,
break_continue,html.Screen,4_111_2,2023-05-01T22:23:37.585Z,,0,,,NaN,,,,,,false,,,,842194.8999999762,842194.7999999523,,842194.7000000477,,842199.228,8,400,,,
sequence,flow.Sequence,4_111,2023-05-01T22:23:37.585Z,,0,,,5797.857999952277,completion,,,,,false,,,,842195,842194.7999999523,836383.604,836394.5,836396.942,842199.228,8,400,,,
trial,html.Screen,4_112_0,2023-05-01T22:23:47.263Z,,0,3,,9673.872000023839,response,ISIC_9470020.JPG,,ISIC_5065360.JPG,ISIC_5065360.JPG,false,0,keypress(z),500,851873.3999999762,851873.1000000238,842185.89,842195.2000000477,842199.228,851882.875,8,400,13,,ISIC_9470020.JPG
break,html.Screen,4_112_1,2023-05-01T22:23:47.264Z,,0,,,NaN,,,,,,false,,,,851874.1000000238,851874,,851873.7000000477,,851882.875,8,400,,,
break_continue,html.Screen,4_112_2,2023-05-01T22:23:47.264Z,,0,,,NaN,,,,,,false,,,,851874.6000000238,851874.5,,851874.3999999762,,851882.875,8,400,,,
sequence,flow.Sequence,4_112,2023-05-01T22:23:47.264Z,,0,,,9675.271999999997,completion,,,,,false,,,,851874.7999999523,851874.5,842185.89,842195.1000000238,842199.228,851882.875,8,400,,,
trial,html.Screen,4_113_0,2023-05-01T22:23:53.199Z,,0,3,,5926.125,response,ISIC_0010527.JPG,,ISIC_9350507.JPG,ISIC_9350507.JPG,false,0,keypress(z),500,857809.5,857809,851869.537,851874.8999999762,851882.875,857818.285,8,400,14,,ISIC_0010527.JPG
break,html.Screen,4_113_1,2023-05-01T22:23:53.200Z,,0,,,NaN,,,,,,false,,,,857810.3999999762,857810.2000000477,,857809.7999999523,,857818.285,8,400,,,
break_continue,html.Screen,4_113_2,2023-05-01T22:23:53.200Z,,0,,,NaN,,,,,,false,,,,857810.7999999523,857810.7000000477,,857810.6000000238,,857818.285,8,400,,,
sequence,flow.Sequence,4_113,2023-05-01T22:23:53.200Z,,0,,,5927.825000047684,completion,,,,,false,,,,857810.8999999762,857810.7000000477,851869.537,851874.7999999523,851882.875,857818.285,8,400,,,
trial,html.Screen,4_114_0,2023-05-01T22:23:57.670Z,,0,3,,4462.315000023809,response,ISIC_2245709.JPG,,ISIC_0028275.JPG,ISIC_2245709.JPG,false,1,keypress(m),500,862281.1000000238,862280.6000000238,857804.947,857811.1000000238,857818.285,862286.795,8,400,15,,ISIC_0028275.JPG
break,html.Screen,4_114_1,2023-05-01T22:23:57.671Z,,0,,,NaN,,,,,,false,,,,862282.1000000238,862281.7999999523,,862281.2999999523,,862286.795,8,400,,,
break_continue,html.Screen,4_114_2,2023-05-01T22:23:57.672Z,,0,,,NaN,,,,,,false,,,,862282.2999999523,862282.2000000477,,862282.1000000238,,862286.795,8,400,,,
sequence,flow.Sequence,4_114,2023-05-01T22:23:57.672Z,,0,,,4463.915000047651,completion,,,,,false,,,,862282.5,862282.2000000477,857804.947,857811,857818.285,862286.795,8,400,,,
trial,html.Screen,4_115_0,2023-05-01T22:24:04.694Z,,0,3,,7017.604999976116,response,ISIC_7107030.JPG,,ISIC_0024545.JPG,ISIC_7107030.JPG,false,1,keypress(m),500,869304.7000000477,869304.3999999762,862273.457,862282.7000000477,862286.795,869315.921,8,400,16,,ISIC_0024545.JPG
break,html.Screen,4_115_1,2023-05-01T22:24:04.695Z,,0,,,NaN,,,,,,false,,,,869305.3999999762,869305.2999999523,,869305,,869315.921,8,400,,,
break_continue,html.Screen,4_115_2,2023-05-01T22:24:04.695Z,,0,,,NaN,,,,,,false,,,,869305.6000000238,869305.5,,869305.3999999762,,869315.921,8,400,,,
sequence,flow.Sequence,4_115,2023-05-01T22:24:04.695Z,,0,,,7018.704999999958,completion,,,,,false,,,,869305.7999999523,869305.5,862273.457,862282.6000000238,862286.795,869315.921,8,400,,,
trial,html.Screen,4_116_0,2023-05-01T22:24:09.937Z,,0,3,,5231.279000047711,response,ISIC_0010648.JPG,,ISIC_0073238.JPG,ISIC_0010648.JPG,false,1,keypress(m),500,874547.6000000238,874547.2000000477,869302.583,869305.8999999762,869315.921,874558.033,8,400,17,,ISIC_0073238.JPG
break,html.Screen,4_116_1,2023-05-01T22:24:09.938Z,,0,,,NaN,,,,,,false,,,,874548.5,874548.3999999762,,874547.8999999762,,874558.033,8,400,,,
break_continue,html.Screen,4_116_2,2023-05-01T22:24:09.938Z,,0,,,NaN,,,,,,false,,,,874548.8999999762,874548.7000000477,,874548.7000000477,,874558.033,8,400,,,
sequence,flow.Sequence,4_116,2023-05-01T22:24:09.938Z,,0,,,5232.779000047711,completion,,,,,false,,,,874549,874548.7000000477,869302.583,869305.7999999523,869315.921,874558.033,8,400,,,
trial,html.Screen,4_117_0,2023-05-01T22:24:15.446Z,,0,3,,5498.366999976104,response,ISIC_7632525.JPG,,ISIC_8664315.JPG,ISIC_7632525.JPG,false,1,keypress(m),500,880056.8999999762,880056.3999999762,874544.695,874549.2000000477,874558.033,880066.627,8,400,18,,ISIC_8664315.JPG
break,html.Screen,4_117_1,2023-05-01T22:24:15.447Z,,0,,,NaN,,,,,,false,,,,880057.8999999762,880057.7000000477,,880057.2000000477,,880066.627,8,400,,,
break_continue,html.Screen,4_117_2,2023-05-01T22:24:15.447Z,,0,,,NaN,,,,,,false,,,,880058.2000000477,880058.1000000238,,880058,,880066.627,8,400,,,
sequence,flow.Sequence,4_117,2023-05-01T22:24:15.447Z,,0,,,5500.067000023788,completion,,,,,false,,,,880058.3999999762,880058.1000000238,874544.695,874549.2000000477,874558.033,880066.627,8,400,,,
trial,html.Screen,4_118_0,2023-05-01T22:24:23.823Z,,0,3,,8367.172999952338,response,ISIC_9161341.JPG,,ISIC_0014486.JPG,ISIC_9161341.JPG,false,1,keypress(m),500,888434.2999999523,888433.7999999523,880053.289,880058.6000000238,880066.627,888443.188,8,400,19,,ISIC_0014486.JPG
break,html.Screen,4_118_1,2023-05-01T22:24:23.824Z,,0,,,NaN,,,,,,false,,,,888435.2999999523,888435.1000000238,,888434.6000000238,,888443.188,8,400,,,
break_continue,html.Screen,4_118_2,2023-05-01T22:24:23.825Z,,0,,,NaN,,,,,,false,,,,888435.7999999523,888435.6000000238,,888435.5,,888443.188,8,400,,,
sequence,flow.Sequence,4_118,2023-05-01T22:24:23.825Z,,0,,,8368.973000023863,completion,,,,,false,,,,888435.8999999762,888435.6000000238,880053.289,880058.5,880066.627,888443.188,8,400,,,
trial,html.Screen,4_119_0,2023-05-01T22:24:31.510Z,,0,3,,7677.3120000000345,response,ISIC_9029813.JPG,,ISIC_4973549.JPG,ISIC_9029813.JPG,false,1,keypress(m),500,896120.8999999762,896120.5,888429.85,888436.1000000238,888443.188,896125.876,8,400,20,,ISIC_4973549.JPG
break,html.Screen,4_119_1,2023-05-01T22:24:31.511Z,,0,,,NaN,,,,,,false,,,,896121.8999999762,896121.7000000477,,896121.2999999523,,896125.876,8,400,,,
break_continue,html.Screen,4_119_2,2023-05-01T22:24:31.511Z,,0,,,NaN,,,,,,false,,,,896122.2000000477,896122.1000000238,,896122,,896125.876,8,400,,,
sequence,flow.Sequence,4_119,2023-05-01T22:24:31.511Z,,0,,,7678.912000023876,completion,,,,,false,,,,896122.3999999762,896122.1000000238,888429.85,888436,888443.188,896125.876,8,400,,,
trial,html.Screen,4_120_0,2023-05-01T22:24:41.008Z,,0,3,,9492.923999952269,response,ISIC_0010581.JPG,,ISIC_1694817.JPG,ISIC_1694817.JPG,false,0,keypress(z),500,905619.2999999523,905618.7999999523,896112.538,896122.6000000238,896125.876,905622.921,8,400,21,,ISIC_0010581.JPG
break,html.Screen,4_120_1,2023-05-01T22:24:41.009Z,,0,,,NaN,,,,,,false,,,,905620.3999999762,905620.2000000477,,905619.7000000477,,905622.921,8,400,,,
break_continue,html.Screen,4_120_2,2023-05-01T22:24:41.009Z,,0,,,NaN,,,,,,false,,,,905620.7999999523,905620.6000000238,,905620.6000000238,,905622.921,8,400,,,
sequence,flow.Sequence,4_120,2023-05-01T22:24:41.009Z,,0,,,9494.724000023794,completion,,,,,false,,,,905620.8999999762,905620.6000000238,896112.538,896122.5,896125.876,905622.921,8,400,,,
trial,html.Screen,4_121_0,2023-05-01T22:24:51.429Z,,0,3,,10417.478999976185,response,ISIC_0062133.JPG,,ISIC_0027666.JPG,ISIC_0027666.JPG,false,0,keypress(z),500,916040.8999999762,916040.3999999762,905609.583,905621.1000000238,905622.921,916053.47,8,400,22,,ISIC_0062133.JPG
break,html.Screen,4_121_1,2023-05-01T22:24:51.430Z,,0,,,NaN,,,,,,false,,,,916041.8999999762,916041.7000000477,,916041.2000000477,,916053.47,8,400,,,
break_continue,html.Screen,4_121_2,2023-05-01T22:24:51.431Z,,0,,,NaN,,,,,,false,,,,916042.2999999523,916042.2000000477,,916042,,916053.47,8,400,,,
sequence,flow.Sequence,4_121,2023-05-01T22:24:51.431Z,,0,,,10419.27900004771,completion,,,,,false,,,,916042.5,916042.2000000477,905609.583,905621,905622.921,916053.47,8,400,,,
trial,html.Screen,4_122_0,2023-05-01T22:24:59.504Z,,0,3,,8061.429999976186,response,ISIC_8680266.JPG,,ISIC_0066354.JPG,ISIC_0066354.JPG,false,0,keypress(z),500,924115.3999999762,924114.8999999762,916040.132,916042.6000000238,916053.47,924122.96,8,400,23,,ISIC_8680266.JPG
break,html.Screen,4_122_1,2023-05-01T22:24:59.505Z,,0,,,NaN,,,,,,false,,,,924116.2999999523,924116.1000000238,,924115.6000000238,,924122.96,8,400,,,
break_continue,html.Screen,4_122_2,2023-05-01T22:24:59.505Z,,0,,,NaN,,,,,,false,,,,924116.7000000477,924116.6000000238,,924116.5,,924122.96,8,400,,,
sequence,flow.Sequence,4_122,2023-05-01T22:24:59.505Z,,0,,,8063.13000002387,completion,,,,,false,,,,924116.7999999523,924116.6000000238,916040.132,916042.6000000238,916053.47,924122.96,8,400,,,
trial,html.Screen,4_123_0,2023-05-01T22:25:03.710Z,,0,3,,4198.439999976195,response,ISIC_1177153.JPG,,ISIC_0001141.JPG,ISIC_1177153.JPG,false,1,keypress(m),500,928321.8999999762,928321.3999999762,924109.622,924117.1000000238,924122.96,928324.723,8,400,24,,ISIC_0001141.JPG
break,html.Screen,4_123_1,2023-05-01T22:25:03.711Z,,0,,,NaN,,,,,,false,,,,928322.8999999762,928322.7000000477,,928322.2000000477,,928324.723,8,400,,,
break_continue,html.Screen,4_123_2,2023-05-01T22:25:03.711Z,,0,,,NaN,,,,,,false,,,,928323.2999999523,928323.1000000238,,928323,,928324.723,8,400,,,
sequence,flow.Sequence,4_123,2023-05-01T22:25:03.712Z,,0,,,4200.140000023879,completion,,,,,false,,,,928323.3999999762,928323.1000000238,924109.622,924116.8999999762,924122.96,928324.723,8,400,,,
trial,html.Screen,4_124_0,2023-05-01T22:25:08.606Z,,0,3,,4892.67699997616,response,ISIC_3328295.JPG,,ISIC_0014994.JPG,ISIC_0014994.JPG,false,0,keypress(z),500,933217.8999999762,933217.3999999762,928311.385,928323.6000000238,928324.723,933233.107,8,400,25,,ISIC_3328295.JPG
break,html.Screen,4_124_1,2023-05-01T22:25:08.607Z,,0,,,NaN,,,,,,false,,,,933218.7999999523,933218.6000000238,,933218.1000000238,,933233.107,8,400,,,
break_continue,html.Screen,4_124_2,2023-05-01T22:25:08.607Z,,0,,,NaN,,,,,,false,,,,933219.1000000238,933219,,933218.8999999762,,933233.107,8,400,,,
sequence,flow.Sequence,4_124,2023-05-01T22:25:08.607Z,,0,,,4894.277000000002,completion,,,,,false,,,,933219.3999999762,933219,928311.385,928323.5,928324.723,933233.107,8,400,,,
trial,html.Screen,4_125_0,2023-05-01T22:25:16.085Z,,0,3,,7463.292999976198,response,ISIC_2312766.JPG,,ISIC_0014127.JPG,ISIC_0014127.JPG,false,0,keypress(z),500,940696.8999999762,940696.3999999762,933219.769,933219.5,933233.107,940702.687,8,400,26,,ISIC_2312766.JPG
break,html.Screen,4_125_1,2023-05-01T22:25:16.086Z,,0,,,NaN,,,,,,false,,,,940697.7999999523,940697.6000000238,,940697.2000000477,,940702.687,8,400,,,
break_continue,html.Screen,4_125_2,2023-05-01T22:25:16.086Z,,0,,,NaN,,,,,,false,,,,940698.1000000238,940698,,940698,,940702.687,8,400,,,
sequence,flow.Sequence,4_125,2023-05-01T22:25:16.086Z,,0,,,7464.89300000004,completion,,,,,false,,,,940698.2999999523,940698,933219.769,933219.5,933233.107,940702.687,8,400,,,
trial,html.Screen,4_126_0,2023-05-01T22:25:24.469Z,,0,3,,8377.812999999966,response,ISIC_0031079.JPG,,ISIC_3296136.JPG,ISIC_0031079.JPG,false,1,keypress(m),500,949080.8999999762,949080.5,940689.349,940698.3999999762,940702.687,949092.289,8,400,27,,ISIC_3296136.JPG
break,html.Screen,4_126_1,2023-05-01T22:25:24.470Z,,0,,,NaN,,,,,,false,,,,949081.8999999762,949081.7000000477,,949081.2000000477,,949092.289,8,400,,,
