sender,sender_type,sender_id,timestamp,meta,,blockNo,condition,duration,ended_on,img_left,img_reveal,img_right,loser,practice,response,response_action,selection_duration,time_commit,time_end,time_render,time_run,time_show,time_switch,total_blocks,total_trials,trialNo,url,winner
informed_consent,html.Screen,0,2023-09-08T19:47:27.845Z,"{""labjs_version"":""20.2.4"",""labjs_build"":{""flavor"":""production"",""commit"":""f5b4a49f956347addd546a832a3327688c2c0fef""},""location"":""https://run.pavlovia.org/MurrayBennett/melanoma-2afc/?participant=64727ea9591087aef21f3dcf&STUDY_ID=64f8c92207ba404bcb356c90&SESSION_ID=64fb7a020b57fc330d261386&platform=prolific"",""userAgent"":""Mozilla/5.0 (Windows NT 10.0; Win64; x64; rv:109.0) Gecko/20100101 Firefox/117.0"",""platform"":""Win32"",""language"":""en-US"",""locale"":""en-UM"",""timeZone"":""America/New_York"",""timezoneOffset"":0,""screen_width"":1366,""screen_height"":768,""scroll_width"":1366,""scroll_height"":587,""window_innerWidth"":1366,""window_innerHeight"":635,""devicePixelRatio"":1}",,,,62664.38,response,,,,,,consent,click button,,69214,69195,6513.9,6509,6530.62,69264.26,,,,"{""participant"":""64727ea9591087aef21f3dcf"",""STUDY_ID"":""64f8c92207ba404bcb356c90"",""SESSION_ID"":""64fb7a020b57fc330d261386"",""platform"":""prolific""}",
Welcome,html.Screen,1,2023-09-08T19:52:13.030Z,,,,asymmetry,285118.74,response,,,,,,continue,click button,,354398,354383,69209.9,69216,69264.26,354400.22,,,,,
trial,html.Screen,2_0_0,2023-09-08T19:52:17.829Z,,0,0,,4796.780000000028,response,ISIC_6997061.JPG,,ISIC_0069348.JPG,ISIC_6997061.JPG,true,1,keypress(m),500,359197,359197,354393.74,354399,354400.22,359203.1,1,6,1,,ISIC_0069348.JPG
sequence,flow.Sequence,2_0,2023-09-08T19:52:17.830Z,,0,,,4796.780000000028,completion,,,,,true,,,,359198,359197,354393.74,354399,354400.22,359203.1,1,6,,,
trial,html.Screen,2_1_0,2023-09-08T19:52:20.582Z,,0,0,,2744.9000000000233,response,ISIC_0057368.JPG,,ISIC_0009529.JPG,ISIC_0009529.JPG,true,0,keypress(z),500,361950,361948,359199.12,359199,359203.1,361963.98,1,6,2,,ISIC_0057368.JPG
sequence,flow.Sequence,2_1,2023-09-08T19:52:20.582Z,,0,,,2744.9000000000233,completion,,,,,true,,,,361951,361948,359199.12,359199,359203.1,361963.98,1,6,,,
trial,html.Screen,2_2_0,2023-09-08T19:52:24.860Z,,0,0,,4264.020000000019,response,ISIC_0064954.JPG,,ISIC_9758671.JPG,ISIC_9758671.JPG,true,0,keypress(z),500,366228,366228,361952.14,361952,361963.98,366247.56,1,6,3,,ISIC_0064954.JPG
sequence,flow.Sequence,2_2,2023-09-08T19:52:24.862Z,,0,,,4264.020000000019,completion,,,,,true,,,,366230,366228,361952.14,361952,361963.98,366247.56,1,6,,,
trial,html.Screen,2_3_0,2023-09-08T19:52:27.600Z,,0,0,,2719.4400000000023,response,ISIC_0005785.JPG,,ISIC_0000080.JPG,ISIC_0005785.JPG,true,1,keypress(m),500,368968,368967,366231.04,366231,366247.56,368975.02,1,6,4,,ISIC_0000080.JPG
sequence,flow.Sequence,2_3,2023-09-08T19:52:27.601Z,,0,,,2719.4400000000023,completion,,,,,true,,,,368970,368967,366231.04,366230,366247.56,368975.02,1,6,,,
trial,html.Screen,2_4_0,2023-09-08T19:52:31.471Z,,0,0,,3862.9799999999814,response,ISIC_5390060.JPG,,ISIC_7944028.JPG,ISIC_5390060.JPG,true,1,keypress(m),500,372840,372838,368970.98,368971,368975.02,372856.12,1,6,5,,ISIC_7944028.JPG
sequence,flow.Sequence,2_4,2023-09-08T19:52:31.472Z,,0,,,3862.9799999999814,completion,,,,,true,,,,372841,372838,368970.98,368971,368975.02,372856.12,1,6,,,
trial,html.Screen,2_5_0,2023-09-08T19:52:34.830Z,,0,0,,3340.8800000000047,response,ISIC_0794216.JPG,,ISIC_0010188.JPG,ISIC_0794216.JPG,true,1,keypress(m),500,376198,376197,372843.04,372843,372856.12,376202.8,1,6,6,,ISIC_0010188.JPG
sequence,flow.Sequence,2_5,2023-09-08T19:52:34.830Z,,0,,,3340.8800000000047,completion,,,,,true,,,,376199,376197,372843.04,372843,372856.12,376202.8,1,6,,,
loop,flow.Loop,2,2023-09-08T19:52:34.831Z,,,,,21796.780000000028,completion,,,,,true,,,,376199,376197,354393.74,354399,354400.22,376202.8,1,6,,,
exp_instructions,html.Screen,3,2023-09-08T19:53:22.974Z,,,,,48133.20000000001,response,,,,,,continue,keypress(Space),,424343,424336,376200.34,376200,376202.8,424345.96,,,,,
trial,html.Screen,4_0_0,2023-09-08T19:53:25.509Z,,0,1,,2531.039999999979,response,ISIC_0010982.JPG,12,ISIC_3286956.JPG,ISIC_0010982.JPG,false,1,keypress(m),500,426877,426877,424343.32,424343,424345.96,426889.48,8,400,1,,ISIC_3286956.JPG
break,html.Screen,4_0_1,2023-09-08T19:53:25.510Z,,0,,,NaN,,,,,,false,,,,426879,426879,,426878,,426889.48,8,400,,,
break_continue,html.Screen,4_0_2,2023-09-08T19:53:25.512Z,,0,,,NaN,,,,,,false,,,,426880,426879,,426879,,426889.48,8,400,,,
sequence,flow.Sequence,4_0,2023-09-08T19:53:25.513Z,,0,,,2533.039999999979,completion,,,,,false,,,,426881,426879,424343.32,424343,424345.96,426889.48,8,400,,,
trial,html.Screen,4_1_0,2023-09-08T19:53:28.000Z,,0,1,,2478.5200000000186,response,ISIC_0029995.JPG,6,ISIC_0072375.JPG,ISIC_0072375.JPG,false,0,keypress(z),500,429368,429368,426877.48,426882,426889.48,429381.74,8,400,2,,ISIC_0029995.JPG
break,html.Screen,4_1_1,2023-09-08T19:53:28.002Z,,0,,,NaN,,,,,,false,,,,429371,429370,,429369,,429381.74,8,400,,,
break_continue,html.Screen,4_1_2,2023-09-08T19:53:28.005Z,,0,,,NaN,,,,,,false,,,,429372,429372,,429371,,429381.74,8,400,,,
sequence,flow.Sequence,4_1,2023-09-08T19:53:28.005Z,,0,,,2482.5200000000186,completion,,,,,false,,,,429374,429372,426877.48,426882,426889.48,429381.74,8,400,,,
trial,html.Screen,4_2_0,2023-09-08T19:53:30.390Z,,0,1,,2375.2600000000093,response,ISIC_6767569.JPG,1,ISIC_0056316.JPG,ISIC_6767569.JPG,false,1,keypress(m),500,431758,431757,429369.34,429374,429381.74,431774.84,8,400,3,,ISIC_0056316.JPG
break,html.Screen,4_2_1,2023-09-08T19:53:30.391Z,,0,,,NaN,,,,,,false,,,,431760,431759,,431758,,431774.84,8,400,,,
break_continue,html.Screen,4_2_2,2023-09-08T19:53:30.392Z,,0,,,NaN,,,,,,false,,,,431760,431760,,431760,,431774.84,8,400,,,
sequence,flow.Sequence,4_2,2023-09-08T19:53:30.392Z,,0,,,2378.2600000000093,completion,,,,,false,,,,431761,431760,429369.34,429374,429381.74,431774.84,8,400,,,
trial,html.Screen,4_3_0,2023-09-08T19:53:33.150Z,,0,1,,2742.1599999999744,response,ISIC_1132788.JPG,13,ISIC_0210998.JPG,ISIC_1132788.JPG,false,1,keypress(m),500,434518,434517,431758.28,431761,431774.84,434518.92,8,400,4,,ISIC_0210998.JPG
break,html.Screen,4_3_1,2023-09-08T19:53:33.152Z,,0,,,NaN,,,,,,false,,,,434520,434520,,434519,,434518.92,8,400,,,
break_continue,html.Screen,4_3_2,2023-09-08T19:53:33.154Z,,0,,,NaN,,,,,,false,,,,434523,434521,,434521,,434518.92,8,400,,,
sequence,flow.Sequence,4_3,2023-09-08T19:53:33.156Z,,0,,,2746.1599999999744,completion,,,,,false,,,,434524,434521,431758.28,431761,431774.84,434518.92,8,400,,,
trial,html.Screen,4_4_0,2023-09-08T19:53:35.708Z,,0,1,,2557.0800000000163,response,ISIC_3335505.JPG,18,ISIC_0027109.JPG,ISIC_0027109.JPG,false,0,keypress(z),500,437077,437076,434518.66,434525,434518.92,437079.16,8,400,5,,ISIC_3335505.JPG
break,html.Screen,4_4_1,2023-09-08T19:53:35.710Z,,0,,,NaN,,,,,,false,,,,437078,437078,,437077,,437079.16,8,400,,,
break_continue,html.Screen,4_4_2,2023-09-08T19:53:35.710Z,,0,,,NaN,,,,,,false,,,,437079,437078,,437078,,437079.16,8,400,,,
sequence,flow.Sequence,4_4,2023-09-08T19:53:35.710Z,,0,,,2559.0800000000163,completion,,,,,false,,,,437079,437078,434518.66,434525,434518.92,437079.16,8,400,,,
trial,html.Screen,4_5_0,2023-09-08T19:53:38.508Z,,0,1,,2796.8400000000256,response,ISIC_0055737.JPG,17,ISIC_9401187.JPG,ISIC_9401187.JPG,false,0,keypress(z),500,439877,439876,437077.52,437079,437079.16,439890.26,8,400,6,,ISIC_0055737.JPG
break,html.Screen,4_5_1,2023-09-08T19:53:38.510Z,,0,,,NaN,,,,,,false,,,,439878,439878,,439877,,439890.26,8,400,,,
break_continue,html.Screen,4_5_2,2023-09-08T19:53:38.510Z,,0,,,NaN,,,,,,false,,,,439879,439879,,439878,,439890.26,8,400,,,
sequence,flow.Sequence,4_5,2023-09-08T19:53:38.511Z,,0,,,2799.8400000000256,completion,,,,,false,,,,439879,439879,437077.52,437079,437079.16,439890.26,8,400,,,
trial,html.Screen,4_6_0,2023-09-08T19:53:41.239Z,,0,1,,2715.7399999999907,response,ISIC_0003324.JPG,8,ISIC_0062025.JPG,ISIC_0003324.JPG,false,1,keypress(m),500,442607,442606,439877.14,439879,439890.26,442617.78,8,400,7,,ISIC_0062025.JPG
break,html.Screen,4_6_1,2023-09-08T19:53:41.243Z,,0,,,NaN,,,,,,false,,,,442611,442610,,442608,,442617.78,8,400,,,
break_continue,html.Screen,4_6_2,2023-09-08T19:53:41.245Z,,0,,,NaN,,,,,,false,,,,442613,442612,,442612,,442617.78,8,400,,,
sequence,flow.Sequence,4_6,2023-09-08T19:53:41.247Z,,0,,,2721.7399999999907,completion,,,,,false,,,,442615,442612,439877.14,439879,439890.26,442617.78,8,400,,,
trial,html.Screen,4_7_0,2023-09-08T19:53:43.880Z,,0,1,,2629.219999999972,response,ISIC_6375439.JPG,9,ISIC_0028422.JPG,ISIC_6375439.JPG,false,1,keypress(m),500,445248,445247,442608.82,442616,442617.78,445261.64,8,400,8,,ISIC_0028422.JPG
break,html.Screen,4_7_1,2023-09-08T19:53:43.883Z,,0,,,NaN,,,,,,false,,,,445251,445250,,445249,,445261.64,8,400,,,
break_continue,html.Screen,4_7_2,2023-09-08T19:53:43.884Z,,0,,,NaN,,,,,,false,,,,445252,445252,,445251,,445261.64,8,400,,,
sequence,flow.Sequence,4_7,2023-09-08T19:53:43.884Z,,0,,,2634.219999999972,completion,,,,,false,,,,445253,445252,442608.82,442616,442617.78,445261.64,8,400,,,
trial,html.Screen,4_8_0,2023-09-08T19:53:46.515Z,,0,1,,2621.359999999986,response,ISIC_6062536.JPG,12,ISIC_0069292.JPG,ISIC_6062536.JPG,false,1,keypress(m),500,447883,447883,445249.28,445253,445261.64,447888.78,8,400,9,,ISIC_0069292.JPG
break,html.Screen,4_8_1,2023-09-08T19:53:46.517Z,,0,,,NaN,,,,,,false,,,,447886,447885,,447884,,447888.78,8,400,,,
break_continue,html.Screen,4_8_2,2023-09-08T19:53:46.519Z,,0,,,NaN,,,,,,false,,,,447887,447886,,447886,,447888.78,8,400,,,
sequence,flow.Sequence,4_8,2023-09-08T19:53:46.519Z,,0,,,2624.359999999986,completion,,,,,false,,,,447887,447886,445249.28,445253,445261.64,447888.78,8,400,,,
trial,html.Screen,4_9_0,2023-09-08T19:53:49.120Z,,0,1,,2600.219999999972,response,ISIC_0034144.JPG,14,ISIC_1531204.JPG,ISIC_1531204.JPG,false,0,keypress(z),500,450489,450489,447884.24,447891,447888.78,450499.22,8,400,10,,ISIC_0034144.JPG
break,html.Screen,4_9_1,2023-09-08T19:53:49.121Z,,0,,,NaN,,,,,,false,,,,450489,450489,,450489,,450499.22,8,400,,,
break_continue,html.Screen,4_9_2,2023-09-08T19:53:49.122Z,,0,,,NaN,,,,,,false,,,,450490,450490,,450490,,450499.22,8,400,,,
sequence,flow.Sequence,4_9,2023-09-08T19:53:49.122Z,,0,,,2601.219999999972,completion,,,,,false,,,,450492,450490,447884.24,447890,447888.78,450499.22,8,400,,,
trial,html.Screen,4_10_0,2023-09-08T19:53:51.729Z,,0,1,,2596.780000000028,response,ISIC_9760968.JPG,4,ISIC_1522266.JPG,ISIC_1522266.JPG,false,0,keypress(z),500,453097,453096,450489.04,450492,450499.22,453109.66,8,400,11,,ISIC_9760968.JPG
break,html.Screen,4_10_1,2023-09-08T19:53:51.732Z,,0,,,NaN,,,,,,false,,,,453100,453099,,453098,,453109.66,8,400,,,
break_continue,html.Screen,4_10_2,2023-09-08T19:53:51.733Z,,0,,,NaN,,,,,,false,,,,453102,453101,,453101,,453109.66,8,400,,,
sequence,flow.Sequence,4_10,2023-09-08T19:53:51.734Z,,0,,,2601.780000000028,completion,,,,,false,,,,453102,453101,450489.04,450492,450499.22,453109.66,8,400,,,
trial,html.Screen,4_11_0,2023-09-08T19:53:54.309Z,,0,1,,2567.3400000000256,response,ISIC_3800541.JPG,12,ISIC_4292708.JPG,ISIC_3800541.JPG,false,1,keypress(m),500,455677,455677,453098.26,453103,453109.66,455686.62,8,400,12,,ISIC_4292708.JPG
break,html.Screen,4_11_1,2023-09-08T19:53:54.311Z,,0,,,NaN,,,,,,false,,,,455680,455679,,455678,,455686.62,8,400,,,
break_continue,html.Screen,4_11_2,2023-09-08T19:53:54.312Z,,0,,,NaN,,,,,,false,,,,455681,455681,,455680,,455686.62,8,400,,,
sequence,flow.Sequence,4_11,2023-09-08T19:53:54.313Z,,0,,,2571.3400000000256,completion,,,,,false,,,,455682,455681,453098.26,453103,453109.66,455686.62,8,400,,,
trial,html.Screen,4_12_0,2023-09-08T19:53:57.154Z,,0,1,,2835.3800000000047,response,ISIC_4043580.JPG,13,ISIC_8579259.JPG,ISIC_4043580.JPG,false,1,keypress(m),500,458523,458522,455677.92,455682,455686.62,458531.14,8,400,13,,ISIC_8579259.JPG
break,html.Screen,4_12_1,2023-09-08T19:53:57.156Z,,0,,,NaN,,,,,,false,,,,458525,458524,,458523,,458531.14,8,400,,,
break_continue,html.Screen,4_12_2,2023-09-08T19:53:57.157Z,,0,,,NaN,,,,,,false,,,,458526,458526,,458525,,458531.14,8,400,,,
sequence,flow.Sequence,4_12,2023-09-08T19:53:57.159Z,,0,,,2839.3800000000047,completion,,,,,false,,,,458527,458526,455677.92,455682,455686.62,458531.14,8,400,,,
trial,html.Screen,4_13_0,2023-09-08T19:54:00.105Z,,0,1,,2940.859999999986,response,ISIC_6227397.JPG,17,ISIC_0054851.JPG,ISIC_0054851.JPG,false,0,keypress(z),500,461472,461472,458523.6,458527,458531.14,461476.04,8,400,14,,ISIC_6227397.JPG
break,html.Screen,4_13_1,2023-09-08T19:54:00.106Z,,0,,,NaN,,,,,,false,,,,461474,461474,,461474,,461476.04,8,400,,,
break_continue,html.Screen,4_13_2,2023-09-08T19:54:00.106Z,,0,,,NaN,,,,,,false,,,,461474,461474,,461474,,461476.04,8,400,,,
sequence,flow.Sequence,4_13,2023-09-08T19:54:00.106Z,,0,,,2942.859999999986,completion,,,,,false,,,,461474,461474,458523.6,458527,458531.14,461476.04,8,400,,,
trial,html.Screen,4_14_0,2023-09-08T19:54:02.958Z,,0,1,,2850.960000000021,response,ISIC_0031931.JPG,11,ISIC_0026627.JPG,ISIC_0031931.JPG,false,1,keypress(m),500,464327,464327,461473.24,461475,461476.04,464337.32,8,400,15,,ISIC_0026627.JPG
break,html.Screen,4_14_1,2023-09-08T19:54:02.960Z,,0,,,NaN,,,,,,false,,,,464328,464328,,464327,,464337.32,8,400,,,
break_continue,html.Screen,4_14_2,2023-09-08T19:54:02.960Z,,0,,,NaN,,,,,,false,,,,464329,464329,,464329,,464337.32,8,400,,,
sequence,flow.Sequence,4_14,2023-09-08T19:54:02.961Z,,0,,,2852.960000000021,completion,,,,,false,,,,464330,464329,461473.24,461475,461476.04,464337.32,8,400,,,
trial,html.Screen,4_15_0,2023-09-08T19:54:05.569Z,,0,1,,2598.679999999993,response,ISIC_0031999.JPG,6,ISIC_0072977.JPG,ISIC_0031999.JPG,false,1,keypress(m),500,466936,466936,464327.26,464330,464337.32,466947.7,8,400,16,,ISIC_0072977.JPG
break,html.Screen,4_15_1,2023-09-08T19:54:05.570Z,,0,,,NaN,,,,,,false,,,,466938,466937,,466937,,466947.7,8,400,,,
break_continue,html.Screen,4_15_2,2023-09-08T19:54:05.570Z,,0,,,NaN,,,,,,false,,,,466938,466938,,466938,,466947.7,8,400,,,
sequence,flow.Sequence,4_15,2023-09-08T19:54:05.570Z,,0,,,2600.679999999993,completion,,,,,false,,,,466939,466938,464327.26,464330,464337.32,466947.7,8,400,,,
trial,html.Screen,4_16_0,2023-09-08T19:54:08.188Z,,0,1,,2608.2999999999884,response,ISIC_0059943.JPG,16,ISIC_0028328.JPG,ISIC_0028328.JPG,false,0,keypress(z),500,469556,469556,466937.18,466939,466947.7,469558.14,8,400,17,,ISIC_0059943.JPG
break,html.Screen,4_16_1,2023-09-08T19:54:08.189Z,,0,,,NaN,,,,,,false,,,,469557,469557,,469557,,469558.14,8,400,,,
break_continue,html.Screen,4_16_2,2023-09-08T19:54:08.190Z,,0,,,NaN,,,,,,false,,,,469558,469558,,469558,,469558.14,8,400,,,
sequence,flow.Sequence,4_16,2023-09-08T19:54:08.190Z,,0,,,2610.2999999999884,completion,,,,,false,,,,469559,469558,466937.18,466939,466947.7,469558.14,8,400,,,
trial,html.Screen,4_17_0,2023-09-08T19:54:10.779Z,,0,1,,2588.859999999986,response,ISIC_0028886.JPG,7,ISIC_0958701.JPG,ISIC_0958701.JPG,false,0,keypress(z),500,472148,472147,469557.12,469559,469558.14,472151.86,8,400,18,,ISIC_0028886.JPG
break,html.Screen,4_17_1,2023-09-08T19:54:10.781Z,,0,,,NaN,,,,,,false,,,,472150,472150,,472148,,472151.86,8,400,,,
break_continue,html.Screen,4_17_2,2023-09-08T19:54:10.783Z,,0,,,NaN,,,,,,false,,,,472152,472151,,472151,,472151.86,8,400,,,
sequence,flow.Sequence,4_17,2023-09-08T19:54:10.783Z,,0,,,2592.859999999986,completion,,,,,false,,,,472152,472151,469557.12,469559,469558.14,472151.86,8,400,,,
trial,html.Screen,4_18_0,2023-09-08T19:54:13.449Z,,0,1,,2665.140000000014,response,ISIC_0072516.JPG,2,ISIC_6780471.JPG,ISIC_0072516.JPG,false,1,keypress(m),500,474817,474817,472148.28,472153,472151.86,474829.2,8,400,19,,ISIC_6780471.JPG
break,html.Screen,4_18_1,2023-09-08T19:54:13.450Z,,0,,,NaN,,,,,,false,,,,474819,474818,,474817,,474829.2,8,400,,,
break_continue,html.Screen,4_18_2,2023-09-08T19:54:13.452Z,,0,,,NaN,,,,,,false,,,,474820,474819,,474819,,474829.2,8,400,,,
sequence,flow.Sequence,4_18,2023-09-08T19:54:13.452Z,,0,,,2667.140000000014,completion,,,,,false,,,,474820,474819,472148.28,472153,472151.86,474829.2,8,400,,,
trial,html.Screen,4_19_0,2023-09-08T19:54:16.098Z,,0,1,,2637.7999999999884,response,ISIC_9417004.JPG,4,ISIC_7306131.JPG,ISIC_7306131.JPG,false,0,keypress(z),500,477467,477467,474817.5,474821,474829.2,477473.12,8,400,20,,ISIC_9417004.JPG
break,html.Screen,4_19_1,2023-09-08T19:54:16.101Z,,0,,,NaN,,,,,,false,,,,477470,477469,,477468,,477473.12,8,400,,,
break_continue,html.Screen,4_19_2,2023-09-08T19:54:16.102Z,,0,,,NaN,,,,,,false,,,,477471,477470,,477470,,477473.12,8,400,,,
sequence,flow.Sequence,4_19,2023-09-08T19:54:16.103Z,,0,,,2640.7999999999884,completion,,,,,false,,,,477472,477470,474817.5,474821,474829.2,477473.12,8,400,,,
trial,html.Screen,4_20_0,2023-09-08T19:54:18.658Z,,0,1,,2552.8800000000047,response,ISIC_6806124.JPG,13,ISIC_0011956.JPG,ISIC_6806124.JPG,false,1,keypress(m),500,480026,480026,477468.22,477472,477473.12,480033.4,8,400,21,,ISIC_0011956.JPG
break,html.Screen,4_20_1,2023-09-08T19:54:18.660Z,,0,,,NaN,,,,,,false,,,,480028,480028,,480027,,480033.4,8,400,,,
break_continue,html.Screen,4_20_2,2023-09-08T19:54:18.662Z,,0,,,NaN,,,,,,false,,,,480030,480029,,480029,,480033.4,8,400,,,
sequence,flow.Sequence,4_20,2023-09-08T19:54:18.662Z,,0,,,2555.8800000000047,completion,,,,,false,,,,480031,480029,477468.22,477472,477473.12,480033.4,8,400,,,
trial,html.Screen,4_21_0,2023-09-08T19:54:21.218Z,,0,1,,2553.5999999999767,response,ISIC_0757147.JPG,13,ISIC_1008609.JPG,ISIC_1008609.JPG,false,0,keypress(z),500,482587,482587,480027.28,480031,480033.4,482594.4,8,400,22,,ISIC_0757147.JPG
break,html.Screen,4_21_1,2023-09-08T19:54:21.219Z,,0,,,NaN,,,,,,false,,,,482588,482588,,482587,,482594.4,8,400,,,
break_continue,html.Screen,4_21_2,2023-09-08T19:54:21.220Z,,0,,,NaN,,,,,,false,,,,482588,482588,,482588,,482594.4,8,400,,,
sequence,flow.Sequence,4_21,2023-09-08T19:54:21.220Z,,0,,,2554.5999999999767,completion,,,,,false,,,,482589,482588,480027.28,480031,480033.4,482594.4,8,400,,,
trial,html.Screen,4_22_0,2023-09-08T19:54:24.040Z,,0,1,,2812.5999999999767,response,ISIC_0014336.JPG,17,ISIC_4601527.JPG,ISIC_4601527.JPG,false,0,keypress(z),500,485408,485407,482586.8,482589,482594.4,485422.16,8,400,23,,ISIC_0014336.JPG
break,html.Screen,4_22_1,2023-09-08T19:54:24.042Z,,0,,,NaN,,,,,,false,,,,485411,485410,,485409,,485422.16,8,400,,,
break_continue,html.Screen,4_22_2,2023-09-08T19:54:24.044Z,,0,,,NaN,,,,,,false,,,,485412,485412,,485412,,485422.16,8,400,,,
sequence,flow.Sequence,4_22,2023-09-08T19:54:24.044Z,,0,,,2817.5999999999767,completion,,,,,false,,,,485413,485412,482586.8,482589,482594.4,485422.16,8,400,,,
trial,html.Screen,4_23_0,2023-09-08T19:54:26.699Z,,0,1,,2643.8400000000256,response,ISIC_7693995.JPG,23,ISIC_0032549.JPG,ISIC_7693995.JPG,false,1,keypress(m),500,488067,488066,485409.04,485413,485422.16,488082.74,8,400,24,,ISIC_0032549.JPG
break,html.Screen,4_23_1,2023-09-08T19:54:26.702Z,,0,,,NaN,,,,,,false,,,,488070,488069,,488068,,488082.74,8,400,,,
break_continue,html.Screen,4_23_2,2023-09-08T19:54:26.703Z,,0,,,NaN,,,,,,false,,,,488071,488071,,488070,,488082.74,8,400,,,
sequence,flow.Sequence,4_23,2023-09-08T19:54:26.704Z,,0,,,2648.8400000000256,completion,,,,,false,,,,488072,488071,485409.04,485413,485422.16,488082.74,8,400,,,
trial,html.Screen,4_24_0,2023-09-08T19:54:29.479Z,,0,1,,2763.2600000000093,response,ISIC_9465061.JPG,1,ISIC_0066411.JPG,ISIC_0066411.JPG,false,0,keypress(z),500,490847,490846,488068.4,488072,488082.74,490860.34,8,400,25,,ISIC_9465061.JPG
break,html.Screen,4_24_1,2023-09-08T19:54:29.481Z,,0,,,NaN,,,,,,false,,,,490849,490849,,490848,,490860.34,8,400,,,
break_continue,html.Screen,4_24_2,2023-09-08T19:54:29.482Z,,0,,,NaN,,,,,,false,,,,490850,490849,,490849,,490860.34,8,400,,,
sequence,flow.Sequence,4_24,2023-09-08T19:54:29.482Z,,0,,,2766.2600000000093,completion,,,,,false,,,,490851,490849,488068.4,488072,488082.74,490860.34,8,400,,,
trial,html.Screen,4_25_0,2023-09-08T19:54:32.308Z,,0,1,,2815.6599999999744,response,ISIC_0010784.JPG,4,ISIC_0007678.JPG,ISIC_0010784.JPG,false,1,keypress(m),500,493677,493676,490847.74,490851,490860.34,493688.02,8,400,26,,ISIC_0007678.JPG
break,html.Screen,4_25_1,2023-09-08T19:54:32.310Z,,0,,,NaN,,,,,,false,,,,493678,493677,,493677,,493688.02,8,400,,,
break_continue,html.Screen,4_25_2,2023-09-08T19:54:32.311Z,,0,,,NaN,,,,,,false,,,,493678,493678,,493678,,493688.02,8,400,,,
sequence,flow.Sequence,4_25,2023-09-08T19:54:32.311Z,,0,,,2817.6599999999744,completion,,,,,false,,,,493679,493678,490847.74,490851,490860.34,493688.02,8,400,,,
trial,html.Screen,4_26_0,2023-09-08T19:54:35.628Z,,0,1,,3308.9799999999814,response,ISIC_9008026.JPG,16,ISIC_0024235.JPG,ISIC_9008026.JPG,false,1,keypress(m),500,496997,496997,493677.06,493679,493688.02,497000.78,8,400,27,,ISIC_0024235.JPG
break,html.Screen,4_26_1,2023-09-08T19:54:35.629Z,,0,,,NaN,,,,,,false,,,,496998,496998,,496997,,497000.78,8,400,,,
break_continue,html.Screen,4_26_2,2023-09-08T19:54:35.630Z,,0,,,NaN,,,,,,false,,,,496998,496998,,496998,,497000.78,8,400,,,
sequence,flow.Sequence,4_26,2023-09-08T19:54:35.630Z,,0,,,3309.9799999999814,completion,,,,,false,,,,496999,496998,493677.06,493679,493688.02,497000.78,8,400,,,
trial,html.Screen,4_27_0,2023-09-08T19:54:38.858Z,,0,1,,3225.219999999972,response,ISIC_0066366.JPG,29,ISIC_9168700.JPG,ISIC_0066366.JPG,false,1,keypress(m),500,500226,500226,496996.86,496999,497000.78,500231.78,8,400,28,,ISIC_9168700.JPG
break,html.Screen,4_27_1,2023-09-08T19:54:38.859Z,,0,,,NaN,,,,,,false,,,,500228,500227,,500227,,500231.78,8,400,,,
break_continue,html.Screen,4_27_2,2023-09-08T19:54:38.860Z,,0,,,NaN,,,,,,false,,,,500229,500228,,500228,,500231.78,8,400,,,
sequence,flow.Sequence,4_27,2023-09-08T19:54:38.860Z,,0,,,3227.219999999972,completion,,,,,false,,,,500229,500228,496996.86,496999,497000.78,500231.78,8,400,,,
trial,html.Screen,4_28_0,2023-09-08T19:54:41.898Z,,0,1,,3034.219999999972,response,ISIC_0031170.JPG,16,ISIC_5147292.JPG,ISIC_0031170.JPG,false,1,keypress(m),500,503267,503266,500226.68,500230,500231.78,503276.98,8,400,29,,ISIC_5147292.JPG
break,html.Screen,4_28_1,2023-09-08T19:54:41.899Z,,0,,,NaN,,,,,,false,,,,503268,503267,,503267,,503276.98,8,400,,,
break_continue,html.Screen,4_28_2,2023-09-08T19:54:41.900Z,,0,,,NaN,,,,,,false,,,,503268,503268,,503268,,503276.98,8,400,,,
sequence,flow.Sequence,4_28,2023-09-08T19:54:41.900Z,,0,,,3036.219999999972,completion,,,,,false,,,,503268,503268,500226.68,500230,500231.78,503276.98,8,400,,,
trial,html.Screen,4_29_0,2023-09-08T19:54:44.930Z,,0,1,,3021.0200000000186,response,ISIC_4107250.JPG,16,ISIC_0068080.JPG,ISIC_0068080.JPG,false,0,keypress(z),500,506298,506298,503266.56,503269,503276.98,506305.48,8,400,30,,ISIC_4107250.JPG
break,html.Screen,4_29_1,2023-09-08T19:54:44.931Z,,0,,,NaN,,,,,,false,,,,506299,506299,,506298,,506305.48,8,400,,,
break_continue,html.Screen,4_29_2,2023-09-08T19:54:44.932Z,,0,,,NaN,,,,,,false,,,,506300,506300,,506300,,506305.48,8,400,,,
sequence,flow.Sequence,4_29,2023-09-08T19:54:44.933Z,,0,,,3023.0200000000186,completion,,,,,false,,,,506300,506300,503266.56,503268,503276.98,506305.48,8,400,,,
trial,html.Screen,4_30_0,2023-09-08T19:54:47.748Z,,0,1,,2810.5200000000186,response,ISIC_1144024.JPG,14,ISIC_0033662.JPG,ISIC_1144024.JPG,false,1,keypress(m),500,509116,509116,506298.84,506301,506305.48,509133.28,8,400,31,,ISIC_0033662.JPG
break,html.Screen,4_30_1,2023-09-08T19:54:47.750Z,,0,,,NaN,,,,,,false,,,,509118,509117,,509117,,509133.28,8,400,,,
break_continue,html.Screen,4_30_2,2023-09-08T19:54:47.750Z,,0,,,NaN,,,,,,false,,,,509119,509119,,509118,,509133.28,8,400,,,
sequence,flow.Sequence,4_30,2023-09-08T19:54:47.751Z,,0,,,2813.5200000000186,completion,,,,,false,,,,509120,509119,506298.84,506301,506305.48,509133.28,8,400,,,
trial,html.Screen,4_31_0,2023-09-08T19:54:50.668Z,,0,1,,2902.719999999972,response,ISIC_2902328.JPG,16,ISIC_5101111.JPG,ISIC_2902328.JPG,false,1,keypress(m),500,512037,512036,509116.78,509120,509133.28,512044.62,8,400,32,,ISIC_5101111.JPG
break,html.Screen,4_31_1,2023-09-08T19:54:50.670Z,,0,,,NaN,,,,,,false,,,,512039,512038,,512037,,512044.62,8,400,,,
break_continue,html.Screen,4_31_2,2023-09-08T19:54:50.671Z,,0,,,NaN,,,,,,false,,,,512040,512040,,512039,,512044.62,8,400,,,
sequence,flow.Sequence,4_31,2023-09-08T19:54:50.672Z,,0,,,2906.719999999972,completion,,,,,false,,,,512041,512040,509116.78,509120,509133.28,512044.62,8,400,,,
trial,html.Screen,4_32_0,2023-09-08T19:54:53.269Z,,0,1,,2591.3800000000047,response,ISIC_8671662.JPG,12,ISIC_0034233.JPG,ISIC_8671662.JPG,false,1,keypress(m),500,514637,514636,512037.38,512041,512044.62,514638.32,8,400,33,,ISIC_0034233.JPG
break,html.Screen,4_32_1,2023-09-08T19:54:53.270Z,,0,,,NaN,,,,,,false,,,,514638,514638,,514637,,514638.32,8,400,,,
break_continue,html.Screen,4_32_2,2023-09-08T19:54:53.271Z,,0,,,NaN,,,,,,false,,,,514639,514639,,514639,,514638.32,8,400,,,
sequence,flow.Sequence,4_32,2023-09-08T19:54:53.273Z,,0,,,2594.3800000000047,completion,,,,,false,,,,514641,514639,512037.38,512041,512044.62,514638.32,8,400,,,
trial,html.Screen,4_33_0,2023-09-08T19:54:56.429Z,,0,1,,3157.679999999993,response,ISIC_0033415.JPG,12,ISIC_0034236.JPG,ISIC_0033415.JPG,false,1,keypress(m),500,517796,517796,514637.18,514642,514638.32,517800.54,8,400,34,,ISIC_0034236.JPG
break,html.Screen,4_33_1,2023-09-08T19:54:56.431Z,,0,,,NaN,,,,,,false,,,,517799,517798,,517797,,517800.54,8,400,,,
break_continue,html.Screen,4_33_2,2023-09-08T19:54:56.432Z,,0,,,NaN,,,,,,false,,,,517800,517799,,517799,,517800.54,8,400,,,
sequence,flow.Sequence,4_33,2023-09-08T19:54:56.432Z,,0,,,3160.679999999993,completion,,,,,false,,,,517800,517799,514637.18,514641,514638.32,517800.54,8,400,,,
trial,html.Screen,4_34_0,2023-09-08T19:54:59.168Z,,0,1,,2735.460000000021,response,ISIC_3060248.JPG,1,ISIC_0071367.JPG,ISIC_3060248.JPG,false,1,keypress(m),500,520536,520536,517797.38,517801,517800.54,520544.7,8,400,35,,ISIC_0071367.JPG
break,html.Screen,4_34_1,2023-09-08T19:54:59.169Z,,0,,,NaN,,,,,,false,,,,520538,520538,,520536,,520544.7,8,400,,,
break_continue,html.Screen,4_34_2,2023-09-08T19:54:59.170Z,,0,,,NaN,,,,,,false,,,,520539,520539,,520539,,520544.7,8,400,,,
sequence,flow.Sequence,4_34,2023-09-08T19:54:59.170Z,,0,,,2738.460000000021,completion,,,,,false,,,,520540,520539,517797.38,517801,517800.54,520544.7,8,400,,,
trial,html.Screen,4_35_0,2023-09-08T19:55:01.948Z,,0,1,,2772.2999999999884,response,ISIC_0031972.JPG,16,ISIC_0014129.JPG,ISIC_0014129.JPG,false,0,keypress(z),500,523317,523317,520536.66,520540,520544.7,523322.34,8,400,36,,ISIC_0031972.JPG
break,html.Screen,4_35_1,2023-09-08T19:55:01.948Z,,0,,,NaN,,,,,,false,,,,523317,523317,,523317,,523322.34,8,400,,,
break_continue,html.Screen,4_35_2,2023-09-08T19:55:01.949Z,,0,,,NaN,,,,,,false,,,,523318,523317,,523317,,523322.34,8,400,,,
sequence,flow.Sequence,4_35,2023-09-08T19:55:01.949Z,,0,,,2772.2999999999884,completion,,,,,false,,,,523319,523317,520536.66,520540,520544.7,523322.34,8,400,,,
trial,html.Screen,4_36_0,2023-09-08T19:55:04.948Z,,0,1,,2993.6599999999744,response,ISIC_7814144.JPG,16,ISIC_0014974.JPG,ISIC_7814144.JPG,false,1,keypress(m),500,526317,526316,523316.72,523319,523322.34,526319.42,8,400,37,,ISIC_0014974.JPG
break,html.Screen,4_36_1,2023-09-08T19:55:04.949Z,,0,,,NaN,,,,,,false,,,,526318,526318,,526317,,526319.42,8,400,,,
break_continue,html.Screen,4_36_2,2023-09-08T19:55:04.950Z,,0,,,NaN,,,,,,false,,,,526319,526319,,526318,,526319.42,8,400,,,
sequence,flow.Sequence,4_36,2023-09-08T19:55:04.950Z,,0,,,2996.6599999999744,completion,,,,,false,,,,526319,526319,523316.72,523319,523322.34,526319.42,8,400,,,
trial,html.Screen,4_37_0,2023-09-08T19:55:07.928Z,,0,1,,2976.579999999958,response,ISIC_8843901.JPG,14,ISIC_0010486.JPG,ISIC_0010486.JPG,false,0,keypress(z),500,529296,529296,526316.76,526320,526319.42,529297.48,8,400,38,,ISIC_8843901.JPG
break,html.Screen,4_37_1,2023-09-08T19:55:07.929Z,,0,,,NaN,,,,,,false,,,,529298,529298,,529296,,529297.48,8,400,,,
break_continue,html.Screen,4_37_2,2023-09-08T19:55:07.930Z,,0,,,NaN,,,,,,false,,,,529299,529299,,529298,,529297.48,8,400,,,
sequence,flow.Sequence,4_37,2023-09-08T19:55:07.931Z,,0,,,2979.579999999958,completion,,,,,false,,,,529299,529299,526316.76,526319,526319.42,529297.48,8,400,,,
trial,html.Screen,4_38_0,2023-09-08T19:55:10.878Z,,0,1,,2948.5200000000186,response,ISIC_0033560.JPG,5,ISIC_0027402.JPG,ISIC_0027402.JPG,false,0,keypress(z),500,532247,532246,529296.74,529300,529297.48,532259.04,8,400,39,,ISIC_0033560.JPG
break,html.Screen,4_38_1,2023-09-08T19:55:10.881Z,,0,,,NaN,,,,,,false,,,,532248,532248,,532247,,532259.04,8,400,,,
break_continue,html.Screen,4_38_2,2023-09-08T19:55:10.881Z,,0,,,NaN,,,,,,false,,,,532250,532249,,532249,,532259.04,8,400,,,
sequence,flow.Sequence,4_38,2023-09-08T19:55:10.882Z,,0,,,2951.5200000000186,completion,,,,,false,,,,532250,532249,529296.74,529300,529297.48,532259.04,8,400,,,
trial,html.Screen,4_39_0,2023-09-08T19:55:13.958Z,,0,1,,3066.9599999999627,response,ISIC_0054744.JPG,13,ISIC_8040024.JPG,ISIC_8040024.JPG,false,0,keypress(z),500,535327,535326,532247.38,532251,532259.04,535337.58,8,400,40,,ISIC_0054744.JPG
break,html.Screen,4_39_1,2023-09-08T19:55:13.960Z,,0,,,NaN,,,,,,false,,,,535329,535329,,535327,,535337.58,8,400,,,
break_continue,html.Screen,4_39_2,2023-09-08T19:55:13.961Z,,0,,,NaN,,,,,,false,,,,535330,535330,,535330,,535337.58,8,400,,,
sequence,flow.Sequence,4_39,2023-09-08T19:55:13.962Z,,0,,,3070.9599999999627,completion,,,,,false,,,,535331,535330,532247.38,532251,532259.04,535337.58,8,400,,,
trial,html.Screen,4_40_0,2023-09-08T19:55:17.118Z,,0,1,,3148.420000000042,response,ISIC_7090336.JPG,13,ISIC_0062536.JPG,ISIC_7090336.JPG,false,1,keypress(m),500,538487,538486,535327.12,535332,535337.58,538501.12,8,400,41,,ISIC_0062536.JPG
break,html.Screen,4_40_1,2023-09-08T19:55:17.120Z,,0,,,NaN,,,,,,false,,,,538488,538488,,538487,,538501.12,8,400,,,
break_continue,html.Screen,4_40_2,2023-09-08T19:55:17.121Z,,0,,,NaN,,,,,,false,,,,538490,538490,,538488,,538501.12,8,400,,,
sequence,flow.Sequence,4_40,2023-09-08T19:55:17.122Z,,0,,,3152.420000000042,completion,,,,,false,,,,538491,538490,535327.12,535331,535337.58,538501.12,8,400,,,
trial,html.Screen,4_41_0,2023-09-08T19:55:20.389Z,,0,1,,3254.8800000000047,response,ISIC_0060342.JPG,3,ISIC_0065469.JPG,ISIC_0065469.JPG,false,0,keypress(z),500,541756,541756,538487.18,538491,538501.12,541763.64,8,400,42,,ISIC_0060342.JPG
break,html.Screen,4_41_1,2023-09-08T19:55:20.390Z,,0,,,NaN,,,,,,false,,,,541758,541758,,541757,,541763.64,8,400,,,
break_continue,html.Screen,4_41_2,2023-09-08T19:55:20.391Z,,0,,,NaN,,,,,,false,,,,541759,541759,,541759,,541763.64,8,400,,,
sequence,flow.Sequence,4_41,2023-09-08T19:55:20.392Z,,0,,,3257.8800000000047,completion,,,,,false,,,,541760,541759,538487.18,538491,538501.12,541763.64,8,400,,,
trial,html.Screen,4_42_0,2023-09-08T19:55:23.488Z,,0,1,,3092.359999999986,response,ISIC_0031550.JPG,24,ISIC_0067167.JPG,ISIC_0031550.JPG,false,1,keypress(m),500,544856,544856,541757.32,541761,541763.64,544858.92,8,400,43,,ISIC_0067167.JPG
break,html.Screen,4_42_1,2023-09-08T19:55:23.489Z,,0,,,NaN,,,,,,false,,,,544857,544857,,544856,,544858.92,8,400,,,
break_continue,html.Screen,4_42_2,2023-09-08T19:55:23.489Z,,0,,,NaN,,,,,,false,,,,544858,544858,,544858,,544858.92,8,400,,,
sequence,flow.Sequence,4_42,2023-09-08T19:55:23.490Z,,0,,,3094.359999999986,completion,,,,,false,,,,544858,544858,541757.32,541761,541763.64,544858.92,8,400,,,
trial,html.Screen,4_43_0,2023-09-08T19:55:26.208Z,,0,1,,2717.079999999958,response,ISIC_0000141.JPG,16,ISIC_0012435.JPG,ISIC_0012435.JPG,false,0,keypress(z),500,547576,547576,544856.48,544859,544858.92,547586.44,8,400,44,,ISIC_0000141.JPG
break,html.Screen,4_43_1,2023-09-08T19:55:26.210Z,,0,,,NaN,,,,,,false,,,,547579,547578,,547577,,547586.44,8,400,,,
break_continue,html.Screen,4_43_2,2023-09-08T19:55:26.211Z,,0,,,NaN,,,,,,false,,,,547580,547579,,547579,,547586.44,8,400,,,
sequence,flow.Sequence,4_43,2023-09-08T19:55:26.212Z,,0,,,2720.079999999958,completion,,,,,false,,,,547580,547579,544856.48,544859,544858.92,547586.44,8,400,,,
trial,html.Screen,4_44_0,2023-09-08T19:55:29.038Z,,0,1,,2819.560000000056,response,ISIC_0010551.JPG,5,ISIC_3314555.JPG,ISIC_0010551.JPG,false,1,keypress(m),500,550406,550406,547576.78,547581,547586.44,550414.28,8,400,45,,ISIC_3314555.JPG
break,html.Screen,4_44_1,2023-09-08T19:55:29.040Z,,0,,,NaN,,,,,,false,,,,550408,550408,,550407,,550414.28,8,400,,,
break_continue,html.Screen,4_44_2,2023-09-08T19:55:29.041Z,,0,,,NaN,,,,,,false,,,,550409,550409,,550409,,550414.28,8,400,,,
sequence,flow.Sequence,4_44,2023-09-08T19:55:29.042Z,,0,,,2822.560000000056,completion,,,,,false,,,,550410,550409,547576.78,547581,547586.44,550414.28,8,400,,,
trial,html.Screen,4_45_0,2023-09-08T19:55:32.038Z,,0,1,,2990.719999999972,response,ISIC_0060975.JPG,14,ISIC_5611515.JPG,ISIC_5611515.JPG,false,0,keypress(z),500,553406,553405,550407.12,550411,550414.28,553409.3,8,400,46,,ISIC_0060975.JPG
break,html.Screen,4_45_1,2023-09-08T19:55:32.039Z,,0,,,NaN,,,,,,false,,,,553408,553407,,553406,,553409.3,8,400,,,
break_continue,html.Screen,4_45_2,2023-09-08T19:55:32.041Z,,0,,,NaN,,,,,,false,,,,553409,553409,,553408,,553409.3,8,400,,,
sequence,flow.Sequence,4_45,2023-09-08T19:55:32.041Z,,0,,,2994.719999999972,completion,,,,,false,,,,553410,553409,550407.12,550410,550414.28,553409.3,8,400,,,
trial,html.Screen,4_46_0,2023-09-08T19:55:34.877Z,,0,1,,2835.6999999999534,response,ISIC_3902917.JPG,12,ISIC_5098778.JPG,ISIC_3902917.JPG,false,1,keypress(m),500,556246,556245,553406.7,553410,553409.3,556253.82,8,400,47,,ISIC_5098778.JPG
break,html.Screen,4_46_1,2023-09-08T19:55:34.880Z,,0,,,NaN,,,,,,false,,,,556248,556247,,556246,,556253.82,8,400,,,
break_continue,html.Screen,4_46_2,2023-09-08T19:55:34.881Z,,0,,,NaN,,,,,,false,,,,556249,556248,,556248,,556253.82,8,400,,,
sequence,flow.Sequence,4_46,2023-09-08T19:55:34.881Z,,0,,,2838.6999999999534,completion,,,,,false,,,,556249,556248,553406.7,553410,553409.3,556253.82,8,400,,,
trial,html.Screen,4_47_0,2023-09-08T19:55:37.547Z,,0,1,,2662.180000000051,response,ISIC_0010808.JPG,3,ISIC_0031233.JPG,ISIC_0010808.JPG,false,1,keypress(m),500,558916,558916,556246.56,556250,556253.82,558931.5,8,400,48,,ISIC_0031233.JPG
break,html.Screen,4_47_1,2023-09-08T19:55:37.550Z,,0,,,NaN,,,,,,false,,,,558917,558917,,558917,,558931.5,8,400,,,
break_continue,html.Screen,4_47_2,2023-09-08T19:55:37.551Z,,0,,,NaN,,,,,,false,,,,558918,558918,,558918,,558931.5,8,400,,,
sequence,flow.Sequence,4_47,2023-09-08T19:55:37.551Z,,0,,,2664.180000000051,completion,,,,,false,,,,558919,558918,556246.56,556250,556253.82,558931.5,8,400,,,
trial,html.Screen,4_48_0,2023-09-08T19:55:40.607Z,,0,1,,3044.5,response,ISIC_0060659.JPG,15,ISIC_0011780.JPG,ISIC_0060659.JPG,false,1,keypress(m),500,561976,561976,558916.36,558919,558931.5,561976.7,8,400,49,,ISIC_0011780.JPG
break,html.Screen,4_48_1,2023-09-08T19:55:40.609Z,,0,,,NaN,,,,,,false,,,,561978,561978,,561977,,561976.7,8,400,,,
break_continue,html.Screen,4_48_2,2023-09-08T19:55:40.611Z,,0,,,NaN,,,,,,false,,,,561980,561980,,561979,,561976.7,8,400,,,
sequence,flow.Sequence,4_48,2023-09-08T19:55:40.612Z,,0,,,3048.5,completion,,,,,false,,,,561980,561980,558916.36,558919,558931.5,561976.7,8,400,,,
trial,html.Screen,4_49_0,2023-09-08T19:55:43.417Z,,0,1,,2808.3000000000466,response,ISIC_4417495.JPG,12,ISIC_5320483.JPG,ISIC_5320483.JPG,false,0,keypress(z),500,564786,564785,561976.54,561981,561976.7,564787.8,8,400,50,,ISIC_4417495.JPG
break,html.Screen,4_49_1,2023-09-08T19:55:53.414Z,,0,,,10007.05999999994,timeout,,,,,false,,,,574782,574778.14,564786.32,564786,564787.8,574794.86,8,400,,,
break_continue,html.Screen,4_49_2,2023-09-08T19:56:30.401Z,,0,,,36947.140000000014,response,,,,,false,continue,keypress(Space),,611770,611742,574778.14,574783,574794.86,611775.26,8,400,,,
sequence,flow.Sequence,4_49,2023-09-08T19:56:30.402Z,,0,,,49765.30000000005,completion,,,,,false,,,,611771,611742,561976.54,561981,561976.7,611775.26,8,400,,,
trial,html.Screen,4_50_0,2023-09-08T19:56:33.128Z,,0,2,,2719.7399999999907,response,ISIC_0033037.JPG,12,ISIC_0523125.JPG,ISIC_0523125.JPG,false,0,keypress(z),500,614496,614495,611771.28,611772,611775.26,614502.68,8,400,1,,ISIC_0033037.JPG
break,html.Screen,4_50_1,2023-09-08T19:56:33.130Z,,0,,,NaN,,,,,,false,,,,614498,614498,,614497,,614502.68,8,400,,,
break_continue,html.Screen,4_50_2,2023-09-08T19:56:33.131Z,,0,,,NaN,,,,,,false,,,,614499,614499,,614499,,614502.68,8,400,,,
sequence,flow.Sequence,4_50,2023-09-08T19:56:33.131Z,,0,,,2723.7399999999907,completion,,,,,false,,,,614499,614499,611771.28,611771,611775.26,614502.68,8,400,,,
trial,html.Screen,4_51_0,2023-09-08T19:56:36.127Z,,0,2,,2991.319999999949,response,ISIC_2519121.JPG,23,ISIC_8618835.JPG,ISIC_8618835.JPG,false,0,keypress(z),500,617495,617494,614496.28,614501,614502.68,617497.66,8,400,2,,ISIC_2519121.JPG
break,html.Screen,4_51_1,2023-09-08T19:56:36.128Z,,0,,,NaN,,,,,,false,,,,617496,617495,,617495,,617497.66,8,400,,,
break_continue,html.Screen,4_51_2,2023-09-08T19:56:36.129Z,,0,,,NaN,,,,,,false,,,,617497,617496,,617496,,617497.66,8,400,,,
sequence,flow.Sequence,4_51,2023-09-08T19:56:36.129Z,,0,,,2993.319999999949,completion,,,,,false,,,,617498,617496,614496.28,614499,614502.68,617497.66,8,400,,,
trial,html.Screen,4_52_0,2023-09-08T19:56:38.907Z,,0,2,,2778.3399999999674,response,ISIC_6927363.JPG,17,ISIC_0830806.JPG,ISIC_0830806.JPG,false,0,keypress(z),500,620276,620276,617495.24,617498,617497.66,620293.94,8,400,3,,ISIC_6927363.JPG
break,html.Screen,4_52_1,2023-09-08T19:56:38.911Z,,0,,,NaN,,,,,,false,,,,620279,620278,,620276,,620293.94,8,400,,,
break_continue,html.Screen,4_52_2,2023-09-08T19:56:38.913Z,,0,,,NaN,,,,,,false,,,,620281,620280,,620279,,620293.94,8,400,,,
sequence,flow.Sequence,4_52,2023-09-08T19:56:38.914Z,,0,,,2782.3399999999674,completion,,,,,false,,,,620282,620280,617495.24,617498,617497.66,620293.94,8,400,,,
trial,html.Screen,4_53_0,2023-09-08T19:56:41.708Z,,0,2,,2781.060000000056,response,ISIC_5564757.JPG,9,ISIC_5413788.JPG,ISIC_5413788.JPG,false,0,keypress(z),500,623076,623075,620276.36,620283,620293.94,623088.3,8,400,4,,ISIC_5564757.JPG
break,html.Screen,4_53_1,2023-09-08T19:56:41.710Z,,0,,,NaN,,,,,,false,,,,623079,623078,,623076,,623088.3,8,400,,,
break_continue,html.Screen,4_53_2,2023-09-08T19:56:41.712Z,,0,,,NaN,,,,,,false,,,,623080,623080,,623079,,623088.3,8,400,,,
sequence,flow.Sequence,4_53,2023-09-08T19:56:41.713Z,,0,,,2786.060000000056,completion,,,,,false,,,,623081,623080,620276.36,620283,620293.94,623088.3,8,400,,,
trial,html.Screen,4_54_0,2023-09-08T19:56:44.407Z,,0,2,,2686.6999999999534,response,ISIC_1863917.JPG,11,ISIC_0008447.JPG,ISIC_0008447.JPG,false,0,keypress(z),500,625775,625775,623076.38,623082,623088.3,625782.3,8,400,5,,ISIC_1863917.JPG
break,html.Screen,4_54_1,2023-09-08T19:56:44.408Z,,0,,,NaN,,,,,,false,,,,625776,625776,,625775,,625782.3,8,400,,,
break_continue,html.Screen,4_54_2,2023-09-08T19:56:44.408Z,,0,,,NaN,,,,,,false,,,,625776,625776,,625776,,625782.3,8,400,,,
sequence,flow.Sequence,4_54,2023-09-08T19:56:44.409Z,,0,,,2687.6999999999534,completion,,,,,false,,,,625777,625776,623076.38,623082,623088.3,625782.3,8,400,,,
trial,html.Screen,4_55_0,2023-09-08T19:56:47.497Z,,0,2,,3082.6999999999534,response,ISIC_0027033.JPG,8,ISIC_0473135.JPG,ISIC_0027033.JPG,false,1,keypress(m),500,628865,628865,625775.6,625777,625782.3,628877.64,8,400,6,,ISIC_0473135.JPG
break,html.Screen,4_55_1,2023-09-08T19:56:47.498Z,,0,,,NaN,,,,,,false,,,,628866,628866,,628866,,628877.64,8,400,,,
break_continue,html.Screen,4_55_2,2023-09-08T19:56:47.498Z,,0,,,NaN,,,,,,false,,,,628867,628867,,628867,,628877.64,8,400,,,
sequence,flow.Sequence,4_55,2023-09-08T19:56:47.499Z,,0,,,3084.6999999999534,completion,,,,,false,,,,628867,628867,625775.6,625777,625782.3,628877.64,8,400,,,
trial,html.Screen,4_56_0,2023-09-08T19:56:50.577Z,,0,2,,3067.359999999986,response,ISIC_0046405.JPG,7,ISIC_0033662.JPG,ISIC_0033662.JPG,false,0,keypress(z),500,631945,631945,628865.42,628867,628877.64,631956.28,8,400,7,,ISIC_0046405.JPG
break,html.Screen,4_56_1,2023-09-08T19:56:50.578Z,,0,,,NaN,,,,,,false,,,,631946,631946,,631945,,631956.28,8,400,,,
break_continue,html.Screen,4_56_2,2023-09-08T19:56:50.579Z,,0,,,NaN,,,,,,false,,,,631947,631947,,631947,,631956.28,8,400,,,
sequence,flow.Sequence,4_56,2023-09-08T19:56:50.579Z,,0,,,3069.359999999986,completion,,,,,false,,,,631947,631947,628865.42,628867,628877.64,631956.28,8,400,,,
trial,html.Screen,4_57_0,2023-09-08T19:56:53.697Z,,0,2,,3108.719999999972,response,ISIC_0028361.JPG,17,ISIC_3312201.JPG,ISIC_3312201.JPG,false,0,keypress(z),500,635066,635065,631945.58,631948,631956.28,635068.28,8,400,8,,ISIC_0028361.JPG
break,html.Screen,4_57_1,2023-09-08T19:56:53.699Z,,0,,,NaN,,,,,,false,,,,635068,635067,,635066,,635068.28,8,400,,,
break_continue,html.Screen,4_57_2,2023-09-08T19:56:53.700Z,,0,,,NaN,,,,,,false,,,,635069,635069,,635068,,635068.28,8,400,,,
sequence,flow.Sequence,4_57,2023-09-08T19:56:53.701Z,,0,,,3112.719999999972,completion,,,,,false,,,,635069,635069,631945.58,631947,631956.28,635068.28,8,400,,,
trial,html.Screen,4_58_0,2023-09-08T19:56:56.627Z,,0,2,,2926.719999999972,response,ISIC_8175453.JPG,12,ISIC_0029995.JPG,ISIC_0029995.JPG,false,0,keypress(z),500,637995,637995,635066,635070,635068.28,637996.44,8,400,9,,ISIC_8175453.JPG
break,html.Screen,4_58_1,2023-09-08T19:56:56.628Z,,0,,,NaN,,,,,,false,,,,637996,637996,,637995,,637996.44,8,400,,,
break_continue,html.Screen,4_58_2,2023-09-08T19:56:56.629Z,,0,,,NaN,,,,,,false,,,,637997,637997,,637997,,637996.44,8,400,,,
sequence,flow.Sequence,4_58,2023-09-08T19:56:56.630Z,,0,,,2928.719999999972,completion,,,,,false,,,,637999,637997,635066,635069,635068.28,637996.44,8,400,,,
trial,html.Screen,4_59_0,2023-09-08T19:56:59.548Z,,0,2,,2919.560000000056,response,ISIC_0292775.JPG,15,ISIC_2500254.JPG,ISIC_0292775.JPG,false,1,keypress(m),500,640917,640916,637995.84,637999,637996.44,640924.48,8,400,10,,ISIC_2500254.JPG
break,html.Screen,4_59_1,2023-09-08T19:56:59.550Z,,0,,,NaN,,,,,,false,,,,640918,640917,,640917,,640924.48,8,400,,,
break_continue,html.Screen,4_59_2,2023-09-08T19:56:59.551Z,,0,,,NaN,,,,,,false,,,,640919,640919,,640918,,640924.48,8,400,,,
sequence,flow.Sequence,4_59,2023-09-08T19:56:59.552Z,,0,,,2922.560000000056,completion,,,,,false,,,,640920,640919,637995.84,637999,637996.44,640924.48,8,400,,,
trial,html.Screen,4_60_0,2023-09-08T19:57:02.507Z,,0,2,,2949.5200000000186,response,ISIC_0032722.JPG,12,ISIC_0024826.JPG,ISIC_0024826.JPG,false,0,keypress(z),500,643875,643874,640916.74,640921,640924.48,643886.06,8,400,11,,ISIC_0032722.JPG
break,html.Screen,4_60_1,2023-09-08T19:57:02.508Z,,0,,,NaN,,,,,,false,,,,643876,643876,,643875,,643886.06,8,400,,,
break_continue,html.Screen,4_60_2,2023-09-08T19:57:02.509Z,,0,,,NaN,,,,,,false,,,,643877,643877,,643877,,643886.06,8,400,,,
sequence,flow.Sequence,4_60,2023-09-08T19:57:02.509Z,,0,,,2952.5200000000186,completion,,,,,false,,,,643878,643877,640916.74,640921,640924.48,643886.06,8,400,,,
trial,html.Screen,4_61_0,2023-09-08T19:57:05.564Z,,0,2,,3044.939999999944,response,ISIC_0064941.JPG,16,ISIC_7016261.JPG,ISIC_7016261.JPG,false,0,keypress(z),500,646932,646931,643875.48,643878,643886.06,646933.24,8,400,12,,ISIC_0064941.JPG
break,html.Screen,4_61_1,2023-09-08T19:57:05.566Z,,0,,,NaN,,,,,,false,,,,646935,646934,,646933,,646933.24,8,400,,,
break_continue,html.Screen,4_61_2,2023-09-08T19:57:05.568Z,,0,,,NaN,,,,,,false,,,,646937,646936,,646935,,646933.24,8,400,,,
sequence,flow.Sequence,4_61,2023-09-08T19:57:05.569Z,,0,,,3049.939999999944,completion,,,,,false,,,,646938,646936,643875.48,643878,643886.06,646933.24,8,400,,,
trial,html.Screen,4_62_0,2023-09-08T19:57:08.637Z,,0,2,,3071.7600000000093,response,ISIC_4906385.JPG,4,ISIC_0061941.JPG,ISIC_0061941.JPG,false,0,keypress(z),500,650006,650005,646932.54,646939,646933.24,650011.8,8,400,13,,ISIC_4906385.JPG
break,html.Screen,4_62_1,2023-09-08T19:57:08.639Z,,0,,,NaN,,,,,,false,,,,650008,650007,,650006,,650011.8,8,400,,,
break_continue,html.Screen,4_62_2,2023-09-08T19:57:08.640Z,,0,,,NaN,,,,,,false,,,,650009,650008,,650008,,650011.8,8,400,,,
sequence,flow.Sequence,4_62,2023-09-08T19:57:08.641Z,,0,,,3074.7600000000093,completion,,,,,false,,,,650009,650008,646932.54,646939,646933.24,650011.8,8,400,,,
trial,html.Screen,4_63_0,2023-09-08T19:57:11.397Z,,0,2,,2753.1999999999534,response,ISIC_0030860.JPG,14,ISIC_0032861.JPG,ISIC_0030860.JPG,false,1,keypress(m),500,652766,652765,650005.86,650010,650011.8,652772.72,8,400,14,,ISIC_0032861.JPG
break,html.Screen,4_63_1,2023-09-08T19:57:11.399Z,,0,,,NaN,,,,,,false,,,,652768,652767,,652766,,652772.72,8,400,,,
break_continue,html.Screen,4_63_2,2023-09-08T19:57:11.401Z,,0,,,NaN,,,,,,false,,,,652769,652769,,652768,,652772.72,8,400,,,
sequence,flow.Sequence,4_63,2023-09-08T19:57:11.401Z,,0,,,2757.1999999999534,completion,,,,,false,,,,652769,652769,650005.86,650010,650011.8,652772.72,8,400,,,
trial,html.Screen,4_64_0,2023-09-08T19:57:13.957Z,,0,2,,2552.280000000028,response,ISIC_1925623.JPG,13,ISIC_0046647.JPG,ISIC_1925623.JPG,false,1,keypress(m),500,655325,655325,652766.26,652770,652772.72,655333.04,8,400,15,,ISIC_0046647.JPG
break,html.Screen,4_64_1,2023-09-08T19:57:13.958Z,,0,,,NaN,,,,,,false,,,,655326,655326,,655325,,655333.04,8,400,,,
break_continue,html.Screen,4_64_2,2023-09-08T19:57:13.958Z,,0,,,NaN,,,,,,false,,,,655326,655326,,655326,,655333.04,8,400,,,
sequence,flow.Sequence,4_64,2023-09-08T19:57:13.958Z,,0,,,2553.280000000028,completion,,,,,false,,,,655327,655326,652766.26,652770,652772.72,655333.04,8,400,,,
trial,html.Screen,4_65_0,2023-09-08T19:57:17.326Z,,0,2,,3360.9599999999627,response,ISIC_0013733.JPG,7,ISIC_8211214.JPG,ISIC_0013733.JPG,false,1,keypress(m),500,658695,658694,655325.32,655327,655333.04,658695.94,8,400,16,,ISIC_8211214.JPG
break,html.Screen,4_65_1,2023-09-08T19:57:17.327Z,,0,,,NaN,,,,,,false,,,,658696,658696,,658695,,658695.94,8,400,,,
break_continue,html.Screen,4_65_2,2023-09-08T19:57:17.327Z,,0,,,NaN,,,,,,false,,,,658696,658696,,658696,,658695.94,8,400,,,
sequence,flow.Sequence,4_65,2023-09-08T19:57:17.328Z,,0,,,3362.9599999999627,completion,,,,,false,,,,658697,658696,655325.32,655327,655333.04,658695.94,8,400,,,
trial,html.Screen,4_66_0,2023-09-08T19:57:20.247Z,,0,2,,2919.060000000056,response,ISIC_2355374.JPG,18,ISIC_8140072.JPG,ISIC_2355374.JPG,false,1,keypress(m),500,661615,661615,658695.08,658697,658695.94,661624.1,8,400,17,,ISIC_8140072.JPG
break,html.Screen,4_66_1,2023-09-08T19:57:20.248Z,,0,,,NaN,,,,,,false,,,,661616,661616,,661615,,661624.1,8,400,,,
break_continue,html.Screen,4_66_2,2023-09-08T19:57:20.248Z,,0,,,NaN,,,,,,false,,,,661617,661617,,661617,,661624.1,8,400,,,
sequence,flow.Sequence,4_66,2023-09-08T19:57:20.249Z,,0,,,2921.060000000056,completion,,,,,false,,,,661618,661617,658695.08,658697,658695.94,661624.1,8,400,,,
trial,html.Screen,4_67_0,2023-09-08T19:57:23.078Z,,0,2,,2820.9000000000233,response,ISIC_9936773.JPG,16,ISIC_6442221.JPG,ISIC_6442221.JPG,false,0,keypress(z),500,664446,664445,661615.58,661618,661624.1,664451.9,8,400,18,,ISIC_9936773.JPG
break,html.Screen,4_67_1,2023-09-08T19:57:23.080Z,,0,,,NaN,,,,,,false,,,,664448,664448,,664447,,664451.9,8,400,,,
break_continue,html.Screen,4_67_2,2023-09-08T19:57:23.081Z,,0,,,NaN,,,,,,false,,,,664450,664449,,664449,,664451.9,8,400,,,
sequence,flow.Sequence,4_67,2023-09-08T19:57:23.082Z,,0,,,2824.9000000000233,completion,,,,,false,,,,664450,664449,661615.58,661618,661624.1,664451.9,8,400,,,
trial,html.Screen,4_68_0,2023-09-08T19:57:26.117Z,,0,2,,3033.0999999999767,response,ISIC_0028394.JPG,12,ISIC_0024315.JPG,ISIC_0024315.JPG,false,0,keypress(z),500,667486,667485,664447.16,664451,664451.9,667497.04,8,400,19,,ISIC_0028394.JPG
break,html.Screen,4_68_1,2023-09-08T19:57:26.120Z,,0,,,NaN,,,,,,false,,,,667488,667488,,667487,,667497.04,8,400,,,
break_continue,html.Screen,4_68_2,2023-09-08T19:57:26.121Z,,0,,,NaN,,,,,,false,,,,667489,667489,,667489,,667497.04,8,400,,,
sequence,flow.Sequence,4_68,2023-09-08T19:57:26.121Z,,0,,,3037.0999999999767,completion,,,,,false,,,,667490,667489,664447.16,664451,664451.9,667497.04,8,400,,,
trial,html.Screen,4_69_0,2023-09-08T19:57:29.277Z,,0,2,,3147.9599999999627,response,ISIC_0026910.JPG,11,ISIC_0056271.JPG,ISIC_0056271.JPG,false,0,keypress(z),500,670646,670645,667486.32,667490,667497.04,670661.3,8,400,20,,ISIC_0026910.JPG
break,html.Screen,4_69_1,2023-09-08T19:57:29.279Z,,0,,,NaN,,,,,,false,,,,670648,670647,,670646,,670661.3,8,400,,,
break_continue,html.Screen,4_69_2,2023-09-08T19:57:29.281Z,,0,,,NaN,,,,,,false,,,,670649,670648,,670648,,670661.3,8,400,,,
sequence,flow.Sequence,4_69,2023-09-08T19:57:29.282Z,,0,,,3150.9599999999627,completion,,,,,false,,,,670649,670648,667486.32,667490,667497.04,670661.3,8,400,,,
trial,html.Screen,4_70_0,2023-09-08T19:57:32.366Z,,0,2,,3072.6999999999534,response,ISIC_2916754.JPG,3,ISIC_8397077.JPG,ISIC_8397077.JPG,false,0,keypress(z),500,673735,673734,670646.08,670650,670661.3,673739.9,8,400,21,,ISIC_2916754.JPG
break,html.Screen,4_70_1,2023-09-08T19:57:32.367Z,,0,,,NaN,,,,,,false,,,,673736,673736,,673735,,673739.9,8,400,,,
break_continue,html.Screen,4_70_2,2023-09-08T19:57:32.368Z,,0,,,NaN,,,,,,false,,,,673737,673737,,673736,,673739.9,8,400,,,
sequence,flow.Sequence,4_70,2023-09-08T19:57:32.369Z,,0,,,3075.6999999999534,completion,,,,,false,,,,673737,673737,670646.08,670650,670661.3,673739.9,8,400,,,
trial,html.Screen,4_71_0,2023-09-08T19:57:35.147Z,,0,2,,2774.0999999999767,response,ISIC_4274519.JPG,16,ISIC_0033166.JPG,ISIC_0033166.JPG,false,0,keypress(z),500,676515,676514,673735.18,673738,673739.9,676517.52,8,400,22,,ISIC_4274519.JPG
break,html.Screen,4_71_1,2023-09-08T19:57:35.149Z,,0,,,NaN,,,,,,false,,,,676516,676516,,676515,,676517.52,8,400,,,
break_continue,html.Screen,4_71_2,2023-09-08T19:57:35.149Z,,0,,,NaN,,,,,,false,,,,676518,676517,,676517,,676517.52,8,400,,,
sequence,flow.Sequence,4_71,2023-09-08T19:57:35.151Z,,0,,,2777.0999999999767,completion,,,,,false,,,,676519,676517,673735.18,673737,673739.9,676517.52,8,400,,,
trial,html.Screen,4_72_0,2023-09-08T19:57:38.048Z,,0,2,,2898.4799999999814,response,ISIC_5988539.JPG,11,ISIC_0059983.JPG,ISIC_5988539.JPG,false,1,keypress(m),500,679416,679416,676515.54,676520,676517.52,679428.92,8,400,23,,ISIC_0059983.JPG
break,html.Screen,4_72_1,2023-09-08T19:57:38.050Z,,0,,,NaN,,,,,,false,,,,679418,679418,,679417,,679428.92,8,400,,,
break_continue,html.Screen,4_72_2,2023-09-08T19:57:38.050Z,,0,,,NaN,,,,,,false,,,,679419,679419,,679419,,679428.92,8,400,,,
sequence,flow.Sequence,4_72,2023-09-08T19:57:38.051Z,,0,,,2901.4799999999814,completion,,,,,false,,,,679420,679419,676515.54,676520,676517.52,679428.92,8,400,,,
trial,html.Screen,4_73_0,2023-09-08T19:57:40.862Z,,0,2,,2801.079999999958,response,ISIC_0679553.JPG,13,ISIC_0060486.JPG,ISIC_0060486.JPG,false,0,keypress(z),500,682231,682230,679416.48,679420,679428.92,682239.86,8,400,24,,ISIC_0679553.JPG
break,html.Screen,4_73_1,2023-09-08T19:57:40.864Z,,0,,,NaN,,,,,,false,,,,682232,682231,,682231,,682239.86,8,400,,,
break_continue,html.Screen,4_73_2,2023-09-08T19:57:40.864Z,,0,,,NaN,,,,,,false,,,,682232,682232,,682232,,682239.86,8,400,,,
sequence,flow.Sequence,4_73,2023-09-08T19:57:40.864Z,,0,,,2803.079999999958,completion,,,,,false,,,,682233,682232,679416.48,679420,679428.92,682239.86,8,400,,,
trial,html.Screen,4_74_0,2023-09-08T19:57:43.651Z,,0,2,,2780.140000000014,response,ISIC_0057218.JPG,11,ISIC_0014308.JPG,ISIC_0057218.JPG,false,1,keypress(m),500,685020,685020,682231.04,682233,682239.86,685034.64,8,400,25,,ISIC_0014308.JPG
break,html.Screen,4_74_1,2023-09-08T19:57:43.652Z,,0,,,NaN,,,,,,false,,,,685021,685021,,685020,,685034.64,8,400,,,
break_continue,html.Screen,4_74_2,2023-09-08T19:57:43.654Z,,0,,,NaN,,,,,,false,,,,685022,685021,,685021,,685034.64,8,400,,,
sequence,flow.Sequence,4_74,2023-09-08T19:57:43.654Z,,0,,,2781.140000000014,completion,,,,,false,,,,685022,685021,682231.04,682233,682239.86,685034.64,8,400,,,
trial,html.Screen,4_75_0,2023-09-08T19:57:46.516Z,,0,2,,2850.359999999986,response,ISIC_0010705.JPG,1,ISIC_0011496.JPG,ISIC_0010705.JPG,false,1,keypress(m),500,687885,687885,685020.36,685022,685034.64,687895.84,8,400,26,,ISIC_0011496.JPG
break,html.Screen,4_75_1,2023-09-08T19:57:46.518Z,,0,,,NaN,,,,,,false,,,,687886,687885,,687885,,687895.84,8,400,,,
break_continue,html.Screen,4_75_2,2023-09-08T19:57:46.519Z,,0,,,NaN,,,,,,false,,,,687886,687886,,687886,,687895.84,8,400,,,
sequence,flow.Sequence,4_75,2023-09-08T19:57:46.519Z,,0,,,2851.359999999986,completion,,,,,false,,,,687887,687886,685020.36,685022,685034.64,687895.84,8,400,,,
trial,html.Screen,4_76_0,2023-09-08T19:57:49.156Z,,0,2,,2629.1600000000326,response,ISIC_7430054.JPG,16,ISIC_6446779.JPG,ISIC_6446779.JPG,false,0,keypress(z),500,690526,690525,687885.22,687887,687895.84,690539.66,8,400,27,,ISIC_7430054.JPG
break,html.Screen,4_76_1,2023-09-08T19:57:49.160Z,,0,,,NaN,,,,,,false,,,,690529,690528,,690527,,690539.66,8,400,,,
break_continue,html.Screen,4_76_2,2023-09-08T19:57:49.161Z,,0,,,NaN,,,,,,false,,,,690529,690529,,690529,,690539.66,8,400,,,
sequence,flow.Sequence,4_76,2023-09-08T19:57:49.162Z,,0,,,2633.1600000000326,completion,,,,,false,,,,690530,690529,687885.22,687887,687895.84,690539.66,8,400,,,
trial,html.Screen,4_77_0,2023-09-08T19:57:52.327Z,,0,2,,3155.3399999999674,response,ISIC_0028361.JPG,12,ISIC_0031021.JPG,ISIC_0028361.JPG,false,1,keypress(m),500,693695,693695,690526.54,690530,690539.66,693701.82,8,400,28,,ISIC_0031021.JPG
break,html.Screen,4_77_1,2023-09-08T19:57:52.329Z,,0,,,NaN,,,,,,false,,,,693698,693697,,693696,,693701.82,8,400,,,
break_continue,html.Screen,4_77_2,2023-09-08T19:57:52.331Z,,0,,,NaN,,,,,,false,,,,693699,693699,,693698,,693701.82,8,400,,,
sequence,flow.Sequence,4_77,2023-09-08T19:57:52.331Z,,0,,,3159.3399999999674,completion,,,,,false,,,,693700,693699,690526.54,690530,690539.66,693701.82,8,400,,,
trial,html.Screen,4_78_0,2023-09-08T19:57:55.814Z,,0,2,,3480.180000000051,response,ISIC_2092911.JPG,12,ISIC_2772217.JPG,ISIC_2772217.JPG,false,0,keypress(z),500,697183,697182,693695.7,693700,693701.82,697183.72,8,400,29,,ISIC_2092911.JPG
break,html.Screen,4_78_1,2023-09-08T19:57:55.816Z,,0,,,NaN,,,,,,false,,,,697185,697184,,697183,,697183.72,8,400,,,
break_continue,html.Screen,4_78_2,2023-09-08T19:57:55.818Z,,0,,,NaN,,,,,,false,,,,697187,697186,,697185,,697183.72,8,400,,,
sequence,flow.Sequence,4_78,2023-09-08T19:57:55.819Z,,0,,,3484.180000000051,completion,,,,,false,,,,697188,697186,693695.7,693700,693701.82,697183.72,8,400,,,
trial,html.Screen,4_79_0,2023-09-08T19:57:58.926Z,,0,2,,3110.280000000028,response,ISIC_8253326.JPG,4,ISIC_0005377.JPG,ISIC_8253326.JPG,false,1,keypress(m),500,700295,700294,697183.02,697188,697183.72,700311.32,8,400,30,,ISIC_0005377.JPG
break,html.Screen,4_79_1,2023-09-08T19:57:58.929Z,,0,,,NaN,,,,,,false,,,,700297,700297,,700295,,700311.32,8,400,,,
break_continue,html.Screen,4_79_2,2023-09-08T19:57:58.930Z,,0,,,NaN,,,,,,false,,,,700299,700298,,700298,,700311.32,8,400,,,
sequence,flow.Sequence,4_79,2023-09-08T19:57:58.931Z,,0,,,3114.280000000028,completion,,,,,false,,,,700299,700298,697183.02,697188,697183.72,700311.32,8,400,,,
trial,html.Screen,4_80_0,2023-09-08T19:58:02.147Z,,0,2,,3203.680000000051,response,ISIC_0072173.JPG,13,ISIC_0011686.JPG,ISIC_0072173.JPG,false,1,keypress(m),500,703515,703515,700295.5,700300,700311.32,703525.68,8,400,31,,ISIC_0011686.JPG
break,html.Screen,4_80_1,2023-09-08T19:58:02.149Z,,0,,,NaN,,,,,,false,,,,703517,703517,,703516,,703525.68,8,400,,,
break_continue,html.Screen,4_80_2,2023-09-08T19:58:02.149Z,,0,,,NaN,,,,,,false,,,,703518,703518,,703518,,703525.68,8,400,,,
sequence,flow.Sequence,4_80,2023-09-08T19:58:02.150Z,,0,,,3206.680000000051,completion,,,,,false,,,,703519,703518,700295.5,700300,700311.32,703525.68,8,400,,,
trial,html.Screen,4_81_0,2023-09-08T19:58:05.816Z,,0,2,,3658.319999999949,response,ISIC_0010067.JPG,11,ISIC_3072311.JPG,ISIC_3072311.JPG,false,0,keypress(z),500,707185,707184,703515.68,703520,703525.68,707206.14,8,400,32,,ISIC_0010067.JPG
break,html.Screen,4_81_1,2023-09-08T19:58:05.817Z,,0,,,NaN,,,,,,false,,,,707185,707185,,707185,,707206.14,8,400,,,
break_continue,html.Screen,4_81_2,2023-09-08T19:58:05.817Z,,0,,,NaN,,,,,,false,,,,707185,707185,,707185,,707206.14,8,400,,,
sequence,flow.Sequence,4_81,2023-09-08T19:58:05.817Z,,0,,,3659.319999999949,completion,,,,,false,,,,707186,707185,703515.68,703520,703525.68,707206.14,8,400,,,
trial,html.Screen,4_82_0,2023-09-08T19:58:08.657Z,,0,2,,2818.859999999986,response,ISIC_0000239.JPG,19,ISIC_0000375.JPG,ISIC_0000239.JPG,false,1,keypress(m),500,710025,710025,707189.42,707186,707206.14,710033.92,8,400,33,,ISIC_0000375.JPG
break,html.Screen,4_82_1,2023-09-08T19:58:08.660Z,,0,,,NaN,,,,,,false,,,,710028,710027,,710026,,710033.92,8,400,,,
break_continue,html.Screen,4_82_2,2023-09-08T19:58:08.662Z,,0,,,NaN,,,,,,false,,,,710030,710029,,710029,,710033.92,8,400,,,
sequence,flow.Sequence,4_82,2023-09-08T19:58:08.664Z,,0,,,2822.859999999986,completion,,,,,false,,,,710032,710029,707189.42,707186,707206.14,710033.92,8,400,,,
trial,html.Screen,4_83_0,2023-09-08T19:58:11.817Z,,0,2,,3150.079999999958,response,ISIC_0011686.JPG,8,ISIC_0027305.JPG,ISIC_0027305.JPG,false,0,keypress(z),500,713185,713184,710025.9,710033,710033.92,713196.12,8,400,34,,ISIC_0011686.JPG
break,html.Screen,4_83_1,2023-09-08T19:58:11.818Z,,0,,,NaN,,,,,,false,,,,713187,713187,,713185,,713196.12,8,400,,,
break_continue,html.Screen,4_83_2,2023-09-08T19:58:11.820Z,,0,,,NaN,,,,,,false,,,,713188,713188,,713187,,713196.12,8,400,,,
sequence,flow.Sequence,4_83,2023-09-08T19:58:11.820Z,,0,,,3154.079999999958,completion,,,,,false,,,,713189,713188,710025.9,710033,710033.92,713196.12,8,400,,,
trial,html.Screen,4_84_0,2023-09-08T19:58:14.757Z,,0,2,,2928.8800000000047,response,ISIC_3932879.JPG,14,ISIC_0946787.JPG,ISIC_3932879.JPG,false,1,keypress(m),500,716126,716125,713185.78,713190,713196.12,716140.96,8,400,35,,ISIC_0946787.JPG
break,html.Screen,4_84_1,2023-09-08T19:58:14.759Z,,0,,,NaN,,,,,,false,,,,716127,716127,,716126,,716140.96,8,400,,,
break_continue,html.Screen,4_84_2,2023-09-08T19:58:14.760Z,,0,,,NaN,,,,,,false,,,,716129,716128,,716128,,716140.96,8,400,,,
sequence,flow.Sequence,4_84,2023-09-08T19:58:14.761Z,,0,,,2931.8800000000047,completion,,,,,false,,,,716130,716128,713185.78,713189,713196.12,716140.96,8,400,,,
trial,html.Screen,4_85_0,2023-09-08T19:58:17.476Z,,0,2,,2704.0400000000373,response,ISIC_1768733.JPG,13,ISIC_0014347.JPG,ISIC_0014347.JPG,false,0,keypress(z),500,718846,718845,716125.72,716130,716140.96,718851.7,8,400,36,,ISIC_1768733.JPG
break,html.Screen,4_85_1,2023-09-08T19:58:17.480Z,,0,,,NaN,,,,,,false,,,,718848,718848,,718846,,718851.7,8,400,,,
break_continue,html.Screen,4_85_2,2023-09-08T19:58:17.481Z,,0,,,NaN,,,,,,false,,,,718849,718849,,718849,,718851.7,8,400,,,
sequence,flow.Sequence,4_85,2023-09-08T19:58:17.482Z,,0,,,2708.0400000000373,completion,,,,,false,,,,718850,718849,716125.72,716130,716140.96,718851.7,8,400,,,
trial,html.Screen,4_86_0,2023-09-08T19:58:20.297Z,,0,2,,2812.3000000000466,response,ISIC_7508320.JPG,12,ISIC_0069351.JPG,ISIC_7508320.JPG,false,1,keypress(m),500,721665,721664,718846.08,718851,718851.7,721679.52,8,400,37,,ISIC_0069351.JPG
break,html.Screen,4_86_1,2023-09-08T19:58:20.300Z,,0,,,NaN,,,,,,false,,,,721668,721667,,721665,,721679.52,8,400,,,
break_continue,html.Screen,4_86_2,2023-09-08T19:58:20.301Z,,0,,,NaN,,,,,,false,,,,721669,721669,,721668,,721679.52,8,400,,,
sequence,flow.Sequence,4_86,2023-09-08T19:58:20.301Z,,0,,,2817.3000000000466,completion,,,,,false,,,,721670,721669,718846.08,718850,718851.7,721679.52,8,400,,,
trial,html.Screen,4_87_0,2023-09-08T19:58:23.066Z,,0,2,,2754.4799999999814,response,ISIC_0029353.JPG,3,ISIC_7532154.JPG,ISIC_0029353.JPG,false,1,keypress(m),500,724435,724434,721665.98,721670,721679.52,724440.44,8,400,38,,ISIC_7532154.JPG
break,html.Screen,4_87_1,2023-09-08T19:58:23.067Z,,0,,,NaN,,,,,,false,,,,724436,724436,,724435,,724440.44,8,400,,,
break_continue,html.Screen,4_87_2,2023-09-08T19:58:23.068Z,,0,,,NaN,,,,,,false,,,,724437,724436,,724436,,724440.44,8,400,,,
sequence,flow.Sequence,4_87,2023-09-08T19:58:23.069Z,,0,,,2756.4799999999814,completion,,,,,false,,,,724437,724436,721665.98,721670,721679.52,724440.44,8,400,,,
trial,html.Screen,4_88_0,2023-09-08T19:58:25.710Z,,0,2,,2637.560000000056,response,ISIC_6754835.JPG,16,ISIC_0025941.JPG,ISIC_6754835.JPG,false,1,keypress(m),500,727079,727078,724435.18,724438,724440.44,727084.32,8,400,39,,ISIC_0025941.JPG
break,html.Screen,4_88_1,2023-09-08T19:58:25.712Z,,0,,,NaN,,,,,,false,,,,727081,727080,,727080,,727084.32,8,400,,,
break_continue,html.Screen,4_88_2,2023-09-08T19:58:25.713Z,,0,,,NaN,,,,,,false,,,,727081,727081,,727081,,727084.32,8,400,,,
sequence,flow.Sequence,4_88,2023-09-08T19:58:25.714Z,,0,,,2640.560000000056,completion,,,,,false,,,,727082,727081,724435.18,724438,724440.44,727084.32,8,400,,,
trial,html.Screen,4_89_0,2023-09-08T19:58:28.467Z,,0,2,,2750.680000000051,response,ISIC_0071180.JPG,11,ISIC_0055549.JPG,ISIC_0071180.JPG,false,1,keypress(m),500,729835,729835,727079.36,727082,727084.32,729847.04,8,400,40,,ISIC_0055549.JPG
break,html.Screen,4_89_1,2023-09-08T19:58:28.468Z,,0,,,NaN,,,,,,false,,,,729838,729837,,729836,,729847.04,8,400,,,
break_continue,html.Screen,4_89_2,2023-09-08T19:58:28.470Z,,0,,,NaN,,,,,,false,,,,729839,729838,,729838,,729847.04,8,400,,,
sequence,flow.Sequence,4_89,2023-09-08T19:58:28.471Z,,0,,,2753.680000000051,completion,,,,,false,,,,729840,729838,727079.36,727082,727084.32,729847.04,8,400,,,
trial,html.Screen,4_90_0,2023-09-08T19:58:31.316Z,,0,2,,2836.9599999999627,response,ISIC_0069556.JPG,3,ISIC_0067564.JPG,ISIC_0067564.JPG,false,0,keypress(z),500,732684,732684,729835.76,729840,729847.04,732691.6,8,400,41,,ISIC_0069556.JPG
break,html.Screen,4_90_1,2023-09-08T19:58:31.317Z,,0,,,NaN,,,,,,false,,,,732686,732685,,732684,,732691.6,8,400,,,
break_continue,html.Screen,4_90_2,2023-09-08T19:58:31.317Z,,0,,,NaN,,,,,,false,,,,732686,732686,,732686,,732691.6,8,400,,,
sequence,flow.Sequence,4_90,2023-09-08T19:58:31.318Z,,0,,,2838.9599999999627,completion,,,,,false,,,,732687,732686,729835.76,729840,729847.04,732691.6,8,400,,,
trial,html.Screen,4_91_0,2023-09-08T19:58:34.804Z,,0,2,,3480.4000000000233,response,ISIC_3260571.JPG,15,ISIC_0305800.JPG,ISIC_0305800.JPG,false,0,keypress(z),500,736172,736172,732684.78,732687,732691.6,736188.24,8,400,42,,ISIC_3260571.JPG
break,html.Screen,4_91_1,2023-09-08T19:58:34.805Z,,0,,,NaN,,,,,,false,,,,736174,736173,,736173,,736188.24,8,400,,,
break_continue,html.Screen,4_91_2,2023-09-08T19:58:34.806Z,,0,,,NaN,,,,,,false,,,,736174,736174,,736174,,736188.24,8,400,,,
sequence,flow.Sequence,4_91,2023-09-08T19:58:34.806Z,,0,,,3482.4000000000233,completion,,,,,false,,,,736175,736174,732684.78,732687,732691.6,736188.24,8,400,,,
trial,html.Screen,4_92_0,2023-09-08T19:58:37.856Z,,0,2,,3035.7600000000093,response,ISIC_6413346.JPG,7,ISIC_9048507.JPG,ISIC_9048507.JPG,false,0,keypress(z),500,739225,739224,736173.08,736175,736188.24,739233.4,8,400,43,,ISIC_6413346.JPG
break,html.Screen,4_92_1,2023-09-08T19:58:37.858Z,,0,,,NaN,,,,,,false,,,,739227,739226,,739225,,739233.4,8,400,,,
break_continue,html.Screen,4_92_2,2023-09-08T19:58:37.859Z,,0,,,NaN,,,,,,false,,,,739228,739228,,739227,,739233.4,8,400,,,
sequence,flow.Sequence,4_92,2023-09-08T19:58:37.860Z,,0,,,3039.7600000000093,completion,,,,,false,,,,739229,739228,736173.08,736175,736188.24,739233.4,8,400,,,
trial,html.Screen,4_93_0,2023-09-08T19:58:40.653Z,,0,2,,2786.5999999999767,response,ISIC_8751106.JPG,9,ISIC_3181358.JPG,ISIC_8751106.JPG,false,1,keypress(m),500,742022,742020,739225.12,739229,739233.4,742027.8,8,400,44,,ISIC_3181358.JPG
break,html.Screen,4_93_1,2023-09-08T19:58:40.655Z,,0,,,NaN,,,,,,false,,,,742024,742023,,742022,,742027.8,8,400,,,
break_continue,html.Screen,4_93_2,2023-09-08T19:58:40.658Z,,0,,,NaN,,,,,,false,,,,742027,742025,,742025,,742027.8,8,400,,,
sequence,flow.Sequence,4_93,2023-09-08T19:58:40.659Z,,0,,,2791.5999999999767,completion,,,,,false,,,,742028,742025,739225.12,739229,739233.4,742027.8,8,400,,,
trial,html.Screen,4_94_0,2023-09-08T19:58:43.606Z,,0,2,,2946.1999999999534,response,ISIC_0029652.JPG,3,ISIC_8082460.JPG,ISIC_0029652.JPG,false,1,keypress(m),500,744975,744974,742022.34,742028,742027.8,744991.86,8,400,45,,ISIC_8082460.JPG
break,html.Screen,4_94_1,2023-09-08T19:58:43.609Z,,0,,,NaN,,,,,,false,,,,744977,744977,,744976,,744991.86,8,400,,,
break_continue,html.Screen,4_94_2,2023-09-08T19:58:43.610Z,,0,,,NaN,,,,,,false,,,,744979,744978,,744978,,744991.86,8,400,,,
sequence,flow.Sequence,4_94,2023-09-08T19:58:43.611Z,,0,,,2950.1999999999534,completion,,,,,false,,,,744979,744978,742022.34,742028,742027.8,744991.86,8,400,,,
trial,html.Screen,4_95_0,2023-09-08T19:58:46.726Z,,0,2,,3102.140000000014,response,ISIC_6913272.JPG,11,ISIC_0005304.JPG,ISIC_6913272.JPG,false,1,keypress(m),500,748095,748094,744976.42,744980,744991.86,748102.82,8,400,46,,ISIC_0005304.JPG
break,html.Screen,4_95_1,2023-09-08T19:58:46.728Z,,0,,,NaN,,,,,,false,,,,748097,748096,,748095,,748102.82,8,400,,,
break_continue,html.Screen,4_95_2,2023-09-08T19:58:46.730Z,,0,,,NaN,,,,,,false,,,,748098,748098,,748097,,748102.82,8,400,,,
sequence,flow.Sequence,4_95,2023-09-08T19:58:46.730Z,,0,,,3106.140000000014,completion,,,,,false,,,,748099,748098,744976.42,744980,744991.86,748102.82,8,400,,,
trial,html.Screen,4_96_0,2023-09-08T19:58:49.641Z,,0,2,,2906.180000000051,response,ISIC_5403296.JPG,13,ISIC_1550721.JPG,ISIC_1550721.JPG,false,0,keypress(z),500,751010,751009,748095.8,748099,748102.82,751014.22,8,400,47,,ISIC_5403296.JPG
break,html.Screen,4_96_1,2023-09-08T19:58:49.643Z,,0,,,NaN,,,,,,false,,,,751011,751011,,751010,,751014.22,8,400,,,
break_continue,html.Screen,4_96_2,2023-09-08T19:58:49.644Z,,0,,,NaN,,,,,,false,,,,751013,751012,,751012,,751014.22,8,400,,,
sequence,flow.Sequence,4_96,2023-09-08T19:58:49.644Z,,0,,,2909.180000000051,completion,,,,,false,,,,751013,751012,748095.8,748099,748102.82,751014.22,8,400,,,
trial,html.Screen,4_97_0,2023-09-08T19:58:52.646Z,,0,2,,3000.780000000028,response,ISIC_2668481.JPG,8,ISIC_2160913.JPG,ISIC_2668481.JPG,false,1,keypress(m),500,754015,754015,751010.36,751014,751014.22,754025.98,8,400,48,,ISIC_2160913.JPG
break,html.Screen,4_97_1,2023-09-08T19:58:52.650Z,,0,,,NaN,,,,,,false,,,,754018,754017,,754015,,754025.98,8,400,,,
break_continue,html.Screen,4_97_2,2023-09-08T19:58:52.651Z,,0,,,NaN,,,,,,false,,,,754020,754019,,754018,,754025.98,8,400,,,
sequence,flow.Sequence,4_97,2023-09-08T19:58:52.652Z,,0,,,3004.780000000028,completion,,,,,false,,,,754021,754019,751010.36,751014,751014.22,754025.98,8,400,,,
trial,html.Screen,4_98_0,2023-09-08T19:58:55.337Z,,0,2,,2678.0200000000186,response,ISIC_0033059.JPG,11,ISIC_4045323.JPG,ISIC_0033059.JPG,false,1,keypress(m),500,756705,756704,754015.9,754021,754025.98,756720.06,8,400,49,,ISIC_4045323.JPG
break,html.Screen,4_98_1,2023-09-08T19:58:55.339Z,,0,,,NaN,,,,,,false,,,,756708,756707,,756706,,756720.06,8,400,,,
break_continue,html.Screen,4_98_2,2023-09-08T19:58:55.340Z,,0,,,NaN,,,,,,false,,,,756709,756708,,756708,,756720.06,8,400,,,
sequence,flow.Sequence,4_98,2023-09-08T19:58:55.341Z,,0,,,2682.0200000000186,completion,,,,,false,,,,756709,756708,754015.9,754021,754025.98,756720.06,8,400,,,
trial,html.Screen,4_99_0,2023-09-08T19:58:58.217Z,,0,2,,2864.939999999944,response,ISIC_6806124.JPG,13,ISIC_0002549.JPG,ISIC_0002549.JPG,false,0,keypress(z),500,759586,759585,756706.5,756710,756720.06,759597.98,8,400,50,,ISIC_6806124.JPG
break,html.Screen,4_99_1,2023-09-08T19:59:08.224Z,,0,,,10007.540000000037,timeout,,,,,false,,,,769592,769588.78,759586.36,759586,759597.98,769605.52,8,400,,,
break_continue,html.Screen,4_99_2,2023-09-08T19:59:16.531Z,,0,,,8261.479999999981,response,,,,,false,continue,keypress(Space),,777900,777867,769588.78,769593,769605.52,777905.06,8,400,,,
sequence,flow.Sequence,4_99,2023-09-08T19:59:16.531Z,,0,,,21146.939999999944,completion,,,,,false,,,,777900,777867,756706.5,756710,756720.06,777905.06,8,400,,,
trial,html.Screen,4_100_0,2023-09-08T19:59:19.336Z,,0,3,,2798.939999999944,response,ISIC_0068259.JPG,2,ISIC_3519679.JPG,ISIC_0068259.JPG,false,1,keypress(m),500,780705,780704,777900.46,777900,777905.06,780716.16,8,400,1,,ISIC_3519679.JPG
break,html.Screen,4_100_1,2023-09-08T19:59:19.339Z,,0,,,NaN,,,,,,false,,,,780706,780706,,780706,,780716.16,8,400,,,
break_continue,html.Screen,4_100_2,2023-09-08T19:59:19.339Z,,0,,,NaN,,,,,,false,,,,780708,780707,,780707,,780716.16,8,400,,,
sequence,flow.Sequence,4_100,2023-09-08T19:59:19.339Z,,0,,,2801.939999999944,completion,,,,,false,,,,780708,780707,777900.46,777900,777905.06,780716.16,8,400,,,
trial,html.Screen,4_101_0,2023-09-08T19:59:22.146Z,,0,3,,2797.8399999999674,response,ISIC_0057759.JPG,13,ISIC_0026516.JPG,ISIC_0057759.JPG,false,1,keypress(m),500,783514,783514,780705.16,780709,780716.16,783527.26,8,400,2,,ISIC_0026516.JPG
break,html.Screen,4_101_1,2023-09-08T19:59:22.147Z,,0,,,NaN,,,,,,false,,,,783514,783514,,783514,,783527.26,8,400,,,
break_continue,html.Screen,4_101_2,2023-09-08T19:59:22.147Z,,0,,,NaN,,,,,,false,,,,783515,783515,,783515,,783527.26,8,400,,,
sequence,flow.Sequence,4_101,2023-09-08T19:59:22.147Z,,0,,,2798.8399999999674,completion,,,,,false,,,,783516,783515,780705.16,780709,780716.16,783527.26,8,400,,,
trial,html.Screen,4_102_0,2023-09-08T19:59:25.245Z,,0,3,,3086.7399999999907,response,ISIC_0010162.JPG,7,ISIC_0033524.JPG,ISIC_0033524.JPG,false,0,keypress(z),500,786614,786614,783514.04,783516,783527.26,786622.64,8,400,3,,ISIC_0010162.JPG
break,html.Screen,4_102_1,2023-09-08T19:59:25.247Z,,0,,,NaN,,,,,,false,,,,786616,786615,,786614,,786622.64,8,400,,,
break_continue,html.Screen,4_102_2,2023-09-08T19:59:25.247Z,,0,,,NaN,,,,,,false,,,,786616,786616,,786616,,786622.64,8,400,,,
sequence,flow.Sequence,4_102,2023-09-08T19:59:25.247Z,,0,,,3088.7399999999907,completion,,,,,false,,,,786616,786616,783514.04,783516,783527.26,786622.64,8,400,,,
trial,html.Screen,4_103_0,2023-09-08T19:59:28.366Z,,0,3,,3111.359999999986,response,ISIC_0026224.JPG,17,ISIC_8591425.JPG,ISIC_8591425.JPG,false,0,keypress(z),500,789734,789734,786614.22,786617,786622.64,789751.44,8,400,4,,ISIC_0026224.JPG
break,html.Screen,4_103_1,2023-09-08T19:59:28.368Z,,0,,,NaN,,,,,,false,,,,789737,789736,,789735,,789751.44,8,400,,,
break_continue,html.Screen,4_103_2,2023-09-08T19:59:28.370Z,,0,,,NaN,,,,,,false,,,,789739,789739,,789738,,789751.44,8,400,,,
sequence,flow.Sequence,4_103,2023-09-08T19:59:28.372Z,,0,,,3116.359999999986,completion,,,,,false,,,,789740,789739,786614.22,786617,786622.64,789751.44,8,400,,,
trial,html.Screen,4_104_0,2023-09-08T19:59:31.387Z,,0,3,,3001.560000000056,response,ISIC_4001990.JPG,3,ISIC_0031553.JPG,ISIC_0031553.JPG,false,0,keypress(z),500,792754,792753,789734.96,789740,789751.44,792763.06,8,400,5,,ISIC_4001990.JPG
break,html.Screen,4_104_1,2023-09-08T19:59:31.389Z,,0,,,NaN,,,,,,false,,,,792757,792756,,792755,,792763.06,8,400,,,
break_continue,html.Screen,4_104_2,2023-09-08T19:59:31.390Z,,0,,,NaN,,,,,,false,,,,792758,792757,,792757,,792763.06,8,400,,,
sequence,flow.Sequence,4_104,2023-09-08T19:59:31.390Z,,0,,,3005.560000000056,completion,,,,,false,,,,792758,792757,789734.96,789740,789751.44,792763.06,8,400,,,
trial,html.Screen,4_105_0,2023-09-08T19:59:34.126Z,,0,3,,2729.939999999944,response,ISIC_0059929.JPG,3,ISIC_1974281.JPG,ISIC_0059929.JPG,false,1,keypress(m),500,795495,795493,792755.4,792759,792763.06,795508.76,8,400,6,,ISIC_1974281.JPG
break,html.Screen,4_105_1,2023-09-08T19:59:34.127Z,,0,,,NaN,,,,,,false,,,,795496,795495,,795495,,795508.76,8,400,,,
break_continue,html.Screen,4_105_2,2023-09-08T19:59:34.128Z,,0,,,NaN,,,,,,false,,,,795498,795496,,795496,,795508.76,8,400,,,
sequence,flow.Sequence,4_105,2023-09-08T19:59:34.129Z,,0,,,2732.939999999944,completion,,,,,false,,,,795498,795496,792755.4,792759,792763.06,795508.76,8,400,,,
trial,html.Screen,4_106_0,2023-09-08T19:59:37.116Z,,0,3,,2974.2399999999907,response,ISIC_4603706.JPG,5,ISIC_8344345.JPG,ISIC_8344345.JPG,false,0,keypress(z),500,798484,798483,795494.86,795498,795508.76,798487,8,400,7,,ISIC_4603706.JPG
break,html.Screen,4_106_1,2023-09-08T19:59:37.117Z,,0,,,NaN,,,,,,false,,,,798485,798485,,798484,,798487,8,400,,,
break_continue,html.Screen,4_106_2,2023-09-08T19:59:37.117Z,,0,,,NaN,,,,,,false,,,,798486,798486,,798485,,798487,8,400,,,
sequence,flow.Sequence,4_106,2023-09-08T19:59:37.117Z,,0,,,2977.2399999999907,completion,,,,,false,,,,798486,798486,795494.86,795498,795508.76,798487,8,400,,,
trial,html.Screen,4_107_0,2023-09-08T19:59:39.955Z,,0,3,,2836,response,ISIC_0063496.JPG,6,ISIC_4596803.JPG,ISIC_0063496.JPG,false,1,keypress(m),500,801323,801323,798484.44,798486,798487,801331.58,8,400,8,,ISIC_4596803.JPG
break,html.Screen,4_107_1,2023-09-08T19:59:39.957Z,,0,,,NaN,,,,,,false,,,,801325,801324,,801324,,801331.58,8,400,,,
break_continue,html.Screen,4_107_2,2023-09-08T19:59:39.958Z,,0,,,NaN,,,,,,false,,,,801326,801325,,801325,,801331.58,8,400,,,
sequence,flow.Sequence,4_107,2023-09-08T19:59:39.958Z,,0,,,2838,completion,,,,,false,,,,801326,801325,798484.44,798486,798487,801331.58,8,400,,,
trial,html.Screen,4_108_0,2023-09-08T19:59:42.916Z,,0,3,,2952.420000000042,response,ISIC_3901421.JPG,17,ISIC_8441905.JPG,ISIC_8441905.JPG,false,0,keypress(z),500,804284,804284,801324.06,801327,801331.58,804293.16,8,400,9,,ISIC_3901421.JPG
break,html.Screen,4_108_1,2023-09-08T19:59:42.917Z,,0,,,NaN,,,,,,false,,,,804286,804285,,804284,,804293.16,8,400,,,
break_continue,html.Screen,4_108_2,2023-09-08T19:59:42.917Z,,0,,,NaN,,,,,,false,,,,804286,804286,,804286,,804293.16,8,400,,,
sequence,flow.Sequence,4_108,2023-09-08T19:59:42.917Z,,0,,,2954.420000000042,completion,,,,,false,,,,804287,804286,801324.06,801327,801331.58,804293.16,8,400,,,
trial,html.Screen,4_109_0,2023-09-08T19:59:46.006Z,,0,3,,3079.8399999999674,response,ISIC_0786233.JPG,15,ISIC_0011350.JPG,ISIC_0011350.JPG,false,0,keypress(z),500,807374,807373,804284.46,804287,804293.16,807388.26,8,400,10,,ISIC_0786233.JPG
break,html.Screen,4_109_1,2023-09-08T19:59:46.009Z,,0,,,NaN,,,,,,false,,,,807377,807376,,807376,,807388.26,8,400,,,
break_continue,html.Screen,4_109_2,2023-09-08T19:59:46.010Z,,0,,,NaN,,,,,,false,,,,807378,807378,,807377,,807388.26,8,400,,,
sequence,flow.Sequence,4_109,2023-09-08T19:59:46.010Z,,0,,,3084.8399999999674,completion,,,,,false,,,,807379,807378,804284.46,804287,804293.16,807388.26,8,400,,,
trial,html.Screen,4_110_0,2023-09-08T19:59:49.266Z,,0,3,,3244.7399999999907,response,ISIC_0033302.JPG,13,ISIC_3734674.JPG,ISIC_3734674.JPG,false,0,keypress(z),500,810635,810633,807375.68,807380,807388.26,810650.84,8,400,11,,ISIC_0033302.JPG
break,html.Screen,4_110_1,2023-09-08T19:59:49.269Z,,0,,,NaN,,,,,,false,,,,810638,810637,,810635,,810650.84,8,400,,,
break_continue,html.Screen,4_110_2,2023-09-08T19:59:49.271Z,,0,,,NaN,,,,,,false,,,,810640,810639,,810639,,810650.84,8,400,,,
sequence,flow.Sequence,4_110,2023-09-08T19:59:49.271Z,,0,,,3250.7399999999907,completion,,,,,false,,,,810640,810639,807375.68,807379,807388.26,810650.84,8,400,,,
trial,html.Screen,4_111_0,2023-09-08T19:59:52.095Z,,0,3,,2812.1600000000326,response,ISIC_8423248.JPG,12,ISIC_6676776.JPG,ISIC_8423248.JPG,false,1,keypress(m),500,813463,813463,810635.26,810641,810650.84,813478.66,8,400,12,,ISIC_6676776.JPG
break,html.Screen,4_111_1,2023-09-08T19:59:52.096Z,,0,,,NaN,,,,,,false,,,,813465,813464,,813464,,813478.66,8,400,,,
break_continue,html.Screen,4_111_2,2023-09-08T19:59:52.097Z,,0,,,NaN,,,,,,false,,,,813465,813465,,813465,,813478.66,8,400,,,
sequence,flow.Sequence,4_111,2023-09-08T19:59:52.097Z,,0,,,2814.1600000000326,completion,,,,,false,,,,813466,813465,810635.26,810640,810650.84,813478.66,8,400,,,
trial,html.Screen,4_112_0,2023-09-08T19:59:55.045Z,,0,3,,2935.3399999999674,response,ISIC_0046305.JPG,7,ISIC_0054080.JPG,ISIC_0046305.JPG,false,1,keypress(m),500,816414,816414,813464.02,813466,813478.66,816425.46,8,400,13,,ISIC_0054080.JPG
break,html.Screen,4_112_1,2023-09-08T19:59:55.047Z,,0,,,NaN,,,,,,false,,,,816415,816415,,816415,,816425.46,8,400,,,
break_continue,html.Screen,4_112_2,2023-09-08T19:59:55.048Z,,0,,,NaN,,,,,,false,,,,816415,816415,,816415,,816425.46,8,400,,,
sequence,flow.Sequence,4_112,2023-09-08T19:59:55.048Z,,0,,,2936.3399999999674,completion,,,,,false,,,,816417,816415,813464.02,813466,813478.66,816425.46,8,400,,,
trial,html.Screen,4_113_0,2023-09-08T19:59:58.315Z,,0,3,,3257.5400000000373,response,ISIC_0027420.JPG,16,ISIC_0031379.JPG,ISIC_0027420.JPG,false,1,keypress(m),500,819684,819683,816414.3,816417,816425.46,819688,8,400,14,,ISIC_0031379.JPG
break,html.Screen,4_113_1,2023-09-08T19:59:58.317Z,,0,,,NaN,,,,,,false,,,,819685,819685,,819684,,819688,8,400,,,
break_continue,html.Screen,4_113_2,2023-09-08T19:59:58.319Z,,0,,,NaN,,,,,,false,,,,819687,819686,,819686,,819688,8,400,,,
sequence,flow.Sequence,4_113,2023-09-08T19:59:58.319Z,,0,,,3260.5400000000373,completion,,,,,false,,,,819687,819686,816414.3,816417,816425.46,819688,8,400,,,
trial,html.Screen,4_114_0,2023-09-08T20:00:01.316Z,,0,3,,2995,response,ISIC_0028773.JPG,13,ISIC_4174592.JPG,ISIC_0028773.JPG,false,1,keypress(m),500,822684,822683,819684.42,819688,819688,822699.76,8,400,15,,ISIC_4174592.JPG
break,html.Screen,4_114_1,2023-09-08T20:00:01.318Z,,0,,,NaN,,,,,,false,,,,822687,822686,,822684,,822699.76,8,400,,,
break_continue,html.Screen,4_114_2,2023-09-08T20:00:01.319Z,,0,,,NaN,,,,,,false,,,,822688,822687,,822687,,822699.76,8,400,,,
sequence,flow.Sequence,4_114,2023-09-08T20:00:01.320Z,,0,,,2999,completion,,,,,false,,,,822689,822687,819684.42,819688,819688,822699.76,8,400,,,
trial,html.Screen,4_115_0,2023-09-08T20:00:04.396Z,,0,3,,3064.2399999999907,response,ISIC_2647198.JPG,13,ISIC_3762459.JPG,ISIC_3762459.JPG,false,0,keypress(z),500,825765,825764,822684.68,822689,822699.76,825778.38,8,400,16,,ISIC_2647198.JPG
break,html.Screen,4_115_1,2023-09-08T20:00:04.397Z,,0,,,NaN,,,,,,false,,,,825766,825766,,825765,,825778.38,8,400,,,
break_continue,html.Screen,4_115_2,2023-09-08T20:00:04.397Z,,0,,,NaN,,,,,,false,,,,825766,825766,,825766,,825778.38,8,400,,,
sequence,flow.Sequence,4_115,2023-09-08T20:00:04.398Z,,0,,,3066.2399999999907,completion,,,,,false,,,,825767,825766,822684.68,822689,822699.76,825778.38,8,400,,,
trial,html.Screen,4_116_0,2023-09-08T20:00:07.765Z,,0,3,,3354.6199999999953,response,ISIC_0031752.JPG,6,ISIC_0015200.JPG,ISIC_0031752.JPG,false,1,keypress(m),500,829134,829133,825764.88,825767,825778.38,829141.16,8,400,17,,ISIC_0015200.JPG
break,html.Screen,4_116_1,2023-09-08T20:00:07.767Z,,0,,,NaN,,,,,,false,,,,829136,829135,,829134,,829141.16,8,400,,,
break_continue,html.Screen,4_116_2,2023-09-08T20:00:07.768Z,,0,,,NaN,,,,,,false,,,,829137,829137,,829136,,829141.16,8,400,,,
sequence,flow.Sequence,4_116,2023-09-08T20:00:07.769Z,,0,,,3358.6199999999953,completion,,,,,false,,,,829138,829137,825764.88,825767,825778.38,829141.16,8,400,,,
trial,html.Screen,4_117_0,2023-09-08T20:00:10.685Z,,0,3,,2911.8399999999674,response,ISIC_8892236.JPG,14,ISIC_3389704.JPG,ISIC_8892236.JPG,false,1,keypress(m),500,832053,832053,829134.46,829138,829141.16,832054.5,8,400,18,,ISIC_3389704.JPG
break,html.Screen,4_117_1,2023-09-08T20:00:10.687Z,,0,,,NaN,,,,,,false,,,,832055,832054,,832053,,832054.5,8,400,,,
break_continue,html.Screen,4_117_2,2023-09-08T20:00:10.688Z,,0,,,NaN,,,,,,false,,,,832057,832056,,832056,,832054.5,8,400,,,
sequence,flow.Sequence,4_117,2023-09-08T20:00:10.689Z,,0,,,2914.8399999999674,completion,,,,,false,,,,832057,832056,829134.46,829138,829141.16,832054.5,8,400,,,
trial,html.Screen,4_118_0,2023-09-08T20:00:14.016Z,,0,3,,3329.5,response,ISIC_9268487.JPG,16,ISIC_3464344.JPG,ISIC_9268487.JPG,false,1,keypress(m),500,835384,835384,832053.7,832057,832054.5,835400.7,8,400,19,,ISIC_3464344.JPG
break,html.Screen,4_118_1,2023-09-08T20:00:14.019Z,,0,,,NaN,,,,,,false,,,,835387,835386,,835385,,835400.7,8,400,,,
break_continue,html.Screen,4_118_2,2023-09-08T20:00:14.020Z,,0,,,NaN,,,,,,false,,,,835388,835388,,835388,,835400.7,8,400,,,
sequence,flow.Sequence,4_118,2023-09-08T20:00:14.020Z,,0,,,3333.5,completion,,,,,false,,,,835389,835388,832053.7,832057,832054.5,835400.7,8,400,,,
trial,html.Screen,4_119_0,2023-09-08T20:00:16.946Z,,0,3,,2913.3000000000466,response,ISIC_1731109.JPG,2,ISIC_6208762.JPG,ISIC_1731109.JPG,false,1,keypress(m),500,838314,838314,835384.88,835390,835400.7,838328.78,8,400,20,,ISIC_6208762.JPG
break,html.Screen,4_119_1,2023-09-08T20:00:16.948Z,,0,,,NaN,,,,,,false,,,,838316,838316,,838315,,838328.78,8,400,,,
break_continue,html.Screen,4_119_2,2023-09-08T20:00:16.950Z,,0,,,NaN,,,,,,false,,,,838319,838318,,838318,,838328.78,8,400,,,
sequence,flow.Sequence,4_119,2023-09-08T20:00:16.950Z,,0,,,2917.3000000000466,completion,,,,,false,,,,838319,838318,835384.88,835390,835400.7,838328.78,8,400,,,
trial,html.Screen,4_120_0,2023-09-08T20:00:19.855Z,,0,3,,2894.219999999972,response,ISIC_8959928.JPG,0,ISIC_3106058.JPG,ISIC_8959928.JPG,false,1,keypress(m),500,841224,841223,838315.46,838319,838328.78,841240.1,8,400,21,,ISIC_3106058.JPG
break,html.Screen,4_120_1,2023-09-08T20:00:19.858Z,,0,,,NaN,,,,,,false,,,,841227,841226,,841225,,841240.1,8,400,,,
break_continue,html.Screen,4_120_2,2023-09-08T20:00:19.860Z,,0,,,NaN,,,,,,false,,,,841228,841228,,841228,,841240.1,8,400,,,
sequence,flow.Sequence,4_120,2023-09-08T20:00:19.860Z,,0,,,2899.219999999972,completion,,,,,false,,,,841229,841228,838315.46,838319,838328.78,841240.1,8,400,,,
trial,html.Screen,4_121_0,2023-09-08T20:00:22.965Z,,0,3,,3092.9000000000233,response,ISIC_3556980.JPG,12,ISIC_0046977.JPG,ISIC_0046977.JPG,false,0,keypress(z),500,844333,844333,841225,841230,841240.1,844336.42,8,400,22,,ISIC_3556980.JPG
break,html.Screen,4_121_1,2023-09-08T20:00:22.967Z,,0,,,NaN,,,,,,false,,,,844335,844335,,844334,,844336.42,8,400,,,
break_continue,html.Screen,4_121_2,2023-09-08T20:00:22.967Z,,0,,,NaN,,,,,,false,,,,844336,844336,,844335,,844336.42,8,400,,,
sequence,flow.Sequence,4_121,2023-09-08T20:00:22.968Z,,0,,,3095.9000000000233,completion,,,,,false,,,,844336,844336,841225,841230,841240.1,844336.42,8,400,,,
trial,html.Screen,4_122_0,2023-09-08T20:00:25.846Z,,0,3,,2876.579999999958,response,ISIC_0063988.JPG,4,ISIC_6741865.JPG,ISIC_0063988.JPG,false,1,keypress(m),500,847214,847213,844334.38,844337,844336.42,847231.08,8,400,23,,ISIC_6741865.JPG
break,html.Screen,4_122_1,2023-09-08T20:00:25.849Z,,0,,,NaN,,,,,,false,,,,847218,847217,,847215,,847231.08,8,400,,,
break_continue,html.Screen,4_122_2,2023-09-08T20:00:25.850Z,,0,,,NaN,,,,,,false,,,,847219,847218,,847218,,847231.08,8,400,,,
sequence,flow.Sequence,4_122,2023-09-08T20:00:25.852Z,,0,,,2881.579999999958,completion,,,,,false,,,,847220,847218,844334.38,844337,844336.42,847231.08,8,400,,,
trial,html.Screen,4_123_0,2023-09-08T20:00:28.685Z,,0,3,,2821.920000000042,response,ISIC_0030951.JPG,11,ISIC_7168122.JPG,ISIC_0030951.JPG,false,1,keypress(m),500,850054,850053,847215.46,847220,847231.08,850058.9,8,400,24,,ISIC_7168122.JPG
break,html.Screen,4_123_1,2023-09-08T20:00:28.688Z,,0,,,NaN,,,,,,false,,,,850056,850055,,850054,,850058.9,8,400,,,
break_continue,html.Screen,4_123_2,2023-09-08T20:00:28.689Z,,0,,,NaN,,,,,,false,,,,850057,850056,,850056,,850058.9,8,400,,,
sequence,flow.Sequence,4_123,2023-09-08T20:00:28.689Z,,0,,,2824.920000000042,completion,,,,,false,,,,850057,850056,847215.46,847220,847231.08,850058.9,8,400,,,
trial,html.Screen,4_124_0,2023-09-08T20:00:31.565Z,,0,3,,2875.0999999999767,response,ISIC_0626501.JPG,12,ISIC_8887039.JPG,ISIC_0626501.JPG,false,1,keypress(m),500,852934,852934,850054.44,850058,850058.9,852936.94,8,400,25,,ISIC_8887039.JPG
break,html.Screen,4_124_1,2023-09-08T20:00:31.567Z,,0,,,NaN,,,,,,false,,,,852935,852935,,852934,,852936.94,8,400,,,
break_continue,html.Screen,4_124_2,2023-09-08T20:00:31.568Z,,0,,,NaN,,,,,,false,,,,852937,852936,,852936,,852936.94,8,400,,,
sequence,flow.Sequence,4_124,2023-09-08T20:00:31.569Z,,0,,,2877.0999999999767,completion,,,,,false,,,,852937,852936,850054.44,850058,850058.9,852936.94,8,400,,,
trial,html.Screen,4_125_0,2023-09-08T20:00:34.395Z,,0,3,,2826.060000000056,response,ISIC_0028444.JPG,3,ISIC_0029017.JPG,ISIC_0028444.JPG,false,1,keypress(m),500,855764,855763,852934.16,852938,852936.94,855764.68,8,400,26,,ISIC_0029017.JPG
break,html.Screen,4_125_1,2023-09-08T20:00:34.398Z,,0,,,NaN,,,,,,false,,,,855767,855765,,855764,,855764.68,8,400,,,
break_continue,html.Screen,4_125_2,2023-09-08T20:00:34.400Z,,0,,,NaN,,,,,,false,,,,855768,855767,,855767,,855764.68,8,400,,,
sequence,flow.Sequence,4_125,2023-09-08T20:00:34.401Z,,0,,,2830.060000000056,completion,,,,,false,,,,855769,855767,852934.16,852938,852936.94,855764.68,8,400,,,
trial,html.Screen,4_126_0,2023-09-08T20:00:37.315Z,,0,3,,2918.319999999949,response,ISIC_0001121.JPG,22,ISIC_0058676.JPG,ISIC_0058676.JPG,false,0,keypress(z),500,858684,858683,855764.62,855770,855764.68,858692.82,8,400,27,,ISIC_0001121.JPG
break,html.Screen,4_126_1,2023-09-08T20:00:37.317Z,,0,,,NaN,,,,,,false,,,,858686,858686,,858685,,858692.82,8,400,,,
break_continue,html.Screen,4_126_2,2023-09-08T20:00:37.319Z,,0,,,NaN,,,,,,false,,,,858687,858687,,858687,,858692.82,8,400,,,
sequence,flow.Sequence,4_126,2023-09-08T20:00:37.319Z,,0,,,2922.319999999949,completion,,,,,false,,,,858688,858687,855764.62,855770,855764.68,858692.82,8,400,,,
trial,html.Screen,4_127_0,2023-09-08T20:00:40.495Z,,0,3,,3170.180000000051,response,ISIC_0056679.JPG,13,ISIC_0000226.JPG,ISIC_0056679.JPG,false,1,keypress(m),500,861864,861863,858684.36,858688,858692.82,861871.72,8,400,28,,ISIC_0000226.JPG
break,html.Screen,4_127_1,2023-09-08T20:00:40.497Z,,0,,,NaN,,,,,,false,,,,861866,861865,,861864,,861871.72,8,400,,,
break_continue,html.Screen,4_127_2,2023-09-08T20:00:40.499Z,,0,,,NaN,,,,,,false,,,,861867,861867,,861866,,861871.72,8,400,,,
sequence,flow.Sequence,4_127,2023-09-08T20:00:40.499Z,,0,,,3174.180000000051,completion,,,,,false,,,,861868,861867,858684.36,858688,858692.82,861871.72,8,400,,,
trial,html.Screen,4_128_0,2023-09-08T20:00:43.806Z,,0,3,,3301.280000000028,response,ISIC_6714923.JPG,3,ISIC_0027187.JPG,ISIC_6714923.JPG,false,1,keypress(m),500,865174,865173,861864.24,861868,861871.72,865186.44,8,400,29,,ISIC_0027187.JPG
break,html.Screen,4_128_1,2023-09-08T20:00:43.808Z,,0,,,NaN,,,,,,false,,,,865177,865176,,865175,,865186.44,8,400,,,
break_continue,html.Screen,4_128_2,2023-09-08T20:00:43.810Z,,0,,,NaN,,,,,,false,,,,865178,865178,,865178,,865186.44,8,400,,,
sequence,flow.Sequence,4_128,2023-09-08T20:00:43.811Z,,0,,,3306.280000000028,completion,,,,,false,,,,865179,865178,861864.24,861868,861871.72,865186.44,8,400,,,
trial,html.Screen,4_129_0,2023-09-08T20:00:46.885Z,,0,3,,3066.560000000056,response,ISIC_1888865.JPG,11,ISIC_7935007.JPG,ISIC_7935007.JPG,false,0,keypress(z),500,868254,868253,865174.8,865180,865186.44,868265.04,8,400,30,,ISIC_1888865.JPG
break,html.Screen,4_129_1,2023-09-08T20:00:46.887Z,,0,,,NaN,,,,,,false,,,,868256,868255,,868254,,868265.04,8,400,,,
break_continue,html.Screen,4_129_2,2023-09-08T20:00:46.888Z,,0,,,NaN,,,,,,false,,,,868257,868257,,868256,,868265.04,8,400,,,
sequence,flow.Sequence,4_129,2023-09-08T20:00:46.889Z,,0,,,3070.560000000056,completion,,,,,false,,,,868258,868257,865174.8,865179,865186.44,868265.04,8,400,,,
trial,html.Screen,4_130_0,2023-09-08T20:00:50.185Z,,0,3,,3287.9599999999627,response,ISIC_0001875.JPG,14,ISIC_0068633.JPG,ISIC_0068633.JPG,false,0,keypress(z),500,871554,871553,868254.42,868258,868265.04,871561.02,8,400,31,,ISIC_0001875.JPG
break,html.Screen,4_130_1,2023-09-08T20:00:50.187Z,,0,,,NaN,,,,,,false,,,,871556,871556,,871555,,871561.02,8,400,,,
break_continue,html.Screen,4_130_2,2023-09-08T20:00:50.188Z,,0,,,NaN,,,,,,false,,,,871556,871556,,871556,,871561.02,8,400,,,
sequence,flow.Sequence,4_130,2023-09-08T20:00:50.189Z,,0,,,3290.9599999999627,completion,,,,,false,,,,871557,871556,868254.42,868258,868265.04,871561.02,8,400,,,
trial,html.Screen,4_131_0,2023-09-08T20:00:53.046Z,,0,3,,2851.9799999999814,response,ISIC_2558816.JPG,13,ISIC_7575815.JPG,ISIC_2558816.JPG,false,1,keypress(m),500,874414,874413,871554.28,871558,871561.02,874422.28,8,400,32,,ISIC_7575815.JPG
break,html.Screen,4_131_1,2023-09-08T20:00:53.048Z,,0,,,NaN,,,,,,false,,,,874416,874415,,874414,,874422.28,8,400,,,
break_continue,html.Screen,4_131_2,2023-09-08T20:00:53.049Z,,0,,,NaN,,,,,,false,,,,874417,874417,,874416,,874422.28,8,400,,,
sequence,flow.Sequence,4_131,2023-09-08T20:00:53.050Z,,0,,,2855.9799999999814,completion,,,,,false,,,,874418,874417,871554.28,871558,871561.02,874422.28,8,400,,,
trial,html.Screen,4_132_0,2023-09-08T20:00:56.075Z,,0,3,,3020.719999999972,response,ISIC_0073119.JPG,3,ISIC_0060586.JPG,ISIC_0073119.JPG,false,1,keypress(m),500,877444,877443,874414.48,874419,874422.28,877450.68,8,400,33,,ISIC_0060586.JPG
break,html.Screen,4_132_1,2023-09-08T20:00:56.077Z,,0,,,NaN,,,,,,false,,,,877446,877445,,877444,,877450.68,8,400,,,
break_continue,html.Screen,4_132_2,2023-09-08T20:00:56.079Z,,0,,,NaN,,,,,,false,,,,877446,877446,,877446,,877450.68,8,400,,,
sequence,flow.Sequence,4_132,2023-09-08T20:00:56.079Z,,0,,,3023.719999999972,completion,,,,,false,,,,877447,877446,874414.48,874418,874422.28,877450.68,8,400,,,
trial,html.Screen,4_133_0,2023-09-08T20:00:59.075Z,,0,3,,2992.319999999949,response,ISIC_0781315.JPG,14,ISIC_0067253.JPG,ISIC_0067253.JPG,false,0,keypress(z),500,880443,880443,877444.22,877448,877450.68,880445.72,8,400,34,,ISIC_0781315.JPG
break,html.Screen,4_133_1,2023-09-08T20:00:59.077Z,,0,,,NaN,,,,,,false,,,,880446,880445,,880444,,880445.72,8,400,,,
break_continue,html.Screen,4_133_2,2023-09-08T20:00:59.079Z,,0,,,NaN,,,,,,false,,,,880448,880447,,880447,,880445.72,8,400,,,
sequence,flow.Sequence,4_133,2023-09-08T20:00:59.080Z,,0,,,2996.319999999949,completion,,,,,false,,,,880449,880447,877444.22,877447,877450.68,880445.72,8,400,,,
trial,html.Screen,4_134_0,2023-09-08T20:01:02.055Z,,0,3,,2976.280000000028,response,ISIC_3757004.JPG,11,ISIC_7637597.JPG,ISIC_3757004.JPG,false,1,keypress(m),500,883423,883422,880444.48,880450,880445.72,883425.94,8,400,35,,ISIC_7637597.JPG
break,html.Screen,4_134_1,2023-09-08T20:01:02.056Z,,0,,,NaN,,,,,,false,,,,883424,883424,,883423,,883425.94,8,400,,,
break_continue,html.Screen,4_134_2,2023-09-08T20:01:02.057Z,,0,,,NaN,,,,,,false,,,,883425,883425,,883425,,883425.94,8,400,,,
sequence,flow.Sequence,4_134,2023-09-08T20:01:02.057Z,,0,,,2979.280000000028,completion,,,,,false,,,,883426,883425,880444.48,880449,880445.72,883425.94,8,400,,,
trial,html.Screen,4_135_0,2023-09-08T20:01:04.825Z,,0,3,,2766.060000000056,response,ISIC_8664718.JPG,15,ISIC_8993666.JPG,ISIC_8664718.JPG,false,1,keypress(m),500,886193,886192,883423.52,883426,883425.94,886203.58,8,400,36,,ISIC_8993666.JPG
break,html.Screen,4_135_1,2023-09-08T20:01:04.827Z,,0,,,NaN,,,,,,false,,,,886196,886195,,886194,,886203.58,8,400,,,
break_continue,html.Screen,4_135_2,2023-09-08T20:01:04.828Z,,0,,,NaN,,,,,,false,,,,886197,886196,,886196,,886203.58,8,400,,,
sequence,flow.Sequence,4_135,2023-09-08T20:01:04.828Z,,0,,,2770.060000000056,completion,,,,,false,,,,886198,886196,883423.52,883426,883425.94,886203.58,8,400,,,
trial,html.Screen,4_136_0,2023-09-08T20:01:07.845Z,,0,3,,3009.420000000042,response,ISIC_5998926.JPG,13,ISIC_0024545.JPG,ISIC_5998926.JPG,false,1,keypress(m),500,889213,889213,886193.94,886198,886203.58,889215.3,8,400,37,,ISIC_0024545.JPG
break,html.Screen,4_136_1,2023-09-08T20:01:07.848Z,,0,,,NaN,,,,,,false,,,,889215,889215,,889215,,889215.3,8,400,,,
break_continue,html.Screen,4_136_2,2023-09-08T20:01:07.849Z,,0,,,NaN,,,,,,false,,,,889218,889217,,889216,,889215.3,8,400,,,
sequence,flow.Sequence,4_136,2023-09-08T20:01:07.850Z,,0,,,3013.420000000042,completion,,,,,false,,,,889219,889217,886193.94,886198,886203.58,889215.3,8,400,,,
trial,html.Screen,4_137_0,2023-09-08T20:01:10.705Z,,0,3,,2857.6999999999534,response,ISIC_0064095.JPG,11,ISIC_0356611.JPG,ISIC_0064095.JPG,false,1,keypress(m),500,892073,892073,889214.28,889219,889215.3,892076.6,8,400,38,,ISIC_0356611.JPG
break,html.Screen,4_137_1,2023-09-08T20:01:10.707Z,,0,,,NaN,,,,,,false,,,,892076,892075,,892074,,892076.6,8,400,,,
break_continue,html.Screen,4_137_2,2023-09-08T20:01:10.709Z,,0,,,NaN,,,,,,false,,,,892077,892076,,892076,,892076.6,8,400,,,
sequence,flow.Sequence,4_137,2023-09-08T20:01:10.710Z,,0,,,2860.6999999999534,completion,,,,,false,,,,892079,892076,889214.28,889219,889215.3,892076.6,8,400,,,
trial,html.Screen,4_138_0,2023-09-08T20:01:13.695Z,,0,3,,2986.4000000000233,response,ISIC_0062158.JPG,0,ISIC_0011374.JPG,ISIC_0011374.JPG,false,0,keypress(z),500,895063,895063,892074.28,892080,892076.6,895071.58,8,400,39,,ISIC_0062158.JPG
break,html.Screen,4_138_1,2023-09-08T20:01:13.697Z,,0,,,NaN,,,,,,false,,,,895065,895065,,895064,,895071.58,8,400,,,
break_continue,html.Screen,4_138_2,2023-09-08T20:01:13.699Z,,0,,,NaN,,,,,,false,,,,895067,895066,,895066,,895071.58,8,400,,,
sequence,flow.Sequence,4_138,2023-09-08T20:01:13.699Z,,0,,,2989.4000000000233,completion,,,,,false,,,,895068,895066,892074.28,892079,892076.6,895071.58,8,400,,,
trial,html.Screen,4_139_0,2023-09-08T20:01:16.455Z,,0,3,,2750.420000000042,response,ISIC_0031213.JPG,12,ISIC_0001149.JPG,ISIC_0031213.JPG,false,1,keypress(m),500,897823,897822,895064.2,895068,895071.58,897832.5,8,400,40,,ISIC_0001149.JPG
break,html.Screen,4_139_1,2023-09-08T20:01:16.456Z,,0,,,NaN,,,,,,false,,,,897824,897824,,897823,,897832.5,8,400,,,
break_continue,html.Screen,4_139_2,2023-09-08T20:01:16.457Z,,0,,,NaN,,,,,,false,,,,897825,897824,,897824,,897832.5,8,400,,,
sequence,flow.Sequence,4_139,2023-09-08T20:01:16.458Z,,0,,,2752.420000000042,completion,,,,,false,,,,897825,897824,895064.2,895068,895071.58,897832.5,8,400,,,
trial,html.Screen,4_140_0,2023-09-08T20:01:19.675Z,,0,3,,3210.5,response,ISIC_9696502.JPG,15,ISIC_0054652.JPG,ISIC_0054652.JPG,false,0,keypress(z),500,901045,901043,897823.44,897826,897832.5,901044.86,8,400,41,,ISIC_9696502.JPG
break,html.Screen,4_140_1,2023-09-08T20:01:19.678Z,,0,,,NaN,,,,,,false,,,,901046,901045,,901045,,901044.86,8,400,,,
break_continue,html.Screen,4_140_2,2023-09-08T20:01:19.679Z,,0,,,NaN,,,,,,false,,,,901048,901047,,901046,,901044.86,8,400,,,
sequence,flow.Sequence,4_140,2023-09-08T20:01:19.681Z,,0,,,3214.5,completion,,,,,false,,,,901049,901047,897823.44,897826,897832.5,901044.86,8,400,,,
trial,html.Screen,4_141_0,2023-09-08T20:01:22.785Z,,0,3,,3107.140000000014,response,ISIC_9947369.JPG,11,ISIC_7797853.JPG,ISIC_9947369.JPG,false,1,keypress(m),500,904153,904152,901044.72,901050,901044.86,904156.88,8,400,42,,ISIC_7797853.JPG
break,html.Screen,4_141_1,2023-09-08T20:01:22.786Z,,0,,,NaN,,,,,,false,,,,904154,904154,,904153,,904156.88,8,400,,,
break_continue,html.Screen,4_141_2,2023-09-08T20:01:22.787Z,,0,,,NaN,,,,,,false,,,,904155,904155,,904154,,904156.88,8,400,,,
sequence,flow.Sequence,4_141,2023-09-08T20:01:22.787Z,,0,,,3110.140000000014,completion,,,,,false,,,,904155,904155,901044.72,901050,901044.86,904156.88,8,400,,,
trial,html.Screen,4_142_0,2023-09-08T20:01:25.665Z,,0,3,,2876.1199999999953,response,ISIC_5307086.JPG,15,ISIC_0027432.JPG,ISIC_5307086.JPG,false,1,keypress(m),500,907034,907033,904153.54,904156,904156.88,907034.86,8,400,43,,ISIC_0027432.JPG
break,html.Screen,4_142_1,2023-09-08T20:01:25.667Z,,0,,,NaN,,,,,,false,,,,907035,907035,,907034,,907034.86,8,400,,,
break_continue,html.Screen,4_142_2,2023-09-08T20:01:25.668Z,,0,,,NaN,,,,,,false,,,,907036,907036,,907035,,907034.86,8,400,,,
sequence,flow.Sequence,4_142,2023-09-08T20:01:25.669Z,,0,,,2879.1199999999953,completion,,,,,false,,,,907038,907036,904153.54,904155,904156.88,907034.86,8,400,,,
trial,html.Screen,4_143_0,2023-09-08T20:01:28.706Z,,0,3,,3037.140000000014,response,ISIC_0663941.JPG,11,ISIC_0015115.JPG,ISIC_0663941.JPG,false,1,keypress(m),500,910073,910072,907034.04,907039,907034.86,910081.96,8,400,44,,ISIC_0015115.JPG
break,html.Screen,4_143_1,2023-09-08T20:01:28.707Z,,0,,,NaN,,,,,,false,,,,910076,910075,,910074,,910081.96,8,400,,,
break_continue,html.Screen,4_143_2,2023-09-08T20:01:28.709Z,,0,,,NaN,,,,,,false,,,,910078,910077,,910077,,910081.96,8,400,,,
sequence,flow.Sequence,4_143,2023-09-08T20:01:28.710Z,,0,,,3042.140000000014,completion,,,,,false,,,,910078,910077,907034.04,907039,907034.86,910081.96,8,400,,,
trial,html.Screen,4_144_0,2023-09-08T20:01:31.645Z,,0,3,,2930.0400000000373,response,ISIC_0000466.JPG,12,ISIC_1226882.JPG,ISIC_0000466.JPG,false,1,keypress(m),500,913013,913012,910074.52,910079,910081.96,913027.16,8,400,45,,ISIC_1226882.JPG
break,html.Screen,4_144_1,2023-09-08T20:01:31.647Z,,0,,,NaN,,,,,,false,,,,913015,913015,,913014,,913027.16,8,400,,,
break_continue,html.Screen,4_144_2,2023-09-08T20:01:31.647Z,,0,,,NaN,,,,,,false,,,,913016,913016,,913016,,913027.16,8,400,,,
sequence,flow.Sequence,4_144,2023-09-08T20:01:31.649Z,,0,,,2934.0400000000373,completion,,,,,false,,,,913017,913016,910074.52,910079,910081.96,913027.16,8,400,,,
trial,html.Screen,4_145_0,2023-09-08T20:01:34.675Z,,0,3,,3014.8399999999674,response,ISIC_0002041.JPG,13,ISIC_0074311.JPG,ISIC_0074311.JPG,false,0,keypress(z),500,916043,916042,913013.82,913018,913027.16,916055.6,8,400,46,,ISIC_0002041.JPG
break,html.Screen,4_145_1,2023-09-08T20:01:34.677Z,,0,,,NaN,,,,,,false,,,,916045,916044,,916043,,916055.6,8,400,,,
break_continue,html.Screen,4_145_2,2023-09-08T20:01:34.678Z,,0,,,NaN,,,,,,false,,,,916047,916046,,916045,,916055.6,8,400,,,
sequence,flow.Sequence,4_145,2023-09-08T20:01:34.679Z,,0,,,3018.8399999999674,completion,,,,,false,,,,916047,916046,913013.82,913018,913027.16,916055.6,8,400,,,
trial,html.Screen,4_146_0,2023-09-08T20:01:37.977Z,,0,3,,3289.4000000000233,response,ISIC_7658729.JPG,13,ISIC_1175291.JPG,ISIC_7658729.JPG,false,1,keypress(m),500,919345,919345,916043.62,916048,916055.6,919351.56,8,400,47,,ISIC_1175291.JPG
break,html.Screen,4_146_1,2023-09-08T20:01:37.978Z,,0,,,NaN,,,,,,false,,,,919346,919346,,919346,,919351.56,8,400,,,
break_continue,html.Screen,4_146_2,2023-09-08T20:01:37.979Z,,0,,,NaN,,,,,,false,,,,919346,919346,,919346,,919351.56,8,400,,,
sequence,flow.Sequence,4_146,2023-09-08T20:01:37.979Z,,0,,,3290.4000000000233,completion,,,,,false,,,,919347,919346,916043.62,916048,916055.6,919351.56,8,400,,,
trial,html.Screen,4_147_0,2023-09-08T20:01:41.254Z,,0,3,,3270.439999999944,response,ISIC_0068427.JPG,14,ISIC_0014558.JPG,ISIC_0068427.JPG,false,1,keypress(m),500,922623,922622,919345.38,919347,919351.56,922630.72,8,400,48,,ISIC_0014558.JPG
break,html.Screen,4_147_1,2023-09-08T20:01:41.256Z,,0,,,NaN,,,,,,false,,,,922625,922625,,922624,,922630.72,8,400,,,
break_continue,html.Screen,4_147_2,2023-09-08T20:01:41.258Z,,0,,,NaN,,,,,,false,,,,922627,922626,,922626,,922630.72,8,400,,,
sequence,flow.Sequence,4_147,2023-09-08T20:01:41.259Z,,0,,,3274.439999999944,completion,,,,,false,,,,922627,922626,919345.38,919347,919351.56,922630.72,8,400,,,
trial,html.Screen,4_148_0,2023-09-08T20:01:44.685Z,,0,3,,3422.280000000028,response,ISIC_6201338.JPG,13,ISIC_0073119.JPG,ISIC_0073119.JPG,false,0,keypress(z),500,926053,926053,922623.76,922628,922630.72,926079.16,8,400,49,,ISIC_6201338.JPG
break,html.Screen,4_148_1,2023-09-08T20:01:44.686Z,,0,,,NaN,,,,,,false,,,,926055,926054,,926054,,926079.16,8,400,,,
break_continue,html.Screen,4_148_2,2023-09-08T20:01:44.688Z,,0,,,NaN,,,,,,false,,,,926056,926056,,926056,,926079.16,8,400,,,
sequence,flow.Sequence,4_148,2023-09-08T20:01:44.688Z,,0,,,3425.280000000028,completion,,,,,false,,,,926057,926056,922623.76,922628,922630.72,926079.16,8,400,,,
trial,html.Screen,4_149_0,2023-09-08T20:01:48.335Z,,0,3,,3622.8399999999674,response,ISIC_0012653.JPG,14,ISIC_8764464.JPG,ISIC_8764464.JPG,false,0,keypress(z),500,929703,929702,926062.44,926057,926079.16,929709.5,8,400,50,,ISIC_0012653.JPG
break,html.Screen,4_149_1,2023-09-08T20:01:58.333Z,,0,,,10005.599999999977,timeout,,,,,false,,,,939702,939698.38,929703.66,929704,929709.5,939715.1,8,400,,,
break_continue,html.Screen,4_149_2,2023-09-08T20:02:03.413Z,,0,,,5010.900000000023,response,,,,,false,continue,keypress(Space),,944781,944726,939698.38,939703,939715.1,944786.7,8,400,,,
sequence,flow.Sequence,4_149,2023-09-08T20:02:03.413Z,,0,,,18646.839999999967,completion,,,,,false,,,,944781,944726,926062.44,926057,926079.16,944786.7,8,400,,,
