sender,sender_type,sender_id,timestamp,meta,,blockNo,condition,duration,ended_on,img_left,img_reveal,img_right,loser,practice,response,response_action,selection_duration,time_commit,time_end,time_render,time_run,time_show,time_switch,total_blocks,total_trials,trialNo,url,winner
informed_consent,html.Screen,0,2023-09-14T03:40:00.430Z,"{""labjs_version"":""20.2.4"",""labjs_build"":{""flavor"":""production"",""commit"":""f5b4a49f956347addd546a832a3327688c2c0fef""},""location"":""https://run.pavlovia.org/MurrayBennett/melanoma-2afc/?participant=67379&platform=sona"",""userAgent"":""Mozilla/5.0 (Windows NT 10.0; Win64; x64) AppleWebKit/537.36 (KHTML, like Gecko) Chrome/116.0.0.0 Safari/537.36 Edg/116.0.1938.81"",""platform"":""Win32"",""language"":""en-US"",""locale"":""en-US"",""timeZone"":""America/Chicago"",""timezoneOffset"":300,""screen_width"":1280,""screen_height"":720,""scroll_width"":1185,""scroll_height"":598,""window_innerWidth"":1185,""window_innerHeight"":598,""devicePixelRatio"":1.5}",,,,1962.1569999046324,response,,,,,,consent,click button,,4054.899999976158,4052.0999999046326,2073.364,2085.5,2089.943,4072.666,,,,"{""participant"":""67379"",""platform"":""sona""}",
Welcome,html.Screen,1,2023-09-14T03:40:02.505Z,,,,colourful,2054.5339999284743,response,,,,,,continue,click button,,6129.099999904633,6127.199999928474,4039.106,4055.399999976158,4072.666,6137.978,,,,,
trial,html.Screen,2_0_0,2023-09-14T03:40:12.421Z,,0,0,,9907.121999904633,response,ISIC_0063388.JPG,,ISIC_0025593.JPG,ISIC_0025593.JPG,true,0,keypress(Z),500,16045.5,16045.099999904633,6121.817,6129.599999904633,6137.978,16049.635,1,6,1,,ISIC_0063388.JPG
sequence,flow.Sequence,2_0,2023-09-14T03:40:12.421Z,,0,,,9907.121999904633,completion,,,,,true,,,,16045.899999976158,16045.099999904633,6121.817,6129.5,6137.978,16049.635,1,6,,,
trial,html.Screen,2_1_0,2023-09-14T03:40:22.339Z,,0,0,,9913.064999928474,response,ISIC_1309015.JPG,,ISIC_0028178.JPG,ISIC_1309015.JPG,true,1,keypress(m),500,25963,25962.699999928474,16033.946,16046.099999904633,16049.635,25978.07,1,6,2,,ISIC_0028178.JPG
sequence,flow.Sequence,2_1,2023-09-14T03:40:22.339Z,,0,,,9913.064999928474,completion,,,,,true,,,,25963.399999976158,25962.699999928474,16033.946,16046.099999904633,16049.635,25978.07,1,6,,,
trial,html.Screen,2_2_0,2023-09-14T03:40:24.957Z,,0,0,,2602.8299999761584,response,ISIC_3314853.JPG,,ISIC_0031128.JPG,ISIC_3314853.JPG,true,1,keypress(m),500,28581.199999928474,28580.899999976158,25963.364,25963.599999904633,25978.07,28593.452,1,6,3,,ISIC_0031128.JPG
sequence,flow.Sequence,2_2,2023-09-14T03:40:24.957Z,,0,,,2602.8299999761584,completion,,,,,true,,,,28581.399999976158,28580.899999976158,25963.364,25963.5,25978.07,28593.452,1,6,,,
trial,html.Screen,2_3_0,2023-09-14T03:40:28.826Z,,0,0,,3856.447999976157,response,ISIC_8980141.JPG,,ISIC_0031612.JPG,ISIC_8980141.JPG,true,1,keypress(m),500,32450.799999952316,32449.899999976158,28577.763,28581.599999904633,28593.452,32458.582,1,6,4,,ISIC_0031612.JPG
sequence,flow.Sequence,2_3,2023-09-14T03:40:28.827Z,,0,,,3856.447999976157,completion,,,,,true,,,,32451.399999976158,32449.899999976158,28577.763,28581.599999904633,28593.452,32458.582,1,6,,,
trial,html.Screen,2_4_0,2023-09-14T03:40:31.740Z,,0,0,,2905.2179999523178,response,ISIC_1197737.JPG,,ISIC_9721604.JPG,ISIC_1197737.JPG,true,1,keypress(m),500,35364.199999928474,35363.799999952316,32441.949,32451.899999976158,32458.582,35374.827,1,6,5,,ISIC_9721604.JPG
sequence,flow.Sequence,2_4,2023-09-14T03:40:31.740Z,,0,,,2905.2179999523178,completion,,,,,true,,,,35364.59999990463,35363.799999952316,32441.949,32451.699999928474,32458.582,35374.827,1,6,,,
trial,html.Screen,2_5_0,2023-09-14T03:40:34.456Z,,0,0,,2705.472999952319,response,ISIC_0010681.JPG,,ISIC_0025346.JPG,ISIC_0010681.JPG,true,1,keypress(m),500,38080.699999928474,38080.299999952316,35356.745,35364.89999997616,35374.827,38088.588,1,6,6,,ISIC_0025346.JPG
sequence,flow.Sequence,2_5,2023-09-14T03:40:34.456Z,,0,,,2705.472999952319,completion,,,,,true,,,,38081,38080.299999952316,35356.745,35364.699999928474,35374.827,38088.588,1,6,,,
loop,flow.Loop,2,2023-09-14T03:40:34.457Z,,,,,31942.321999952317,completion,,,,,true,,,,38081.199999928474,38080.299999952316,6121.817,6129.5,6137.978,38088.588,1,6,,,
exp_instructions,html.Screen,3,2023-09-14T03:40:35.553Z,,,,,1087.9119999999966,response,,,,,,continue,keypress(Space),,39177.39999997616,39176.5,38073.968,38081.299999952316,38088.588,39188.377,,,,,
trial,html.Screen,4_0_0,2023-09-14T03:40:38.793Z,,0,1,,3228.722999904632,response,ISIC_0032927.JPG,9,ISIC_9881460.JPG,ISIC_9881460.JPG,false,0,keypress(z),500,42417.39999997616,42417.09999990463,39170.361,39177.699999928474,39188.377,42419.793,8,400,1,,ISIC_0032927.JPG
break,html.Screen,4_0_1,2023-09-14T03:40:38.794Z,,0,,,NaN,,,,,,false,,,,42418.39999997616,42418,,42417.59999990463,,42419.793,8,400,,,
break_continue,html.Screen,4_0_2,2023-09-14T03:40:38.794Z,,0,,,NaN,,,,,,false,,,,42419,42418.799999952316,,42418.59999990463,,42419.793,8,400,,,
sequence,flow.Sequence,4_0,2023-09-14T03:40:38.795Z,,0,,,3230.422999952316,completion,,,,,false,,,,42419.199999928474,42418.799999952316,39170.361,39177.59999990463,39188.377,42419.793,8,400,,,
trial,html.Screen,4_1_0,2023-09-14T03:40:42.799Z,,0,1,,4003.5069999523184,response,ISIC_0033037.JPG,12,ISIC_8838753.JPG,ISIC_8838753.JPG,false,0,keypress(z),500,46423.5,46423.299999952316,42403.121,42419.299999952316,42419.793,46434.591,8,400,2,,ISIC_0033037.JPG
break,html.Screen,4_1_1,2023-09-14T03:40:42.800Z,,0,,,NaN,,,,,,false,,,,46424.299999952316,46424.09999990463,,46423.799999952316,,46434.591,8,400,,,
break_continue,html.Screen,4_1_2,2023-09-14T03:40:42.800Z,,0,,,NaN,,,,,,false,,,,46424.799999952316,46424.799999952316,,46424.699999928474,,46434.591,8,400,,,
sequence,flow.Sequence,4_1,2023-09-14T03:40:42.801Z,,0,,,4005.0069999523184,completion,,,,,false,,,,46425,46424.799999952316,42403.121,42419.299999952316,42419.793,46434.591,8,400,,,
trial,html.Screen,4_2_0,2023-09-14T03:40:45.511Z,,0,1,,2700.4089999999997,response,ISIC_0062026.JPG,11,ISIC_6546903.JPG,ISIC_6546903.JPG,false,0,keypress(z),500,49135.59999990463,49135,46417.851,46425.09999990463,46434.591,49149.837,8,400,3,,ISIC_0062026.JPG
break,html.Screen,4_2_1,2023-09-14T03:40:45.512Z,,0,,,NaN,,,,,,false,,,,49136.699999928474,49136.299999952316,,49136,,49149.837,8,400,,,
break_continue,html.Screen,4_2_2,2023-09-14T03:40:45.513Z,,0,,,NaN,,,,,,false,,,,49137.199999928474,49137.09999990463,,49136.89999997616,,49149.837,8,400,,,
sequence,flow.Sequence,4_2,2023-09-14T03:40:45.513Z,,0,,,2702.508999904632,completion,,,,,false,,,,49137.39999997616,49137.09999990463,46417.851,46425.09999990463,46434.591,49149.837,8,400,,,
trial,html.Screen,4_3_0,2023-09-14T03:40:48.154Z,,0,1,,2628.862999928475,response,ISIC_6475049.JPG,5,ISIC_0010714.JPG,ISIC_6475049.JPG,false,1,keypress(m),500,51778.89999997616,51778.699999928474,49122.897,49137.59999990463,49149.837,51781.74,8,400,4,,ISIC_0010714.JPG
break,html.Screen,4_3_1,2023-09-14T03:40:48.155Z,,0,,,NaN,,,,,,false,,,,51779.799999952316,51779.5,,51779.09999990463,,51781.74,8,400,,,
break_continue,html.Screen,4_3_2,2023-09-14T03:40:48.156Z,,0,,,NaN,,,,,,false,,,,51780.299999952316,51780.199999928474,,51780.09999990463,,51781.74,8,400,,,
sequence,flow.Sequence,4_3,2023-09-14T03:40:48.156Z,,0,,,2630.362999928475,completion,,,,,false,,,,51780.5,51780.199999928474,49122.897,49137.5,49149.837,51781.74,8,400,,,
trial,html.Screen,4_4_0,2023-09-14T03:40:52.089Z,,0,1,,3931.9599999284765,response,ISIC_4384341.JPG,8,ISIC_4559115.JPG,ISIC_4559115.JPG,false,0,keypress(z),500,55713.89999997616,55713.699999928474,51764.739,51781.5,51781.74,55729.871,8,400,5,,ISIC_4384341.JPG
break,html.Screen,4_4_1,2023-09-14T03:40:52.090Z,,0,,,NaN,,,,,,false,,,,55714.799999952316,55714.5,,55714.09999990463,,55729.871,8,400,,,
break_continue,html.Screen,4_4_2,2023-09-14T03:40:52.091Z,,0,,,NaN,,,,,,false,,,,55715.299999952316,55715.299999952316,,55715,,55729.871,8,400,,,
sequence,flow.Sequence,4_4,2023-09-14T03:40:52.091Z,,0,,,3933.5599999523183,completion,,,,,false,,,,55715.5,55715.299999952316,51764.739,51781.5,51781.74,55729.871,8,400,,,
trial,html.Screen,4_5_0,2023-09-14T03:40:56.856Z,,0,1,,4749.828999928475,response,ISIC_0058071.JPG,5,ISIC_1654342.JPG,ISIC_1654342.JPG,false,0,keypress(z),500,60480,60479.699999928474,55713.278,55715.699999928474,55729.871,60494.116,8,400,6,,ISIC_0058071.JPG
break,html.Screen,4_5_1,2023-09-14T03:40:56.857Z,,0,,,NaN,,,,,,false,,,,60481.5,60481.09999990463,,60480.59999990463,,60494.116,8,400,,,
break_continue,html.Screen,4_5_2,2023-09-14T03:40:56.858Z,,0,,,NaN,,,,,,false,,,,60482.199999928474,60482,,60481.799999952316,,60494.116,8,400,,,
sequence,flow.Sequence,4_5,2023-09-14T03:40:56.858Z,,0,,,4752.129000000001,completion,,,,,false,,,,60482.5,60482,55713.278,55715.59999990463,55729.871,60494.116,8,400,,,
trial,html.Screen,4_6_0,2023-09-14T03:41:00.414Z,,0,1,,3543.5839999284726,response,ISIC_8570555.JPG,0,ISIC_1757941.JPG,ISIC_8570555.JPG,false,1,keypress(m),500,64037.89999997616,64037.699999928474,60477.475,60482.5,60494.116,64042.251,8,400,7,,ISIC_1757941.JPG
break,html.Screen,4_6_1,2023-09-14T03:41:00.415Z,,0,,,NaN,,,,,,false,,,,64038.89999997616,64038.5,,64038.09999990463,,64042.251,8,400,,,
break_continue,html.Screen,4_6_2,2023-09-14T03:41:00.415Z,,0,,,NaN,,,,,,false,,,,64039.199999928474,64039.199999928474,,64039.09999990463,,64042.251,8,400,,,
sequence,flow.Sequence,4_6,2023-09-14T03:41:00.415Z,,0,,,3545.0839999284726,completion,,,,,false,,,,64039.39999997616,64039.199999928474,60477.475,60482.5,60494.116,64042.251,8,400,,,
trial,html.Screen,4_7_0,2023-09-14T03:41:04.743Z,,0,1,,4324.848999904636,response,ISIC_0013501.JPG,22,ISIC_0067830.JPG,ISIC_0013501.JPG,false,1,keypress(m),500,68367.5,68367.09999990463,64032.367,64039.59999990463,64042.251,68373.392,8,400,8,,ISIC_0067830.JPG
break,html.Screen,4_7_1,2023-09-14T03:41:04.744Z,,0,,,NaN,,,,,,false,,,,68368.09999990463,68367.89999997616,,68367.59999990463,,68373.392,8,400,,,
break_continue,html.Screen,4_7_2,2023-09-14T03:41:04.744Z,,0,,,NaN,,,,,,false,,,,68368.69999992847,68368.59999990463,,68368.29999995232,,68373.392,8,400,,,
sequence,flow.Sequence,4_7,2023-09-14T03:41:04.745Z,,0,,,4326.348999904636,completion,,,,,false,,,,68368.79999995232,68368.59999990463,64032.367,64039.59999990463,64042.251,68373.392,8,400,,,
trial,html.Screen,4_8_0,2023-09-14T03:41:08.287Z,,0,1,,3537.507999976151,response,ISIC_7594601.JPG,8,ISIC_0069124.JPG,ISIC_0069124.JPG,false,0,keypress(z),500,71911.29999995232,71910.89999997616,68357.355,68368.89999997616,68373.392,71921.609,8,400,9,,ISIC_7594601.JPG
break,html.Screen,4_8_1,2023-09-14T03:41:08.292Z,,0,,,NaN,,,,,,false,,,,71916.19999992847,71915.69999992847,,71915.09999990463,,71921.609,8,400,,,
break_continue,html.Screen,4_8_2,2023-09-14T03:41:08.294Z,,0,,,NaN,,,,,,false,,,,71917.79999995232,71917.69999992847,,71917.5,,71921.609,8,400,,,
sequence,flow.Sequence,4_8,2023-09-14T03:41:08.294Z,,0,,,3544.3079999284673,completion,,,,,false,,,,71918,71917.69999992847,68357.355,68368.89999997616,68373.392,71921.609,8,400,,,
trial,html.Screen,4_9_0,2023-09-14T03:41:11.991Z,,0,1,,3693.490999904636,response,ISIC_0350472.JPG,22,ISIC_0033946.JPG,ISIC_0033946.JPG,false,0,keypress(z),500,75615.5,75615.09999990463,71905.201,71918.09999990463,71921.609,75619.947,8,400,10,,ISIC_0350472.JPG
break,html.Screen,4_9_1,2023-09-14T03:41:11.992Z,,0,,,NaN,,,,,,false,,,,75616.29999995232,75616,,75615.69999992847,,75619.947,8,400,,,
break_continue,html.Screen,4_9_2,2023-09-14T03:41:11.992Z,,0,,,NaN,,,,,,false,,,,75616.79999995232,75616.59999990463,,75616.59999990463,,75619.947,8,400,,,
sequence,flow.Sequence,4_9,2023-09-14T03:41:11.993Z,,0,,,3694.990999904636,completion,,,,,false,,,,75616.89999997616,75616.59999990463,71905.201,71918.09999990463,71921.609,75619.947,8,400,,,
trial,html.Screen,4_10_0,2023-09-14T03:41:15.450Z,,0,1,,3453.852999952316,response,ISIC_0034166.JPG,11,ISIC_8711854.JPG,ISIC_0034166.JPG,false,1,keypress(m),500,79074,79073.79999995232,75604.954,75617,75619.947,79084.884,8,400,11,,ISIC_8711854.JPG
break,html.Screen,4_10_1,2023-09-14T03:41:15.451Z,,0,,,NaN,,,,,,false,,,,79075.09999990463,79074.59999990463,,79074.19999992847,,79084.884,8,400,,,
break_continue,html.Screen,4_10_2,2023-09-14T03:41:15.451Z,,0,,,NaN,,,,,,false,,,,79075.59999990463,79075.5,,79075.29999995232,,79084.884,8,400,,,
sequence,flow.Sequence,4_10,2023-09-14T03:41:15.451Z,,0,,,3455.553,completion,,,,,false,,,,79075.79999995232,79075.5,75604.954,75617,75619.947,79084.884,8,400,,,
trial,html.Screen,4_11_0,2023-09-14T03:41:18.796Z,,0,1,,3335.6159999999945,response,ISIC_5738369.JPG,16,ISIC_3495113.JPG,ISIC_3495113.JPG,false,0,keypress(z),500,82420.69999992847,82420.5,79068.974,79075.89999997616,79084.884,82433.287,8,400,12,,ISIC_5738369.JPG
break,html.Screen,4_11_1,2023-09-14T03:41:18.797Z,,0,,,NaN,,,,,,false,,,,82421.59999990463,82421.29999995232,,82421,,82433.287,8,400,,,
break_continue,html.Screen,4_11_2,2023-09-14T03:41:18.798Z,,0,,,NaN,,,,,,false,,,,82422.09999990463,82422,,82421.89999997616,,82433.287,8,400,,,
sequence,flow.Sequence,4_11,2023-09-14T03:41:18.798Z,,0,,,3337.1159999999945,completion,,,,,false,,,,82422.29999995232,82422,79068.974,79075.89999997616,79084.884,82433.287,8,400,,,
trial,html.Screen,4_12_0,2023-09-14T03:41:23.347Z,,0,1,,4537.912999928478,response,ISIC_2011408.JPG,1,ISIC_2752919.JPG,ISIC_2752919.JPG,false,0,keypress(z),500,86971.39999997616,86971.19999992847,82416.91,82422.39999997616,82433.287,86980.877,8,400,13,,ISIC_2011408.JPG
break,html.Screen,4_12_1,2023-09-14T03:41:23.348Z,,0,,,NaN,,,,,,false,,,,86972.09999990463,86971.89999997616,,86971.59999990463,,86980.877,8,400,,,
break_continue,html.Screen,4_12_2,2023-09-14T03:41:23.348Z,,0,,,NaN,,,,,,false,,,,86972.69999992847,86972.59999990463,,86972.39999997616,,86980.877,8,400,,,
sequence,flow.Sequence,4_12,2023-09-14T03:41:23.349Z,,0,,,4539.312999904636,completion,,,,,false,,,,86972.89999997616,86972.59999990463,82416.91,82422.39999997616,82433.287,86980.877,8,400,,,
trial,html.Screen,4_13_0,2023-09-14T03:41:26.415Z,,0,1,,3058.522999976165,response,ISIC_5110505.JPG,11,ISIC_0010803.JPG,ISIC_5110505.JPG,false,1,keypress(m),500,90039.69999992847,90039.39999997616,86964.504,86973,86980.877,90045.846,8,400,14,,ISIC_0010803.JPG
break,html.Screen,4_13_1,2023-09-14T03:41:26.416Z,,0,,,NaN,,,,,,false,,,,90040.5,90040.19999992847,,90039.89999997616,,90045.846,8,400,,,
break_continue,html.Screen,4_13_2,2023-09-14T03:41:26.417Z,,0,,,NaN,,,,,,false,,,,90041,90040.89999997616,,90040.69999992847,,90045.846,8,400,,,
sequence,flow.Sequence,4_13,2023-09-14T03:41:26.417Z,,0,,,3060.022999976165,completion,,,,,false,,,,90041.19999992847,90040.89999997616,86964.504,86972.89999997616,86980.877,90045.846,8,400,,,
trial,html.Screen,4_14_0,2023-09-14T03:41:29.452Z,,0,1,,3029.8539999284694,response,ISIC_0070709.JPG,11,ISIC_0066382.JPG,ISIC_0070709.JPG,false,1,keypress(m),500,93075.89999997616,93075.69999992847,90028.438,90041.39999997616,90045.846,93101.214,8,400,15,,ISIC_0066382.JPG
break,html.Screen,4_14_1,2023-09-14T03:41:29.452Z,,0,,,NaN,,,,,,false,,,,93076.79999995232,93076.5,,93076.19999992847,,93101.214,8,400,,,
break_continue,html.Screen,4_14_2,2023-09-14T03:41:29.453Z,,0,,,NaN,,,,,,false,,,,93077.39999997616,93077.29999995232,,93077.09999990463,,93101.214,8,400,,,
sequence,flow.Sequence,4_14,2023-09-14T03:41:29.453Z,,0,,,3031.4539999523113,completion,,,,,false,,,,93077.59999990463,93077.29999995232,90028.438,90041.29999995232,90045.846,93101.214,8,400,,,
trial,html.Screen,4_15_0,2023-09-14T03:41:32.029Z,,0,1,,2551.985999928467,response,ISIC_0031397.JPG,16,ISIC_5888212.JPG,ISIC_5888212.JPG,false,0,keypress(z),500,95653.39999997616,95653.19999992847,93061.269,93077.69999992847,93101.214,95659.731,8,400,16,,ISIC_0031397.JPG
break,html.Screen,4_15_1,2023-09-14T03:41:32.030Z,,0,,,NaN,,,,,,false,,,,95654.19999992847,95654,,95653.59999990463,,95659.731,8,400,,,
break_continue,html.Screen,4_15_2,2023-09-14T03:41:32.030Z,,0,,,NaN,,,,,,false,,,,95654.79999995232,95654.59999990463,,95654.5,,95659.731,8,400,,,
sequence,flow.Sequence,4_15,2023-09-14T03:41:32.031Z,,0,,,2553.3859999046254,completion,,,,,false,,,,95654.89999997616,95654.59999990463,93061.269,93077.59999990463,93101.214,95659.731,8,400,,,
trial,html.Screen,4_16_0,2023-09-14T03:41:35.207Z,,0,1,,3171.6689999761584,response,ISIC_0014110.JPG,19,ISIC_0025754.JPG,ISIC_0025754.JPG,false,0,keypress(z),500,98831.59999990463,98831.39999997616,95643.03,95655,95659.731,98841.504,8,400,17,,ISIC_0014110.JPG
break,html.Screen,4_16_1,2023-09-14T03:41:35.208Z,,0,,,NaN,,,,,,false,,,,98832.5,98832.29999995232,,98831.89999997616,,98841.504,8,400,,,
break_continue,html.Screen,4_16_2,2023-09-14T03:41:35.209Z,,0,,,NaN,,,,,,false,,,,98833.09999990463,98833,,98832.79999995232,,98841.504,8,400,,,
sequence,flow.Sequence,4_16,2023-09-14T03:41:35.209Z,,0,,,3173.2690000000002,completion,,,,,false,,,,98833.29999995232,98833,95643.03,95655,95659.731,98841.504,8,400,,,
trial,html.Screen,4_17_0,2023-09-14T03:41:38.109Z,,0,1,,2891.495999999999,response,ISIC_2366652.JPG,24,ISIC_1440377.JPG,ISIC_1440377.JPG,false,0,keypress(z),500,101733.39999997616,101733,98831.634,98833.39999997616,98841.504,101740.043,8,400,18,,ISIC_2366652.JPG
break,html.Screen,4_17_1,2023-09-14T03:41:38.110Z,,0,,,NaN,,,,,,false,,,,101734.5,101734,,101733.79999995232,,101740.043,8,400,,,
break_continue,html.Screen,4_17_2,2023-09-14T03:41:38.111Z,,0,,,NaN,,,,,,false,,,,101735,101734.79999995232,,101734.79999995232,,101740.043,8,400,,,
sequence,flow.Sequence,4_17,2023-09-14T03:41:38.111Z,,0,,,2893.2959999523155,completion,,,,,false,,,,101735.09999990463,101734.79999995232,98831.634,98833.39999997616,98841.504,101740.043,8,400,,,
trial,html.Screen,4_18_0,2023-09-14T03:41:41.087Z,,0,1,,2971.256999952311,response,ISIC_0029024.JPG,12,ISIC_2768150.JPG,ISIC_2768150.JPG,false,0,keypress(z),500,104711.69999992847,104711.29999995232,101722.854,101735.29999995232,101740.043,104721.856,8,400,19,,ISIC_0029024.JPG
break,html.Screen,4_18_1,2023-09-14T03:41:41.088Z,,0,,,NaN,,,,,,false,,,,104712.5,104712.29999995232,,104712,,104721.856,8,400,,,
break_continue,html.Screen,4_18_2,2023-09-14T03:41:41.089Z,,0,,,NaN,,,,,,false,,,,104713.09999990463,104712.89999997616,,104712.79999995232,,104721.856,8,400,,,
sequence,flow.Sequence,4_18,2023-09-14T03:41:41.089Z,,0,,,2972.856999976153,completion,,,,,false,,,,104713.19999992847,104712.89999997616,101722.854,101735.19999992847,101740.043,104721.856,8,400,,,
trial,html.Screen,4_19_0,2023-09-14T03:41:44.429Z,,0,1,,3331.1440000000002,response,ISIC_0026247.JPG,2,ISIC_6013764.JPG,ISIC_0026247.JPG,false,1,keypress(m),500,108053.5,108053,104705.246,104713.29999995232,104721.856,108070.372,8,400,20,,ISIC_6013764.JPG
break,html.Screen,4_19_1,2023-09-14T03:41:44.430Z,,0,,,NaN,,,,,,false,,,,108054.29999995232,108054.09999990463,,108053.69999992847,,108070.372,8,400,,,
break_continue,html.Screen,4_19_2,2023-09-14T03:41:44.431Z,,0,,,NaN,,,,,,false,,,,108054.79999995232,108054.69999992847,,108054.59999990463,,108070.372,8,400,,,
sequence,flow.Sequence,4_19,2023-09-14T03:41:44.431Z,,0,,,3332.8439999284747,completion,,,,,false,,,,108055,108054.69999992847,104705.246,104713.19999992847,104721.856,108070.372,8,400,,,
trial,html.Screen,4_20_0,2023-09-14T03:41:47.979Z,,0,1,,3532.7279999046295,response,ISIC_4826037.JPG,7,ISIC_0046537.JPG,ISIC_4826037.JPG,false,1,keypress(m),500,111603.29999995232,111603.09999990463,108053.708,108055,108070.372,111635.388,8,400,21,,ISIC_0046537.JPG
break,html.Screen,4_20_1,2023-09-14T03:41:47.980Z,,0,,,NaN,,,,,,false,,,,111603.89999997616,111603.79999995232,,111603.39999997616,,111635.388,8,400,,,
break_continue,html.Screen,4_20_2,2023-09-14T03:41:47.980Z,,0,,,NaN,,,,,,false,,,,111604.29999995232,111604.09999990463,,111604.09999990463,,111635.388,8,400,,,
sequence,flow.Sequence,4_20,2023-09-14T03:41:47.980Z,,0,,,3533.7279999046295,completion,,,,,false,,,,111604.39999997616,111604.09999990463,108053.708,108055,108070.372,111635.388,8,400,,,
trial,html.Screen,4_21_0,2023-09-14T03:41:50.613Z,,0,1,,2601.2119999046263,response,ISIC_0029672.JPG,26,ISIC_0056326.JPG,ISIC_0056326.JPG,false,0,keypress(z),500,114236.89999997616,114236.59999990463,111618.66,111604.59999990463,111635.388,114250.404,8,400,22,,ISIC_0029672.JPG
break,html.Screen,4_21_1,2023-09-14T03:41:50.613Z,,0,,,NaN,,,,,,false,,,,114237.59999990463,114237.5,,114237.09999990463,,114250.404,8,400,,,
break_continue,html.Screen,4_21_2,2023-09-14T03:41:50.614Z,,0,,,NaN,,,,,,false,,,,114238.19999992847,114238.09999990463,,114237.79999995232,,114250.404,8,400,,,
sequence,flow.Sequence,4_21,2023-09-14T03:41:50.614Z,,0,,,2602.7119999046263,completion,,,,,false,,,,114238.39999997616,114238.09999990463,111618.66,111604.59999990463,111635.388,114250.404,8,400,,,
trial,html.Screen,4_22_0,2023-09-14T03:41:53.316Z,,0,1,,2689.495999976163,response,ISIC_1155782.JPG,9,ISIC_0060033.JPG,ISIC_1155782.JPG,false,1,keypress(m),500,116940.09999990463,116939.89999997616,114233.558,114238.5,114250.404,116949.078,8,400,23,,ISIC_0060033.JPG
break,html.Screen,4_22_1,2023-09-14T03:41:53.317Z,,0,,,NaN,,,,,,false,,,,116941.19999992847,116940.69999992847,,116940.39999997616,,116949.078,8,400,,,
break_continue,html.Screen,4_22_2,2023-09-14T03:41:53.317Z,,0,,,NaN,,,,,,false,,,,116941.59999990463,116941.5,,116941.29999995232,,116949.078,8,400,,,
sequence,flow.Sequence,4_22,2023-09-14T03:41:53.317Z,,0,,,2691.096000000005,completion,,,,,false,,,,116941.69999992847,116941.5,114233.558,114238.39999997616,114250.404,116949.078,8,400,,,
trial,html.Screen,4_23_0,2023-09-14T03:41:56.341Z,,0,1,,3015.721999952322,response,ISIC_0014103.JPG,0,ISIC_0062468.JPG,ISIC_0014103.JPG,false,1,keypress(m),500,119965,119964.79999995232,116932.663,116941.89999997616,116949.078,119980.953,8,400,24,,ISIC_0062468.JPG
break,html.Screen,4_23_1,2023-09-14T03:41:56.342Z,,0,,,NaN,,,,,,false,,,,119966.09999990463,119965.59999990463,,119965.29999995232,,119980.953,8,400,,,
break_continue,html.Screen,4_23_2,2023-09-14T03:41:56.342Z,,0,,,NaN,,,,,,false,,,,119966.5,119966.39999997616,,119966.29999995232,,119980.953,8,400,,,
sequence,flow.Sequence,4_23,2023-09-14T03:41:56.342Z,,0,,,3017.321999976164,completion,,,,,false,,,,119966.69999992847,119966.39999997616,116932.663,116941.79999995232,116949.078,119980.953,8,400,,,
trial,html.Screen,4_24_0,2023-09-14T03:41:59.052Z,,0,1,,2694.7469999284804,response,ISIC_8066110.JPG,9,ISIC_0066114.JPG,ISIC_8066110.JPG,false,1,keypress(m),500,122675.89999997616,122675.69999992847,119964.406,119966.89999997616,119980.953,122679.51,8,400,25,,ISIC_0066114.JPG
break,html.Screen,4_24_1,2023-09-14T03:41:59.053Z,,0,,,NaN,,,,,,false,,,,122676.89999997616,122676.5,,122676.09999990463,,122679.51,8,400,,,
break_continue,html.Screen,4_24_2,2023-09-14T03:41:59.053Z,,0,,,NaN,,,,,,false,,,,122677.29999995232,122677.19999992847,,122677.09999990463,,122679.51,8,400,,,
sequence,flow.Sequence,4_24,2023-09-14T03:41:59.053Z,,0,,,2696.2469999284804,completion,,,,,false,,,,122677.39999997616,122677.19999992847,119964.406,119966.89999997616,119980.953,122679.51,8,400,,,
trial,html.Screen,4_25_0,2023-09-14T03:42:02.620Z,,0,1,,3564.6899999284797,response,ISIC_0030747.JPG,5,ISIC_5126638.JPG,ISIC_0030747.JPG,false,1,keypress(m),500,126244.5,126244.19999992847,122668.951,122677.5,122679.51,126261.153,8,400,26,,ISIC_5126638.JPG
break,html.Screen,4_25_1,2023-09-14T03:42:02.621Z,,0,,,NaN,,,,,,false,,,,126245.29999995232,126245.09999990463,,126244.69999992847,,126261.153,8,400,,,
break_continue,html.Screen,4_25_2,2023-09-14T03:42:02.622Z,,0,,,NaN,,,,,,false,,,,126245.69999992847,126245.69999992847,,126245.5,,126261.153,8,400,,,
sequence,flow.Sequence,4_25,2023-09-14T03:42:02.622Z,,0,,,3566.1899999284797,completion,,,,,false,,,,126246,126245.69999992847,122668.951,122677.5,122679.51,126261.153,8,400,,,
trial,html.Screen,4_26_0,2023-09-14T03:42:05.470Z,,0,1,,2832.6469999523106,response,ISIC_6780471.JPG,10,ISIC_0031926.JPG,ISIC_6780471.JPG,false,1,keypress(m),500,129094,129093.79999995232,126244.547,126246.09999990463,126261.153,129109.813,8,400,27,,ISIC_0031926.JPG
break,html.Screen,4_26_1,2023-09-14T03:42:05.470Z,,0,,,NaN,,,,,,false,,,,129094.69999992847,129094.5,,129094.09999990463,,129109.813,8,400,,,
break_continue,html.Screen,4_26_2,2023-09-14T03:42:05.471Z,,0,,,NaN,,,,,,false,,,,129095.29999995232,129095.09999990463,,129095,,129109.813,8,400,,,
sequence,flow.Sequence,4_26,2023-09-14T03:42:05.471Z,,0,,,2833.946999904627,completion,,,,,false,,,,129095.39999997616,129095.09999990463,126244.547,126246,126261.153,129109.813,8,400,,,
trial,html.Screen,4_27_0,2023-09-14T03:42:08.185Z,,0,1,,2699.1870000000054,response,ISIC_4049598.JPG,2,ISIC_2748736.JPG,ISIC_2748736.JPG,false,0,keypress(z),500,131809.29999995232,131809,129092.835,129095.69999992847,129109.813,131824.978,8,400,28,,ISIC_4049598.JPG
break,html.Screen,4_27_1,2023-09-14T03:42:08.186Z,,0,,,NaN,,,,,,false,,,,131810.39999997616,131810.09999990463,,131809.59999990463,,131824.978,8,400,,,
break_continue,html.Screen,4_27_2,2023-09-14T03:42:08.187Z,,0,,,NaN,,,,,,false,,,,131810.79999995232,131810.69999992847,,131810.5,,131824.978,8,400,,,
sequence,flow.Sequence,4_27,2023-09-14T03:42:08.187Z,,0,,,2700.88699992848,completion,,,,,false,,,,131811,131810.69999992847,129092.835,129095.59999990463,129109.813,131824.978,8,400,,,
trial,html.Screen,4_28_0,2023-09-14T03:42:11.546Z,,0,1,,3345.2219999284716,response,ISIC_0054043.JPG,6,ISIC_0027056.JPG,ISIC_0027056.JPG,false,0,keypress(z),500,135170.69999992847,135170.19999992847,131807.575,131811,131824.978,135173.264,8,400,29,,ISIC_0054043.JPG
break,html.Screen,4_28_1,2023-09-14T03:42:11.547Z,,0,,,NaN,,,,,,false,,,,135171.5,135171.19999992847,,135170.89999997616,,135173.264,8,400,,,
break_continue,html.Screen,4_28_2,2023-09-14T03:42:11.548Z,,0,,,NaN,,,,,,false,,,,135172.09999990463,135171.89999997616,,135171.79999995232,,135173.264,8,400,,,
sequence,flow.Sequence,4_28,2023-09-14T03:42:11.548Z,,0,,,3346.9219999761553,completion,,,,,false,,,,135172.29999995232,135171.89999997616,131807.575,131811,131824.978,135173.264,8,400,,,
trial,html.Screen,4_29_0,2023-09-14T03:42:14.819Z,,0,1,,3269.835999904637,response,ISIC_3440004.JPG,8,ISIC_6375439.JPG,ISIC_3440004.JPG,false,1,keypress(m),500,138443.39999997616,138443.09999990463,135156.428,135172.5,135173.264,138455.069,8,400,30,,ISIC_6375439.JPG
break,html.Screen,4_29_1,2023-09-14T03:42:14.820Z,,0,,,NaN,,,,,,false,,,,138444.29999995232,138444,,138443.5,,138455.069,8,400,,,
break_continue,html.Screen,4_29_2,2023-09-14T03:42:14.821Z,,0,,,NaN,,,,,,false,,,,138444.79999995232,138444.69999992847,,138444.5,,138455.069,8,400,,,
sequence,flow.Sequence,4_29,2023-09-14T03:42:14.821Z,,0,,,3271.435999928479,completion,,,,,false,,,,138445,138444.69999992847,135156.428,135172.39999997616,135173.264,138455.069,8,400,,,
trial,html.Screen,4_30_0,2023-09-14T03:42:17.703Z,,0,1,,2871.530999904644,response,ISIC_0033164.JPG,12,ISIC_7145788.JPG,ISIC_7145788.JPG,false,0,keypress(z),500,141326.79999995232,141326.59999990463,138438.273,138445.09999990463,138455.069,141336.984,8,400,31,,ISIC_0033164.JPG
break,html.Screen,4_30_1,2023-09-14T03:42:17.704Z,,0,,,NaN,,,,,,false,,,,141327.79999995232,141327.39999997616,,141327.09999990463,,141336.984,8,400,,,
break_continue,html.Screen,4_30_2,2023-09-14T03:42:17.704Z,,0,,,NaN,,,,,,false,,,,141328.29999995232,141328.19999992847,,141328,,141336.984,8,400,,,
sequence,flow.Sequence,4_30,2023-09-14T03:42:17.704Z,,0,,,2873.130999928486,completion,,,,,false,,,,141328.5,141328.19999992847,138438.273,138445.09999990463,138455.069,141336.984,8,400,,,
trial,html.Screen,4_31_0,2023-09-14T03:42:20.374Z,,0,1,,2661.3159999523195,response,ISIC_0054248.JPG,2,ISIC_0011164.JPG,ISIC_0011164.JPG,false,0,keypress(z),500,143998.5,143998.29999995232,141320.22,141328.59999990463,141336.984,144002.206,8,400,32,,ISIC_0054248.JPG
break,html.Screen,4_31_1,2023-09-14T03:42:20.375Z,,0,,,NaN,,,,,,false,,,,143999.5,143999.19999992847,,143998.89999997616,,144002.206,8,400,,,
break_continue,html.Screen,4_31_2,2023-09-14T03:42:20.376Z,,0,,,NaN,,,,,,false,,,,143999.89999997616,143999.79999995232,,143999.69999992847,,144002.206,8,400,,,
sequence,flow.Sequence,4_31,2023-09-14T03:42:20.376Z,,0,,,2662.8159999523195,completion,,,,,false,,,,144000.09999990463,143999.79999995232,141320.22,141328.59999990463,141336.984,144002.206,8,400,,,
trial,html.Screen,4_32_0,2023-09-14T03:42:24.422Z,,0,1,,4043.393999904627,response,ISIC_1450548.JPG,6,ISIC_5416978.JPG,ISIC_5416978.JPG,false,0,keypress(z),500,148045.79999995232,148045.59999990463,143985.486,144000.19999992847,144002.206,148050.294,8,400,33,,ISIC_1450548.JPG
break,html.Screen,4_32_1,2023-09-14T03:42:24.423Z,,0,,,NaN,,,,,,false,,,,148047.29999995232,148046.69999992847,,148046.09999990463,,148050.294,8,400,,,
break_continue,html.Screen,4_32_2,2023-09-14T03:42:24.423Z,,0,,,NaN,,,,,,false,,,,148047.59999990463,148047.39999997616,,148047.39999997616,,148050.294,8,400,,,
sequence,flow.Sequence,4_32,2023-09-14T03:42:24.424Z,,0,,,4045.1939999761526,completion,,,,,false,,,,148047.89999997616,148047.39999997616,143985.486,144000.19999992847,144002.206,148050.294,8,400,,,
trial,html.Screen,4_33_0,2023-09-14T03:42:27.988Z,,0,1,,3561.40599992848,response,ISIC_4539674.JPG,10,ISIC_0034207.JPG,ISIC_0034207.JPG,false,0,keypress(z),500,151612.09999990463,151611.69999992847,148033.213,148048.09999990463,148050.294,151615.006,8,400,34,,ISIC_4539674.JPG
break,html.Screen,4_33_1,2023-09-14T03:42:27.989Z,,0,,,NaN,,,,,,false,,,,151613.09999990463,151612.79999995232,,151612.39999997616,,151615.006,8,400,,,
break_continue,html.Screen,4_33_2,2023-09-14T03:42:27.989Z,,0,,,NaN,,,,,,false,,,,151613.59999990463,151613.5,,151613.39999997616,,151615.006,8,400,,,
sequence,flow.Sequence,4_33,2023-09-14T03:42:27.989Z,,0,,,3563.2060000000056,completion,,,,,false,,,,151613.69999992847,151613.5,148033.213,148048,148050.294,151615.006,8,400,,,
trial,html.Screen,4_34_0,2023-09-14T03:42:31.389Z,,0,1,,3397.5939999046386,response,ISIC_2856521.JPG,15,ISIC_8211214.JPG,ISIC_8211214.JPG,false,0,keypress(z),500,155012.79999995232,155012.59999990463,151598.407,151613.89999997616,151615.006,155030.028,8,400,35,,ISIC_2856521.JPG
break,html.Screen,4_34_1,2023-09-14T03:42:31.389Z,,0,,,NaN,,,,,,false,,,,155013.79999995232,155013.29999995232,,155013,,155030.028,8,400,,,
break_continue,html.Screen,4_34_2,2023-09-14T03:42:31.390Z,,0,,,NaN,,,,,,false,,,,155014.09999990463,155014,,155013.79999995232,,155030.028,8,400,,,
sequence,flow.Sequence,4_34,2023-09-14T03:42:31.390Z,,0,,,3398.994000000006,completion,,,,,false,,,,155014.29999995232,155014,151598.407,151613.79999995232,151615.006,155030.028,8,400,,,
trial,html.Screen,4_35_0,2023-09-14T03:42:33.975Z,,0,1,,2568.472000000009,response,ISIC_3932879.JPG,25,ISIC_2720971.JPG,ISIC_3932879.JPG,false,1,keypress(m),500,157598.89999997616,157598.5,155013.161,155014.39999997616,155030.028,157612.242,8,400,36,,ISIC_2720971.JPG
break,html.Screen,4_35_1,2023-09-14T03:42:33.976Z,,0,,,NaN,,,,,,false,,,,157599.69999992847,157599.39999997616,,157599,,157612.242,8,400,,,
break_continue,html.Screen,4_35_2,2023-09-14T03:42:33.976Z,,0,,,NaN,,,,,,false,,,,157600.29999995232,157600.09999990463,,157600,,157612.242,8,400,,,
sequence,flow.Sequence,4_35,2023-09-14T03:42:33.976Z,,0,,,2570.0719999046414,completion,,,,,false,,,,157600.39999997616,157600.09999990463,155013.161,155014.39999997616,155030.028,157612.242,8,400,,,
trial,html.Screen,4_36_0,2023-09-14T03:42:36.991Z,,0,1,,3002.457999928476,response,ISIC_0026685.JPG,11,ISIC_0070948.JPG,ISIC_0026685.JPG,false,1,keypress(m),500,160615,160614.69999992847,157594.723,157600.5,157612.242,160627.247,8,400,37,,ISIC_0070948.JPG
break,html.Screen,4_36_1,2023-09-14T03:42:36.992Z,,0,,,NaN,,,,,,false,,,,160615.79999995232,160615.5,,160615.19999992847,,160627.247,8,400,,,
break_continue,html.Screen,4_36_2,2023-09-14T03:42:36.992Z,,0,,,NaN,,,,,,false,,,,160616.29999995232,160616.29999995232,,160616.09999990463,,160627.247,8,400,,,
sequence,flow.Sequence,4_36,2023-09-14T03:42:36.992Z,,0,,,3004.057999952318,completion,,,,,false,,,,160616.39999997616,160616.29999995232,157594.723,157600.5,157612.242,160627.247,8,400,,,
trial,html.Screen,4_37_0,2023-09-14T03:42:40.411Z,,0,1,,3407.252999999997,response,ISIC_0053542.JPG,12,ISIC_0031999.JPG,ISIC_0031999.JPG,false,0,keypress(z),500,164034.79999995232,164034.5,160610.269,160616.59999990463,160627.247,164042.497,8,400,38,,ISIC_0053542.JPG
break,html.Screen,4_37_1,2023-09-14T03:42:40.411Z,,0,,,NaN,,,,,,false,,,,164035.69999992847,164035.39999997616,,164035.09999990463,,164042.497,8,400,,,
break_continue,html.Screen,4_37_2,2023-09-14T03:42:40.412Z,,0,,,NaN,,,,,,false,,,,164036.39999997616,164036.19999992847,,164036,,164042.497,8,400,,,
sequence,flow.Sequence,4_37,2023-09-14T03:42:40.412Z,,0,,,3408.9529999284714,completion,,,,,false,,,,164036.5,164036.19999992847,160610.269,160616.59999990463,160627.247,164042.497,8,400,,,
trial,html.Screen,4_38_0,2023-09-14T03:42:43.584Z,,0,1,,3164.902999976155,response,ISIC_0883408.JPG,13,ISIC_0015969.JPG,ISIC_0883408.JPG,false,1,keypress(m),500,167207.79999995232,167207.39999997616,164026.148,164036.59999990463,164042.497,167224.023,8,400,39,,ISIC_0015969.JPG
break,html.Screen,4_38_1,2023-09-14T03:42:43.584Z,,0,,,NaN,,,,,,false,,,,167208.59999990463,167208.29999995232,,167208,,167224.023,8,400,,,
break_continue,html.Screen,4_38_2,2023-09-14T03:42:43.585Z,,0,,,NaN,,,,,,false,,,,167209.19999992847,167209,,167208.89999997616,,167224.023,8,400,,,
sequence,flow.Sequence,4_38,2023-09-14T03:42:43.585Z,,0,,,3166.502999999997,completion,,,,,false,,,,167209.29999995232,167209,164026.148,164036.59999990463,164042.497,167224.023,8,400,,,
trial,html.Screen,4_39_0,2023-09-14T03:42:46.280Z,,0,1,,2680.27699995233,response,ISIC_0061029.JPG,16,ISIC_4384861.JPG,ISIC_4384861.JPG,false,0,keypress(z),500,169904.59999990463,169904.29999995232,167207.477,167209.5,167224.023,169923.122,8,400,40,,ISIC_0061029.JPG
break,html.Screen,4_39_1,2023-09-14T03:42:46.281Z,,0,,,NaN,,,,,,false,,,,169905.59999990463,169905.29999995232,,169904.79999995232,,169923.122,8,400,,,
break_continue,html.Screen,4_39_2,2023-09-14T03:42:46.282Z,,0,,,NaN,,,,,,false,,,,169906.29999995232,169906.19999992847,,169905.89999997616,,169923.122,8,400,,,
sequence,flow.Sequence,4_39,2023-09-14T03:42:46.282Z,,0,,,2682.176999928488,completion,,,,,false,,,,169906.5,169906.19999992847,167207.477,167209.5,167224.023,169923.122,8,400,,,
trial,html.Screen,4_40_0,2023-09-14T03:42:49.024Z,,0,1,,2725.1779999523133,response,ISIC_0588322.JPG,20,ISIC_3941123.JPG,ISIC_0588322.JPG,false,1,keypress(m),500,172648.59999990463,172648.29999995232,169891.091,169906.59999990463,169923.122,172654.459,8,400,41,,ISIC_3941123.JPG
break,html.Screen,4_40_1,2023-09-14T03:42:49.025Z,,0,,,NaN,,,,,,false,,,,172649.5,172649.19999992847,,172648.89999997616,,172654.459,8,400,,,
break_continue,html.Screen,4_40_2,2023-09-14T03:42:49.026Z,,0,,,NaN,,,,,,false,,,,172650.09999990463,172650,,172649.79999995232,,172654.459,8,400,,,
sequence,flow.Sequence,4_40,2023-09-14T03:42:49.026Z,,0,,,2726.877999999997,completion,,,,,false,,,,172650.29999995232,172650,169891.091,169906.59999990463,169923.122,172654.459,8,400,,,
trial,html.Screen,4_41_0,2023-09-14T03:42:52.611Z,,0,1,,3580.8409999523137,response,ISIC_0071826.JPG,2,ISIC_6714923.JPG,ISIC_6714923.JPG,false,0,keypress(z),500,176235.5,176235.29999995232,172638.586,172650.5,172654.459,176252.723,8,400,42,,ISIC_0071826.JPG
break,html.Screen,4_41_1,2023-09-14T03:42:52.612Z,,0,,,NaN,,,,,,false,,,,176236.39999997616,176236,,176235.69999992847,,176252.723,8,400,,,
break_continue,html.Screen,4_41_2,2023-09-14T03:42:52.613Z,,0,,,NaN,,,,,,false,,,,176237,176236.79999995232,,176236.69999992847,,176252.723,8,400,,,
sequence,flow.Sequence,4_41,2023-09-14T03:42:52.613Z,,0,,,3582.3409999523137,completion,,,,,false,,,,176237.19999992847,176236.79999995232,172638.586,172650.39999997616,172654.459,176252.723,8,400,,,
trial,html.Screen,4_42_0,2023-09-14T03:42:57.977Z,,0,1,,5348.576999952318,response,ISIC_2307760.JPG,3,ISIC_0033137.JPG,ISIC_0033137.JPG,false,0,keypress(z),500,181601.69999992847,181601.29999995232,176219.81,176237.19999992847,176252.723,181616.812,8,400,43,,ISIC_2307760.JPG
break,html.Screen,4_42_1,2023-09-14T03:42:57.979Z,,0,,,NaN,,,,,,false,,,,181602.79999995232,181602.39999997616,,181602,,181616.812,8,400,,,
break_continue,html.Screen,4_42_2,2023-09-14T03:42:57.979Z,,0,,,NaN,,,,,,false,,,,181603.19999992847,181603.09999990463,,181602.89999997616,,181616.812,8,400,,,
sequence,flow.Sequence,4_42,2023-09-14T03:42:57.979Z,,0,,,5350.376999904634,completion,,,,,false,,,,181603.29999995232,181603.09999990463,176219.81,176237.19999992847,176252.723,181616.812,8,400,,,
trial,html.Screen,4_43_0,2023-09-14T03:43:01.072Z,,0,1,,3078.887999928469,response,ISIC_4182801.JPG,3,ISIC_0069635.JPG,ISIC_4182801.JPG,false,1,keypress(m),500,184696.19999992847,184695.69999992847,181600.37,181603.69999992847,181616.812,184698.416,8,400,44,,ISIC_0069635.JPG
break,html.Screen,4_43_1,2023-09-14T03:43:01.073Z,,0,,,NaN,,,,,,false,,,,184697.39999997616,184696.89999997616,,184696.5,,184698.416,8,400,,,
break_continue,html.Screen,4_43_2,2023-09-14T03:43:01.074Z,,0,,,NaN,,,,,,false,,,,184697.79999995232,184697.59999990463,,184697.59999990463,,184698.416,8,400,,,
sequence,flow.Sequence,4_43,2023-09-14T03:43:01.074Z,,0,,,3080.787999904627,completion,,,,,false,,,,184698,184697.59999990463,181600.37,181603.69999992847,181616.812,184698.416,8,400,,,
trial,html.Screen,4_44_0,2023-09-14T03:43:06.009Z,,0,1,,4934.883999952319,response,ISIC_9612228.JPG,15,ISIC_0061941.JPG,ISIC_9612228.JPG,false,1,keypress(m),500,189633.69999992847,189633.29999995232,184681.856,184698.09999990463,184698.416,189646.043,8,400,45,,ISIC_0061941.JPG
break,html.Screen,4_44_1,2023-09-14T03:43:06.010Z,,0,,,NaN,,,,,,false,,,,189634.69999992847,189634.29999995232,,189633.89999997616,,189646.043,8,400,,,
break_continue,html.Screen,4_44_2,2023-09-14T03:43:06.011Z,,0,,,NaN,,,,,,false,,,,189635.19999992847,189635,,189634.89999997616,,189646.043,8,400,,,
sequence,flow.Sequence,4_44,2023-09-14T03:43:06.011Z,,0,,,4936.584000000003,completion,,,,,false,,,,189635.29999995232,189635,184681.856,184698.09999990463,184698.416,189646.043,8,400,,,
trial,html.Screen,4_45_0,2023-09-14T03:43:09.059Z,,0,1,,3037.1569999284693,response,ISIC_0024367.JPG,4,ISIC_6118204.JPG,ISIC_6118204.JPG,false,0,keypress(z),500,192683.5,192683.19999992847,189628.776,189635.5,189646.043,192694.707,8,400,46,,ISIC_0024367.JPG
break,html.Screen,4_45_1,2023-09-14T03:43:09.060Z,,0,,,NaN,,,,,,false,,,,192684.19999992847,192684,,192683.69999992847,,192694.707,8,400,,,
break_continue,html.Screen,4_45_2,2023-09-14T03:43:09.060Z,,0,,,NaN,,,,,,false,,,,192684.79999995232,192684.59999990463,,192684.5,,192694.707,8,400,,,
sequence,flow.Sequence,4_45,2023-09-14T03:43:09.061Z,,0,,,3038.5569999046274,completion,,,,,false,,,,192684.89999997616,192684.59999990463,189628.776,189635.39999997616,189646.043,192694.707,8,400,,,
trial,html.Screen,4_46_0,2023-09-14T03:43:11.779Z,,0,1,,2708.3929999046377,response,ISIC_9764973.JPG,6,ISIC_7599444.JPG,ISIC_7599444.JPG,false,0,keypress(z),500,195403.39999997616,195403.09999990463,192677.676,192685.09999990463,192694.707,195409.767,8,400,47,,ISIC_9764973.JPG
break,html.Screen,4_46_1,2023-09-14T03:43:11.780Z,,0,,,NaN,,,,,,false,,,,195404.39999997616,195403.89999997616,,195403.59999990463,,195409.767,8,400,,,
break_continue,html.Screen,4_46_2,2023-09-14T03:43:11.781Z,,0,,,NaN,,,,,,false,,,,195404.89999997616,195404.69999992847,,195404.5,,195409.767,8,400,,,
sequence,flow.Sequence,4_46,2023-09-14T03:43:11.781Z,,0,,,2709.9929999284795,completion,,,,,false,,,,195405.09999990463,195404.69999992847,192677.676,192685,192694.707,195409.767,8,400,,,
trial,html.Screen,4_47_0,2023-09-14T03:43:14.342Z,,0,1,,2556.0329999523237,response,ISIC_0066379.JPG,2,ISIC_0010131.JPG,ISIC_0066379.JPG,false,1,keypress(m),500,197966.19999992847,197965.79999995232,195393.712,195405.19999992847,195409.767,197975.12,8,400,48,,ISIC_0010131.JPG
break,html.Screen,4_47_1,2023-09-14T03:43:14.343Z,,0,,,NaN,,,,,,false,,,,197967.19999992847,197966.79999995232,,197966.5,,197975.12,8,400,,,
break_continue,html.Screen,4_47_2,2023-09-14T03:43:14.343Z,,0,,,NaN,,,,,,false,,,,197967.59999990463,197967.5,,197967.39999997616,,197975.12,8,400,,,
sequence,flow.Sequence,4_47,2023-09-14T03:43:14.343Z,,0,,,2557.7330000000075,completion,,,,,false,,,,197967.79999995232,197967.5,195393.712,195405.19999992847,195409.767,197975.12,8,400,,,
trial,html.Screen,4_48_0,2023-09-14T03:43:18.694Z,,0,1,,4342.880000000005,response,ISIC_4352700.JPG,20,ISIC_4026808.JPG,ISIC_4352700.JPG,false,1,keypress(m),500,202318.19999992847,202318,197958.268,197967.89999997616,197975.12,202323.136,8,400,49,,ISIC_4026808.JPG
break,html.Screen,4_48_1,2023-09-14T03:43:18.695Z,,0,,,NaN,,,,,,false,,,,202319.09999990463,202318.79999995232,,202318.5,,202323.136,8,400,,,
break_continue,html.Screen,4_48_2,2023-09-14T03:43:18.695Z,,0,,,NaN,,,,,,false,,,,202319.59999990463,202319.5,,202319.39999997616,,202323.136,8,400,,,
sequence,flow.Sequence,4_48,2023-09-14T03:43:18.696Z,,0,,,4344.380000000005,completion,,,,,false,,,,202319.79999995232,202319.5,197958.268,197967.89999997616,197975.12,202323.136,8,400,,,
trial,html.Screen,4_49_0,2023-09-14T03:43:21.367Z,,0,1,,2667.563999928476,response,ISIC_0030336.JPG,6,ISIC_9407690.JPG,ISIC_0030336.JPG,false,1,keypress(m),500,204990.89999997616,204990.69999992847,202305.878,202319.89999997616,202323.136,205004.908,8,400,50,,ISIC_9407690.JPG
break,html.Screen,4_49_1,2023-09-14T03:43:31.360Z,,0,,,9995.114000000001,timeout,,,,,false,,,,214984.39999997616,214983.243,204988.295,204991.19999992847,205004.908,215000.022,8,400,,,
break_continue,html.Screen,4_49_2,2023-09-14T03:43:33.311Z,,0,,,1929.377999976161,response,,,,,false,continue,keypress(Space),,216935,216929.39999997616,214983.243,214984.59999990463,215000.022,216948.94,8,400,,,
sequence,flow.Sequence,4_49,2023-09-14T03:43:33.311Z,,0,,,14606.26399997616,completion,,,,,false,,,,216935.19999992847,216929.39999997616,202305.878,202319.79999995232,202323.136,216948.94,8,400,,,
trial,html.Screen,4_50_0,2023-09-14T03:43:36.444Z,,0,2,,3119.359999952314,response,ISIC_5503634.JPG,10,ISIC_2698722.JPG,ISIC_5503634.JPG,false,1,keypress(m),500,220068.39999997616,220068.29999995232,216931.998,216935.19999992847,216948.94,220080.663,8,400,1,,ISIC_2698722.JPG
break,html.Screen,4_50_1,2023-09-14T03:43:36.445Z,,0,,,NaN,,,,,,false,,,,220069.09999990463,220068.89999997616,,220068.59999990463,,220080.663,8,400,,,
break_continue,html.Screen,4_50_2,2023-09-14T03:43:36.445Z,,0,,,NaN,,,,,,false,,,,220069.39999997616,220069.39999997616,,220069.29999995232,,220080.663,8,400,,,
sequence,flow.Sequence,4_50,2023-09-14T03:43:36.445Z,,0,,,3120.459999976156,completion,,,,,false,,,,220069.69999992847,220069.39999997616,216931.998,216935.19999992847,216948.94,220080.663,8,400,,,
trial,html.Screen,4_51_0,2023-09-14T03:43:39.100Z,,0,2,,2643.7369999761577,response,ISIC_2721699.JPG,9,ISIC_7358691.JPG,ISIC_7358691.JPG,false,0,keypress(z),500,222724.69999992847,222724.39999997616,220063.95,220069.79999995232,220080.663,222729.326,8,400,2,,ISIC_2721699.JPG
break,html.Screen,4_51_1,2023-09-14T03:43:39.101Z,,0,,,NaN,,,,,,false,,,,222725.19999992847,222725,,222724.69999992847,,222729.326,8,400,,,
break_continue,html.Screen,4_51_2,2023-09-14T03:43:39.101Z,,0,,,NaN,,,,,,false,,,,222725.59999990463,222725.39999997616,,222725.29999995232,,222729.326,8,400,,,
sequence,flow.Sequence,4_51,2023-09-14T03:43:39.101Z,,0,,,2644.7369999761577,completion,,,,,false,,,,222725.69999992847,222725.39999997616,220063.95,220069.69999992847,220080.663,222729.326,8,400,,,
trial,html.Screen,4_52_0,2023-09-14T03:43:41.618Z,,0,2,,2512.673999999999,response,ISIC_7242312.JPG,2,ISIC_0027712.JPG,ISIC_0027712.JPG,false,0,keypress(z),500,225242.09999990463,225242,222712.666,222725.79999995232,222729.326,225244.777,8,400,3,,ISIC_7242312.JPG
break,html.Screen,4_52_1,2023-09-14T03:43:41.618Z,,0,,,NaN,,,,,,false,,,,225242.69999992847,225242.59999990463,,225242.29999995232,,225244.777,8,400,,,
break_continue,html.Screen,4_52_2,2023-09-14T03:43:41.619Z,,0,,,NaN,,,,,,false,,,,225242.89999997616,225242.89999997616,,225242.79999995232,,225244.777,8,400,,,
sequence,flow.Sequence,4_52,2023-09-14T03:43:41.619Z,,0,,,2513.573999976157,completion,,,,,false,,,,225243.09999990463,225242.89999997616,222712.666,222725.79999995232,222729.326,225244.777,8,400,,,
trial,html.Screen,4_53_0,2023-09-14T03:43:44.160Z,,0,2,,2538.9229999284726,response,ISIC_0071430.JPG,21,ISIC_5557806.JPG,ISIC_5557806.JPG,false,0,keypress(z),500,227784.09999990463,227783.69999992847,225228.057,225243.09999990463,225244.777,227793.468,8,400,4,,ISIC_0071430.JPG
break,html.Screen,4_53_1,2023-09-14T03:43:44.161Z,,0,,,NaN,,,,,,false,,,,227785.09999990463,227784.79999995232,,227784.5,,227793.468,8,400,,,
break_continue,html.Screen,4_53_2,2023-09-14T03:43:44.161Z,,0,,,NaN,,,,,,false,,,,227785.69999992847,227785.5,,227785.39999997616,,227793.468,8,400,,,
sequence,flow.Sequence,4_53,2023-09-14T03:43:44.162Z,,0,,,2540.722999999998,completion,,,,,false,,,,227785.79999995232,227785.5,225228.057,225243.09999990463,225244.777,227793.468,8,400,,,
trial,html.Screen,4_54_0,2023-09-14T03:43:47.177Z,,0,2,,3007.4319999761647,response,ISIC_6609379.JPG,13,ISIC_0005655.JPG,ISIC_0005655.JPG,false,0,keypress(z),500,230801,230800.89999997616,227777.099,227785.89999997616,227793.468,230808.607,8,400,5,,ISIC_6609379.JPG
break,html.Screen,4_54_1,2023-09-14T03:43:47.178Z,,0,,,NaN,,,,,,false,,,,230801.79999995232,230801.59999990463,,230801.19999992847,,230808.607,8,400,,,
break_continue,html.Screen,4_54_2,2023-09-14T03:43:47.178Z,,0,,,NaN,,,,,,false,,,,230802.29999995232,230802.19999992847,,230802.09999990463,,230808.607,8,400,,,
sequence,flow.Sequence,4_54,2023-09-14T03:43:47.178Z,,0,,,3008.731999928481,completion,,,,,false,,,,230802.5,230802.19999992847,227777.099,227785.89999997616,227793.468,230808.607,8,400,,,
trial,html.Screen,4_55_0,2023-09-14T03:43:49.842Z,,0,2,,2657.692999952327,response,ISIC_0030237.JPG,24,ISIC_6644659.JPG,ISIC_6644659.JPG,false,0,keypress(z),500,233466.5,233466.29999995232,230791.939,230802.59999990463,230808.607,233474.019,8,400,6,,ISIC_0030237.JPG
break,html.Screen,4_55_1,2023-09-14T03:43:49.843Z,,0,,,NaN,,,,,,false,,,,233467.39999997616,233467.09999990463,,233466.79999995232,,233474.019,8,400,,,
break_continue,html.Screen,4_55_2,2023-09-14T03:43:49.844Z,,0,,,NaN,,,,,,false,,,,233468,233467.79999995232,,233467.59999990463,,233474.019,8,400,,,
sequence,flow.Sequence,4_55,2023-09-14T03:43:49.844Z,,0,,,2659.192999952327,completion,,,,,false,,,,233468.09999990463,233467.79999995232,230791.939,230802.5,230808.607,233474.019,8,400,,,
trial,html.Screen,4_56_0,2023-09-14T03:43:52.809Z,,0,2,,2959.380999976158,response,ISIC_6966001.JPG,20,ISIC_0014675.JPG,ISIC_0014675.JPG,false,0,keypress(z),500,236433.69999992847,236433.39999997616,233457.617,233468.19999992847,233474.019,236439.191,8,400,7,,ISIC_6966001.JPG
break,html.Screen,4_56_1,2023-09-14T03:43:52.810Z,,0,,,NaN,,,,,,false,,,,236434.59999990463,236434.19999992847,,236433.89999997616,,236439.191,8,400,,,
break_continue,html.Screen,4_56_2,2023-09-14T03:43:52.811Z,,0,,,NaN,,,,,,false,,,,236435,236434.89999997616,,236434.79999995232,,236439.191,8,400,,,
sequence,flow.Sequence,4_56,2023-09-14T03:43:52.811Z,,0,,,2960.880999976158,completion,,,,,false,,,,236435.09999990463,236434.89999997616,233457.617,233468.19999992847,233474.019,236439.191,8,400,,,
trial,html.Screen,4_57_0,2023-09-14T03:43:55.598Z,,0,2,,2782.3090000000084,response,ISIC_5203791.JPG,5,ISIC_8468512.JPG,ISIC_5203791.JPG,false,1,keypress(m),500,239221.79999995232,239221.5,236422.602,236435.29999995232,236439.191,239238.027,8,400,8,,ISIC_8468512.JPG
break,html.Screen,4_57_1,2023-09-14T03:43:55.598Z,,0,,,NaN,,,,,,false,,,,239222.59999990463,239222.39999997616,,239222.09999990463,,239238.027,8,400,,,
break_continue,html.Screen,4_57_2,2023-09-14T03:43:55.599Z,,0,,,NaN,,,,,,false,,,,239223.29999995232,239223.19999992847,,239223,,239238.027,8,400,,,
sequence,flow.Sequence,4_57,2023-09-14T03:43:55.599Z,,0,,,2784.008999928483,completion,,,,,false,,,,239223.5,239223.19999992847,236422.602,236435.29999995232,236439.191,239238.027,8,400,,,
trial,html.Screen,4_58_0,2023-09-14T03:43:58.247Z,,0,2,,2633.1729999284726,response,ISIC_7896667.JPG,6,ISIC_0007760.JPG,ISIC_0007760.JPG,false,0,keypress(z),500,241871.5,241871.19999992847,239221.328,239223.59999990463,239238.027,241886.69,8,400,9,,ISIC_7896667.JPG
break,html.Screen,4_58_1,2023-09-14T03:43:58.248Z,,0,,,NaN,,,,,,false,,,,241872.39999997616,241872.09999990463,,241871.79999995232,,241886.69,8,400,,,
break_continue,html.Screen,4_58_2,2023-09-14T03:43:58.249Z,,0,,,NaN,,,,,,false,,,,241872.89999997616,241872.79999995232,,241872.69999992847,,241886.69,8,400,,,
sequence,flow.Sequence,4_58,2023-09-14T03:43:58.249Z,,0,,,2634.7729999523144,completion,,,,,false,,,,241873.09999990463,241872.79999995232,239221.328,239223.59999990463,239238.027,241886.69,8,400,,,
trial,html.Screen,4_59_0,2023-09-14T03:44:00.871Z,,0,2,,2608.209999976156,response,ISIC_3272999.JPG,7,ISIC_0026879.JPG,ISIC_3272999.JPG,false,1,keypress(m),500,244495.19999992847,244494.89999997616,241869.995,241873.29999995232,241886.69,244501.773,8,400,10,,ISIC_0026879.JPG
break,html.Screen,4_59_1,2023-09-14T03:44:00.872Z,,0,,,NaN,,,,,,false,,,,244496.19999992847,244495.79999995232,,244495.39999997616,,244501.773,8,400,,,
break_continue,html.Screen,4_59_2,2023-09-14T03:44:00.873Z,,0,,,NaN,,,,,,false,,,,244496.79999995232,244496.69999992847,,244496.5,,244501.773,8,400,,,
sequence,flow.Sequence,4_59,2023-09-14T03:44:00.873Z,,0,,,2610.009999928472,completion,,,,,false,,,,244497.09999990463,244496.69999992847,241869.995,241873.19999992847,241886.69,244501.773,8,400,,,
trial,html.Screen,4_60_0,2023-09-14T03:44:03.401Z,,0,2,,2523.2270000000135,response,ISIC_3251773.JPG,9,ISIC_0069193.JPG,ISIC_3251773.JPG,false,1,keypress(m),500,247025.29999995232,247025,244485.43,244497.29999995232,244501.773,247033.848,8,400,11,,ISIC_0069193.JPG
break,html.Screen,4_60_1,2023-09-14T03:44:03.402Z,,0,,,NaN,,,,,,false,,,,247026.19999992847,247025.89999997616,,247025.59999990463,,247033.848,8,400,,,
break_continue,html.Screen,4_60_2,2023-09-14T03:44:03.402Z,,0,,,NaN,,,,,,false,,,,247026.69999992847,247026.59999990463,,247026.5,,247033.848,8,400,,,
sequence,flow.Sequence,4_60,2023-09-14T03:44:03.403Z,,0,,,2524.826999904646,completion,,,,,false,,,,247026.89999997616,247026.59999990463,244485.43,244497.19999992847,244501.773,247033.848,8,400,,,
trial,html.Screen,4_61_0,2023-09-14T03:44:06.591Z,,0,2,,3180.8519999284763,response,ISIC_7223327.JPG,6,ISIC_0062864.JPG,ISIC_0062864.JPG,false,0,keypress(z),500,250214.89999997616,250214.69999992847,247017.206,247027,247033.848,250248.949,8,400,12,,ISIC_7223327.JPG
break,html.Screen,4_61_1,2023-09-14T03:44:06.592Z,,0,,,NaN,,,,,,false,,,,250216,250215.5,,250215.09999990463,,250248.949,8,400,,,
break_continue,html.Screen,4_61_2,2023-09-14T03:44:06.592Z,,0,,,NaN,,,,,,false,,,,250216.59999990463,250216.39999997616,,250216.29999995232,,250248.949,8,400,,,
sequence,flow.Sequence,4_61,2023-09-14T03:44:06.593Z,,0,,,3182.55199997616,completion,,,,,false,,,,250216.89999997616,250216.39999997616,247017.206,247026.89999997616,247033.848,250248.949,8,400,,,
trial,html.Screen,4_62_0,2023-09-14T03:44:09.221Z,,0,2,,2596.450999976165,response,ISIC_2642742.JPG,1,ISIC_0294687.JPG,ISIC_0294687.JPG,false,0,keypress(z),500,252845.69999992847,252845.39999997616,250232.355,250216.89999997616,250248.949,252847.603,8,400,13,,ISIC_2642742.JPG
break,html.Screen,4_62_1,2023-09-14T03:44:09.222Z,,0,,,NaN,,,,,,false,,,,252846.69999992847,252846.29999995232,,252845.89999997616,,252847.603,8,400,,,
break_continue,html.Screen,4_62_2,2023-09-14T03:44:09.223Z,,0,,,NaN,,,,,,false,,,,252847.09999990463,252847,,252846.79999995232,,252847.603,8,400,,,
sequence,flow.Sequence,4_62,2023-09-14T03:44:09.223Z,,0,,,2598.0510000000068,completion,,,,,false,,,,252847.19999992847,252847,250232.355,250216.89999997616,250248.949,252847.603,8,400,,,
trial,html.Screen,4_63_0,2023-09-14T03:44:12.296Z,,0,2,,3072.7969999761553,response,ISIC_8065633.JPG,3,ISIC_6806124.JPG,ISIC_6806124.JPG,false,0,keypress(z),500,255920.69999992847,255920.39999997616,252830.898,252847.39999997616,252847.603,255929.396,8,400,14,,ISIC_8065633.JPG
break,html.Screen,4_63_1,2023-09-14T03:44:12.297Z,,0,,,NaN,,,,,,false,,,,255921.59999990463,255921.29999995232,,255921,,255929.396,8,400,,,
break_continue,html.Screen,4_63_2,2023-09-14T03:44:12.298Z,,0,,,NaN,,,,,,false,,,,255922.09999990463,255922.09999990463,,255921.89999997616,,255929.396,8,400,,,
sequence,flow.Sequence,4_63,2023-09-14T03:44:12.298Z,,0,,,3074.49699990463,completion,,,,,false,,,,255922.29999995232,255922.09999990463,252830.898,252847.39999997616,252847.603,255929.396,8,400,,,
trial,html.Screen,4_64_0,2023-09-14T03:44:16.111Z,,0,2,,3805.9039999523084,response,ISIC_0006517.JPG,13,ISIC_8783066.JPG,ISIC_8783066.JPG,false,0,keypress(z),500,259735.59999990463,259735.29999995232,255912.851,255922.39999997616,255929.396,259744.142,8,400,15,,ISIC_0006517.JPG
break,html.Screen,4_64_1,2023-09-14T03:44:16.112Z,,0,,,NaN,,,,,,false,,,,259736.59999990463,259736.19999992847,,259735.79999995232,,259744.142,8,400,,,
break_continue,html.Screen,4_64_2,2023-09-14T03:44:16.113Z,,0,,,NaN,,,,,,false,,,,259737.09999990463,259736.89999997616,,259736.79999995232,,259744.142,8,400,,,
sequence,flow.Sequence,4_64,2023-09-14T03:44:16.113Z,,0,,,3807.50399997615,completion,,,,,false,,,,259737.19999992847,259736.89999997616,255912.851,255922.39999997616,255929.396,259744.142,8,400,,,
trial,html.Screen,4_65_0,2023-09-14T03:44:19.577Z,,0,2,,3457.3580000000075,response,ISIC_0010024.JPG,9,ISIC_0029296.JPG,ISIC_0029296.JPG,false,0,keypress(z),500,263201.7999999523,263201.5,259727.438,259737.39999997616,259744.142,263209.12,8,400,16,,ISIC_0010024.JPG
break,html.Screen,4_65_1,2023-09-14T03:44:19.578Z,,0,,,NaN,,,,,,false,,,,263202.59999990463,263202.39999997616,,263201.89999997616,,263209.12,8,400,,,
break_continue,html.Screen,4_65_2,2023-09-14T03:44:19.579Z,,0,,,NaN,,,,,,false,,,,263203.1999999285,263203.09999990463,,263203,,263209.12,8,400,,,
sequence,flow.Sequence,4_65,2023-09-14T03:44:19.579Z,,0,,,3458.95799990464,completion,,,,,false,,,,263203.39999997616,263203.09999990463,259727.438,259737.29999995232,259744.142,263209.12,8,400,,,
trial,html.Screen,4_66_0,2023-09-14T03:44:22.226Z,,0,2,,2641.179999952321,response,ISIC_0067577.JPG,4,ISIC_7266462.JPG,ISIC_7266462.JPG,false,0,keypress(z),500,265850.5,265850.2999999523,263192.64,263203.5,263209.12,265874.686,8,400,17,,ISIC_0067577.JPG
break,html.Screen,4_66_1,2023-09-14T03:44:22.227Z,,0,,,NaN,,,,,,false,,,,265851.2999999523,265851.09999990463,,265850.7999999523,,265874.686,8,400,,,
break_continue,html.Screen,4_66_2,2023-09-14T03:44:22.227Z,,0,,,NaN,,,,,,false,,,,265851.59999990463,265851.59999990463,,265851.5,,265874.686,8,400,,,
sequence,flow.Sequence,4_66,2023-09-14T03:44:22.227Z,,0,,,2642.479999904637,completion,,,,,false,,,,265851.7999999523,265851.59999990463,263192.64,263203.5,263209.12,265874.686,8,400,,,
trial,html.Screen,4_67_0,2023-09-14T03:44:26.529Z,,0,2,,4278.0139999284875,response,ISIC_3234816.JPG,11,ISIC_0706692.JPG,ISIC_3234816.JPG,false,1,keypress(m),500,270152.89999997616,270152.6999999285,265858.023,265852,265874.686,270155.574,8,400,18,,ISIC_0706692.JPG
break,html.Screen,4_67_1,2023-09-14T03:44:26.530Z,,0,,,NaN,,,,,,false,,,,270154.39999997616,270154.09999990463,,270153.09999990463,,270155.574,8,400,,,
break_continue,html.Screen,4_67_2,2023-09-14T03:44:26.530Z,,0,,,NaN,,,,,,false,,,,270154.6999999285,270154.59999990463,,270154.5,,270155.574,8,400,,,
sequence,flow.Sequence,4_67,2023-09-14T03:44:26.531Z,,0,,,4279.913999904646,completion,,,,,false,,,,270154.7999999523,270154.59999990463,265858.023,265851.89999997616,265874.686,270155.574,8,400,,,
trial,html.Screen,4_68_0,2023-09-14T03:44:29.307Z,,0,2,,2775.52599990461,response,ISIC_5907931.JPG,5,ISIC_0025602.JPG,ISIC_0025602.JPG,false,0,keypress(z),500,272931.39999997616,272931.09999990463,270139.041,270155,270155.574,272937.532,8,400,19,,ISIC_5907931.JPG
break,html.Screen,4_68_1,2023-09-14T03:44:29.308Z,,0,,,NaN,,,,,,false,,,,272932.1999999285,272932,,272931.59999990463,,272937.532,8,400,,,
break_continue,html.Screen,4_68_2,2023-09-14T03:44:29.309Z,,0,,,NaN,,,,,,false,,,,272932.89999997616,272932.6999999285,,272932.59999990463,,272937.532,8,400,,,
sequence,flow.Sequence,4_68,2023-09-14T03:44:29.309Z,,0,,,2777.125999928452,completion,,,,,false,,,,272933.09999990463,272932.6999999285,270139.041,270154.89999997616,270155.574,272937.532,8,400,,,
trial,html.Screen,4_69_0,2023-09-14T03:44:32.498Z,,0,2,,3184.4679999999935,response,ISIC_0033843.JPG,0,ISIC_7320371.JPG,ISIC_0033843.JPG,false,1,keypress(m),500,276122.2999999523,276122,272921.06,272933.1999999285,272937.532,276136.27,8,400,20,,ISIC_7320371.JPG
break,html.Screen,4_69_1,2023-09-14T03:44:32.499Z,,0,,,NaN,,,,,,false,,,,276123.39999997616,276122.89999997616,,276122.59999990463,,276136.27,8,400,,,
break_continue,html.Screen,4_69_2,2023-09-14T03:44:32.500Z,,0,,,NaN,,,,,,false,,,,276123.89999997616,276123.6999999285,,276123.59999990463,,276136.27,8,400,,,
sequence,flow.Sequence,4_69,2023-09-14T03:44:32.500Z,,0,,,3186.167999928468,completion,,,,,false,,,,276124,276123.6999999285,272921.06,272933.09999990463,272937.532,276136.27,8,400,,,
trial,html.Screen,4_70_0,2023-09-14T03:44:35.267Z,,0,2,,2754.6299999761395,response,ISIC_0071388.JPG,15,ISIC_2841488.JPG,ISIC_2841488.JPG,false,0,keypress(z),500,278891.09999990463,278890.89999997616,276119.379,276124.1999999285,276136.27,278901.321,8,400,21,,ISIC_0071388.JPG
break,html.Screen,4_70_1,2023-09-14T03:44:35.268Z,,0,,,NaN,,,,,,false,,,,278892.1999999285,278891.7999999523,,278891.39999997616,,278901.321,8,400,,,
break_continue,html.Screen,4_70_2,2023-09-14T03:44:35.268Z,,0,,,NaN,,,,,,false,,,,278892.7999999523,278892.59999990463,,278892.5,,278901.321,8,400,,,
sequence,flow.Sequence,4_70,2023-09-14T03:44:35.269Z,,0,,,2756.329999904614,completion,,,,,false,,,,278893,278892.59999990463,276119.379,276124.1999999285,276136.27,278901.321,8,400,,,
trial,html.Screen,4_71_0,2023-09-14T03:44:37.890Z,,0,2,,2612.578999976162,response,ISIC_0060559.JPG,7,ISIC_8106899.JPG,ISIC_8106899.JPG,false,0,keypress(z),500,281514.1999999285,281513.89999997616,278884.856,278893.09999990463,278901.321,281516.579,8,400,22,,ISIC_0060559.JPG
break,html.Screen,4_71_1,2023-09-14T03:44:37.891Z,,0,,,NaN,,,,,,false,,,,281515,281514.7999999523,,281514.5,,281516.579,8,400,,,
break_continue,html.Screen,4_71_2,2023-09-14T03:44:37.891Z,,0,,,NaN,,,,,,false,,,,281515.59999990463,281515.39999997616,,281515.2999999523,,281516.579,8,400,,,
sequence,flow.Sequence,4_71,2023-09-14T03:44:37.891Z,,0,,,2614.078999976162,completion,,,,,false,,,,281515.59999990463,281515.39999997616,278884.856,278893,278901.321,281516.579,8,400,,,
trial,html.Screen,4_72_0,2023-09-14T03:44:42.556Z,,0,2,,4662.820999976131,response,ISIC_8957571.JPG,5,ISIC_0046635.JPG,ISIC_8957571.JPG,false,1,keypress(m),500,286179.89999997616,286179.39999997616,281500.25,281515.7999999523,281516.579,286197.948,8,400,23,,ISIC_0046635.JPG
break,html.Screen,4_72_1,2023-09-14T03:44:42.557Z,,0,,,NaN,,,,,,false,,,,286180.7999999523,286180.39999997616,,286180.09999990463,,286197.948,8,400,,,
break_continue,html.Screen,4_72_2,2023-09-14T03:44:42.557Z,,0,,,NaN,,,,,,false,,,,286181.39999997616,286181.2999999523,,286181.09999990463,,286197.948,8,400,,,
sequence,flow.Sequence,4_72,2023-09-14T03:44:42.557Z,,0,,,4664.720999952289,completion,,,,,false,,,,286181.6999999285,286181.2999999523,281500.25,281515.7999999523,281516.579,286197.948,8,400,,,
trial,html.Screen,4_73_0,2023-09-14T03:44:45.236Z,,0,2,,2662.552000000025,response,ISIC_1002979.JPG,20,ISIC_7306131.JPG,ISIC_7306131.JPG,false,0,keypress(z),500,288860.6999999285,288860.5,286164.278,286181.6999999285,286197.948,288879.878,8,400,24,,ISIC_1002979.JPG
break,html.Screen,4_73_1,2023-09-14T03:44:45.237Z,,0,,,NaN,,,,,,false,,,,288861.5,288861.1999999285,,288860.89999997616,,288879.878,8,400,,,
break_continue,html.Screen,4_73_2,2023-09-14T03:44:45.238Z,,0,,,NaN,,,,,,false,,,,288862.6999999285,288862.39999997616,,288861.59999990463,,288879.878,8,400,,,
sequence,flow.Sequence,4_73,2023-09-14T03:44:45.239Z,,0,,,2664.4519999761833,completion,,,,,false,,,,288863,288862.39999997616,286164.278,286181.6999999285,286197.948,288879.878,8,400,,,
trial,html.Screen,4_74_0,2023-09-14T03:44:47.837Z,,0,2,,2581.2219999046065,response,ISIC_2844085.JPG,4,ISIC_0013501.JPG,ISIC_2844085.JPG,false,1,keypress(m),500,291461.2999999523,291461.09999990463,288862.929,288863.1999999285,288879.878,291478.268,8,400,25,,ISIC_0013501.JPG
break,html.Screen,4_74_1,2023-09-14T03:44:47.838Z,,0,,,NaN,,,,,,false,,,,291462,291461.7999999523,,291461.5,,291478.268,8,400,,,
break_continue,html.Screen,4_74_2,2023-09-14T03:44:47.838Z,,0,,,NaN,,,,,,false,,,,291462.1999999285,291462.1999999285,,291462.09999990463,,291478.268,8,400,,,
sequence,flow.Sequence,4_74,2023-09-14T03:44:47.838Z,,0,,,2582.3219999284483,completion,,,,,false,,,,291462.2999999523,291462.1999999285,288862.929,288863.1999999285,288879.878,291478.268,8,400,,,
trial,html.Screen,4_75_0,2023-09-14T03:44:50.507Z,,0,2,,2653.232000000018,response,ISIC_4731791.JPG,10,ISIC_0033226.JPG,ISIC_0033226.JPG,false,0,keypress(z),500,294131.6999999285,294131.5,291461.54,291462.39999997616,291478.268,294143.598,8,400,26,,ISIC_4731791.JPG
break,html.Screen,4_75_1,2023-09-14T03:44:50.508Z,,0,,,NaN,,,,,,false,,,,294132.6999999285,294132.39999997616,,294131.89999997616,,294143.598,8,400,,,
break_continue,html.Screen,4_75_2,2023-09-14T03:44:50.509Z,,0,,,NaN,,,,,,false,,,,294133.09999990463,294133,,294132.89999997616,,294143.598,8,400,,,
sequence,flow.Sequence,4_75,2023-09-14T03:44:50.509Z,,0,,,2654.732000000018,completion,,,,,false,,,,294133.2999999523,294133,291461.54,291462.2999999523,291478.268,294143.598,8,400,,,
trial,html.Screen,4_76_0,2023-09-14T03:44:53.037Z,,0,2,,2517.30199997616,response,ISIC_0028152.JPG,9,ISIC_5194331.JPG,ISIC_5194331.JPG,false,0,keypress(z),500,296661.1999999285,296660.89999997616,294123.571,294133.5,294143.598,296675.95,8,400,27,,ISIC_0028152.JPG
break,html.Screen,4_76_1,2023-09-14T03:44:53.038Z,,0,,,NaN,,,,,,false,,,,296662.09999990463,296661.7999999523,,296661.5,,296675.95,8,400,,,
break_continue,html.Screen,4_76_2,2023-09-14T03:44:53.038Z,,0,,,NaN,,,,,,false,,,,296662.7999999523,296662.59999990463,,296662.39999997616,,296675.95,8,400,,,
sequence,flow.Sequence,4_76,2023-09-14T03:44:53.039Z,,0,,,2519.0019999046344,completion,,,,,false,,,,296662.89999997616,296662.59999990463,294123.571,294133.39999997616,294143.598,296675.95,8,400,,,
trial,html.Screen,4_77_0,2023-09-14T03:44:55.491Z,,0,2,,2439.249999928463,response,ISIC_0065518.JPG,4,ISIC_8380904.JPG,ISIC_8380904.JPG,false,0,keypress(z),500,299115.5,299115.1999999285,296659.323,296663.09999990463,296675.95,299124.402,8,400,28,,ISIC_0065518.JPG
break,html.Screen,4_77_1,2023-09-14T03:44:55.492Z,,0,,,NaN,,,,,,false,,,,299116.6999999285,299116.5,,299115.89999997616,,299124.402,8,400,,,
break_continue,html.Screen,4_77_2,2023-09-14T03:44:55.493Z,,0,,,NaN,,,,,,false,,,,299117.2999999523,299117.09999990463,,299117,,299124.402,8,400,,,
sequence,flow.Sequence,4_77,2023-09-14T03:44:55.493Z,,0,,,2441.149999904621,completion,,,,,false,,,,299117.59999990463,299117.09999990463,296659.323,296663.09999990463,296675.95,299124.402,8,400,,,
trial,html.Screen,4_78_0,2023-09-14T03:44:58.175Z,,0,2,,2674.9979999761563,response,ISIC_0015071.JPG,7,ISIC_1453671.JPG,ISIC_1453671.JPG,false,0,keypress(z),500,301799.59999990463,301799.39999997616,299108.055,299117.59999990463,299124.402,301806.925,8,400,29,,ISIC_0015071.JPG
break,html.Screen,4_78_1,2023-09-14T03:44:58.176Z,,0,,,NaN,,,,,,false,,,,301800.59999990463,301800.1999999285,,301799.7999999523,,301806.925,8,400,,,
break_continue,html.Screen,4_78_2,2023-09-14T03:44:58.177Z,,0,,,NaN,,,,,,false,,,,301801.09999990463,301800.89999997616,,301800.7999999523,,301806.925,8,400,,,
sequence,flow.Sequence,4_78,2023-09-14T03:44:58.177Z,,0,,,2676.4979999761563,completion,,,,,false,,,,301801.1999999285,301800.89999997616,299108.055,299117.59999990463,299124.402,301806.925,8,400,,,
trial,html.Screen,4_79_0,2023-09-14T03:45:00.731Z,,0,2,,2547.674999904644,response,ISIC_9471156.JPG,5,ISIC_5525765.JPG,ISIC_5525765.JPG,false,0,keypress(z),500,304355,304354.59999990463,301790.083,301801.39999997616,301806.925,304371.941,8,400,30,,ISIC_9471156.JPG
break,html.Screen,4_79_1,2023-09-14T03:45:00.732Z,,0,,,NaN,,,,,,false,,,,304356.09999990463,304355.6999999285,,304355.2999999523,,304371.941,8,400,,,
break_continue,html.Screen,4_79_2,2023-09-14T03:45:00.732Z,,0,,,NaN,,,,,,false,,,,304356.59999990463,304356.39999997616,,304356.2999999523,,304371.941,8,400,,,
sequence,flow.Sequence,4_79,2023-09-14T03:45:00.733Z,,0,,,2549.47499997617,completion,,,,,false,,,,304356.89999997616,304356.39999997616,301790.083,301801.39999997616,301806.925,304371.941,8,400,,,
trial,html.Screen,4_80_0,2023-09-14T03:45:03.803Z,,0,2,,3054.8589999523247,response,ISIC_0033081.JPG,2,ISIC_0032629.JPG,ISIC_0033081.JPG,false,1,keypress(m),500,307427.09999990463,307426.7999999523,304355.538,304357,304371.941,307436.914,8,400,31,,ISIC_0032629.JPG
break,html.Screen,4_80_1,2023-09-14T03:45:03.804Z,,0,,,NaN,,,,,,false,,,,307428.2999999523,307427.7999999523,,307427.39999997616,,307436.914,8,400,,,
break_continue,html.Screen,4_80_2,2023-09-14T03:45:03.805Z,,0,,,NaN,,,,,,false,,,,307428.89999997616,307428.6999999285,,307428.59999990463,,307436.914,8,400,,,
sequence,flow.Sequence,4_80,2023-09-14T03:45:03.805Z,,0,,,3056.758999928483,completion,,,,,false,,,,307429.09999990463,307428.6999999285,304355.538,304357,304371.941,307436.914,8,400,,,
trial,html.Screen,4_81_0,2023-09-14T03:45:06.323Z,,0,2,,2510.0860000000102,response,ISIC_0046340.JPG,15,ISIC_2731621.JPG,ISIC_2731621.JPG,false,0,keypress(z),500,309947.1999999285,309947,307420.227,307429.2999999523,307436.914,309952.288,8,400,32,,ISIC_0046340.JPG
break,html.Screen,4_81_1,2023-09-14T03:45:06.324Z,,0,,,NaN,,,,,,false,,,,309948.1999999285,309947.7999999523,,309947.39999997616,,309952.288,8,400,,,
break_continue,html.Screen,4_81_2,2023-09-14T03:45:06.324Z,,0,,,NaN,,,,,,false,,,,309948.6999999285,309948.5,,309948.2999999523,,309952.288,8,400,,,
sequence,flow.Sequence,4_81,2023-09-14T03:45:06.324Z,,0,,,2511.5860000000102,completion,,,,,false,,,,309948.7999999523,309948.5,307420.227,307429.2999999523,307436.914,309952.288,8,400,,,
trial,html.Screen,4_82_0,2023-09-14T03:45:09.382Z,,0,2,,3053.511999952316,response,ISIC_5324623.JPG,1,ISIC_7312977.JPG,ISIC_7312977.JPG,false,0,keypress(z),500,313005.89999997616,313005.7999999523,309935.697,309949,309952.288,313017.397,8,400,33,,ISIC_5324623.JPG
break,html.Screen,4_82_1,2023-09-14T03:45:09.382Z,,0,,,NaN,,,,,,false,,,,313006.2999999523,313006.1999999285,,313006,,313017.397,8,400,,,
break_continue,html.Screen,4_82_2,2023-09-14T03:45:09.382Z,,0,,,NaN,,,,,,false,,,,313006.59999990463,313006.5,,313006.39999997616,,313017.397,8,400,,,
sequence,flow.Sequence,4_82,2023-09-14T03:45:09.382Z,,0,,,3054.2119999999995,completion,,,,,false,,,,313006.59999990463,313006.5,309935.697,309948.89999997616,309952.288,313017.397,8,400,,,
trial,html.Screen,4_83_0,2023-09-14T03:45:11.984Z,,0,2,,2591.302999928477,response,ISIC_0033856.JPG,13,ISIC_0032945.JPG,ISIC_0032945.JPG,false,0,keypress(z),500,315608.7999999523,315608.6999999285,313001.331,313006.6999999285,313017.397,315616.094,8,400,34,,ISIC_0033856.JPG
break,html.Screen,4_83_1,2023-09-14T03:45:11.985Z,,0,,,NaN,,,,,,false,,,,315609.2999999523,315609.09999990463,,315609,,315616.094,8,400,,,
break_continue,html.Screen,4_83_2,2023-09-14T03:45:11.985Z,,0,,,NaN,,,,,,false,,,,315609.6999999285,315609.59999990463,,315609.39999997616,,315616.094,8,400,,,
sequence,flow.Sequence,4_83,2023-09-14T03:45:11.986Z,,0,,,2592.2029999046354,completion,,,,,false,,,,315609.89999997616,315609.59999990463,313001.331,313006.6999999285,313017.397,315616.094,8,400,,,
trial,html.Screen,4_84_0,2023-09-14T03:45:14.617Z,,0,2,,2624.8059999761754,response,ISIC_0000538.JPG,10,ISIC_6334958.JPG,ISIC_0000538.JPG,false,1,keypress(m),500,318241,318240.89999997616,315599.454,315610.1999999285,315616.094,318248.361,8,400,35,,ISIC_6334958.JPG
break,html.Screen,4_84_1,2023-09-14T03:45:14.617Z,,0,,,NaN,,,,,,false,,,,318241.5,318241.2999999523,,318241.09999990463,,318248.361,8,400,,,
break_continue,html.Screen,4_84_2,2023-09-14T03:45:14.618Z,,0,,,NaN,,,,,,false,,,,318242,318241.7999999523,,318241.6999999285,,318248.361,8,400,,,
sequence,flow.Sequence,4_84,2023-09-14T03:45:14.618Z,,0,,,2625.7059999523335,completion,,,,,false,,,,318242.09999990463,318241.7999999523,315599.454,315610.1999999285,315616.094,318248.361,8,400,,,
trial,html.Screen,4_85_0,2023-09-14T03:45:17.852Z,,0,2,,3227.7389999046572,response,ISIC_0056246.JPG,11,ISIC_0033274.JPG,ISIC_0056246.JPG,false,1,keypress(m),500,321476.1999999285,321476.09999990463,318231.59,318242.2999999523,318248.361,321479.839,8,400,36,,ISIC_0033274.JPG
break,html.Screen,4_85_1,2023-09-14T03:45:17.852Z,,0,,,NaN,,,,,,false,,,,321476.59999990463,321476.5,,321476.2999999523,,321479.839,8,400,,,
break_continue,html.Screen,4_85_2,2023-09-14T03:45:17.853Z,,0,,,NaN,,,,,,false,,,,321477,321476.89999997616,,321476.7999999523,,321479.839,8,400,,,
sequence,flow.Sequence,4_85,2023-09-14T03:45:17.853Z,,0,,,3228.538999976183,completion,,,,,false,,,,321477.09999990463,321476.89999997616,318231.59,318242.1999999285,318248.361,321479.839,8,400,,,
trial,html.Screen,4_86_0,2023-09-14T03:45:20.788Z,,0,2,,2932.3609999284963,response,ISIC_4407580.JPG,1,ISIC_5974838.JPG,ISIC_5974838.JPG,false,0,keypress(z),500,324412.39999997616,324412.1999999285,321463.196,321477.1999999285,321479.839,324428.397,8,400,37,,ISIC_4407580.JPG
break,html.Screen,4_86_1,2023-09-14T03:45:20.789Z,,0,,,NaN,,,,,,false,,,,324413,324412.7999999523,,324412.5,,324428.397,8,400,,,
break_continue,html.Screen,4_86_2,2023-09-14T03:45:20.789Z,,0,,,NaN,,,,,,false,,,,324413.1999999285,324413.1999999285,,324413,,324428.397,8,400,,,
sequence,flow.Sequence,4_86,2023-09-14T03:45:20.789Z,,0,,,2933.3609999284963,completion,,,,,false,,,,324413.2999999523,324413.1999999285,321463.196,321477.09999990463,321479.839,324428.397,8,400,,,
trial,html.Screen,4_87_0,2023-09-14T03:45:24.781Z,,0,2,,3977.2029999046354,response,ISIC_4000087.JPG,0,ISIC_0919467.JPG,ISIC_4000087.JPG,false,1,keypress(m),500,328405.6999999285,328405.59999990463,324412.247,324413.39999997616,324428.397,328409.702,8,400,38,,ISIC_0919467.JPG
break,html.Screen,4_87_1,2023-09-14T03:45:24.782Z,,0,,,NaN,,,,,,false,,,,328406.39999997616,328406.1999999285,,328405.7999999523,,328409.702,8,400,,,
break_continue,html.Screen,4_87_2,2023-09-14T03:45:24.783Z,,0,,,NaN,,,,,,false,,,,328406.89999997616,328406.6999999285,,328406.59999990463,,328409.702,8,400,,,
sequence,flow.Sequence,4_87,2023-09-14T03:45:24.783Z,,0,,,3978.302999928477,completion,,,,,false,,,,328407.1999999285,328406.6999999285,324412.247,324413.39999997616,324428.397,328409.702,8,400,,,
trial,html.Screen,4_88_0,2023-09-14T03:45:27.898Z,,0,2,,3112.497999928484,response,ISIC_0059506.JPG,12,ISIC_0063988.JPG,ISIC_0063988.JPG,false,0,keypress(z),500,331522.5,331522.1999999285,328393.092,328407.2999999523,328409.702,331524.841,8,400,39,,ISIC_0059506.JPG
break,html.Screen,4_88_1,2023-09-14T03:45:27.899Z,,0,,,NaN,,,,,,false,,,,331523.6999999285,331523.1999999285,,331522.6999999285,,331524.841,8,400,,,
break_continue,html.Screen,4_88_2,2023-09-14T03:45:27.900Z,,0,,,NaN,,,,,,false,,,,331524.1999999285,331524.09999990463,,331523.89999997616,,331524.841,8,400,,,
sequence,flow.Sequence,4_88,2023-09-14T03:45:27.900Z,,0,,,3114.3979999046423,completion,,,,,false,,,,331524.39999997616,331524.09999990463,328393.092,328407.2999999523,328409.702,331524.841,8,400,,,
trial,html.Screen,4_89_0,2023-09-14T03:45:30.486Z,,0,2,,2585.3589999284595,response,ISIC_0029593.JPG,16,ISIC_0027881.JPG,ISIC_0027881.JPG,false,0,keypress(z),500,334110.5,334110.1999999285,331508.235,331524.59999990463,331524.841,334123.657,8,400,40,,ISIC_0029593.JPG
break,html.Screen,4_89_1,2023-09-14T03:45:30.487Z,,0,,,NaN,,,,,,false,,,,334111.1999999285,334111,,334110.6999999285,,334123.657,8,400,,,
break_continue,html.Screen,4_89_2,2023-09-14T03:45:30.487Z,,0,,,NaN,,,,,,false,,,,334111.7999999523,334111.59999990463,,334111.5,,334123.657,8,400,,,
sequence,flow.Sequence,4_89,2023-09-14T03:45:30.488Z,,0,,,2586.7589999046177,completion,,,,,false,,,,334111.89999997616,334111.59999990463,331508.235,331524.5,331524.841,334123.657,8,400,,,
trial,html.Screen,4_90_0,2023-09-14T03:45:33.174Z,,0,2,,2674.542999928468,response,ISIC_0032559.JPG,10,ISIC_1883330.JPG,ISIC_1883330.JPG,false,0,keypress(z),500,336798.59999990463,336798.1999999285,334106.826,334112.09999990463,334123.657,336805.987,8,400,41,,ISIC_0032559.JPG
break,html.Screen,4_90_1,2023-09-14T03:45:33.175Z,,0,,,NaN,,,,,,false,,,,336799.39999997616,336799.2999999523,,336798.7999999523,,336805.987,8,400,,,
break_continue,html.Screen,4_90_2,2023-09-14T03:45:33.176Z,,0,,,NaN,,,,,,false,,,,336799.89999997616,336799.7999999523,,336799.6999999285,,336805.987,8,400,,,
sequence,flow.Sequence,4_90,2023-09-14T03:45:33.176Z,,0,,,2676.1429999523098,completion,,,,,false,,,,336800.1999999285,336799.7999999523,334106.826,334112.09999990463,334123.657,336805.987,8,400,,,
trial,html.Screen,4_91_0,2023-09-14T03:45:36.094Z,,0,2,,2911.9129999761353,response,ISIC_4900077.JPG,5,ISIC_0066354.JPG,ISIC_4900077.JPG,false,1,keypress(m),500,339718.2999999523,339717.89999997616,336788.998,336800.2999999523,336805.987,339737.495,8,400,42,,ISIC_0066354.JPG
break,html.Screen,4_91_1,2023-09-14T03:45:36.099Z,,0,,,NaN,,,,,,false,,,,339723,339722.5,,339718.59999990463,,339737.495,8,400,,,
break_continue,html.Screen,4_91_2,2023-09-14T03:45:36.099Z,,0,,,NaN,,,,,,false,,,,339723.5,339723.2999999523,,339723,,339737.495,8,400,,,
sequence,flow.Sequence,4_91,2023-09-14T03:45:36.099Z,,0,,,2917.3129999522935,completion,,,,,false,,,,339723.59999990463,339723.2999999523,336788.998,336800.2999999523,336805.987,339737.495,8,400,,,
trial,html.Screen,4_92_0,2023-09-14T03:45:38.708Z,,0,2,,2594.404999976163,response,ISIC_7575957.JPG,9,ISIC_0070313.JPG,ISIC_7575957.JPG,false,1,keypress(m),500,342332.09999990463,342331.89999997616,339720.766,339723.7999999523,339737.495,342336.105,8,400,43,,ISIC_0070313.JPG
break,html.Screen,4_92_1,2023-09-14T03:45:38.709Z,,0,,,NaN,,,,,,false,,,,342333.09999990463,342332.6999999285,,342332.2999999523,,342336.105,8,400,,,
break_continue,html.Screen,4_92_2,2023-09-14T03:45:38.709Z,,0,,,NaN,,,,,,false,,,,342333.59999990463,342333.5,,342333.39999997616,,342336.105,8,400,,,
sequence,flow.Sequence,4_92,2023-09-14T03:45:38.709Z,,0,,,2596.0050000000047,completion,,,,,false,,,,342333.6999999285,342333.5,339720.766,339723.6999999285,339737.495,342336.105,8,400,,,
trial,html.Screen,4_93_0,2023-09-14T03:45:41.610Z,,0,2,,2898.2949999761768,response,ISIC_4246086.JPG,12,ISIC_0025683.JPG,ISIC_4246086.JPG,false,1,keypress(m),500,345234.59999990463,345234.39999997616,342319.413,342333.7999999523,342336.105,345251.406,8,400,44,,ISIC_0025683.JPG
break,html.Screen,4_93_1,2023-09-14T03:45:41.611Z,,0,,,NaN,,,,,,false,,,,345235.59999990463,345235.1999999285,,345234.7999999523,,345251.406,8,400,,,
break_continue,html.Screen,4_93_2,2023-09-14T03:45:41.612Z,,0,,,NaN,,,,,,false,,,,345236.1999999285,345236,,345235.89999997616,,345251.406,8,400,,,
sequence,flow.Sequence,4_93,2023-09-14T03:45:41.612Z,,0,,,2899.8950000000186,completion,,,,,false,,,,345236.5,345236,342319.413,342333.7999999523,342336.105,345251.406,8,400,,,
trial,html.Screen,4_94_0,2023-09-14T03:45:44.243Z,,0,2,,2615.5939999999828,response,ISIC_0046670.JPG,6,ISIC_9433473.JPG,ISIC_9433473.JPG,false,0,keypress(z),500,347867.1999999285,347867,345235.086,345236.5,345251.406,347883.351,8,400,45,,ISIC_0046670.JPG
break,html.Screen,4_94_1,2023-09-14T03:45:44.244Z,,0,,,NaN,,,,,,false,,,,347868.09999990463,347867.7999999523,,347867.39999997616,,347883.351,8,400,,,
break_continue,html.Screen,4_94_2,2023-09-14T03:45:44.245Z,,0,,,NaN,,,,,,false,,,,347868.89999997616,347868.59999990463,,347868.39999997616,,347883.351,8,400,,,
sequence,flow.Sequence,4_94,2023-09-14T03:45:44.245Z,,0,,,2617.1939999046153,completion,,,,,false,,,,347869.09999990463,347868.59999990463,345235.086,345236.5,345251.406,347883.351,8,400,,,
trial,html.Screen,4_95_0,2023-09-14T03:45:47.160Z,,0,2,,2900.148999999976,response,ISIC_9395707.JPG,0,ISIC_0008724.JPG,ISIC_0008724.JPG,false,0,keypress(z),500,350783.89999997616,350783.5,347867.271,347869.2999999523,347883.351,350798.69,8,400,46,,ISIC_9395707.JPG
break,html.Screen,4_95_1,2023-09-14T03:45:47.161Z,,0,,,NaN,,,,,,false,,,,350784.89999997616,350784.39999997616,,350784.09999990463,,350798.69,8,400,,,
break_continue,html.Screen,4_95_2,2023-09-14T03:45:47.161Z,,0,,,NaN,,,,,,false,,,,350785.5,350785.39999997616,,350785.09999990463,,350798.69,8,400,,,
sequence,flow.Sequence,4_95,2023-09-14T03:45:47.161Z,,0,,,2902.048999976134,completion,,,,,false,,,,350785.6999999285,350785.39999997616,347867.271,347869.2999999523,347883.351,350798.69,8,400,,,
trial,html.Screen,4_96_0,2023-09-14T03:45:50.381Z,,0,2,,3206.609999952314,response,ISIC_6056121.JPG,13,ISIC_0033412.JPG,ISIC_6056121.JPG,false,1,keypress(m),500,354005.6999999285,354005.2999999523,350781.826,350785.7999999523,350798.69,354013.61,8,400,47,,ISIC_0033412.JPG
break,html.Screen,4_96_1,2023-09-14T03:45:50.382Z,,0,,,NaN,,,,,,false,,,,354006.7999999523,354006.2999999523,,354006,,354013.61,8,400,,,
break_continue,html.Screen,4_96_2,2023-09-14T03:45:50.383Z,,0,,,NaN,,,,,,false,,,,354007.1999999285,354007.09999990463,,354006.89999997616,,354013.61,8,400,,,
sequence,flow.Sequence,4_96,2023-09-14T03:45:50.383Z,,0,,,3208.4099999046302,completion,,,,,false,,,,354007.39999997616,354007.09999990463,350781.826,350785.7999999523,350798.69,354013.61,8,400,,,
trial,html.Screen,4_97_0,2023-09-14T03:45:53.201Z,,0,2,,2811.1899999523303,response,ISIC_3152541.JPG,23,ISIC_2987613.JPG,ISIC_3152541.JPG,false,1,keypress(m),500,356825,356824.7999999523,353996.946,354007.5,354013.61,356828.794,8,400,48,,ISIC_2987613.JPG
break,html.Screen,4_97_1,2023-09-14T03:45:53.202Z,,0,,,NaN,,,,,,false,,,,356826,356825.59999990463,,356825.2999999523,,356828.794,8,400,,,
break_continue,html.Screen,4_97_2,2023-09-14T03:45:53.202Z,,0,,,NaN,,,,,,false,,,,356826.6999999285,356826.5,,356826.2999999523,,356828.794,8,400,,,
sequence,flow.Sequence,4_97,2023-09-14T03:45:53.202Z,,0,,,2812.890000000014,completion,,,,,false,,,,356826.7999999523,356826.5,353996.946,354007.39999997616,354013.61,356828.794,8,400,,,
trial,html.Screen,4_98_0,2023-09-14T03:45:55.938Z,,0,2,,2733.805999904638,response,ISIC_0032996.JPG,3,ISIC_0069248.JPG,ISIC_0032996.JPG,false,1,keypress(m),500,359562.7999999523,359562.59999990463,356812.194,356826.89999997616,356828.794,359577.578,8,400,49,,ISIC_0069248.JPG
break,html.Screen,4_98_1,2023-09-14T03:45:55.939Z,,0,,,NaN,,,,,,false,,,,359563.59999990463,359563.2999999523,,359563.09999990463,,359577.578,8,400,,,
break_continue,html.Screen,4_98_2,2023-09-14T03:45:55.940Z,,0,,,NaN,,,,,,false,,,,359564.1999999285,359564,,359563.6999999285,,359577.578,8,400,,,
sequence,flow.Sequence,4_98,2023-09-14T03:45:55.940Z,,0,,,2735.2060000000056,completion,,,,,false,,,,359564.39999997616,359564,356812.194,356826.89999997616,356828.794,359577.578,8,400,,,
trial,html.Screen,4_99_0,2023-09-14T03:45:58.427Z,,0,2,,2473.721999952337,response,ISIC_0010235.JPG,12,ISIC_0156642.JPG,ISIC_0156642.JPG,false,0,keypress(z),500,362051.5,362051.2999999523,359561.371,359564.39999997616,359577.578,362059.561,8,400,50,,ISIC_0010235.JPG
break,html.Screen,4_99_1,2023-09-14T03:46:08.415Z,,0,,,9995.002000000037,timeout,,,,,false,,,,372039.39999997616,372038.12,362046.561,362051.6999999285,362059.561,372054.563,8,400,,,
break_continue,html.Screen,4_99_2,2023-09-14T03:46:12.191Z,,0,,,3728.8369999761344,response,,,,,false,continue,keypress(Space),,375815.1999999285,375783.39999997616,372038.12,372039.59999990463,372054.563,375819.724,8,400,,,
sequence,flow.Sequence,4_99,2023-09-14T03:46:12.191Z,,0,,,16205.821999976179,completion,,,,,false,,,,375815.39999997616,375783.39999997616,359561.371,359564.39999997616,359577.578,375819.724,8,400,,,
trial,html.Screen,4_100_0,2023-09-14T03:46:14.891Z,,0,3,,2695.375999904645,response,ISIC_0063852.JPG,1,ISIC_2867416.JPG,ISIC_2867416.JPG,false,0,keypress(z),500,378515.5,378515.09999990463,375802.183,375815.59999990463,375819.724,378517.944,8,400,1,,ISIC_0063852.JPG
break,html.Screen,4_100_1,2023-09-14T03:46:14.892Z,,0,,,NaN,,,,,,false,,,,378516.2999999523,378516,,378515.6999999285,,378517.944,8,400,,,
break_continue,html.Screen,4_100_2,2023-09-14T03:46:14.892Z,,0,,,NaN,,,,,,false,,,,378516.7999999523,378516.6999999285,,378516.59999990463,,378517.944,8,400,,,
sequence,flow.Sequence,4_100,2023-09-14T03:46:14.893Z,,0,,,2696.975999928487,completion,,,,,false,,,,378517,378516.6999999285,375802.183,375815.59999990463,375819.724,378517.944,8,400,,,
trial,html.Screen,4_101_0,2023-09-14T03:46:17.416Z,,0,3,,2522.2559999284567,response,ISIC_0029212.JPG,0,ISIC_8545097.JPG,ISIC_8545097.JPG,false,0,keypress(z),500,381040.5,381040.1999999285,378501.334,378517.09999990463,378517.944,381050.03,8,400,2,,ISIC_0029212.JPG
break,html.Screen,4_101_1,2023-09-14T03:46:17.417Z,,0,,,NaN,,,,,,false,,,,381041.1999999285,381040.89999997616,,381040.59999990463,,381050.03,8,400,,,
break_continue,html.Screen,4_101_2,2023-09-14T03:46:17.417Z,,0,,,NaN,,,,,,false,,,,381041.7999999523,381041.6999999285,,381041.5,,381050.03,8,400,,,
sequence,flow.Sequence,4_101,2023-09-14T03:46:17.418Z,,0,,,2523.7559999284567,completion,,,,,false,,,,381042,381041.6999999285,378501.334,378517.09999990463,378517.944,381050.03,8,400,,,
trial,html.Screen,4_102_0,2023-09-14T03:46:19.963Z,,0,3,,2537.1699999284465,response,ISIC_0033299.JPG,20,ISIC_0009959.JPG,ISIC_0009959.JPG,false,0,keypress(z),500,383587.59999990463,383587.1999999285,381033.412,381042.09999990463,381050.03,383598.87,8,400,3,,ISIC_0033299.JPG
break,html.Screen,4_102_1,2023-09-14T03:46:19.964Z,,0,,,NaN,,,,,,false,,,,383588.59999990463,383588.09999990463,,383587.7999999523,,383598.87,8,400,,,
break_continue,html.Screen,4_102_2,2023-09-14T03:46:19.965Z,,0,,,NaN,,,,,,false,,,,383589,383588.89999997616,,383588.6999999285,,383598.87,8,400,,,
sequence,flow.Sequence,4_102,2023-09-14T03:46:19.965Z,,0,,,2538.86999997613,completion,,,,,false,,,,383589.09999990463,383588.89999997616,381033.412,381042.09999990463,381050.03,383598.87,8,400,,,
trial,html.Screen,4_103_0,2023-09-14T03:46:22.615Z,,0,3,,2640.6300000000047,response,ISIC_6447681.JPG,19,ISIC_0011958.JPG,ISIC_6447681.JPG,false,1,keypress(m),500,386239.7999999523,386239.5,383582.185,383589.1999999285,383598.87,386247.398,8,400,4,,ISIC_0011958.JPG
break,html.Screen,4_103_1,2023-09-14T03:46:22.616Z,,0,,,NaN,,,,,,false,,,,386240.59999990463,386240.2999999523,,386239.89999997616,,386247.398,8,400,,,
break_continue,html.Screen,4_103_2,2023-09-14T03:46:22.617Z,,0,,,NaN,,,,,,false,,,,386241,386240.89999997616,,386240.6999999285,,386247.398,8,400,,,
sequence,flow.Sequence,4_103,2023-09-14T03:46:22.617Z,,0,,,2642.029999976163,completion,,,,,false,,,,386241.09999990463,386240.89999997616,383582.185,383589.1999999285,383598.87,386247.398,8,400,,,
trial,html.Screen,4_104_0,2023-09-14T03:46:25.212Z,,0,3,,2588.301999928488,response,ISIC_0046596.JPG,11,ISIC_2294790.JPG,ISIC_2294790.JPG,false,0,keypress(z),500,388836.59999990463,388835.6999999285,386230.918,386241.1999999285,386247.398,388846.082,8,400,5,,ISIC_0046596.JPG
break,html.Screen,4_104_1,2023-09-14T03:46:25.214Z,,0,,,NaN,,,,,,false,,,,388838.1999999285,388837.39999997616,,388836.7999999523,,388846.082,8,400,,,
break_continue,html.Screen,4_104_2,2023-09-14T03:46:25.214Z,,0,,,NaN,,,,,,false,,,,388838.6999999285,388838.59999990463,,388838.39999997616,,388846.082,8,400,,,
sequence,flow.Sequence,4_104,2023-09-14T03:46:25.215Z,,0,,,2591.201999904646,completion,,,,,false,,,,388839,388838.59999990463,386230.918,386241.1999999285,386247.398,388846.082,8,400,,,
trial,html.Screen,4_105_0,2023-09-14T03:46:28.129Z,,0,3,,2906.8179999761633,response,ISIC_2513018.JPG,9,ISIC_0011458.JPG,ISIC_2513018.JPG,false,1,keypress(m),500,391753.2999999523,391752.89999997616,388829.531,388839.1999999285,388846.082,391761.859,8,400,6,,ISIC_0011458.JPG
break,html.Screen,4_105_1,2023-09-14T03:46:28.130Z,,0,,,NaN,,,,,,false,,,,391754.5,391754,,391753.5,,391761.859,8,400,,,
break_continue,html.Screen,4_105_2,2023-09-14T03:46:28.131Z,,0,,,NaN,,,,,,false,,,,391754.89999997616,391754.7999999523,,391754.59999990463,,391761.859,8,400,,,
sequence,flow.Sequence,4_105,2023-09-14T03:46:28.131Z,,0,,,2908.7179999523214,completion,,,,,false,,,,391755.2999999523,391754.7999999523,388829.531,388839.09999990463,388846.082,391761.859,8,400,,,
trial,html.Screen,4_106_0,2023-09-14T03:46:30.568Z,,0,3,,2430.5409999761614,response,ISIC_0054932.JPG,12,ISIC_4967639.JPG,ISIC_4967639.JPG,false,0,keypress(z),500,394192.7999999523,394192.39999997616,391744.744,391755.5,391761.859,394210.255,8,400,7,,ISIC_0054932.JPG
break,html.Screen,4_106_1,2023-09-14T03:46:30.569Z,,0,,,NaN,,,,,,false,,,,394193.6999999285,394193.39999997616,,394193.09999990463,,394210.255,8,400,,,
break_continue,html.Screen,4_106_2,2023-09-14T03:46:30.570Z,,0,,,NaN,,,,,,false,,,,394194.2999999523,394194.1999999285,,394193.89999997616,,394210.255,8,400,,,
sequence,flow.Sequence,4_106,2023-09-14T03:46:30.570Z,,0,,,2432.3409999284777,completion,,,,,false,,,,394194.5,394194.1999999285,391744.744,391755.39999997616,391761.859,394210.255,8,400,,,
trial,html.Screen,4_107_0,2023-09-14T03:46:33.783Z,,0,3,,3197.2449999999953,response,ISIC_0028606.JPG,10,ISIC_0013572.JPG,ISIC_0028606.JPG,false,1,keypress(m),500,397407.6999999285,397407.5,394193.422,394194.59999990463,394210.255,397425.08,8,400,8,,ISIC_0013572.JPG
break,html.Screen,4_107_1,2023-09-14T03:46:33.784Z,,0,,,NaN,,,,,,false,,,,397408.1999999285,397408.09999990463,,397407.7999999523,,397425.08,8,400,,,
break_continue,html.Screen,4_107_2,2023-09-14T03:46:33.784Z,,0,,,NaN,,,,,,false,,,,397408.6999999285,397408.59999990463,,397408.1999999285,,397425.08,8,400,,,
sequence,flow.Sequence,4_107,2023-09-14T03:46:33.784Z,,0,,,3198.344999904628,completion,,,,,false,,,,397408.6999999285,397408.59999990463,394193.422,394194.5,394210.255,397425.08,8,400,,,
trial,html.Screen,4_108_0,2023-09-14T03:46:36.580Z,,0,3,,2778.819999976142,response,ISIC_3585381.JPG,9,ISIC_1280780.JPG,ISIC_3585381.JPG,false,1,keypress(m),500,400204.09999990463,400203.89999997616,397391.777,397408.7999999523,397425.08,400207.044,8,400,9,,ISIC_1280780.JPG
break,html.Screen,4_108_1,2023-09-14T03:46:36.581Z,,0,,,NaN,,,,,,false,,,,400205,400204.6999999285,,400204.2999999523,,400207.044,8,400,,,
break_continue,html.Screen,4_108_2,2023-09-14T03:46:36.581Z,,0,,,NaN,,,,,,false,,,,400205.6999999285,400205.5,,400205.2999999523,,400207.044,8,400,,,
sequence,flow.Sequence,4_108,2023-09-14T03:46:36.581Z,,0,,,2780.4199999999837,completion,,,,,false,,,,400205.89999997616,400205.5,397391.777,397408.7999999523,397425.08,400207.044,8,400,,,
trial,html.Screen,4_109_0,2023-09-14T03:46:39.152Z,,0,3,,2569.65599992848,response,ISIC_0202119.JPG,7,ISIC_0071901.JPG,ISIC_0202119.JPG,false,1,keypress(m),500,402776.7999999523,402776.6999999285,400190.733,400206,400207.044,402789.32,8,400,10,,ISIC_0071901.JPG
break,html.Screen,4_109_1,2023-09-14T03:46:39.153Z,,0,,,NaN,,,,,,false,,,,402777.89999997616,402777.5,,402777.09999990463,,402789.32,8,400,,,
break_continue,html.Screen,4_109_2,2023-09-14T03:46:39.154Z,,0,,,NaN,,,,,,false,,,,402778.5,402778.1999999285,,402778.09999990463,,402789.32,8,400,,,
sequence,flow.Sequence,4_109,2023-09-14T03:46:39.154Z,,0,,,2571.15599992848,completion,,,,,false,,,,402778.6999999285,402778.1999999285,400190.733,400206,400207.044,402789.32,8,400,,,
trial,html.Screen,4_110_0,2023-09-14T03:46:42.282Z,,0,3,,3116.9799999523093,response,ISIC_6215631.JPG,6,ISIC_0056991.JPG,ISIC_0056991.JPG,false,0,keypress(z),500,405906.59999990463,405906.2999999523,402772.673,402778.89999997616,402789.32,405921.178,8,400,11,,ISIC_6215631.JPG
break,html.Screen,4_110_1,2023-09-14T03:46:42.283Z,,0,,,NaN,,,,,,false,,,,405907.59999990463,405907.09999990463,,405906.7999999523,,405921.178,8,400,,,
break_continue,html.Screen,4_110_2,2023-09-14T03:46:42.284Z,,0,,,NaN,,,,,,false,,,,405908,405907.89999997616,,405907.7999999523,,405921.178,8,400,,,
sequence,flow.Sequence,4_110,2023-09-14T03:46:42.284Z,,0,,,3118.579999976151,completion,,,,,false,,,,405908.09999990463,405907.89999997616,402772.673,402778.89999997616,402789.32,405921.178,8,400,,,
trial,html.Screen,4_111_0,2023-09-14T03:46:45.987Z,,0,3,,3689.8219999999856,response,ISIC_0029205.JPG,20,ISIC_0034044.JPG,ISIC_0034044.JPG,false,0,keypress(z),500,409611.2999999523,409611,405904.413,405908.2999999523,405921.178,409619.018,8,400,12,,ISIC_0029205.JPG
break,html.Screen,4_111_1,2023-09-14T03:46:45.988Z,,0,,,NaN,,,,,,false,,,,409612.1999999285,409611.89999997616,,409611.5,,409619.018,8,400,,,
break_continue,html.Screen,4_111_2,2023-09-14T03:46:45.988Z,,0,,,NaN,,,,,,false,,,,409612.7999999523,409612.59999990463,,409612.39999997616,,409619.018,8,400,,,
sequence,flow.Sequence,4_111,2023-09-14T03:46:45.989Z,,0,,,3691.421999904618,completion,,,,,false,,,,409612.89999997616,409612.59999990463,405904.413,405908.1999999285,405921.178,409619.018,8,400,,,
trial,html.Screen,4_112_0,2023-09-14T03:46:49.220Z,,0,3,,3225.1819999284926,response,ISIC_2075121.JPG,36,ISIC_0591226.JPG,ISIC_0591226.JPG,false,0,keypress(z),500,412844.5,412844.1999999285,409602.835,409613.09999990463,409619.018,412850.74,8,400,13,,ISIC_2075121.JPG
break,html.Screen,4_112_1,2023-09-14T03:46:49.221Z,,0,,,NaN,,,,,,false,,,,412845.5,412845.09999990463,,412844.7999999523,,412850.74,8,400,,,
break_continue,html.Screen,4_112_2,2023-09-14T03:46:49.222Z,,0,,,NaN,,,,,,false,,,,412846,412845.89999997616,,412845.7999999523,,412850.74,8,400,,,
sequence,flow.Sequence,4_112,2023-09-14T03:46:49.222Z,,0,,,3226.8819999761763,completion,,,,,false,,,,412846.1999999285,412845.89999997616,409602.835,409613,409619.018,412850.74,8,400,,,
trial,html.Screen,4_113_0,2023-09-14T03:46:51.837Z,,0,3,,2610.2600000000093,response,ISIC_2287151.JPG,21,ISIC_0071133.JPG,ISIC_2287151.JPG,false,1,keypress(m),500,415461.39999997616,415461,412834.108,412846.2999999523,412850.74,415466.066,8,400,14,,ISIC_0071133.JPG
break,html.Screen,4_113_1,2023-09-14T03:46:51.838Z,,0,,,NaN,,,,,,false,,,,415462.39999997616,415461.89999997616,,415461.5,,415466.066,8,400,,,
break_continue,html.Screen,4_113_2,2023-09-14T03:46:51.838Z,,0,,,NaN,,,,,,false,,,,415462.7999999523,415462.7999999523,,415462.5,,415466.066,8,400,,,
sequence,flow.Sequence,4_113,2023-09-14T03:46:51.839Z,,0,,,2612.0599999523256,completion,,,,,false,,,,415463,415462.7999999523,412834.108,412846.2999999523,412850.74,415466.066,8,400,,,
trial,html.Screen,4_114_0,2023-09-14T03:46:54.341Z,,0,3,,2498.633999928483,response,ISIC_0010262.JPG,19,ISIC_0010017.JPG,ISIC_0010262.JPG,false,1,keypress(m),500,417965,417964.6999999285,415449.494,415463.09999990463,415466.066,417981.79,8,400,15,,ISIC_0010017.JPG
break,html.Screen,4_114_1,2023-09-14T03:46:54.341Z,,0,,,NaN,,,,,,false,,,,417965.89999997616,417965.5,,417965.1999999285,,417981.79,8,400,,,
break_continue,html.Screen,4_114_2,2023-09-14T03:46:54.342Z,,0,,,NaN,,,,,,false,,,,417966.5,417966.2999999523,,417966.09999990463,,417981.79,8,400,,,
sequence,flow.Sequence,4_114,2023-09-14T03:46:54.342Z,,0,,,2500.2339999523247,completion,,,,,false,,,,417966.59999990463,417966.2999999523,415449.494,415463.09999990463,415466.066,417981.79,8,400,,,
trial,html.Screen,4_115_0,2023-09-14T03:46:56.876Z,,0,3,,2518.9099999284954,response,ISIC_6069236.JPG,5,ISIC_0054220.JPG,ISIC_6069236.JPG,false,1,keypress(m),500,420500.89999997616,420500.6999999285,417965.078,417966.7999999523,417981.79,420513.599,8,400,16,,ISIC_0054220.JPG
break,html.Screen,4_115_1,2023-09-14T03:46:56.878Z,,0,,,NaN,,,,,,false,,,,420502.09999990463,420501.7999999523,,420501.2999999523,,420513.599,8,400,,,
break_continue,html.Screen,4_115_2,2023-09-14T03:46:56.878Z,,0,,,NaN,,,,,,false,,,,420502.59999990463,420502.39999997616,,420502.2999999523,,420513.599,8,400,,,
sequence,flow.Sequence,4_115,2023-09-14T03:46:56.878Z,,0,,,2520.609999976179,completion,,,,,false,,,,420502.6999999285,420502.39999997616,417965.078,417966.7999999523,417981.79,420513.599,8,400,,,
trial,html.Screen,4_116_0,2023-09-14T03:46:59.921Z,,0,3,,3031.3009999761707,response,ISIC_8263741.JPG,4,ISIC_0033213.JPG,ISIC_0033213.JPG,false,0,keypress(z),500,423545.1999999285,423544.89999997616,420497.053,420502.7999999523,420513.599,423562.116,8,400,17,,ISIC_8263741.JPG
break,html.Screen,4_116_1,2023-09-14T03:46:59.922Z,,0,,,NaN,,,,,,false,,,,423545.89999997616,423545.6999999285,,423545.39999997616,,423562.116,8,400,,,
break_continue,html.Screen,4_116_2,2023-09-14T03:46:59.922Z,,0,,,NaN,,,,,,false,,,,423546.7999999523,423546.39999997616,,423546,,423562.116,8,400,,,
sequence,flow.Sequence,4_116,2023-09-14T03:46:59.923Z,,0,,,3032.8009999761707,completion,,,,,false,,,,423546.7999999523,423546.39999997616,420497.053,420502.6999999285,420513.599,423562.116,8,400,,,
trial,html.Screen,4_117_0,2023-09-14T03:47:02.454Z,,0,3,,2515.6839999523363,response,ISIC_1578399.JPG,2,ISIC_5354827.JPG,ISIC_1578399.JPG,false,1,keypress(m),500,426078,426077.7999999523,423545.679,423547,423562.116,426094.228,8,400,18,,ISIC_5354827.JPG
break,html.Screen,4_117_1,2023-09-14T03:47:02.455Z,,0,,,NaN,,,,,,false,,,,426078.89999997616,426078.59999990463,,426078.1999999285,,426094.228,8,400,,,
break_continue,html.Screen,4_117_2,2023-09-14T03:47:02.455Z,,0,,,NaN,,,,,,false,,,,426079.39999997616,426079.2999999523,,426079.09999990463,,426094.228,8,400,,,
sequence,flow.Sequence,4_117,2023-09-14T03:47:02.455Z,,0,,,2517.1839999523363,completion,,,,,false,,,,426079.5,426079.2999999523,423545.679,423546.89999997616,423562.116,426094.228,8,400,,,
trial,html.Screen,4_118_0,2023-09-14T03:47:05.529Z,,0,3,,3059.1719999761553,response,ISIC_4419686.JPG,5,ISIC_0063521.JPG,ISIC_4419686.JPG,false,1,keypress(m),500,429153.6999999285,429153.39999997616,426077.536,426079.6999999285,426094.228,429159.199,8,400,19,,ISIC_0063521.JPG
break,html.Screen,4_118_1,2023-09-14T03:47:05.531Z,,0,,,NaN,,,,,,false,,,,429154.89999997616,429154.59999990463,,429153.89999997616,,429159.199,8,400,,,
break_continue,html.Screen,4_118_2,2023-09-14T03:47:05.531Z,,0,,,NaN,,,,,,false,,,,429155.1999999285,429155.1999999285,,429155,,429159.199,8,400,,,
sequence,flow.Sequence,4_118,2023-09-14T03:47:05.531Z,,0,,,3060.9719999284716,completion,,,,,false,,,,429155.39999997616,429155.1999999285,426077.536,426079.59999990463,426094.228,429159.199,8,400,,,
trial,html.Screen,4_119_0,2023-09-14T03:47:08.425Z,,0,3,,2890.100999952294,response,ISIC_0029481.JPG,0,ISIC_7662993.JPG,ISIC_0029481.JPG,false,1,keypress(m),500,432049.5,432049.2999999523,429142.792,429155.5,429159.199,432058.021,8,400,20,,ISIC_7662993.JPG
break,html.Screen,4_119_1,2023-09-14T03:47:08.426Z,,0,,,NaN,,,,,,false,,,,432050.2999999523,432050,,432049.6999999285,,432058.021,8,400,,,
break_continue,html.Screen,4_119_2,2023-09-14T03:47:08.427Z,,0,,,NaN,,,,,,false,,,,432051,432050.6999999285,,432050.5,,432058.021,8,400,,,
sequence,flow.Sequence,4_119,2023-09-14T03:47:08.427Z,,0,,,2891.500999928452,completion,,,,,false,,,,432051.1999999285,432050.6999999285,429142.792,429155.39999997616,429159.199,432058.021,8,400,,,
trial,html.Screen,4_120_0,2023-09-14T03:47:11.467Z,,0,3,,3032.7789999523084,response,ISIC_3868662.JPG,14,ISIC_0024745.JPG,ISIC_0024745.JPG,false,0,keypress(z),500,435091.09999990463,435090.7999999523,432041.137,432051.39999997616,432058.021,435106.452,8,400,21,,ISIC_3868662.JPG
break,html.Screen,4_120_1,2023-09-14T03:47:11.468Z,,0,,,NaN,,,,,,false,,,,435091.89999997616,435091.59999990463,,435091.2999999523,,435106.452,8,400,,,
break_continue,html.Screen,4_120_2,2023-09-14T03:47:11.468Z,,0,,,NaN,,,,,,false,,,,435092.39999997616,435092.1999999285,,435092.09999990463,,435106.452,8,400,,,
sequence,flow.Sequence,4_120,2023-09-14T03:47:11.468Z,,0,,,3034.1789999284665,completion,,,,,false,,,,435092.5,435092.1999999285,432041.137,432051.2999999523,432058.021,435106.452,8,400,,,
trial,html.Screen,4_121_0,2023-09-14T03:47:14.377Z,,0,3,,2894.247999928484,response,ISIC_4632020.JPG,4,ISIC_7032028.JPG,ISIC_4632020.JPG,false,1,keypress(m),500,438000.89999997616,438000.6999999285,435089.74,435092.6999999285,435106.452,438004.738,8,400,22,,ISIC_7032028.JPG
break,html.Screen,4_121_1,2023-09-14T03:47:14.377Z,,0,,,NaN,,,,,,false,,,,438001.59999990463,438001.39999997616,,438001.09999990463,,438004.738,8,400,,,
break_continue,html.Screen,4_121_2,2023-09-14T03:47:14.378Z,,0,,,NaN,,,,,,false,,,,438001.89999997616,438001.89999997616,,438001.7999999523,,438004.738,8,400,,,
sequence,flow.Sequence,4_121,2023-09-14T03:47:14.378Z,,0,,,2895.447999976168,completion,,,,,false,,,,438002.09999990463,438001.89999997616,435089.74,435092.6999999285,435106.452,438004.738,8,400,,,
trial,html.Screen,4_122_0,2023-09-14T03:47:17.630Z,,0,3,,3248.8619999046205,response,ISIC_9597731.JPG,9,ISIC_2852805.JPG,ISIC_2852805.JPG,false,0,keypress(z),500,441254.09999990463,441253.59999990463,437988.081,438002.1999999285,438004.738,441269.858,8,400,23,,ISIC_9597731.JPG
break,html.Screen,4_122_1,2023-09-14T03:47:17.632Z,,0,,,NaN,,,,,,false,,,,441256.39999997616,441256.1999999285,,441254.39999997616,,441269.858,8,400,,,
break_continue,html.Screen,4_122_2,2023-09-14T03:47:17.633Z,,0,,,NaN,,,,,,false,,,,441257.09999990463,441256.89999997616,,441256.59999990463,,441269.858,8,400,,,
sequence,flow.Sequence,4_122,2023-09-14T03:47:17.633Z,,0,,,3252.161999976146,completion,,,,,false,,,,441257.5,441256.89999997616,437988.081,438002.1999999285,438004.738,441269.858,8,400,,,
trial,html.Screen,4_123_0,2023-09-14T03:47:21.098Z,,0,3,,3451.841999928467,response,ISIC_5675703.JPG,14,ISIC_0032133.JPG,ISIC_0032133.JPG,false,0,keypress(z),500,444721.89999997616,444721.6999999285,441252.958,441257.59999990463,441269.858,444734.766,8,400,24,,ISIC_5675703.JPG
break,html.Screen,4_123_1,2023-09-14T03:47:21.098Z,,0,,,NaN,,,,,,false,,,,444722.6999999285,444722.39999997616,,444722.09999990463,,444734.766,8,400,,,
break_continue,html.Screen,4_123_2,2023-09-14T03:47:21.099Z,,0,,,NaN,,,,,,false,,,,444723.1999999285,444723.09999990463,,444722.89999997616,,444734.766,8,400,,,
sequence,flow.Sequence,4_123,2023-09-14T03:47:21.099Z,,0,,,3453.241999904625,completion,,,,,false,,,,444723.39999997616,444723.09999990463,441252.958,441257.59999990463,441269.858,444734.766,8,400,,,
trial,html.Screen,4_124_0,2023-09-14T03:47:23.769Z,,0,3,,2658.7339999999967,response,ISIC_0740449.JPG,28,ISIC_0029478.JPG,ISIC_0740449.JPG,false,1,keypress(m),500,447393.6999999285,447393.5,444718.14,444723.39999997616,444734.766,447400.055,8,400,25,,ISIC_0029478.JPG
break,html.Screen,4_124_1,2023-09-14T03:47:23.771Z,,0,,,NaN,,,,,,false,,,,447395,447394.2999999523,,447393.89999997616,,447400.055,8,400,,,
break_continue,html.Screen,4_124_2,2023-09-14T03:47:23.771Z,,0,,,NaN,,,,,,false,,,,447395.39999997616,447395.2999999523,,447395.09999990463,,447400.055,8,400,,,
sequence,flow.Sequence,4_124,2023-09-14T03:47:23.771Z,,0,,,2660.533999952313,completion,,,,,false,,,,447395.59999990463,447395.2999999523,444718.14,444723.39999997616,444734.766,447400.055,8,400,,,
trial,html.Screen,4_125_0,2023-09-14T03:47:26.808Z,,0,3,,3032.0449999046396,response,ISIC_8278688.JPG,8,ISIC_0031626.JPG,ISIC_0031626.JPG,false,0,keypress(z),500,450432.59999990463,450432.09999990463,447383.905,447395.6999999285,447400.055,450448.582,8,400,26,,ISIC_8278688.JPG
break,html.Screen,4_125_1,2023-09-14T03:47:26.809Z,,0,,,NaN,,,,,,false,,,,450433.39999997616,450433.09999990463,,450432.7999999523,,450448.582,8,400,,,
