sender,sender_type,sender_id,timestamp,meta,,blockNo,condition,duration,ended_on,img_left,img_reveal,img_right,loser,practice,response,response_action,selection_duration,time_commit,time_end,time_render,time_run,time_show,time_switch,total_blocks,total_trials,trialNo,url,winner
informed_consent,html.Screen,0,2023-09-12T19:41:20.823Z,"{""labjs_version"":""20.2.4"",""labjs_build"":{""flavor"":""production"",""commit"":""f5b4a49f956347addd546a832a3327688c2c0fef""},""location"":""https://run.pavlovia.org/MurrayBennett/melanoma-2afc/?participant=67173&platform=sona"",""userAgent"":""Mozilla/5.0 (Windows NT 10.0; Win64; x64) AppleWebKit/537.36 (KHTML, like Gecko) Chrome/116.0.0.0 Safari/537.36"",""platform"":""Win32"",""language"":""en-US"",""locale"":""en-US"",""timeZone"":""America/Chicago"",""timezoneOffset"":300,""screen_width"":1280,""screen_height"":800,""scroll_width"":1280,""scroll_height"":627,""window_innerWidth"":1280,""window_innerHeight"":675,""devicePixelRatio"":1.5}",,,,9322.93399998808,response,,,,,,consent,click button,,13233.299999982119,13230.699999988079,3891.07,3900.399999976158,3907.766,13253.944,,,,"{""participant"":""67173"",""platform"":""sona""}",
Welcome,html.Screen,1,2023-09-12T19:41:50.999Z,,,,symmetry,30152.75599998808,response,,,,,,continue,click button,,43409.09999999404,43406.69999998808,13224.513,13233.59999999404,13253.944,43424.956,,,,,
trial,html.Screen,2_0_0,2023-09-12T19:41:57.730Z,,0,0,,6714.94399997616,response,ISIC_0069348.JPG,,ISIC_6997061.JPG,ISIC_0069348.JPG,true,1,keypress(m),500,50140.19999998808,50139.89999997616,43399.068,43409.5,43424.956,50155.556,1,6,1,,ISIC_6997061.JPG
sequence,flow.Sequence,2_0,2023-09-12T19:41:57.730Z,,0,,,6714.94399997616,completion,,,,,true,,,,50140.59999999404,50139.89999997616,43399.068,43409.5,43424.956,50155.556,1,6,,,
trial,html.Screen,2_1_0,2023-09-12T19:42:01.645Z,,0,0,,3899.643999988082,response,ISIC_0057368.JPG,,ISIC_0009529.JPG,ISIC_0057368.JPG,true,1,keypress(m),500,54055.5,54055.19999998808,50126.579,50140.69999998808,50155.556,54071.007,1,6,2,,ISIC_0009529.JPG
sequence,flow.Sequence,2_1,2023-09-12T19:42:01.645Z,,0,,,3899.643999988082,completion,,,,,true,,,,54055.79999998212,54055.19999998808,50126.579,50140.59999999404,50155.556,54071.007,1,6,,,
trial,html.Screen,2_2_0,2023-09-12T19:42:06.018Z,,0,0,,4356.89299997616,response,ISIC_0064954.JPG,,ISIC_9758671.JPG,ISIC_9758671.JPG,true,0,keypress(z),500,58428.29999998212,58427.89999997616,54041.572,54056,54071.007,58435.563,1,6,3,,ISIC_0064954.JPG
sequence,flow.Sequence,2_2,2023-09-12T19:42:06.018Z,,0,,,4356.89299997616,completion,,,,,true,,,,58428.59999999404,58427.89999997616,54041.572,54055.89999997616,54071.007,58435.563,1,6,,,
trial,html.Screen,2_3_0,2023-09-12T19:42:09.632Z,,0,0,,3599.436999999998,response,ISIC_0000080.JPG,,ISIC_0005785.JPG,ISIC_0005785.JPG,true,0,keypress(z),500,62035.39999997616,62035,58419.831,58428.79999998212,58435.563,62051.164,1,6,4,,ISIC_0000080.JPG
sequence,flow.Sequence,2_3,2023-09-12T19:42:09.633Z,,0,,,3599.436999999998,completion,,,,,true,,,,62035.79999998212,62035,58419.831,58428.79999998212,58435.563,62051.164,1,6,,,
trial,html.Screen,2_4_0,2023-09-12T19:42:13.450Z,,0,0,,3801.235999976161,response,ISIC_7944028.JPG,,ISIC_5390060.JPG,ISIC_5390060.JPG,true,0,keypress(z),500,65852.59999999404,65852.39999997616,62023.597,62035.89999997616,62051.164,65865.791,1,6,5,,ISIC_7944028.JPG
sequence,flow.Sequence,2_4,2023-09-12T19:42:13.450Z,,0,,,3801.235999976161,completion,,,,,true,,,,65852.89999997616,65852.39999997616,62023.597,62035.79999998212,62051.164,65865.791,1,6,,,
trial,html.Screen,2_5_0,2023-09-12T19:42:24.087Z,,0,0,,10624.209000000003,response,ISIC_0794216.JPG,,ISIC_0010188.JPG,ISIC_0010188.JPG,true,0,keypress(z),500,76490.29999998212,76490,65849.188,65853.09999999404,65865.791,76494.803,1,6,6,,ISIC_0794216.JPG
sequence,flow.Sequence,2_5,2023-09-12T19:42:24.088Z,,0,,,10624.209000000003,completion,,,,,true,,,,76490.5,76490,65849.188,65853.09999999404,65865.791,76494.803,1,6,,,
loop,flow.Loop,2,2023-09-12T19:42:24.088Z,,,,,33065.044,completion,,,,,true,,,,76490.69999998808,76490,43399.068,43409.39999997616,43424.956,76494.803,1,6,,,
exp_instructions,html.Screen,3,2023-09-12T19:42:28.948Z,,,,,4854.79699999404,response,,,,,,continue,keypress(Space),,81350.59999999404,81349.59999999404,76481.611,76490.79999998212,76494.803,81359.569,,,,,
trial,html.Screen,4_0_0,2023-09-12T19:42:34.538Z,,0,1,,5581.530999994036,response,ISIC_3432650.JPG,6,ISIC_4116224.JPG,ISIC_3432650.JPG,false,1,keypress(m),500,86941.39999997616,86941.09999999404,81337.609,81351,81359.569,86957.175,8,400,1,,ISIC_4116224.JPG
break,html.Screen,4_0_1,2023-09-12T19:42:34.540Z,,0,,,NaN,,,,,,false,,,,86942.59999999404,86942.29999998212,,86941.5,,86957.175,8,400,,,
break_continue,html.Screen,4_0_2,2023-09-12T19:42:34.540Z,,0,,,NaN,,,,,,false,,,,86943,86942.89999997616,,86942.69999998808,,86957.175,8,400,,,
sequence,flow.Sequence,4_0,2023-09-12T19:42:34.540Z,,0,,,5583.330999976155,completion,,,,,false,,,,86943.09999999404,86942.89999997616,81337.609,81350.79999998212,81359.569,86957.175,8,400,,,
trial,html.Screen,4_1_0,2023-09-12T19:42:37.929Z,,0,1,,3374.324999999997,response,ISIC_4926448.JPG,10,ISIC_0059065.JPG,ISIC_0059065.JPG,false,0,keypress(z),500,90331.89999997616,90331.5,86939.168,86943.29999998212,86957.175,90339.173,8,400,2,,ISIC_4926448.JPG
break,html.Screen,4_1_1,2023-09-12T19:42:37.931Z,,0,,,NaN,,,,,,false,,,,90333.89999997616,90333.69999998808,,90333.09999999404,,90339.173,8,400,,,
break_continue,html.Screen,4_1_2,2023-09-12T19:42:37.931Z,,0,,,NaN,,,,,,false,,,,90334.19999998808,90334.19999998808,,90334,,90339.173,8,400,,,
sequence,flow.Sequence,4_1,2023-09-12T19:42:37.931Z,,0,,,3377.024999988076,completion,,,,,false,,,,90334.29999998212,90334.19999998808,86939.168,86943.19999998808,86957.175,90339.173,8,400,,,
trial,html.Screen,4_2_0,2023-09-12T19:42:43.185Z,,0,1,,5248.426999994044,response,ISIC_7681490.JPG,8,ISIC_8699453.JPG,ISIC_8699453.JPG,false,0,keypress(z),500,95587.79999998212,95587.59999999404,90333.016,90334.39999997616,90339.173,95620.68,8,400,3,,ISIC_7681490.JPG
break,html.Screen,4_2_1,2023-09-12T19:42:43.186Z,,0,,,NaN,,,,,,false,,,,95588.89999997616,95588.69999998808,,95588,,95620.68,8,400,,,
break_continue,html.Screen,4_2_2,2023-09-12T19:42:43.186Z,,0,,,NaN,,,,,,false,,,,95589.19999998808,95589.19999998808,,95589.09999999404,,95620.68,8,400,,,
sequence,flow.Sequence,4_2,2023-09-12T19:42:43.186Z,,0,,,5250.026999988084,completion,,,,,false,,,,95589.39999997616,95589.19999998808,90333.016,90334.39999997616,90339.173,95620.68,8,400,,,
trial,html.Screen,4_3_0,2023-09-12T19:42:46.359Z,,0,1,,3140.519999988086,response,ISIC_0749263.JPG,12,ISIC_0033879.JPG,ISIC_0749263.JPG,false,1,keypress(m),500,98761.5,98761.19999998808,95604.102,95589.5,95620.68,98769.108,8,400,4,,ISIC_0033879.JPG
break,html.Screen,4_3_1,2023-09-12T19:42:46.360Z,,0,,,NaN,,,,,,false,,,,98762.39999997616,98762.19999998808,,98761.69999998808,,98769.108,8,400,,,
break_continue,html.Screen,4_3_2,2023-09-12T19:42:46.360Z,,0,,,NaN,,,,,,false,,,,98762.79999998212,98762.79999998212,,98762.5,,98769.108,8,400,,,
sequence,flow.Sequence,4_3,2023-09-12T19:42:46.360Z,,0,,,3142.1199999821256,completion,,,,,false,,,,98762.89999997616,98762.79999998212,95604.102,95589.5,95620.68,98769.108,8,400,,,
trial,html.Screen,4_4_0,2023-09-12T19:42:49.533Z,,0,1,,3166.4919999940466,response,ISIC_0025001.JPG,13,ISIC_0013775.JPG,ISIC_0025001.JPG,false,1,keypress(m),500,101935.89999997616,101935.59999999404,98752.173,98763,98769.108,101951.117,8,400,5,,ISIC_0013775.JPG
break,html.Screen,4_4_1,2023-09-12T19:42:49.534Z,,0,,,NaN,,,,,,false,,,,101937,101936.79999998212,,101936.09999999404,,101951.117,8,400,,,
break_continue,html.Screen,4_4_2,2023-09-12T19:42:49.534Z,,0,,,NaN,,,,,,false,,,,101937.29999998212,101937.29999998212,,101937.09999999404,,101951.117,8,400,,,
sequence,flow.Sequence,4_4,2023-09-12T19:42:49.535Z,,0,,,3168.1919999821257,completion,,,,,false,,,,101937.5,101937.29999998212,98752.173,98763,98769.108,101951.117,8,400,,,
trial,html.Screen,4_5_0,2023-09-12T19:42:54.057Z,,0,1,,4508.883000000002,response,ISIC_0011388.JPG,13,ISIC_0028515.JPG,ISIC_0011388.JPG,false,1,keypress(m),500,106460.19999998808,106460,101930.523,101937.5,101951.117,106465.917,8,400,6,,ISIC_0028515.JPG
break,html.Screen,4_5_1,2023-09-12T19:42:54.058Z,,0,,,NaN,,,,,,false,,,,106461.39999997616,106461.09999999404,,106460.5,,106465.917,8,400,,,
break_continue,html.Screen,4_5_2,2023-09-12T19:42:54.059Z,,0,,,NaN,,,,,,false,,,,106461.89999997616,106461.79999998212,,106461.59999999404,,106465.917,8,400,,,
sequence,flow.Sequence,4_5,2023-09-12T19:42:54.059Z,,0,,,4510.68299998212,completion,,,,,false,,,,106462.09999999404,106461.79999998212,101930.523,101937.5,101951.117,106465.917,8,400,,,
trial,html.Screen,4_6_0,2023-09-12T19:42:57.390Z,,0,1,,3326.6829999940383,response,ISIC_9895436.JPG,10,ISIC_7240424.JPG,ISIC_7240424.JPG,false,0,keypress(z),500,109792.89999997616,109792.59999999404,106460.467,106462.09999999404,106465.917,109797.955,8,400,7,,ISIC_9895436.JPG
break,html.Screen,4_6_1,2023-09-12T19:42:57.391Z,,0,,,NaN,,,,,,false,,,,109793.89999997616,109793.59999999404,,109793.09999999404,,109797.955,8,400,,,
break_continue,html.Screen,4_6_2,2023-09-12T19:42:57.391Z,,0,,,NaN,,,,,,false,,,,109794.29999998212,109794.19999998808,,109794,,109797.955,8,400,,,
sequence,flow.Sequence,4_6,2023-09-12T19:42:57.391Z,,0,,,3328.282999988078,completion,,,,,false,,,,109794.39999997616,109794.19999998808,106460.467,106462.09999999404,106465.917,109797.955,8,400,,,
trial,html.Screen,4_7_0,2023-09-12T19:43:01.727Z,,0,1,,4331.744999988077,response,ISIC_0071857.JPG,11,ISIC_0010393.JPG,ISIC_0071857.JPG,false,1,keypress(m),500,114130,114129.69999998808,109782.179,109794.5,109797.955,114146.199,8,400,8,,ISIC_0010393.JPG
break,html.Screen,4_7_1,2023-09-12T19:43:01.728Z,,0,,,NaN,,,,,,false,,,,114131,114130.69999998808,,114130.09999999404,,114146.199,8,400,,,
break_continue,html.Screen,4_7_2,2023-09-12T19:43:01.728Z,,0,,,NaN,,,,,,false,,,,114131.39999997616,114131.29999998212,,114131.09999999404,,114146.199,8,400,,,
sequence,flow.Sequence,4_7,2023-09-12T19:43:01.729Z,,0,,,4333.344999982117,completion,,,,,false,,,,114131.39999997616,114131.29999998212,109782.179,109794.5,109797.955,114146.199,8,400,,,
trial,html.Screen,4_8_0,2023-09-12T19:43:06.933Z,,0,1,,5189.400999994046,response,ISIC_1370142.JPG,5,ISIC_0000424.JPG,ISIC_0000424.JPG,false,0,keypress(z),500,119335.89999997616,119335.59999999404,114116.363,114131.59999999404,114146.199,119344.034,8,400,9,,ISIC_1370142.JPG
break,html.Screen,4_8_1,2023-09-12T19:43:06.934Z,,0,,,NaN,,,,,,false,,,,119337.09999999404,119336.79999998212,,119336.09999999404,,119344.034,8,400,,,
break_continue,html.Screen,4_8_2,2023-09-12T19:43:06.935Z,,0,,,NaN,,,,,,false,,,,119337.69999998808,119337.59999999404,,119337.29999998212,,119344.034,8,400,,,
sequence,flow.Sequence,4_8,2023-09-12T19:43:06.935Z,,0,,,5191.400999994046,completion,,,,,false,,,,119337.79999998212,119337.59999999404,114116.363,114131.5,114146.199,119344.034,8,400,,,
trial,html.Screen,4_9_0,2023-09-12T19:43:10.285Z,,0,1,,3343.8659999761585,response,ISIC_7455460.JPG,6,ISIC_0069411.JPG,ISIC_0069411.JPG,false,0,keypress(z),500,122688.09999999404,122687.89999997616,119328.293,119337.89999997616,119344.034,122692.68,8,400,10,,ISIC_7455460.JPG
break,html.Screen,4_9_1,2023-09-12T19:43:10.287Z,,0,,,NaN,,,,,,false,,,,122689.29999998212,122689,,122688.29999998212,,122692.68,8,400,,,
break_continue,html.Screen,4_9_2,2023-09-12T19:43:10.287Z,,0,,,NaN,,,,,,false,,,,122689.59999999404,122689.5,,122689.39999997616,,122692.68,8,400,,,
sequence,flow.Sequence,4_9,2023-09-12T19:43:10.288Z,,0,,,3345.4660000000003,completion,,,,,false,,,,122690.79999998212,122689.5,119328.293,119337.89999997616,119344.034,122692.68,8,400,,,
trial,html.Screen,4_10_0,2023-09-12T19:43:13.923Z,,0,1,,3632.6199999821256,response,ISIC_1794249.JPG,9,ISIC_5595054.JPG,ISIC_5595054.JPG,false,0,keypress(z),500,126325.59999999404,126325.29999998212,122678.063,122690.89999997616,122692.68,126341.576,8,400,11,,ISIC_1794249.JPG
break,html.Screen,4_10_1,2023-09-12T19:43:13.924Z,,0,,,NaN,,,,,,false,,,,126326.79999998212,126326.59999999404,,126325.79999998212,,126341.576,8,400,,,
break_continue,html.Screen,4_10_2,2023-09-12T19:43:13.924Z,,0,,,NaN,,,,,,false,,,,126327.09999999404,126327.09999999404,,126327,,126341.576,8,400,,,
sequence,flow.Sequence,4_10,2023-09-12T19:43:13.925Z,,0,,,3634.4199999940465,completion,,,,,false,,,,126327.29999998212,126327.09999999404,122678.063,122690.89999997616,122692.68,126341.576,8,400,,,
trial,html.Screen,4_11_0,2023-09-12T19:43:16.892Z,,0,1,,2952.423999999999,response,ISIC_0054885.JPG,5,ISIC_5233226.JPG,ISIC_0054885.JPG,false,1,keypress(m),500,129294.29999998212,129294,126324.489,126327.5,126341.576,129306.971,8,400,12,,ISIC_5233226.JPG
break,html.Screen,4_11_1,2023-09-12T19:43:16.892Z,,0,,,NaN,,,,,,false,,,,129295.09999999404,129294.89999997616,,129294.39999997616,,129306.971,8,400,,,
break_continue,html.Screen,4_11_2,2023-09-12T19:43:16.893Z,,0,,,NaN,,,,,,false,,,,129295.39999997616,129295.29999998212,,129295.19999998808,,129306.971,8,400,,,
sequence,flow.Sequence,4_11,2023-09-12T19:43:16.893Z,,0,,,2953.7239999821177,completion,,,,,false,,,,129295.59999999404,129295.29999998212,126324.489,126327.39999997616,126341.576,129306.971,8,400,,,
trial,html.Screen,4_12_0,2023-09-12T19:43:19.987Z,,0,1,,3082.1289999940345,response,ISIC_0030435.JPG,8,ISIC_5484776.JPG,ISIC_5484776.JPG,false,0,keypress(z),500,132389.5,132389.09999999404,129290.381,129295.69999998808,129306.971,132405.492,8,400,13,,ISIC_0030435.JPG
break,html.Screen,4_12_1,2023-09-12T19:43:19.988Z,,0,,,NaN,,,,,,false,,,,132390.59999999404,132390.29999998212,,132389.59999999404,,132405.492,8,400,,,
break_continue,html.Screen,4_12_2,2023-09-12T19:43:19.988Z,,0,,,NaN,,,,,,false,,,,132391.09999999404,132390.89999997616,,132390.79999998212,,132405.492,8,400,,,
sequence,flow.Sequence,4_12,2023-09-12T19:43:19.988Z,,0,,,3083.928999976153,completion,,,,,false,,,,132391.19999998808,132390.89999997616,129290.381,129295.59999999404,129306.971,132405.492,8,400,,,
trial,html.Screen,4_13_0,2023-09-12T19:43:23.244Z,,0,1,,3241.0080000000016,response,ISIC_8282404.JPG,13,ISIC_0011721.JPG,ISIC_8282404.JPG,false,1,keypress(m),500,135647,135646.5,132389.234,132391.29999998212,132405.492,135654.052,8,400,14,,ISIC_0011721.JPG
break,html.Screen,4_13_1,2023-09-12T19:43:23.245Z,,0,,,NaN,,,,,,false,,,,135648.09999999404,135647.79999998212,,135647.19999998808,,135654.052,8,400,,,
break_continue,html.Screen,4_13_2,2023-09-12T19:43:23.246Z,,0,,,NaN,,,,,,false,,,,135648.5,135648.39999997616,,135648.29999998212,,135654.052,8,400,,,
sequence,flow.Sequence,4_13,2023-09-12T19:43:23.246Z,,0,,,3242.9079999761598,completion,,,,,false,,,,135648.59999999404,135648.39999997616,132389.234,132391.29999998212,132405.492,135654.052,8,400,,,
trial,html.Screen,4_14_0,2023-09-12T19:43:26.739Z,,0,1,,3487.2479999821226,response,ISIC_0030428.JPG,5,ISIC_0062286.JPG,ISIC_0030428.JPG,false,1,keypress(m),500,139141.69999998808,139141.29999998212,135639.526,135648.69999998808,135654.052,139152.574,8,400,15,,ISIC_0062286.JPG
break,html.Screen,4_14_1,2023-09-12T19:43:26.740Z,,0,,,NaN,,,,,,false,,,,139142.69999998808,139142.39999997616,,139141.79999998212,,139152.574,8,400,,,
break_continue,html.Screen,4_14_2,2023-09-12T19:43:26.740Z,,0,,,NaN,,,,,,false,,,,139143,139142.89999997616,,139142.69999998808,,139152.574,8,400,,,
sequence,flow.Sequence,4_14,2023-09-12T19:43:26.740Z,,0,,,3488.847999976162,completion,,,,,false,,,,139143.09999999404,139142.89999997616,135639.526,135648.59999999404,135654.052,139152.574,8,400,,,
trial,html.Screen,4_15_0,2023-09-12T19:43:30.855Z,,0,1,,4105.225999982125,response,ISIC_6625102.JPG,8,ISIC_5122220.JPG,ISIC_6625102.JPG,false,1,keypress(m),500,143258,143257.79999998212,139136.034,139143.19999998808,139152.574,143267.534,8,400,16,,ISIC_5122220.JPG
break,html.Screen,4_15_1,2023-09-12T19:43:30.856Z,,0,,,NaN,,,,,,false,,,,143258.89999997616,143258.69999998808,,143258.09999999404,,143267.534,8,400,,,
break_continue,html.Screen,4_15_2,2023-09-12T19:43:30.857Z,,0,,,NaN,,,,,,false,,,,143259.29999998212,143259.19999998808,,143259,,143267.534,8,400,,,
sequence,flow.Sequence,4_15,2023-09-12T19:43:30.857Z,,0,,,4106.625999988086,completion,,,,,false,,,,143259.39999997616,143259.19999998808,139136.034,139143.19999998808,139152.574,143267.534,8,400,,,
trial,html.Screen,4_16_0,2023-09-12T19:43:33.920Z,,0,1,,3055.365999976144,response,ISIC_0027356.JPG,8,ISIC_0061491.JPG,ISIC_0061491.JPG,false,0,keypress(z),500,146323.09999999404,146322.89999997616,143253.697,143259.5,143267.534,146333.394,8,400,17,,ISIC_0027356.JPG
break,html.Screen,4_16_1,2023-09-12T19:43:33.921Z,,0,,,NaN,,,,,,false,,,,146324.19999998808,146323.89999997616,,146323.29999998212,,146333.394,8,400,,,
break_continue,html.Screen,4_16_2,2023-09-12T19:43:33.922Z,,0,,,NaN,,,,,,false,,,,146324.5,146324.39999997616,,146324.19999998808,,146333.394,8,400,,,
sequence,flow.Sequence,4_16,2023-09-12T19:43:33.922Z,,0,,,3056.865999976144,completion,,,,,false,,,,146324.69999998808,146324.39999997616,143253.697,143259.39999997616,143267.534,146333.394,8,400,,,
trial,html.Screen,4_17_0,2023-09-12T19:43:37.063Z,,0,1,,3132.2059999940393,response,ISIC_9254641.JPG,7,ISIC_0046828.JPG,ISIC_9254641.JPG,false,1,keypress(m),500,149465.79999998212,149465.59999999404,146316.767,146324.69999998808,146333.394,149482.05,8,400,18,,ISIC_0046828.JPG
break,html.Screen,4_17_1,2023-09-12T19:43:37.064Z,,0,,,NaN,,,,,,false,,,,149467,149466.69999998808,,149466,,149482.05,8,400,,,
break_continue,html.Screen,4_17_2,2023-09-12T19:43:37.065Z,,0,,,NaN,,,,,,false,,,,149467.29999998212,149467.19999998808,,149467,,149482.05,8,400,,,
sequence,flow.Sequence,4_17,2023-09-12T19:43:37.065Z,,0,,,3133.805999988079,completion,,,,,false,,,,149467.5,149467.19999998808,146316.767,146324.69999998808,146333.394,149482.05,8,400,,,
trial,html.Screen,4_18_0,2023-09-12T19:43:41.436Z,,0,1,,4356.450000000012,response,ISIC_6674653.JPG,14,ISIC_5673994.JPG,ISIC_6674653.JPG,false,1,keypress(m),500,153838.79999998212,153838.5,149465.822,149467.59999999404,149482.05,153846.637,8,400,19,,ISIC_5673994.JPG
break,html.Screen,4_18_1,2023-09-12T19:43:41.437Z,,0,,,NaN,,,,,,false,,,,153839.89999997616,153839.59999999404,,153839,,153846.637,8,400,,,
break_continue,html.Screen,4_18_2,2023-09-12T19:43:41.437Z,,0,,,NaN,,,,,,false,,,,153840.19999998808,153840.19999998808,,153840,,153846.637,8,400,,,
sequence,flow.Sequence,4_18,2023-09-12T19:43:41.438Z,,0,,,4358.149999988091,completion,,,,,false,,,,153840.29999998212,153840.19999998808,149465.822,149467.59999999404,149482.05,153846.637,8,400,,,
trial,html.Screen,4_19_0,2023-09-12T19:43:45.251Z,,0,1,,3806.4629999940516,response,ISIC_0011930.JPG,5,ISIC_0015115.JPG,ISIC_0011930.JPG,false,1,keypress(m),500,157653.29999998212,157653.09999999404,153830.166,153840.39999997616,153846.637,157661.852,8,400,20,,ISIC_0015115.JPG
break,html.Screen,4_19_1,2023-09-12T19:43:45.252Z,,0,,,NaN,,,,,,false,,,,157654.29999998212,157654.09999999404,,157653.5,,157661.852,8,400,,,
break_continue,html.Screen,4_19_2,2023-09-12T19:43:45.252Z,,0,,,NaN,,,,,,false,,,,157654.69999998808,157654.59999999404,,157654.39999997616,,157661.852,8,400,,,
sequence,flow.Sequence,4_19,2023-09-12T19:43:45.252Z,,0,,,3807.9629999940516,completion,,,,,false,,,,157654.89999997616,157654.59999999404,153830.166,153840.39999997616,153846.637,157661.852,8,400,,,
trial,html.Screen,4_20_0,2023-09-12T19:43:48.392Z,,0,1,,3132.947999982105,response,ISIC_5437785.JPG,5,ISIC_0538042.JPG,ISIC_5437785.JPG,false,1,keypress(m),500,160795,160794.79999998212,157647.797,157654.89999997616,157661.852,160810.795,8,400,21,,ISIC_0538042.JPG
break,html.Screen,4_20_1,2023-09-12T19:43:48.393Z,,0,,,NaN,,,,,,false,,,,160796,160795.79999998212,,160795.19999998808,,160810.795,8,400,,,
break_continue,html.Screen,4_20_2,2023-09-12T19:43:48.394Z,,0,,,NaN,,,,,,false,,,,160796.39999997616,160796.19999998808,,160796.09999999404,,160810.795,8,400,,,
sequence,flow.Sequence,4_20,2023-09-12T19:43:48.394Z,,0,,,3134.3479999880656,completion,,,,,false,,,,160796.5,160796.19999998808,157647.797,157654.89999997616,157661.852,160810.795,8,400,,,
trial,html.Screen,4_21_0,2023-09-12T19:43:51.457Z,,0,1,,3048.704999999987,response,ISIC_8002729.JPG,13,ISIC_3315146.JPG,ISIC_8002729.JPG,false,1,keypress(m),500,163859.79999998212,163859.5,160794.317,160796.59999999404,160810.795,163892.491,8,400,22,,ISIC_3315146.JPG
break,html.Screen,4_21_1,2023-09-12T19:43:51.458Z,,0,,,NaN,,,,,,false,,,,163860.79999998212,163860.59999999404,,163860,,163892.491,8,400,,,
break_continue,html.Screen,4_21_2,2023-09-12T19:43:51.458Z,,0,,,NaN,,,,,,false,,,,163861.19999998808,163861.09999999404,,163860.79999998212,,163892.491,8,400,,,
sequence,flow.Sequence,4_21,2023-09-12T19:43:51.459Z,,0,,,3050.3049999940267,completion,,,,,false,,,,163861.29999998212,163861.09999999404,160794.317,160796.59999999404,160810.795,163892.491,8,400,,,
trial,html.Screen,4_22_0,2023-09-12T19:43:54.876Z,,0,1,,3385.70899998807,response,ISIC_3386656.JPG,6,ISIC_0028969.JPG,ISIC_3386656.JPG,false,1,keypress(m),500,167278.5,167278.19999998808,163875.837,163861.39999997616,163892.491,167291.487,8,400,23,,ISIC_0028969.JPG
break,html.Screen,4_22_1,2023-09-12T19:43:54.877Z,,0,,,NaN,,,,,,false,,,,167279.5,167279.29999998212,,167278.69999998808,,167291.487,8,400,,,
break_continue,html.Screen,4_22_2,2023-09-12T19:43:54.877Z,,0,,,NaN,,,,,,false,,,,167279.89999997616,167279.79999998212,,167279.59999999404,,167291.487,8,400,,,
sequence,flow.Sequence,4_22,2023-09-12T19:43:54.877Z,,0,,,3387.3089999821095,completion,,,,,false,,,,167280,167279.79999998212,163875.837,163861.39999997616,163892.491,167291.487,8,400,,,
trial,html.Screen,4_23_0,2023-09-12T19:43:58.162Z,,0,1,,3273.2129999880854,response,ISIC_0013702.JPG,9,ISIC_0011137.JPG,ISIC_0013702.JPG,false,1,keypress(m),500,170564.89999997616,170564.69999998808,167274.46,167280.09999999404,167291.487,170573.648,8,400,24,,ISIC_0011137.JPG
break,html.Screen,4_23_1,2023-09-12T19:43:58.163Z,,0,,,NaN,,,,,,false,,,,170566,170565.59999999404,,170565.09999999404,,170573.648,8,400,,,
break_continue,html.Screen,4_23_2,2023-09-12T19:43:58.164Z,,0,,,NaN,,,,,,false,,,,170566.19999998808,170566.19999998808,,170566.09999999404,,170573.648,8,400,,,
sequence,flow.Sequence,4_23,2023-09-12T19:43:58.164Z,,0,,,3274.7129999880854,completion,,,,,false,,,,170566.39999997616,170566.19999998808,167274.46,167280,167291.487,170573.648,8,400,,,
trial,html.Screen,4_24_0,2023-09-12T19:44:00.903Z,,0,1,,2732.151999982132,response,ISIC_3323866.JPG,13,ISIC_8516223.JPG,ISIC_3323866.JPG,false,1,keypress(m),500,173306.09999999404,173305.79999998212,170558.538,170566.5,170573.648,173322.124,8,400,25,,ISIC_8516223.JPG
break,html.Screen,4_24_1,2023-09-12T19:44:00.904Z,,0,,,NaN,,,,,,false,,,,173307.19999998808,173307,,173306.29999998212,,173322.124,8,400,,,
break_continue,html.Screen,4_24_2,2023-09-12T19:44:00.905Z,,0,,,NaN,,,,,,false,,,,173307.5,173307.5,,173307.29999998212,,173322.124,8,400,,,
sequence,flow.Sequence,4_24,2023-09-12T19:44:00.905Z,,0,,,2733.8520000000135,completion,,,,,false,,,,173307.69999998808,173307.5,170558.538,170566.5,170573.648,173322.124,8,400,,,
trial,html.Screen,4_25_0,2023-09-12T19:44:04.401Z,,0,1,,3481.475999994029,response,ISIC_0067653.JPG,4,ISIC_5362038.JPG,ISIC_0067653.JPG,false,1,keypress(m),500,176803.89999997616,176803.59999999404,173306.097,173307.79999998212,173322.124,176820.674,8,400,26,,ISIC_5362038.JPG
break,html.Screen,4_25_1,2023-09-12T19:44:04.402Z,,0,,,NaN,,,,,,false,,,,176805,176804.79999998212,,176804.09999999404,,176820.674,8,400,,,
break_continue,html.Screen,4_25_2,2023-09-12T19:44:04.403Z,,0,,,NaN,,,,,,false,,,,176805.39999997616,176805.29999998212,,176805.09999999404,,176820.674,8,400,,,
sequence,flow.Sequence,4_25,2023-09-12T19:44:04.403Z,,0,,,3483.175999982108,completion,,,,,false,,,,176805.5,176805.29999998212,173306.097,173307.79999998212,173322.124,176820.674,8,400,,,
trial,html.Screen,4_26_0,2023-09-12T19:44:08.541Z,,0,1,,4123.326000000001,response,ISIC_0010466.JPG,6,ISIC_9791275.JPG,ISIC_0010466.JPG,false,1,keypress(m),500,180944.29999998212,180944,176802.981,176805.59999999404,176820.674,180952.897,8,400,27,,ISIC_9791275.JPG
break,html.Screen,4_26_1,2023-09-12T19:44:08.542Z,,0,,,NaN,,,,,,false,,,,180945.19999998808,180945,,180944.5,,180952.897,8,400,,,
break_continue,html.Screen,4_26_2,2023-09-12T19:44:08.543Z,,0,,,NaN,,,,,,false,,,,180945.59999999404,180945.5,,180945.29999998212,,180952.897,8,400,,,
sequence,flow.Sequence,4_26,2023-09-12T19:44:08.543Z,,0,,,4124.826000000001,completion,,,,,false,,,,180945.79999998212,180945.5,176802.981,176805.5,176820.674,180952.897,8,400,,,
trial,html.Screen,4_27_0,2023-09-12T19:44:11.507Z,,0,1,,2957.103000000003,response,ISIC_0032629.JPG,6,ISIC_7892362.JPG,ISIC_0032629.JPG,false,1,keypress(m),500,183910.39999997616,183910,180937.128,180945.89999997616,180952.897,183917.734,8,400,28,,ISIC_7892362.JPG
break,html.Screen,4_27_1,2023-09-12T19:44:11.508Z,,0,,,NaN,,,,,,false,,,,183911.29999998212,183911.19999998808,,183910.59999999404,,183917.734,8,400,,,
break_continue,html.Screen,4_27_2,2023-09-12T19:44:11.509Z,,0,,,NaN,,,,,,false,,,,183911.69999998808,183911.59999999404,,183911.39999997616,,183917.734,8,400,,,
sequence,flow.Sequence,4_27,2023-09-12T19:44:11.509Z,,0,,,2958.7029999940423,completion,,,,,false,,,,183911.79999998212,183911.59999999404,180937.128,180945.79999998212,180952.897,183917.734,8,400,,,
trial,html.Screen,4_28_0,2023-09-12T19:44:14.714Z,,0,1,,3199.2660000000033,response,ISIC_6377883.JPG,7,ISIC_0027956.JPG,ISIC_0027956.JPG,false,0,keypress(z),500,187117.29999998212,187117,183901.454,183911.89999997616,183917.734,187133.081,8,400,29,,ISIC_6377883.JPG
break,html.Screen,4_28_1,2023-09-12T19:44:14.716Z,,0,,,NaN,,,,,,false,,,,187118.5,187118.19999998808,,187117.5,,187133.081,8,400,,,
break_continue,html.Screen,4_28_2,2023-09-12T19:44:14.716Z,,0,,,NaN,,,,,,false,,,,187118.89999997616,187118.89999997616,,187118.69999998808,,187133.081,8,400,,,
sequence,flow.Sequence,4_28,2023-09-12T19:44:14.716Z,,0,,,3201.1659999761614,completion,,,,,false,,,,187119.09999999404,187118.89999997616,183901.454,183911.89999997616,183917.734,187133.081,8,400,,,
trial,html.Screen,4_29_0,2023-09-12T19:44:19.487Z,,0,1,,4756.518999994034,response,ISIC_0011858.JPG,10,ISIC_7973601.JPG,ISIC_7973601.JPG,false,0,keypress(z),500,191889.89999997616,191889.59999999404,187116.98,187119.09999999404,187133.081,191897.862,8,400,30,,ISIC_0011858.JPG
break,html.Screen,4_29_1,2023-09-12T19:44:19.488Z,,0,,,NaN,,,,,,false,,,,191891,191890.69999998808,,191890.09999999404,,191897.862,8,400,,,
break_continue,html.Screen,4_29_2,2023-09-12T19:44:19.488Z,,0,,,NaN,,,,,,false,,,,191891.39999997616,191891.29999998212,,191891.19999998808,,191897.862,8,400,,,
sequence,flow.Sequence,4_29,2023-09-12T19:44:19.489Z,,0,,,4758.218999982113,completion,,,,,false,,,,191891.5,191891.29999998212,187116.98,187119.09999999404,187133.081,191897.862,8,400,,,
trial,html.Screen,4_30_0,2023-09-12T19:44:22.362Z,,0,1,,2866.437999982125,response,ISIC_8764464.JPG,6,ISIC_9745562.JPG,ISIC_8764464.JPG,false,1,keypress(m),500,194764.69999998808,194764.29999998212,191880.32,191891.59999999404,191897.862,194780.015,8,400,31,,ISIC_9745562.JPG
break,html.Screen,4_30_1,2023-09-12T19:44:22.363Z,,0,,,NaN,,,,,,false,,,,194765.89999997616,194765.59999999404,,194764.89999997616,,194780.015,8,400,,,
break_continue,html.Screen,4_30_2,2023-09-12T19:44:22.363Z,,0,,,NaN,,,,,,false,,,,194766.09999999404,194766,,194765.89999997616,,194780.015,8,400,,,
sequence,flow.Sequence,4_30,2023-09-12T19:44:22.363Z,,0,,,2868.1380000000063,completion,,,,,false,,,,194766.19999998808,194766,191880.32,191891.59999999404,191897.862,194780.015,8,400,,,
trial,html.Screen,4_31_0,2023-09-12T19:44:25.041Z,,0,1,,2663.184999988065,response,ISIC_7171090.JPG,8,ISIC_3791309.JPG,ISIC_3791309.JPG,false,0,keypress(z),500,197443.5,197443.19999998808,194764.228,194766.39999997616,194780.015,197445.466,8,400,32,,ISIC_7171090.JPG
break,html.Screen,4_31_1,2023-09-12T19:44:25.042Z,,0,,,NaN,,,,,,false,,,,197444.89999997616,197444.59999999404,,197443.69999998808,,197445.466,8,400,,,
break_continue,html.Screen,4_31_2,2023-09-12T19:44:25.043Z,,0,,,NaN,,,,,,false,,,,197445.69999998808,197445.19999998808,,197445,,197445.466,8,400,,,
sequence,flow.Sequence,4_31,2023-09-12T19:44:25.043Z,,0,,,2665.184999988065,completion,,,,,false,,,,197445.89999997616,197445.19999998808,194764.228,194766.39999997616,194780.015,197445.466,8,400,,,
trial,html.Screen,4_32_0,2023-09-12T19:44:30.668Z,,0,1,,5625.133999994054,response,ISIC_7364041.JPG,11,ISIC_0028465.JPG,ISIC_0028465.JPG,false,0,keypress(z),500,203070.89999997616,203070.59999999404,197429.269,197446.09999999404,197445.466,203076.522,8,400,33,,ISIC_7364041.JPG
break,html.Screen,4_32_1,2023-09-12T19:44:30.669Z,,0,,,NaN,,,,,,false,,,,203072,203071.69999998808,,203071.09999999404,,203076.522,8,400,,,
break_continue,html.Screen,4_32_2,2023-09-12T19:44:30.670Z,,0,,,NaN,,,,,,false,,,,203072.5,203072.29999998212,,203072.19999998808,,203076.522,8,400,,,
sequence,flow.Sequence,4_32,2023-09-12T19:44:30.670Z,,0,,,5626.833999982133,completion,,,,,false,,,,203072.69999998808,203072.29999998212,197429.269,197446.09999999404,197445.466,203076.522,8,400,,,
trial,html.Screen,4_33_0,2023-09-12T19:44:34.023Z,,0,1,,3349.2779999821214,response,ISIC_0787229.JPG,13,ISIC_0055240.JPG,ISIC_0787229.JPG,false,1,keypress(m),500,206425.89999997616,206425.79999998212,203062.725,203072.79999998212,203076.522,206441.936,8,400,34,,ISIC_0055240.JPG
break,html.Screen,4_33_1,2023-09-12T19:44:34.024Z,,0,,,NaN,,,,,,false,,,,206427.09999999404,206426.89999997616,,206426.09999999404,,206441.936,8,400,,,
break_continue,html.Screen,4_33_2,2023-09-12T19:44:34.025Z,,0,,,NaN,,,,,,false,,,,206427.5,206427.39999997616,,206427.19999998808,,206441.936,8,400,,,
sequence,flow.Sequence,4_33,2023-09-12T19:44:34.025Z,,0,,,3350.877999976161,completion,,,,,false,,,,206427.59999999404,206427.39999997616,203062.725,203072.69999998808,203076.522,206441.936,8,400,,,
trial,html.Screen,4_34_0,2023-09-12T19:44:38.990Z,,0,1,,4950.663999994053,response,ISIC_0011012.JPG,12,ISIC_3397174.JPG,ISIC_3397174.JPG,false,0,keypress(z),500,211392.89999997616,211392.59999999404,206424.477,206427.69999998808,206441.936,211406.42,8,400,35,,ISIC_0011012.JPG
break,html.Screen,4_34_1,2023-09-12T19:44:38.991Z,,0,,,NaN,,,,,,false,,,,211394,211393.69999998808,,211393.09999999404,,211406.42,8,400,,,
break_continue,html.Screen,4_34_2,2023-09-12T19:44:38.992Z,,0,,,NaN,,,,,,false,,,,211394.5,211394.39999997616,,211394.09999999404,,211406.42,8,400,,,
sequence,flow.Sequence,4_34,2023-09-12T19:44:38.992Z,,0,,,4952.463999976171,completion,,,,,false,,,,211394.69999998808,211394.39999997616,206424.477,206427.69999998808,206441.936,211406.42,8,400,,,
trial,html.Screen,4_35_0,2023-09-12T19:44:42.525Z,,0,1,,3521.379999982106,response,ISIC_0012865.JPG,11,ISIC_0000538.JPG,ISIC_0000538.JPG,false,0,keypress(z),500,214928.09999999404,214927.79999998212,211390.15,211394.79999998212,211406.42,214938.83,8,400,36,,ISIC_0012865.JPG
break,html.Screen,4_35_1,2023-09-12T19:44:42.526Z,,0,,,NaN,,,,,,false,,,,214929.09999999404,214928.79999998212,,214928.29999998212,,214938.83,8,400,,,
break_continue,html.Screen,4_35_2,2023-09-12T19:44:42.527Z,,0,,,NaN,,,,,,false,,,,214929.39999997616,214929.29999998212,,214929.19999998808,,214938.83,8,400,,,
sequence,flow.Sequence,4_35,2023-09-12T19:44:42.527Z,,0,,,3522.879999982106,completion,,,,,false,,,,214929.59999999404,214929.29999998212,211390.15,211394.79999998212,211406.42,214938.83,8,400,,,
trial,html.Screen,4_36_0,2023-09-12T19:44:46.677Z,,0,1,,4140.769999994052,response,ISIC_0046345.JPG,12,ISIC_0067443.JPG,ISIC_0046345.JPG,false,1,keypress(m),500,219079.89999997616,219079.59999999404,214921.741,214929.69999998808,214938.83,219086.736,8,400,37,,ISIC_0067443.JPG
break,html.Screen,4_36_1,2023-09-12T19:44:46.678Z,,0,,,NaN,,,,,,false,,,,219080.89999997616,219080.69999998808,,219080.09999999404,,219086.736,8,400,,,
break_continue,html.Screen,4_36_2,2023-09-12T19:44:46.678Z,,0,,,NaN,,,,,,false,,,,219081.39999997616,219081.29999998212,,219081.09999999404,,219086.736,8,400,,,
sequence,flow.Sequence,4_36,2023-09-12T19:44:46.679Z,,0,,,4142.469999982131,completion,,,,,false,,,,219081.5,219081.29999998212,214921.741,214929.69999998808,214938.83,219086.736,8,400,,,
trial,html.Screen,4_37_0,2023-09-12T19:44:50.158Z,,0,1,,3474.1639999761537,response,ISIC_3700351.JPG,12,ISIC_0055241.JPG,ISIC_0055241.JPG,false,0,keypress(z),500,222561.19999998808,222560.89999997616,219072.63,219081.69999998808,219086.736,222568.646,8,400,38,,ISIC_3700351.JPG
break,html.Screen,4_37_1,2023-09-12T19:44:50.159Z,,0,,,NaN,,,,,,false,,,,222562.19999998808,222562,,222561.39999997616,,222568.646,8,400,,,
break_continue,html.Screen,4_37_2,2023-09-12T19:44:50.160Z,,0,,,NaN,,,,,,false,,,,222562.59999999404,222562.39999997616,,222562.29999998212,,222568.646,8,400,,,
sequence,flow.Sequence,4_37,2023-09-12T19:44:50.160Z,,0,,,3475.6639999761537,completion,,,,,false,,,,222562.59999999404,222562.39999997616,219072.63,219081.5,219086.736,222568.646,8,400,,,
trial,html.Screen,4_38_0,2023-09-12T19:44:54.938Z,,0,1,,4771.553999988071,response,ISIC_2639144.JPG,8,ISIC_7368239.JPG,ISIC_2639144.JPG,false,1,keypress(m),500,227340.5,227340.19999998808,222551.735,222562.69999998808,222568.646,227350.251,8,400,39,,ISIC_7368239.JPG
break,html.Screen,4_38_1,2023-09-12T19:44:54.939Z,,0,,,NaN,,,,,,false,,,,227341.59999999404,227341.29999998212,,227340.69999998808,,227350.251,8,400,,,
break_continue,html.Screen,4_38_2,2023-09-12T19:44:54.939Z,,0,,,NaN,,,,,,false,,,,227342,227341.79999998212,,227341.59999999404,,227350.251,8,400,,,
sequence,flow.Sequence,4_38,2023-09-12T19:44:54.939Z,,0,,,4773.153999982111,completion,,,,,false,,,,227342.09999999404,227341.79999998212,222551.735,222562.69999998808,222568.646,227350.251,8,400,,,
trial,html.Screen,4_39_0,2023-09-12T19:44:59.172Z,,0,1,,4224.148999976169,response,ISIC_0033362.JPG,7,ISIC_5602724.JPG,ISIC_0033362.JPG,false,1,keypress(m),500,231574.59999999404,231574.39999997616,227334.442,227342.29999998212,227350.251,231581.644,8,400,40,,ISIC_5602724.JPG
break,html.Screen,4_39_1,2023-09-12T19:44:59.173Z,,0,,,NaN,,,,,,false,,,,231575.69999998808,231575.29999998212,,231574.79999998212,,231581.644,8,400,,,
break_continue,html.Screen,4_39_2,2023-09-12T19:44:59.173Z,,0,,,NaN,,,,,,false,,,,231576,231575.89999997616,,231575.79999998212,,231581.644,8,400,,,
sequence,flow.Sequence,4_39,2023-09-12T19:44:59.173Z,,0,,,4225.648999976169,completion,,,,,false,,,,231576.09999999404,231575.89999997616,227334.442,227342.29999998212,227350.251,231581.644,8,400,,,
trial,html.Screen,4_40_0,2023-09-12T19:45:02.705Z,,0,1,,3525.555999988079,response,ISIC_0058906.JPG,5,ISIC_6201695.JPG,ISIC_6201695.JPG,false,0,keypress(z),500,235107.59999999404,235107.19999998808,231565.323,231576.19999998808,231581.644,235113.538,8,400,41,,ISIC_0058906.JPG
break,html.Screen,4_40_1,2023-09-12T19:45:02.706Z,,0,,,NaN,,,,,,false,,,,235108.59999999404,235108.39999997616,,235107.79999998212,,235113.538,8,400,,,
break_continue,html.Screen,4_40_2,2023-09-12T19:45:02.706Z,,0,,,NaN,,,,,,false,,,,235109,235108.79999998212,,235108.69999998808,,235113.538,8,400,,,
sequence,flow.Sequence,4_40,2023-09-12T19:45:02.706Z,,0,,,3527.1559999821184,completion,,,,,false,,,,235109.09999999404,235108.79999998212,231565.323,231576.19999998808,231581.644,235113.538,8,400,,,
trial,html.Screen,4_41_0,2023-09-12T19:45:08.358Z,,0,1,,5646.9619999999995,response,ISIC_0013988.JPG,7,ISIC_0034207.JPG,ISIC_0013988.JPG,false,1,keypress(m),500,240760.69999998808,240760.5,235100.1,235109.19999998808,235113.538,240777.87,8,400,42,,ISIC_0034207.JPG
break,html.Screen,4_41_1,2023-09-12T19:45:08.359Z,,0,,,NaN,,,,,,false,,,,240761.89999997616,240761.69999998808,,240761,,240777.87,8,400,,,
break_continue,html.Screen,4_41_2,2023-09-12T19:45:08.359Z,,0,,,NaN,,,,,,false,,,,240762.29999998212,240762.19999998808,,240762,,240777.87,8,400,,,
sequence,flow.Sequence,4_41,2023-09-12T19:45:08.360Z,,0,,,5648.661999988079,completion,,,,,false,,,,240762.39999997616,240762.19999998808,235100.1,235109.19999998808,235113.538,240777.87,8,400,,,
trial,html.Screen,4_42_0,2023-09-12T19:45:11.292Z,,0,1,,2917.029999976163,response,ISIC_0031931.JPG,12,ISIC_0027498.JPG,ISIC_0031931.JPG,false,1,keypress(m),500,243695.09999999404,243694.89999997616,240761.518,240762.5,240777.87,243709.948,8,400,43,,ISIC_0027498.JPG
break,html.Screen,4_42_1,2023-09-12T19:45:11.293Z,,0,,,NaN,,,,,,false,,,,243696.09999999404,243695.79999998212,,243695.29999998212,,243709.948,8,400,,,
break_continue,html.Screen,4_42_2,2023-09-12T19:45:11.294Z,,0,,,NaN,,,,,,false,,,,243696.5,243696.29999998212,,243696.19999998808,,243709.948,8,400,,,
sequence,flow.Sequence,4_42,2023-09-12T19:45:11.294Z,,0,,,2918.4299999821233,completion,,,,,false,,,,243696.5,243696.29999998212,240761.518,240762.5,240777.87,243709.948,8,400,,,
trial,html.Screen,4_43_0,2023-09-12T19:45:14.248Z,,0,1,,2940.3519999821146,response,ISIC_0015208.JPG,10,ISIC_2384274.JPG,ISIC_2384274.JPG,false,0,keypress(z),500,246650.59999999404,246650.29999998212,243693.732,243696.59999999404,243709.948,246658.79,8,400,44,,ISIC_0015208.JPG
break,html.Screen,4_43_1,2023-09-12T19:45:14.249Z,,0,,,NaN,,,,,,false,,,,246651.89999997616,246651.5,,246650.79999998212,,246658.79,8,400,,,
break_continue,html.Screen,4_43_2,2023-09-12T19:45:14.250Z,,0,,,NaN,,,,,,false,,,,246652.5,246652.19999998808,,246652.09999999404,,246658.79,8,400,,,
sequence,flow.Sequence,4_43,2023-09-12T19:45:14.250Z,,0,,,2942.251999988075,completion,,,,,false,,,,246652.59999999404,246652.19999998808,243693.732,243696.59999999404,243709.948,246658.79,8,400,,,
trial,html.Screen,4_44_0,2023-09-12T19:45:17.553Z,,0,1,,3297.3099999940314,response,ISIC_0069486.JPG,8,ISIC_4087267.JPG,ISIC_4087267.JPG,false,0,keypress(z),500,249956.29999998212,249956.09999999404,246644.166,246652.79999998212,246658.79,249979.414,8,400,45,,ISIC_0069486.JPG
break,html.Screen,4_44_1,2023-09-12T19:45:17.555Z,,0,,,NaN,,,,,,false,,,,249957.69999998808,249957.19999998808,,249956.59999999404,,249979.414,8,400,,,
break_continue,html.Screen,4_44_2,2023-09-12T19:45:17.555Z,,0,,,NaN,,,,,,false,,,,249958,249958,,249957.69999998808,,249979.414,8,400,,,
sequence,flow.Sequence,4_44,2023-09-12T19:45:17.555Z,,0,,,3299.209999999992,completion,,,,,false,,,,249958.19999998808,249958,246644.166,246652.69999998808,246658.79,249979.414,8,400,,,
trial,html.Screen,4_45_0,2023-09-12T19:45:20.706Z,,0,1,,3128.68599999405,response,ISIC_0011215.JPG,6,ISIC_0067719.JPG,ISIC_0067719.JPG,false,0,keypress(z),500,253108.39999997616,253108.09999999404,249956.997,249958.29999998212,249979.414,253122.825,8,400,46,,ISIC_0011215.JPG
break,html.Screen,4_45_1,2023-09-12T19:45:20.706Z,,0,,,NaN,,,,,,false,,,,253109.39999997616,253109.09999999404,,253108.59999999404,,253122.825,8,400,,,
break_continue,html.Screen,4_45_2,2023-09-12T19:45:20.707Z,,0,,,NaN,,,,,,false,,,,253109.69999998808,253109.59999999404,,253109.5,,253122.825,8,400,,,
sequence,flow.Sequence,4_45,2023-09-12T19:45:20.707Z,,0,,,3130.18599999405,completion,,,,,false,,,,253109.79999998212,253109.59999999404,249956.997,249958.19999998808,249979.414,253122.825,8,400,,,
trial,html.Screen,4_46_0,2023-09-12T19:45:23.941Z,,0,1,,3220.974999982107,response,ISIC_7339533.JPG,9,ISIC_9822801.JPG,ISIC_7339533.JPG,false,1,keypress(m),500,256344,256343.79999998212,253106.582,253109.89999997616,253122.825,256354.825,8,400,47,,ISIC_9822801.JPG
break,html.Screen,4_46_1,2023-09-12T19:45:23.942Z,,0,,,NaN,,,,,,false,,,,256345.09999999404,256344.79999998212,,256344.19999998808,,256354.825,8,400,,,
break_continue,html.Screen,4_46_2,2023-09-12T19:45:23.943Z,,0,,,NaN,,,,,,false,,,,256345.39999997616,256345.39999997616,,256345.19999998808,,256354.825,8,400,,,
sequence,flow.Sequence,4_46,2023-09-12T19:45:23.943Z,,0,,,3222.5749999761465,completion,,,,,false,,,,256345.59999999404,256345.39999997616,253106.582,253109.79999998212,253122.825,256354.825,8,400,,,
trial,html.Screen,4_47_0,2023-09-12T19:45:27.359Z,,0,1,,3406.8749999880674,response,ISIC_0059303.JPG,11,ISIC_2535541.JPG,ISIC_2535541.JPG,false,0,keypress(z),500,259762,259761.69999998808,256338.749,256345.69999998808,256354.825,259770.12,8,400,48,,ISIC_0059303.JPG
break,html.Screen,4_47_1,2023-09-12T19:45:27.361Z,,0,,,NaN,,,,,,false,,,,259763.5,259763.19999998808,,259762.29999998212,,259770.12,8,400,,,
break_continue,html.Screen,4_47_2,2023-09-12T19:45:27.361Z,,0,,,NaN,,,,,,false,,,,259764,259763.79999998212,,259763.69999998808,,259770.12,8,400,,,
sequence,flow.Sequence,4_47,2023-09-12T19:45:27.361Z,,0,,,3408.974999982107,completion,,,,,false,,,,259764.29999998212,259763.79999998212,256338.749,256345.69999998808,256354.825,259770.12,8,400,,,
trial,html.Screen,4_48_0,2023-09-12T19:45:30.071Z,,0,1,,2703.5799999880837,response,ISIC_2867416.JPG,11,ISIC_0061343.JPG,ISIC_2867416.JPG,false,1,keypress(m),500,262474.09999999404,262473.6999999881,259753.491,259764.39999997616,259770.12,262485.657,8,400,49,,ISIC_0061343.JPG
break,html.Screen,4_48_1,2023-09-12T19:45:30.072Z,,0,,,NaN,,,,,,false,,,,262475,262474.7999999821,,262474.1999999881,,262485.657,8,400,,,
break_continue,html.Screen,4_48_2,2023-09-12T19:45:30.073Z,,0,,,NaN,,,,,,false,,,,262475.39999997616,262475.2999999821,,262475.09999999404,,262485.657,8,400,,,
sequence,flow.Sequence,4_48,2023-09-12T19:45:30.073Z,,0,,,2705.1799999821233,completion,,,,,false,,,,262475.5,262475.2999999821,259753.491,259764.39999997616,259770.12,262485.657,8,400,,,
trial,html.Screen,4_49_0,2023-09-12T19:45:34.673Z,,0,1,,4589.642999982112,response,ISIC_4644299.JPG,5,ISIC_0032147.JPG,ISIC_0032147.JPG,false,0,keypress(z),500,267075.5,267075.2999999821,262471.101,262475.59999999404,262485.657,267083.782,8,400,50,,ISIC_4644299.JPG
break,html.Screen,4_49_1,2023-09-12T19:45:44.662Z,,0,,,9995.945999999996,timeout,,,,,false,,,,277064.6999999881,277063.697,267068.773,267075.6999999881,267083.782,277079.728,8,400,,,
break_continue,html.Screen,4_49_2,2023-09-12T19:45:45.581Z,,0,,,894.1719999761553,response,,,,,false,continue,keypress(Space),,277984,277973.89999997616,277063.697,277064.89999997616,277079.728,277996.007,8,400,,,
sequence,flow.Sequence,4_49,2023-09-12T19:45:45.581Z,,0,,,15488.242999976152,completion,,,,,false,,,,277984.1999999881,277973.89999997616,262471.101,262475.59999999404,262485.657,277996.007,8,400,,,
trial,html.Screen,4_50_0,2023-09-12T19:45:48.768Z,,0,2,,3174.5929999940563,response,ISIC_0068381.JPG,11,ISIC_5031549.JPG,ISIC_0068381.JPG,false,1,keypress(m),500,281170.89999997616,281170.59999999404,277979.87,277984.2999999821,277996.007,281178.068,8,400,1,,ISIC_5031549.JPG
break,html.Screen,4_50_1,2023-09-12T19:45:48.769Z,,0,,,NaN,,,,,,false,,,,281171.89999997616,281171.59999999404,,281171.09999999404,,281178.068,8,400,,,
break_continue,html.Screen,4_50_2,2023-09-12T19:45:48.769Z,,0,,,NaN,,,,,,false,,,,281172.1999999881,281172.09999999404,,281172,,281178.068,8,400,,,
sequence,flow.Sequence,4_50,2023-09-12T19:45:48.769Z,,0,,,3176.0929999940563,completion,,,,,false,,,,281172.2999999821,281172.09999999404,277979.87,277984.2999999821,277996.007,281178.068,8,400,,,
trial,html.Screen,4_51_0,2023-09-12T19:45:52.022Z,,0,2,,3246.6319999880507,response,ISIC_5482426.JPG,5,ISIC_0056572.JPG,ISIC_0056572.JPG,false,0,keypress(z),500,284425.09999999404,284424.6999999881,281161.397,281172.39999997616,281178.068,284449.767,8,400,2,,ISIC_5482426.JPG
break,html.Screen,4_51_1,2023-09-12T19:45:52.023Z,,0,,,NaN,,,,,,false,,,,284426.09999999404,284425.7999999821,,284425.2999999821,,284449.767,8,400,,,
break_continue,html.Screen,4_51_2,2023-09-12T19:45:52.024Z,,0,,,NaN,,,,,,false,,,,284426.59999999404,284426.5,,284426.2999999821,,284449.767,8,400,,,
sequence,flow.Sequence,4_51,2023-09-12T19:45:52.024Z,,0,,,3248.4319999999716,completion,,,,,false,,,,284426.6999999881,284426.5,281161.397,281172.39999997616,281178.068,284449.767,8,400,,,
trial,html.Screen,4_52_0,2023-09-12T19:45:54.865Z,,0,2,,2817.9329999880865,response,ISIC_0016137.JPG,5,ISIC_0055887.JPG,ISIC_0055887.JPG,false,0,keypress(z),500,287267.89999997616,287267.6999999881,284410.017,284426.89999997616,284449.767,287275.609,8,400,3,,ISIC_0016137.JPG
break,html.Screen,4_52_1,2023-09-12T19:45:54.866Z,,0,,,NaN,,,,,,false,,,,287269,287268.6999999881,,287268.1999999881,,287275.609,8,400,,,
break_continue,html.Screen,4_52_2,2023-09-12T19:45:54.866Z,,0,,,NaN,,,,,,false,,,,287269.2999999821,287269.1999999881,,287269.09999999404,,287275.609,8,400,,,
sequence,flow.Sequence,4_52,2023-09-12T19:45:54.867Z,,0,,,2819.4329999880865,completion,,,,,false,,,,287269.5,287269.1999999881,284410.017,284426.7999999821,284449.767,287275.609,8,400,,,
trial,html.Screen,4_53_0,2023-09-12T19:45:57.514Z,,0,2,,2640.690999982122,response,ISIC_4569077.JPG,6,ISIC_0025464.JPG,ISIC_0025464.JPG,false,0,keypress(z),500,289916.59999999404,289916.2999999821,287258.979,287269.6999999881,287275.609,289925.013,8,400,4,,ISIC_4569077.JPG
break,html.Screen,4_53_1,2023-09-12T19:45:57.515Z,,0,,,NaN,,,,,,false,,,,289917.59999999404,289917.2999999821,,289916.6999999881,,289925.013,8,400,,,
break_continue,html.Screen,4_53_2,2023-09-12T19:45:57.515Z,,0,,,NaN,,,,,,false,,,,289917.89999997616,289917.7999999821,,289917.59999999404,,289925.013,8,400,,,
sequence,flow.Sequence,4_53,2023-09-12T19:45:57.515Z,,0,,,2642.190999982122,completion,,,,,false,,,,289918,289917.7999999821,287258.979,287269.59999999404,287275.609,289925.013,8,400,,,
trial,html.Screen,4_54_0,2023-09-12T19:46:00.447Z,,0,2,,2924.0869999940624,response,ISIC_3981425.JPG,10,ISIC_4978039.JPG,ISIC_4978039.JPG,false,0,keypress(z),500,292849.39999997616,292849.09999999404,289908.181,289918,289925.013,292856.621,8,400,5,,ISIC_3981425.JPG
break,html.Screen,4_54_1,2023-09-12T19:46:00.448Z,,0,,,NaN,,,,,,false,,,,292850.39999997616,292850.1999999881,,292849.59999999404,,292856.621,8,400,,,
break_continue,html.Screen,4_54_2,2023-09-12T19:46:00.448Z,,0,,,NaN,,,,,,false,,,,292850.6999999881,292850.6999999881,,292850.5,,292856.621,8,400,,,
sequence,flow.Sequence,4_54,2023-09-12T19:46:00.448Z,,0,,,2925.686999988102,completion,,,,,false,,,,292850.7999999821,292850.6999999881,289908.181,289918,289925.013,292856.621,8,400,,,
trial,html.Screen,4_55_0,2023-09-12T19:46:04.736Z,,0,2,,4282.379000000015,response,ISIC_8383600.JPG,5,ISIC_3945916.JPG,ISIC_8383600.JPG,false,1,keypress(m),500,297139.2999999821,297139,292840.315,292850.89999997616,292856.621,297155.181,8,400,6,,ISIC_3945916.JPG
break,html.Screen,4_55_1,2023-09-12T19:46:04.737Z,,0,,,NaN,,,,,,false,,,,297140.1999999881,297140,,297139.5,,297155.181,8,400,,,
break_continue,html.Screen,4_55_2,2023-09-12T19:46:04.738Z,,0,,,NaN,,,,,,false,,,,297140.59999999404,297140.5,,297140.2999999821,,297155.181,8,400,,,
sequence,flow.Sequence,4_55,2023-09-12T19:46:04.738Z,,0,,,4283.879000000015,completion,,,,,false,,,,297140.6999999881,297140.5,292840.315,292850.89999997616,292856.621,297155.181,8,400,,,
trial,html.Screen,4_56_0,2023-09-12T19:46:08.152Z,,0,2,,3399.218999976176,response,ISIC_1330008.JPG,5,ISIC_4530249.JPG,ISIC_4530249.JPG,false,0,keypress(z),500,300554.6999999881,300554.39999997616,297138.619,297140.89999997616,297155.181,300570.458,8,400,7,,ISIC_1330008.JPG
break,html.Screen,4_56_1,2023-09-12T19:46:08.153Z,,0,,,NaN,,,,,,false,,,,300555.6999999881,300555.5,,300554.7999999821,,300570.458,8,400,,,
break_continue,html.Screen,4_56_2,2023-09-12T19:46:08.153Z,,0,,,NaN,,,,,,false,,,,300556,300556,,300555.7999999821,,300570.458,8,400,,,
sequence,flow.Sequence,4_56,2023-09-12T19:46:08.153Z,,0,,,3400.8190000000177,completion,,,,,false,,,,300556.1999999881,300556,297138.619,297140.7999999821,297155.181,300570.458,8,400,,,
trial,html.Screen,4_57_0,2023-09-12T19:46:11.141Z,,0,2,,2973.042000000016,response,ISIC_6961503.JPG,6,ISIC_0000550.JPG,ISIC_6961503.JPG,false,1,keypress(m),500,303543.7999999821,303543.5,300554.451,300556.2999999821,300570.458,303552.614,8,400,8,,ISIC_0000550.JPG
break,html.Screen,4_57_1,2023-09-12T19:46:11.142Z,,0,,,NaN,,,,,,false,,,,303544.89999997616,303544.6999999881,,303544.09999999404,,303552.614,8,400,,,
break_continue,html.Screen,4_57_2,2023-09-12T19:46:11.142Z,,0,,,NaN,,,,,,false,,,,303545.39999997616,303545.1999999881,,303545,,303552.614,8,400,,,
sequence,flow.Sequence,4_57,2023-09-12T19:46:11.143Z,,0,,,2974.741999988095,completion,,,,,false,,,,303545.5,303545.1999999881,300554.451,300556.1999999881,300570.458,303552.614,8,400,,,
trial,html.Screen,4_58_0,2023-09-12T19:46:20.617Z,,0,2,,9466.985999994038,response,ISIC_8624186.JPG,11,ISIC_0011460.JPG,ISIC_8624186.JPG,false,1,keypress(m),500,313019.7999999821,313019.59999999404,303535.593,303545.59999999404,303552.614,313031.748,8,400,9,,ISIC_0011460.JPG
break,html.Screen,4_58_1,2023-09-12T19:46:20.618Z,,0,,,NaN,,,,,,false,,,,313020.89999997616,313020.6999999881,,313020.09999999404,,313031.748,8,400,,,
break_continue,html.Screen,4_58_2,2023-09-12T19:46:20.618Z,,0,,,NaN,,,,,,false,,,,313021.2999999821,313021.1999999881,,313021.09999999404,,313031.748,8,400,,,
sequence,flow.Sequence,4_58,2023-09-12T19:46:20.619Z,,0,,,9468.585999988078,completion,,,,,false,,,,313021.5,313021.1999999881,303535.593,303545.59999999404,303552.614,313031.748,8,400,,,
trial,html.Screen,4_59_0,2023-09-12T19:46:23.726Z,,0,2,,3096.351999994018,response,ISIC_0065513.JPG,10,ISIC_8651053.JPG,ISIC_0065513.JPG,false,1,keypress(m),500,316128.2999999821,316128.09999999404,313015.632,313021.59999999404,313031.748,316130.497,8,400,10,,ISIC_8651053.JPG
break,html.Screen,4_59_1,2023-09-12T19:46:23.726Z,,0,,,NaN,,,,,,false,,,,316129.2999999821,316129,,316128.59999999404,,316130.497,8,400,,,
break_continue,html.Screen,4_59_2,2023-09-12T19:46:23.727Z,,0,,,NaN,,,,,,false,,,,316129.6999999881,316129.6999999881,,316129.5,,316130.497,8,400,,,
sequence,flow.Sequence,4_59,2023-09-12T19:46:23.727Z,,0,,,3097.9519999880577,completion,,,,,false,,,,316129.89999997616,316129.6999999881,313015.632,313021.59999999404,313031.748,316130.497,8,400,,,
trial,html.Screen,4_60_0,2023-09-12T19:46:26.583Z,,0,2,,2855.003000000026,response,ISIC_0033083.JPG,5,ISIC_6489993.JPG,ISIC_6489993.JPG,false,0,keypress(z),500,318985.59999999404,318985.5,316113.946,316130,316130.497,318995.91,8,400,11,,ISIC_0033083.JPG
break,html.Screen,4_60_1,2023-09-12T19:46:26.584Z,,0,,,NaN,,,,,,false,,,,318986.59999999404,318986.39999997616,,318985.89999997616,,318995.91,8,400,,,
break_continue,html.Screen,4_60_2,2023-09-12T19:46:26.584Z,,0,,,NaN,,,,,,false,,,,318987,318986.89999997616,,318986.6999999881,,318995.91,8,400,,,
sequence,flow.Sequence,4_60,2023-09-12T19:46:26.584Z,,0,,,2856.402999976184,completion,,,,,false,,,,318987.09999999404,318986.89999997616,316113.946,316130,316130.497,318995.91,8,400,,,
trial,html.Screen,4_61_0,2023-09-12T19:46:30.225Z,,0,2,,3631.5900000000256,response,ISIC_0031118.JPG,6,ISIC_0072473.JPG,ISIC_0031118.JPG,false,1,keypress(m),500,322627.6999999881,322627.5,318979.189,318987.1999999881,318995.91,322644.461,8,400,12,,ISIC_0072473.JPG
break,html.Screen,4_61_1,2023-09-12T19:46:30.226Z,,0,,,NaN,,,,,,false,,,,322628.7999999821,322628.5,,322628,,322644.461,8,400,,,
break_continue,html.Screen,4_61_2,2023-09-12T19:46:30.226Z,,0,,,NaN,,,,,,false,,,,322629.1999999881,322629.1999999881,,322628.89999997616,,322644.461,8,400,,,
sequence,flow.Sequence,4_61,2023-09-12T19:46:30.227Z,,0,,,3633.2899999881047,completion,,,,,false,,,,322629.5,322629.1999999881,318979.189,318987.1999999881,318995.91,322644.461,8,400,,,
trial,html.Screen,4_62_0,2023-09-12T19:46:33.981Z,,0,2,,3739.0389999999898,response,ISIC_0064472.JPG,10,ISIC_8109460.JPG,ISIC_0064472.JPG,false,1,keypress(m),500,326383.6999999881,326383.5,322627.81,322629.5,322644.461,326393.003,8,400,13,,ISIC_8109460.JPG
break,html.Screen,4_62_1,2023-09-12T19:46:33.982Z,,0,,,NaN,,,,,,false,,,,326384.7999999821,326384.5,,326384,,326393.003,8,400,,,
break_continue,html.Screen,4_62_2,2023-09-12T19:46:33.982Z,,0,,,NaN,,,,,,false,,,,326385.1999999881,326385.09999999404,,326384.89999997616,,326393.003,8,400,,,
sequence,flow.Sequence,4_62,2023-09-12T19:46:33.982Z,,0,,,3740.6389999940293,completion,,,,,false,,,,326385.2999999821,326385.09999999404,322627.81,322629.5,322644.461,326393.003,8,400,,,
trial,html.Screen,4_63_0,2023-09-12T19:46:37.512Z,,0,2,,3521.396999976132,response,ISIC_4247149.JPG,5,ISIC_7999342.JPG,ISIC_4247149.JPG,false,1,keypress(m),500,329914.7999999821,329914.39999997616,326376.484,326385.39999997616,326393.003,329924.838,8,400,14,,ISIC_7999342.JPG
break,html.Screen,4_63_1,2023-09-12T19:46:37.513Z,,0,,,NaN,,,,,,false,,,,329915.7999999821,329915.5,,329915,,329924.838,8,400,,,
break_continue,html.Screen,4_63_2,2023-09-12T19:46:37.513Z,,0,,,NaN,,,,,,false,,,,329916.1999999881,329916.09999999404,,329915.89999997616,,329924.838,8,400,,,
sequence,flow.Sequence,4_63,2023-09-12T19:46:37.514Z,,0,,,3523.0969999940135,completion,,,,,false,,,,329916.39999997616,329916.09999999404,326376.484,326385.39999997616,326393.003,329924.838,8,400,,,
trial,html.Screen,4_64_0,2023-09-12T19:46:40.167Z,,0,2,,2644.46199998213,response,ISIC_0011481.JPG,9,ISIC_5659295.JPG,ISIC_5659295.JPG,false,0,keypress(z),500,332569.39999997616,332569.2999999821,329908.145,329916.59999999404,329924.838,332590.686,8,400,15,,ISIC_0011481.JPG
break,html.Screen,4_64_1,2023-09-12T19:46:40.167Z,,0,,,NaN,,,,,,false,,,,332570.2999999821,332570.09999999404,,332569.6999999881,,332590.686,8,400,,,
break_continue,html.Screen,4_64_2,2023-09-12T19:46:40.168Z,,0,,,NaN,,,,,,false,,,,332570.59999999404,332570.5,,332570.39999997616,,332590.686,8,400,,,
sequence,flow.Sequence,4_64,2023-09-12T19:46:40.168Z,,0,,,2645.662000000011,completion,,,,,false,,,,332570.6999999881,332570.5,329908.145,329916.5,329924.838,332590.686,8,400,,,
trial,html.Screen,4_65_0,2023-09-12T19:46:43.102Z,,0,2,,2914.213999976171,response,ISIC_1868816.JPG,6,ISIC_5400609.JPG,ISIC_5400609.JPG,false,0,keypress(z),500,335505.1999999881,335504.89999997616,332574.04,332570.89999997616,332590.686,335529.049,8,400,16,,ISIC_1868816.JPG
break,html.Screen,4_65_1,2023-09-12T19:46:43.103Z,,0,,,NaN,,,,,,false,,,,335506,335505.6999999881,,335505.2999999821,,335529.049,8,400,,,
break_continue,html.Screen,4_65_2,2023-09-12T19:46:43.104Z,,0,,,NaN,,,,,,false,,,,335506.2999999821,335506.1999999881,,335506.09999999404,,335529.049,8,400,,,
sequence,flow.Sequence,4_65,2023-09-12T19:46:43.104Z,,0,,,2915.513999988092,completion,,,,,false,,,,335506.5,335506.1999999881,332574.04,332570.7999999821,332590.686,335529.049,8,400,,,
trial,html.Screen,4_66_0,2023-09-12T19:46:46.530Z,,0,2,,3404.0509999940405,response,ISIC_4045323.JPG,7,ISIC_1332766.JPG,ISIC_1332766.JPG,false,0,keypress(z),500,338933.2999999821,338933.09999999404,335491.084,335506.59999999404,335529.049,338937.978,8,400,17,,ISIC_4045323.JPG
break,html.Screen,4_66_1,2023-09-12T19:46:46.531Z,,0,,,NaN,,,,,,false,,,,338934.2999999821,338934,,338933.5,,338937.978,8,400,,,
break_continue,html.Screen,4_66_2,2023-09-12T19:46:46.532Z,,0,,,NaN,,,,,,false,,,,338934.6999999881,338934.59999999404,,338934.39999997616,,338937.978,8,400,,,
sequence,flow.Sequence,4_66,2023-09-12T19:46:46.532Z,,0,,,3405.5509999940405,completion,,,,,false,,,,338934.89999997616,338934.59999999404,335491.084,335506.5,335529.049,338937.978,8,400,,,
trial,html.Screen,4_67_0,2023-09-12T19:46:50.135Z,,0,2,,3600.021999999997,response,ISIC_2287083.JPG,6,ISIC_1241817.JPG,ISIC_1241817.JPG,false,0,keypress(z),500,342538.1999999881,342538,338933.859,338935.09999999404,338937.978,342571.07,8,400,18,,ISIC_2287083.JPG
break,html.Screen,4_67_1,2023-09-12T19:46:50.136Z,,0,,,NaN,,,,,,false,,,,342539.09999999404,342538.89999997616,,342538.2999999821,,342571.07,8,400,,,
break_continue,html.Screen,4_67_2,2023-09-12T19:46:50.137Z,,0,,,NaN,,,,,,false,,,,342539.5,342539.39999997616,,342539.2999999821,,342571.07,8,400,,,
sequence,flow.Sequence,4_67,2023-09-12T19:46:50.137Z,,0,,,3601.4219999761553,completion,,,,,false,,,,342539.59999999404,342539.39999997616,338933.859,338935,338937.978,342571.07,8,400,,,
trial,html.Screen,4_68_0,2023-09-12T19:46:53.216Z,,0,2,,3047.5299999940326,response,ISIC_0032901.JPG,8,ISIC_0030171.JPG,ISIC_0030171.JPG,false,0,keypress(z),500,345618.89999997616,345618.59999999404,342553.377,342539.6999999881,342571.07,345635.091,8,400,19,,ISIC_0032901.JPG
break,html.Screen,4_68_1,2023-09-12T19:46:53.217Z,,0,,,NaN,,,,,,false,,,,345620.1999999881,345619.7999999821,,345619.1999999881,,345635.091,8,400,,,
break_continue,html.Screen,4_68_2,2023-09-12T19:46:53.218Z,,0,,,NaN,,,,,,false,,,,345620.5,345620.39999997616,,345620.1999999881,,345635.091,8,400,,,
sequence,flow.Sequence,4_68,2023-09-12T19:46:53.218Z,,0,,,3049.329999976151,completion,,,,,false,,,,345620.59999999404,345620.39999997616,342553.377,342539.59999999404,342571.07,345635.091,8,400,,,
trial,html.Screen,4_69_0,2023-09-12T19:46:55.997Z,,0,2,,2764.8089999761432,response,ISIC_0054341.JPG,6,ISIC_5330187.JPG,ISIC_0054341.JPG,false,1,keypress(m),500,348400.1999999881,348399.89999997616,345618.924,345620.6999999881,345635.091,348417.728,8,400,20,,ISIC_5330187.JPG
break,html.Screen,4_69_1,2023-09-12T19:46:55.998Z,,0,,,NaN,,,,,,false,,,,348401.2999999821,348401.09999999404,,348400.5,,348417.728,8,400,,,
break_continue,html.Screen,4_69_2,2023-09-12T19:46:55.999Z,,0,,,NaN,,,,,,false,,,,348401.6999999881,348401.59999999404,,348401.5,,348417.728,8,400,,,
sequence,flow.Sequence,4_69,2023-09-12T19:46:55.999Z,,0,,,2766.5089999940246,completion,,,,,false,,,,348401.7999999821,348401.59999999404,345618.924,345620.6999999881,345635.091,348417.728,8,400,,,
trial,html.Screen,4_70_0,2023-09-12T19:46:58.697Z,,0,2,,2681.8719999940367,response,ISIC_1727826.JPG,6,ISIC_0937261.JPG,ISIC_0937261.JPG,false,0,keypress(z),500,351099.89999997616,351099.59999999404,348385.136,348401.89999997616,348417.728,351116.268,8,400,21,,ISIC_1727826.JPG
break,html.Screen,4_70_1,2023-09-12T19:46:58.698Z,,0,,,NaN,,,,,,false,,,,351101,351100.7999999821,,351100.09999999404,,351116.268,8,400,,,
break_continue,html.Screen,4_70_2,2023-09-12T19:46:58.698Z,,0,,,NaN,,,,,,false,,,,351101.39999997616,351101.2999999821,,351101.1999999881,,351116.268,8,400,,,
sequence,flow.Sequence,4_70,2023-09-12T19:46:58.699Z,,0,,,2683.571999982116,completion,,,,,false,,,,351101.39999997616,351101.2999999821,348385.136,348401.89999997616,348417.728,351116.268,8,400,,,
trial,html.Screen,4_71_0,2023-09-12T19:47:01.643Z,,0,2,,2929.732000000018,response,ISIC_0033278.JPG,6,ISIC_0065746.JPG,ISIC_0065746.JPG,false,0,keypress(z),500,354046.2999999821,354046,351093.397,351101.5,351116.268,354048.374,8,400,22,,ISIC_0033278.JPG
break,html.Screen,4_71_1,2023-09-12T19:47:01.645Z,,0,,,NaN,,,,,,false,,,,354047.39999997616,354047.09999999404,,354046.5,,354048.374,8,400,,,
break_continue,html.Screen,4_71_2,2023-09-12T19:47:01.645Z,,0,,,NaN,,,,,,false,,,,354047.7999999821,354047.6999999881,,354047.5,,354048.374,8,400,,,
sequence,flow.Sequence,4_71,2023-09-12T19:47:01.645Z,,0,,,2931.4319999880972,completion,,,,,false,,,,354048,354047.6999999881,351093.397,351101.5,351116.268,354048.374,8,400,,,
trial,html.Screen,4_72_0,2023-09-12T19:47:04.836Z,,0,2,,3189.925999982108,response,ISIC_6626544.JPG,7,ISIC_0030554.JPG,ISIC_6626544.JPG,false,1,keypress(m),500,357238.6999999881,357238.2999999821,354033.909,354048,354048.374,357247.203,8,400,23,,ISIC_0030554.JPG
break,html.Screen,4_72_1,2023-09-12T19:47:04.837Z,,0,,,NaN,,,,,,false,,,,357239.6999999881,357239.39999997616,,357238.89999997616,,357247.203,8,400,,,
break_continue,html.Screen,4_72_2,2023-09-12T19:47:04.837Z,,0,,,NaN,,,,,,false,,,,357240,357239.89999997616,,357239.7999999821,,357247.203,8,400,,,
sequence,flow.Sequence,4_72,2023-09-12T19:47:04.837Z,,0,,,3191.5259999761474,completion,,,,,false,,,,357240.09999999404,357239.89999997616,354033.909,354048,354048.374,357247.203,8,400,,,
trial,html.Screen,4_73_0,2023-09-12T19:47:07.809Z,,0,2,,2963.6969999761786,response,ISIC_0014229.JPG,12,ISIC_8023705.JPG,ISIC_0014229.JPG,false,1,keypress(m),500,360211.2999999821,360210.89999997616,357231.713,357240.1999999881,357247.203,360235.1,8,400,24,,ISIC_8023705.JPG
break,html.Screen,4_73_1,2023-09-12T19:47:07.810Z,,0,,,NaN,,,,,,false,,,,360212.7999999821,360212.2999999821,,360211.59999999404,,360235.1,8,400,,,
break_continue,html.Screen,4_73_2,2023-09-12T19:47:07.810Z,,0,,,NaN,,,,,,false,,,,360213.1999999881,360213.09999999404,,360212.89999997616,,360235.1,8,400,,,
sequence,flow.Sequence,4_73,2023-09-12T19:47:07.811Z,,0,,,2965.89699999406,completion,,,,,false,,,,360213.2999999821,360213.09999999404,357231.713,357240.1999999881,357247.203,360235.1,8,400,,,
trial,html.Screen,4_74_0,2023-09-12T19:47:12.332Z,,0,2,,4499.799999976181,response,ISIC_0071869.JPG,13,ISIC_4943797.JPG,ISIC_4943797.JPG,false,0,keypress(z),500,364735.1999999881,364734.89999997616,360206.929,360213.5,360235.1,364744.015,8,400,25,,ISIC_0071869.JPG
break,html.Screen,4_74_1,2023-09-12T19:47:12.333Z,,0,,,NaN,,,,,,false,,,,364736.09999999404,364736,,364735.39999997616,,364744.015,8,400,,,
break_continue,html.Screen,4_74_2,2023-09-12T19:47:12.334Z,,0,,,NaN,,,,,,false,,,,364736.5,364736.39999997616,,364736.2999999821,,364744.015,8,400,,,
sequence,flow.Sequence,4_74,2023-09-12T19:47:12.334Z,,0,,,4501.299999976181,completion,,,,,false,,,,364736.6999999881,364736.39999997616,360206.929,360213.5,360235.1,364744.015,8,400,,,
trial,html.Screen,4_75_0,2023-09-12T19:47:16.049Z,,0,2,,3707.7849999821046,response,ISIC_0031425.JPG,6,ISIC_1777398.JPG,ISIC_1777398.JPG,false,0,keypress(z),500,368452,368451.7999999821,364730.132,364736.7999999821,364744.015,368459.157,8,400,26,,ISIC_0031425.JPG
break,html.Screen,4_75_1,2023-09-12T19:47:16.050Z,,0,,,NaN,,,,,,false,,,,368453.1999999881,368452.89999997616,,368452.2999999821,,368459.157,8,400,,,
break_continue,html.Screen,4_75_2,2023-09-12T19:47:16.051Z,,0,,,NaN,,,,,,false,,,,368453.5,368453.5,,368453.2999999821,,368459.157,8,400,,,
sequence,flow.Sequence,4_75,2023-09-12T19:47:16.051Z,,0,,,3709.484999999986,completion,,,,,false,,,,368453.6999999881,368453.5,364730.132,364736.6999999881,364744.015,368459.157,8,400,,,
trial,html.Screen,4_76_0,2023-09-12T19:47:20.680Z,,0,2,,4623.242999976152,response,ISIC_0072569.JPG,8,ISIC_0055314.JPG,ISIC_0055314.JPG,false,0,keypress(z),500,373082.7999999821,373082.39999997616,368444.593,368453.7999999821,368459.157,373090.636,8,400,27,,ISIC_0072569.JPG
break,html.Screen,4_76_1,2023-09-12T19:47:20.681Z,,0,,,NaN,,,,,,false,,,,373083.7999999821,373083.5,,373083,,373090.636,8,400,,,
break_continue,html.Screen,4_76_2,2023-09-12T19:47:20.681Z,,0,,,NaN,,,,,,false,,,,373084.1999999881,373084,,373083.89999997616,,373090.636,8,400,,,
sequence,flow.Sequence,4_76,2023-09-12T19:47:20.682Z,,0,,,4624.8429999999935,completion,,,,,false,,,,373084.2999999821,373084,368444.593,368453.7999999821,368459.157,373090.636,8,400,,,
trial,html.Screen,4_77_0,2023-09-12T19:47:23.612Z,,0,2,,2923.7639999761595,response,ISIC_1118894.JPG,6,ISIC_0170101.JPG,ISIC_0170101.JPG,false,0,keypress(z),500,376014.59999999404,376014.39999997616,373074.677,373084.39999997616,373090.636,376022.782,8,400,28,,ISIC_1118894.JPG
break,html.Screen,4_77_1,2023-09-12T19:47:23.613Z,,0,,,NaN,,,,,,false,,,,376015.59999999404,376015.39999997616,,376014.7999999821,,376022.782,8,400,,,
break_continue,html.Screen,4_77_2,2023-09-12T19:47:23.613Z,,0,,,NaN,,,,,,false,,,,376015.89999997616,376015.7999999821,,376015.6999999881,,376022.782,8,400,,,
sequence,flow.Sequence,4_77,2023-09-12T19:47:23.613Z,,0,,,2925.16399998212,completion,,,,,false,,,,376016,376015.7999999821,373074.677,373084.2999999821,373090.636,376022.782,8,400,,,
trial,html.Screen,4_78_0,2023-09-12T19:47:28.130Z,,0,2,,4509.517999982112,response,ISIC_0011484.JPG,6,ISIC_0028986.JPG,ISIC_0011484.JPG,false,1,keypress(m),500,380532.5,380532.2999999821,375998.434,376016.1999999881,376022.782,380537.605,8,400,29,,ISIC_0028986.JPG
break,html.Screen,4_78_1,2023-09-12T19:47:28.131Z,,0,,,NaN,,,,,,false,,,,380533.5,380533.2999999821,,380532.6999999881,,380537.605,8,400,,,
break_continue,html.Screen,4_78_2,2023-09-12T19:47:28.131Z,,0,,,NaN,,,,,,false,,,,380533.89999997616,380533.7999999821,,380533.59999999404,,380537.605,8,400,,,
sequence,flow.Sequence,4_78,2023-09-12T19:47:28.131Z,,0,,,4511.017999982112,completion,,,,,false,,,,380534,380533.7999999821,375998.434,376016.09999999404,376022.782,380537.605,8,400,,,
trial,html.Screen,4_79_0,2023-09-12T19:47:31.034Z,,0,2,,2899.1949999821372,response,ISIC_0034092.JPG,12,ISIC_0064932.JPG,ISIC_0034092.JPG,false,1,keypress(m),500,383437.09999999404,383436.7999999821,380523.433,380534.09999999404,380537.605,383453.402,8,400,30,,ISIC_0064932.JPG
break,html.Screen,4_79_1,2023-09-12T19:47:31.035Z,,0,,,NaN,,,,,,false,,,,383438.1999999881,383437.89999997616,,383437.2999999821,,383453.402,8,400,,,
break_continue,html.Screen,4_79_2,2023-09-12T19:47:31.036Z,,0,,,NaN,,,,,,false,,,,383438.5,383438.39999997616,,383438.2999999821,,383453.402,8,400,,,
sequence,flow.Sequence,4_79,2023-09-12T19:47:31.036Z,,0,,,2900.7949999761768,completion,,,,,false,,,,383438.6999999881,383438.39999997616,380523.433,380534.09999999404,380537.605,383453.402,8,400,,,
trial,html.Screen,4_80_0,2023-09-12T19:47:33.625Z,,0,2,,2573.797999988077,response,ISIC_3686179.JPG,8,ISIC_0011349.JPG,ISIC_0011349.JPG,false,0,keypress(z),500,386027.5,386027.1999999881,383437.022,383438.7999999821,383453.402,386035.675,8,400,31,,ISIC_3686179.JPG
break,html.Screen,4_80_1,2023-09-12T19:47:33.626Z,,0,,,NaN,,,,,,false,,,,386028.39999997616,386028.1999999881,,386027.6999999881,,386035.675,8,400,,,
break_continue,html.Screen,4_80_2,2023-09-12T19:47:33.626Z,,0,,,NaN,,,,,,false,,,,386028.6999999881,386028.59999999404,,386028.5,,386035.675,8,400,,,
sequence,flow.Sequence,4_80,2023-09-12T19:47:33.626Z,,0,,,2575.1979999940377,completion,,,,,false,,,,386028.7999999821,386028.59999999404,383437.022,383438.7999999821,383453.402,386035.675,8,400,,,
trial,html.Screen,4_81_0,2023-09-12T19:47:36.865Z,,0,2,,3232.22499997617,response,ISIC_9948815.JPG,5,ISIC_2142639.JPG,ISIC_2142639.JPG,false,0,keypress(z),500,389268.2999999821,389267.89999997616,386018.755,386028.89999997616,386035.675,389284.049,8,400,32,,ISIC_9948815.JPG
break,html.Screen,4_81_1,2023-09-12T19:47:36.867Z,,0,,,NaN,,,,,,false,,,,389269.39999997616,389269.09999999404,,389268.39999997616,,389284.049,8,400,,,
break_continue,html.Screen,4_81_2,2023-09-12T19:47:36.867Z,,0,,,NaN,,,,,,false,,,,389269.6999999881,389269.6999999881,,389269.5,,389284.049,8,400,,,
sequence,flow.Sequence,4_81,2023-09-12T19:47:36.867Z,,0,,,3234.0249999880907,completion,,,,,false,,,,389269.89999997616,389269.6999999881,386018.755,386028.89999997616,386035.675,389284.049,8,400,,,
trial,html.Screen,4_82_0,2023-09-12T19:47:40.439Z,,0,2,,3557.2509999821195,response,ISIC_7748311.JPG,12,ISIC_5843614.JPG,ISIC_5843614.JPG,false,0,keypress(z),500,392841.59999999404,392841.2999999821,389261.984,389269.89999997616,389284.049,392849.232,8,400,33,,ISIC_7748311.JPG
break,html.Screen,4_82_1,2023-09-12T19:47:40.440Z,,0,,,NaN,,,,,,false,,,,392842.59999999404,392842.39999997616,,392841.7999999821,,392849.232,8,400,,,
break_continue,html.Screen,4_82_2,2023-09-12T19:47:40.440Z,,0,,,NaN,,,,,,false,,,,392843,392842.89999997616,,392842.7999999821,,392849.232,8,400,,,
sequence,flow.Sequence,4_82,2023-09-12T19:47:40.440Z,,0,,,3558.850999976159,completion,,,,,false,,,,392843.09999999404,392842.89999997616,389261.984,389269.89999997616,389284.049,392849.232,8,400,,,
trial,html.Screen,4_83_0,2023-09-12T19:47:43.168Z,,0,2,,2721.66799997614,response,ISIC_0032320.JPG,5,ISIC_5791954.JPG,ISIC_5791954.JPG,false,0,keypress(z),500,395571.1999999881,395570.89999997616,392834.045,392843.1999999881,392849.232,395581.539,8,400,34,,ISIC_0032320.JPG
break,html.Screen,4_83_1,2023-09-12T19:47:43.169Z,,0,,,NaN,,,,,,false,,,,395572.09999999404,395571.89999997616,,395571.2999999821,,395581.539,8,400,,,
break_continue,html.Screen,4_83_2,2023-09-12T19:47:43.170Z,,0,,,NaN,,,,,,false,,,,395572.5,395572.39999997616,,395572.2999999821,,395581.539,8,400,,,
sequence,flow.Sequence,4_83,2023-09-12T19:47:43.170Z,,0,,,2723.16799997614,completion,,,,,false,,,,395572.59999999404,395572.39999997616,392834.045,392843.1999999881,392849.232,395581.539,8,400,,,
trial,html.Screen,4_84_0,2023-09-12T19:47:45.824Z,,0,2,,2644.760999982129,response,ISIC_5994007.JPG,8,ISIC_7672106.JPG,ISIC_5994007.JPG,false,1,keypress(m),500,398226.59999999404,398226.2999999821,395565.432,395572.7999999821,395581.539,398230.368,8,400,35,,ISIC_7672106.JPG
break,html.Screen,4_84_1,2023-09-12T19:47:45.825Z,,0,,,NaN,,,,,,false,,,,398227.6999999881,398227.2999999821,,398226.89999997616,,398230.368,8,400,,,
break_continue,html.Screen,4_84_2,2023-09-12T19:47:45.825Z,,0,,,NaN,,,,,,false,,,,398228,398227.89999997616,,398227.7999999821,,398230.368,8,400,,,
sequence,flow.Sequence,4_84,2023-09-12T19:47:45.825Z,,0,,,2646.3609999761684,completion,,,,,false,,,,398228.1999999881,398227.89999997616,395565.432,395572.6999999881,395581.539,398230.368,8,400,,,
trial,html.Screen,4_85_0,2023-09-12T19:47:48.501Z,,0,2,,2673.5319999761414,response,ISIC_0053469.JPG,10,ISIC_0015109.JPG,ISIC_0053469.JPG,false,1,keypress(m),500,400904.1999999881,400903.89999997616,398216.614,398228.2999999821,398230.368,400912.918,8,400,36,,ISIC_0015109.JPG
break,html.Screen,4_85_1,2023-09-12T19:47:48.502Z,,0,,,NaN,,,,,,false,,,,400905.1999999881,400904.89999997616,,400904.39999997616,,400912.918,8,400,,,
break_continue,html.Screen,4_85_2,2023-09-12T19:47:48.503Z,,0,,,NaN,,,,,,false,,,,400905.5,400905.39999997616,,400905.1999999881,,400912.918,8,400,,,
sequence,flow.Sequence,4_85,2023-09-12T19:47:48.503Z,,0,,,2675.0319999761414,completion,,,,,false,,,,400905.59999999404,400905.39999997616,398216.614,398228.2999999821,398230.368,400912.918,8,400,,,
trial,html.Screen,4_86_0,2023-09-12T19:47:51.550Z,,0,2,,3039.781999988074,response,ISIC_2642742.JPG,6,ISIC_0060386.JPG,ISIC_2642742.JPG,false,1,keypress(m),500,403953,403952.6999999881,400891.977,400905.6999999881,400912.918,403961.39,8,400,37,,ISIC_0060386.JPG
break,html.Screen,4_86_1,2023-09-12T19:47:51.551Z,,0,,,NaN,,,,,,false,,,,403954,403953.6999999881,,403953.09999999404,,403961.39,8,400,,,
break_continue,html.Screen,4_86_2,2023-09-12T19:47:51.552Z,,0,,,NaN,,,,,,false,,,,403954.2999999821,403954.2999999821,,403954.09999999404,,403961.39,8,400,,,
sequence,flow.Sequence,4_86,2023-09-12T19:47:51.552Z,,0,,,3041.3819999821135,completion,,,,,false,,,,403954.39999997616,403954.2999999821,400891.977,400905.59999999404,400912.918,403961.39,8,400,,,
trial,html.Screen,4_87_0,2023-09-12T19:47:54.367Z,,0,2,,2807.9099999821046,response,ISIC_5362869.JPG,6,ISIC_6458982.JPG,ISIC_6458982.JPG,false,0,keypress(z),500,406769.59999999404,406769.2999999821,403945.96,403954.5,403961.39,406776.821,8,400,38,,ISIC_5362869.JPG
break,html.Screen,4_87_1,2023-09-12T19:47:54.368Z,,0,,,NaN,,,,,,false,,,,406770.6999999881,406770.5,,406769.7999999821,,406776.821,8,400,,,
break_continue,html.Screen,4_87_2,2023-09-12T19:47:54.368Z,,0,,,NaN,,,,,,false,,,,406771.09999999404,406770.89999997616,,406770.7999999821,,406776.821,8,400,,,
sequence,flow.Sequence,4_87,2023-09-12T19:47:54.368Z,,0,,,2809.509999976144,completion,,,,,false,,,,406771.1999999881,406770.89999997616,403945.96,403954.5,403961.39,406776.821,8,400,,,
trial,html.Screen,4_88_0,2023-09-12T19:47:57.112Z,,0,2,,2738.078999976162,response,ISIC_0010358.JPG,5,ISIC_0009893.JPG,ISIC_0009893.JPG,false,0,keypress(z),500,409515.09999999404,409514.89999997616,406761.162,406771.2999999821,406776.821,409525.735,8,400,39,,ISIC_0010358.JPG
break,html.Screen,4_88_1,2023-09-12T19:47:57.113Z,,0,,,NaN,,,,,,false,,,,409516.09999999404,409515.89999997616,,409515.2999999821,,409525.735,8,400,,,
break_continue,html.Screen,4_88_2,2023-09-12T19:47:57.114Z,,0,,,NaN,,,,,,false,,,,409516.5,409516.39999997616,,409516.1999999881,,409525.735,8,400,,,
sequence,flow.Sequence,4_88,2023-09-12T19:47:57.114Z,,0,,,2739.578999976162,completion,,,,,false,,,,409516.6999999881,409516.39999997616,406761.162,406771.2999999821,406776.821,409525.735,8,400,,,
trial,html.Screen,4_89_0,2023-09-12T19:48:00.770Z,,0,2,,3647.164999976172,response,ISIC_0000172.JPG,6,ISIC_9720518.JPG,ISIC_0000172.JPG,false,1,keypress(m),500,413173.1999999881,413172.89999997616,409510.929,409516.7999999821,409525.735,413197.875,8,400,40,,ISIC_9720518.JPG
break,html.Screen,4_89_1,2023-09-12T19:48:00.772Z,,0,,,NaN,,,,,,false,,,,413174.6999999881,413174.39999997616,,413173.39999997616,,413197.875,8,400,,,
break_continue,html.Screen,4_89_2,2023-09-12T19:48:00.772Z,,0,,,NaN,,,,,,false,,,,413175,413175,,413174.7999999821,,413197.875,8,400,,,
sequence,flow.Sequence,4_89,2023-09-12T19:48:00.772Z,,0,,,3649.265000000014,completion,,,,,false,,,,413175.1999999881,413175,409510.929,409516.6999999881,409525.735,413197.875,8,400,,,
trial,html.Screen,4_90_0,2023-09-12T19:48:05.371Z,,0,2,,4576.024999976158,response,ISIC_8659639.JPG,7,ISIC_0027472.JPG,ISIC_8659639.JPG,false,1,keypress(m),500,417774.1999999881,417773.89999997616,413171.05,413175.2999999821,413197.875,417789.062,8,400,41,,ISIC_0027472.JPG
break,html.Screen,4_90_1,2023-09-12T19:48:05.372Z,,0,,,NaN,,,,,,false,,,,417775.1999999881,417774.89999997616,,417774.39999997616,,417789.062,8,400,,,
break_continue,html.Screen,4_90_2,2023-09-12T19:48:05.373Z,,0,,,NaN,,,,,,false,,,,417775.59999999404,417775.5,,417775.2999999821,,417789.062,8,400,,,
sequence,flow.Sequence,4_90,2023-09-12T19:48:05.373Z,,0,,,4577.625,completion,,,,,false,,,,417775.6999999881,417775.5,413171.05,413175.2999999821,413197.875,417789.062,8,400,,,
trial,html.Screen,4_91_0,2023-09-12T19:48:08.385Z,,0,2,,2998.137999988103,response,ISIC_0073173.JPG,11,ISIC_0007084.JPG,ISIC_0073173.JPG,false,1,keypress(m),500,420787.5,420787.1999999881,417772.791,417775.7999999821,417789.062,420805.089,8,400,42,,ISIC_0007084.JPG
break,html.Screen,4_91_1,2023-09-12T19:48:08.386Z,,0,,,NaN,,,,,,false,,,,420788.7999999821,420788.59999999404,,420787.7999999821,,420805.089,8,400,,,
break_continue,html.Screen,4_91_2,2023-09-12T19:48:08.386Z,,0,,,NaN,,,,,,false,,,,420789.1999999881,420789,,420789,,420805.089,8,400,,,
sequence,flow.Sequence,4_91,2023-09-12T19:48:08.387Z,,0,,,2999.9380000000237,completion,,,,,false,,,,420789.2999999821,420789,417772.791,417775.7999999821,417789.062,420805.089,8,400,,,
trial,html.Screen,4_92_0,2023-09-12T19:48:12.967Z,,0,2,,4564.411000000022,response,ISIC_8344196.JPG,5,ISIC_0000763.JPG,ISIC_8344196.JPG,false,1,keypress(m),500,425369.7999999821,425369.5,420772.524,420789.39999997616,420805.089,425386.001,8,400,43,,ISIC_0000763.JPG
break,html.Screen,4_92_1,2023-09-12T19:48:12.968Z,,0,,,NaN,,,,,,false,,,,425370.89999997616,425370.6999999881,,425369.89999997616,,425386.001,8,400,,,
break_continue,html.Screen,4_92_2,2023-09-12T19:48:12.969Z,,0,,,NaN,,,,,,false,,,,425371.2999999821,425371.1999999881,,425371,,425386.001,8,400,,,
sequence,flow.Sequence,4_92,2023-09-12T19:48:12.969Z,,0,,,4566.110999988101,completion,,,,,false,,,,425371.39999997616,425371.1999999881,420772.524,420789.2999999821,420805.089,425386.001,8,400,,,
trial,html.Screen,4_93_0,2023-09-12T19:48:16.416Z,,0,2,,3432.4990000000107,response,ISIC_0663588.JPG,5,ISIC_8951909.JPG,ISIC_8951909.JPG,false,0,keypress(z),500,428818.6999999881,428818.5,425366.267,425371.59999999404,425386.001,428834.847,8,400,44,,ISIC_0663588.JPG
break,html.Screen,4_93_1,2023-09-12T19:48:16.417Z,,0,,,NaN,,,,,,false,,,,428819.7999999821,428819.5,,428818.89999997616,,428834.847,8,400,,,
break_continue,html.Screen,4_93_2,2023-09-12T19:48:16.417Z,,0,,,NaN,,,,,,false,,,,428820.09999999404,428820.09999999404,,428819.89999997616,,428834.847,8,400,,,
sequence,flow.Sequence,4_93,2023-09-12T19:48:16.418Z,,0,,,3434.0989999940502,completion,,,,,false,,,,428820.2999999821,428820.09999999404,425366.267,425371.5,425386.001,428834.847,8,400,,,
trial,html.Screen,4_94_0,2023-09-12T19:48:19.227Z,,0,2,,2794.85299998807,response,ISIC_7266462.JPG,5,ISIC_4887995.JPG,ISIC_4887995.JPG,false,0,keypress(z),500,431630,431629.6999999881,428818.973,428820.5,428834.847,431633.293,8,400,45,,ISIC_7266462.JPG
break,html.Screen,4_94_1,2023-09-12T19:48:19.228Z,,0,,,NaN,,,,,,false,,,,431631,431630.7999999821,,431630.1999999881,,431633.293,8,400,,,
break_continue,html.Screen,4_94_2,2023-09-12T19:48:19.229Z,,0,,,NaN,,,,,,false,,,,431631.2999999821,431631.1999999881,,431631.09999999404,,431633.293,8,400,,,
sequence,flow.Sequence,4_94,2023-09-12T19:48:19.229Z,,0,,,2796.35299998807,completion,,,,,false,,,,431631.5,431631.1999999881,428818.973,428820.39999997616,428834.847,431633.293,8,400,,,
trial,html.Screen,4_95_0,2023-09-12T19:48:21.975Z,,0,2,,2744.406999988074,response,ISIC_0834745.JPG,6,ISIC_0032094.JPG,ISIC_0032094.JPG,false,0,keypress(z),500,434378,434377.6999999881,431617.101,431631.59999999404,431633.293,434382.265,8,400,46,,ISIC_0834745.JPG
break,html.Screen,4_95_1,2023-09-12T19:48:21.976Z,,0,,,NaN,,,,,,false,,,,434379.09999999404,434378.7999999821,,434378.1999999881,,434382.265,8,400,,,
break_continue,html.Screen,4_95_2,2023-09-12T19:48:21.977Z,,0,,,NaN,,,,,,false,,,,434379.39999997616,434379.2999999821,,434379.1999999881,,434382.265,8,400,,,
sequence,flow.Sequence,4_95,2023-09-12T19:48:21.977Z,,0,,,2746.0069999821135,completion,,,,,false,,,,434379.5,434379.2999999821,431617.101,431631.5,431633.293,434382.265,8,400,,,
trial,html.Screen,4_96_0,2023-09-12T19:48:24.939Z,,0,2,,2958.934999988065,response,ISIC_0028230.JPG,8,ISIC_3292151.JPG,ISIC_3292151.JPG,false,0,keypress(z),500,437341.5,437341.1999999881,434366.888,434379.59999999404,434382.265,437347.748,8,400,47,,ISIC_0028230.JPG
break,html.Screen,4_96_1,2023-09-12T19:48:24.940Z,,0,,,NaN,,,,,,false,,,,437342.59999999404,437342.2999999821,,437341.6999999881,,437347.748,8,400,,,
break_continue,html.Screen,4_96_2,2023-09-12T19:48:24.940Z,,0,,,NaN,,,,,,false,,,,437342.89999997616,437342.7999999821,,437342.6999999881,,437347.748,8,400,,,
sequence,flow.Sequence,4_96,2023-09-12T19:48:24.940Z,,0,,,2960.5349999821046,completion,,,,,false,,,,437342.89999997616,437342.7999999821,434366.888,434379.59999999404,434382.265,437347.748,8,400,,,
trial,html.Screen,4_97_0,2023-09-12T19:48:28.278Z,,0,2,,3332.4519999880577,response,ISIC_5409902.JPG,11,ISIC_0024961.JPG,ISIC_5409902.JPG,false,1,keypress(m),500,440680.5,440680.1999999881,437329.326,437343.09999999404,437347.748,440696.66,8,400,48,,ISIC_0024961.JPG
break,html.Screen,4_97_1,2023-09-12T19:48:28.279Z,,0,,,NaN,,,,,,false,,,,440681.6999999881,440681.2999999821,,440680.6999999881,,440696.66,8,400,,,
break_continue,html.Screen,4_97_2,2023-09-12T19:48:28.279Z,,0,,,NaN,,,,,,false,,,,440682,440681.89999997616,,440681.6999999881,,440696.66,8,400,,,
sequence,flow.Sequence,4_97,2023-09-12T19:48:28.279Z,,0,,,3334.1519999761367,completion,,,,,false,,,,440682.09999999404,440681.89999997616,437329.326,437343.09999999404,437347.748,440696.66,8,400,,,
trial,html.Screen,4_98_0,2023-09-12T19:48:35.101Z,,0,2,,6806.639999982144,response,ISIC_6661691.JPG,11,ISIC_9618489.JPG,ISIC_9618489.JPG,false,0,keypress(z),500,447503.59999999404,447503.2999999821,440680.264,440682.1999999881,440696.66,447510.284,8,400,49,,ISIC_6661691.JPG
break,html.Screen,4_98_1,2023-09-12T19:48:35.102Z,,0,,,NaN,,,,,,false,,,,447504.6999999881,447504.39999997616,,447503.7999999821,,447510.284,8,400,,,
break_continue,html.Screen,4_98_2,2023-09-12T19:48:35.103Z,,0,,,NaN,,,,,,false,,,,447505.1999999881,447505.09999999404,,447504.89999997616,,447510.284,8,400,,,
sequence,flow.Sequence,4_98,2023-09-12T19:48:35.103Z,,0,,,6808.439999994065,completion,,,,,false,,,,447505.39999997616,447505.09999999404,440680.264,440682.09999999404,440696.66,447510.284,8,400,,,
trial,html.Screen,4_99_0,2023-09-12T19:48:41.905Z,,0,2,,6797.615999976173,response,ISIC_0065039.JPG,12,ISIC_0650126.JPG,ISIC_0650126.JPG,false,0,keypress(z),500,454308.09999999404,454307.89999997616,447493.868,447505.5,447510.284,454324.16,8,400,50,,ISIC_0065039.JPG
break,html.Screen,4_99_1,2023-09-12T19:48:51.902Z,,0,,,9995.926000000036,timeout,,,,,false,,,,464304.39999997616,464303.568,454292.539,454308.2999999821,454324.16,464320.086,8,400,,,
break_continue,html.Screen,4_99_2,2023-09-12T19:48:54.392Z,,0,,,2449.4139999999898,response,,,,,false,continue,keypress(Space),,466794.5,466769.5,464303.568,464304.5,464320.086,466802.394,8,400,,,
sequence,flow.Sequence,4_99,2023-09-12T19:48:54.392Z,,0,,,19259.216000000015,completion,,,,,false,,,,466794.59999999404,466769.5,447493.868,447505.39999997616,447510.284,466802.394,8,400,,,
trial,html.Screen,4_100_0,2023-09-12T19:48:58.491Z,,0,3,,4091.2059999940684,response,ISIC_7956417.JPG,6,ISIC_8298434.JPG,ISIC_8298434.JPG,false,0,keypress(z),500,470894.09999999404,470893.59999999404,466779.28,466794.7999999821,466802.394,470900.696,8,400,1,,ISIC_7956417.JPG
break,html.Screen,4_100_1,2023-09-12T19:48:58.493Z,,0,,,NaN,,,,,,false,,,,470895.2999999821,470895,,470894.1999999881,,470900.696,8,400,,,
break_continue,html.Screen,4_100_2,2023-09-12T19:48:58.493Z,,0,,,NaN,,,,,,false,,,,470895.59999999404,470895.5,,470895.2999999821,,470900.696,8,400,,,
sequence,flow.Sequence,4_100,2023-09-12T19:48:58.493Z,,0,,,4093.106000000029,completion,,,,,false,,,,470895.7999999821,470895.5,466779.28,466794.6999999881,466802.394,470900.696,8,400,,,
trial,html.Screen,4_101_0,2023-09-12T19:49:04.413Z,,0,3,,5914.804000000004,response,ISIC_0009959.JPG,11,ISIC_0004000.JPG,ISIC_0004000.JPG,false,0,keypress(z),500,476815.7999999821,476815.5,470883.702,470895.89999997616,470900.696,476831.685,8,400,2,,ISIC_0009959.JPG
break,html.Screen,4_101_1,2023-09-12T19:49:04.414Z,,0,,,NaN,,,,,,false,,,,476817,476816.6999999881,,476816,,476831.685,8,400,,,
break_continue,html.Screen,4_101_2,2023-09-12T19:49:04.415Z,,0,,,NaN,,,,,,false,,,,476817.2999999821,476817.1999999881,,476817,,476831.685,8,400,,,
sequence,flow.Sequence,4_101,2023-09-12T19:49:04.415Z,,0,,,5916.503999988083,completion,,,,,false,,,,476817.39999997616,476817.1999999881,470883.702,470895.89999997616,470900.696,476831.685,8,400,,,
trial,html.Screen,4_102_0,2023-09-12T19:49:07.570Z,,0,3,,3140.8150000000023,response,ISIC_0946787.JPG,5,ISIC_0010655.JPG,ISIC_0010655.JPG,false,0,keypress(z),500,479972.7999999821,479972.5,476816.225,476817.5,476831.685,479980.35,8,400,3,,ISIC_0946787.JPG
break,html.Screen,4_102_1,2023-09-12T19:49:07.571Z,,0,,,NaN,,,,,,false,,,,479973.7999999821,479973.5,,479972.89999997616,,479980.35,8,400,,,
break_continue,html.Screen,4_102_2,2023-09-12T19:49:07.571Z,,0,,,NaN,,,,,,false,,,,479974.1999999881,479974,,479973.89999997616,,479980.35,8,400,,,
sequence,flow.Sequence,4_102,2023-09-12T19:49:07.572Z,,0,,,3142.3150000000023,completion,,,,,false,,,,479974.2999999821,479974,476816.225,476817.5,476831.685,479980.35,8,400,,,
trial,html.Screen,4_103_0,2023-09-12T19:49:10.519Z,,0,3,,2941.0499999761814,response,ISIC_7491389.JPG,12,ISIC_0031034.JPG,ISIC_7491389.JPG,false,1,keypress(m),500,482921.6999999881,482921.39999997616,479964.843,479974.39999997616,479980.35,482929.71,8,400,4,,ISIC_0031034.JPG
break,html.Screen,4_103_1,2023-09-12T19:49:10.520Z,,0,,,NaN,,,,,,false,,,,482922.59999999404,482922.39999997616,,482921.7999999821,,482929.71,8,400,,,
break_continue,html.Screen,4_103_2,2023-09-12T19:49:10.520Z,,0,,,NaN,,,,,,false,,,,482923.1999999881,482923,,482922.7999999821,,482929.71,8,400,,,
sequence,flow.Sequence,4_103,2023-09-12T19:49:10.521Z,,0,,,2942.6500000000233,completion,,,,,false,,,,482923.2999999821,482923,479964.843,479974.2999999821,479980.35,482929.71,8,400,,,
trial,html.Screen,4_104_0,2023-09-12T19:49:14.589Z,,0,3,,4061.789999999979,response,ISIC_8885809.JPG,5,ISIC_0071458.JPG,ISIC_8885809.JPG,false,1,keypress(m),500,486991.6999999881,486991.5,482913.145,482923.39999997616,482929.71,486994.164,8,400,5,,ISIC_0071458.JPG
break,html.Screen,4_104_1,2023-09-12T19:49:14.590Z,,0,,,NaN,,,,,,false,,,,486992.7999999821,486992.5,,486991.89999997616,,486994.164,8,400,,,
break_continue,html.Screen,4_104_2,2023-09-12T19:49:14.590Z,,0,,,NaN,,,,,,false,,,,486993.09999999404,486993,,486992.89999997616,,486994.164,8,400,,,
sequence,flow.Sequence,4_104,2023-09-12T19:49:14.591Z,,0,,,4063.289999999979,completion,,,,,false,,,,486993.1999999881,486993,482913.145,482923.39999997616,482929.71,486994.164,8,400,,,
trial,html.Screen,4_105_0,2023-09-12T19:49:17.297Z,,0,3,,2704.93599999405,response,ISIC_2415803.JPG,11,ISIC_6967143.JPG,ISIC_2415803.JPG,false,1,keypress(m),500,489699.39999997616,489699.09999999404,486978.12,486993.2999999821,486994.164,489710.158,8,400,6,,ISIC_6967143.JPG
break,html.Screen,4_105_1,2023-09-12T19:49:17.298Z,,0,,,NaN,,,,,,false,,,,489700.2999999821,489700,,489699.59999999404,,489710.158,8,400,,,
break_continue,html.Screen,4_105_2,2023-09-12T19:49:17.298Z,,0,,,NaN,,,,,,false,,,,489700.59999999404,489700.5,,489700.39999997616,,489710.158,8,400,,,
sequence,flow.Sequence,4_105,2023-09-12T19:49:17.298Z,,0,,,2706.3360000000102,completion,,,,,false,,,,489700.7999999821,489700.5,486978.12,486993.1999999881,486994.164,489710.158,8,400,,,
trial,html.Screen,4_106_0,2023-09-12T19:49:20.663Z,,0,3,,3355.141999982123,response,ISIC_5156491.JPG,12,ISIC_8510848.JPG,ISIC_5156491.JPG,false,1,keypress(m),500,493065.6999999881,493065.2999999821,489694.623,489700.89999997616,489710.158,493075.007,8,400,7,,ISIC_8510848.JPG
break,html.Screen,4_106_1,2023-09-12T19:49:20.664Z,,0,,,NaN,,,,,,false,,,,493066.89999997616,493066.6999999881,,493065.89999997616,,493075.007,8,400,,,
break_continue,html.Screen,4_106_2,2023-09-12T19:49:20.665Z,,0,,,NaN,,,,,,false,,,,493067.39999997616,493067.1999999881,,493067.09999999404,,493075.007,8,400,,,
sequence,flow.Sequence,4_106,2023-09-12T19:49:20.665Z,,0,,,3357.0419999880833,completion,,,,,false,,,,493067.59999999404,493067.1999999881,489694.623,489700.89999997616,489710.158,493075.007,8,400,,,
trial,html.Screen,4_107_0,2023-09-12T19:49:23.331Z,,0,3,,2657.892999976175,response,ISIC_7844825.JPG,6,ISIC_9363106.JPG,ISIC_9363106.JPG,false,0,keypress(z),500,495733.2999999821,495732.89999997616,493058.769,493067.6999999881,493075.007,495740.565,8,400,8,,ISIC_7844825.JPG
break,html.Screen,4_107_1,2023-09-12T19:49:23.332Z,,0,,,NaN,,,,,,false,,,,495734.59999999404,495734.2999999821,,495733.59999999404,,495740.565,8,400,,,
break_continue,html.Screen,4_107_2,2023-09-12T19:49:23.332Z,,0,,,NaN,,,,,,false,,,,495734.89999997616,495734.7999999821,,495734.6999999881,,495740.565,8,400,,,
sequence,flow.Sequence,4_107,2023-09-12T19:49:23.332Z,,0,,,2659.7929999821354,completion,,,,,false,,,,495735,495734.7999999821,493058.769,493067.6999999881,493075.007,495740.565,8,400,,,
trial,html.Screen,4_108_0,2023-09-12T19:49:26.872Z,,0,3,,3534.2349999821163,response,ISIC_0011529.JPG,5,ISIC_4312841.JPG,ISIC_0011529.JPG,false,1,keypress(m),500,499275.09999999404,499274.7999999821,495724.919,495735.1999999881,495740.565,499289.117,8,400,9,,ISIC_4312841.JPG
break,html.Screen,4_108_1,2023-09-12T19:49:26.873Z,,0,,,NaN,,,,,,false,,,,499276,499275.6999999881,,499275.1999999881,,499289.117,8,400,,,
break_continue,html.Screen,4_108_2,2023-09-12T19:49:26.874Z,,0,,,NaN,,,,,,false,,,,499276.2999999821,499276.2999999821,,499276.09999999404,,499289.117,8,400,,,
sequence,flow.Sequence,4_108,2023-09-12T19:49:26.874Z,,0,,,3535.7349999821163,completion,,,,,false,,,,499276.59999999404,499276.2999999821,495724.919,495735.09999999404,495740.565,499289.117,8,400,,,
trial,html.Screen,4_109_0,2023-09-12T19:49:29.911Z,,0,3,,3023.8829999999725,response,ISIC_9445196.JPG,12,ISIC_0032724.JPG,ISIC_9445196.JPG,false,1,keypress(m),500,502313.2999999821,502313,499273.595,499276.6999999881,499289.117,502321.541,8,400,10,,ISIC_0032724.JPG
break,html.Screen,4_109_1,2023-09-12T19:49:29.912Z,,0,,,NaN,,,,,,false,,,,502314.2999999821,502313.89999997616,,502313.5,,502321.541,8,400,,,
break_continue,html.Screen,4_109_2,2023-09-12T19:49:29.912Z,,0,,,NaN,,,,,,false,,,,502314.59999999404,502314.5,,502314.39999997616,,502321.541,8,400,,,
sequence,flow.Sequence,4_109,2023-09-12T19:49:29.912Z,,0,,,3025.3829999999725,completion,,,,,false,,,,502314.6999999881,502314.5,499273.595,499276.6999999881,499289.117,502321.541,8,400,,,
trial,html.Screen,4_110_0,2023-09-12T19:49:33.058Z,,0,3,,3138.8589999761316,response,ISIC_4702522.JPG,6,ISIC_0002026.JPG,ISIC_0002026.JPG,false,0,keypress(z),500,505460.59999999404,505460.39999997616,502305.48,502314.89999997616,502321.541,505469.944,8,400,11,,ISIC_4702522.JPG
break,html.Screen,4_110_1,2023-09-12T19:49:33.059Z,,0,,,NaN,,,,,,false,,,,505461.6999999881,505461.5,,505460.89999997616,,505469.944,8,400,,,
break_continue,html.Screen,4_110_2,2023-09-12T19:49:33.059Z,,0,,,NaN,,,,,,false,,,,505462.09999999404,505462,,505461.89999997616,,505469.944,8,400,,,
sequence,flow.Sequence,4_110,2023-09-12T19:49:33.060Z,,0,,,3140.4589999999735,completion,,,,,false,,,,505462.2999999821,505462,502305.48,502314.89999997616,502321.541,505469.944,8,400,,,
trial,html.Screen,4_111_0,2023-09-12T19:49:36.491Z,,0,3,,3423.855999982101,response,ISIC_4045323.JPG,7,ISIC_0030656.JPG,ISIC_0030656.JPG,false,0,keypress(z),500,508894.09999999404,508893.7999999821,505454.965,505462.2999999821,505469.944,508901.889,8,400,12,,ISIC_4045323.JPG
break,html.Screen,4_111_1,2023-09-12T19:49:36.492Z,,0,,,NaN,,,,,,false,,,,508895.09999999404,508894.7999999821,,508894.1999999881,,508901.889,8,400,,,
break_continue,html.Screen,4_111_2,2023-09-12T19:49:36.493Z,,0,,,NaN,,,,,,false,,,,508895.5,508895.2999999821,,508895.1999999881,,508901.889,8,400,,,
sequence,flow.Sequence,4_111,2023-09-12T19:49:36.493Z,,0,,,3425.355999982101,completion,,,,,false,,,,508895.59999999404,508895.2999999821,505454.965,505462.2999999821,505469.944,508901.889,8,400,,,
trial,html.Screen,4_112_0,2023-09-12T19:49:39.108Z,,0,3,,2609.0109999761335,response,ISIC_0025006.JPG,9,ISIC_2219050.JPG,ISIC_2219050.JPG,false,0,keypress(z),500,511511.1999999881,511510.89999997616,508885.462,508895.7999999821,508901.889,511517.477,8,400,13,,ISIC_0025006.JPG
break,html.Screen,4_112_1,2023-09-12T19:49:39.109Z,,0,,,NaN,,,,,,false,,,,511512.1999999881,511511.89999997616,,511511.2999999821,,511517.477,8,400,,,
break_continue,html.Screen,4_112_2,2023-09-12T19:49:39.110Z,,0,,,NaN,,,,,,false,,,,511512.59999999404,511512.5,,511512.2999999821,,511517.477,8,400,,,
sequence,flow.Sequence,4_112,2023-09-12T19:49:39.110Z,,0,,,2610.6109999999753,completion,,,,,false,,,,511512.6999999881,511512.5,508885.462,508895.6999999881,508901.889,511517.477,8,400,,,
trial,html.Screen,4_113_0,2023-09-12T19:49:41.723Z,,0,3,,2608.4229999761446,response,ISIC_7875959.JPG,12,ISIC_0025184.JPG,ISIC_0025184.JPG,false,0,keypress(z),500,514126.09999999404,514125.89999997616,511501.894,511512.7999999821,511517.477,514133.096,8,400,14,,ISIC_7875959.JPG
break,html.Screen,4_113_1,2023-09-12T19:49:41.724Z,,0,,,NaN,,,,,,false,,,,514127,514126.7999999821,,514126.2999999821,,514133.096,8,400,,,
break_continue,html.Screen,4_113_2,2023-09-12T19:49:41.725Z,,0,,,NaN,,,,,,false,,,,514127.39999997616,514127.2999999821,,514127.1999999881,,514133.096,8,400,,,
sequence,flow.Sequence,4_113,2023-09-12T19:49:41.725Z,,0,,,2609.822999982105,completion,,,,,false,,,,514127.5,514127.2999999821,511501.894,511512.7999999821,511517.477,514133.096,8,400,,,
trial,html.Screen,4_114_0,2023-09-12T19:49:44.614Z,,0,3,,2883.1039999880595,response,ISIC_5789994.JPG,12,ISIC_0013691.JPG,ISIC_5789994.JPG,false,1,keypress(m),500,517016.5,517016.1999999881,514117.641,514127.59999999404,514133.096,517032.247,8,400,15,,ISIC_0013691.JPG
break,html.Screen,4_114_1,2023-09-12T19:49:44.615Z,,0,,,NaN,,,,,,false,,,,517017.59999999404,517017.2999999821,,517016.7999999821,,517032.247,8,400,,,
break_continue,html.Screen,4_114_2,2023-09-12T19:49:44.615Z,,0,,,NaN,,,,,,false,,,,517017.89999997616,517017.89999997616,,517017.6999999881,,517032.247,8,400,,,
sequence,flow.Sequence,4_114,2023-09-12T19:49:44.615Z,,0,,,2884.8039999761386,completion,,,,,false,,,,517018,517017.89999997616,514117.641,514127.5,514133.096,517032.247,8,400,,,
trial,html.Screen,4_115_0,2023-09-12T19:49:47.213Z,,0,3,,2582.8529999940656,response,ISIC_5044438.JPG,6,ISIC_0031965.JPG,ISIC_0031965.JPG,false,0,keypress(z),500,519615.39999997616,519615.09999999404,517016.195,517018.09999999404,517032.247,519630.881,8,400,16,,ISIC_5044438.JPG
break,html.Screen,4_115_1,2023-09-12T19:49:47.214Z,,0,,,NaN,,,,,,false,,,,519616.59999999404,519616.09999999404,,519615.59999999404,,519630.881,8,400,,,
break_continue,html.Screen,4_115_2,2023-09-12T19:49:47.214Z,,0,,,NaN,,,,,,false,,,,519616.89999997616,519616.7999999821,,519616.6999999881,,519630.881,8,400,,,
sequence,flow.Sequence,4_115,2023-09-12T19:49:47.214Z,,0,,,2584.5529999821447,completion,,,,,false,,,,519617,519616.7999999821,517016.195,517018.09999999404,517032.247,519630.881,8,400,,,
trial,html.Screen,4_116_0,2023-09-12T19:49:49.942Z,,0,3,,2713.7189999940456,response,ISIC_0032094.JPG,12,ISIC_0438136.JPG,ISIC_0438136.JPG,false,0,keypress(z),500,522344.7999999821,522344.59999999404,519614.589,519617.09999999404,519630.881,522369.03,8,400,17,,ISIC_0032094.JPG
break,html.Screen,4_116_1,2023-09-12T19:49:49.943Z,,0,,,NaN,,,,,,false,,,,522346.09999999404,522345.7999999821,,522345.1999999881,,522369.03,8,400,,,
break_continue,html.Screen,4_116_2,2023-09-12T19:49:49.944Z,,0,,,NaN,,,,,,false,,,,522346.39999997616,522346.39999997616,,522346.09999999404,,522369.03,8,400,,,
sequence,flow.Sequence,4_116,2023-09-12T19:49:49.944Z,,0,,,2715.518999976164,completion,,,,,false,,,,522346.59999999404,522346.39999997616,519614.589,519617.09999999404,519630.881,522369.03,8,400,,,
trial,html.Screen,4_117_0,2023-09-12T19:49:52.730Z,,0,3,,2763.5699999940116,response,ISIC_3716504.JPG,7,ISIC_3646670.JPG,ISIC_3716504.JPG,false,1,keypress(m),500,525132.8999999762,525132.599999994,522330.24,522346.7999999821,522369.03,525145.338,8,400,18,,ISIC_3646670.JPG
break,html.Screen,4_117_1,2023-09-12T19:49:52.731Z,,0,,,NaN,,,,,,false,,,,525133.8999999762,525133.5,,525133.099999994,,525145.338,8,400,,,
break_continue,html.Screen,4_117_2,2023-09-12T19:49:52.732Z,,0,,,NaN,,,,,,false,,,,525134.1999999881,525134.099999994,,525133.8999999762,,525145.338,8,400,,,
sequence,flow.Sequence,4_117,2023-09-12T19:49:52.732Z,,0,,,2765.0699999940116,completion,,,,,false,,,,525134.2999999821,525134.099999994,522330.24,522346.6999999881,522369.03,525145.338,8,400,,,
trial,html.Screen,4_118_0,2023-09-12T19:49:55.413Z,,0,3,,2669.96199998213,response,ISIC_4544879.JPG,7,ISIC_0063295.JPG,ISIC_0063295.JPG,false,0,keypress(z),500,527815.599999994,527815.2999999821,525129.573,525134.3999999762,525145.338,527827.471,8,400,19,,ISIC_4544879.JPG
break,html.Screen,4_118_1,2023-09-12T19:49:55.414Z,,0,,,NaN,,,,,,false,,,,527816.6999999881,527816.3999999762,,527815.8999999762,,527827.471,8,400,,,
break_continue,html.Screen,4_118_2,2023-09-12T19:49:55.414Z,,0,,,NaN,,,,,,false,,,,527817,527817,,527816.7999999821,,527827.471,8,400,,,
sequence,flow.Sequence,4_118,2023-09-12T19:49:55.414Z,,0,,,2671.662000000011,completion,,,,,false,,,,527817.1999999881,527817,525129.573,525134.3999999762,525145.338,527827.471,8,400,,,
trial,html.Screen,4_119_0,2023-09-12T19:49:58.217Z,,0,3,,2792.328999982099,response,ISIC_6398669.JPG,8,ISIC_0193907.JPG,ISIC_6398669.JPG,false,1,keypress(m),500,530620,530619.7999999821,527812.282,527817.1999999881,527827.471,530626.37,8,400,20,,ISIC_0193907.JPG
break,html.Screen,4_119_1,2023-09-12T19:49:58.218Z,,0,,,NaN,,,,,,false,,,,530620.8999999762,530620.6999999881,,530620.1999999881,,530626.37,8,400,,,
break_continue,html.Screen,4_119_2,2023-09-12T19:49:58.219Z,,0,,,NaN,,,,,,false,,,,530621.1999999881,530621.099999994,,530621,,530626.37,8,400,,,
sequence,flow.Sequence,4_119,2023-09-12T19:49:58.219Z,,0,,,2793.62899999402,completion,,,,,false,,,,530621.3999999762,530621.099999994,527812.282,527817.1999999881,527827.471,530626.37,8,400,,,
trial,html.Screen,4_120_0,2023-09-12T19:50:01.985Z,,0,3,,3761.029999976163,response,ISIC_3256116.JPG,10,ISIC_0033419.JPG,ISIC_0033419.JPG,false,0,keypress(z),500,534387.6999999881,534387.3999999762,530610.03,530621.5,530626.37,534391.714,8,400,21,,ISIC_3256116.JPG
break,html.Screen,4_120_1,2023-09-12T19:50:01.986Z,,0,,,NaN,,,,,,false,,,,534389.099999994,534388.6999999881,,534388,,534391.714,8,400,,,
break_continue,html.Screen,4_120_2,2023-09-12T19:50:01.987Z,,0,,,NaN,,,,,,false,,,,534389.3999999762,534389.2999999821,,534389.099999994,,534391.714,8,400,,,
sequence,flow.Sequence,4_120,2023-09-12T19:50:01.987Z,,0,,,3762.9299999821233,completion,,,,,false,,,,534389.599999994,534389.2999999821,530610.03,530621.3999999762,530626.37,534391.714,8,400,,,
trial,html.Screen,4_121_0,2023-09-12T19:50:04.480Z,,0,3,,2490.9859999880427,response,ISIC_3028754.JPG,8,ISIC_0011958.JPG,ISIC_0011958.JPG,false,0,keypress(z),500,536883,536882.6999999881,534375.822,534389.599999994,534391.714,536891.051,8,400,22,,ISIC_3028754.JPG
break,html.Screen,4_121_1,2023-09-12T19:50:04.481Z,,0,,,NaN,,,,,,false,,,,536883.8999999762,536883.6999999881,,536883.099999994,,536891.051,8,400,,,
break_continue,html.Screen,4_121_2,2023-09-12T19:50:04.482Z,,0,,,NaN,,,,,,false,,,,536884.2999999821,536884.099999994,,536884.099999994,,536891.051,8,400,,,
sequence,flow.Sequence,4_121,2023-09-12T19:50:04.482Z,,0,,,2492.385999994003,completion,,,,,false,,,,536884.3999999762,536884.099999994,534375.822,534389.599999994,534391.714,536891.051,8,400,,,
trial,html.Screen,4_122_0,2023-09-12T19:50:07.816Z,,0,3,,3327.048999994062,response,ISIC_0027149.JPG,6,ISIC_7424320.JPG,ISIC_0027149.JPG,false,1,keypress(m),500,540218.3999999762,540218.099999994,536875.04,536884.5,536891.051,540222.472,8,400,23,,ISIC_7424320.JPG
break,html.Screen,4_122_1,2023-09-12T19:50:07.817Z,,0,,,NaN,,,,,,false,,,,540219.5,540219.099999994,,540218.599999994,,540222.472,8,400,,,
break_continue,html.Screen,4_122_2,2023-09-12T19:50:07.817Z,,0,,,NaN,,,,,,false,,,,540219.6999999881,540219.6999999881,,540219.5,,540222.472,8,400,,,
sequence,flow.Sequence,4_122,2023-09-12T19:50:07.817Z,,0,,,3328.6489999881014,completion,,,,,false,,,,540219.7999999821,540219.6999999881,536875.04,536884.5,536891.051,540222.472,8,400,,,
trial,html.Screen,4_123_0,2023-09-12T19:50:10.626Z,,0,3,,2806.327999982168,response,ISIC_8355344.JPG,9,ISIC_7052658.JPG,ISIC_8355344.JPG,false,1,keypress(m),500,543029.1999999881,543028.7999999821,540203.752,540219.8999999762,540222.472,543038.408,8,400,24,,ISIC_7052658.JPG
break,html.Screen,4_123_1,2023-09-12T19:50:10.627Z,,0,,,NaN,,,,,,false,,,,543030.099999994,543029.7999999821,,543029.2999999821,,543038.408,8,400,,,
break_continue,html.Screen,4_123_2,2023-09-12T19:50:10.628Z,,0,,,NaN,,,,,,false,,,,543030.3999999762,543030.2999999821,,543030.1999999881,,543038.408,8,400,,,
sequence,flow.Sequence,4_123,2023-09-12T19:50:10.628Z,,0,,,2807.827999982168,completion,,,,,false,,,,543030.6999999881,543030.2999999821,540203.752,540219.8999999762,540222.472,543038.408,8,400,,,
trial,html.Screen,4_124_0,2023-09-12T19:50:13.369Z,,0,3,,2733.6919999939855,response,ISIC_0000292.JPG,7,ISIC_0597218.JPG,ISIC_0597218.JPG,false,0,keypress(z),500,545772.2999999821,545772.099999994,543022.008,543030.6999999881,543038.408,545787.206,8,400,25,,ISIC_0000292.JPG
break,html.Screen,4_124_1,2023-09-12T19:50:13.370Z,,0,,,NaN,,,,,,false,,,,545773.3999999762,545773.099999994,,545772.5,,545787.206,8,400,,,
break_continue,html.Screen,4_124_2,2023-09-12T19:50:13.371Z,,0,,,NaN,,,,,,false,,,,545773.6999999881,545773.599999994,,545773.5,,545787.206,8,400,,,
sequence,flow.Sequence,4_124,2023-09-12T19:50:13.371Z,,0,,,2735.1919999939855,completion,,,,,false,,,,545773.8999999762,545773.599999994,543022.008,543030.6999999881,543038.408,545787.206,8,400,,,
trial,html.Screen,4_125_0,2023-09-12T19:50:18.199Z,,0,3,,4814.593999982113,response,ISIC_0027507.JPG,11,ISIC_1135213.JPG,ISIC_1135213.JPG,false,0,keypress(z),500,550602.099999994,550601.7999999821,545770.788,545774,545787.206,550618.186,8,400,26,,ISIC_0027507.JPG
break,html.Screen,4_125_1,2023-09-12T19:50:18.200Z,,0,,,NaN,,,,,,false,,,,550603.099999994,550602.599999994,,550602.1999999881,,550618.186,8,400,,,
