sender,sender_type,sender_id,timestamp,meta,,blockNo,condition,duration,ended_on,img_left,img_reveal,img_right,loser,practice,response,response_action,selection_duration,time_commit,time_end,time_render,time_run,time_show,time_switch,total_blocks,total_trials,trialNo,url,winner
informed_consent,html.Screen,0,2023-05-03T18:15:19.175Z,"{""labjs_version"":""20.2.4"",""labjs_build"":{""flavor"":""production"",""commit"":""f5b4a49f956347addd546a832a3327688c2c0fef""},""location"":""https://run.pavlovia.org/MurrayBennett/melanoma-2afc/?participant=65245"",""userAgent"":""Mozilla/5.0 (Macintosh; Intel Mac OS X 10_15_7) AppleWebKit/605.1.15 (KHTML, like Gecko) Version/15.5 Safari/605.1.15"",""platform"":""MacIntel"",""language"":""en-US"",""locale"":""en-US"",""timeZone"":""America/Chicago"",""timezoneOffset"":300,""screen_width"":1440,""screen_height"":900,""scroll_width"":1440,""scroll_height"":772,""window_innerWidth"":1440,""window_innerHeight"":820,""devicePixelRatio"":2}",,,,3159,response,,,,,,consent,click button,,5182,5207,2048,2043.0000000000002,2062,5204,,,,"{""participant"":""65245""}",
Welcome,html.Screen,1,2023-05-03T18:15:21.790Z,,,,regular,2631,response,,,,,,continue,click button,,7797.000000000001,7820,5189,5182,5204,7821,,,,,
trial,html.Screen,2_0_0,2023-05-03T18:15:33.292Z,,0,0,,11508,timeout,ISIC_0061792.JPG,,ISIC_4679428.JPG,,true,,,500,19300,19300,7804,7798,7821,19329,1,6,1,,
sequence,flow.Sequence,2_0,2023-05-03T18:15:33.293Z,,0,,,11479,completion,,,,,true,,,,19301.000000000004,19300,7804,7798,7821,19329,1,6,,,
trial,html.Screen,2_1_0,2023-05-03T18:15:44.814Z,,0,0,,11525,timeout,ISIC_0776486.JPG,,ISIC_5199497.JPG,ISIC_0776486.JPG,true,,,500,30822,30821,19313,19301.000000000004,19329,30854,1,6,2,,ISIC_5199497.JPG
sequence,flow.Sequence,2_1,2023-05-03T18:15:44.815Z,,0,,,11492,completion,,,,,true,,,,30822,30821,19313,19301.000000000004,19329,30854,1,6,,,
trial,html.Screen,2_2_0,2023-05-03T18:15:47.995Z,,0,0,,3165,response,ISIC_2556187.JPG,,ISIC_8575776.JPG,ISIC_8575776.JPG,true,0,keypress(z),500,34003,34003,30838,30823,30854,34029,1,6,3,,ISIC_2556187.JPG
sequence,flow.Sequence,2_2,2023-05-03T18:15:47.996Z,,0,,,3149,completion,,,,,true,,,,34004,34003,30838,30823,30854,34029,1,6,,,
trial,html.Screen,2_3_0,2023-05-03T18:15:50.352Z,,0,0,,2346,response,ISIC_8141769.JPG,,ISIC_9238366.JPG,ISIC_8141769.JPG,true,1,keypress(m),500,36359,36359,34013,34004,34029,36396,1,6,4,,ISIC_9238366.JPG
sequence,flow.Sequence,2_3,2023-05-03T18:15:50.352Z,,0,,,2330,completion,,,,,true,,,,36360,36359,34013,34004,34029,36396,1,6,,,
trial,html.Screen,2_4_0,2023-05-03T18:15:52.732Z,,0,0,,2360.0000000000073,response,ISIC_8949026.JPG,,ISIC_9959593.JPG,ISIC_9959593.JPG,true,0,keypress(z),500,38740,38739.00000000001,36379,36360,36396,38763,1,6,5,,ISIC_8949026.JPG
sequence,flow.Sequence,2_4,2023-05-03T18:15:52.732Z,,0,,,2343.0000000000073,completion,,,,,true,,,,38740,38739.00000000001,36379,36360,36396,38763,1,6,,,
trial,html.Screen,2_5_0,2023-05-03T18:15:55.063Z,,0,0,,2325,response,ISIC_0010479.JPG,,ISIC_0460240.JPG,ISIC_0010479.JPG,true,1,keypress(m),500,41071,41070,38745,38740,38763,41096,1,6,6,,ISIC_0460240.JPG
sequence,flow.Sequence,2_5,2023-05-03T18:15:55.063Z,,0,,,2307,completion,,,,,true,,,,41071,41070,38745,38740,38763,41096,1,6,,,
loop,flow.Loop,2,2023-05-03T18:15:55.064Z,,,,,33249,completion,,,,,true,,,,41072,41070,7804,7798,7821,41096,1,6,,,
exp_instructions,html.Screen,3,2023-05-03T18:16:00.645Z,,,,,5598,response,,,,,,continue,keypress(Space),,46653,46677,41079,41072,41096,46679,,,,,
trial,html.Screen,4_0_0,2023-05-03T18:16:05.090Z,,0,1,,4434,response,ISIC_3503213.JPG,,ISIC_7888672.JPG,ISIC_3503213.JPG,false,1,keypress(m),500,51098,51097,46663,46653,46679,51129,8,400,1,,ISIC_7888672.JPG
break,html.Screen,4_0_1,2023-05-03T18:16:05.091Z,,0,,,NaN,,,,,,false,,,,51099.00000000001,51099.00000000001,,51098,,51129,8,400,,,
break_continue,html.Screen,4_0_2,2023-05-03T18:16:05.091Z,,0,,,NaN,,,,,,false,,,,51099.00000000001,51099.00000000001,,51099.00000000001,,51129,8,400,,,
sequence,flow.Sequence,4_0,2023-05-03T18:16:05.092Z,,0,,,4420.000000000007,completion,,,,,false,,,,51100,51099.00000000001,46663,46653,46679,51129,8,400,,,
trial,html.Screen,4_1_0,2023-05-03T18:16:08.386Z,,0,1,,3280,response,ISIC_0007740.JPG,,ISIC_0032699.JPG,ISIC_0032699.JPG,false,0,keypress(z),500,54394,54393,51113,51100,51129,54429,8,400,2,,ISIC_0007740.JPG
break,html.Screen,4_1_1,2023-05-03T18:16:08.387Z,,0,,,NaN,,,,,,false,,,,54395,54394,,54394,,54429,8,400,,,
break_continue,html.Screen,4_1_2,2023-05-03T18:16:08.388Z,,0,,,NaN,,,,,,false,,,,54396,54396,,54395,,54429,8,400,,,
sequence,flow.Sequence,4_1,2023-05-03T18:16:08.388Z,,0,,,3267,completion,,,,,false,,,,54396,54396,51113,51100,51129,54429,8,400,,,
trial,html.Screen,4_2_0,2023-05-03T18:16:11.214Z,,0,1,,2808,response,ISIC_0028759.JPG,,ISIC_0067308.JPG,ISIC_0067308.JPG,false,0,keypress(z),500,57222,57221,54413,54396,54429,57246,8,400,3,,ISIC_0028759.JPG
break,html.Screen,4_2_1,2023-05-03T18:16:11.215Z,,0,,,NaN,,,,,,false,,,,57223,57223,,57222,,57246,8,400,,,
break_continue,html.Screen,4_2_2,2023-05-03T18:16:11.216Z,,0,,,NaN,,,,,,false,,,,57223,57223,,57223,,57246,8,400,,,
sequence,flow.Sequence,4_2,2023-05-03T18:16:11.216Z,,0,,,2794,completion,,,,,false,,,,57224.00000000001,57223,54413,54396,54429,57246,8,400,,,
trial,html.Screen,4_3_0,2023-05-03T18:16:13.925Z,,0,1,,2703,response,ISIC_5347806.JPG,,ISIC_7045042.JPG,ISIC_7045042.JPG,false,0,keypress(z),500,59933,59932,57229,57224.00000000001,57246,59962,8,400,4,,ISIC_5347806.JPG
break,html.Screen,4_3_1,2023-05-03T18:16:13.926Z,,0,,,NaN,,,,,,false,,,,59934.00000000001,59934.00000000001,,59934.00000000001,,59962,8,400,,,
break_continue,html.Screen,4_3_2,2023-05-03T18:16:13.927Z,,0,,,NaN,,,,,,false,,,,59935,59935,,59935,,59962,8,400,,,
sequence,flow.Sequence,4_3,2023-05-03T18:16:13.927Z,,0,,,2689,completion,,,,,false,,,,59935,59935,57229,57224.00000000001,57246,59962,8,400,,,
trial,html.Screen,4_4_0,2023-05-03T18:16:16.715Z,,0,1,,2776,response,ISIC_0012887.JPG,,ISIC_0034087.JPG,ISIC_0034087.JPG,false,0,keypress(z),500,62723,62722,59946,59935,59962,62746,8,400,5,,ISIC_0012887.JPG
break,html.Screen,4_4_1,2023-05-03T18:16:16.716Z,,0,,,NaN,,,,,,false,,,,62724.00000000001,62724.00000000001,,62723,,62746,8,400,,,
break_continue,html.Screen,4_4_2,2023-05-03T18:16:16.717Z,,0,,,NaN,,,,,,false,,,,62725,62725,,62725,,62746,8,400,,,
sequence,flow.Sequence,4_4,2023-05-03T18:16:16.717Z,,0,,,2763,completion,,,,,false,,,,62725,62725,59946,59935,59962,62746,8,400,,,
trial,html.Screen,4_5_0,2023-05-03T18:16:19.148Z,,0,1,,2427.0000000000073,response,ISIC_6269414.JPG,,ISIC_4097868.JPG,ISIC_6269414.JPG,false,1,keypress(m),500,65156.00000000001,65156.00000000001,62729,62726,62746,65179,8,400,6,,ISIC_4097868.JPG
break,html.Screen,4_5_1,2023-05-03T18:16:19.149Z,,0,,,NaN,,,,,,false,,,,65157,65157,,65156.00000000001,,65179,8,400,,,
break_continue,html.Screen,4_5_2,2023-05-03T18:16:19.149Z,,0,,,NaN,,,,,,false,,,,65157,65157,,65157,,65179,8,400,,,
sequence,flow.Sequence,4_5,2023-05-03T18:16:19.150Z,,0,,,2411,completion,,,,,false,,,,65157,65157,62729,62725,62746,65179,8,400,,,
trial,html.Screen,4_6_0,2023-05-03T18:16:30.663Z,,0,1,,11526,timeout,ISIC_0053469.JPG,,ISIC_3181358.JPG,ISIC_0053469.JPG,false,,,500,76671,76670,65162,65158,65179,76705,8,400,7,,ISIC_3181358.JPG
break,html.Screen,4_6_1,2023-05-03T18:16:30.664Z,,0,,,NaN,,,,,,false,,,,76672,76672,,76671,,76705,8,400,,,
break_continue,html.Screen,4_6_2,2023-05-03T18:16:30.664Z,,0,,,NaN,,,,,,false,,,,76672,76672,,76672,,76705,8,400,,,
sequence,flow.Sequence,4_6,2023-05-03T18:16:30.665Z,,0,,,11493,completion,,,,,false,,,,76673,76672,65162,65158,65179,76705,8,400,,,
trial,html.Screen,4_7_0,2023-05-03T18:16:33.394Z,,0,1,,2715,response,ISIC_4867043.JPG,,ISIC_0055054.JPG,ISIC_0055054.JPG,false,0,keypress(z),500,79402,79402,76687,76673,76705,79430,8,400,8,,ISIC_4867043.JPG
break,html.Screen,4_7_1,2023-05-03T18:16:33.396Z,,0,,,NaN,,,,,,false,,,,79404,79403,,79403,,79430,8,400,,,
break_continue,html.Screen,4_7_2,2023-05-03T18:16:33.396Z,,0,,,NaN,,,,,,false,,,,79404,79404,,79404,,79430,8,400,,,
sequence,flow.Sequence,4_7,2023-05-03T18:16:33.396Z,,0,,,2699,completion,,,,,false,,,,79404,79404,76687,76673,76705,79430,8,400,,,
trial,html.Screen,4_8_0,2023-05-03T18:16:36.152Z,,0,1,,2747,response,ISIC_7097665.JPG,,ISIC_0034164.JPG,ISIC_0034164.JPG,false,0,keypress(z),500,82160,82160,79413,79405,79430,82196,8,400,9,,ISIC_7097665.JPG
break,html.Screen,4_8_1,2023-05-03T18:16:36.153Z,,0,,,NaN,,,,,,false,,,,82161,82161,,82161,,82196,8,400,,,
break_continue,html.Screen,4_8_2,2023-05-03T18:16:36.154Z,,0,,,NaN,,,,,,false,,,,82162,82162,,82162,,82196,8,400,,,
sequence,flow.Sequence,4_8,2023-05-03T18:16:36.154Z,,0,,,2732,completion,,,,,false,,,,82162,82162,79413,79405,79430,82196,8,400,,,
trial,html.Screen,4_9_0,2023-05-03T18:16:39.396Z,,0,1,,3225,response,ISIC_0000139.JPG,,ISIC_7984080.JPG,ISIC_0000139.JPG,false,1,keypress(m),500,85404,85404,82179,82162,82196,85430,8,400,10,,ISIC_7984080.JPG
break,html.Screen,4_9_1,2023-05-03T18:16:39.397Z,,0,,,NaN,,,,,,false,,,,85405,85405,,85405,,85430,8,400,,,
break_continue,html.Screen,4_9_2,2023-05-03T18:16:39.398Z,,0,,,NaN,,,,,,false,,,,85406,85406,,85406,,85430,8,400,,,
sequence,flow.Sequence,4_9,2023-05-03T18:16:39.398Z,,0,,,3210,completion,,,,,false,,,,85406,85406,82179,82162,82196,85430,8,400,,,
trial,html.Screen,4_10_0,2023-05-03T18:16:42.452Z,,0,1,,3047.0000000000146,response,ISIC_2733043.JPG,,ISIC_5879418.JPG,ISIC_2733043.JPG,false,1,keypress(m),500,88461,88460.00000000001,85413,85406,85430,88496,8,400,11,,ISIC_5879418.JPG
break,html.Screen,4_10_1,2023-05-03T18:16:42.454Z,,0,,,NaN,,,,,,false,,,,88462,88461,,88461,,88496,8,400,,,
break_continue,html.Screen,4_10_2,2023-05-03T18:16:42.454Z,,0,,,NaN,,,,,,false,,,,88462,88462,,88462,,88496,8,400,,,
sequence,flow.Sequence,4_10,2023-05-03T18:16:42.454Z,,0,,,3032,completion,,,,,false,,,,88462,88462,85413,85406,85430,88496,8,400,,,
trial,html.Screen,4_11_0,2023-05-03T18:16:45.339Z,,0,1,,2867.0000000000146,response,ISIC_7981097.JPG,,ISIC_0013052.JPG,ISIC_7981097.JPG,false,1,keypress(m),500,91347.00000000001,91347.00000000001,88480,88463.00000000001,88496,91380,8,400,12,,ISIC_0013052.JPG
break,html.Screen,4_11_1,2023-05-03T18:16:45.340Z,,0,,,NaN,,,,,,false,,,,91348,91348,,91348,,91380,8,400,,,
break_continue,html.Screen,4_11_2,2023-05-03T18:16:45.341Z,,0,,,NaN,,,,,,false,,,,91349,91349,,91349,,91380,8,400,,,
sequence,flow.Sequence,4_11,2023-05-03T18:16:45.341Z,,0,,,2853,completion,,,,,false,,,,91349,91349,88480,88462,88496,91380,8,400,,,
trial,html.Screen,4_12_0,2023-05-03T18:16:48.112Z,,0,1,,2756,response,ISIC_0027152.JPG,,ISIC_1155782.JPG,ISIC_0027152.JPG,false,1,keypress(m),500,94120,94119,91363,91349,91380,94146,8,400,13,,ISIC_1155782.JPG
break,html.Screen,4_12_1,2023-05-03T18:16:48.113Z,,0,,,NaN,,,,,,false,,,,94121,94120,,94120,,94146,8,400,,,
break_continue,html.Screen,4_12_2,2023-05-03T18:16:48.113Z,,0,,,NaN,,,,,,false,,,,94121,94121,,94121,,94146,8,400,,,
sequence,flow.Sequence,4_12,2023-05-03T18:16:48.113Z,,0,,,2741,completion,,,,,false,,,,94121,94121,91363,91349,91380,94146,8,400,,,
trial,html.Screen,4_13_0,2023-05-03T18:16:50.610Z,,0,1,,2489,response,ISIC_0067733.JPG,,ISIC_0011313.JPG,ISIC_0067733.JPG,false,1,keypress(m),500,96618,96618,94129,94121,94146,96646,8,400,14,,ISIC_0011313.JPG
break,html.Screen,4_13_1,2023-05-03T18:16:50.611Z,,0,,,NaN,,,,,,false,,,,96619,96619,,96619,,96646,8,400,,,
break_continue,html.Screen,4_13_2,2023-05-03T18:16:50.612Z,,0,,,NaN,,,,,,false,,,,96620,96620,,96620,,96646,8,400,,,
sequence,flow.Sequence,4_13,2023-05-03T18:16:50.612Z,,0,,,2474,completion,,,,,false,,,,96620,96620,94129,94121,94146,96646,8,400,,,
trial,html.Screen,4_14_0,2023-05-03T18:16:53.299Z,,0,1,,2677,response,ISIC_2124148.JPG,,ISIC_0032005.JPG,ISIC_0032005.JPG,false,0,keypress(z),500,99307,99307,96630,96620,96646,99329,8,400,15,,ISIC_2124148.JPG
break,html.Screen,4_14_1,2023-05-03T18:16:53.300Z,,0,,,NaN,,,,,,false,,,,99308,99308,,99307,,99329,8,400,,,
break_continue,html.Screen,4_14_2,2023-05-03T18:16:53.300Z,,0,,,NaN,,,,,,false,,,,99309,99308,,99308,,99329,8,400,,,
sequence,flow.Sequence,4_14,2023-05-03T18:16:53.301Z,,0,,,2662,completion,,,,,false,,,,99309,99308,96630,96620,96646,99329,8,400,,,
trial,html.Screen,4_15_0,2023-05-03T18:16:55.951Z,,0,1,,2645,response,ISIC_9241599.JPG,,ISIC_5884700.JPG,ISIC_9241599.JPG,false,1,keypress(m),500,101959,101958,99313,99309,99329,101980,8,400,16,,ISIC_5884700.JPG
break,html.Screen,4_15_1,2023-05-03T18:16:55.952Z,,0,,,NaN,,,,,,false,,,,101960.00000000001,101960.00000000001,,101959,,101980,8,400,,,
break_continue,html.Screen,4_15_2,2023-05-03T18:16:55.952Z,,0,,,NaN,,,,,,false,,,,101960.00000000001,101960.00000000001,,101960.00000000001,,101980,8,400,,,
sequence,flow.Sequence,4_15,2023-05-03T18:16:55.952Z,,0,,,2631.0000000000146,completion,,,,,false,,,,101960.00000000001,101960.00000000001,99313,99309,99329,101980,8,400,,,
trial,html.Screen,4_16_0,2023-05-03T18:16:58.659Z,,0,1,,2704,response,ISIC_7503950.JPG,,ISIC_0027193.JPG,ISIC_0027193.JPG,false,0,keypress(z),500,104667,104667,101963,101961,101980,104696,8,400,17,,ISIC_7503950.JPG
break,html.Screen,4_16_1,2023-05-03T18:16:58.660Z,,0,,,NaN,,,,,,false,,,,104668,104668,,104667,,104696,8,400,,,
break_continue,html.Screen,4_16_2,2023-05-03T18:16:58.660Z,,0,,,NaN,,,,,,false,,,,104668,104668,,104668,,104696,8,400,,,
sequence,flow.Sequence,4_16,2023-05-03T18:16:58.660Z,,0,,,2688,completion,,,,,false,,,,104669,104668,101963,101961,101980,104696,8,400,,,
trial,html.Screen,4_17_0,2023-05-03T18:17:01.236Z,,0,1,,2563.0000000000146,response,ISIC_0067027.JPG,,ISIC_5485661.JPG,ISIC_5485661.JPG,false,0,keypress(z),500,107244,107243.00000000001,104680,104669,104696,107263,8,400,18,,ISIC_0067027.JPG
break,html.Screen,4_17_1,2023-05-03T18:17:01.237Z,,0,,,NaN,,,,,,false,,,,107245,107245,,107244,,107263,8,400,,,
break_continue,html.Screen,4_17_2,2023-05-03T18:17:01.237Z,,0,,,NaN,,,,,,false,,,,107245,107245,,107245,,107263,8,400,,,
sequence,flow.Sequence,4_17,2023-05-03T18:17:01.237Z,,0,,,2549,completion,,,,,false,,,,107246.00000000001,107245,104680,104669,104696,107263,8,400,,,
trial,html.Screen,4_18_0,2023-05-03T18:17:03.996Z,,0,1,,2756,response,ISIC_0031034.JPG,,ISIC_2987630.JPG,ISIC_0031034.JPG,false,1,keypress(m),500,110004,110003,107247,107246.00000000001,107263,110030,8,400,19,,ISIC_2987630.JPG
break,html.Screen,4_18_1,2023-05-03T18:17:03.997Z,,0,,,NaN,,,,,,false,,,,110005,110005,,110004,,110030,8,400,,,
break_continue,html.Screen,4_18_2,2023-05-03T18:17:03.997Z,,0,,,NaN,,,,,,false,,,,110005,110005,,110005,,110030,8,400,,,
sequence,flow.Sequence,4_18,2023-05-03T18:17:03.997Z,,0,,,2742,completion,,,,,false,,,,110005,110005,107247,107246.00000000001,107263,110030,8,400,,,
trial,html.Screen,4_19_0,2023-05-03T18:17:06.637Z,,0,1,,2633,response,ISIC_4640293.JPG,,ISIC_0027436.JPG,ISIC_0027436.JPG,false,0,keypress(z),500,112646,112645,110012,110005,110030,112671,8,400,20,,ISIC_4640293.JPG
break,html.Screen,4_19_1,2023-05-03T18:17:06.639Z,,0,,,NaN,,,,,,false,,,,112647,112647,,112646,,112671,8,400,,,
break_continue,html.Screen,4_19_2,2023-05-03T18:17:06.639Z,,0,,,NaN,,,,,,false,,,,112647,112647,,112647,,112671,8,400,,,
sequence,flow.Sequence,4_19,2023-05-03T18:17:06.639Z,,0,,,2617,completion,,,,,false,,,,112647,112647,110012,110005,110030,112671,8,400,,,
trial,html.Screen,4_20_0,2023-05-03T18:17:09.325Z,,0,1,,2678,response,ISIC_1473522.JPG,,ISIC_6741865.JPG,ISIC_1473522.JPG,false,1,keypress(m),500,115334,115333,112655,112648,112671,115363,8,400,21,,ISIC_6741865.JPG
break,html.Screen,4_20_1,2023-05-03T18:17:09.327Z,,0,,,NaN,,,,,,false,,,,115335.00000000001,115335.00000000001,,115334,,115363,8,400,,,
break_continue,html.Screen,4_20_2,2023-05-03T18:17:09.327Z,,0,,,NaN,,,,,,false,,,,115335.00000000001,115335.00000000001,,115335.00000000001,,115363,8,400,,,
sequence,flow.Sequence,4_20,2023-05-03T18:17:09.327Z,,0,,,2664.0000000000146,completion,,,,,false,,,,115335.00000000001,115335.00000000001,112655,112647,112671,115363,8,400,,,
trial,html.Screen,4_21_0,2023-05-03T18:17:12.161Z,,0,1,,2819,response,ISIC_1247683.JPG,,ISIC_2772066.JPG,ISIC_1247683.JPG,false,1,keypress(m),500,118169,118165,115346,115336,115363,118196,8,400,22,,ISIC_2772066.JPG
break,html.Screen,4_21_1,2023-05-03T18:17:12.162Z,,0,,,NaN,,,,,,false,,,,118170,118170,,118170,,118196,8,400,,,
break_continue,html.Screen,4_21_2,2023-05-03T18:17:12.163Z,,0,,,NaN,,,,,,false,,,,118171,118171,,118171,,118196,8,400,,,
sequence,flow.Sequence,4_21,2023-05-03T18:17:12.163Z,,0,,,2808,completion,,,,,false,,,,118171,118171,115346,115336,115363,118196,8,400,,,
trial,html.Screen,4_22_0,2023-05-03T18:17:14.737Z,,0,1,,2564,response,ISIC_0071707.JPG,,ISIC_3590814.JPG,ISIC_0071707.JPG,false,1,keypress(m),500,120745,120744,118180,118171,118196,120780,8,400,23,,ISIC_3590814.JPG
break,html.Screen,4_22_1,2023-05-03T18:17:14.738Z,,0,,,NaN,,,,,,false,,,,120746.00000000001,120746.00000000001,,120745,,120780,8,400,,,
break_continue,html.Screen,4_22_2,2023-05-03T18:17:14.738Z,,0,,,NaN,,,,,,false,,,,120747,120746.00000000001,,120746.00000000001,,120780,8,400,,,
sequence,flow.Sequence,4_22,2023-05-03T18:17:14.739Z,,0,,,2550.0000000000146,completion,,,,,false,,,,120747,120746.00000000001,118180,118171,118196,120780,8,400,,,
trial,html.Screen,4_23_0,2023-05-03T18:17:17.432Z,,0,1,,2676,response,ISIC_7284399.JPG,,ISIC_8363485.JPG,ISIC_7284399.JPG,false,1,keypress(m),500,123440,123439,120763,120747,120780,123463,8,400,24,,ISIC_8363485.JPG
break,html.Screen,4_23_1,2023-05-03T18:17:17.433Z,,0,,,NaN,,,,,,false,,,,123441,123441,,123440,,123463,8,400,,,
break_continue,html.Screen,4_23_2,2023-05-03T18:17:17.433Z,,0,,,NaN,,,,,,false,,,,123441,123441,,123441,,123463,8,400,,,
sequence,flow.Sequence,4_23,2023-05-03T18:17:17.433Z,,0,,,2661,completion,,,,,false,,,,123441,123441,120763,120747,120780,123463,8,400,,,
trial,html.Screen,4_24_0,2023-05-03T18:17:20.463Z,,0,1,,3026,response,ISIC_7567699.JPG,,ISIC_0028976.JPG,ISIC_7567699.JPG,false,1,keypress(m),500,126472.00000000001,126471,123445,123442,123463,126496,8,400,25,,ISIC_0028976.JPG
break,html.Screen,4_24_1,2023-05-03T18:17:20.464Z,,0,,,NaN,,,,,,false,,,,126473,126472.00000000001,,126472.00000000001,,126496,8,400,,,
break_continue,html.Screen,4_24_2,2023-05-03T18:17:20.465Z,,0,,,NaN,,,,,,false,,,,126473,126473,,126473,,126496,8,400,,,
sequence,flow.Sequence,4_24,2023-05-03T18:17:20.465Z,,0,,,3010,completion,,,,,false,,,,126473,126473,123445,123442,123463,126496,8,400,,,
trial,html.Screen,4_25_0,2023-05-03T18:17:23.209Z,,0,1,,2738.0000000000146,response,ISIC_0030592.JPG,,ISIC_6174156.JPG,ISIC_0030592.JPG,false,1,keypress(m),500,129217.00000000001,129217.00000000001,126479,126473,126496,129246,8,400,26,,ISIC_6174156.JPG
break,html.Screen,4_25_1,2023-05-03T18:17:23.210Z,,0,,,NaN,,,,,,false,,,,129217.99999999999,129217.99999999999,,129217.99999999999,,129246,8,400,,,
break_continue,html.Screen,4_25_2,2023-05-03T18:17:23.211Z,,0,,,NaN,,,,,,false,,,,129219,129219,,129219,,129246,8,400,,,
sequence,flow.Sequence,4_25,2023-05-03T18:17:23.211Z,,0,,,2723,completion,,,,,false,,,,129219,129219,126479,126473,126496,129246,8,400,,,
trial,html.Screen,4_26_0,2023-05-03T18:17:25.767Z,,0,1,,2545,response,ISIC_5410481.JPG,,ISIC_2843983.JPG,ISIC_5410481.JPG,false,1,keypress(m),500,131775,131775,129230,129220,129246,131796,8,400,27,,ISIC_2843983.JPG
break,html.Screen,4_26_1,2023-05-03T18:17:25.768Z,,0,,,NaN,,,,,,false,,,,131776,131776,,131775,,131796,8,400,,,
break_continue,html.Screen,4_26_2,2023-05-03T18:17:25.768Z,,0,,,NaN,,,,,,false,,,,131776,131776,,131776,,131796,8,400,,,
sequence,flow.Sequence,4_26,2023-05-03T18:17:25.768Z,,0,,,2530,completion,,,,,false,,,,131776,131776,129230,129219,129246,131796,8,400,,,
trial,html.Screen,4_27_0,2023-05-03T18:17:28.428Z,,0,1,,2656,response,ISIC_0065421.JPG,,ISIC_0027234.JPG,ISIC_0065421.JPG,false,1,keypress(m),500,134436,134436,131780,131776,131796,134463,8,400,28,,ISIC_0027234.JPG
break,html.Screen,4_27_1,2023-05-03T18:17:28.429Z,,0,,,NaN,,,,,,false,,,,134437,134437,,134436,,134463,8,400,,,
break_continue,html.Screen,4_27_2,2023-05-03T18:17:28.429Z,,0,,,NaN,,,,,,false,,,,134438.00000000003,134437,,134437,,134463,8,400,,,
sequence,flow.Sequence,4_27,2023-05-03T18:17:28.429Z,,0,,,2641,completion,,,,,false,,,,134438.00000000003,134437,131780,131776,131796,134463,8,400,,,
trial,html.Screen,4_28_0,2023-05-03T18:17:30.918Z,,0,1,,2480.000000000029,response,ISIC_1265382.JPG,,ISIC_8637134.JPG,ISIC_1265382.JPG,false,1,keypress(m),500,136927,136926.00000000003,134446,134438.00000000003,134463,136946,8,400,29,,ISIC_8637134.JPG
break,html.Screen,4_28_1,2023-05-03T18:17:30.919Z,,0,,,NaN,,,,,,false,,,,136928,136927,,136927,,136946,8,400,,,
break_continue,html.Screen,4_28_2,2023-05-03T18:17:30.920Z,,0,,,NaN,,,,,,false,,,,136928,136928,,136928,,136946,8,400,,,
sequence,flow.Sequence,4_28,2023-05-03T18:17:30.920Z,,0,,,2465,completion,,,,,false,,,,136928,136928,134446,134438.00000000003,134463,136946,8,400,,,
trial,html.Screen,4_29_0,2023-05-03T18:17:33.457Z,,0,1,,2535,response,ISIC_5714285.JPG,,ISIC_0325771.JPG,ISIC_0325771.JPG,false,0,keypress(z),500,139465,139465,136930,136928,136946,139496,8,400,30,,ISIC_5714285.JPG
break,html.Screen,4_29_1,2023-05-03T18:17:33.458Z,,0,,,NaN,,,,,,false,,,,139466,139466,,139465,,139496,8,400,,,
break_continue,html.Screen,4_29_2,2023-05-03T18:17:33.458Z,,0,,,NaN,,,,,,false,,,,139467,139466,,139466,,139496,8,400,,,
sequence,flow.Sequence,4_29,2023-05-03T18:17:33.458Z,,0,,,2520,completion,,,,,false,,,,139467,139466,136930,136928,136946,139496,8,400,,,
trial,html.Screen,4_30_0,2023-05-03T18:17:35.793Z,,0,1,,2321.000000000029,response,ISIC_5055871.JPG,,ISIC_0634107.JPG,ISIC_5055871.JPG,false,1,keypress(m),500,141801.00000000003,141801.00000000003,139480,139467,139496,141830,8,400,31,,ISIC_0634107.JPG
break,html.Screen,4_30_1,2023-05-03T18:17:35.794Z,,0,,,NaN,,,,,,false,,,,141802,141802,,141802,,141830,8,400,,,
break_continue,html.Screen,4_30_2,2023-05-03T18:17:35.794Z,,0,,,NaN,,,,,,false,,,,141803,141803,,141802,,141830,8,400,,,
sequence,flow.Sequence,4_30,2023-05-03T18:17:35.795Z,,0,,,2307,completion,,,,,false,,,,141803,141803,139480,139467,139496,141830,8,400,,,
trial,html.Screen,4_31_0,2023-05-03T18:17:37.936Z,,0,1,,2131.000000000029,response,ISIC_3338629.JPG,,ISIC_0011694.JPG,ISIC_0011694.JPG,false,0,keypress(z),500,143945,143944.00000000003,141813,141803,141830,143980,8,400,32,,ISIC_3338629.JPG
break,html.Screen,4_31_1,2023-05-03T18:17:37.937Z,,0,,,NaN,,,,,,false,,,,143946,143945,,143945,,143980,8,400,,,
break_continue,html.Screen,4_31_2,2023-05-03T18:17:37.938Z,,0,,,NaN,,,,,,false,,,,143946,143946,,143946,,143980,8,400,,,
sequence,flow.Sequence,4_31,2023-05-03T18:17:37.938Z,,0,,,2116,completion,,,,,false,,,,143946,143946,141813,141803,141830,143980,8,400,,,
trial,html.Screen,4_32_0,2023-05-03T18:17:40.063Z,,0,1,,2108,response,ISIC_5881453.JPG,,ISIC_0030916.JPG,ISIC_5881453.JPG,false,1,keypress(m),500,146071,146071,143963,143946,143980,146096,8,400,33,,ISIC_0030916.JPG
break,html.Screen,4_32_1,2023-05-03T18:17:40.064Z,,0,,,NaN,,,,,,false,,,,146072,146072,,146071,,146096,8,400,,,
break_continue,html.Screen,4_32_2,2023-05-03T18:17:40.064Z,,0,,,NaN,,,,,,false,,,,146072,146072,,146072,,146096,8,400,,,
sequence,flow.Sequence,4_32,2023-05-03T18:17:40.064Z,,0,,,2092,completion,,,,,false,,,,146073,146072,143963,143946,143980,146096,8,400,,,
trial,html.Screen,4_33_0,2023-05-03T18:17:42.106Z,,0,1,,2034,response,ISIC_1074939.JPG,,ISIC_9142818.JPG,ISIC_1074939.JPG,false,1,keypress(m),500,148115,148114,146080,146073,146096,148146,8,400,34,,ISIC_9142818.JPG
break,html.Screen,4_33_1,2023-05-03T18:17:42.108Z,,0,,,NaN,,,,,,false,,,,148116,148116,,148115,,148146,8,400,,,
break_continue,html.Screen,4_33_2,2023-05-03T18:17:42.108Z,,0,,,NaN,,,,,,false,,,,148116,148116,,148116,,148146,8,400,,,
sequence,flow.Sequence,4_33,2023-05-03T18:17:42.108Z,,0,,,2020,completion,,,,,false,,,,148117,148116,146080,146073,146096,148146,8,400,,,
trial,html.Screen,4_34_0,2023-05-03T18:17:45.110Z,,0,1,,2988,response,ISIC_0029906.JPG,,ISIC_1860707.JPG,ISIC_1860707.JPG,false,0,keypress(z),500,151118,151118,148130,148117,148146,151146,8,400,35,,ISIC_0029906.JPG
break,html.Screen,4_34_1,2023-05-03T18:17:45.111Z,,0,,,NaN,,,,,,false,,,,151119,151119,,151119,,151146,8,400,,,
break_continue,html.Screen,4_34_2,2023-05-03T18:17:45.111Z,,0,,,NaN,,,,,,false,,,,151120,151120,,151120,,151146,8,400,,,
sequence,flow.Sequence,4_34,2023-05-03T18:17:45.112Z,,0,,,2974,completion,,,,,false,,,,151120,151120,148130,148117,148146,151146,8,400,,,
trial,html.Screen,4_35_0,2023-05-03T18:17:47.410Z,,0,1,,2288,response,ISIC_2232442.JPG,,ISIC_0013232.JPG,ISIC_0013232.JPG,false,0,keypress(z),500,153419,153418,151130,151120,151146,153446,8,400,36,,ISIC_2232442.JPG
break,html.Screen,4_35_1,2023-05-03T18:17:47.412Z,,0,,,NaN,,,,,,false,,,,153420.00000000003,153420.00000000003,,153419,,153446,8,400,,,
break_continue,html.Screen,4_35_2,2023-05-03T18:17:47.412Z,,0,,,NaN,,,,,,false,,,,153420.00000000003,153420.00000000003,,153420.00000000003,,153446,8,400,,,
sequence,flow.Sequence,4_35,2023-05-03T18:17:47.412Z,,0,,,2274.000000000029,completion,,,,,false,,,,153420.00000000003,153420.00000000003,151130,151120,151146,153446,8,400,,,
trial,html.Screen,4_36_0,2023-05-03T18:17:49.756Z,,0,1,,2335,response,ISIC_8847321.JPG,,ISIC_0061359.JPG,ISIC_8847321.JPG,false,1,keypress(m),500,155764,155764,153429,153421,153446,155796,8,400,37,,ISIC_0061359.JPG
break,html.Screen,4_36_1,2023-05-03T18:17:49.757Z,,0,,,NaN,,,,,,false,,,,155765.00000000003,155765.00000000003,,155765.00000000003,,155796,8,400,,,
break_continue,html.Screen,4_36_2,2023-05-03T18:17:49.757Z,,0,,,NaN,,,,,,false,,,,155766,155765.00000000003,,155765.00000000003,,155796,8,400,,,
sequence,flow.Sequence,4_36,2023-05-03T18:17:49.757Z,,0,,,2319.000000000029,completion,,,,,false,,,,155766,155765.00000000003,153429,153421,153446,155796,8,400,,,
trial,html.Screen,4_37_0,2023-05-03T18:17:52.089Z,,0,1,,2318,response,ISIC_0030150.JPG,,ISIC_4362713.JPG,ISIC_4362713.JPG,false,0,keypress(z),500,158098,158097,155779,155766,155796,158129,8,400,38,,ISIC_0030150.JPG
break,html.Screen,4_37_1,2023-05-03T18:17:52.090Z,,0,,,NaN,,,,,,false,,,,158099,158098,,158098,,158129,8,400,,,
break_continue,html.Screen,4_37_2,2023-05-03T18:17:52.091Z,,0,,,NaN,,,,,,false,,,,158099,158099,,158099,,158129,8,400,,,
sequence,flow.Sequence,4_37,2023-05-03T18:17:52.091Z,,0,,,2303,completion,,,,,false,,,,158100,158099,155779,155766,155796,158129,8,400,,,
trial,html.Screen,4_38_0,2023-05-03T18:17:54.146Z,,0,1,,2041,response,ISIC_0024308.JPG,,ISIC_0003217.JPG,ISIC_0024308.JPG,false,1,keypress(m),500,160154,160154,158113,158100,158129,160188,8,400,39,,ISIC_0003217.JPG
break,html.Screen,4_38_1,2023-05-03T18:17:54.147Z,,0,,,NaN,,,,,,false,,,,160155,160155,,160155,,160188,8,400,,,
break_continue,html.Screen,4_38_2,2023-05-03T18:17:54.147Z,,0,,,NaN,,,,,,false,,,,160156,160156,,160156,,160188,8,400,,,
sequence,flow.Sequence,4_38,2023-05-03T18:17:54.147Z,,0,,,2027,completion,,,,,false,,,,160156,160156,158113,158100,158129,160188,8,400,,,
trial,html.Screen,4_39_0,2023-05-03T18:17:56.417Z,,0,1,,2254,response,ISIC_0065480.JPG,,ISIC_7101810.JPG,ISIC_0065480.JPG,false,1,keypress(m),500,162426.00000000003,162425,160171,160156,160188,162463,8,400,40,,ISIC_7101810.JPG
break,html.Screen,4_39_1,2023-05-03T18:17:56.418Z,,0,,,NaN,,,,,,false,,,,162427,162426.00000000003,,162426.00000000003,,162463,8,400,,,
break_continue,html.Screen,4_39_2,2023-05-03T18:17:56.419Z,,0,,,NaN,,,,,,false,,,,162427,162427,,162427,,162463,8,400,,,
sequence,flow.Sequence,4_39,2023-05-03T18:17:56.419Z,,0,,,2239,completion,,,,,false,,,,162427,162427,160171,160156,160188,162463,8,400,,,
trial,html.Screen,4_40_0,2023-05-03T18:17:59.425Z,,0,1,,2985,response,ISIC_0026348.JPG,,ISIC_0057067.JPG,ISIC_0057067.JPG,false,0,keypress(z),500,165434,165431,162446,162428,162463,165463,8,400,41,,ISIC_0026348.JPG
break,html.Screen,4_40_1,2023-05-03T18:17:59.426Z,,0,,,NaN,,,,,,false,,,,165434,165434,,165434,,165463,8,400,,,
break_continue,html.Screen,4_40_2,2023-05-03T18:17:59.426Z,,0,,,NaN,,,,,,false,,,,165435,165435,,165434,,165463,8,400,,,
sequence,flow.Sequence,4_40,2023-05-03T18:17:59.426Z,,0,,,2972,completion,,,,,false,,,,165435,165435,162446,162428,162463,165463,8,400,,,
trial,html.Screen,4_41_0,2023-05-03T18:18:01.998Z,,0,1,,2561,response,ISIC_8535134.JPG,,ISIC_5100319.JPG,ISIC_5100319.JPG,false,0,keypress(z),500,168006,168006,165445,165435,165463,168030,8,400,42,,ISIC_8535134.JPG
break,html.Screen,4_41_1,2023-05-03T18:18:01.999Z,,0,,,NaN,,,,,,false,,,,168007,168007,,168007,,168030,8,400,,,
break_continue,html.Screen,4_41_2,2023-05-03T18:18:01.999Z,,0,,,NaN,,,,,,false,,,,168008,168008,,168008,,168030,8,400,,,
sequence,flow.Sequence,4_41,2023-05-03T18:18:01.999Z,,0,,,2545,completion,,,,,false,,,,168008,168008,165445,165435,165463,168030,8,400,,,
trial,html.Screen,4_42_0,2023-05-03T18:18:05.222Z,,0,1,,3217,response,ISIC_4728968.JPG,,ISIC_0884550.JPG,ISIC_0884550.JPG,false,1,keypress(m),500,171230,171230,168013,168008,168030,171246,8,400,43,,ISIC_4728968.JPG
break,html.Screen,4_42_1,2023-05-03T18:18:05.222Z,,0,,,NaN,,,,,,false,,,,171231,171231,,171230,,171246,8,400,,,
break_continue,html.Screen,4_42_2,2023-05-03T18:18:05.223Z,,0,,,NaN,,,,,,false,,,,171231,171231,,171231,,171246,8,400,,,
sequence,flow.Sequence,4_42,2023-05-03T18:18:05.223Z,,0,,,3201,completion,,,,,false,,,,171231,171231,168013,168008,168030,171246,8,400,,,
trial,html.Screen,4_43_0,2023-05-03T18:18:07.985Z,,0,1,,2759,response,ISIC_6821316.JPG,,ISIC_6523645.JPG,ISIC_6821316.JPG,false,1,keypress(m),500,173994,173993,171234,171232,171246,174030,8,400,44,,ISIC_6523645.JPG
break,html.Screen,4_43_1,2023-05-03T18:18:07.986Z,,0,,,NaN,,,,,,false,,,,173995,173994,,173994,,174030,8,400,,,
break_continue,html.Screen,4_43_2,2023-05-03T18:18:07.986Z,,0,,,NaN,,,,,,false,,,,173995,173995,,173995,,174030,8,400,,,
sequence,flow.Sequence,4_43,2023-05-03T18:18:07.987Z,,0,,,2749,completion,,,,,false,,,,173995,173995,171234,171231,171246,174030,8,400,,,
trial,html.Screen,4_44_0,2023-05-03T18:18:10.450Z,,0,1,,2445,response,ISIC_0033063.JPG,,ISIC_6676776.JPG,ISIC_0033063.JPG,false,1,keypress(m),500,176458,176458,174013,173995,174030,176480,8,400,45,,ISIC_6676776.JPG
break,html.Screen,4_44_1,2023-05-03T18:18:10.451Z,,0,,,NaN,,,,,,false,,,,176459,176459,,176459,,176480,8,400,,,
break_continue,html.Screen,4_44_2,2023-05-03T18:18:10.451Z,,0,,,NaN,,,,,,false,,,,176460,176460,,176460,,176480,8,400,,,
sequence,flow.Sequence,4_44,2023-05-03T18:18:10.451Z,,0,,,2430,completion,,,,,false,,,,176460,176460,174013,173995,174030,176480,8,400,,,
trial,html.Screen,4_45_0,2023-05-03T18:18:13.896Z,,0,1,,3442,response,ISIC_0054573.JPG,,ISIC_0062301.JPG,ISIC_0062301.JPG,false,0,keypress(z),500,179905,179904,176462,176460,176480,179930,8,400,46,,ISIC_0054573.JPG
break,html.Screen,4_45_1,2023-05-03T18:18:13.897Z,,0,,,NaN,,,,,,false,,,,179906,179906,,179905,,179930,8,400,,,
break_continue,html.Screen,4_45_2,2023-05-03T18:18:13.897Z,,0,,,NaN,,,,,,false,,,,179906,179906,,179906,,179930,8,400,,,
sequence,flow.Sequence,4_45,2023-05-03T18:18:13.898Z,,0,,,3426,completion,,,,,false,,,,179906,179906,176462,176460,176480,179930,8,400,,,
trial,html.Screen,4_46_0,2023-05-03T18:18:16.010Z,,0,1,,2105,response,ISIC_8711983.JPG,,ISIC_8712559.JPG,ISIC_8711983.JPG,false,1,keypress(m),500,182018,182018,179913,179906,179930,182047,8,400,47,,ISIC_8712559.JPG
break,html.Screen,4_46_1,2023-05-03T18:18:16.011Z,,0,,,NaN,,,,,,false,,,,182019,182019,,182019,,182047,8,400,,,
break_continue,html.Screen,4_46_2,2023-05-03T18:18:16.011Z,,0,,,NaN,,,,,,false,,,,182020,182020,,182020,,182047,8,400,,,
sequence,flow.Sequence,4_46,2023-05-03T18:18:16.011Z,,0,,,2090,completion,,,,,false,,,,182020,182020,179913,179906,179930,182047,8,400,,,
trial,html.Screen,4_47_0,2023-05-03T18:18:18.713Z,,0,1,,2691,response,ISIC_3850432.JPG,,ISIC_0064073.JPG,ISIC_3850432.JPG,false,0,keypress(z),500,184722,184721,182030,182020,182047,184747,8,400,48,,ISIC_0064073.JPG
break,html.Screen,4_47_1,2023-05-03T18:18:18.714Z,,0,,,NaN,,,,,,false,,,,184723,184723,,184722,,184747,8,400,,,
break_continue,html.Screen,4_47_2,2023-05-03T18:18:18.715Z,,0,,,NaN,,,,,,false,,,,184723,184723,,184723,,184747,8,400,,,
sequence,flow.Sequence,4_47,2023-05-03T18:18:18.715Z,,0,,,2676,completion,,,,,false,,,,184724.00000000003,184723,182030,182020,182047,184747,8,400,,,
trial,html.Screen,4_48_0,2023-05-03T18:18:21.028Z,,0,1,,2308,response,ISIC_9217340.JPG,,ISIC_0070137.JPG,ISIC_9217340.JPG,false,0,keypress(z),500,187037,187037,184729,184724.00000000003,184747,187062,8,400,49,,ISIC_0070137.JPG
break,html.Screen,4_48_1,2023-05-03T18:18:21.029Z,,0,,,NaN,,,,,,false,,,,187038,187038,,187037,,187062,8,400,,,
break_continue,html.Screen,4_48_2,2023-05-03T18:18:21.029Z,,0,,,NaN,,,,,,false,,,,187038,187038,,187038,,187062,8,400,,,
sequence,flow.Sequence,4_48,2023-05-03T18:18:21.030Z,,0,,,2291,completion,,,,,false,,,,187038,187038,184729,184724.00000000003,184747,187062,8,400,,,
trial,html.Screen,4_49_0,2023-05-03T18:18:23.412Z,,0,1,,2375.000000000029,response,ISIC_0010807.JPG,,ISIC_1293403.JPG,ISIC_0010807.JPG,false,0,keypress(z),500,189421,189420.00000000003,187045,187038,187062,,8,400,50,,ISIC_1293403.JPG
trial,html.Screen,4_49_0,2023-05-03T18:18:23.435Z,,0,1,,2398,response,ISIC_0010807.JPG,,ISIC_1293403.JPG,ISIC_0010807.JPG,false,1,keypress(m),500,189443,189443,187045,187038,187062,189472,8,400,50,,ISIC_1293403.JPG
break,html.Screen,4_49_1,2023-05-03T18:18:28.430Z,,0,,,5000,timeout,,,,,false,,,,194439,194438,189438,189421,189455,194455,8,400,,,
break_continue,html.Screen,4_49_2,2023-05-03T18:18:28.430Z,,0,,,4967,abort by sequence,,,,,false,,,,194439,194439,189455,189444.00000000003,189472,194471,8,400,,,
sequence,flow.Sequence,4_49,2023-05-03T18:18:28.430Z,,0,,,7376,completion,,,,,false,,,,194439,194438,187045,187038,187062,194455,8,400,,,
trial,html.Screen,4_50_0,2023-05-03T18:18:31.755Z,,0,2,,3326,response,ISIC_3188062.JPG,,ISIC_0033578.JPG,ISIC_0033578.JPG,false,1,keypress(m),500,197764,197764,194438,194439,194455,197788,8,400,1,,ISIC_3188062.JPG
break,html.Screen,4_50_1,2023-05-03T18:18:31.757Z,,0,,,NaN,,,,,,false,,,,197765.00000000003,197765.00000000003,,197765.00000000003,,197788,8,400,,,
break_continue,html.Screen,4_50_2,2023-05-03T18:18:31.757Z,,0,,,NaN,,,,,,false,,,,197766,197766,,197766,,197788,8,400,,,
sequence,flow.Sequence,4_50,2023-05-03T18:18:31.757Z,,0,,,3311,completion,,,,,false,,,,197766,197766,194438,194439,194455,197788,8,400,,,
trial,html.Screen,4_51_0,2023-05-03T18:18:33.857Z,,0,2,,2093,response,ISIC_0749263.JPG,,ISIC_9564379.JPG,ISIC_0749263.JPG,false,0,keypress(z),500,199866,199865,197772,197766,197788,199900,8,400,2,,ISIC_9564379.JPG
break,html.Screen,4_51_1,2023-05-03T18:18:33.858Z,,0,,,NaN,,,,,,false,,,,199867,199867,,199866,,199900,8,400,,,
break_continue,html.Screen,4_51_2,2023-05-03T18:18:33.859Z,,0,,,NaN,,,,,,false,,,,199867,199867,,199867,,199900,8,400,,,
sequence,flow.Sequence,4_51,2023-05-03T18:18:33.859Z,,0,,,2079,completion,,,,,false,,,,199868,199867,197772,197766,197788,199900,8,400,,,
trial,html.Screen,4_52_0,2023-05-03T18:18:36.087Z,,0,2,,2214,response,ISIC_5798331.JPG,,ISIC_1637588.JPG,ISIC_5798331.JPG,false,1,keypress(m),500,202096,202096,199882,199868,199900,202122,8,400,3,,ISIC_1637588.JPG
break,html.Screen,4_52_1,2023-05-03T18:18:36.088Z,,0,,,NaN,,,,,,false,,,,202097,202097,,202096,,202122,8,400,,,
break_continue,html.Screen,4_52_2,2023-05-03T18:18:36.089Z,,0,,,NaN,,,,,,false,,,,202097,202097,,202097,,202122,8,400,,,
sequence,flow.Sequence,4_52,2023-05-03T18:18:36.089Z,,0,,,2197,completion,,,,,false,,,,202097,202097,199882,199868,199900,202122,8,400,,,
trial,html.Screen,4_53_0,2023-05-03T18:18:38.366Z,,0,2,,2269,response,ISIC_0030119.JPG,,ISIC_9905633.JPG,ISIC_0030119.JPG,false,1,keypress(m),500,204375,204374,202105,202098,202122,204397,8,400,4,,ISIC_9905633.JPG
break,html.Screen,4_53_1,2023-05-03T18:18:38.367Z,,0,,,NaN,,,,,,false,,,,204375,204375,,204375,,204397,8,400,,,
break_continue,html.Screen,4_53_2,2023-05-03T18:18:38.367Z,,0,,,NaN,,,,,,false,,,,204376,204376,,204376,,204397,8,400,,,
sequence,flow.Sequence,4_53,2023-05-03T18:18:38.367Z,,0,,,2254,completion,,,,,false,,,,204376,204376,202105,202098,202122,204397,8,400,,,
trial,html.Screen,4_54_0,2023-05-03T18:18:40.474Z,,0,2,,2103,response,ISIC_9476244.JPG,,ISIC_8692155.JPG,ISIC_8692155.JPG,false,0,keypress(z),500,206483,206483,204380,204376,204397,206513,8,400,5,,ISIC_9476244.JPG
break,html.Screen,4_54_1,2023-05-03T18:18:40.475Z,,0,,,NaN,,,,,,false,,,,206484,206484,,206483,,206513,8,400,,,
break_continue,html.Screen,4_54_2,2023-05-03T18:18:40.476Z,,0,,,NaN,,,,,,false,,,,206484,206484,,206484,,206513,8,400,,,
sequence,flow.Sequence,4_54,2023-05-03T18:18:40.476Z,,0,,,2087,completion,,,,,false,,,,206485,206484,204380,204376,204397,206513,8,400,,,
trial,html.Screen,4_55_0,2023-05-03T18:18:43.007Z,,0,2,,2518.000000000029,response,ISIC_0059768.JPG,,ISIC_0027043.JPG,ISIC_0059768.JPG,false,0,keypress(z),500,209016,209015.00000000003,206497,206485,206513,,8,400,6,,ISIC_0027043.JPG
break,html.Screen,4_55_1,2023-05-03T18:18:43.008Z,,0,,,NaN,,,,,,false,,,,209017,209016,,209016,,209047,8,400,,,
break_continue,html.Screen,4_55_2,2023-05-03T18:18:43.008Z,,0,,,NaN,,,,,,false,,,,209017,209017,,209017,,209047,8,400,,,
sequence,flow.Sequence,4_55,2023-05-03T18:18:43.008Z,,0,,,2504,completion,,,,,false,,,,209017,209017,206497,206485,206513,209047,8,400,,,
trial,html.Screen,4_55_0,2023-05-03T18:18:43.021Z,,0,2,,2533,response,ISIC_0059768.JPG,,ISIC_0027043.JPG,ISIC_0059768.JPG,false,1,keypress(m),500,209030,209030,206497,206485,206513,209047,8,400,6,,ISIC_0027043.JPG
trial,html.Screen,4_56_0,2023-05-03T18:18:45.353Z,,0,2,,2330.000000000029,response,ISIC_5437785.JPG,,ISIC_0015185.JPG,ISIC_5437785.JPG,false,0,keypress(z),500,211362,211361.00000000003,209031,209017,209047,211388,8,400,7,,ISIC_0015185.JPG
break,html.Screen,4_56_1,2023-05-03T18:18:45.354Z,,0,,,NaN,,,,,,false,,,,211363,211362,,211362,,211388,8,400,,,
break_continue,html.Screen,4_56_2,2023-05-03T18:18:45.354Z,,0,,,NaN,,,,,,false,,,,211363,211363,,211363,,211388,8,400,,,
sequence,flow.Sequence,4_56,2023-05-03T18:18:45.354Z,,0,,,2316,completion,,,,,false,,,,211363,211363,209031,209017,209047,211388,8,400,,,
trial,html.Screen,4_57_0,2023-05-03T18:18:47.801Z,,0,2,,2437,response,ISIC_3301933.JPG,,ISIC_2241755.JPG,ISIC_2241755.JPG,false,0,keypress(z),500,213809,213809,211372,211363,211388,213847,8,400,8,,ISIC_3301933.JPG
break,html.Screen,4_57_1,2023-05-03T18:18:47.801Z,,0,,,NaN,,,,,,false,,,,213810,213810,,213810,,213847,8,400,,,
break_continue,html.Screen,4_57_2,2023-05-03T18:18:47.802Z,,0,,,NaN,,,,,,false,,,,213811,213811,,213810,,213847,8,400,,,
sequence,flow.Sequence,4_57,2023-05-03T18:18:47.802Z,,0,,,2423,completion,,,,,false,,,,213811,213811,211372,211363,211388,213847,8,400,,,
trial,html.Screen,4_58_0,2023-05-03T18:18:50.609Z,,0,2,,2787.000000000029,response,ISIC_4352700.JPG,,ISIC_6496370.JPG,ISIC_4352700.JPG,false,1,keypress(m),500,216618,216617.00000000003,213830,213811,213847,216647,8,400,9,,ISIC_6496370.JPG
break,html.Screen,4_58_1,2023-05-03T18:18:50.610Z,,0,,,NaN,,,,,,false,,,,216619,216618,,216618,,216647,8,400,,,
break_continue,html.Screen,4_58_2,2023-05-03T18:18:50.610Z,,0,,,NaN,,,,,,false,,,,216619,216619,,216619,,216647,8,400,,,
sequence,flow.Sequence,4_58,2023-05-03T18:18:50.610Z,,0,,,2772,completion,,,,,false,,,,216619,216619,213830,213811,213847,216647,8,400,,,
trial,html.Screen,4_59_0,2023-05-03T18:18:54.161Z,,0,2,,3539,response,ISIC_1578399.JPG,,ISIC_0055776.JPG,ISIC_1578399.JPG,false,1,keypress(m),500,220169,220169,216630,216619,216647,220204,8,400,10,,ISIC_0055776.JPG
break,html.Screen,4_59_1,2023-05-03T18:18:54.162Z,,0,,,NaN,,,,,,false,,,,220170.00000000003,220170.00000000003,,220170.00000000003,,220204,8,400,,,
break_continue,html.Screen,4_59_2,2023-05-03T18:18:54.162Z,,0,,,NaN,,,,,,false,,,,220171,220171,,220171,,220204,8,400,,,
sequence,flow.Sequence,4_59,2023-05-03T18:18:54.162Z,,0,,,3524,completion,,,,,false,,,,220171,220171,216630,216619,216647,220204,8,400,,,
trial,html.Screen,4_60_0,2023-05-03T18:18:56.379Z,,0,2,,2199,response,ISIC_3727059.JPG,,ISIC_0033454.JPG,ISIC_0033454.JPG,false,0,keypress(z),500,222388,222387,220188,220171,220204,222413,8,400,11,,ISIC_3727059.JPG
break,html.Screen,4_60_1,2023-05-03T18:18:56.380Z,,0,,,NaN,,,,,,false,,,,222389,222389,,222388,,222413,8,400,,,
break_continue,html.Screen,4_60_2,2023-05-03T18:18:56.381Z,,0,,,NaN,,,,,,false,,,,222389,222389,,222389,,222413,8,400,,,
sequence,flow.Sequence,4_60,2023-05-03T18:18:56.381Z,,0,,,2185,completion,,,,,false,,,,222390.00000000003,222389,220188,220171,220204,222413,8,400,,,
trial,html.Screen,4_61_0,2023-05-03T18:18:59.071Z,,0,2,,2682,response,ISIC_0060696.JPG,,ISIC_4438786.JPG,ISIC_0060696.JPG,false,1,keypress(m),500,225079,225079,222397,222390.00000000003,222413,225097,8,400,12,,ISIC_4438786.JPG
break,html.Screen,4_61_1,2023-05-03T18:18:59.071Z,,0,,,NaN,,,,,,false,,,,225080,225080,,225080,,225097,8,400,,,
break_continue,html.Screen,4_61_2,2023-05-03T18:18:59.072Z,,0,,,NaN,,,,,,false,,,,225081.00000000003,225081.00000000003,,225080,,225097,8,400,,,
sequence,flow.Sequence,4_61,2023-05-03T18:18:59.072Z,,0,,,2668.000000000029,completion,,,,,false,,,,225081.00000000003,225081.00000000003,222397,222390.00000000003,222413,225097,8,400,,,
trial,html.Screen,4_62_0,2023-05-03T18:19:01.806Z,,0,2,,2731,response,ISIC_8789051.JPG,,ISIC_2163734.JPG,ISIC_2163734.JPG,false,0,keypress(z),500,227815,227814,225083,225081.00000000003,225097,227847,8,400,13,,ISIC_8789051.JPG
break,html.Screen,4_62_1,2023-05-03T18:19:01.806Z,,0,,,NaN,,,,,,false,,,,227815,227815,,227815,,227847,8,400,,,
break_continue,html.Screen,4_62_2,2023-05-03T18:19:01.807Z,,0,,,NaN,,,,,,false,,,,227816,227816,,227816,,227847,8,400,,,
sequence,flow.Sequence,4_62,2023-05-03T18:19:01.807Z,,0,,,2719,completion,,,,,false,,,,227816,227816,225083,225081.00000000003,225097,227847,8,400,,,
trial,html.Screen,4_63_0,2023-05-03T18:19:04.975Z,,0,2,,3155,response,ISIC_0000036.JPG,,ISIC_0000175.JPG,ISIC_0000036.JPG,false,1,keypress(m),500,230984,230984,227829,227816,227847,231013,8,400,14,,ISIC_0000175.JPG
break,html.Screen,4_63_1,2023-05-03T18:19:04.976Z,,0,,,NaN,,,,,,false,,,,230985,230985,,230984,,231013,8,400,,,
break_continue,html.Screen,4_63_2,2023-05-03T18:19:04.976Z,,0,,,NaN,,,,,,false,,,,230985,230985,,230985,,231013,8,400,,,
sequence,flow.Sequence,4_63,2023-05-03T18:19:04.977Z,,0,,,3138,completion,,,,,false,,,,230986.00000000003,230985,227829,227816,227847,231013,8,400,,,
trial,html.Screen,4_64_0,2023-05-03T18:19:07.913Z,,0,2,,2924,response,ISIC_7351939.JPG,,ISIC_7059794.JPG,ISIC_7351939.JPG,false,1,keypress(m),500,233922,233921,230997,230986.00000000003,231013,233947,8,400,15,,ISIC_7059794.JPG
break,html.Screen,4_64_1,2023-05-03T18:19:07.914Z,,0,,,NaN,,,,,,false,,,,233923,233922,,233922,,233947,8,400,,,
break_continue,html.Screen,4_64_2,2023-05-03T18:19:07.914Z,,0,,,NaN,,,,,,false,,,,233923,233923,,233923,,233947,8,400,,,
sequence,flow.Sequence,4_64,2023-05-03T18:19:07.914Z,,0,,,2910,completion,,,,,false,,,,233923,233923,230997,230986.00000000003,231013,233947,8,400,,,
trial,html.Screen,4_65_0,2023-05-03T18:19:10.582Z,,0,2,,2661,response,ISIC_5576250.JPG,,ISIC_9723646.JPG,ISIC_5576250.JPG,false,1,keypress(m),500,236591,236591,233930,233923,233947,236622,8,400,16,,ISIC_9723646.JPG
break,html.Screen,4_65_1,2023-05-03T18:19:10.584Z,,0,,,NaN,,,,,,false,,,,236593.00000000003,236592,,236592,,236622,8,400,,,
break_continue,html.Screen,4_65_2,2023-05-03T18:19:10.584Z,,0,,,NaN,,,,,,false,,,,236593.00000000003,236593.00000000003,,236593.00000000003,,236622,8,400,,,
sequence,flow.Sequence,4_65,2023-05-03T18:19:10.584Z,,0,,,2646.000000000029,completion,,,,,false,,,,236593.00000000003,236593.00000000003,233930,233923,233947,236622,8,400,,,
trial,html.Screen,4_66_0,2023-05-03T18:19:13.138Z,,0,2,,2542,response,ISIC_0026544.JPG,,ISIC_0000179.JPG,ISIC_0000179.JPG,false,0,keypress(z),500,239147,239147,236605,236593.00000000003,236622,239182,8,400,17,,ISIC_0026544.JPG
break,html.Screen,4_66_1,2023-05-03T18:19:13.139Z,,0,,,NaN,,,,,,false,,,,239148,239148,,239148,,239182,8,400,,,
break_continue,html.Screen,4_66_2,2023-05-03T18:19:13.140Z,,0,,,NaN,,,,,,false,,,,239149,239148,,239148,,239182,8,400,,,
sequence,flow.Sequence,4_66,2023-05-03T18:19:13.140Z,,0,,,2526,completion,,,,,false,,,,239149,239148,236605,236593.00000000003,236622,239182,8,400,,,
trial,html.Screen,4_67_0,2023-05-03T18:19:19.887Z,,0,2,,6730,response,ISIC_0523125.JPG,,ISIC_1508215.JPG,ISIC_1508215.JPG,false,0,keypress(z),500,245896.00000000003,245895,239165,239149,239182,245922,8,400,18,,ISIC_0523125.JPG
break,html.Screen,4_67_1,2023-05-03T18:19:19.888Z,,0,,,NaN,,,,,,false,,,,245897,245897,,245896.00000000003,,245922,8,400,,,
break_continue,html.Screen,4_67_2,2023-05-03T18:19:19.888Z,,0,,,NaN,,,,,,false,,,,245897,245897,,245897,,245922,8,400,,,
sequence,flow.Sequence,4_67,2023-05-03T18:19:19.889Z,,0,,,6715,completion,,,,,false,,,,245898,245897,239165,239149,239182,245922,8,400,,,
trial,html.Screen,4_68_0,2023-05-03T18:19:22.516Z,,0,2,,2620,response,ISIC_7727830.JPG,,ISIC_6062657.JPG,ISIC_7727830.JPG,false,1,keypress(m),500,248525,248525,245905,245898,245922,248547,8,400,19,,ISIC_6062657.JPG
break,html.Screen,4_68_1,2023-05-03T18:19:22.517Z,,0,,,NaN,,,,,,false,,,,248526,248526,,248526,,248547,8,400,,,
break_continue,html.Screen,4_68_2,2023-05-03T18:19:22.518Z,,0,,,NaN,,,,,,false,,,,248527.00000000003,248527.00000000003,,248527.00000000003,,248547,8,400,,,
sequence,flow.Sequence,4_68,2023-05-03T18:19:22.518Z,,0,,,2605.000000000029,completion,,,,,false,,,,248527.00000000003,248527.00000000003,245905,245898,245922,248547,8,400,,,
trial,html.Screen,4_69_0,2023-05-03T18:19:25.030Z,,0,2,,2510.000000000029,response,ISIC_6844752.JPG,,ISIC_0032544.JPG,ISIC_0032544.JPG,false,0,keypress(z),500,251039.00000000003,251039.00000000003,248529,248527.00000000003,248547,251063,8,400,20,,ISIC_6844752.JPG
break,html.Screen,4_69_1,2023-05-03T18:19:25.031Z,,0,,,NaN,,,,,,false,,,,251040,251040,,251039.00000000003,,251063,8,400,,,
break_continue,html.Screen,4_69_2,2023-05-03T18:19:25.031Z,,0,,,NaN,,,,,,false,,,,251040,251040,,251040,,251063,8,400,,,
sequence,flow.Sequence,4_69,2023-05-03T18:19:25.032Z,,0,,,2493,completion,,,,,false,,,,251041,251040,248529,248527.00000000003,248547,251063,8,400,,,
trial,html.Screen,4_70_0,2023-05-03T18:19:27.374Z,,0,2,,2336,response,ISIC_9859495.JPG,,ISIC_0069210.JPG,ISIC_9859495.JPG,false,1,keypress(m),500,253383,253383,251047,251041,251063,253414,8,400,21,,ISIC_0069210.JPG
break,html.Screen,4_70_1,2023-05-03T18:19:27.375Z,,0,,,NaN,,,,,,false,,,,253384,253384,,253384,,253414,8,400,,,
break_continue,html.Screen,4_70_2,2023-05-03T18:19:27.375Z,,0,,,NaN,,,,,,false,,,,253384,253384,,253384,,253414,8,400,,,
sequence,flow.Sequence,4_70,2023-05-03T18:19:27.375Z,,0,,,2321,completion,,,,,false,,,,253385.00000000003,253384,251047,251041,251063,253414,8,400,,,
trial,html.Screen,4_71_0,2023-05-03T18:19:29.804Z,,0,2,,2415,response,ISIC_8356468.JPG,,ISIC_0029283.JPG,ISIC_0029283.JPG,false,0,keypress(z),500,255813.00000000003,255812,253397,253385.00000000003,253414,255847,8,400,22,,ISIC_8356468.JPG
break,html.Screen,4_71_1,2023-05-03T18:19:29.805Z,,0,,,NaN,,,,,,false,,,,255814,255814,,255813.00000000003,,255847,8,400,,,
break_continue,html.Screen,4_71_2,2023-05-03T18:19:29.805Z,,0,,,NaN,,,,,,false,,,,255814,255814,,255814,,255847,8,400,,,
sequence,flow.Sequence,4_71,2023-05-03T18:19:29.805Z,,0,,,2400,completion,,,,,false,,,,255814,255814,253397,253385.00000000003,253414,255847,8,400,,,
trial,html.Screen,4_72_0,2023-05-03T18:19:32.121Z,,0,2,,2301,response,ISIC_0065775.JPG,,ISIC_7206167.JPG,ISIC_7206167.JPG,false,0,keypress(z),500,258131.00000000003,258130,255829,255814,255847,258164,8,400,23,,ISIC_0065775.JPG
break,html.Screen,4_72_1,2023-05-03T18:19:32.122Z,,0,,,NaN,,,,,,false,,,,258132,258131.00000000003,,258131.00000000003,,258164,8,400,,,
break_continue,html.Screen,4_72_2,2023-05-03T18:19:32.123Z,,0,,,NaN,,,,,,false,,,,258132,258132,,258132,,258164,8,400,,,
sequence,flow.Sequence,4_72,2023-05-03T18:19:32.123Z,,0,,,2285,completion,,,,,false,,,,258132,258132,255829,255814,255847,258164,8,400,,,
trial,html.Screen,4_73_0,2023-05-03T18:19:34.955Z,,0,2,,2818,response,ISIC_7421214.JPG,,ISIC_3727059.JPG,ISIC_3727059.JPG,false,0,keypress(z),500,260965.00000000003,260964,258146,258132,258164,260996,8,400,24,,ISIC_7421214.JPG
break,html.Screen,4_73_1,2023-05-03T18:19:34.956Z,,0,,,NaN,,,,,,false,,,,260966,260965.00000000003,,260965.00000000003,,260996,8,400,,,
break_continue,html.Screen,4_73_2,2023-05-03T18:19:34.957Z,,0,,,NaN,,,,,,false,,,,260966,260966,,260966,,260996,8,400,,,
sequence,flow.Sequence,4_73,2023-05-03T18:19:34.957Z,,0,,,2802,completion,,,,,false,,,,260966,260966,258146,258132,258164,260996,8,400,,,
trial,html.Screen,4_74_0,2023-05-03T18:19:37.947Z,,0,2,,2975,response,ISIC_9989617.JPG,,ISIC_6274085.JPG,ISIC_6274085.JPG,false,0,keypress(z),500,263956,263955,260980,260966,260996,263980,8,400,25,,ISIC_9989617.JPG
break,html.Screen,4_74_1,2023-05-03T18:19:37.948Z,,0,,,NaN,,,,,,false,,,,263957,263957,,263956,,263980,8,400,,,
break_continue,html.Screen,4_74_2,2023-05-03T18:19:37.948Z,,0,,,NaN,,,,,,false,,,,263957,263957,,263957,,263980,8,400,,,
sequence,flow.Sequence,4_74,2023-05-03T18:19:37.948Z,,0,,,2961,completion,,,,,false,,,,263957,263957,260980,260966,260996,263980,8,400,,,
trial,html.Screen,4_75_0,2023-05-03T18:19:40.629Z,,0,2,,2675.000000000058,response,ISIC_0002639.JPG,,ISIC_0031248.JPG,ISIC_0031248.JPG,false,0,keypress(z),500,266639,266638.00000000006,263963,263957,263980,266663,8,400,26,,ISIC_0002639.JPG
break,html.Screen,4_75_1,2023-05-03T18:19:40.630Z,,0,,,NaN,,,,,,false,,,,266640,266639,,266639,,266663,8,400,,,
break_continue,html.Screen,4_75_2,2023-05-03T18:19:40.631Z,,0,,,NaN,,,,,,false,,,,266640,266640,,266640,,266663,8,400,,,
sequence,flow.Sequence,4_75,2023-05-03T18:19:40.631Z,,0,,,2660,completion,,,,,false,,,,266640,266640,263963,263957,263980,266663,8,400,,,
trial,html.Screen,4_76_0,2023-05-03T18:19:44.103Z,,0,2,,3465,response,ISIC_0070588.JPG,,ISIC_2177748.JPG,ISIC_0070588.JPG,false,1,keypress(m),500,270112,270112,266647,266640,266663,270147,8,400,27,,ISIC_2177748.JPG
break,html.Screen,4_76_1,2023-05-03T18:19:44.104Z,,0,,,NaN,,,,,,false,,,,270113,270113,,270112,,270147,8,400,,,
break_continue,html.Screen,4_76_2,2023-05-03T18:19:44.104Z,,0,,,NaN,,,,,,false,,,,270113,270113,,270113,,270147,8,400,,,
sequence,flow.Sequence,4_76,2023-05-03T18:19:44.104Z,,0,,,3450,completion,,,,,false,,,,270114.00000000006,270113,266647,266640,266663,270147,8,400,,,
trial,html.Screen,4_77_0,2023-05-03T18:19:47.303Z,,0,2,,3182,response,ISIC_2736880.JPG,,ISIC_0059897.JPG,ISIC_0059897.JPG,false,0,keypress(z),500,273313,273312,270130,270114.00000000006,270147,273347,8,400,28,,ISIC_2736880.JPG
break,html.Screen,4_77_1,2023-05-03T18:19:47.304Z,,0,,,NaN,,,,,,false,,,,273314,273314,,273313,,273347,8,400,,,
break_continue,html.Screen,4_77_2,2023-05-03T18:19:47.305Z,,0,,,NaN,,,,,,false,,,,273314,273314,,273314,,273347,8,400,,,
sequence,flow.Sequence,4_77,2023-05-03T18:19:47.305Z,,0,,,3167,completion,,,,,false,,,,273314,273314,270130,270114.00000000006,270147,273347,8,400,,,
trial,html.Screen,4_78_0,2023-05-03T18:19:49.900Z,,0,2,,2578,response,ISIC_0032161.JPG,,ISIC_0011930.JPG,ISIC_0011930.JPG,false,0,keypress(z),500,275909,275908,273330,273314,273347,275930,8,400,29,,ISIC_0032161.JPG
break,html.Screen,4_78_1,2023-05-03T18:19:49.900Z,,0,,,NaN,,,,,,false,,,,275910,275909,,275909,,275930,8,400,,,
break_continue,html.Screen,4_78_2,2023-05-03T18:19:49.901Z,,0,,,NaN,,,,,,false,,,,275910,275910,,275910,,275930,8,400,,,
sequence,flow.Sequence,4_78,2023-05-03T18:19:49.901Z,,0,,,2563,completion,,,,,false,,,,275910,275910,273330,273314,273347,275930,8,400,,,
trial,html.Screen,4_79_0,2023-05-03T18:19:52.564Z,,0,2,,2660,response,ISIC_0011336.JPG,,ISIC_7802213.JPG,ISIC_0011336.JPG,false,0,keypress(z),500,278573,278573,275913,275910,275930,278597,8,400,30,,ISIC_7802213.JPG
break,html.Screen,4_79_1,2023-05-03T18:19:52.565Z,,0,,,NaN,,,,,,false,,,,278574,278574,,278573,,278597,8,400,,,
break_continue,html.Screen,4_79_2,2023-05-03T18:19:52.565Z,,0,,,NaN,,,,,,false,,,,278575,278575,,278574,,278597,8,400,,,
sequence,flow.Sequence,4_79,2023-05-03T18:19:52.566Z,,0,,,2645,completion,,,,,false,,,,278575,278575,275913,275910,275930,278597,8,400,,,
trial,html.Screen,4_80_0,2023-05-03T18:19:55.441Z,,0,2,,2870,response,ISIC_3996796.JPG,,ISIC_0011895.JPG,ISIC_0011895.JPG,false,0,keypress(z),500,281450,281450,278580,278575,278597,281480,8,400,31,,ISIC_3996796.JPG
break,html.Screen,4_80_1,2023-05-03T18:19:55.442Z,,0,,,NaN,,,,,,false,,,,281451,281451,,281451,,281480,8,400,,,
break_continue,html.Screen,4_80_2,2023-05-03T18:19:55.442Z,,0,,,NaN,,,,,,false,,,,281452,281451,,281451,,281480,8,400,,,
sequence,flow.Sequence,4_80,2023-05-03T18:19:55.442Z,,0,,,2854,completion,,,,,false,,,,281452,281451,278580,278575,278597,281480,8,400,,,
trial,html.Screen,4_81_0,2023-05-03T18:19:58.596Z,,0,2,,3141,response,ISIC_0014974.JPG,,ISIC_0063496.JPG,ISIC_0014974.JPG,false,1,keypress(m),500,284606,284605,281464,281452,281480,284630,8,400,32,,ISIC_0063496.JPG
break,html.Screen,4_81_1,2023-05-03T18:19:58.597Z,,0,,,NaN,,,,,,false,,,,284607,284606,,284606,,284630,8,400,,,
break_continue,html.Screen,4_81_2,2023-05-03T18:19:58.598Z,,0,,,NaN,,,,,,false,,,,284607,284607,,284607,,284630,8,400,,,
sequence,flow.Sequence,4_81,2023-05-03T18:19:58.598Z,,0,,,3127,completion,,,,,false,,,,284607,284607,281464,281452,281480,284630,8,400,,,
trial,html.Screen,4_82_0,2023-05-03T18:20:01.479Z,,0,2,,2875,response,ISIC_2535541.JPG,,ISIC_9751013.JPG,ISIC_2535541.JPG,false,1,keypress(m),500,287488,287488,284613,284607,284630,287522,8,400,33,,ISIC_9751013.JPG
break,html.Screen,4_82_1,2023-05-03T18:20:01.480Z,,0,,,NaN,,,,,,false,,,,287489.00000000006,287489.00000000006,,287489.00000000006,,287522,8,400,,,
break_continue,html.Screen,4_82_2,2023-05-03T18:20:01.480Z,,0,,,NaN,,,,,,false,,,,287490,287489.00000000006,,287489.00000000006,,287522,8,400,,,
sequence,flow.Sequence,4_82,2023-05-03T18:20:01.480Z,,0,,,2859.000000000058,completion,,,,,false,,,,287490,287489.00000000006,284613,284607,284630,287522,8,400,,,
trial,html.Screen,4_83_0,2023-05-03T18:20:04.161Z,,0,2,,2666,response,ISIC_0024236.JPG,,ISIC_2953279.JPG,ISIC_0024236.JPG,false,1,keypress(m),500,290170,290170,287504,287490,287522,290206,8,400,34,,ISIC_2953279.JPG
break,html.Screen,4_83_1,2023-05-03T18:20:04.162Z,,0,,,NaN,,,,,,false,,,,290171,290171,,290170,,290206,8,400,,,
break_continue,html.Screen,4_83_2,2023-05-03T18:20:04.162Z,,0,,,NaN,,,,,,false,,,,290171,290171,,290171,,290206,8,400,,,
sequence,flow.Sequence,4_83,2023-05-03T18:20:04.162Z,,0,,,2649,completion,,,,,false,,,,290172,290171,287504,287490,287522,290206,8,400,,,
trial,html.Screen,4_84_0,2023-05-03T18:20:07.275Z,,0,2,,3095,response,ISIC_7947847.JPG,,ISIC_7300631.JPG,ISIC_7947847.JPG,false,1,keypress(m),500,293285,293284,290189,290172,290206,293322,8,400,35,,ISIC_7300631.JPG
break,html.Screen,4_84_1,2023-05-03T18:20:07.276Z,,0,,,NaN,,,,,,false,,,,293285,293285,,293285,,293322,8,400,,,
break_continue,html.Screen,4_84_2,2023-05-03T18:20:07.276Z,,0,,,NaN,,,,,,false,,,,293286,293286,,293285,,293322,8,400,,,
sequence,flow.Sequence,4_84,2023-05-03T18:20:07.276Z,,0,,,3080,completion,,,,,false,,,,293286,293286,290189,290172,290206,293322,8,400,,,
trial,html.Screen,4_85_0,2023-05-03T18:20:09.880Z,,0,2,,2584,response,ISIC_3513288.JPG,,ISIC_0066149.JPG,ISIC_0066149.JPG,false,0,keypress(z),500,295889,295889,293305,293286,293322,295914,8,400,36,,ISIC_3513288.JPG
break,html.Screen,4_85_1,2023-05-03T18:20:09.881Z,,0,,,NaN,,,,,,false,,,,295890,295890,,295890,,295914,8,400,,,
break_continue,html.Screen,4_85_2,2023-05-03T18:20:09.881Z,,0,,,NaN,,,,,,false,,,,295891,295890,,295890,,295914,8,400,,,
sequence,flow.Sequence,4_85,2023-05-03T18:20:09.881Z,,0,,,2568,completion,,,,,false,,,,295891,295890,293305,293286,293322,295914,8,400,,,
trial,html.Screen,4_86_0,2023-05-03T18:20:12.844Z,,0,2,,2956,response,ISIC_0010036.JPG,,ISIC_8795740.JPG,ISIC_0010036.JPG,false,1,keypress(m),500,298853,298853,295897,295891,295914,298880,8,400,37,,ISIC_8795740.JPG
break,html.Screen,4_86_1,2023-05-03T18:20:12.845Z,,0,,,NaN,,,,,,false,,,,298854,298854,,298853,,298880,8,400,,,
break_continue,html.Screen,4_86_2,2023-05-03T18:20:12.845Z,,0,,,NaN,,,,,,false,,,,298855,298854,,298854,,298880,8,400,,,
sequence,flow.Sequence,4_86,2023-05-03T18:20:12.845Z,,0,,,2940,completion,,,,,false,,,,298855,298854,295897,295891,295914,298880,8,400,,,
trial,html.Screen,4_87_0,2023-05-03T18:20:15.618Z,,0,2,,2762.000000000058,response,ISIC_4477599.JPG,,ISIC_0010265.JPG,ISIC_0010265.JPG,false,0,keypress(z),500,301627,301626.00000000006,298864,298855,298880,301663,8,400,38,,ISIC_4477599.JPG
break,html.Screen,4_87_1,2023-05-03T18:20:15.619Z,,0,,,NaN,,,,,,false,,,,301628,301628,,301627,,301663,8,400,,,
break_continue,html.Screen,4_87_2,2023-05-03T18:20:15.619Z,,0,,,NaN,,,,,,false,,,,301628,301628,,301628,,301663,8,400,,,
sequence,flow.Sequence,4_87,2023-05-03T18:20:15.619Z,,0,,,2748,completion,,,,,false,,,,301628,301628,298864,298855,298880,301663,8,400,,,
trial,html.Screen,4_88_0,2023-05-03T18:20:18.365Z,,0,2,,2728,response,ISIC_0010442.JPG,,ISIC_0059065.JPG,ISIC_0010442.JPG,false,1,keypress(m),500,304375,304374,301646,301629,301663,304397,8,400,39,,ISIC_0059065.JPG
break,html.Screen,4_88_1,2023-05-03T18:20:18.367Z,,0,,,NaN,,,,,,false,,,,304376.00000000006,304376.00000000006,,304375,,304397,8,400,,,
break_continue,html.Screen,4_88_2,2023-05-03T18:20:18.367Z,,0,,,NaN,,,,,,false,,,,304376.00000000006,304376.00000000006,,304376.00000000006,,304397,8,400,,,
sequence,flow.Sequence,4_88,2023-05-03T18:20:18.367Z,,0,,,2713.000000000058,completion,,,,,false,,,,304377,304376.00000000006,301646,301629,301663,304397,8,400,,,
trial,html.Screen,4_89_0,2023-05-03T18:20:21.123Z,,0,2,,2752,response,ISIC_8759726.JPG,,ISIC_3556039.JPG,ISIC_8759726.JPG,false,1,keypress(m),500,307133,307132,304380,304377,304397,307164,8,400,40,,ISIC_3556039.JPG
break,html.Screen,4_89_1,2023-05-03T18:20:21.125Z,,0,,,NaN,,,,,,false,,,,307134,307134,,307133,,307164,8,400,,,
break_continue,html.Screen,4_89_2,2023-05-03T18:20:21.125Z,,0,,,NaN,,,,,,false,,,,307135,307134,,307134,,307164,8,400,,,
sequence,flow.Sequence,4_89,2023-05-03T18:20:21.125Z,,0,,,2737,completion,,,,,false,,,,307135,307134,304380,304377,304397,307164,8,400,,,
trial,html.Screen,4_90_0,2023-05-03T18:20:26.020Z,,0,2,,4882,response,ISIC_7921023.JPG,,ISIC_6416533.JPG,ISIC_7921023.JPG,false,1,keypress(m),500,312029,312029,307147,307135,307164,312047,8,400,41,,ISIC_6416533.JPG
break,html.Screen,4_90_1,2023-05-03T18:20:26.021Z,,0,,,NaN,,,,,,false,,,,312030.00000000006,312030.00000000006,,312030.00000000006,,312047,8,400,,,
break_continue,html.Screen,4_90_2,2023-05-03T18:20:26.021Z,,0,,,NaN,,,,,,false,,,,312031,312031,,312030.00000000006,,312047,8,400,,,
sequence,flow.Sequence,4_90,2023-05-03T18:20:26.021Z,,0,,,4867,completion,,,,,false,,,,312031,312031,307147,307135,307164,312047,8,400,,,
trial,html.Screen,4_91_0,2023-05-03T18:20:29.647Z,,0,2,,3623,response,ISIC_5354202.JPG,,ISIC_0067338.JPG,ISIC_0067338.JPG,false,0,keypress(z),500,315657,315656,312033,312031,312047,315680,8,400,42,,ISIC_5354202.JPG
break,html.Screen,4_91_1,2023-05-03T18:20:29.648Z,,0,,,NaN,,,,,,false,,,,315658,315657,,315657,,315680,8,400,,,
break_continue,html.Screen,4_91_2,2023-05-03T18:20:29.649Z,,0,,,NaN,,,,,,false,,,,315658,315658,,315658,,315680,8,400,,,
sequence,flow.Sequence,4_91,2023-05-03T18:20:29.649Z,,0,,,3611,completion,,,,,false,,,,315658,315658,312033,312031,312047,315680,8,400,,,
trial,html.Screen,4_92_0,2023-05-03T18:20:32.572Z,,0,2,,2918,response,ISIC_0212774.JPG,,ISIC_0060153.JPG,ISIC_0060153.JPG,false,0,keypress(z),500,318582,318581,315663,315658,315680,318614,8,400,43,,ISIC_0212774.JPG
break,html.Screen,4_92_1,2023-05-03T18:20:32.573Z,,0,,,NaN,,,,,,false,,,,318583,318583,,318582,,318614,8,400,,,
break_continue,html.Screen,4_92_2,2023-05-03T18:20:32.574Z,,0,,,NaN,,,,,,false,,,,318583,318583,,318583,,318614,8,400,,,
sequence,flow.Sequence,4_92,2023-05-03T18:20:32.574Z,,0,,,2903,completion,,,,,false,,,,318583,318583,315663,315658,315680,318614,8,400,,,
trial,html.Screen,4_93_0,2023-05-03T18:20:35.336Z,,0,2,,2748,response,ISIC_1926656.JPG,,ISIC_0010145.JPG,ISIC_0010145.JPG,false,0,keypress(z),500,321346,321345,318597,318584,318614,321380,8,400,44,,ISIC_1926656.JPG
break,html.Screen,4_93_1,2023-05-03T18:20:35.337Z,,0,,,NaN,,,,,,false,,,,321347,321346,,321346,,321380,8,400,,,
break_continue,html.Screen,4_93_2,2023-05-03T18:20:35.338Z,,0,,,NaN,,,,,,false,,,,321347,321347,,321347,,321380,8,400,,,
sequence,flow.Sequence,4_93,2023-05-03T18:20:35.338Z,,0,,,2733,completion,,,,,false,,,,321347,321347,318597,318584,318614,321380,8,400,,,
trial,html.Screen,4_94_0,2023-05-03T18:20:38.349Z,,0,2,,2994,response,ISIC_0064669.JPG,,ISIC_0046900.JPG,ISIC_0046900.JPG,false,0,keypress(z),500,324358,324358,321364,321348,321380,324380,8,400,45,,ISIC_0064669.JPG
break,html.Screen,4_94_1,2023-05-03T18:20:38.350Z,,0,,,NaN,,,,,,false,,,,324359,324359,,324359,,324380,8,400,,,
break_continue,html.Screen,4_94_2,2023-05-03T18:20:38.350Z,,0,,,NaN,,,,,,false,,,,324359,324359,,324359,,324380,8,400,,,
sequence,flow.Sequence,4_94,2023-05-03T18:20:38.350Z,,0,,,2979,completion,,,,,false,,,,324360,324359,321364,321348,321380,324380,8,400,,,
trial,html.Screen,4_95_0,2023-05-03T18:20:41.265Z,,0,2,,2911,response,ISIC_0058676.JPG,,ISIC_2380341.JPG,ISIC_0058676.JPG,false,1,keypress(m),500,327274,327274,324363,324360,324380,327297,8,400,46,,ISIC_2380341.JPG
break,html.Screen,4_95_1,2023-05-03T18:20:41.265Z,,0,,,NaN,,,,,,false,,,,327275.00000000006,327275.00000000006,,327274,,327297,8,400,,,
break_continue,html.Screen,4_95_2,2023-05-03T18:20:41.266Z,,0,,,NaN,,,,,,false,,,,327275.00000000006,327275.00000000006,,327275.00000000006,,327297,8,400,,,
sequence,flow.Sequence,4_95,2023-05-03T18:20:41.266Z,,0,,,2895.000000000058,completion,,,,,false,,,,327275.00000000006,327275.00000000006,324363,324360,324380,327297,8,400,,,
trial,html.Screen,4_96_0,2023-05-03T18:20:44.020Z,,0,2,,2749,response,ISIC_0030729.JPG,,ISIC_5849178.JPG,ISIC_0030729.JPG,false,1,keypress(m),500,330029,330029,327280,327276,327297,330064,8,400,47,,ISIC_5849178.JPG
break,html.Screen,4_96_1,2023-05-03T18:20:44.021Z,,0,,,NaN,,,,,,false,,,,330030.00000000006,330030.00000000006,,330029,,330064,8,400,,,
break_continue,html.Screen,4_96_2,2023-05-03T18:20:44.021Z,,0,,,NaN,,,,,,false,,,,330031,330030.00000000006,,330030.00000000006,,330064,8,400,,,
sequence,flow.Sequence,4_96,2023-05-03T18:20:44.021Z,,0,,,2733.000000000058,completion,,,,,false,,,,330031,330030.00000000006,327280,327275.00000000006,327297,330064,8,400,,,
trial,html.Screen,4_97_0,2023-05-03T18:20:46.837Z,,0,2,,2799,response,ISIC_6512653.JPG,,ISIC_0031744.JPG,ISIC_6512653.JPG,false,1,keypress(m),500,332846,332846,330047,330031,330064,332880,8,400,48,,ISIC_0031744.JPG
break,html.Screen,4_97_1,2023-05-03T18:20:46.838Z,,0,,,NaN,,,,,,false,,,,332847,332847,,332846,,332880,8,400,,,
break_continue,html.Screen,4_97_2,2023-05-03T18:20:46.838Z,,0,,,NaN,,,,,,false,,,,332848,332847,,332847,,332880,8,400,,,
sequence,flow.Sequence,4_97,2023-05-03T18:20:46.838Z,,0,,,2783,completion,,,,,false,,,,332848,332847,330047,330031,330064,332880,8,400,,,
trial,html.Screen,4_98_0,2023-05-03T18:20:49.477Z,,0,2,,2622,response,ISIC_7176034.JPG,,ISIC_0034101.JPG,ISIC_0034101.JPG,false,0,keypress(z),500,335487,335486,332864,332848,332880,335514,8,400,49,,ISIC_7176034.JPG
break,html.Screen,4_98_1,2023-05-03T18:20:49.478Z,,0,,,NaN,,,,,,false,,,,335488,335487,,335487,,335514,8,400,,,
break_continue,html.Screen,4_98_2,2023-05-03T18:20:49.478Z,,0,,,NaN,,,,,,false,,,,335488,335488,,335488,,335514,8,400,,,
sequence,flow.Sequence,4_98,2023-05-03T18:20:49.478Z,,0,,,2608,completion,,,,,false,,,,335488,335488,332864,332848,332880,335514,8,400,,,
trial,html.Screen,4_99_0,2023-05-03T18:20:52.447Z,,0,2,,2959,response,ISIC_8796968.JPG,,ISIC_0030860.JPG,ISIC_0030860.JPG,false,0,keypress(z),500,338457,338456,335497,335488,335514,338480,8,400,50,,ISIC_8796968.JPG
break,html.Screen,4_99_1,2023-05-03T18:20:57.463Z,,0,,,5009,timeout,,,,,false,,,,343473,343472,338463,338457,338480,343489,8,400,,,
break_continue,html.Screen,4_99_2,2023-05-03T18:20:59.884Z,,0,,,2441,response,,,,,false,continue,keypress(Space),,345894,345913,343472,343473,343489,345922,8,400,,,
sequence,flow.Sequence,4_99,2023-05-03T18:20:59.885Z,,0,,,10399,completion,,,,,false,,,,345894,345913,335497,335488,335514,345922,8,400,,,
trial,html.Screen,4_100_0,2023-05-03T18:21:02.476Z,,0,3,,2580,response,ISIC_0033805.JPG,,ISIC_0027072.JPG,ISIC_0027072.JPG,false,0,keypress(z),500,348486,348485,345905,345895,345922,348522,8,400,1,,ISIC_0033805.JPG
break,html.Screen,4_100_1,2023-05-03T18:21:02.477Z,,0,,,NaN,,,,,,false,,,,348487,348487,,348486,,348522,8,400,,,
break_continue,html.Screen,4_100_2,2023-05-03T18:21:02.477Z,,0,,,NaN,,,,,,false,,,,348487,348487,,348487,,348522,8,400,,,
sequence,flow.Sequence,4_100,2023-05-03T18:21:02.478Z,,0,,,2565,completion,,,,,false,,,,348487,348487,345905,345895,345922,348522,8,400,,,
trial,html.Screen,4_101_0,2023-05-03T18:21:04.635Z,,0,3,,2140,response,ISIC_1418304.JPG,,ISIC_0003767.JPG,ISIC_1418304.JPG,false,1,keypress(m),500,350645,350645,348505,348487,348522,350680,8,400,2,,ISIC_0003767.JPG
break,html.Screen,4_101_1,2023-05-03T18:21:04.636Z,,0,,,NaN,,,,,,false,,,,350646,350646,,350645,,350680,8,400,,,
break_continue,html.Screen,4_101_2,2023-05-03T18:21:04.637Z,,0,,,NaN,,,,,,false,,,,350646,350646,,350646,,350680,8,400,,,
sequence,flow.Sequence,4_101,2023-05-03T18:21:04.637Z,,0,,,2124,completion,,,,,false,,,,350647,350646,348505,348487,348522,350680,8,400,,,
trial,html.Screen,4_102_0,2023-05-03T18:21:06.706Z,,0,3,,2051.000000000058,response,ISIC_0013342.JPG,,ISIC_6806545.JPG,ISIC_6806545.JPG,false,0,keypress(z),500,352716,352715.00000000006,350664,350647,350680,352747,8,400,3,,ISIC_0013342.JPG
break,html.Screen,4_102_1,2023-05-03T18:21:06.707Z,,0,,,NaN,,,,,,false,,,,352717,352717,,352716,,352747,8,400,,,
break_continue,html.Screen,4_102_2,2023-05-03T18:21:06.707Z,,0,,,NaN,,,,,,false,,,,352717,352717,,352717,,352747,8,400,,,
sequence,flow.Sequence,4_102,2023-05-03T18:21:06.708Z,,0,,,2037,completion,,,,,false,,,,352717,352717,350664,350647,350680,352747,8,400,,,
trial,html.Screen,4_103_0,2023-05-03T18:21:08.968Z,,0,3,,2247,response,ISIC_0015264.JPG,,ISIC_0000440.JPG,ISIC_0015264.JPG,false,1,keypress(m),500,354978,354978,352731,352717,352747,355013,8,400,4,,ISIC_0000440.JPG
break,html.Screen,4_103_1,2023-05-03T18:21:08.970Z,,0,,,NaN,,,,,,false,,,,354979,354979,,354978,,355013,8,400,,,
break_continue,html.Screen,4_103_2,2023-05-03T18:21:08.970Z,,0,,,NaN,,,,,,false,,,,354980,354980,,354979,,355013,8,400,,,
sequence,flow.Sequence,4_103,2023-05-03T18:21:08.970Z,,0,,,2233,completion,,,,,false,,,,354980,354980,352731,352717,352747,355013,8,400,,,
trial,html.Screen,4_104_0,2023-05-03T18:21:11.489Z,,0,3,,2502,response,ISIC_1135213.JPG,,ISIC_9574101.JPG,ISIC_9574101.JPG,false,0,keypress(z),500,357499,357499,354997,354980,355013,357530,8,400,5,,ISIC_1135213.JPG
break,html.Screen,4_104_1,2023-05-03T18:21:11.491Z,,0,,,NaN,,,,,,false,,,,357500,357500,,357500,,357530,8,400,,,
break_continue,html.Screen,4_104_2,2023-05-03T18:21:11.491Z,,0,,,NaN,,,,,,false,,,,357501.00000000006,357501.00000000006,,357500,,357530,8,400,,,
sequence,flow.Sequence,4_104,2023-05-03T18:21:11.491Z,,0,,,2488.000000000058,completion,,,,,false,,,,357501.00000000006,357501.00000000006,354997,354980,355013,357530,8,400,,,
trial,html.Screen,4_105_0,2023-05-03T18:21:13.852Z,,0,3,,2347,response,ISIC_0034236.JPG,,ISIC_4259290.JPG,ISIC_0034236.JPG,false,1,keypress(m),500,359862,359861,357514,357501.00000000006,357530,359881,8,400,6,,ISIC_4259290.JPG
break,html.Screen,4_105_1,2023-05-03T18:21:13.853Z,,0,,,NaN,,,,,,false,,,,359863,359863,,359862,,359881,8,400,,,
break_continue,html.Screen,4_105_2,2023-05-03T18:21:13.853Z,,0,,,NaN,,,,,,false,,,,359863,359863,,359863,,359881,8,400,,,
sequence,flow.Sequence,4_105,2023-05-03T18:21:13.853Z,,0,,,2333,completion,,,,,false,,,,359863,359863,357514,357501.00000000006,357530,359881,8,400,,,
trial,html.Screen,4_106_0,2023-05-03T18:21:16.256Z,,0,3,,2400,response,ISIC_6320497.JPG,,ISIC_3649766.JPG,ISIC_3649766.JPG,false,0,keypress(z),500,362266,362265,359865,359863,359881,362297,8,400,7,,ISIC_6320497.JPG
break,html.Screen,4_106_1,2023-05-03T18:21:16.257Z,,0,,,NaN,,,,,,false,,,,362267,362266,,362266,,362297,8,400,,,
break_continue,html.Screen,4_106_2,2023-05-03T18:21:16.257Z,,0,,,NaN,,,,,,false,,,,362267,362267,,362267,,362297,8,400,,,
sequence,flow.Sequence,4_106,2023-05-03T18:21:16.257Z,,0,,,2386,completion,,,,,false,,,,362267,362267,359865,359863,359881,362297,8,400,,,
trial,html.Screen,4_107_0,2023-05-03T18:21:18.390Z,,0,3,,2119.000000000058,response,ISIC_1957685.JPG,,ISIC_0006772.JPG,ISIC_1957685.JPG,false,1,keypress(m),500,364400.00000000006,364400.00000000006,362281,362267,362297,364431,8,400,8,,ISIC_0006772.JPG
break,html.Screen,4_107_1,2023-05-03T18:21:18.392Z,,0,,,NaN,,,,,,false,,,,364401,364401,,364400.00000000006,,364431,8,400,,,
break_continue,html.Screen,4_107_2,2023-05-03T18:21:18.392Z,,0,,,NaN,,,,,,false,,,,364402,364402,,364401,,364431,8,400,,,
sequence,flow.Sequence,4_107,2023-05-03T18:21:18.392Z,,0,,,2105,completion,,,,,false,,,,364402,364402,362281,362267,362297,364431,8,400,,,
trial,html.Screen,4_108_0,2023-05-03T18:21:21.481Z,,0,3,,3077,response,ISIC_0065796.JPG,,ISIC_1974281.JPG,ISIC_0065796.JPG,false,1,keypress(m),500,367491,367491,364414,364402,364431,367514,8,400,9,,ISIC_1974281.JPG
break,html.Screen,4_108_1,2023-05-03T18:21:21.483Z,,0,,,NaN,,,,,,false,,,,367492,367492,,367492,,367514,8,400,,,
break_continue,html.Screen,4_108_2,2023-05-03T18:21:21.483Z,,0,,,NaN,,,,,,false,,,,367493,367493,,367493,,367514,8,400,,,
sequence,flow.Sequence,4_108,2023-05-03T18:21:21.483Z,,0,,,3062,completion,,,,,false,,,,367493,367493,364414,364402,364431,367514,8,400,,,
trial,html.Screen,4_109_0,2023-05-03T18:21:23.717Z,,0,3,,2229,response,ISIC_0029209.JPG,,ISIC_1177505.JPG,ISIC_1177505.JPG,false,0,keypress(z),500,369727.00000000006,369726,367497,367493,367514,369747,8,400,10,,ISIC_0029209.JPG
break,html.Screen,4_109_1,2023-05-03T18:21:23.718Z,,0,,,NaN,,,,,,false,,,,369727.00000000006,369727.00000000006,,369727.00000000006,,369747,8,400,,,
break_continue,html.Screen,4_109_2,2023-05-03T18:21:23.718Z,,0,,,NaN,,,,,,false,,,,369728,369728,,369728,,369747,8,400,,,
sequence,flow.Sequence,4_109,2023-05-03T18:21:23.718Z,,0,,,2214,completion,,,,,false,,,,369728,369728,367497,367493,367514,369747,8,400,,,
trial,html.Screen,4_110_0,2023-05-03T18:21:25.784Z,,0,3,,2062,response,ISIC_0012722.JPG,,ISIC_0001139.JPG,ISIC_0012722.JPG,false,1,keypress(m),500,371794,371793,369731,369728,369747,371822,8,400,11,,ISIC_0001139.JPG
break,html.Screen,4_110_1,2023-05-03T18:21:25.785Z,,0,,,NaN,,,,,,false,,,,371795,371795,,371794,,371822,8,400,,,
break_continue,html.Screen,4_110_2,2023-05-03T18:21:25.786Z,,0,,,NaN,,,,,,false,,,,371796,371795,,371795,,371822,8,400,,,
sequence,flow.Sequence,4_110,2023-05-03T18:21:25.786Z,,0,,,2048,completion,,,,,false,,,,371796,371795,369731,369728,369747,371822,8,400,,,
trial,html.Screen,4_111_0,2023-05-03T18:21:29.984Z,,0,3,,4187,response,ISIC_4912684.JPG,,ISIC_5717433.JPG,ISIC_4912684.JPG,false,1,keypress(m),500,375994,375993,371806,371796,371822,376031,8,400,12,,ISIC_5717433.JPG
break,html.Screen,4_111_1,2023-05-03T18:21:29.985Z,,0,,,NaN,,,,,,false,,,,375995,375995,,375994,,376031,8,400,,,
break_continue,html.Screen,4_111_2,2023-05-03T18:21:29.985Z,,0,,,NaN,,,,,,false,,,,375995,375995,,375995,,376031,8,400,,,
sequence,flow.Sequence,4_111,2023-05-03T18:21:29.985Z,,0,,,4173,completion,,,,,false,,,,375995,375995,371806,371796,371822,376031,8,400,,,
trial,html.Screen,4_112_0,2023-05-03T18:21:32.991Z,,0,3,,2986,response,ISIC_0032717.JPG,,ISIC_0055054.JPG,ISIC_0032717.JPG,false,1,keypress(m),500,379001.00000000006,379000,376014,375995,376031,379031,8,400,13,,ISIC_0055054.JPG
break,html.Screen,4_112_1,2023-05-03T18:21:32.992Z,,0,,,NaN,,,,,,false,,,,379002,379001.00000000006,,379001.00000000006,,379031,8,400,,,
break_continue,html.Screen,4_112_2,2023-05-03T18:21:32.992Z,,0,,,NaN,,,,,,false,,,,379002,379002,,379002,,379031,8,400,,,
sequence,flow.Sequence,4_112,2023-05-03T18:21:32.992Z,,0,,,2971,completion,,,,,false,,,,379002,379002,376014,375995,376031,379031,8,400,,,
trial,html.Screen,4_113_0,2023-05-03T18:21:36.150Z,,0,3,,3145,response,ISIC_5501795.JPG,,ISIC_0032587.JPG,ISIC_5501795.JPG,false,1,keypress(m),500,382160,382159,379014,379002,379031,382197,8,400,14,,ISIC_0032587.JPG
break,html.Screen,4_113_1,2023-05-03T18:21:36.151Z,,0,,,NaN,,,,,,false,,,,382161,382161,,382160,,382197,8,400,,,
break_continue,html.Screen,4_113_2,2023-05-03T18:21:36.152Z,,0,,,NaN,,,,,,false,,,,382161,382161,,382161,,382197,8,400,,,
sequence,flow.Sequence,4_113,2023-05-03T18:21:36.152Z,,0,,,3130,completion,,,,,false,,,,382162.00000000006,382161,379014,379002,379031,382197,8,400,,,
trial,html.Screen,4_114_0,2023-05-03T18:21:38.900Z,,0,3,,2728,response,ISIC_0027085.JPG,,ISIC_0059181.JPG,ISIC_0027085.JPG,false,1,keypress(m),500,384910,384909,382181,382162.00000000006,382197,384947,8,400,15,,ISIC_0059181.JPG
break,html.Screen,4_114_1,2023-05-03T18:21:38.901Z,,0,,,NaN,,,,,,false,,,,384911,384910,,384910,,384947,8,400,,,
break_continue,html.Screen,4_114_2,2023-05-03T18:21:38.901Z,,0,,,NaN,,,,,,false,,,,384911,384911,,384911,,384947,8,400,,,
sequence,flow.Sequence,4_114,2023-05-03T18:21:38.901Z,,0,,,2714,completion,,,,,false,,,,384911,384911,382181,382162.00000000006,382197,384947,8,400,,,
trial,html.Screen,4_115_0,2023-05-03T18:21:41.361Z,,0,3,,2439,response,ISIC_4175400.JPG,,ISIC_0070585.JPG,ISIC_0070585.JPG,false,0,keypress(z),500,387370,387370,384931,384911,384947,387397,8,400,16,,ISIC_4175400.JPG
break,html.Screen,4_115_1,2023-05-03T18:21:41.362Z,,0,,,NaN,,,,,,false,,,,387372,387371,,387371,,387397,8,400,,,
break_continue,html.Screen,4_115_2,2023-05-03T18:21:41.362Z,,0,,,NaN,,,,,,false,,,,387372,387372,,387372,,387397,8,400,,,
sequence,flow.Sequence,4_115,2023-05-03T18:21:41.362Z,,0,,,2425,completion,,,,,false,,,,387372,387372,384931,384911,384947,387397,8,400,,,
trial,html.Screen,4_116_0,2023-05-03T18:21:43.826Z,,0,3,,2454.000000000058,response,ISIC_0068544.JPG,,ISIC_9529971.JPG,ISIC_0068544.JPG,false,1,keypress(m),500,389836,389835.00000000006,387381,387372,387397,389864,8,400,17,,ISIC_9529971.JPG
break,html.Screen,4_116_1,2023-05-03T18:21:43.827Z,,0,,,NaN,,,,,,false,,,,389837,389837,,389836,,389864,8,400,,,
break_continue,html.Screen,4_116_2,2023-05-03T18:21:43.827Z,,0,,,NaN,,,,,,false,,,,389837,389837,,389837,,389864,8,400,,,
sequence,flow.Sequence,4_116,2023-05-03T18:21:43.827Z,,0,,,2440,completion,,,,,false,,,,389837,389837,387381,387372,387397,389864,8,400,,,
trial,html.Screen,4_117_0,2023-05-03T18:21:46.268Z,,0,3,,2431,response,ISIC_2276141.JPG,,ISIC_8325226.JPG,ISIC_8325226.JPG,false,0,keypress(z),500,392278,392277,389846,389837,389864,392296,8,400,18,,ISIC_2276141.JPG
break,html.Screen,4_117_1,2023-05-03T18:21:46.269Z,,0,,,NaN,,,,,,false,,,,392279,392279,,392278,,392296,8,400,,,
break_continue,html.Screen,4_117_2,2023-05-03T18:21:46.269Z,,0,,,NaN,,,,,,false,,,,392279,392279,,392279,,392296,8,400,,,
sequence,flow.Sequence,4_117,2023-05-03T18:21:46.269Z,,0,,,2415,completion,,,,,false,,,,392279,392279,389846,389837,389864,392296,8,400,,,
trial,html.Screen,4_118_0,2023-05-03T18:21:49.890Z,,0,3,,3618,response,ISIC_0063289.JPG,,ISIC_2500254.JPG,ISIC_2500254.JPG,false,0,keypress(z),500,395900.00000000006,395899,392281,392280.00000000006,392296,395931,8,400,19,,ISIC_0063289.JPG
break,html.Screen,4_118_1,2023-05-03T18:21:49.891Z,,0,,,NaN,,,,,,false,,,,395901,395901,,395900.00000000006,,395931,8,400,,,
break_continue,html.Screen,4_118_2,2023-05-03T18:21:49.891Z,,0,,,NaN,,,,,,false,,,,395901,395901,,395901,,395931,8,400,,,
sequence,flow.Sequence,4_118,2023-05-03T18:21:49.892Z,,0,,,3605,completion,,,,,false,,,,395902,395901,392281,392279,392296,395931,8,400,,,
trial,html.Screen,4_119_0,2023-05-03T18:21:53.452Z,,0,3,,3547,response,ISIC_4412555.JPG,,ISIC_9019691.JPG,ISIC_4412555.JPG,false,1,keypress(m),500,399462,399461,395914,395902,395931,399497,8,400,20,,ISIC_9019691.JPG
break,html.Screen,4_119_1,2023-05-03T18:21:53.453Z,,0,,,NaN,,,,,,false,,,,399463,399462,,399462,,399497,8,400,,,
break_continue,html.Screen,4_119_2,2023-05-03T18:21:53.453Z,,0,,,NaN,,,,,,false,,,,399463,399463,,399463,,399497,8,400,,,
sequence,flow.Sequence,4_119,2023-05-03T18:21:53.453Z,,0,,,3532,completion,,,,,false,,,,399463,399463,395914,395902,395931,399497,8,400,,,
trial,html.Screen,4_120_0,2023-05-03T18:21:56.953Z,,0,3,,3482,response,ISIC_0059432.JPG,,ISIC_3506204.JPG,ISIC_3506204.JPG,false,0,keypress(z),500,402963,402963,399481,399463,399497,402997,8,400,21,,ISIC_0059432.JPG
break,html.Screen,4_120_1,2023-05-03T18:21:56.954Z,,0,,,NaN,,,,,,false,,,,402965.00000000006,402964,,402964,,402997,8,400,,,
break_continue,html.Screen,4_120_2,2023-05-03T18:21:56.955Z,,0,,,NaN,,,,,,false,,,,402965.00000000006,402965.00000000006,,402965.00000000006,,402997,8,400,,,
sequence,flow.Sequence,4_120,2023-05-03T18:21:56.955Z,,0,,,3468.000000000058,completion,,,,,false,,,,402965.00000000006,402965.00000000006,399481,399463,399497,402997,8,400,,,
trial,html.Screen,4_121_0,2023-05-03T18:21:59.073Z,,0,3,,2102,response,ISIC_0027253.JPG,,ISIC_1681964.JPG,ISIC_0027253.JPG,false,1,keypress(m),500,405083,405082,402980,402965.00000000006,402997,405106,8,400,22,,ISIC_1681964.JPG
break,html.Screen,4_121_1,2023-05-03T18:21:59.074Z,,0,,,NaN,,,,,,false,,,,405084,405084,,405083,,405106,8,400,,,
break_continue,html.Screen,4_121_2,2023-05-03T18:21:59.074Z,,0,,,NaN,,,,,,false,,,,405084,405084,,405084,,405106,8,400,,,
sequence,flow.Sequence,4_121,2023-05-03T18:21:59.074Z,,0,,,2087,completion,,,,,false,,,,405084,405084,402980,402965.00000000006,402997,405106,8,400,,,
trial,html.Screen,4_122_0,2023-05-03T18:22:01.400Z,,0,3,,2321,response,ISIC_0055240.JPG,,ISIC_0357043.JPG,ISIC_0357043.JPG,false,0,keypress(z),500,407410,407410,405089,405085.00000000006,405106,407447,8,400,23,,ISIC_0055240.JPG
break,html.Screen,4_122_1,2023-05-03T18:22:01.401Z,,0,,,NaN,,,,,,false,,,,407411,407411,,407410,,407447,8,400,,,
break_continue,html.Screen,4_122_2,2023-05-03T18:22:01.401Z,,0,,,NaN,,,,,,false,,,,407411,407411,,407411,,407447,8,400,,,
sequence,flow.Sequence,4_122,2023-05-03T18:22:01.401Z,,0,,,2305,completion,,,,,false,,,,407411,407411,405089,405085.00000000006,405106,407447,8,400,,,
trial,html.Screen,4_123_0,2023-05-03T18:22:03.710Z,,0,3,,2288,response,ISIC_0060148.JPG,,ISIC_0065341.JPG,ISIC_0060148.JPG,false,1,keypress(m),500,409720,409719,407431,407412.00000000006,407447,409747,8,400,24,,ISIC_0065341.JPG
break,html.Screen,4_123_1,2023-05-03T18:22:03.711Z,,0,,,NaN,,,,,,false,,,,409721,409721,,409720,,409747,8,400,,,
break_continue,html.Screen,4_123_2,2023-05-03T18:22:03.711Z,,0,,,NaN,,,,,,false,,,,409722.00000000006,409721,,409721,,409747,8,400,,,
sequence,flow.Sequence,4_123,2023-05-03T18:22:03.712Z,,0,,,2274,completion,,,,,false,,,,409722.00000000006,409721,407431,407412.00000000006,407447,409747,8,400,,,
trial,html.Screen,4_124_0,2023-05-03T18:22:06.829Z,,0,3,,3107,response,ISIC_0027882.JPG,,ISIC_1658623.JPG,ISIC_0027882.JPG,false,1,keypress(m),500,412839,412838,409731,409722.00000000006,409747,412864,8,400,25,,ISIC_1658623.JPG
break,html.Screen,4_124_1,2023-05-03T18:22:06.830Z,,0,,,NaN,,,,,,false,,,,412840.00000000006,412840.00000000006,,412839,,412864,8,400,,,
break_continue,html.Screen,4_124_2,2023-05-03T18:22:06.830Z,,0,,,NaN,,,,,,false,,,,412840.00000000006,412840.00000000006,,412840.00000000006,,412864,8,400,,,
sequence,flow.Sequence,4_124,2023-05-03T18:22:06.830Z,,0,,,3093.000000000058,completion,,,,,false,,,,412840.00000000006,412840.00000000006,409731,409722.00000000006,409747,412864,8,400,,,
trial,html.Screen,4_125_0,2023-05-03T18:22:10.748Z,,0,3,,3911,response,ISIC_7139908.JPG,,ISIC_9241599.JPG,ISIC_7139908.JPG,false,1,keypress(m),500,416759,416758,412847,412840.00000000006,412864,416781,8,400,26,,ISIC_9241599.JPG
break,html.Screen,4_125_1,2023-05-03T18:22:10.749Z,,0,,,NaN,,,,,,false,,,,416760,416759,,416759,,416781,8,400,,,
break_continue,html.Screen,4_125_2,2023-05-03T18:22:10.750Z,,0,,,NaN,,,,,,false,,,,416760,416760,,416760,,416781,8,400,,,
sequence,flow.Sequence,4_125,2023-05-03T18:22:10.750Z,,0,,,3896,completion,,,,,false,,,,416760,416760,412847,412840.00000000006,412864,416781,8,400,,,
trial,html.Screen,4_126_0,2023-05-03T18:22:13.731Z,,0,3,,2976,response,ISIC_0060233.JPG,,ISIC_7806926.JPG,ISIC_7806926.JPG,false,0,keypress(z),500,419741,419740,416764,416760,416781,419764,8,400,27,,ISIC_0060233.JPG
break,html.Screen,4_126_1,2023-05-03T18:22:13.732Z,,0,,,NaN,,,,,,false,,,,419742,419741,,419741,,419764,8,400,,,
break_continue,html.Screen,4_126_2,2023-05-03T18:22:13.732Z,,0,,,NaN,,,,,,false,,,,419742,419742,,419742,,419764,8,400,,,
sequence,flow.Sequence,4_126,2023-05-03T18:22:13.732Z,,0,,,2961,completion,,,,,false,,,,419742,419742,416764,416760,416781,419764,8,400,,,
trial,html.Screen,4_127_0,2023-05-03T18:22:15.854Z,,0,3,,2116,response,ISIC_0011855.JPG,,ISIC_0033953.JPG,ISIC_0011855.JPG,false,1,keypress(m),500,421864.00000000006,421863,419747,419742,419764,421897,8,400,28,,ISIC_0033953.JPG
break,html.Screen,4_127_1,2023-05-03T18:22:15.854Z,,0,,,NaN,,,,,,false,,,,421865,421864.00000000006,,421864.00000000006,,421897,8,400,,,
break_continue,html.Screen,4_127_2,2023-05-03T18:22:15.855Z,,0,,,NaN,,,,,,false,,,,421865,421865,,421865,,421897,8,400,,,
sequence,flow.Sequence,4_127,2023-05-03T18:22:15.855Z,,0,,,2101,completion,,,,,false,,,,421865,421865,419747,419742,419764,421897,8,400,,,
trial,html.Screen,4_128_0,2023-05-03T18:22:18.987Z,,0,3,,3115,response,ISIC_1595103.JPG,,ISIC_8713330.JPG,ISIC_8713330.JPG,false,0,keypress(z),500,424997,424996,421881,421865,421897,425031,8,400,29,,ISIC_1595103.JPG
break,html.Screen,4_128_1,2023-05-03T18:22:18.988Z,,0,,,NaN,,,,,,false,,,,424998,424997,,424997,,425031,8,400,,,
break_continue,html.Screen,4_128_2,2023-05-03T18:22:18.988Z,,0,,,NaN,,,,,,false,,,,424998,424998,,424998,,425031,8,400,,,
sequence,flow.Sequence,4_128,2023-05-03T18:22:18.988Z,,0,,,3101,completion,,,,,false,,,,424998,424998,421881,421865,421897,425031,8,400,,,
trial,html.Screen,4_129_0,2023-05-03T18:22:21.302Z,,0,3,,2298,response,ISIC_6228963.JPG,,ISIC_7850786.JPG,ISIC_6228963.JPG,false,1,keypress(m),500,427312,427312,425014,424998,425031,427348,8,400,30,,ISIC_7850786.JPG
break,html.Screen,4_129_1,2023-05-03T18:22:21.303Z,,0,,,NaN,,,,,,false,,,,427313,427313,,427312,,427348,8,400,,,
break_continue,html.Screen,4_129_2,2023-05-03T18:22:21.303Z,,0,,,NaN,,,,,,false,,,,427314,427314,,427313,,427348,8,400,,,
sequence,flow.Sequence,4_129,2023-05-03T18:22:21.304Z,,0,,,2283,completion,,,,,false,,,,427314,427314,425014,424998,425031,427348,8,400,,,
trial,html.Screen,4_130_0,2023-05-03T18:22:24.820Z,,0,3,,3498,response,ISIC_0033137.JPG,,ISIC_0066935.JPG,ISIC_0066935.JPG,false,0,keypress(z),500,430830,430829,427331,427314,427348,430856,8,400,31,,ISIC_0033137.JPG
break,html.Screen,4_130_1,2023-05-03T18:22:24.821Z,,0,,,NaN,,,,,,false,,,,430831,430831,,430830,,430856,8,400,,,
break_continue,html.Screen,4_130_2,2023-05-03T18:22:24.821Z,,0,,,NaN,,,,,,false,,,,430831,430831,,430831,,430856,8,400,,,
sequence,flow.Sequence,4_130,2023-05-03T18:22:24.821Z,,0,,,3483,completion,,,,,false,,,,430831,430831,427331,427314,427348,430856,8,400,,,
trial,html.Screen,4_131_0,2023-05-03T18:22:26.914Z,,0,3,,2085.000000000058,response,ISIC_7972996.JPG,,ISIC_9495211.JPG,ISIC_7972996.JPG,false,1,keypress(m),500,432924.00000000006,432924.00000000006,430839,430831,430856,432956,8,400,32,,ISIC_9495211.JPG
break,html.Screen,4_131_1,2023-05-03T18:22:26.915Z,,0,,,NaN,,,,,,false,,,,432925,432925,,432925,,432956,8,400,,,
break_continue,html.Screen,4_131_2,2023-05-03T18:22:26.915Z,,0,,,NaN,,,,,,false,,,,432926,432926,,432925,,432956,8,400,,,
sequence,flow.Sequence,4_131,2023-05-03T18:22:26.916Z,,0,,,2070,completion,,,,,false,,,,432926,432926,430839,430831,430856,432956,8,400,,,
trial,html.Screen,4_132_0,2023-05-03T18:22:29.155Z,,0,3,,2226,response,ISIC_0028696.JPG,,ISIC_0025778.JPG,ISIC_0025778.JPG,false,0,keypress(z),500,435166,435165,432939,432926,432956,435197,8,400,33,,ISIC_0028696.JPG
break,html.Screen,4_132_1,2023-05-03T18:22:29.156Z,,0,,,NaN,,,,,,false,,,,435167.00000000006,435166,,435166,,435197,8,400,,,
break_continue,html.Screen,4_132_2,2023-05-03T18:22:29.157Z,,0,,,NaN,,,,,,false,,,,435167.00000000006,435167.00000000006,,435167.00000000006,,435197,8,400,,,
sequence,flow.Sequence,4_132,2023-05-03T18:22:29.157Z,,0,,,2211.000000000058,completion,,,,,false,,,,435167.00000000006,435167.00000000006,432939,432926,432956,435197,8,400,,,
trial,html.Screen,4_133_0,2023-05-03T18:22:31.618Z,,0,3,,2446,response,ISIC_0026150.JPG,,ISIC_1269461.JPG,ISIC_0026150.JPG,false,1,keypress(m),500,437628,437627,435181,435167.00000000006,435197,437664,8,400,34,,ISIC_1269461.JPG
break,html.Screen,4_133_1,2023-05-03T18:22:31.619Z,,0,,,NaN,,,,,,false,,,,437629,437629,,437628,,437664,8,400,,,
break_continue,html.Screen,4_133_2,2023-05-03T18:22:31.619Z,,0,,,NaN,,,,,,false,,,,437629,437629,,437629,,437664,8,400,,,
sequence,flow.Sequence,4_133,2023-05-03T18:22:31.619Z,,0,,,2432,completion,,,,,false,,,,437629,437629,435181,435167.00000000006,435197,437664,8,400,,,
trial,html.Screen,4_134_0,2023-05-03T18:22:34.181Z,,0,3,,2542,response,ISIC_0061158.JPG,,ISIC_1976571.JPG,ISIC_1976571.JPG,false,0,keypress(z),500,440191.00000000006,440190,437648,437629,437664,440214,8,400,35,,ISIC_0061158.JPG
break,html.Screen,4_134_1,2023-05-03T18:22:34.181Z,,0,,,NaN,,,,,,false,,,,440192,440192,,440191.00000000006,,440214,8,400,,,
break_continue,html.Screen,4_134_2,2023-05-03T18:22:34.182Z,,0,,,NaN,,,,,,false,,,,440192,440192,,440192,,440214,8,400,,,
sequence,flow.Sequence,4_134,2023-05-03T18:22:34.182Z,,0,,,2528,completion,,,,,false,,,,440192,440192,437648,437629,437664,440214,8,400,,,
trial,html.Screen,4_135_0,2023-05-03T18:22:36.664Z,,0,3,,2477.000000000058,response,ISIC_4663883.JPG,,ISIC_0055140.JPG,ISIC_4663883.JPG,false,1,keypress(m),500,442675,442674.00000000006,440197,440192,440214,442698,8,400,36,,ISIC_0055140.JPG
break,html.Screen,4_135_1,2023-05-03T18:22:36.665Z,,0,,,NaN,,,,,,false,,,,442675,442675,,442675,,442698,8,400,,,
break_continue,html.Screen,4_135_2,2023-05-03T18:22:36.665Z,,0,,,NaN,,,,,,false,,,,442676,442676,,442676,,442698,8,400,,,
sequence,flow.Sequence,4_135,2023-05-03T18:22:36.666Z,,0,,,2462,completion,,,,,false,,,,442676,442676,440197,440192,440214,442698,8,400,,,
trial,html.Screen,4_136_0,2023-05-03T18:22:38.974Z,,0,3,,2303.000000000058,response,ISIC_0002549.JPG,,ISIC_8814612.JPG,ISIC_8814612.JPG,false,0,keypress(z),500,444984.00000000006,444984.00000000006,442681,442676,442698,445014,8,400,37,,ISIC_0002549.JPG
break,html.Screen,4_136_1,2023-05-03T18:22:38.975Z,,0,,,NaN,,,,,,false,,,,444986,444985,,444985,,445014,8,400,,,
break_continue,html.Screen,4_136_2,2023-05-03T18:22:38.976Z,,0,,,NaN,,,,,,false,,,,444986,444986,,444986,,445014,8,400,,,
sequence,flow.Sequence,4_136,2023-05-03T18:22:38.976Z,,0,,,2288,completion,,,,,false,,,,444986,444986,442681,442676,442698,445014,8,400,,,
trial,html.Screen,4_137_0,2023-05-03T18:22:41.661Z,,0,3,,2673,response,ISIC_9864402.JPG,,ISIC_9806131.JPG,ISIC_9864402.JPG,false,1,keypress(m),500,447672,447671,444998,444986,445014,447689,8,400,38,,ISIC_9806131.JPG
break,html.Screen,4_137_1,2023-05-03T18:22:41.662Z,,0,,,NaN,,,,,,false,,,,447673,447672,,447672,,447689,8,400,,,
break_continue,html.Screen,4_137_2,2023-05-03T18:22:41.663Z,,0,,,NaN,,,,,,false,,,,447673,447673,,447673,,447689,8,400,,,
sequence,flow.Sequence,4_137,2023-05-03T18:22:41.663Z,,0,,,2659,completion,,,,,false,,,,447673,447673,444998,444986,445014,447689,8,400,,,
trial,html.Screen,4_138_0,2023-05-03T18:22:45.415Z,,0,3,,3750,response,ISIC_4732241.JPG,,ISIC_0063516.JPG,ISIC_0063516.JPG,false,0,keypress(z),500,451426,451425,447675,447673,447689,451447,8,400,39,,ISIC_4732241.JPG
break,html.Screen,4_138_1,2023-05-03T18:22:45.416Z,,0,,,NaN,,,,,,false,,,,451427,451426,,451426,,451447,8,400,,,
break_continue,html.Screen,4_138_2,2023-05-03T18:22:45.417Z,,0,,,NaN,,,,,,false,,,,451427,451427,,451427,,451447,8,400,,,
sequence,flow.Sequence,4_138,2023-05-03T18:22:45.417Z,,0,,,3738,completion,,,,,false,,,,451427,451427,447675,447673,447689,451447,8,400,,,
trial,html.Screen,4_139_0,2023-05-03T18:22:47.982Z,,0,3,,2561,response,ISIC_0012047.JPG,,ISIC_8635889.JPG,ISIC_0012047.JPG,false,1,keypress(m),500,453992,453991,451430,451427,451447,454014,8,400,40,,ISIC_8635889.JPG
break,html.Screen,4_139_1,2023-05-03T18:22:47.983Z,,0,,,NaN,,,,,,false,,,,453993,453993,,453992,,454014,8,400,,,
break_continue,html.Screen,4_139_2,2023-05-03T18:22:47.983Z,,0,,,NaN,,,,,,false,,,,453993,453993,,453993,,454014,8,400,,,
sequence,flow.Sequence,4_139,2023-05-03T18:22:47.983Z,,0,,,2546,completion,,,,,false,,,,453994,453993,451430,451427,451447,454014,8,400,,,
trial,html.Screen,4_140_0,2023-05-03T18:22:50.399Z,,0,3,,2412,response,ISIC_3401777.JPG,,ISIC_3327201.JPG,ISIC_3327201.JPG,false,0,keypress(z),500,456409,456409,453997,453994,454014,456431,8,400,41,,ISIC_3401777.JPG
break,html.Screen,4_140_1,2023-05-03T18:22:50.400Z,,0,,,NaN,,,,,,false,,,,456410,456410,,456409,,456431,8,400,,,
break_continue,html.Screen,4_140_2,2023-05-03T18:22:50.400Z,,0,,,NaN,,,,,,false,,,,456410,456410,,456410,,456431,8,400,,,
sequence,flow.Sequence,4_140,2023-05-03T18:22:50.400Z,,0,,,2396,completion,,,,,false,,,,456411,456410,453997,453994,454014,456431,8,400,,,
trial,html.Screen,4_141_0,2023-05-03T18:22:53.718Z,,0,3,,3314,response,ISIC_0008251.JPG,,ISIC_0027882.JPG,ISIC_0008251.JPG,false,1,keypress(m),500,459729,459728,456414,456411,456431,459756,8,400,42,,ISIC_0027882.JPG
break,html.Screen,4_141_1,2023-05-03T18:22:53.720Z,,0,,,NaN,,,,,,false,,,,459730,459730,,459729,,459756,8,400,,,
break_continue,html.Screen,4_141_2,2023-05-03T18:22:53.720Z,,0,,,NaN,,,,,,false,,,,459730,459730,,459730,,459756,8,400,,,
sequence,flow.Sequence,4_141,2023-05-03T18:22:53.720Z,,0,,,3299,completion,,,,,false,,,,459730,459730,456414,456411,456431,459756,8,400,,,
trial,html.Screen,4_142_0,2023-05-03T18:22:56.121Z,,0,3,,2392,response,ISIC_0024398.JPG,,ISIC_4530249.JPG,ISIC_4530249.JPG,false,0,keypress(z),500,462131,462131,459739,459730,459756,462156,8,400,43,,ISIC_0024398.JPG
break,html.Screen,4_142_1,2023-05-03T18:22:56.122Z,,0,,,NaN,,,,,,false,,,,462133,462132,,462132,,462156,8,400,,,
break_continue,html.Screen,4_142_2,2023-05-03T18:22:56.122Z,,0,,,NaN,,,,,,false,,,,462133,462133,,462133,,462156,8,400,,,
sequence,flow.Sequence,4_142,2023-05-03T18:22:56.123Z,,0,,,2377,completion,,,,,false,,,,462133,462133,459739,459730,459756,462156,8,400,,,
trial,html.Screen,4_143_0,2023-05-03T18:22:58.790Z,,0,3,,2661,response,ISIC_0064907.JPG,,ISIC_0033394.JPG,ISIC_0033394.JPG,false,0,keypress(z),500,464800,464800,462139,462133,462156,464831,8,400,44,,ISIC_0064907.JPG
break,html.Screen,4_143_1,2023-05-03T18:22:58.791Z,,0,,,NaN,,,,,,false,,,,464801,464801,,464801,,464831,8,400,,,
break_continue,html.Screen,4_143_2,2023-05-03T18:22:58.791Z,,0,,,NaN,,,,,,false,,,,464801,464801,,464801,,464831,8,400,,,
sequence,flow.Sequence,4_143,2023-05-03T18:22:58.791Z,,0,,,2645,completion,,,,,false,,,,464802,464801,462139,462133,462156,464831,8,400,,,
trial,html.Screen,4_144_0,2023-05-03T18:23:01.022Z,,0,3,,2218,response,ISIC_9331097.JPG,,ISIC_7664137.JPG,ISIC_7664137.JPG,false,0,keypress(z),500,467032,467032,464814,464802,464831,467064,8,400,45,,ISIC_9331097.JPG
break,html.Screen,4_144_1,2023-05-03T18:23:01.023Z,,0,,,NaN,,,,,,false,,,,467034,467033,,467033,,467064,8,400,,,
break_continue,html.Screen,4_144_2,2023-05-03T18:23:01.024Z,,0,,,NaN,,,,,,false,,,,467034,467034,,467034,,467064,8,400,,,
sequence,flow.Sequence,4_144,2023-05-03T18:23:01.024Z,,0,,,2203,completion,,,,,false,,,,467034,467034,464814,464802,464831,467064,8,400,,,
trial,html.Screen,4_145_0,2023-05-03T18:23:05.658Z,,0,3,,4621,response,ISIC_3898738.JPG,,ISIC_2293230.JPG,ISIC_2293230.JPG,false,0,keypress(z),500,471669,471668,467047,467034,467064,471698,8,400,46,,ISIC_3898738.JPG
break,html.Screen,4_145_1,2023-05-03T18:23:05.659Z,,0,,,NaN,,,,,,false,,,,471670,471669,,471669,,471698,8,400,,,
break_continue,html.Screen,4_145_2,2023-05-03T18:23:05.660Z,,0,,,NaN,,,,,,false,,,,471670,471670,,471670,,471698,8,400,,,
sequence,flow.Sequence,4_145,2023-05-03T18:23:05.660Z,,0,,,4606,completion,,,,,false,,,,471670,471670,467047,467034,467064,471698,8,400,,,
trial,html.Screen,4_146_0,2023-05-03T18:23:08.048Z,,0,3,,2378,response,ISIC_0030333.JPG,,ISIC_0046443.JPG,ISIC_0030333.JPG,false,1,keypress(m),500,474058,474058,471680,471671,471698,474089,8,400,47,,ISIC_0046443.JPG
break,html.Screen,4_146_1,2023-05-03T18:23:08.048Z,,0,,,NaN,,,,,,false,,,,474059,474059,,474058,,474089,8,400,,,
break_continue,html.Screen,4_146_2,2023-05-03T18:23:08.049Z,,0,,,NaN,,,,,,false,,,,474059,474059,,474059,,474089,8,400,,,
sequence,flow.Sequence,4_146,2023-05-03T18:23:08.049Z,,0,,,2361,completion,,,,,false,,,,474059,474059,471680,471670,471698,474089,8,400,,,
trial,html.Screen,4_147_0,2023-05-03T18:23:10.130Z,,0,3,,2067,response,ISIC_0060749.JPG,,ISIC_0064006.JPG,ISIC_0064006.JPG,false,0,keypress(z),500,476141,476140,474073,474060,474089,476172,8,400,48,,ISIC_0060749.JPG
break,html.Screen,4_147_1,2023-05-03T18:23:10.131Z,,0,,,NaN,,,,,,false,,,,476142,476141,,476141,,476172,8,400,,,
break_continue,html.Screen,4_147_2,2023-05-03T18:23:10.132Z,,0,,,NaN,,,,,,false,,,,476142,476142,,476142,,476172,8,400,,,
sequence,flow.Sequence,4_147,2023-05-03T18:23:10.132Z,,0,,,2053,completion,,,,,false,,,,476142,476142,474073,474059,474089,476172,8,400,,,
trial,html.Screen,4_148_0,2023-05-03T18:23:12.178Z,,0,3,,2032,response,ISIC_2779787.JPG,,ISIC_0013835.JPG,ISIC_2779787.JPG,false,1,keypress(m),500,478188,478188,476156,476142,476172,478214,8,400,49,,ISIC_0013835.JPG
break,html.Screen,4_148_1,2023-05-03T18:23:12.179Z,,0,,,NaN,,,,,,false,,,,478189,478189,,478189,,478214,8,400,,,
break_continue,html.Screen,4_148_2,2023-05-03T18:23:12.179Z,,0,,,NaN,,,,,,false,,,,478190,478190,,478190,,478214,8,400,,,
sequence,flow.Sequence,4_148,2023-05-03T18:23:12.179Z,,0,,,2018,completion,,,,,false,,,,478190,478190,476156,476142,476172,478214,8,400,,,
trial,html.Screen,4_149_0,2023-05-03T18:23:14.563Z,,0,3,,2375.000000000058,response,ISIC_5884700.JPG,,ISIC_0006750.JPG,ISIC_0006750.JPG,false,0,keypress(z),500,480573.00000000006,480573.00000000006,478198,478190,478214,480598,8,400,50,,ISIC_5884700.JPG
break,html.Screen,4_149_1,2023-05-03T18:23:19.562Z,,0,,,4990,timeout,,,,,false,,,,485573.00000000006,485573,480581,480573.00000000006,480598,485588,8,400,,,
break_continue,html.Screen,4_149_2,2023-05-03T18:23:25.856Z,,0,,,6313,response,,,,,false,continue,keypress(Space),,491867,491886,485573,485573.00000000006,485588,491889,8,400,,,
sequence,flow.Sequence,4_149,2023-05-03T18:23:25.857Z,,0,,,13672,completion,,,,,false,,,,491867,491886,478198,478190,478214,491889,8,400,,,
trial,html.Screen,4_150_0,2023-05-03T18:23:28.045Z,,0,4,,2183,response,ISIC_0028410.JPG,,ISIC_0014222.JPG,ISIC_0014222.JPG,false,0,keypress(z),500,494056,494055,491872,491867,491889,494081,8,400,1,,ISIC_0028410.JPG
break,html.Screen,4_150_1,2023-05-03T18:23:28.046Z,,0,,,NaN,,,,,,false,,,,494057,494057,,494056,,494081,8,400,,,
break_continue,html.Screen,4_150_2,2023-05-03T18:23:28.047Z,,0,,,NaN,,,,,,false,,,,494057,494057,,494057,,494081,8,400,,,
sequence,flow.Sequence,4_150,2023-05-03T18:23:28.047Z,,0,,,2168,completion,,,,,false,,,,494058,494057,491872,491867,491889,494081,8,400,,,
trial,html.Screen,4_151_0,2023-05-03T18:23:30.504Z,,0,4,,2451,response,ISIC_6891226.JPG,,ISIC_0034006.JPG,ISIC_0034006.JPG,false,0,keypress(z),500,496515,496514,494063,494058,494081,496539,8,400,2,,ISIC_6891226.JPG
break,html.Screen,4_151_1,2023-05-03T18:23:30.505Z,,0,,,NaN,,,,,,false,,,,496516,496515,,496515,,496539,8,400,,,
break_continue,html.Screen,4_151_2,2023-05-03T18:23:30.506Z,,0,,,NaN,,,,,,false,,,,496516,496516,,496516,,496539,8,400,,,
sequence,flow.Sequence,4_151,2023-05-03T18:23:30.506Z,,0,,,2435,completion,,,,,false,,,,496516,496516,494063,494058,494081,496539,8,400,,,
trial,html.Screen,4_152_0,2023-05-03T18:23:32.547Z,,0,4,,2035,response,ISIC_0028075.JPG,,ISIC_6208762.JPG,ISIC_0028075.JPG,false,1,keypress(m),500,498558,498557,496522,496516,496539,498581,8,400,3,,ISIC_6208762.JPG
break,html.Screen,4_152_1,2023-05-03T18:23:32.548Z,,0,,,NaN,,,,,,false,,,,498559,498558,,498558,,498581,8,400,,,
break_continue,html.Screen,4_152_2,2023-05-03T18:23:32.548Z,,0,,,NaN,,,,,,false,,,,498559,498559,,498559,,498581,8,400,,,
sequence,flow.Sequence,4_152,2023-05-03T18:23:32.549Z,,0,,,2020,completion,,,,,false,,,,498559,498559,496522,496516,496539,498581,8,400,,,
trial,html.Screen,4_153_0,2023-05-03T18:23:34.844Z,,0,4,,2290,response,ISIC_2647643.JPG,,ISIC_0024297.JPG,ISIC_2647643.JPG,false,1,keypress(m),500,500855,500854,498564,498559,498581,500881,8,400,4,,ISIC_0024297.JPG
break,html.Screen,4_153_1,2023-05-03T18:23:34.845Z,,0,,,NaN,,,,,,false,,,,500856,500856,,500855,,500881,8,400,,,
break_continue,html.Screen,4_153_2,2023-05-03T18:23:34.845Z,,0,,,NaN,,,,,,false,,,,500856,500856,,500856,,500881,8,400,,,
sequence,flow.Sequence,4_153,2023-05-03T18:23:34.846Z,,0,,,2275,completion,,,,,false,,,,500856,500856,498564,498559,498581,500881,8,400,,,
trial,html.Screen,4_154_0,2023-05-03T18:23:37.486Z,,0,4,,2632.000000000058,response,ISIC_0011747.JPG,,ISIC_2341100.JPG,ISIC_2341100.JPG,false,0,keypress(z),500,503497,503496.00000000006,500864,500856,500881,503514,8,400,5,,ISIC_0011747.JPG
break,html.Screen,4_154_1,2023-05-03T18:23:37.487Z,,0,,,NaN,,,,,,false,,,,503498,503497,,503497,,503514,8,400,,,
break_continue,html.Screen,4_154_2,2023-05-03T18:23:37.487Z,,0,,,NaN,,,,,,false,,,,503498,503498,,503498,,503514,8,400,,,
sequence,flow.Sequence,4_154,2023-05-03T18:23:37.487Z,,0,,,2617,completion,,,,,false,,,,503498,503498,500864,500856,500881,503514,8,400,,,
trial,html.Screen,4_155_0,2023-05-03T18:23:40.499Z,,0,4,,3009,response,ISIC_0062235.JPG,,ISIC_4481362.JPG,ISIC_4481362.JPG,false,0,keypress(z),500,506510,506509,503500,503498,503514,506531,8,400,6,,ISIC_0062235.JPG
break,html.Screen,4_155_1,2023-05-03T18:23:40.500Z,,0,,,NaN,,,,,,false,,,,506511,506511,,506510,,506531,8,400,,,
break_continue,html.Screen,4_155_2,2023-05-03T18:23:40.501Z,,0,,,NaN,,,,,,false,,,,506511,506511,,506511,,506531,8,400,,,
sequence,flow.Sequence,4_155,2023-05-03T18:23:40.501Z,,0,,,2997,completion,,,,,false,,,,506511,506511,503500,503498,503514,506531,8,400,,,
trial,html.Screen,4_156_0,2023-05-03T18:23:42.577Z,,0,4,,2073,response,ISIC_9470876.JPG,,ISIC_6052860.JPG,ISIC_9470876.JPG,false,1,keypress(m),500,508587,508587,506514,506511,506531,508619,8,400,7,,ISIC_6052860.JPG
break,html.Screen,4_156_1,2023-05-03T18:23:42.578Z,,0,,,NaN,,,,,,false,,,,508588,508588,,508588,,508619,8,400,,,
break_continue,html.Screen,4_156_2,2023-05-03T18:23:42.578Z,,0,,,NaN,,,,,,false,,,,508589,508589,,508588,,508619,8,400,,,
sequence,flow.Sequence,4_156,2023-05-03T18:23:42.578Z,,0,,,2058,completion,,,,,false,,,,508589,508589,506514,506511,506531,508619,8,400,,,
trial,html.Screen,4_157_0,2023-05-03T18:23:45.013Z,,0,4,,2423,response,ISIC_0030150.JPG,,ISIC_0029205.JPG,ISIC_0030150.JPG,false,1,keypress(m),500,511024,511023,508600,508589,508619,511048,8,400,8,,ISIC_0029205.JPG
break,html.Screen,4_157_1,2023-05-03T18:23:45.014Z,,0,,,NaN,,,,,,false,,,,511025.00000000006,511024,,511024,,511048,8,400,,,
break_continue,html.Screen,4_157_2,2023-05-03T18:23:45.014Z,,0,,,NaN,,,,,,false,,,,511025.00000000006,511025.00000000006,,511025.00000000006,,511048,8,400,,,
