sender,sender_type,sender_id,timestamp,meta,,blockNo,condition,duration,ended_on,img_left,img_reveal,img_right,loser,practice,response,response_action,selection_duration,time_commit,time_end,time_render,time_run,time_show,time_switch,total_blocks,total_trials,trialNo,url,winner
informed_consent,html.Screen,0,2023-05-01T20:28:12.291Z,"{""labjs_version"":""20.2.4"",""labjs_build"":{""flavor"":""production"",""commit"":""f5b4a49f956347addd546a832a3327688c2c0fef""},""location"":""https://run.pavlovia.org/MurrayBennett/melanoma-2afc/?participant=64869"",""userAgent"":""Mozilla/5.0 (Macintosh; Intel Mac OS X 10_15_7) AppleWebKit/605.1.15 (KHTML, like Gecko) Version/15.2 Safari/605.1.15"",""platform"":""MacIntel"",""language"":""en-US"",""locale"":""en-US"",""timeZone"":""America/Chicago"",""timezoneOffset"":300,""screen_width"":1440,""screen_height"":900,""scroll_width"":1440,""scroll_height"":772,""window_innerWidth"":1440,""window_innerHeight"":820,""devicePixelRatio"":2}",,,,8934,response,,,,,,consent,click button,,10931.000000000002,10949,2015,2009,2034,10961,,,,"{""participant"":""64869""}",
Welcome,html.Screen,1,2023-05-01T20:28:22.075Z,,,,irregular,9788,response,,,,,,continue,click button,,20716,20733,10945,10932,10961,20745,,,,,
trial,html.Screen,2_0_0,2023-05-01T20:28:28.385Z,,0,0,,6296,response,ISIC_0061792.JPG,,ISIC_4679428.JPG,ISIC_0061792.JPG,true,1,keypress(m),500,27026,27024,20728,20717,20745,27069,1,6,1,,ISIC_4679428.JPG
sequence,flow.Sequence,2_0,2023-05-01T20:28:28.386Z,,0,,,6279,completion,,,,,true,,,,27026,27024,20728,20717,20745,27069,1,6,,,
trial,html.Screen,2_1_0,2023-05-01T20:28:35.441Z,,0,0,,7035,response,ISIC_0776486.JPG,,ISIC_5199497.JPG,ISIC_5199497.JPG,true,0,keypress(z),500,34081,34080,27045,27027,27069,34112,1,6,2,,ISIC_0776486.JPG
sequence,flow.Sequence,2_1,2023-05-01T20:28:35.441Z,,0,,,7011,completion,,,,,true,,,,34082,34080,27045,27027,27069,34112,1,6,,,
trial,html.Screen,2_2_0,2023-05-01T20:28:44.491Z,,0,0,,9036,response,ISIC_2556187.JPG,,ISIC_8575776.JPG,ISIC_2556187.JPG,true,1,keypress(m),500,43132,43131,34095,34082,34112,43162,1,6,3,,ISIC_8575776.JPG
sequence,flow.Sequence,2_2,2023-05-01T20:28:44.492Z,,0,,,9019,completion,,,,,true,,,,43132,43131,34095,34082,34112,43162,1,6,,,
trial,html.Screen,2_3_0,2023-05-01T20:28:49.474Z,,0,0,,4969.000000000007,response,ISIC_8141769.JPG,,ISIC_9238366.JPG,ISIC_9238366.JPG,true,0,keypress(z),500,48115,48114.00000000001,43145,43133,43162,48146,1,6,4,,ISIC_8141769.JPG
sequence,flow.Sequence,2_3,2023-05-01T20:28:49.475Z,,0,,,4952.000000000007,completion,,,,,true,,,,48115,48114.00000000001,43145,43133,43162,48146,1,6,,,
trial,html.Screen,2_4_0,2023-05-01T20:28:55.386Z,,0,0,,5897,response,ISIC_8949026.JPG,,ISIC_9959593.JPG,ISIC_8949026.JPG,true,1,keypress(m),500,54026,54026,48129,48116,48146,54073,1,6,5,,ISIC_9959593.JPG
sequence,flow.Sequence,2_4,2023-05-01T20:28:55.386Z,,0,,,5880,completion,,,,,true,,,,54027,54026,48129,48115,48146,54073,1,6,,,
trial,html.Screen,2_5_0,2023-05-01T20:28:59.141Z,,0,0,,3735,response,ISIC_0010479.JPG,,ISIC_0460240.JPG,ISIC_0460240.JPG,true,0,keypress(z),500,57782,57781,54046,54027,54073,57813,1,6,6,,ISIC_0010479.JPG
sequence,flow.Sequence,2_5,2023-05-01T20:28:59.142Z,,0,,,3708,completion,,,,,true,,,,57783,57781,54046,54027,54073,57813,1,6,,,
loop,flow.Loop,2,2023-05-01T20:28:59.142Z,,,,,37036,completion,,,,,true,,,,57783,57781,20728,20717,20745,57813,1,6,,,
exp_instructions,html.Screen,3,2023-05-01T20:29:03.523Z,,,,,4383,response,,,,,,continue,keypress(Space),,62164,62179,57796,57783,57813,62196,,,,,
trial,html.Screen,4_0_0,2023-05-01T20:29:07.388Z,,0,1,,3850,response,ISIC_1684127.JPG,,ISIC_2554114.JPG,ISIC_1684127.JPG,false,1,keypress(m),500,66029,66029,62179,62164,62196,66063,8,400,1,,ISIC_2554114.JPG
break,html.Screen,4_0_1,2023-05-01T20:29:07.390Z,,0,,,NaN,,,,,,false,,,,66031,66030,,66030,,66063,8,400,,,
break_continue,html.Screen,4_0_2,2023-05-01T20:29:07.391Z,,0,,,NaN,,,,,,false,,,,66031,66031,,66031,,66063,8,400,,,
sequence,flow.Sequence,4_0,2023-05-01T20:29:07.391Z,,0,,,3835,completion,,,,,false,,,,66032,66031,62179,62164,62196,66063,8,400,,,
trial,html.Screen,4_1_0,2023-05-01T20:29:12.581Z,,0,1,,5175,response,ISIC_0032019.JPG,,ISIC_5993530.JPG,ISIC_5993530.JPG,false,0,keypress(z),500,71222.00000000001,71221,66046,66032,66063,71246,8,400,2,,ISIC_0032019.JPG
break,html.Screen,4_1_1,2023-05-01T20:29:12.583Z,,0,,,NaN,,,,,,false,,,,71224,71223,,71223,,71246,8,400,,,
break_continue,html.Screen,4_1_2,2023-05-01T20:29:12.583Z,,0,,,NaN,,,,,,false,,,,71224,71224,,71224,,71246,8,400,,,
sequence,flow.Sequence,4_1,2023-05-01T20:29:12.583Z,,0,,,5161,completion,,,,,false,,,,71224,71224,66046,66032,66063,71246,8,400,,,
trial,html.Screen,4_2_0,2023-05-01T20:29:16.919Z,,0,1,,4330,response,ISIC_0046908.JPG,,ISIC_0010629.JPG,ISIC_0046908.JPG,false,1,keypress(m),500,75560,75559,71229,71225.00000000001,71246,75596,8,400,3,,ISIC_0010629.JPG
break,html.Screen,4_2_1,2023-05-01T20:29:16.920Z,,0,,,NaN,,,,,,false,,,,75561,75561,,75560,,75596,8,400,,,
break_continue,html.Screen,4_2_2,2023-05-01T20:29:16.921Z,,0,,,NaN,,,,,,false,,,,75562,75562,,75562,,75596,8,400,,,
sequence,flow.Sequence,4_2,2023-05-01T20:29:16.921Z,,0,,,4316,completion,,,,,false,,,,75562,75562,71229,71225.00000000001,71246,75596,8,400,,,
trial,html.Screen,4_3_0,2023-05-01T20:29:21.603Z,,0,1,,4664,response,ISIC_6033222.JPG,,ISIC_0032360.JPG,ISIC_6033222.JPG,false,1,keypress(m),500,80244,80244,75580,75562,75596,80280,8,400,4,,ISIC_0032360.JPG
break,html.Screen,4_3_1,2023-05-01T20:29:21.605Z,,0,,,NaN,,,,,,false,,,,80246,80245,,80245,,80280,8,400,,,
break_continue,html.Screen,4_3_2,2023-05-01T20:29:21.605Z,,0,,,NaN,,,,,,false,,,,80246,80246,,80246,,80280,8,400,,,
sequence,flow.Sequence,4_3,2023-05-01T20:29:21.605Z,,0,,,4650,completion,,,,,false,,,,80246,80246,75580,75562,75596,80280,8,400,,,
trial,html.Screen,4_4_0,2023-05-01T20:29:29.256Z,,0,1,,7634,response,ISIC_6125358.JPG,,ISIC_0001141.JPG,ISIC_6125358.JPG,false,1,keypress(m),500,87897,87897,80263,80247,80280,87930,8,400,5,,ISIC_0001141.JPG
break,html.Screen,4_4_1,2023-05-01T20:29:29.257Z,,0,,,NaN,,,,,,false,,,,87899,87898,,87898,,87930,8,400,,,
break_continue,html.Screen,4_4_2,2023-05-01T20:29:29.258Z,,0,,,NaN,,,,,,false,,,,87899,87899,,87899,,87930,8,400,,,
sequence,flow.Sequence,4_4,2023-05-01T20:29:29.258Z,,0,,,7619,completion,,,,,false,,,,87899,87899,80263,80247,80280,87930,8,400,,,
trial,html.Screen,4_5_0,2023-05-01T20:29:34.126Z,,0,1,,4853,response,ISIC_3762459.JPG,,ISIC_0000553.JPG,ISIC_3762459.JPG,false,1,keypress(m),500,92767,92766,87913,87900,87930,92797,8,400,6,,ISIC_0000553.JPG
break,html.Screen,4_5_1,2023-05-01T20:29:34.127Z,,0,,,NaN,,,,,,false,,,,92768,92768,,92767,,92797,8,400,,,
break_continue,html.Screen,4_5_2,2023-05-01T20:29:34.127Z,,0,,,NaN,,,,,,false,,,,92769,92768,,92768,,92797,8,400,,,
sequence,flow.Sequence,4_5,2023-05-01T20:29:34.127Z,,0,,,4838,completion,,,,,false,,,,92769,92768,87913,87900,87930,92797,8,400,,,
trial,html.Screen,4_6_0,2023-05-01T20:29:38.492Z,,0,1,,4353,response,ISIC_0060955.JPG,,ISIC_3389695.JPG,ISIC_3389695.JPG,false,0,keypress(z),500,97133,97133,92780,92769,92797,97164,8,400,7,,ISIC_0060955.JPG
break,html.Screen,4_6_1,2023-05-01T20:29:38.493Z,,0,,,NaN,,,,,,false,,,,97135,97134,,97134,,97164,8,400,,,
break_continue,html.Screen,4_6_2,2023-05-01T20:29:38.494Z,,0,,,NaN,,,,,,false,,,,97135,97135,,97135,,97164,8,400,,,
sequence,flow.Sequence,4_6,2023-05-01T20:29:38.494Z,,0,,,4338,completion,,,,,false,,,,97135,97135,92780,92769,92797,97164,8,400,,,
trial,html.Screen,4_7_0,2023-05-01T20:29:42.358Z,,0,1,,3852,response,ISIC_0057374.JPG,,ISIC_0055737.JPG,ISIC_0055737.JPG,false,0,keypress(z),500,100999,100999,97147,97135,97164,101030,8,400,8,,ISIC_0057374.JPG
break,html.Screen,4_7_1,2023-05-01T20:29:42.359Z,,0,,,NaN,,,,,,false,,,,101001,101000,,101000,,101030,8,400,,,
break_continue,html.Screen,4_7_2,2023-05-01T20:29:42.360Z,,0,,,NaN,,,,,,false,,,,101001,101001,,101001,,101030,8,400,,,
sequence,flow.Sequence,4_7,2023-05-01T20:29:42.360Z,,0,,,3837,completion,,,,,false,,,,101002,101001,97147,97135,97164,101030,8,400,,,
trial,html.Screen,4_8_0,2023-05-01T20:29:45.656Z,,0,1,,3283,response,ISIC_0046741.JPG,,ISIC_0025305.JPG,ISIC_0025305.JPG,false,0,keypress(z),500,104298,104297,101014,101002,101030,104331,8,400,9,,ISIC_0046741.JPG
break,html.Screen,4_8_1,2023-05-01T20:29:45.657Z,,0,,,NaN,,,,,,false,,,,104299,104299,,104298,,104331,8,400,,,
break_continue,html.Screen,4_8_2,2023-05-01T20:29:45.658Z,,0,,,NaN,,,,,,false,,,,104299,104299,,104299,,104331,8,400,,,
sequence,flow.Sequence,4_8,2023-05-01T20:29:45.658Z,,0,,,3269,completion,,,,,false,,,,104299,104299,101014,101002,101030,104331,8,400,,,
trial,html.Screen,4_9_0,2023-05-01T20:29:50.184Z,,0,1,,4510,response,ISIC_2328829.JPG,,ISIC_4544879.JPG,ISIC_4544879.JPG,false,0,keypress(z),500,108825,108824,104314,104300,104331,108847,8,400,10,,ISIC_2328829.JPG
break,html.Screen,4_9_1,2023-05-01T20:29:50.185Z,,0,,,NaN,,,,,,false,,,,108827,108826.00000000001,,108826.00000000001,,108847,8,400,,,
break_continue,html.Screen,4_9_2,2023-05-01T20:29:50.185Z,,0,,,NaN,,,,,,false,,,,108827,108827,,108827,,108847,8,400,,,
sequence,flow.Sequence,4_9,2023-05-01T20:29:50.186Z,,0,,,4496,completion,,,,,false,,,,108827,108827,104314,104300,104331,108847,8,400,,,
trial,html.Screen,4_10_0,2023-05-01T20:29:57.059Z,,0,1,,6869,response,ISIC_0046642.JPG,,ISIC_0067094.JPG,ISIC_0067094.JPG,false,0,keypress(z),500,115700,115699,108830,108827,108847,115731,8,400,11,,ISIC_0046642.JPG
break,html.Screen,4_10_1,2023-05-01T20:29:57.060Z,,0,,,NaN,,,,,,false,,,,115702,115701.00000000001,,115701.00000000001,,115731,8,400,,,
break_continue,html.Screen,4_10_2,2023-05-01T20:29:57.060Z,,0,,,NaN,,,,,,false,,,,115702,115702,,115702,,115731,8,400,,,
sequence,flow.Sequence,4_10,2023-05-01T20:29:57.061Z,,0,,,6855,completion,,,,,false,,,,115702,115702,108830,108827,108847,115731,8,400,,,
trial,html.Screen,4_11_0,2023-05-01T20:30:00.843Z,,0,1,,3770.0000000000146,response,ISIC_0033250.JPG,,ISIC_0056739.JPG,ISIC_0033250.JPG,false,1,keypress(m),500,119485,119484.00000000001,115714,115702,115731,119514,8,400,12,,ISIC_0056739.JPG
break,html.Screen,4_11_1,2023-05-01T20:30:00.844Z,,0,,,NaN,,,,,,false,,,,119486,119485,,119485,,119514,8,400,,,
break_continue,html.Screen,4_11_2,2023-05-01T20:30:00.844Z,,0,,,NaN,,,,,,false,,,,119486,119486,,119486,,119514,8,400,,,
sequence,flow.Sequence,4_11,2023-05-01T20:30:00.845Z,,0,,,3755,completion,,,,,false,,,,119486,119486,115714,115702,115731,119514,8,400,,,
trial,html.Screen,4_12_0,2023-05-01T20:30:11.424Z,,0,1,,10567,response,ISIC_2376758.JPG,,ISIC_6712342.JPG,ISIC_2376758.JPG,false,1,keypress(m),500,130066,130065,119498,119486,119514,130097,8,400,13,,ISIC_6712342.JPG
break,html.Screen,4_12_1,2023-05-01T20:30:11.425Z,,0,,,NaN,,,,,,false,,,,130067,130067,,130066,,130097,8,400,,,
break_continue,html.Screen,4_12_2,2023-05-01T20:30:11.425Z,,0,,,NaN,,,,,,false,,,,130067,130067,,130067,,130097,8,400,,,
sequence,flow.Sequence,4_12,2023-05-01T20:30:11.426Z,,0,,,10553,completion,,,,,false,,,,130067,130067,119498,119486,119514,130097,8,400,,,
trial,html.Screen,4_13_0,2023-05-01T20:30:18.998Z,,0,1,,7559.000000000029,response,ISIC_5948901.JPG,,ISIC_3481133.JPG,ISIC_5948901.JPG,false,1,keypress(m),500,137640.00000000003,137640.00000000003,130081,130068.00000000001,130097,137664,8,400,14,,ISIC_3481133.JPG
break,html.Screen,4_13_1,2023-05-01T20:30:19.000Z,,0,,,NaN,,,,,,false,,,,137642,137641,,137641,,137664,8,400,,,
break_continue,html.Screen,4_13_2,2023-05-01T20:30:19.000Z,,0,,,NaN,,,,,,false,,,,137642,137642,,137642,,137664,8,400,,,
sequence,flow.Sequence,4_13,2023-05-01T20:30:19.000Z,,0,,,7545,completion,,,,,false,,,,137642,137642,130081,130068.00000000001,130097,137664,8,400,,,
trial,html.Screen,4_14_0,2023-05-01T20:30:22.299Z,,0,1,,3293,response,ISIC_0064633.JPG,,ISIC_0033603.JPG,ISIC_0033603.JPG,false,0,keypress(z),500,140941,140940,137647,137642,137664,140964,8,400,15,,ISIC_0064633.JPG
break,html.Screen,4_14_1,2023-05-01T20:30:22.301Z,,0,,,NaN,,,,,,false,,,,140942,140942,,140941,,140964,8,400,,,
break_continue,html.Screen,4_14_2,2023-05-01T20:30:22.301Z,,0,,,NaN,,,,,,false,,,,140943,140943,,140943,,140964,8,400,,,
sequence,flow.Sequence,4_14,2023-05-01T20:30:22.301Z,,0,,,3279,completion,,,,,false,,,,140943,140943,137647,137642,137664,140964,8,400,,,
trial,html.Screen,4_15_0,2023-05-01T20:30:25.601Z,,0,1,,3294,response,ISIC_4358550.JPG,,ISIC_0027069.JPG,ISIC_4358550.JPG,false,1,keypress(m),500,144243,144242,140948,140943,140964,144265,8,400,16,,ISIC_0027069.JPG
break,html.Screen,4_15_1,2023-05-01T20:30:25.602Z,,0,,,NaN,,,,,,false,,,,144244,144244,,144243,,144265,8,400,,,
break_continue,html.Screen,4_15_2,2023-05-01T20:30:25.602Z,,0,,,NaN,,,,,,false,,,,144244,144244,,144244,,144265,8,400,,,
sequence,flow.Sequence,4_15,2023-05-01T20:30:25.603Z,,0,,,3280,completion,,,,,false,,,,144245,144244,140948,140943,140964,144265,8,400,,,
trial,html.Screen,4_16_0,2023-05-01T20:30:31.276Z,,0,1,,5670,response,ISIC_8575769.JPG,,ISIC_0067412.JPG,ISIC_8575769.JPG,false,1,keypress(m),500,149918,149918,144248,144245,144265,149948,8,400,17,,ISIC_0067412.JPG
break,html.Screen,4_16_1,2023-05-01T20:30:31.277Z,,0,,,NaN,,,,,,false,,,,149919,149919,,149918,,149948,8,400,,,
break_continue,html.Screen,4_16_2,2023-05-01T20:30:31.278Z,,0,,,NaN,,,,,,false,,,,149920.00000000003,149920.00000000003,,149919,,149948,8,400,,,
sequence,flow.Sequence,4_16,2023-05-01T20:30:31.278Z,,0,,,5655.000000000029,completion,,,,,false,,,,149920.00000000003,149920.00000000003,144248,144245,144265,149948,8,400,,,
trial,html.Screen,4_17_0,2023-05-01T20:30:42.790Z,,0,1,,11517,timeout,ISIC_7895093.JPG,,ISIC_0028919.JPG,,false,,,500,161432.00000000003,161432.00000000003,149932,149920.00000000003,149948,161465,8,400,18,,
break,html.Screen,4_17_1,2023-05-01T20:30:42.791Z,,0,,,NaN,,,,,,false,,,,161434,161433,,161433,,161465,8,400,,,
break_continue,html.Screen,4_17_2,2023-05-01T20:30:42.792Z,,0,,,NaN,,,,,,false,,,,161434,161434,,161434,,161465,8,400,,,
sequence,flow.Sequence,4_17,2023-05-01T20:30:42.792Z,,0,,,11486,completion,,,,,false,,,,161434,161434,149932,149920.00000000003,149948,161465,8,400,,,
trial,html.Screen,4_18_0,2023-05-01T20:30:45.989Z,,0,1,,3183,response,ISIC_0031883.JPG,,ISIC_4548995.JPG,ISIC_0031883.JPG,false,1,keypress(m),500,164631,164631,161448,161434,161465,164664,8,400,19,,ISIC_4548995.JPG
break,html.Screen,4_18_1,2023-05-01T20:30:45.990Z,,0,,,NaN,,,,,,false,,,,164633,164632,,164632,,164664,8,400,,,
break_continue,html.Screen,4_18_2,2023-05-01T20:30:45.991Z,,0,,,NaN,,,,,,false,,,,164633,164633,,164633,,164664,8,400,,,
sequence,flow.Sequence,4_18,2023-05-01T20:30:45.991Z,,0,,,3168,completion,,,,,false,,,,164633,164633,161448,161434,161465,164664,8,400,,,
trial,html.Screen,4_19_0,2023-05-01T20:30:49.559Z,,0,1,,3552.000000000029,response,ISIC_0072030.JPG,,ISIC_0024894.JPG,ISIC_0024894.JPG,false,0,keypress(z),500,168201,168200.00000000003,164648,164633,164664,168232,8,400,20,,ISIC_0072030.JPG
break,html.Screen,4_19_1,2023-05-01T20:30:49.560Z,,0,,,NaN,,,,,,false,,,,168202,168202,,168201,,168232,8,400,,,
break_continue,html.Screen,4_19_2,2023-05-01T20:30:49.560Z,,0,,,NaN,,,,,,false,,,,168203,168202,,168202,,168232,8,400,,,
sequence,flow.Sequence,4_19,2023-05-01T20:30:49.561Z,,0,,,3538,completion,,,,,false,,,,168203,168202,164648,164633,164664,168232,8,400,,,
trial,html.Screen,4_20_0,2023-05-01T20:30:58.752Z,,0,1,,9179,response,ISIC_0028366.JPG,,ISIC_7080584.JPG,ISIC_0028366.JPG,false,1,keypress(m),500,177394,177394,168215,168203,168232,177441,8,400,21,,ISIC_7080584.JPG
break,html.Screen,4_20_1,2023-05-01T20:30:58.753Z,,0,,,NaN,,,,,,false,,,,177396.00000000003,177395,,177395,,177441,8,400,,,
break_continue,html.Screen,4_20_2,2023-05-01T20:30:58.754Z,,0,,,NaN,,,,,,false,,,,177396.00000000003,177396.00000000003,,177396.00000000003,,177441,8,400,,,
sequence,flow.Sequence,4_20,2023-05-01T20:30:58.754Z,,0,,,9164.00000000003,completion,,,,,false,,,,177396.00000000003,177396.00000000003,168215,168203,168232,177441,8,400,,,
trial,html.Screen,4_21_0,2023-05-01T20:31:02.044Z,,0,1,,3269,response,ISIC_0026897.JPG,,ISIC_1558504.JPG,ISIC_0026897.JPG,false,1,keypress(m),500,180686,180685,177416,177397,177441,180716,8,400,22,,ISIC_1558504.JPG
break,html.Screen,4_21_1,2023-05-01T20:31:02.045Z,,0,,,NaN,,,,,,false,,,,180688.00000000003,180687,,180687,,180716,8,400,,,
break_continue,html.Screen,4_21_2,2023-05-01T20:31:02.046Z,,0,,,NaN,,,,,,false,,,,180688.00000000003,180688.00000000003,,180688.00000000003,,180716,8,400,,,
sequence,flow.Sequence,4_21,2023-05-01T20:31:02.046Z,,0,,,3247.000000000029,completion,,,,,false,,,,180688.00000000003,180688.00000000003,177416,177397,177441,180716,8,400,,,
trial,html.Screen,4_22_0,2023-05-01T20:31:06.803Z,,0,1,,4746,response,ISIC_8064866.JPG,,ISIC_0016161.JPG,ISIC_0016161.JPG,false,0,keypress(z),500,185445,185445,180699,180688.00000000003,180716,185492,8,400,23,,ISIC_8064866.JPG
break,html.Screen,4_22_1,2023-05-01T20:31:06.804Z,,0,,,NaN,,,,,,false,,,,185447,185446,,185446,,185492,8,400,,,
break_continue,html.Screen,4_22_2,2023-05-01T20:31:06.805Z,,0,,,NaN,,,,,,false,,,,185447,185447,,185447,,185492,8,400,,,
sequence,flow.Sequence,4_22,2023-05-01T20:31:06.805Z,,0,,,4731,completion,,,,,false,,,,185447,185447,180699,180688.00000000003,180716,185492,8,400,,,
trial,html.Screen,4_23_0,2023-05-01T20:31:10.416Z,,0,1,,3592,response,ISIC_8278688.JPG,,ISIC_0010068.JPG,ISIC_8278688.JPG,false,1,keypress(m),500,189059,189058,185466,185448,185492,189083,8,400,24,,ISIC_0010068.JPG
break,html.Screen,4_23_1,2023-05-01T20:31:10.418Z,,0,,,NaN,,,,,,false,,,,189060,189060,,189059,,189083,8,400,,,
break_continue,html.Screen,4_23_2,2023-05-01T20:31:10.418Z,,0,,,NaN,,,,,,false,,,,189060,189060,,189060,,189083,8,400,,,
sequence,flow.Sequence,4_23,2023-05-01T20:31:10.418Z,,0,,,3568,completion,,,,,false,,,,189061,189060,185466,185448,185492,189083,8,400,,,
trial,html.Screen,4_24_0,2023-05-01T20:31:14.264Z,,0,1,,3841,response,ISIC_3439215.JPG,,ISIC_0032121.JPG,ISIC_3439215.JPG,false,1,keypress(m),500,192906,192906,189065,189061,189083,192933,8,400,25,,ISIC_0032121.JPG
break,html.Screen,4_24_1,2023-05-01T20:31:14.265Z,,0,,,NaN,,,,,,false,,,,192907,192907,,192907,,192933,8,400,,,
break_continue,html.Screen,4_24_2,2023-05-01T20:31:14.265Z,,0,,,NaN,,,,,,false,,,,192908.00000000003,192908.00000000003,,192908.00000000003,,192933,8,400,,,
sequence,flow.Sequence,4_24,2023-05-01T20:31:14.265Z,,0,,,3825.000000000029,completion,,,,,false,,,,192908.00000000003,192908.00000000003,189065,189061,189083,192933,8,400,,,
trial,html.Screen,4_25_0,2023-05-01T20:31:17.716Z,,0,1,,3442,response,ISIC_0058138.JPG,,ISIC_0883408.JPG,ISIC_0883408.JPG,false,0,keypress(z),500,196358,196358,192916,192908.00000000003,192933,196383,8,400,26,,ISIC_0058138.JPG
break,html.Screen,4_25_1,2023-05-01T20:31:17.717Z,,0,,,NaN,,,,,,false,,,,196360,196360,,196359,,196383,8,400,,,
break_continue,html.Screen,4_25_2,2023-05-01T20:31:17.718Z,,0,,,NaN,,,,,,false,,,,196361,196360,,196360,,196383,8,400,,,
sequence,flow.Sequence,4_25,2023-05-01T20:31:17.718Z,,0,,,3427,completion,,,,,false,,,,196361,196360,192916,192908.00000000003,192933,196383,8,400,,,
trial,html.Screen,4_26_0,2023-05-01T20:31:20.959Z,,0,1,,3235,response,ISIC_6377883.JPG,,ISIC_0068184.JPG,ISIC_6377883.JPG,false,1,keypress(m),500,199602,199601,196366,196361,196383,199633,8,400,27,,ISIC_0068184.JPG
break,html.Screen,4_26_1,2023-05-01T20:31:20.960Z,,0,,,NaN,,,,,,false,,,,199603,199603,,199602,,199633,8,400,,,
break_continue,html.Screen,4_26_2,2023-05-01T20:31:20.961Z,,0,,,NaN,,,,,,false,,,,199603,199603,,199603,,199633,8,400,,,
sequence,flow.Sequence,4_26,2023-05-01T20:31:20.961Z,,0,,,3220,completion,,,,,false,,,,199604,199603,196366,196361,196383,199633,8,400,,,
trial,html.Screen,4_27_0,2023-05-01T20:31:24.644Z,,0,1,,3671,response,ISIC_0031246.JPG,,ISIC_4882123.JPG,ISIC_4882123.JPG,false,0,keypress(z),500,203287,203286,199615,199604,199633,203316,8,400,28,,ISIC_0031246.JPG
break,html.Screen,4_27_1,2023-05-01T20:31:24.646Z,,0,,,NaN,,,,,,false,,,,203288,203288,,203287,,203316,8,400,,,
break_continue,html.Screen,4_27_2,2023-05-01T20:31:24.646Z,,0,,,NaN,,,,,,false,,,,203289.00000000003,203289.00000000003,,203289.00000000003,,203316,8,400,,,
sequence,flow.Sequence,4_27,2023-05-01T20:31:24.646Z,,0,,,3656.000000000029,completion,,,,,false,,,,203289.00000000003,203289.00000000003,199615,199604,199633,203316,8,400,,,
trial,html.Screen,4_28_0,2023-05-01T20:31:28.817Z,,0,1,,4159,response,ISIC_5538169.JPG,,ISIC_8615491.JPG,ISIC_5538169.JPG,false,1,keypress(m),500,207460,207459,203300,203289.00000000003,203316,207483,8,400,29,,ISIC_8615491.JPG
break,html.Screen,4_28_1,2023-05-01T20:31:28.818Z,,0,,,NaN,,,,,,false,,,,207461,207461,,207460,,207483,8,400,,,
break_continue,html.Screen,4_28_2,2023-05-01T20:31:28.819Z,,0,,,NaN,,,,,,false,,,,207462.00000000003,207461,,207461,,207483,8,400,,,
sequence,flow.Sequence,4_28,2023-05-01T20:31:28.819Z,,0,,,4145,completion,,,,,false,,,,207462.00000000003,207461,203300,203289.00000000003,203316,207483,8,400,,,
trial,html.Screen,4_29_0,2023-05-01T20:31:34.313Z,,0,1,,5489,response,ISIC_9108776.JPG,,ISIC_9772383.JPG,ISIC_9108776.JPG,false,1,keypress(m),500,212956.00000000003,212955,207466,207462.00000000003,207483,212983,8,400,30,,ISIC_9772383.JPG
break,html.Screen,4_29_1,2023-05-01T20:31:34.314Z,,0,,,NaN,,,,,,false,,,,212957,212956.00000000003,,212956.00000000003,,212983,8,400,,,
break_continue,html.Screen,4_29_2,2023-05-01T20:31:34.314Z,,0,,,NaN,,,,,,false,,,,212957,212957,,212957,,212983,8,400,,,
sequence,flow.Sequence,4_29,2023-05-01T20:31:34.315Z,,0,,,5474,completion,,,,,false,,,,212958,212957,207466,207462.00000000003,207483,212983,8,400,,,
trial,html.Screen,4_30_0,2023-05-01T20:31:38.926Z,,0,1,,4601,response,ISIC_2466892.JPG,,ISIC_0054357.JPG,ISIC_2466892.JPG,false,1,keypress(m),500,217569.00000000003,217568,212967,212958,212983,217600,8,400,31,,ISIC_0054357.JPG
break,html.Screen,4_30_1,2023-05-01T20:31:38.927Z,,0,,,NaN,,,,,,false,,,,217570,217570,,217569.00000000003,,217600,8,400,,,
break_continue,html.Screen,4_30_2,2023-05-01T20:31:38.928Z,,0,,,NaN,,,,,,false,,,,217571,217571,,217571,,217600,8,400,,,
sequence,flow.Sequence,4_30,2023-05-01T20:31:38.928Z,,0,,,4588,completion,,,,,false,,,,217571,217571,212967,212958,212983,217600,8,400,,,
trial,html.Screen,4_31_0,2023-05-01T20:31:42.371Z,,0,1,,3430,response,ISIC_6119202.JPG,,ISIC_8145348.JPG,ISIC_6119202.JPG,false,1,keypress(m),500,221014,221013,217583,217572,217600,221060,8,400,32,,ISIC_8145348.JPG
break,html.Screen,4_31_1,2023-05-01T20:31:42.372Z,,0,,,NaN,,,,,,false,,,,221015.00000000003,221015.00000000003,,221014,,221060,8,400,,,
break_continue,html.Screen,4_31_2,2023-05-01T20:31:42.372Z,,0,,,NaN,,,,,,false,,,,221015.00000000003,221015.00000000003,,221015.00000000003,,221060,8,400,,,
sequence,flow.Sequence,4_31,2023-05-01T20:31:42.372Z,,0,,,3415.000000000029,completion,,,,,false,,,,221015.00000000003,221015.00000000003,217583,217571,217600,221060,8,400,,,
trial,html.Screen,4_32_0,2023-05-01T20:31:48.722Z,,0,1,,6332,response,ISIC_7693611.JPG,,ISIC_0013831.JPG,ISIC_0013831.JPG,false,0,keypress(z),500,227365,227364,221032,221015.00000000003,221060,227400,8,400,33,,ISIC_7693611.JPG
break,html.Screen,4_32_1,2023-05-01T20:31:48.723Z,,0,,,NaN,,,,,,false,,,,227366,227366,,227365,,227400,8,400,,,
break_continue,html.Screen,4_32_2,2023-05-01T20:31:48.724Z,,0,,,NaN,,,,,,false,,,,227367.00000000003,227367.00000000003,,227367.00000000003,,227400,8,400,,,
sequence,flow.Sequence,4_32,2023-05-01T20:31:48.724Z,,0,,,6307.000000000029,completion,,,,,false,,,,227367.00000000003,227367.00000000003,221032,221015.00000000003,221060,227400,8,400,,,
trial,html.Screen,4_33_0,2023-05-01T20:31:53.370Z,,0,1,,4629,response,ISIC_9101055.JPG,,ISIC_0026730.JPG,ISIC_0026730.JPG,false,0,keypress(z),500,232013,232012,227383,227367.00000000003,227400,232049,8,400,34,,ISIC_9101055.JPG
break,html.Screen,4_33_1,2023-05-01T20:31:53.371Z,,0,,,NaN,,,,,,false,,,,232014,232014,,232013,,232049,8,400,,,
break_continue,html.Screen,4_33_2,2023-05-01T20:31:53.371Z,,0,,,NaN,,,,,,false,,,,232015.00000000003,232014,,232014,,232049,8,400,,,
sequence,flow.Sequence,4_33,2023-05-01T20:31:53.372Z,,0,,,4614,completion,,,,,false,,,,232015.00000000003,232014,227383,227367.00000000003,227400,232049,8,400,,,
trial,html.Screen,4_34_0,2023-05-01T20:31:58.350Z,,0,1,,4959,response,ISIC_2364150.JPG,,ISIC_0059330.JPG,ISIC_2364150.JPG,false,1,keypress(m),500,236993,236993,232034,232015.00000000003,232049,237017,8,400,35,,ISIC_0059330.JPG
break,html.Screen,4_34_1,2023-05-01T20:31:58.351Z,,0,,,NaN,,,,,,false,,,,236995,236994,,236994,,237017,8,400,,,
break_continue,html.Screen,4_34_2,2023-05-01T20:31:58.352Z,,0,,,NaN,,,,,,false,,,,236995,236995,,236995,,237017,8,400,,,
sequence,flow.Sequence,4_34,2023-05-01T20:31:58.352Z,,0,,,4946,completion,,,,,false,,,,236995,236995,232034,232015.00000000003,232049,237017,8,400,,,
trial,html.Screen,4_35_0,2023-05-01T20:32:01.691Z,,0,1,,3333,response,ISIC_7544537.JPG,,ISIC_0010067.JPG,ISIC_7544537.JPG,false,1,keypress(m),500,240334,240333,237000,236995,237017,240367,8,400,36,,ISIC_0010067.JPG
break,html.Screen,4_35_1,2023-05-01T20:32:01.692Z,,0,,,NaN,,,,,,false,,,,240335,240335,,240334,,240367,8,400,,,
break_continue,html.Screen,4_35_2,2023-05-01T20:32:01.692Z,,0,,,NaN,,,,,,false,,,,240335,240335,,240335,,240367,8,400,,,
sequence,flow.Sequence,4_35,2023-05-01T20:32:01.692Z,,0,,,3318,completion,,,,,false,,,,240336,240335,237000,236995,237017,240367,8,400,,,
trial,html.Screen,4_36_0,2023-05-01T20:32:05.301Z,,0,1,,3594.000000000029,response,ISIC_0027832.JPG,,ISIC_3985782.JPG,ISIC_3985782.JPG,false,0,keypress(z),500,243944.00000000003,243944.00000000003,240350,240336,240367,243967,8,400,37,,ISIC_0027832.JPG
break,html.Screen,4_36_1,2023-05-01T20:32:05.302Z,,0,,,NaN,,,,,,false,,,,243945,243945,,243945,,243967,8,400,,,
break_continue,html.Screen,4_36_2,2023-05-01T20:32:05.302Z,,0,,,NaN,,,,,,false,,,,243946,243946,,243946,,243967,8,400,,,
sequence,flow.Sequence,4_36,2023-05-01T20:32:05.303Z,,0,,,3579,completion,,,,,false,,,,243946,243946,240350,240336,240367,243967,8,400,,,
trial,html.Screen,4_37_0,2023-05-01T20:32:08.680Z,,0,1,,3373,response,ISIC_3777798.JPG,,ISIC_1944650.JPG,ISIC_1944650.JPG,false,0,keypress(z),500,247323,247323,243950,243946,243967,247351,8,400,38,,ISIC_3777798.JPG
break,html.Screen,4_37_1,2023-05-01T20:32:08.681Z,,0,,,NaN,,,,,,false,,,,247324,247324,,247323,,247351,8,400,,,
break_continue,html.Screen,4_37_2,2023-05-01T20:32:08.681Z,,0,,,NaN,,,,,,false,,,,247325.00000000003,247325.00000000003,,247324,,247351,8,400,,,
sequence,flow.Sequence,4_37,2023-05-01T20:32:08.682Z,,0,,,3358.000000000029,completion,,,,,false,,,,247325.00000000003,247325.00000000003,243950,243946,243967,247351,8,400,,,
trial,html.Screen,4_38_0,2023-05-01T20:32:12.805Z,,0,1,,4114,response,ISIC_0029056.JPG,,ISIC_0072418.JPG,ISIC_0029056.JPG,false,1,keypress(m),500,251448,251448,247334,247325.00000000003,247351,251484,8,400,39,,ISIC_0072418.JPG
break,html.Screen,4_38_1,2023-05-01T20:32:12.806Z,,0,,,NaN,,,,,,false,,,,251450.00000000003,251449,,251449,,251484,8,400,,,
break_continue,html.Screen,4_38_2,2023-05-01T20:32:12.806Z,,0,,,NaN,,,,,,false,,,,251450.00000000003,251450.00000000003,,251450.00000000003,,251484,8,400,,,
sequence,flow.Sequence,4_38,2023-05-01T20:32:12.807Z,,0,,,4099.000000000029,completion,,,,,false,,,,251450.00000000003,251450.00000000003,247334,247325.00000000003,247351,251484,8,400,,,
trial,html.Screen,4_39_0,2023-05-01T20:32:18.835Z,,0,1,,6011,response,ISIC_7642591.JPG,,ISIC_2546644.JPG,ISIC_2546644.JPG,false,0,keypress(z),500,257478.99999999997,257478,251467,251450.00000000003,251484,257501,8,400,40,,ISIC_7642591.JPG
break,html.Screen,4_39_1,2023-05-01T20:32:18.837Z,,0,,,NaN,,,,,,false,,,,257480.00000000003,257480.00000000003,,257478.99999999997,,257501,8,400,,,
break_continue,html.Screen,4_39_2,2023-05-01T20:32:18.837Z,,0,,,NaN,,,,,,false,,,,257481,257481,,257480.00000000003,,257501,8,400,,,
sequence,flow.Sequence,4_39,2023-05-01T20:32:18.837Z,,0,,,5997,completion,,,,,false,,,,257481,257481,251467,251450.00000000003,251484,257501,8,400,,,
trial,html.Screen,4_40_0,2023-05-01T20:32:22.287Z,,0,1,,3446,response,ISIC_0011370.JPG,,ISIC_0055388.JPG,ISIC_0055388.JPG,false,0,keypress(z),500,260930,260930,257484,257481,257501,260977,8,400,41,,ISIC_0011370.JPG
break,html.Screen,4_40_1,2023-05-01T20:32:22.288Z,,0,,,NaN,,,,,,false,,,,260930.99999999997,260930.99999999997,,260930.99999999997,,260977,8,400,,,
break_continue,html.Screen,4_40_2,2023-05-01T20:32:22.288Z,,0,,,NaN,,,,,,false,,,,260932.00000000003,260932.00000000003,,260932.00000000003,,260977,8,400,,,
sequence,flow.Sequence,4_40,2023-05-01T20:32:22.288Z,,0,,,3431.000000000029,completion,,,,,false,,,,260932.00000000003,260932.00000000003,257484,257481,257501,260977,8,400,,,
trial,html.Screen,4_41_0,2023-05-01T20:32:25.367Z,,0,1,,3060,response,ISIC_2930792.JPG,,ISIC_9024529.JPG,ISIC_2930792.JPG,false,1,keypress(m),500,264011,264010,260950,260932.00000000003,260977,264034,8,400,42,,ISIC_9024529.JPG
break,html.Screen,4_41_1,2023-05-01T20:32:25.369Z,,0,,,NaN,,,,,,false,,,,264012,264012,,264011,,264034,8,400,,,
break_continue,html.Screen,4_41_2,2023-05-01T20:32:25.369Z,,0,,,NaN,,,,,,false,,,,264013.00000000006,264012,,264012,,264034,8,400,,,
sequence,flow.Sequence,4_41,2023-05-01T20:32:25.369Z,,0,,,3035,completion,,,,,false,,,,264013.00000000006,264012,260950,260932.00000000003,260977,264034,8,400,,,
trial,html.Screen,4_42_0,2023-05-01T20:32:28.510Z,,0,1,,3136,response,ISIC_3585381.JPG,,ISIC_0010995.JPG,ISIC_0010995.JPG,false,0,keypress(z),500,267154,267153,264017,264013.00000000006,264034,267184,8,400,43,,ISIC_3585381.JPG
break,html.Screen,4_42_1,2023-05-01T20:32:28.511Z,,0,,,NaN,,,,,,false,,,,267155.00000000006,267155.00000000006,,267154,,267184,8,400,,,
break_continue,html.Screen,4_42_2,2023-05-01T20:32:28.512Z,,0,,,NaN,,,,,,false,,,,267155.00000000006,267155.00000000006,,267155.00000000006,,267184,8,400,,,
sequence,flow.Sequence,4_42,2023-05-01T20:32:28.512Z,,0,,,3121.000000000058,completion,,,,,false,,,,267155.00000000006,267155.00000000006,264017,264013.00000000006,264034,267184,8,400,,,
trial,html.Screen,4_43_0,2023-05-01T20:32:31.899Z,,0,1,,3374.000000000058,response,ISIC_4474170.JPG,,ISIC_6814221.JPG,ISIC_4474170.JPG,false,1,keypress(m),500,270542.00000000006,270542.00000000006,267168,267156,267184,270568,8,400,44,,ISIC_6814221.JPG
break,html.Screen,4_43_1,2023-05-01T20:32:31.900Z,,0,,,NaN,,,,,,false,,,,270544,270543,,270543,,270568,8,400,,,
break_continue,html.Screen,4_43_2,2023-05-01T20:32:31.900Z,,0,,,NaN,,,,,,false,,,,270544,270544,,270544,,270568,8,400,,,
sequence,flow.Sequence,4_43,2023-05-01T20:32:31.901Z,,0,,,3360,completion,,,,,false,,,,270544,270544,267168,267156,267184,270568,8,400,,,
trial,html.Screen,4_44_0,2023-05-01T20:32:43.408Z,,0,1,,11517,timeout,ISIC_8719134.JPG,,ISIC_0064606.JPG,,false,,,500,282052,282051,270551,270545,270568,282085,8,400,45,,
break,html.Screen,4_44_1,2023-05-01T20:32:43.409Z,,0,,,NaN,,,,,,false,,,,282053,282053,,282052,,282085,8,400,,,
break_continue,html.Screen,4_44_2,2023-05-01T20:32:43.410Z,,0,,,NaN,,,,,,false,,,,282053,282053,,282053,,282085,8,400,,,
sequence,flow.Sequence,4_44,2023-05-01T20:32:43.410Z,,0,,,11485,completion,,,,,false,,,,282054.00000000006,282053,270551,270544,270568,282085,8,400,,,
trial,html.Screen,4_45_0,2023-05-01T20:32:48.743Z,,0,1,,5320,response,ISIC_0025891.JPG,,ISIC_0025941.JPG,ISIC_0025891.JPG,false,1,keypress(m),500,287387,287387,282067,282054.00000000006,282085,287418,8,400,46,,ISIC_0025941.JPG
break,html.Screen,4_45_1,2023-05-01T20:32:48.744Z,,0,,,NaN,,,,,,false,,,,287388.00000000006,287388.00000000006,,287388.00000000006,,287418,8,400,,,
break_continue,html.Screen,4_45_2,2023-05-01T20:32:48.745Z,,0,,,NaN,,,,,,false,,,,287389,287389,,287389,,287418,8,400,,,
sequence,flow.Sequence,4_45,2023-05-01T20:32:48.745Z,,0,,,5304,completion,,,,,false,,,,287389,287389,282067,282054.00000000006,282085,287418,8,400,,,
trial,html.Screen,4_46_0,2023-05-01T20:32:51.706Z,,0,1,,2948,response,ISIC_1858989.JPG,,ISIC_0010372.JPG,ISIC_1858989.JPG,false,1,keypress(m),500,290350,290350,287402,287389,287418,290385,8,400,47,,ISIC_0010372.JPG
break,html.Screen,4_46_1,2023-05-01T20:32:51.707Z,,0,,,NaN,,,,,,false,,,,290351,290351,,290351,,290385,8,400,,,
break_continue,html.Screen,4_46_2,2023-05-01T20:32:51.708Z,,0,,,NaN,,,,,,false,,,,290352.00000000006,290352.00000000006,,290351,,290385,8,400,,,
sequence,flow.Sequence,4_46,2023-05-01T20:32:51.708Z,,0,,,2934.000000000058,completion,,,,,false,,,,290352.00000000006,290352.00000000006,287402,287389,287418,290385,8,400,,,
trial,html.Screen,4_47_0,2023-05-01T20:32:55.255Z,,0,1,,3530,response,ISIC_0074311.JPG,,ISIC_0001923.JPG,ISIC_0001923.JPG,false,0,keypress(z),500,293899,293898,290368,290353,290385,293946,8,400,48,,ISIC_0074311.JPG
break,html.Screen,4_47_1,2023-05-01T20:32:55.256Z,,0,,,NaN,,,,,,false,,,,293900.00000000006,293900.00000000006,,293899,,293946,8,400,,,
break_continue,html.Screen,4_47_2,2023-05-01T20:32:55.256Z,,0,,,NaN,,,,,,false,,,,293901,293900.00000000006,,293900.00000000006,,293946,8,400,,,
sequence,flow.Sequence,4_47,2023-05-01T20:32:55.257Z,,0,,,3515.000000000058,completion,,,,,false,,,,293901,293900.00000000006,290368,290352.00000000006,290385,293946,8,400,,,
trial,html.Screen,4_48_0,2023-05-01T20:32:59.248Z,,0,1,,3973,response,ISIC_2997601.JPG,,ISIC_3975133.JPG,ISIC_3975133.JPG,false,0,keypress(z),500,297892,297891,293918,293901,293946,297919,8,400,49,,ISIC_2997601.JPG
break,html.Screen,4_48_1,2023-05-01T20:32:59.249Z,,0,,,NaN,,,,,,false,,,,297893,297893,,297892,,297919,8,400,,,
break_continue,html.Screen,4_48_2,2023-05-01T20:32:59.249Z,,0,,,NaN,,,,,,false,,,,297893,297893,,297893,,297919,8,400,,,
sequence,flow.Sequence,4_48,2023-05-01T20:32:59.249Z,,0,,,3947,completion,,,,,false,,,,297894,297893,293918,293901,293946,297919,8,400,,,
trial,html.Screen,4_49_0,2023-05-01T20:33:02.027Z,,0,1,,2768,response,ISIC_7896667.JPG,,ISIC_0053617.JPG,ISIC_7896667.JPG,false,1,keypress(m),500,300671,300670,297902,297894,297919,300702,8,400,50,,ISIC_0053617.JPG
break,html.Screen,4_49_1,2023-05-01T20:33:07.042Z,,0,,,5000,timeout,,,,,false,,,,305686,305685,300685,300671,300702,305702,8,400,,,
break_continue,html.Screen,4_49_2,2023-05-01T20:33:11.202Z,,0,,,4174,response,,,,,false,continue,keypress(Space),,309846,309859,305685,305686,305702,309869,8,400,,,
sequence,flow.Sequence,4_49,2023-05-01T20:33:11.202Z,,0,,,11940,completion,,,,,false,,,,309846,309859,297902,297894,297919,309869,8,400,,,
trial,html.Screen,4_50_0,2023-05-01T20:33:14.170Z,,0,2,,2963,response,ISIC_0024296.JPG,,ISIC_0034002.JPG,ISIC_0024296.JPG,false,1,keypress(m),500,312814,312814,309851,309847,309869,312857,8,400,1,,ISIC_0034002.JPG
break,html.Screen,4_50_1,2023-05-01T20:33:14.171Z,,0,,,NaN,,,,,,false,,,,312816.00000000006,312815,,312815,,312857,8,400,,,
break_continue,html.Screen,4_50_2,2023-05-01T20:33:14.171Z,,0,,,NaN,,,,,,false,,,,312816.00000000006,312816.00000000006,,312816.00000000006,,312857,8,400,,,
sequence,flow.Sequence,4_50,2023-05-01T20:33:14.171Z,,0,,,2947.000000000058,completion,,,,,false,,,,312816.00000000006,312816.00000000006,309851,309847,309869,312857,8,400,,,
trial,html.Screen,4_51_0,2023-05-01T20:33:17.185Z,,0,2,,2996,response,ISIC_0028746.JPG,,ISIC_2447578.JPG,ISIC_2447578.JPG,false,0,keypress(z),500,315831,315831,312835,312816.00000000006,312857,315876,8,400,2,,ISIC_0028746.JPG
break,html.Screen,4_51_1,2023-05-01T20:33:17.186Z,,0,,,NaN,,,,,,false,,,,315832,315832,,315832,,315876,8,400,,,
break_continue,html.Screen,4_51_2,2023-05-01T20:33:17.186Z,,0,,,NaN,,,,,,false,,,,315833,315833,,315832,,315876,8,400,,,
sequence,flow.Sequence,4_51,2023-05-01T20:33:17.187Z,,0,,,2976,completion,,,,,false,,,,315833,315833,312835,312816.00000000006,312857,315876,8,400,,,
trial,html.Screen,4_52_0,2023-05-01T20:33:20.194Z,,0,2,,2989,response,ISIC_3558747.JPG,,ISIC_0070585.JPG,ISIC_0070585.JPG,false,0,keypress(z),500,318841,318841,315852,315833,315876,318869,8,400,3,,ISIC_3558747.JPG
break,html.Screen,4_52_1,2023-05-01T20:33:20.195Z,,0,,,NaN,,,,,,false,,,,318842,318842,,318841,,318869,8,400,,,
break_continue,html.Screen,4_52_2,2023-05-01T20:33:20.195Z,,0,,,NaN,,,,,,false,,,,318843,318842,,318842,,318869,8,400,,,
sequence,flow.Sequence,4_52,2023-05-01T20:33:20.195Z,,0,,,2966,completion,,,,,false,,,,318843,318842,315852,315833,315876,318869,8,400,,,
trial,html.Screen,4_53_0,2023-05-01T20:33:22.855Z,,0,2,,2651,response,ISIC_0033564.JPG,,ISIC_0011696.JPG,ISIC_0033564.JPG,false,1,keypress(m),500,321503,321503,318852,318843,318869,321536,8,400,4,,ISIC_0011696.JPG
break,html.Screen,4_53_1,2023-05-01T20:33:22.856Z,,0,,,NaN,,,,,,false,,,,321504,321504,,321503,,321536,8,400,,,
break_continue,html.Screen,4_53_2,2023-05-01T20:33:22.856Z,,0,,,NaN,,,,,,false,,,,321505,321504,,321504,,321536,8,400,,,
sequence,flow.Sequence,4_53,2023-05-01T20:33:22.856Z,,0,,,2635,completion,,,,,false,,,,321505,321504,318852,318843,318869,321536,8,400,,,
trial,html.Screen,4_54_0,2023-05-01T20:33:25.615Z,,0,2,,2745,response,ISIC_7128007.JPG,,ISIC_2490481.JPG,ISIC_2490481.JPG,false,0,keypress(z),500,324265,324264,321519,321505,321536,324311,8,400,5,,ISIC_7128007.JPG
break,html.Screen,4_54_1,2023-05-01T20:33:25.617Z,,0,,,NaN,,,,,,false,,,,324266,324265,,324265,,324311,8,400,,,
break_continue,html.Screen,4_54_2,2023-05-01T20:33:25.617Z,,0,,,NaN,,,,,,false,,,,324266,324266,,324266,,324311,8,400,,,
sequence,flow.Sequence,4_54,2023-05-01T20:33:25.617Z,,0,,,2730,completion,,,,,false,,,,324266,324266,321519,321505,321536,324311,8,400,,,
trial,html.Screen,4_55_0,2023-05-01T20:33:28.272Z,,0,2,,2635,response,ISIC_0066379.JPG,,ISIC_0011704.JPG,ISIC_0066379.JPG,false,1,keypress(m),500,326922,326921,324286,324266,324311,326952,8,400,6,,ISIC_0011704.JPG
break,html.Screen,4_55_1,2023-05-01T20:33:28.273Z,,0,,,NaN,,,,,,false,,,,326923,326923,,326922,,326952,8,400,,,
break_continue,html.Screen,4_55_2,2023-05-01T20:33:28.274Z,,0,,,NaN,,,,,,false,,,,326923,326923,,326923,,326952,8,400,,,
sequence,flow.Sequence,4_55,2023-05-01T20:33:28.274Z,,0,,,2612,completion,,,,,false,,,,326924.00000000006,326923,324286,324266,324311,326952,8,400,,,
trial,html.Screen,4_56_0,2023-05-01T20:33:31.358Z,,0,2,,3071,response,ISIC_0030952.JPG,,ISIC_0029405.JPG,ISIC_0030952.JPG,false,1,keypress(m),500,330008,330007,326936,326924.00000000006,326952,330036,8,400,7,,ISIC_0029405.JPG
break,html.Screen,4_56_1,2023-05-01T20:33:31.359Z,,0,,,NaN,,,,,,false,,,,330009,330009,,330008,,330036,8,400,,,
break_continue,html.Screen,4_56_2,2023-05-01T20:33:31.359Z,,0,,,NaN,,,,,,false,,,,330010,330009,,330009,,330036,8,400,,,
sequence,flow.Sequence,4_56,2023-05-01T20:33:31.359Z,,0,,,3057,completion,,,,,false,,,,330010,330009,326936,326924.00000000006,326952,330036,8,400,,,
trial,html.Screen,4_57_0,2023-05-01T20:33:34.396Z,,0,2,,3028,response,ISIC_8535134.JPG,,ISIC_0064071.JPG,ISIC_8535134.JPG,false,1,keypress(m),500,333047,333047,330019,330010,330036,333069,8,400,8,,ISIC_0064071.JPG
break,html.Screen,4_57_1,2023-05-01T20:33:34.398Z,,0,,,NaN,,,,,,false,,,,333048,333048,,333048,,333069,8,400,,,
break_continue,html.Screen,4_57_2,2023-05-01T20:33:34.398Z,,0,,,NaN,,,,,,false,,,,333049.00000000006,333049.00000000006,,333049.00000000006,,333069,8,400,,,
sequence,flow.Sequence,4_57,2023-05-01T20:33:34.398Z,,0,,,3013.000000000058,completion,,,,,false,,,,333049.00000000006,333049.00000000006,330019,330010,330036,333069,8,400,,,
trial,html.Screen,4_58_0,2023-05-01T20:33:37.269Z,,0,2,,2863,response,ISIC_0032759.JPG,,ISIC_5993530.JPG,ISIC_5993530.JPG,false,0,keypress(z),500,335920,335919,333056,333049.00000000006,333069,335953,8,400,9,,ISIC_0032759.JPG
break,html.Screen,4_58_1,2023-05-01T20:33:37.270Z,,0,,,NaN,,,,,,false,,,,335921,335921,,335921,,335953,8,400,,,
break_continue,html.Screen,4_58_2,2023-05-01T20:33:37.270Z,,0,,,NaN,,,,,,false,,,,335922,335922,,335922,,335953,8,400,,,
sequence,flow.Sequence,4_58,2023-05-01T20:33:37.271Z,,0,,,2853,completion,,,,,false,,,,335922,335922,333056,333049.00000000006,333069,335953,8,400,,,
trial,html.Screen,4_59_0,2023-05-01T20:33:40.090Z,,0,2,,2805,response,ISIC_6382207.JPG,,ISIC_0065882.JPG,ISIC_6382207.JPG,false,1,keypress(m),500,338742,338741,335936,335922,335953,338769,8,400,10,,ISIC_0065882.JPG
break,html.Screen,4_59_1,2023-05-01T20:33:40.091Z,,0,,,NaN,,,,,,false,,,,338743,338742,,338742,,338769,8,400,,,
break_continue,html.Screen,4_59_2,2023-05-01T20:33:40.092Z,,0,,,NaN,,,,,,false,,,,338743,338743,,338743,,338769,8,400,,,
sequence,flow.Sequence,4_59,2023-05-01T20:33:40.092Z,,0,,,2790,completion,,,,,false,,,,338744,338743,335936,335922,335953,338769,8,400,,,
trial,html.Screen,4_60_0,2023-05-01T20:33:43.468Z,,0,2,,3366,response,ISIC_0057192.JPG,,ISIC_0008768.JPG,ISIC_0008768.JPG,false,0,keypress(z),500,342120,342119,338753,338744,338769,342153,8,400,11,,ISIC_0057192.JPG
break,html.Screen,4_60_1,2023-05-01T20:33:43.469Z,,0,,,NaN,,,,,,false,,,,342121,342121,,342120,,342153,8,400,,,
break_continue,html.Screen,4_60_2,2023-05-01T20:33:43.469Z,,0,,,NaN,,,,,,false,,,,342121,342121,,342121,,342153,8,400,,,
sequence,flow.Sequence,4_60,2023-05-01T20:33:43.469Z,,0,,,3352,completion,,,,,false,,,,342121,342121,338753,338744,338769,342153,8,400,,,
trial,html.Screen,4_61_0,2023-05-01T20:33:46.477Z,,0,2,,2993,response,ISIC_0013501.JPG,,ISIC_0024288.JPG,ISIC_0024288.JPG,false,0,keypress(z),500,345129,345129,342136,342122,342153,345153,8,400,12,,ISIC_0013501.JPG
break,html.Screen,4_61_1,2023-05-01T20:33:46.478Z,,0,,,NaN,,,,,,false,,,,345130,345130,,345130,,345153,8,400,,,
break_continue,html.Screen,4_61_2,2023-05-01T20:33:46.479Z,,0,,,NaN,,,,,,false,,,,345131,345131,,345131,,345153,8,400,,,
sequence,flow.Sequence,4_61,2023-05-01T20:33:46.479Z,,0,,,2978,completion,,,,,false,,,,345131,345131,342136,342122,342153,345153,8,400,,,
trial,html.Screen,4_62_0,2023-05-01T20:33:50.249Z,,0,2,,3765,response,ISIC_0030666.JPG,,ISIC_0806138.JPG,ISIC_0806138.JPG,false,0,keypress(z),500,348902,348901,345136,345131,345153,348936,8,400,13,,ISIC_0030666.JPG
break,html.Screen,4_62_1,2023-05-01T20:33:50.250Z,,0,,,NaN,,,,,,false,,,,348903,348903,,348902,,348936,8,400,,,
break_continue,html.Screen,4_62_2,2023-05-01T20:33:50.251Z,,0,,,NaN,,,,,,false,,,,348903,348903,,348903,,348936,8,400,,,
sequence,flow.Sequence,4_62,2023-05-01T20:33:50.251Z,,0,,,3750,completion,,,,,false,,,,348904,348903,345136,345131,345153,348936,8,400,,,
trial,html.Screen,4_63_0,2023-05-01T20:33:53.016Z,,0,2,,2748,response,ISIC_7667157.JPG,,ISIC_0010546.JPG,ISIC_7667157.JPG,false,1,keypress(m),500,351669,351668,348920,348904,348936,351703,8,400,14,,ISIC_0010546.JPG
break,html.Screen,4_63_1,2023-05-01T20:33:53.017Z,,0,,,NaN,,,,,,false,,,,351670,351670,,351669,,351703,8,400,,,
break_continue,html.Screen,4_63_2,2023-05-01T20:33:53.018Z,,0,,,NaN,,,,,,false,,,,351671,351670,,351670,,351703,8,400,,,
sequence,flow.Sequence,4_63,2023-05-01T20:33:53.018Z,,0,,,2734,completion,,,,,false,,,,351671,351670,348920,348904,348936,351703,8,400,,,
trial,html.Screen,4_64_0,2023-05-01T20:33:56.071Z,,0,2,,3038,response,ISIC_1869829.JPG,,ISIC_5307210.JPG,ISIC_1869829.JPG,false,1,keypress(m),500,354724,354724,351686,351671,351703,354753,8,400,15,,ISIC_5307210.JPG
break,html.Screen,4_64_1,2023-05-01T20:33:56.073Z,,0,,,NaN,,,,,,false,,,,354726,354725,,354725,,354753,8,400,,,
break_continue,html.Screen,4_64_2,2023-05-01T20:33:56.073Z,,0,,,NaN,,,,,,false,,,,354726,354726,,354726,,354753,8,400,,,
sequence,flow.Sequence,4_64,2023-05-01T20:33:56.073Z,,0,,,3023,completion,,,,,false,,,,354726,354726,351686,351671,351703,354753,8,400,,,
trial,html.Screen,4_65_0,2023-05-01T20:33:58.926Z,,0,2,,2841.000000000058,response,ISIC_0067733.JPG,,ISIC_0033175.JPG,ISIC_0033175.JPG,false,0,keypress(z),500,357579,357578.00000000006,354737,354727.00000000006,354753,357603,8,400,16,,ISIC_0067733.JPG
break,html.Screen,4_65_1,2023-05-01T20:33:58.927Z,,0,,,NaN,,,,,,false,,,,357580,357580,,357579,,357603,8,400,,,
break_continue,html.Screen,4_65_2,2023-05-01T20:33:58.927Z,,0,,,NaN,,,,,,false,,,,357580,357580,,357580,,357603,8,400,,,
sequence,flow.Sequence,4_65,2023-05-01T20:33:58.928Z,,0,,,2827,completion,,,,,false,,,,357581,357580,354737,354726,354753,357603,8,400,,,
trial,html.Screen,4_66_0,2023-05-01T20:34:02.079Z,,0,2,,3145,response,ISIC_0027499.JPG,,ISIC_0255997.JPG,ISIC_0255997.JPG,false,0,keypress(z),500,360732,360731,357586,357581,357603,360753,8,400,17,,ISIC_0027499.JPG
break,html.Screen,4_66_1,2023-05-01T20:34:02.080Z,,0,,,NaN,,,,,,false,,,,360733,360733,,360732,,360753,8,400,,,
break_continue,html.Screen,4_66_2,2023-05-01T20:34:02.080Z,,0,,,NaN,,,,,,false,,,,360733,360733,,360733,,360753,8,400,,,
sequence,flow.Sequence,4_66,2023-05-01T20:34:02.080Z,,0,,,3130,completion,,,,,false,,,,360734,360733,357586,357581,357603,360753,8,400,,,
trial,html.Screen,4_67_0,2023-05-01T20:34:05.155Z,,0,2,,3072,response,ISIC_5104731.JPG,,ISIC_2861793.JPG,ISIC_2861793.JPG,false,0,keypress(z),500,363809,363808,360736,360734,360753,363837,8,400,18,,ISIC_5104731.JPG
break,html.Screen,4_67_1,2023-05-01T20:34:05.156Z,,0,,,NaN,,,,,,false,,,,363810,363810,,363809,,363837,8,400,,,
break_continue,html.Screen,4_67_2,2023-05-01T20:34:05.157Z,,0,,,NaN,,,,,,false,,,,363810,363810,,363810,,363837,8,400,,,
sequence,flow.Sequence,4_67,2023-05-01T20:34:05.157Z,,0,,,3057,completion,,,,,false,,,,363810,363810,360736,360734,360753,363837,8,400,,,
trial,html.Screen,4_68_0,2023-05-01T20:34:16.665Z,,0,2,,11516,timeout,ISIC_1233104.JPG,,ISIC_0016139.JPG,,false,,,500,375320,375319,363820,363811.00000000006,363837,375353,8,400,19,,
break,html.Screen,4_68_1,2023-05-01T20:34:16.666Z,,0,,,NaN,,,,,,false,,,,375321,375321,,375320,,375353,8,400,,,
break_continue,html.Screen,4_68_2,2023-05-01T20:34:16.667Z,,0,,,NaN,,,,,,false,,,,375321,375321,,375321,,375353,8,400,,,
sequence,flow.Sequence,4_68,2023-05-01T20:34:16.667Z,,0,,,11484,completion,,,,,false,,,,375321,375321,363820,363811.00000000006,363837,375353,8,400,,,
trial,html.Screen,4_69_0,2023-05-01T20:50:06.691Z,,0,2,,160263,timeout,ISIC_5484086.JPG,,ISIC_4720306.JPG,,false,,,500,387415,387414,375336,375322,375353,535616,8,400,20,,
break,html.Screen,4_69_1,2023-05-01T20:50:06.692Z,,0,,,NaN,,,,,,false,,,,387417.00000000006,387417.00000000006,,387416,,535616,8,400,,,
break_continue,html.Screen,4_69_2,2023-05-01T20:50:06.693Z,,0,,,NaN,,,,,,false,,,,387418,387418,,387418,,535616,8,400,,,
sequence,flow.Sequence,4_69,2023-05-01T20:50:06.694Z,,0,,,12065,completion,,,,,false,,,,387418,387418,375336,375322,375353,535616,8,400,,,
trial,html.Screen,4_70_0,2023-05-02T00:05:49.238Z,,0,2,,1994.0000000001164,response,ISIC_0006327.JPG,,ISIC_0012883.JPG,ISIC_0012883.JPG,false,0,keypress(z),500,537604,537603.0000000001,535609,387419,535616,537633,8,400,21,,ISIC_0006327.JPG
break,html.Screen,4_70_1,2023-05-02T00:05:49.239Z,,0,,,NaN,,,,,,false,,,,537605,537605,,537604,,537633,8,400,,,
break_continue,html.Screen,4_70_2,2023-05-02T00:05:49.240Z,,0,,,NaN,,,,,,false,,,,537606,537606,,537605,,537633,8,400,,,
sequence,flow.Sequence,4_70,2023-05-02T00:05:49.240Z,,0,,,1990,completion,,,,,false,,,,537606,537606,535609,387419,535616,537633,8,400,,,
trial,html.Screen,4_71_0,2023-05-02T00:05:52.426Z,,0,2,,3170,response,ISIC_0069385.JPG,,ISIC_0024263.JPG,ISIC_0024263.JPG,false,0,keypress(z),500,540787,540786,537616,537606,537633,540817,8,400,22,,ISIC_0069385.JPG
break,html.Screen,4_71_1,2023-05-02T00:05:52.427Z,,0,,,NaN,,,,,,false,,,,540788,540788,,540787,,540817,8,400,,,
break_continue,html.Screen,4_71_2,2023-05-02T00:05:52.427Z,,0,,,NaN,,,,,,false,,,,540789,540789,,540789,,540817,8,400,,,
sequence,flow.Sequence,4_71,2023-05-02T00:05:52.427Z,,0,,,3156,completion,,,,,false,,,,540789,540789,537616,537606,537633,540817,8,400,,,
trial,html.Screen,4_72_0,2023-05-02T00:05:55.275Z,,0,2,,2832.0000000001164,response,ISIC_0028075.JPG,,ISIC_3425388.JPG,ISIC_3425388.JPG,false,0,keypress(z),500,543633,543632.0000000001,540800,540789,540817,543667,8,400,23,,ISIC_0028075.JPG
break,html.Screen,4_72_1,2023-05-02T00:05:55.276Z,,0,,,NaN,,,,,,false,,,,543634,543634,,543633,,543667,8,400,,,
break_continue,html.Screen,4_72_2,2023-05-02T00:05:55.277Z,,0,,,NaN,,,,,,false,,,,543635,543635,,543635,,543667,8,400,,,
sequence,flow.Sequence,4_72,2023-05-02T00:05:55.277Z,,0,,,2818,completion,,,,,false,,,,543635,543635,540800,540789,540817,543667,8,400,,,
trial,html.Screen,4_73_0,2023-05-02T00:05:57.983Z,,0,2,,2688,response,ISIC_3902917.JPG,,ISIC_0028065.JPG,ISIC_3902917.JPG,false,1,keypress(m),500,546338,546338,543650,543635,543667,546367,8,400,24,,ISIC_0028065.JPG
break,html.Screen,4_73_1,2023-05-02T00:05:57.984Z,,0,,,NaN,,,,,,false,,,,546340,546339,,546339,,546367,8,400,,,
break_continue,html.Screen,4_73_2,2023-05-02T00:05:57.984Z,,0,,,NaN,,,,,,false,,,,546340,546340,,546340,,546367,8,400,,,
sequence,flow.Sequence,4_73,2023-05-02T00:05:57.985Z,,0,,,2673,completion,,,,,false,,,,546340,546340,543650,543635,543667,546367,8,400,,,
trial,html.Screen,4_74_0,2023-05-02T00:06:00.934Z,,0,2,,2936,response,ISIC_0063650.JPG,,ISIC_0015226.JPG,ISIC_0015226.JPG,false,0,keypress(z),500,549287,549286,546350,546340,546367,549317,8,400,25,,ISIC_0063650.JPG
break,html.Screen,4_74_1,2023-05-02T00:06:00.935Z,,0,,,NaN,,,,,,false,,,,549289,549288,,549287,,549317,8,400,,,
break_continue,html.Screen,4_74_2,2023-05-02T00:06:00.936Z,,0,,,NaN,,,,,,false,,,,549289,549289,,549289,,549317,8,400,,,
sequence,flow.Sequence,4_74,2023-05-02T00:06:00.936Z,,0,,,2922,completion,,,,,false,,,,549289,549289,546350,546340,546367,549317,8,400,,,
trial,html.Screen,4_75_0,2023-05-02T00:06:03.760Z,,0,2,,2811,response,ISIC_3520750.JPG,,ISIC_0010145.JPG,ISIC_3520750.JPG,false,1,keypress(m),500,552112,552111,549300,549290,549317,552159,8,400,26,,ISIC_0010145.JPG
break,html.Screen,4_75_1,2023-05-02T00:06:03.762Z,,0,,,NaN,,,,,,false,,,,552113,552113,,552112,,552159,8,400,,,
break_continue,html.Screen,4_75_2,2023-05-02T00:06:03.762Z,,0,,,NaN,,,,,,false,,,,552114,552114,,552114,,552159,8,400,,,
sequence,flow.Sequence,4_75,2023-05-02T00:06:03.762Z,,0,,,2797,completion,,,,,false,,,,552114,552114,549300,549290,549317,552159,8,400,,,
trial,html.Screen,4_76_0,2023-05-02T00:06:06.588Z,,0,2,,2804,response,ISIC_2447578.JPG,,ISIC_5458290.JPG,ISIC_5458290.JPG,false,0,keypress(z),500,554938,554937,552133,552114,552159,554967,8,400,27,,ISIC_2447578.JPG
break,html.Screen,4_76_1,2023-05-02T00:06:06.589Z,,0,,,NaN,,,,,,false,,,,554939,554939,,554938,,554967,8,400,,,
break_continue,html.Screen,4_76_2,2023-05-02T00:06:06.589Z,,0,,,NaN,,,,,,false,,,,554939,554939,,554939,,554967,8,400,,,
sequence,flow.Sequence,4_76,2023-05-02T00:06:06.590Z,,0,,,2780,completion,,,,,false,,,,554940,554939,552133,552114,552159,554967,8,400,,,
trial,html.Screen,4_77_0,2023-05-02T00:06:10.163Z,,0,2,,3561,response,ISIC_9590080.JPG,,ISIC_0061558.JPG,ISIC_0061558.JPG,false,0,keypress(z),500,558511,558511,554950,554940,554967,558534,8,400,28,,ISIC_9590080.JPG
break,html.Screen,4_77_1,2023-05-02T00:06:10.164Z,,0,,,NaN,,,,,,false,,,,558513,558512,,558512,,558534,8,400,,,
break_continue,html.Screen,4_77_2,2023-05-02T00:06:10.165Z,,0,,,NaN,,,,,,false,,,,558513,558513,,558513,,558534,8,400,,,
sequence,flow.Sequence,4_77,2023-05-02T00:06:10.165Z,,0,,,3546,completion,,,,,false,,,,558513,558513,554950,554940,554967,558534,8,400,,,
trial,html.Screen,4_78_0,2023-05-02T00:06:13.216Z,,0,2,,3047,response,ISIC_1932064.JPG,,ISIC_1737600.JPG,ISIC_1932064.JPG,false,1,keypress(m),500,561564,561563,558516,558514,558534,561612,8,400,29,,ISIC_1737600.JPG
break,html.Screen,4_78_1,2023-05-02T00:06:13.218Z,,0,,,NaN,,,,,,false,,,,561565,561565,,561564,,561612,8,400,,,
break_continue,html.Screen,4_78_2,2023-05-02T00:06:13.218Z,,0,,,NaN,,,,,,false,,,,561566,561566,,561565,,561612,8,400,,,
sequence,flow.Sequence,4_78,2023-05-02T00:06:13.218Z,,0,,,3032,completion,,,,,false,,,,561566,561566,558516,558514,558534,561612,8,400,,,
trial,html.Screen,4_79_0,2023-05-02T00:06:16.365Z,,0,2,,3127,response,ISIC_4495099.JPG,,ISIC_3975133.JPG,ISIC_3975133.JPG,false,0,keypress(z),500,564711,564711,561584,561566,561612,564734,8,400,30,,ISIC_4495099.JPG
break,html.Screen,4_79_1,2023-05-02T00:06:16.366Z,,0,,,NaN,,,,,,false,,,,564712,564712,,564712,,564734,8,400,,,
break_continue,html.Screen,4_79_2,2023-05-02T00:06:16.366Z,,0,,,NaN,,,,,,false,,,,564713,564713,,564713,,564734,8,400,,,
sequence,flow.Sequence,4_79,2023-05-02T00:06:16.366Z,,0,,,3101,completion,,,,,false,,,,564713,564713,561584,561566,561612,564734,8,400,,,
trial,html.Screen,4_80_0,2023-05-02T00:06:19.054Z,,0,2,,2682,response,ISIC_0034188.JPG,,ISIC_0000411.JPG,ISIC_0034188.JPG,false,1,keypress(m),500,567400,567399,564717,564713,564734,567434,8,400,31,,ISIC_0000411.JPG
break,html.Screen,4_80_1,2023-05-02T00:06:19.055Z,,0,,,NaN,,,,,,false,,,,567401.0000000001,567401.0000000001,,567400,,567434,8,400,,,
break_continue,html.Screen,4_80_2,2023-05-02T00:06:19.056Z,,0,,,NaN,,,,,,false,,,,567402,567401.0000000001,,567401.0000000001,,567434,8,400,,,
sequence,flow.Sequence,4_80,2023-05-02T00:06:19.056Z,,0,,,2667.0000000001164,completion,,,,,false,,,,567402,567401.0000000001,564717,564713,564734,567434,8,400,,,
trial,html.Screen,4_81_0,2023-05-02T00:06:21.996Z,,0,2,,2925,response,ISIC_0032462.JPG,,ISIC_0059864.JPG,ISIC_0059864.JPG,false,0,keypress(z),500,570342,570341,567416,567402,567434,570367,8,400,32,,ISIC_0032462.JPG
break,html.Screen,4_81_1,2023-05-02T00:06:21.998Z,,0,,,NaN,,,,,,false,,,,570343,570343,,570342,,570367,8,400,,,
break_continue,html.Screen,4_81_2,2023-05-02T00:06:21.998Z,,0,,,NaN,,,,,,false,,,,570344,570344,,570344,,570367,8,400,,,
sequence,flow.Sequence,4_81,2023-05-02T00:06:21.999Z,,0,,,2910,completion,,,,,false,,,,570344,570344,567416,567402,567434,570367,8,400,,,
trial,html.Screen,4_82_0,2023-05-02T00:06:24.769Z,,0,2,,2764,response,ISIC_1858237.JPG,,ISIC_6336926.JPG,ISIC_1858237.JPG,false,1,keypress(m),500,573115,573114,570350,570344,570367,573151,8,400,33,,ISIC_6336926.JPG
break,html.Screen,4_82_1,2023-05-02T00:06:24.771Z,,0,,,NaN,,,,,,false,,,,573116,573116,,573115,,573151,8,400,,,
break_continue,html.Screen,4_82_2,2023-05-02T00:06:24.771Z,,0,,,NaN,,,,,,false,,,,573116,573116,,573116,,573151,8,400,,,
sequence,flow.Sequence,4_82,2023-05-02T00:06:24.771Z,,0,,,2749,completion,,,,,false,,,,573116,573116,570350,570344,570367,573151,8,400,,,
trial,html.Screen,4_83_0,2023-05-02T00:06:27.592Z,,0,2,,2802,response,ISIC_0024865.JPG,,ISIC_0054206.JPG,ISIC_0054206.JPG,false,0,keypress(z),500,575936,575936,573134,573117,573151,575967,8,400,34,,ISIC_0024865.JPG
break,html.Screen,4_83_1,2023-05-02T00:06:27.593Z,,0,,,NaN,,,,,,false,,,,575938,575937,,575937,,575967,8,400,,,
break_continue,html.Screen,4_83_2,2023-05-02T00:06:27.593Z,,0,,,NaN,,,,,,false,,,,575938,575938,,575938,,575967,8,400,,,
sequence,flow.Sequence,4_83,2023-05-02T00:06:27.593Z,,0,,,2787,completion,,,,,false,,,,575938,575938,573134,573117,573151,575967,8,400,,,
trial,html.Screen,4_84_0,2023-05-02T00:06:30.348Z,,0,2,,2741,response,ISIC_0443835.JPG,,ISIC_8495875.JPG,ISIC_0443835.JPG,false,1,keypress(m),500,578693,578691,575950,575938,575967,578717,8,400,35,,ISIC_8495875.JPG
break,html.Screen,4_84_1,2023-05-02T00:06:30.349Z,,0,,,NaN,,,,,,false,,,,578694,578693,,578693,,578717,8,400,,,
break_continue,html.Screen,4_84_2,2023-05-02T00:06:30.350Z,,0,,,NaN,,,,,,false,,,,578694,578694,,578694,,578717,8,400,,,
sequence,flow.Sequence,4_84,2023-05-02T00:06:30.350Z,,0,,,2727,completion,,,,,false,,,,578695,578694,575950,575938,575967,578717,8,400,,,
trial,html.Screen,4_85_0,2023-05-02T00:06:34.647Z,,0,2,,4291,response,ISIC_0006850.JPG,,ISIC_5706192.JPG,ISIC_0006850.JPG,false,1,keypress(m),500,582991,582991,578700,578695,578717,583017,8,400,36,,ISIC_5706192.JPG
break,html.Screen,4_85_1,2023-05-02T00:06:34.648Z,,0,,,NaN,,,,,,false,,,,582992,582992,,582992,,583017,8,400,,,
break_continue,html.Screen,4_85_2,2023-05-02T00:06:34.649Z,,0,,,NaN,,,,,,false,,,,582993,582993,,582993,,583017,8,400,,,
sequence,flow.Sequence,4_85,2023-05-02T00:06:34.649Z,,0,,,4276,completion,,,,,false,,,,582993,582993,578700,578695,578717,583017,8,400,,,
trial,html.Screen,4_86_0,2023-05-02T00:06:37.803Z,,0,2,,3145,response,ISIC_6556622.JPG,,ISIC_4033676.JPG,ISIC_4033676.JPG,false,0,keypress(z),500,586147,586146,583001,582993,583017,586194,8,400,37,,ISIC_6556622.JPG
break,html.Screen,4_86_1,2023-05-02T00:06:37.804Z,,0,,,NaN,,,,,,false,,,,586148,586148,,586147,,586194,8,400,,,
break_continue,html.Screen,4_86_2,2023-05-02T00:06:37.805Z,,0,,,NaN,,,,,,false,,,,586149,586148,,586148,,586194,8,400,,,
sequence,flow.Sequence,4_86,2023-05-02T00:06:37.805Z,,0,,,3131,completion,,,,,false,,,,586149,586148,583001,582993,583017,586194,8,400,,,
trial,html.Screen,4_87_0,2023-05-02T00:06:41.000Z,,0,2,,3176,response,ISIC_0066476.JPG,,ISIC_0706692.JPG,ISIC_0706692.JPG,false,0,keypress(z),500,589344,589343,586167,586149,586194,589367,8,400,38,,ISIC_0066476.JPG
break,html.Screen,4_87_1,2023-05-02T00:06:41.001Z,,0,,,NaN,,,,,,false,,,,589345,589345,,589344,,589367,8,400,,,
break_continue,html.Screen,4_87_2,2023-05-02T00:06:41.002Z,,0,,,NaN,,,,,,false,,,,589346,589346,,589345,,589367,8,400,,,
sequence,flow.Sequence,4_87,2023-05-02T00:06:41.002Z,,0,,,3152,completion,,,,,false,,,,589346,589346,586167,586149,586194,589367,8,400,,,
trial,html.Screen,4_88_0,2023-05-02T00:06:45.208Z,,0,2,,4200,response,ISIC_0054792.JPG,,ISIC_8199467.JPG,ISIC_8199467.JPG,false,0,keypress(z),500,593552,593551,589351,589346,589367,593584,8,400,39,,ISIC_0054792.JPG
break,html.Screen,4_88_1,2023-05-02T00:06:45.209Z,,0,,,NaN,,,,,,false,,,,593553,593553,,593553,,593584,8,400,,,
break_continue,html.Screen,4_88_2,2023-05-02T00:06:45.210Z,,0,,,NaN,,,,,,false,,,,593554,593554,,593554,,593584,8,400,,,
sequence,flow.Sequence,4_88,2023-05-02T00:06:45.210Z,,0,,,4187,completion,,,,,false,,,,593554,593554,589351,589346,589367,593584,8,400,,,
trial,html.Screen,4_89_0,2023-05-02T00:06:48.789Z,,0,2,,3564.0000000001164,response,ISIC_6609379.JPG,,ISIC_0071458.JPG,ISIC_0071458.JPG,false,0,keypress(z),500,597133,597132.0000000001,593568,593554,593584,597167,8,400,40,,ISIC_6609379.JPG
break,html.Screen,4_89_1,2023-05-02T00:06:48.790Z,,0,,,NaN,,,,,,false,,,,597134,597133,,597133,,597167,8,400,,,
break_continue,html.Screen,4_89_2,2023-05-02T00:06:48.790Z,,0,,,NaN,,,,,,false,,,,597134,597134,,597134,,597167,8,400,,,
sequence,flow.Sequence,4_89,2023-05-02T00:06:48.791Z,,0,,,3550,completion,,,,,false,,,,597134,597134,593568,593554,593584,597167,8,400,,,
trial,html.Screen,4_90_0,2023-05-02T00:06:52.551Z,,0,2,,3743,response,ISIC_0002821.JPG,,ISIC_0068610.JPG,ISIC_0002821.JPG,false,1,keypress(m),500,600895,600894,597151,597135,597167,600918,8,400,41,,ISIC_0068610.JPG
break,html.Screen,4_90_1,2023-05-02T00:06:52.552Z,,0,,,NaN,,,,,,false,,,,600896,600896,,600895,,600918,8,400,,,
break_continue,html.Screen,4_90_2,2023-05-02T00:06:52.553Z,,0,,,NaN,,,,,,false,,,,600897,600897,,600897,,600918,8,400,,,
sequence,flow.Sequence,4_90,2023-05-02T00:06:52.553Z,,0,,,3730,completion,,,,,false,,,,600897,600897,597151,597135,597167,600918,8,400,,,
trial,html.Screen,4_91_0,2023-05-02T00:06:56.058Z,,0,2,,3500.0000000001164,response,ISIC_3945916.JPG,,ISIC_4393704.JPG,ISIC_4393704.JPG,false,0,keypress(z),500,604401.0000000001,604401.0000000001,600901,600897,600918,604435,8,400,42,,ISIC_3945916.JPG
break,html.Screen,4_91_1,2023-05-02T00:06:56.059Z,,0,,,NaN,,,,,,false,,,,604403,604402,,604402,,604435,8,400,,,
break_continue,html.Screen,4_91_2,2023-05-02T00:06:56.059Z,,0,,,NaN,,,,,,false,,,,604403,604403,,604403,,604435,8,400,,,
sequence,flow.Sequence,4_91,2023-05-02T00:06:56.059Z,,0,,,3485,completion,,,,,false,,,,604403,604403,600901,600897,600918,604435,8,400,,,
trial,html.Screen,4_92_0,2023-05-02T00:06:59.637Z,,0,2,,3562,response,ISIC_1470934.JPG,,ISIC_0011810.JPG,ISIC_1470934.JPG,false,1,keypress(m),500,607981,607980,604418,604403,604435,608030,8,400,43,,ISIC_0011810.JPG
break,html.Screen,4_92_1,2023-05-02T00:06:59.638Z,,0,,,NaN,,,,,,false,,,,607982,607982,,607981,,608030,8,400,,,
break_continue,html.Screen,4_92_2,2023-05-02T00:06:59.639Z,,0,,,NaN,,,,,,false,,,,607983.0000000001,607983.0000000001,,607982,,608030,8,400,,,
sequence,flow.Sequence,4_92,2023-05-02T00:06:59.639Z,,0,,,3548.0000000001164,completion,,,,,false,,,,607983.0000000001,607983.0000000001,604418,604403,604435,608030,8,400,,,
trial,html.Screen,4_93_0,2023-05-02T00:07:03.096Z,,0,2,,3438,response,ISIC_0064669.JPG,,ISIC_9232153.JPG,ISIC_9232153.JPG,false,0,keypress(z),500,611440,611439,608001,607983.0000000001,608030,611468,8,400,44,,ISIC_0064669.JPG
break,html.Screen,4_93_1,2023-05-02T00:07:03.097Z,,0,,,NaN,,,,,,false,,,,611441,611441,,611440,,611468,8,400,,,
break_continue,html.Screen,4_93_2,2023-05-02T00:07:03.098Z,,0,,,NaN,,,,,,false,,,,611442,611441,,611441,,611468,8,400,,,
sequence,flow.Sequence,4_93,2023-05-02T00:07:03.098Z,,0,,,3411,completion,,,,,false,,,,611442,611441,608001,607983.0000000001,608030,611468,8,400,,,
trial,html.Screen,4_94_0,2023-05-02T00:07:06.173Z,,0,2,,3066,response,ISIC_8121679.JPG,,ISIC_0059264.JPG,ISIC_8121679.JPG,false,1,keypress(m),500,614517,614517,611451,611442,611468,614552,8,400,45,,ISIC_0059264.JPG
break,html.Screen,4_94_1,2023-05-02T00:07:06.175Z,,0,,,NaN,,,,,,false,,,,614518,614518,,614518,,614552,8,400,,,
break_continue,html.Screen,4_94_2,2023-05-02T00:07:06.175Z,,0,,,NaN,,,,,,false,,,,614519,614519,,614519,,614552,8,400,,,
sequence,flow.Sequence,4_94,2023-05-02T00:07:06.175Z,,0,,,3051,completion,,,,,false,,,,614519,614519,611451,611442,611468,614552,8,400,,,
trial,html.Screen,4_95_0,2023-05-02T00:07:09.198Z,,0,2,,3004,response,ISIC_3653492.JPG,,ISIC_0054048.JPG,ISIC_3653492.JPG,false,1,keypress(m),500,617542,617538,614534,614519,614552,617568,8,400,46,,ISIC_0054048.JPG
break,html.Screen,4_95_1,2023-05-02T00:07:09.199Z,,0,,,NaN,,,,,,false,,,,617543,617543,,617542,,617568,8,400,,,
break_continue,html.Screen,4_95_2,2023-05-02T00:07:09.200Z,,0,,,NaN,,,,,,false,,,,617543,617543,,617543,,617568,8,400,,,
sequence,flow.Sequence,4_95,2023-05-02T00:07:09.200Z,,0,,,2991,completion,,,,,false,,,,617544,617543,614534,614519,614552,617568,8,400,,,
trial,html.Screen,4_96_0,2023-05-02T00:07:12.396Z,,0,2,,3187,response,ISIC_2202486.JPG,,ISIC_4756167.JPG,ISIC_4756167.JPG,false,0,keypress(z),500,620740,620739,617552,617544,617568,620768,8,400,47,,ISIC_2202486.JPG
break,html.Screen,4_96_1,2023-05-02T00:07:12.397Z,,0,,,NaN,,,,,,false,,,,620741,620740,,620740,,620768,8,400,,,
break_continue,html.Screen,4_96_2,2023-05-02T00:07:12.397Z,,0,,,NaN,,,,,,false,,,,620741,620741,,620741,,620768,8,400,,,
sequence,flow.Sequence,4_96,2023-05-02T00:07:12.397Z,,0,,,3173,completion,,,,,false,,,,620741,620741,617552,617544,617568,620768,8,400,,,
trial,html.Screen,4_97_0,2023-05-02T00:07:15.257Z,,0,2,,2848,response,ISIC_6072777.JPG,,ISIC_0004334.JPG,ISIC_0004334.JPG,false,0,keypress(z),500,623601,623600,620752,620741,620768,623635,8,400,48,,ISIC_6072777.JPG
break,html.Screen,4_97_1,2023-05-02T00:07:15.259Z,,0,,,NaN,,,,,,false,,,,623603.0000000001,623602,,623601,,623635,8,400,,,
break_continue,html.Screen,4_97_2,2023-05-02T00:07:15.259Z,,0,,,NaN,,,,,,false,,,,623603.0000000001,623603.0000000001,,623603.0000000001,,623635,8,400,,,
sequence,flow.Sequence,4_97,2023-05-02T00:07:15.260Z,,0,,,2835.0000000001164,completion,,,,,false,,,,623604,623603.0000000001,620752,620741,620768,623635,8,400,,,
trial,html.Screen,4_98_0,2023-05-02T00:07:18.082Z,,0,2,,2807.0000000001164,response,ISIC_1924949.JPG,,ISIC_3596927.JPG,ISIC_3596927.JPG,false,0,keypress(z),500,626426,626425.0000000001,623618,623604,623635,626452,8,400,49,,ISIC_1924949.JPG
break,html.Screen,4_98_1,2023-05-02T00:07:18.083Z,,0,,,NaN,,,,,,false,,,,626427,626427,,626426,,626452,8,400,,,
break_continue,html.Screen,4_98_2,2023-05-02T00:07:18.083Z,,0,,,NaN,,,,,,false,,,,626428,626427,,626427,,626452,8,400,,,
sequence,flow.Sequence,4_98,2023-05-02T00:07:18.084Z,,0,,,2792,completion,,,,,false,,,,626428,626427,623618,623604,623635,626452,8,400,,,
trial,html.Screen,4_99_0,2023-05-02T00:07:20.796Z,,0,2,,2705,response,ISIC_0029170.JPG,,ISIC_0031118.JPG,ISIC_0031118.JPG,false,0,keypress(z),500,629140,629140,626435,626428,626452,629168,8,400,50,,ISIC_0029170.JPG
break,html.Screen,4_99_1,2023-05-02T00:07:25.811Z,,0,,,5001,timeout,,,,,false,,,,634156.0000000001,634152,629152,629140,629168,634169,8,400,,,
break_continue,html.Screen,4_99_2,2023-05-02T00:07:26.607Z,,0,,,754.0000000001164,response,,,,,false,continue,keypress(Space),,634951,634906.0000000001,634152,634156.0000000001,634169,634985,8,400,,,
sequence,flow.Sequence,4_99,2023-05-02T00:07:26.607Z,,0,,,8454.000000000116,completion,,,,,false,,,,634951,634906.0000000001,626435,626428,626452,634985,8,400,,,
trial,html.Screen,4_100_0,2023-05-02T00:07:29.481Z,,0,3,,2855.0000000001164,response,ISIC_4998826.JPG,,ISIC_8523262.JPG,ISIC_4998826.JPG,false,1,keypress(m),500,637825,637824.0000000001,634969,634952,634985,637852,8,400,1,,ISIC_8523262.JPG
break,html.Screen,4_100_1,2023-05-02T00:07:29.482Z,,0,,,NaN,,,,,,false,,,,637826,637826,,637826,,637852,8,400,,,
break_continue,html.Screen,4_100_2,2023-05-02T00:07:29.483Z,,0,,,NaN,,,,,,false,,,,637827,637827,,637827,,637852,8,400,,,
sequence,flow.Sequence,4_100,2023-05-02T00:07:29.483Z,,0,,,2842,completion,,,,,false,,,,637827,637827,634969,634951,634985,637852,8,400,,,
trial,html.Screen,4_101_0,2023-05-02T00:07:32.080Z,,0,3,,2589,response,ISIC_6732560.JPG,,ISIC_0000660.JPG,ISIC_0000660.JPG,false,0,keypress(z),500,640425.0000000001,640424,637835,637827,637852,640452,8,400,2,,ISIC_6732560.JPG
break,html.Screen,4_101_1,2023-05-02T00:07:32.082Z,,0,,,NaN,,,,,,false,,,,640426,640426,,640425.0000000001,,640452,8,400,,,
break_continue,html.Screen,4_101_2,2023-05-02T00:07:32.082Z,,0,,,NaN,,,,,,false,,,,640426,640426,,640426,,640452,8,400,,,
sequence,flow.Sequence,4_101,2023-05-02T00:07:32.082Z,,0,,,2574,completion,,,,,false,,,,640427,640426,637835,637827,637852,640452,8,400,,,
trial,html.Screen,4_102_0,2023-05-02T00:07:34.771Z,,0,3,,2679,response,ISIC_0025056.JPG,,ISIC_3819893.JPG,ISIC_3819893.JPG,false,0,keypress(z),500,643115,643115,640436,640427,640452,643136,8,400,3,,ISIC_0025056.JPG
break,html.Screen,4_102_1,2023-05-02T00:07:34.772Z,,0,,,NaN,,,,,,false,,,,643117,643116,,643116,,643136,8,400,,,
break_continue,html.Screen,4_102_2,2023-05-02T00:07:34.773Z,,0,,,NaN,,,,,,false,,,,643117,643117,,643117,,643136,8,400,,,
sequence,flow.Sequence,4_102,2023-05-02T00:07:34.773Z,,0,,,2665,completion,,,,,false,,,,643117,643117,640436,640427,640452,643136,8,400,,,
trial,html.Screen,4_103_0,2023-05-02T00:07:37.466Z,,0,3,,2690.0000000001164,response,ISIC_3464344.JPG,,ISIC_0014826.JPG,ISIC_3464344.JPG,false,1,keypress(m),500,645811,645810.0000000001,643120,643117,643136,645836,8,400,4,,ISIC_0014826.JPG
break,html.Screen,4_103_1,2023-05-02T00:07:37.468Z,,0,,,NaN,,,,,,false,,,,645812,645812,,645811,,645836,8,400,,,
break_continue,html.Screen,4_103_2,2023-05-02T00:07:37.468Z,,0,,,NaN,,,,,,false,,,,645813,645813,,645812,,645836,8,400,,,
sequence,flow.Sequence,4_103,2023-05-02T00:07:37.469Z,,0,,,2677,completion,,,,,false,,,,645813,645813,643120,643117,643136,645836,8,400,,,
trial,html.Screen,4_104_0,2023-05-02T00:07:40.047Z,,0,3,,2572,response,ISIC_6269543.JPG,,ISIC_0025735.JPG,ISIC_0025735.JPG,false,0,keypress(z),500,648392,648391,645819,645813,645836,648419,8,400,5,,ISIC_6269543.JPG
break,html.Screen,4_104_1,2023-05-02T00:07:40.049Z,,0,,,NaN,,,,,,false,,,,648393,648393,,648392,,648419,8,400,,,
break_continue,html.Screen,4_104_2,2023-05-02T00:07:40.049Z,,0,,,NaN,,,,,,false,,,,648394,648394,,648394,,648419,8,400,,,
sequence,flow.Sequence,4_104,2023-05-02T00:07:40.049Z,,0,,,2558,completion,,,,,false,,,,648394,648394,645819,645813,645836,648419,8,400,,,
trial,html.Screen,4_105_0,2023-05-02T00:07:46.023Z,,0,3,,5965,response,ISIC_0058071.JPG,,ISIC_0026300.JPG,ISIC_0026300.JPG,false,0,keypress(z),500,654368,654367,648402,648394,648419,654402,8,400,6,,ISIC_0058071.JPG
break,html.Screen,4_105_1,2023-05-02T00:07:46.024Z,,0,,,NaN,,,,,,false,,,,654369,654369,,654368,,654402,8,400,,,
break_continue,html.Screen,4_105_2,2023-05-02T00:07:46.025Z,,0,,,NaN,,,,,,false,,,,654370,654369,,654369,,654402,8,400,,,
sequence,flow.Sequence,4_105,2023-05-02T00:07:46.025Z,,0,,,5950,completion,,,,,false,,,,654370,654369,648402,648394,648419,654402,8,400,,,
trial,html.Screen,4_106_0,2023-05-02T00:07:49.589Z,,0,3,,3547,response,ISIC_4532303.JPG,,ISIC_0015166.JPG,ISIC_4532303.JPG,false,1,keypress(m),500,657934,657933,654386,654370,654402,657969,8,400,7,,ISIC_0015166.JPG
break,html.Screen,4_106_1,2023-05-02T00:07:49.590Z,,0,,,NaN,,,,,,false,,,,657935.0000000001,657935.0000000001,,657934,,657969,8,400,,,
break_continue,html.Screen,4_106_2,2023-05-02T00:07:49.591Z,,0,,,NaN,,,,,,false,,,,657936,657935.0000000001,,657935.0000000001,,657969,8,400,,,
sequence,flow.Sequence,4_106,2023-05-02T00:07:49.591Z,,0,,,3533.0000000001164,completion,,,,,false,,,,657936,657935.0000000001,654386,654370,654402,657969,8,400,,,
trial,html.Screen,4_107_0,2023-05-02T00:07:52.395Z,,0,3,,2786,response,ISIC_0068993.JPG,,ISIC_0000860.JPG,ISIC_0000860.JPG,false,0,keypress(z),500,660740,660739,657953,657936,657969,660769,8,400,8,,ISIC_0068993.JPG
break,html.Screen,4_107_1,2023-05-02T00:07:52.397Z,,0,,,NaN,,,,,,false,,,,660741,660741,,660740,,660769,8,400,,,
break_continue,html.Screen,4_107_2,2023-05-02T00:07:52.397Z,,0,,,NaN,,,,,,false,,,,660742,660742,,660742,,660769,8,400,,,
sequence,flow.Sequence,4_107,2023-05-02T00:07:52.397Z,,0,,,2773,completion,,,,,false,,,,660742,660742,657953,657936,657969,660769,8,400,,,
trial,html.Screen,4_108_0,2023-05-02T00:07:55.420Z,,0,3,,3011,response,ISIC_0016128.JPG,,ISIC_3819893.JPG,ISIC_3819893.JPG,false,0,keypress(z),500,663765,663764,660753,660743,660769,663809,8,400,9,,ISIC_0016128.JPG
break,html.Screen,4_108_1,2023-05-02T00:07:55.422Z,,0,,,NaN,,,,,,false,,,,663766,663766,,663766,,663809,8,400,,,
break_continue,html.Screen,4_108_2,2023-05-02T00:07:55.422Z,,0,,,NaN,,,,,,false,,,,663767,663767,,663767,,663809,8,400,,,
sequence,flow.Sequence,4_108,2023-05-02T00:07:55.422Z,,0,,,2998,completion,,,,,false,,,,663767,663767,660753,660742,660769,663809,8,400,,,
trial,html.Screen,4_109_0,2023-05-02T00:07:58.714Z,,0,3,,3272,response,ISIC_8916136.JPG,,ISIC_0217267.JPG,ISIC_8916136.JPG,false,1,keypress(m),500,667059,667058,663786,663767,663809,667086,8,400,10,,ISIC_0217267.JPG
break,html.Screen,4_109_1,2023-05-02T00:07:58.715Z,,0,,,NaN,,,,,,false,,,,667060.0000000001,667060.0000000001,,667059,,667086,8,400,,,
break_continue,html.Screen,4_109_2,2023-05-02T00:07:58.716Z,,0,,,NaN,,,,,,false,,,,667061,667060.0000000001,,667060.0000000001,,667086,8,400,,,
sequence,flow.Sequence,4_109,2023-05-02T00:07:58.716Z,,0,,,3251.0000000001164,completion,,,,,false,,,,667061,667060.0000000001,663786,663767,663809,667086,8,400,,,
trial,html.Screen,4_110_0,2023-05-02T00:08:01.590Z,,0,3,,2865,response,ISIC_0016145.JPG,,ISIC_0283506.JPG,ISIC_0283506.JPG,false,0,keypress(z),500,669935.0000000001,669934,667069,667061,667086,669969,8,400,11,,ISIC_0016145.JPG
break,html.Screen,4_110_1,2023-05-02T00:08:01.592Z,,0,,,NaN,,,,,,false,,,,669937,669936,,669936,,669969,8,400,,,
break_continue,html.Screen,4_110_2,2023-05-02T00:08:01.592Z,,0,,,NaN,,,,,,false,,,,669937,669937,,669937,,669969,8,400,,,
sequence,flow.Sequence,4_110,2023-05-02T00:08:01.592Z,,0,,,2851,completion,,,,,false,,,,669937,669937,667069,667061,667086,669969,8,400,,,
trial,html.Screen,4_111_0,2023-05-02T00:08:04.996Z,,0,3,,3388,response,ISIC_7068674.JPG,,ISIC_8274622.JPG,ISIC_7068674.JPG,false,1,keypress(m),500,673341,673341,669953,669937,669969,673370,8,400,12,,ISIC_8274622.JPG
break,html.Screen,4_111_1,2023-05-02T00:08:04.997Z,,0,,,NaN,,,,,,false,,,,673342,673342,,673342,,673370,8,400,,,
break_continue,html.Screen,4_111_2,2023-05-02T00:08:04.998Z,,0,,,NaN,,,,,,false,,,,673343,673343,,673343,,673370,8,400,,,
sequence,flow.Sequence,4_111,2023-05-02T00:08:04.998Z,,0,,,3374,completion,,,,,false,,,,673343,673343,669953,669937,669969,673370,8,400,,,
trial,html.Screen,4_112_0,2023-05-02T00:08:09.549Z,,0,3,,4540,response,ISIC_4428769.JPG,,ISIC_7423852.JPG,ISIC_4428769.JPG,false,1,keypress(m),500,677894,677893,673353,673343,673370,677920,8,400,13,,ISIC_7423852.JPG
break,html.Screen,4_112_1,2023-05-02T00:08:09.550Z,,0,,,NaN,,,,,,false,,,,677895,677895,,677894,,677920,8,400,,,
break_continue,html.Screen,4_112_2,2023-05-02T00:08:09.551Z,,0,,,NaN,,,,,,false,,,,677896,677896,,677895,,677920,8,400,,,
sequence,flow.Sequence,4_112,2023-05-02T00:08:09.551Z,,0,,,4526,completion,,,,,false,,,,677896,677896,673353,673343,673370,677920,8,400,,,
trial,html.Screen,4_113_0,2023-05-02T00:08:12.982Z,,0,3,,3424,response,ISIC_8409262.JPG,,ISIC_9847428.JPG,ISIC_9847428.JPG,false,0,keypress(z),500,681327,681327,677903,677896,677920,681353,8,400,14,,ISIC_8409262.JPG
break,html.Screen,4_113_1,2023-05-02T00:08:12.983Z,,0,,,NaN,,,,,,false,,,,681329.0000000001,681328,,681328,,681353,8,400,,,
break_continue,html.Screen,4_113_2,2023-05-02T00:08:12.984Z,,0,,,NaN,,,,,,false,,,,681329.0000000001,681329.0000000001,,681329.0000000001,,681353,8,400,,,
sequence,flow.Sequence,4_113,2023-05-02T00:08:12.984Z,,0,,,3409.0000000001164,completion,,,,,false,,,,681329.0000000001,681329.0000000001,677903,677896,677920,681353,8,400,,,
trial,html.Screen,4_114_0,2023-05-02T00:08:16.219Z,,0,3,,3228,response,ISIC_8033373.JPG,,ISIC_0001142.JPG,ISIC_8033373.JPG,false,1,keypress(m),500,684565,684564,681336,681329.0000000001,681353,684587,8,400,15,,ISIC_0001142.JPG
break,html.Screen,4_114_1,2023-05-02T00:08:16.221Z,,0,,,NaN,,,,,,false,,,,684566,684565,,684565,,684587,8,400,,,
break_continue,html.Screen,4_114_2,2023-05-02T00:08:16.221Z,,0,,,NaN,,,,,,false,,,,684566,684566,,684566,,684587,8,400,,,
sequence,flow.Sequence,4_114,2023-05-02T00:08:16.221Z,,0,,,3213,completion,,,,,false,,,,684567,684566,681336,681329.0000000001,681353,684587,8,400,,,
trial,html.Screen,4_115_0,2023-05-02T00:08:20.444Z,,0,3,,4220,response,ISIC_1925623.JPG,,ISIC_7452410.JPG,ISIC_7452410.JPG,false,0,keypress(z),500,688789,688789,684569,684567,684587,688820,8,400,16,,ISIC_1925623.JPG
break,html.Screen,4_115_1,2023-05-02T00:08:20.445Z,,0,,,NaN,,,,,,false,,,,688790,688790,,688789,,688820,8,400,,,
break_continue,html.Screen,4_115_2,2023-05-02T00:08:20.445Z,,0,,,NaN,,,,,,false,,,,688791,688790,,688790,,688820,8,400,,,
sequence,flow.Sequence,4_115,2023-05-02T00:08:20.445Z,,0,,,4203,completion,,,,,false,,,,688791,688790,684569,684567,684587,688820,8,400,,,
trial,html.Screen,4_116_0,2023-05-02T00:08:24.761Z,,0,3,,4303,response,ISIC_0057016.JPG,,ISIC_0024586.JPG,ISIC_0024586.JPG,false,0,keypress(z),500,693107,693106,688803,688791,688820,693137,8,400,17,,ISIC_0057016.JPG
break,html.Screen,4_116_1,2023-05-02T00:08:24.763Z,,0,,,NaN,,,,,,false,,,,693108.0000000001,693108.0000000001,,693107,,693137,8,400,,,
break_continue,html.Screen,4_116_2,2023-05-02T00:08:24.763Z,,0,,,NaN,,,,,,false,,,,693109,693109,,693108.0000000001,,693137,8,400,,,
sequence,flow.Sequence,4_116,2023-05-02T00:08:24.763Z,,0,,,4289,completion,,,,,false,,,,693109,693109,688803,688791,688820,693137,8,400,,,
trial,html.Screen,4_117_0,2023-05-02T00:08:28.804Z,,0,3,,4029,response,ISIC_0029839.JPG,,ISIC_0068116.JPG,ISIC_0068116.JPG,false,0,keypress(z),500,697150,697149,693120,693109,693137,697198,8,400,18,,ISIC_0029839.JPG
break,html.Screen,4_117_1,2023-05-02T00:08:28.805Z,,0,,,NaN,,,,,,false,,,,697151.0000000001,697151.0000000001,,697150,,697198,8,400,,,
break_continue,html.Screen,4_117_2,2023-05-02T00:08:28.806Z,,0,,,NaN,,,,,,false,,,,697151.0000000001,697151.0000000001,,697151.0000000001,,697198,8,400,,,
sequence,flow.Sequence,4_117,2023-05-02T00:08:28.806Z,,0,,,4014.0000000001164,completion,,,,,false,,,,697152,697151.0000000001,693120,693109,693137,697198,8,400,,,
trial,html.Screen,4_118_0,2023-05-02T00:08:32.392Z,,0,3,,3567,response,ISIC_5884700.JPG,,ISIC_1976571.JPG,ISIC_5884700.JPG,false,1,keypress(m),500,700738,700737,697170,697152,697198,700770,8,400,19,,ISIC_1976571.JPG
break,html.Screen,4_118_1,2023-05-02T00:08:32.393Z,,0,,,NaN,,,,,,false,,,,700739,700739,,700738,,700770,8,400,,,
break_continue,html.Screen,4_118_2,2023-05-02T00:08:32.394Z,,0,,,NaN,,,,,,false,,,,700739,700739,,700739,,700770,8,400,,,
sequence,flow.Sequence,4_118,2023-05-02T00:08:32.394Z,,0,,,3541,completion,,,,,false,,,,700740,700739,697170,697152,697198,700770,8,400,,,
trial,html.Screen,4_119_0,2023-05-02T00:08:36.068Z,,0,3,,3659,response,ISIC_0010514.JPG,,ISIC_0013736.JPG,ISIC_0013736.JPG,false,0,keypress(z),500,704414,704413,700754,700740,700770,704437,8,400,20,,ISIC_0010514.JPG
break,html.Screen,4_119_1,2023-05-02T00:08:36.069Z,,0,,,NaN,,,,,,false,,,,704415,704415,,704414,,704437,8,400,,,
break_continue,html.Screen,4_119_2,2023-05-02T00:08:36.070Z,,0,,,NaN,,,,,,false,,,,704415,704415,,704415,,704437,8,400,,,
sequence,flow.Sequence,4_119,2023-05-02T00:08:36.070Z,,0,,,3645,completion,,,,,false,,,,704416,704415,700754,700740,700770,704437,8,400,,,
trial,html.Screen,4_120_0,2023-05-02T00:08:39.380Z,,0,3,,3305,response,ISIC_0056247.JPG,,ISIC_5993530.JPG,ISIC_5993530.JPG,false,0,keypress(z),500,707726,707725,704420,704416,704437,707754,8,400,21,,ISIC_0056247.JPG
break,html.Screen,4_120_1,2023-05-02T00:08:39.381Z,,0,,,NaN,,,,,,false,,,,707727,707727,,707727,,707754,8,400,,,
break_continue,html.Screen,4_120_2,2023-05-02T00:08:39.382Z,,0,,,NaN,,,,,,false,,,,707728.0000000001,707728.0000000001,,707728.0000000001,,707754,8,400,,,
sequence,flow.Sequence,4_120,2023-05-02T00:08:39.382Z,,0,,,3291.0000000001164,completion,,,,,false,,,,707728.0000000001,707728.0000000001,704420,704416,704437,707754,8,400,,,
trial,html.Screen,4_121_0,2023-05-02T00:08:43.046Z,,0,3,,3654,response,ISIC_0033071.JPG,,ISIC_6004197.JPG,ISIC_0033071.JPG,false,1,keypress(m),500,711392,711391,707737,707728.0000000001,707754,711421,8,400,22,,ISIC_6004197.JPG
break,html.Screen,4_121_1,2023-05-02T00:08:43.047Z,,0,,,NaN,,,,,,false,,,,711393,711393,,711392,,711421,8,400,,,
break_continue,html.Screen,4_121_2,2023-05-02T00:08:43.047Z,,0,,,NaN,,,,,,false,,,,711393,711393,,711393,,711421,8,400,,,
sequence,flow.Sequence,4_121,2023-05-02T00:08:43.048Z,,0,,,3639,completion,,,,,false,,,,711394,711393,707737,707728.0000000001,707754,711421,8,400,,,
trial,html.Screen,4_122_0,2023-05-02T00:08:46.446Z,,0,3,,3387,response,ISIC_0062639.JPG,,ISIC_2160913.JPG,ISIC_2160913.JPG,false,0,keypress(z),500,714792,714791,711404,711394,711421,714821,8,400,23,,ISIC_0062639.JPG
break,html.Screen,4_122_1,2023-05-02T00:08:46.447Z,,0,,,NaN,,,,,,false,,,,714793,714793,,714792,,714821,8,400,,,
break_continue,html.Screen,4_122_2,2023-05-02T00:08:46.447Z,,0,,,NaN,,,,,,false,,,,714793,714793,,714793,,714821,8,400,,,
sequence,flow.Sequence,4_122,2023-05-02T00:08:46.448Z,,0,,,3372,completion,,,,,false,,,,714794,714793,711404,711394,711421,714821,8,400,,,
trial,html.Screen,4_123_0,2023-05-02T00:08:49.953Z,,0,3,,3495,response,ISIC_4536709.JPG,,ISIC_7658276.JPG,ISIC_7658276.JPG,false,0,keypress(z),500,718300.0000000001,718299,714804,714794,714821,718347,8,400,24,,ISIC_4536709.JPG
break,html.Screen,4_123_1,2023-05-02T00:08:49.955Z,,0,,,NaN,,,,,,false,,,,718301,718300.0000000001,,718300.0000000001,,718347,8,400,,,
break_continue,html.Screen,4_123_2,2023-05-02T00:08:49.955Z,,0,,,NaN,,,,,,false,,,,718301,718301,,718301,,718347,8,400,,,
sequence,flow.Sequence,4_123,2023-05-02T00:08:49.955Z,,0,,,3480,completion,,,,,false,,,,718301,718301,714804,714794,714821,718347,8,400,,,
trial,html.Screen,4_124_0,2023-05-02T00:08:53.300Z,,0,3,,3324,response,ISIC_0032550.JPG,,ISIC_4099428.JPG,ISIC_4099428.JPG,false,0,keypress(z),500,721646.0000000001,721645,718321,718302,718347,721671,8,400,25,,ISIC_0032550.JPG
break,html.Screen,4_124_1,2023-05-02T00:08:53.301Z,,0,,,NaN,,,,,,false,,,,721647,721647,,721646.0000000001,,721671,8,400,,,
break_continue,html.Screen,4_124_2,2023-05-02T00:08:53.302Z,,0,,,NaN,,,,,,false,,,,721648,721648,,721648,,721671,8,400,,,
sequence,flow.Sequence,4_124,2023-05-02T00:08:53.302Z,,0,,,3301,completion,,,,,false,,,,721648,721648,718321,718301,718347,721671,8,400,,,
trial,html.Screen,4_125_0,2023-05-02T00:08:57.198Z,,0,3,,3889,response,ISIC_9529297.JPG,,ISIC_3737739.JPG,ISIC_3737739.JPG,false,0,keypress(z),500,725544,725543,721654,721648,721671,725571,8,400,26,,ISIC_9529297.JPG
break,html.Screen,4_125_1,2023-05-02T00:08:57.199Z,,0,,,NaN,,,,,,false,,,,725545,725545,,725544,,725571,8,400,,,
break_continue,html.Screen,4_125_2,2023-05-02T00:08:57.199Z,,0,,,NaN,,,,,,false,,,,725546,725545,,725545,,725571,8,400,,,
sequence,flow.Sequence,4_125,2023-05-02T00:08:57.199Z,,0,,,3874,completion,,,,,false,,,,725546,725545,721654,721648,721671,725571,8,400,,,
trial,html.Screen,4_126_0,2023-05-02T00:09:01.388Z,,0,3,,4180,response,ISIC_1819071.JPG,,ISIC_6384927.JPG,ISIC_1819071.JPG,false,1,keypress(m),500,729735,729734,725554,725546,725571,729771,8,400,27,,ISIC_6384927.JPG
break,html.Screen,4_126_1,2023-05-02T00:09:01.390Z,,0,,,NaN,,,,,,false,,,,729736,729736,,729735,,729771,8,400,,,
break_continue,html.Screen,4_126_2,2023-05-02T00:09:01.390Z,,0,,,NaN,,,,,,false,,,,729736,729736,,729736,,729771,8,400,,,
sequence,flow.Sequence,4_126,2023-05-02T00:09:01.390Z,,0,,,4165,completion,,,,,false,,,,729737,729736,725554,725546,725571,729771,8,400,,,
trial,html.Screen,4_127_0,2023-05-02T00:09:05.262Z,,0,3,,3854.0000000001164,response,ISIC_3513367.JPG,,ISIC_0031034.JPG,ISIC_0031034.JPG,false,0,keypress(z),500,733608.0000000001,733608.0000000001,729754,729737,729771,733638,8,400,28,,ISIC_3513367.JPG
break,html.Screen,4_127_1,2023-05-02T00:09:05.263Z,,0,,,NaN,,,,,,false,,,,733610,733609,,733609,,733638,8,400,,,
break_continue,html.Screen,4_127_2,2023-05-02T00:09:05.264Z,,0,,,NaN,,,,,,false,,,,733610,733610,,733610,,733638,8,400,,,
sequence,flow.Sequence,4_127,2023-05-02T00:09:05.264Z,,0,,,3839,completion,,,,,false,,,,733610,733610,729754,729737,729771,733638,8,400,,,
trial,html.Screen,4_128_0,2023-05-02T00:09:08.586Z,,0,3,,3311,response,ISIC_2151727.JPG,,ISIC_0028352.JPG,ISIC_2151727.JPG,false,1,keypress(m),500,736933,736932,733621,733610,733638,736954,8,400,29,,ISIC_0028352.JPG
break,html.Screen,4_128_1,2023-05-02T00:09:08.587Z,,0,,,NaN,,,,,,false,,,,736934,736934,,736933,,736954,8,400,,,
break_continue,html.Screen,4_128_2,2023-05-02T00:09:08.588Z,,0,,,NaN,,,,,,false,,,,736934,736934,,736934,,736954,8,400,,,
sequence,flow.Sequence,4_128,2023-05-02T00:09:08.588Z,,0,,,3296,completion,,,,,false,,,,736934,736934,733621,733610,733638,736954,8,400,,,
trial,html.Screen,4_129_0,2023-05-02T00:09:12.228Z,,0,3,,3637.0000000001164,response,ISIC_2421696.JPG,,ISIC_0015436.JPG,ISIC_2421696.JPG,false,1,keypress(m),500,740574.0000000001,740574.0000000001,736937,736935.0000000001,736954,740604,8,400,30,,ISIC_0015436.JPG
break,html.Screen,4_129_1,2023-05-02T00:09:12.229Z,,0,,,NaN,,,,,,false,,,,740576,740575,,740575,,740604,8,400,,,
break_continue,html.Screen,4_129_2,2023-05-02T00:09:12.229Z,,0,,,NaN,,,,,,false,,,,740576,740576,,740576,,740604,8,400,,,
sequence,flow.Sequence,4_129,2023-05-02T00:09:12.230Z,,0,,,3622,completion,,,,,false,,,,740576,740576,736937,736935.0000000001,736954,740604,8,400,,,
trial,html.Screen,4_130_0,2023-05-02T00:09:15.989Z,,0,3,,3747,response,ISIC_7183212.JPG,,ISIC_0004334.JPG,ISIC_0004334.JPG,false,0,keypress(z),500,744335,744335,740588,740576,740604,744371,8,400,31,,ISIC_7183212.JPG
break,html.Screen,4_130_1,2023-05-02T00:09:15.990Z,,0,,,NaN,,,,,,false,,,,744337,744337,,744336,,744371,8,400,,,
break_continue,html.Screen,4_130_2,2023-05-02T00:09:15.991Z,,0,,,NaN,,,,,,false,,,,744337,744337,,744337,,744371,8,400,,,
sequence,flow.Sequence,4_130,2023-05-02T00:09:15.991Z,,0,,,3733,completion,,,,,false,,,,744338,744337,740588,740576,740604,744371,8,400,,,
trial,html.Screen,4_131_0,2023-05-02T00:09:19.713Z,,0,3,,3704,response,ISIC_0057949.JPG,,ISIC_9397126.JPG,ISIC_9397126.JPG,false,0,keypress(z),500,748060.0000000001,748059,744355,744338,744371,748088,8,400,32,,ISIC_0057949.JPG
break,html.Screen,4_131_1,2023-05-02T00:09:19.714Z,,0,,,NaN,,,,,,false,,,,748061,748061,,748060.0000000001,,748088,8,400,,,
break_continue,html.Screen,4_131_2,2023-05-02T00:09:19.715Z,,0,,,NaN,,,,,,false,,,,748062,748061,,748061,,748088,8,400,,,
sequence,flow.Sequence,4_131,2023-05-02T00:09:19.715Z,,0,,,3690,completion,,,,,false,,,,748062,748061,744355,744338,744371,748088,8,400,,,
trial,html.Screen,4_132_0,2023-05-02T00:09:24.362Z,,0,3,,4637,response,ISIC_6052860.JPG,,ISIC_1343302.JPG,ISIC_6052860.JPG,false,1,keypress(m),500,752709.0000000001,752708,748071,748062,748088,752738,8,400,33,,ISIC_1343302.JPG
break,html.Screen,4_132_1,2023-05-02T00:09:24.363Z,,0,,,NaN,,,,,,false,,,,752710,752710,,752709.0000000001,,752738,8,400,,,
break_continue,html.Screen,4_132_2,2023-05-02T00:09:24.364Z,,0,,,NaN,,,,,,false,,,,752710,752710,,752710,,752738,8,400,,,
sequence,flow.Sequence,4_132,2023-05-02T00:09:24.364Z,,0,,,4622,completion,,,,,false,,,,752711,752710,748071,748062,748088,752738,8,400,,,
trial,html.Screen,4_133_0,2023-05-02T00:09:27.749Z,,0,3,,3374,response,ISIC_7110699.JPG,,ISIC_0029825.JPG,ISIC_7110699.JPG,false,1,keypress(m),500,756096,756095,752721,752711,752738,756122,8,400,34,,ISIC_0029825.JPG
break,html.Screen,4_133_1,2023-05-02T00:09:27.750Z,,0,,,NaN,,,,,,false,,,,756097,756097,,756096,,756122,8,400,,,
break_continue,html.Screen,4_133_2,2023-05-02T00:09:27.751Z,,0,,,NaN,,,,,,false,,,,756098.0000000001,756098.0000000001,,756097,,756122,8,400,,,
sequence,flow.Sequence,4_133,2023-05-02T00:09:27.751Z,,0,,,3360.0000000001164,completion,,,,,false,,,,756098.0000000001,756098.0000000001,752721,752711,752738,756122,8,400,,,
trial,html.Screen,4_134_0,2023-05-02T00:09:30.868Z,,0,3,,3110,response,ISIC_0013634.JPG,,ISIC_5048124.JPG,ISIC_5048124.JPG,false,0,keypress(z),500,759215,759214,756104,756098.0000000001,756122,759238,8,400,35,,ISIC_0013634.JPG
break,html.Screen,4_134_1,2023-05-02T00:09:30.869Z,,0,,,NaN,,,,,,false,,,,759216,759216,,759215,,759238,8,400,,,
break_continue,html.Screen,4_134_2,2023-05-02T00:09:30.870Z,,0,,,NaN,,,,,,false,,,,759217,759217,,759217,,759238,8,400,,,
sequence,flow.Sequence,4_134,2023-05-02T00:09:30.870Z,,0,,,3095,completion,,,,,false,,,,759217,759217,756104,756098.0000000001,756122,759238,8,400,,,
trial,html.Screen,4_135_0,2023-05-02T00:09:34.828Z,,0,3,,3954.0000000001164,response,ISIC_0064798.JPG,,ISIC_0010466.JPG,ISIC_0010466.JPG,false,0,keypress(z),500,763175.0000000001,763175.0000000001,759221,759217,759238,763205,8,400,36,,ISIC_0064798.JPG
break,html.Screen,4_135_1,2023-05-02T00:09:34.830Z,,0,,,NaN,,,,,,false,,,,763177,763176,,763176,,763205,8,400,,,
break_continue,html.Screen,4_135_2,2023-05-02T00:09:34.830Z,,0,,,NaN,,,,,,false,,,,763177,763177,,763177,,763205,8,400,,,
sequence,flow.Sequence,4_135,2023-05-02T00:09:34.830Z,,0,,,3939,completion,,,,,false,,,,763177,763177,759221,759217,759238,763205,8,400,,,
trial,html.Screen,4_136_0,2023-05-02T00:09:38.475Z,,0,3,,3633,response,ISIC_0650126.JPG,,ISIC_0067167.JPG,ISIC_0650126.JPG,false,1,keypress(m),500,766822,766821,763188,763178,763205,766855,8,400,37,,ISIC_0067167.JPG
break,html.Screen,4_136_1,2023-05-02T00:09:38.476Z,,0,,,NaN,,,,,,false,,,,766823,766823,,766822,,766855,8,400,,,
break_continue,html.Screen,4_136_2,2023-05-02T00:09:38.476Z,,0,,,NaN,,,,,,false,,,,766824.0000000001,766824.0000000001,,766823,,766855,8,400,,,
sequence,flow.Sequence,4_136,2023-05-02T00:09:38.477Z,,0,,,3619.0000000001164,completion,,,,,false,,,,766824.0000000001,766824.0000000001,763188,763178,763205,766855,8,400,,,
trial,html.Screen,4_137_0,2023-05-02T00:09:41.700Z,,0,3,,3208,response,ISIC_0030689.JPG,,ISIC_0025965.JPG,ISIC_0025965.JPG,false,0,keypress(z),500,770047,770046,766838,766824.0000000001,766855,770072,8,400,38,,ISIC_0030689.JPG
break,html.Screen,4_137_1,2023-05-02T00:09:41.701Z,,0,,,NaN,,,,,,false,,,,770048,770048,,770047,,770072,8,400,,,
break_continue,html.Screen,4_137_2,2023-05-02T00:09:41.701Z,,0,,,NaN,,,,,,false,,,,770049,770048,,770048,,770072,8,400,,,
sequence,flow.Sequence,4_137,2023-05-02T00:09:41.701Z,,0,,,3193,completion,,,,,false,,,,770049,770048,766838,766824.0000000001,766855,770072,8,400,,,
trial,html.Screen,4_138_0,2023-05-02T00:09:45.591Z,,0,3,,3882,response,ISIC_1208705.JPG,,ISIC_7558912.JPG,ISIC_1208705.JPG,false,1,keypress(m),500,773938,773937,770055,770049,770072,773972,8,400,39,,ISIC_7558912.JPG
break,html.Screen,4_138_1,2023-05-02T00:09:45.592Z,,0,,,NaN,,,,,,false,,,,773939,773939,,773938,,773972,8,400,,,
break_continue,html.Screen,4_138_2,2023-05-02T00:09:45.592Z,,0,,,NaN,,,,,,false,,,,773940,773940,,773939,,773972,8,400,,,
sequence,flow.Sequence,4_138,2023-05-02T00:09:45.593Z,,0,,,3868,completion,,,,,false,,,,773940,773940,770055,770049,770072,773972,8,400,,,
trial,html.Screen,4_139_0,2023-05-02T00:09:49.473Z,,0,3,,3864,response,ISIC_6370597.JPG,,ISIC_0012067.JPG,ISIC_6370597.JPG,false,1,keypress(m),500,777820,777819,773955,773940,773972,777855,8,400,40,,ISIC_0012067.JPG
break,html.Screen,4_139_1,2023-05-02T00:09:49.474Z,,0,,,NaN,,,,,,false,,,,777821,777821,,777821,,777855,8,400,,,
break_continue,html.Screen,4_139_2,2023-05-02T00:09:49.474Z,,0,,,NaN,,,,,,false,,,,777822,777822,,777822,,777855,8,400,,,
sequence,flow.Sequence,4_139,2023-05-02T00:09:49.475Z,,0,,,3850,completion,,,,,false,,,,777822,777822,773955,773940,773972,777855,8,400,,,
trial,html.Screen,4_140_0,2023-05-02T00:09:52.869Z,,0,3,,3377,response,ISIC_5037784.JPG,,ISIC_0028910.JPG,ISIC_0028910.JPG,false,0,keypress(z),500,781217,781216,777839,777822,777855,781239,8,400,41,,ISIC_5037784.JPG
break,html.Screen,4_140_1,2023-05-02T00:09:52.870Z,,0,,,NaN,,,,,,false,,,,781218,781218,,781217,,781239,8,400,,,
break_continue,html.Screen,4_140_2,2023-05-02T00:09:52.871Z,,0,,,NaN,,,,,,false,,,,781218,781218,,781218,,781239,8,400,,,
sequence,flow.Sequence,4_140,2023-05-02T00:09:52.871Z,,0,,,3363,completion,,,,,false,,,,781218,781218,777839,777822,777855,781239,8,400,,,
trial,html.Screen,4_141_0,2023-05-02T00:09:56.958Z,,0,3,,4084.0000000001164,response,ISIC_0024891.JPG,,ISIC_5980439.JPG,ISIC_5980439.JPG,false,0,keypress(z),500,785305.0000000001,785305.0000000001,781221,781219,781239,785339,8,400,42,,ISIC_0024891.JPG
break,html.Screen,4_141_1,2023-05-02T00:09:56.959Z,,0,,,NaN,,,,,,false,,,,785306,785306,,785306,,785339,8,400,,,
break_continue,html.Screen,4_141_2,2023-05-02T00:09:56.959Z,,0,,,NaN,,,,,,false,,,,785307,785307,,785307,,785339,8,400,,,
sequence,flow.Sequence,4_141,2023-05-02T00:09:56.959Z,,0,,,4068,completion,,,,,false,,,,785307,785307,781221,781219,781239,785339,8,400,,,
trial,html.Screen,4_142_0,2023-05-02T00:10:00.155Z,,0,3,,3180.0000000001164,response,ISIC_7203184.JPG,,ISIC_0028082.JPG,ISIC_7203184.JPG,false,1,keypress(m),500,788503,788502.0000000001,785322,785307,785339,788539,8,400,43,,ISIC_0028082.JPG
break,html.Screen,4_142_1,2023-05-02T00:10:00.157Z,,0,,,NaN,,,,,,false,,,,788504,788504,,788504,,788539,8,400,,,
break_continue,html.Screen,4_142_2,2023-05-02T00:10:00.157Z,,0,,,NaN,,,,,,false,,,,788505,788505,,788505,,788539,8,400,,,
sequence,flow.Sequence,4_142,2023-05-02T00:10:00.157Z,,0,,,3166,completion,,,,,false,,,,788505,788505,785322,785307,785339,788539,8,400,,,
trial,html.Screen,4_143_0,2023-05-02T00:10:03.708Z,,0,3,,3533.0000000001164,response,ISIC_0028534.JPG,,ISIC_4107250.JPG,ISIC_4107250.JPG,false,0,keypress(z),500,792056,792055.0000000001,788522,788506,788539,792089,8,400,44,,ISIC_0028534.JPG
break,html.Screen,4_143_1,2023-05-02T00:10:03.709Z,,0,,,NaN,,,,,,false,,,,792057,792057,,792056,,792089,8,400,,,
break_continue,html.Screen,4_143_2,2023-05-02T00:10:03.710Z,,0,,,NaN,,,,,,false,,,,792058,792058,,792057,,792089,8,400,,,
sequence,flow.Sequence,4_143,2023-05-02T00:10:03.710Z,,0,,,3519,completion,,,,,false,,,,792058,792058,788522,788505,788539,792089,8,400,,,
trial,html.Screen,4_144_0,2023-05-02T00:10:08.245Z,,0,3,,4519,response,ISIC_0072748.JPG,,ISIC_0054185.JPG,ISIC_0072748.JPG,false,1,keypress(m),500,796593,796592,792073,792058,792089,796623,8,400,45,,ISIC_0054185.JPG
break,html.Screen,4_144_1,2023-05-02T00:10:08.246Z,,0,,,NaN,,,,,,false,,,,796594,796594,,796593,,796623,8,400,,,
break_continue,html.Screen,4_144_2,2023-05-02T00:10:08.247Z,,0,,,NaN,,,,,,false,,,,796594,796594,,796594,,796623,8,400,,,
sequence,flow.Sequence,4_144,2023-05-02T00:10:08.247Z,,0,,,4505,completion,,,,,false,,,,796595,796594,792073,792058,792089,796623,8,400,,,
trial,html.Screen,4_145_0,2023-05-02T00:10:11.537Z,,0,3,,3278,response,ISIC_1472777.JPG,,ISIC_0012382.JPG,ISIC_0012382.JPG,false,0,keypress(z),500,799885,799884,796606,796595,796623,799932,8,400,46,,ISIC_1472777.JPG
break,html.Screen,4_145_1,2023-05-02T00:10:11.538Z,,0,,,NaN,,,,,,false,,,,799886,799886,,799885,,799932,8,400,,,
break_continue,html.Screen,4_145_2,2023-05-02T00:10:11.538Z,,0,,,NaN,,,,,,false,,,,799886,799886,,799886,,799932,8,400,,,
sequence,flow.Sequence,4_145,2023-05-02T00:10:11.538Z,,0,,,3263,completion,,,,,false,,,,799887,799886,796606,796595,796623,799932,8,400,,,
trial,html.Screen,4_146_0,2023-05-02T00:10:15.587Z,,0,3,,4028,response,ISIC_0013840.JPG,,ISIC_1210011.JPG,ISIC_0013840.JPG,false,1,keypress(m),500,803935.0000000001,803934,799906,799887,799932,803981,8,400,47,,ISIC_1210011.JPG
break,html.Screen,4_146_1,2023-05-02T00:10:15.588Z,,0,,,NaN,,,,,,false,,,,803936,803936,,803935.0000000001,,803981,8,400,,,
break_continue,html.Screen,4_146_2,2023-05-02T00:10:15.588Z,,0,,,NaN,,,,,,false,,,,803936,803936,,803936,,803981,8,400,,,
sequence,flow.Sequence,4_146,2023-05-02T00:10:15.588Z,,0,,,4004,completion,,,,,false,,,,803937,803936,799906,799887,799932,803981,8,400,,,
trial,html.Screen,4_147_0,2023-05-02T00:10:18.923Z,,0,3,,3315.0000000001164,response,ISIC_0067609.JPG,,ISIC_0001108.JPG,ISIC_0067609.JPG,false,1,keypress(m),500,807272,807271.0000000001,803956,803937,803981,807306,8,400,48,,ISIC_0001108.JPG
break,html.Screen,4_147_1,2023-05-02T00:10:18.924Z,,0,,,NaN,,,,,,false,,,,807273,807272,,807272,,807306,8,400,,,
break_continue,html.Screen,4_147_2,2023-05-02T00:10:18.925Z,,0,,,NaN,,,,,,false,,,,807273,807273,,807273,,807306,8,400,,,
sequence,flow.Sequence,4_147,2023-05-02T00:10:18.925Z,,0,,,3292,completion,,,,,false,,,,807273,807273,803956,803937,803981,807306,8,400,,,
trial,html.Screen,4_148_0,2023-05-02T00:10:23.763Z,,0,3,,4821,response,ISIC_0001923.JPG,,ISIC_9232153.JPG,ISIC_0001923.JPG,false,1,keypress(m),500,812111,812110,807289,807273,807306,812140,8,400,49,,ISIC_9232153.JPG
break,html.Screen,4_148_1,2023-05-02T00:10:23.764Z,,0,,,NaN,,,,,,false,,,,812112,812112,,812111,,812140,8,400,,,
break_continue,html.Screen,4_148_2,2023-05-02T00:10:23.764Z,,0,,,NaN,,,,,,false,,,,812113,812112,,812112,,812140,8,400,,,
sequence,flow.Sequence,4_148,2023-05-02T00:10:23.765Z,,0,,,4806,completion,,,,,false,,,,812113,812112,807289,807273,807306,812140,8,400,,,
trial,html.Screen,4_149_0,2023-05-02T00:10:27.788Z,,0,3,,4013,response,ISIC_0013565.JPG,,ISIC_0054123.JPG,ISIC_0054123.JPG,false,0,keypress(z),500,816137,816136,812123,812113,812140,816173,8,400,50,,ISIC_0013565.JPG
break,html.Screen,4_149_1,2023-05-02T00:10:32.808Z,,0,,,5000,timeout,,,,,false,,,,821157,821156,816155,816137,816173,821173,8,400,,,
break_continue,html.Screen,4_149_2,2023-05-02T00:10:36.705Z,,0,,,3852,response,,,,,false,continue,keypress(Space),,825054,825008,821156,821157,821173,825097,8,400,,,
sequence,flow.Sequence,4_149,2023-05-02T00:10:36.705Z,,0,,,12868,completion,,,,,false,,,,825054,825008,812123,812113,812140,825097,8,400,,,
trial,html.Screen,4_150_0,2023-05-02T00:10:39.834Z,,0,4,,3109,response,ISIC_0064014.JPG,,ISIC_1473522.JPG,ISIC_1473522.JPG,false,0,keypress(z),500,828183,828182,825073,825054,825097,828207,8,400,1,,ISIC_0064014.JPG
break,html.Screen,4_150_1,2023-05-02T00:10:39.835Z,,0,,,NaN,,,,,,false,,,,828184,828184,,828183,,828207,8,400,,,
break_continue,html.Screen,4_150_2,2023-05-02T00:10:39.836Z,,0,,,NaN,,,,,,false,,,,828184,828184,,828184,,828207,8,400,,,
sequence,flow.Sequence,4_150,2023-05-02T00:10:39.836Z,,0,,,3087,completion,,,,,false,,,,828184,828184,825073,825054,825097,828207,8,400,,,
trial,html.Screen,4_151_0,2023-05-02T00:10:43.155Z,,0,4,,3313,response,ISIC_0069591.JPG,,ISIC_0010818.JPG,ISIC_0069591.JPG,false,1,keypress(m),500,831504,831503,828190,828185.0000000001,828207,831540,8,400,2,,ISIC_0010818.JPG
break,html.Screen,4_151_1,2023-05-02T00:10:43.156Z,,0,,,NaN,,,,,,false,,,,831505,831505,,831504,,831540,8,400,,,
break_continue,html.Screen,4_151_2,2023-05-02T00:10:43.157Z,,0,,,NaN,,,,,,false,,,,831505,831505,,831505,,831540,8,400,,,
sequence,flow.Sequence,4_151,2023-05-02T00:10:43.157Z,,0,,,3298,completion,,,,,false,,,,831506,831505,828190,828185.0000000001,828207,831540,8,400,,,
trial,html.Screen,4_152_0,2023-05-02T00:10:46.417Z,,0,4,,3242,response,ISIC_0010923.JPG,,ISIC_0026089.JPG,ISIC_0026089.JPG,false,0,keypress(z),500,834765,834765,831523,831506,831540,834790,8,400,3,,ISIC_0010923.JPG
break,html.Screen,4_152_1,2023-05-02T00:10:46.418Z,,0,,,NaN,,,,,,false,,,,834767,834766,,834766,,834790,8,400,,,
break_continue,html.Screen,4_152_2,2023-05-02T00:10:46.418Z,,0,,,NaN,,,,,,false,,,,834767,834767,,834767,,834790,8,400,,,
sequence,flow.Sequence,4_152,2023-05-02T00:10:46.419Z,,0,,,3227,completion,,,,,false,,,,834767,834767,831523,831506,831540,834790,8,400,,,
trial,html.Screen,4_153_0,2023-05-02T00:10:49.526Z,,0,4,,3101,response,ISIC_0055293.JPG,,ISIC_2134975.JPG,ISIC_2134975.JPG,false,0,keypress(z),500,837874,837874,834773,834768,834790,837907,8,400,4,,ISIC_0055293.JPG
break,html.Screen,4_153_1,2023-05-02T00:10:49.527Z,,0,,,NaN,,,,,,false,,,,837876,837875,,837875,,837907,8,400,,,
break_continue,html.Screen,4_153_2,2023-05-02T00:10:49.527Z,,0,,,NaN,,,,,,false,,,,837876,837876,,837876,,837907,8,400,,,
sequence,flow.Sequence,4_153,2023-05-02T00:10:49.527Z,,0,,,3086,completion,,,,,false,,,,837876,837876,834773,834768,834790,837907,8,400,,,
trial,html.Screen,4_154_0,2023-05-02T00:10:55.893Z,,0,4,,6352,response,ISIC_0031553.JPG,,ISIC_0012183.JPG,ISIC_0012183.JPG,false,0,keypress(z),500,844242,844242,837890,837876,837907,844274,8,400,5,,ISIC_0031553.JPG
break,html.Screen,4_154_1,2023-05-02T00:10:55.894Z,,0,,,NaN,,,,,,false,,,,844243,844243,,844243,,844274,8,400,,,
break_continue,html.Screen,4_154_2,2023-05-02T00:10:55.895Z,,0,,,NaN,,,,,,false,,,,844244,844244,,844244,,844274,8,400,,,
sequence,flow.Sequence,4_154,2023-05-02T00:10:55.895Z,,0,,,6337,completion,,,,,false,,,,844244,844244,837890,837876,837907,844274,8,400,,,
trial,html.Screen,4_155_0,2023-05-02T00:10:59.078Z,,0,4,,3170,response,ISIC_9002603.JPG,,ISIC_7630208.JPG,ISIC_9002603.JPG,false,1,keypress(m),500,847427,847427,844257,844244,844274,847457,8,400,6,,ISIC_7630208.JPG
break,html.Screen,4_155_1,2023-05-02T00:10:59.080Z,,0,,,NaN,,,,,,false,,,,847429,847428,,847428,,847457,8,400,,,
break_continue,html.Screen,4_155_2,2023-05-02T00:10:59.080Z,,0,,,NaN,,,,,,false,,,,847429,847429,,847429,,847457,8,400,,,
sequence,flow.Sequence,4_155,2023-05-02T00:10:59.080Z,,0,,,3155,completion,,,,,false,,,,847429,847429,844257,844244,844274,847457,8,400,,,
trial,html.Screen,4_156_0,2023-05-02T00:11:03.379Z,,0,4,,4288.000000000116,response,ISIC_0254447.JPG,,ISIC_3190566.JPG,ISIC_3190566.JPG,false,0,keypress(z),500,851728.0000000001,851728.0000000001,847440,847430.0000000001,847457,851757,8,400,7,,ISIC_0254447.JPG
break,html.Screen,4_156_1,2023-05-02T00:11:03.379Z,,0,,,NaN,,,,,,false,,,,851728.0000000001,851728.0000000001,,851728.0000000001,,851757,8,400,,,
break_continue,html.Screen,4_156_2,2023-05-02T00:11:03.379Z,,0,,,NaN,,,,,,false,,,,851728.0000000001,851728.0000000001,,851728.0000000001,,851757,8,400,,,
sequence,flow.Sequence,4_156,2023-05-02T00:11:03.379Z,,0,,,4271.000000000116,completion,,,,,false,,,,851728.0000000001,851728.0000000001,847440,847429,847457,851757,8,400,,,
trial,html.Screen,4_157_0,2023-05-02T00:11:06.405Z,,0,4,,3014,response,ISIC_1550721.JPG,,ISIC_0026112.JPG,ISIC_1550721.JPG,false,1,keypress(m),500,854754,854754,851740,851728.0000000001,851757,854799,8,400,8,,ISIC_0026112.JPG
break,html.Screen,4_157_1,2023-05-02T00:11:06.406Z,,0,,,NaN,,,,,,false,,,,854756,854755,,854755,,854799,8,400,,,
break_continue,html.Screen,4_157_2,2023-05-02T00:11:06.407Z,,0,,,NaN,,,,,,false,,,,854756,854756,,854756,,854799,8,400,,,
