sender,sender_type,sender_id,timestamp,meta,,blockNo,condition,duration,ended_on,img_left,img_reveal,img_right,loser,practice,response,response_action,selection_duration,time_commit,time_end,time_render,time_run,time_show,time_switch,total_blocks,total_trials,trialNo,url,winner
informed_consent,html.Screen,0,2023-09-12T21:42:59.236Z,"{""labjs_version"":""20.2.4"",""labjs_build"":{""flavor"":""production"",""commit"":""f5b4a49f956347addd546a832a3327688c2c0fef""},""location"":""https://run.pavlovia.org/MurrayBennett/melanoma-2afc/?participant=67409&platform=sona"",""userAgent"":""Mozilla/5.0 (Windows NT 10.0; Win64; x64) AppleWebKit/537.36 (KHTML, like Gecko) Chrome/116.0.0.0 Safari/537.36"",""platform"":""Win32"",""language"":""en-US"",""locale"":""en-US"",""timeZone"":""America/Chicago"",""timezoneOffset"":300,""screen_width"":1280,""screen_height"":720,""scroll_width"":1280,""scroll_height"":555,""window_innerWidth"":1280,""window_innerHeight"":603,""devicePixelRatio"":1.5}",,,,2868.089999809265,response,,,,,,consent,click button,,5694.799999952316,5685.699999809265,2349.719,2808.7999999523163,2817.61,5715.554,,,,"{""participant"":""67409"",""platform"":""sona""}",
Welcome,html.Screen,1,2023-09-12T21:43:00.111Z,,,,regular,852.0459999046325,response,,,,,,continue,click button,,6570.599999904633,6567.599999904633,5682.995,5695.299999952316,5715.554,6573.638,,,,,
trial,html.Screen,2_0_0,2023-09-12T21:43:10.866Z,,0,0,,10751.461999904634,response,ISIC_4679428.JPG,,ISIC_0061792.JPG,ISIC_4679428.JPG,true,1,keypress(m),500,17325.39999985695,17325.099999904633,6565.323,6570.799999952316,6573.638,17338.341,1,6,1,,ISIC_0061792.JPG
sequence,flow.Sequence,2_0,2023-09-12T21:43:10.867Z,,0,,,10751.461999904634,completion,,,,,true,,,,17326,17325.099999904633,6565.323,6570.799999952316,6573.638,17338.341,1,6,,,
trial,html.Screen,2_1_0,2023-09-12T21:43:18.534Z,,0,0,,7654.758999904632,response,ISIC_0776486.JPG,,ISIC_5199497.JPG,ISIC_0776486.JPG,true,1,keypress(m),500,24993.39999985695,24993.099999904633,17322.319,17326.199999809265,17338.341,25011.31,1,6,2,,ISIC_5199497.JPG
sequence,flow.Sequence,2_1,2023-09-12T21:43:18.535Z,,0,,,7654.758999904632,completion,,,,,true,,,,24993.799999952316,24993.099999904633,17322.319,17326.199999809265,17338.341,25011.31,1,6,,,
trial,html.Screen,2_2_0,2023-09-12T21:43:21.310Z,,0,0,,2757.6899999999987,response,ISIC_2556187.JPG,,ISIC_8575776.JPG,ISIC_2556187.JPG,true,1,keypress(m),500,27769.299999952316,27769,24994.395,24994,25011.31,27785.556,1,6,3,,ISIC_8575776.JPG
sequence,flow.Sequence,2_2,2023-09-12T21:43:21.310Z,,0,,,2757.6899999999987,completion,,,,,true,,,,27769.599999904633,27769,24994.395,24993.89999985695,25011.31,27785.556,1,6,,,
trial,html.Screen,2_3_0,2023-09-12T21:43:23.793Z,,0,0,,2466.043999904632,response,ISIC_8141769.JPG,,ISIC_9238366.JPG,ISIC_8141769.JPG,true,1,keypress(m),500,30251.89999985695,30251.599999904633,27760.265,27769.799999952316,27785.556,30268.107,1,6,4,,ISIC_9238366.JPG
sequence,flow.Sequence,2_3,2023-09-12T21:43:23.793Z,,0,,,2466.043999904632,completion,,,,,true,,,,30252.39999985695,30251.599999904633,27760.265,27769.799999952316,27785.556,30268.107,1,6,,,
trial,html.Screen,2_4_0,2023-09-12T21:43:26.182Z,,0,0,,2372.893,response,ISIC_8949026.JPG,,ISIC_9959593.JPG,ISIC_8949026.JPG,true,1,keypress(m),500,32641.699999809265,32641,30251.447,30252.599999904633,30268.107,32659.719,1,6,5,,ISIC_9959593.JPG
sequence,flow.Sequence,2_4,2023-09-12T21:43:26.183Z,,0,,,2372.893,completion,,,,,true,,,,32642.199999809265,32641,30251.447,30252.599999904633,30268.107,32659.719,1,6,,,
trial,html.Screen,2_5_0,2023-09-12T21:43:37.682Z,,0,0,,11513.798999999995,timeout,ISIC_0460240.JPG,,ISIC_0010479.JPG,,true,,,500,44141.39999985695,44141,32642.571,32642.39999985695,32659.719,44173.518,1,6,6,,
sequence,flow.Sequence,2_5,2023-09-12T21:43:37.683Z,,0,,,11481.280999999999,completion,,,,,true,,,,44141.89999985695,44141,32642.571,32642.39999985695,32659.719,44173.518,1,6,,,
loop,flow.Loop,2,2023-09-12T21:43:37.683Z,,,,,37567.362,completion,,,,,true,,,,44142.199999809265,44141,6565.323,6570.799999952316,6573.638,44173.518,1,6,,,
exp_instructions,html.Screen,3,2023-09-12T21:43:58.190Z,,,,,20474.982000000004,response,,,,,,continue,keypress(Space),,64649.699999809265,64648.5,44156.309,44142.299999952316,44173.518,64669.187,,,,,
trial,html.Screen,4_0_0,2023-09-12T21:44:03.379Z,,0,1,,5169.212999856951,response,ISIC_0071457.JPG,6,ISIC_5576354.JPG,ISIC_0071457.JPG,false,1,keypress(m),500,69838.79999995232,69838.39999985695,64635.853,64650,64669.187,69858.713,8,400,1,,ISIC_5576354.JPG
break,html.Screen,4_0_1,2023-09-12T21:44:03.381Z,,0,,,NaN,,,,,,false,,,,69840.29999995232,69839.89999985695,,69839.09999990463,,69858.713,8,400,,,
break_continue,html.Screen,4_0_2,2023-09-12T21:44:03.381Z,,0,,,NaN,,,,,,false,,,,69840.89999985695,69840.69999980927,,69840.5,,69858.713,8,400,,,
sequence,flow.Sequence,4_0,2023-09-12T21:44:03.381Z,,0,,,5171.512999809267,completion,,,,,false,,,,69841.19999980927,69840.69999980927,64635.853,64650,64669.187,69858.713,8,400,,,
trial,html.Screen,4_1_0,2023-09-12T21:44:07.512Z,,0,1,,4113.086999952313,response,ISIC_8679617.JPG,5,ISIC_0010433.JPG,ISIC_8679617.JPG,false,1,keypress(m),500,73972.19999980927,73971.79999995232,69825.447,69841.29999995232,69858.713,73991.323,8,400,2,,ISIC_0010433.JPG
break,html.Screen,4_1_1,2023-09-12T21:44:07.514Z,,0,,,NaN,,,,,,false,,,,73973.29999995232,73972.79999995232,,73972.39999985695,,73991.323,8,400,,,
break_continue,html.Screen,4_1_2,2023-09-12T21:44:07.514Z,,0,,,NaN,,,,,,false,,,,73973.89999985695,73973.79999995232,,73973.59999990463,,73991.323,8,400,,,
sequence,flow.Sequence,4_1,2023-09-12T21:44:07.514Z,,0,,,4115.086999952313,completion,,,,,false,,,,73974.09999990463,73973.79999995232,69825.447,69841.19999980927,69858.713,73991.323,8,400,,,
trial,html.Screen,4_2_0,2023-09-12T21:44:11.261Z,,0,1,,3728.676999999996,response,ISIC_8530010.JPG,5,ISIC_0058177.JPG,ISIC_8530010.JPG,false,1,keypress(m),500,77720.19999980927,77720,73957.712,73974.19999980927,73991.323,77723.424,8,400,3,,ISIC_0058177.JPG
break,html.Screen,4_2_1,2023-09-12T21:44:11.262Z,,0,,,NaN,,,,,,false,,,,77721.39999985695,77721,,77720.5,,77723.424,8,400,,,
break_continue,html.Screen,4_2_2,2023-09-12T21:44:11.262Z,,0,,,NaN,,,,,,false,,,,77722,77721.79999995232,,77721.59999990463,,77723.424,8,400,,,
sequence,flow.Sequence,4_2,2023-09-12T21:44:11.262Z,,0,,,3730.4769999523123,completion,,,,,false,,,,77722.09999990463,77721.79999995232,73957.712,73974.19999980927,73991.323,77723.424,8,400,,,
trial,html.Screen,4_3_0,2023-09-12T21:44:15.617Z,,0,1,,4353.47599985695,response,ISIC_0058164.JPG,6,ISIC_0026531.JPG,ISIC_0026531.JPG,false,0,keypress(z),500,82077.09999990463,82076.89999985695,77707.016,77722.29999995232,77723.424,82089.292,8,400,4,,ISIC_0058164.JPG
break,html.Screen,4_3_1,2023-09-12T21:44:15.619Z,,0,,,NaN,,,,,,false,,,,82078.29999995232,82077.69999980927,,82077.39999985695,,82089.292,8,400,,,
break_continue,html.Screen,4_3_2,2023-09-12T21:44:15.619Z,,0,,,NaN,,,,,,false,,,,82078.79999995232,82078.59999990463,,82078.5,,82089.292,8,400,,,
sequence,flow.Sequence,4_3,2023-09-12T21:44:15.619Z,,0,,,4355.1759999046335,completion,,,,,false,,,,82079.09999990463,82078.59999990463,77707.016,77722.19999980927,77723.424,82089.292,8,400,,,
trial,html.Screen,4_4_0,2023-09-12T21:44:20.077Z,,0,1,,4447.207999999999,response,ISIC_0066878.JPG,5,ISIC_0072371.JPG,ISIC_0066878.JPG,false,1,keypress(m),500,86536.89999985695,86536.5,82073.091,82079.19999980927,82089.292,86546.386,8,400,5,,ISIC_0072371.JPG
break,html.Screen,4_4_1,2023-09-12T21:44:20.078Z,,0,,,NaN,,,,,,false,,,,86538,86537.59999990463,,86537.09999990463,,86546.386,8,400,,,
break_continue,html.Screen,4_4_2,2023-09-12T21:44:20.079Z,,0,,,NaN,,,,,,false,,,,86538.59999990463,86538.39999985695,,86538.29999995232,,86546.386,8,400,,,
sequence,flow.Sequence,4_4,2023-09-12T21:44:20.079Z,,0,,,4449.107999856948,completion,,,,,false,,,,86538.79999995232,86538.39999985695,82073.091,82079.09999990463,82089.292,86546.386,8,400,,,
trial,html.Screen,4_5_0,2023-09-12T21:44:24.113Z,,0,1,,4026.213999904634,response,ISIC_0033621.JPG,5,ISIC_2337786.JPG,ISIC_0033621.JPG,false,1,keypress(m),500,90572.89999985695,90572.59999990463,86530.357,86539,86546.386,90595.405,8,400,6,,ISIC_2337786.JPG
break,html.Screen,4_5_1,2023-09-12T21:44:24.114Z,,0,,,NaN,,,,,,false,,,,90574,90573.5,,90573.09999990463,,90595.405,8,400,,,
break_continue,html.Screen,4_5_2,2023-09-12T21:44:24.115Z,,0,,,NaN,,,,,,false,,,,90574.69999980927,90574.5,,90574.39999985695,,90595.405,8,400,,,
sequence,flow.Sequence,4_5,2023-09-12T21:44:24.115Z,,0,,,4028.1140000000014,completion,,,,,false,,,,90575.09999990463,90574.5,86530.357,86538.89999985695,86546.386,90595.405,8,400,,,
trial,html.Screen,4_6_0,2023-09-12T21:44:32.502Z,,0,1,,8365.99499985695,response,ISIC_6779421.JPG,5,ISIC_4535099.JPG,ISIC_4535099.JPG,false,0,keypress(z),500,98961.59999990463,98961.39999985695,90563.034,90575.39999985695,90595.405,98976.716,8,400,7,,ISIC_6779421.JPG
break,html.Screen,4_6_1,2023-09-12T21:44:32.503Z,,0,,,NaN,,,,,,false,,,,98962.69999980927,98962.29999995232,,98961.89999985695,,98976.716,8,400,,,
break_continue,html.Screen,4_6_2,2023-09-12T21:44:32.504Z,,0,,,NaN,,,,,,false,,,,98963.19999980927,98963.09999990463,,98963,,98976.716,8,400,,,
sequence,flow.Sequence,4_6,2023-09-12T21:44:32.504Z,,0,,,8367.694999904634,completion,,,,,false,,,,98963.39999985695,98963.09999990463,90563.034,90575.29999995232,90595.405,98976.716,8,400,,,
trial,html.Screen,4_7_0,2023-09-12T21:44:38.906Z,,0,1,,6388.784,response,ISIC_9482039.JPG,5,ISIC_0011628.JPG,ISIC_9482039.JPG,false,1,keypress(m),500,105365.79999995232,105365.5,98960.592,98963.59999990463,98976.716,105375.239,8,400,8,,ISIC_0011628.JPG
break,html.Screen,4_7_1,2023-09-12T21:44:38.907Z,,0,,,NaN,,,,,,false,,,,105366.79999995232,105366.39999985695,,105366,,105375.239,8,400,,,
break_continue,html.Screen,4_7_2,2023-09-12T21:44:38.908Z,,0,,,NaN,,,,,,false,,,,105367.29999995232,105367.19999980927,,105367,,105375.239,8,400,,,
sequence,flow.Sequence,4_7,2023-09-12T21:44:38.908Z,,0,,,6390.483999809265,completion,,,,,false,,,,105367.59999990463,105367.19999980927,98960.592,98963.59999990463,98976.716,105375.239,8,400,,,
trial,html.Screen,4_8_0,2023-09-12T21:44:45.422Z,,0,1,,6505.6609998569475,response,ISIC_0011404.JPG,5,ISIC_0024298.JPG,ISIC_0024298.JPG,false,0,keypress(z),500,111881.19999980927,111880.89999985695,105358.591,105367.69999980927,105375.239,111915.444,8,400,9,,ISIC_0011404.JPG
break,html.Screen,4_8_1,2023-09-12T21:44:45.423Z,,0,,,NaN,,,,,,false,,,,111882.29999995232,111881.89999985695,,111881.39999985695,,111915.444,8,400,,,
break_continue,html.Screen,4_8_2,2023-09-12T21:44:45.423Z,,0,,,NaN,,,,,,false,,,,111882.89999985695,111882.79999995232,,111882.59999990463,,111915.444,8,400,,,
sequence,flow.Sequence,4_8,2023-09-12T21:44:45.423Z,,0,,,6507.560999952315,completion,,,,,false,,,,111883,111882.79999995232,105358.591,105367.69999980927,105375.239,111915.444,8,400,,,
trial,html.Screen,4_9_0,2023-09-12T21:44:52.578Z,,0,1,,7122.155999904629,response,ISIC_0027067.JPG,5,ISIC_0024589.JPG,ISIC_0024589.JPG,false,0,keypress(z),500,119037.89999985695,119037.59999990463,111898.953,111883.19999980927,111915.444,119072.29,8,400,10,,ISIC_0027067.JPG
break,html.Screen,4_9_1,2023-09-12T21:44:52.579Z,,0,,,NaN,,,,,,false,,,,119038.59999990463,119038.29999995232,,119038.09999990463,,119072.29,8,400,,,
break_continue,html.Screen,4_9_2,2023-09-12T21:44:52.579Z,,0,,,NaN,,,,,,false,,,,119039,119038.89999985695,,119038.79999995232,,119072.29,8,400,,,
sequence,flow.Sequence,4_9,2023-09-12T21:44:52.580Z,,0,,,7123.455999856946,completion,,,,,false,,,,119039.19999980927,119038.89999985695,111898.953,111883.19999980927,111915.444,119072.29,8,400,,,
trial,html.Screen,4_10_0,2023-09-12T21:44:57.430Z,,0,1,,4816.109999856955,response,ISIC_0030150.JPG,5,ISIC_0004857.JPG,ISIC_0030150.JPG,false,1,keypress(m),500,123888.79999995232,123888.39999985695,119055.591,119039.29999995232,119072.29,123912.607,8,400,11,,ISIC_0004857.JPG
break,html.Screen,4_10_1,2023-09-12T21:44:57.431Z,,0,,,NaN,,,,,,false,,,,123889.69999980927,123889.39999985695,,123889,,123912.607,8,400,,,
break_continue,html.Screen,4_10_2,2023-09-12T21:44:57.431Z,,0,,,NaN,,,,,,false,,,,123890.29999995232,123890.19999980927,,123890,,123912.607,8,400,,,
sequence,flow.Sequence,4_10,2023-09-12T21:44:57.431Z,,0,,,4817.9099998092715,completion,,,,,false,,,,123890.5,123890.19999980927,119055.591,119039.19999980927,119072.29,123912.607,8,400,,,
trial,html.Screen,4_11_0,2023-09-12T21:45:04.649Z,,0,1,,7195.492999904629,response,ISIC_9969907.JPG,5,ISIC_0070782.JPG,ISIC_9969907.JPG,false,1,keypress(m),500,131108.29999995232,131108.09999990463,123879.407,123890.59999990463,123912.607,131119.07,8,400,12,,ISIC_0070782.JPG
break,html.Screen,4_11_1,2023-09-12T21:45:04.650Z,,0,,,NaN,,,,,,false,,,,131109.39999985695,131109.09999990463,,131108.69999980927,,131119.07,8,400,,,
break_continue,html.Screen,4_11_2,2023-09-12T21:45:04.651Z,,0,,,NaN,,,,,,false,,,,131109.89999985695,131109.79999995232,,131109.59999990463,,131119.07,8,400,,,
sequence,flow.Sequence,4_11,2023-09-12T21:45:04.651Z,,0,,,7197.192999952313,completion,,,,,false,,,,131110.09999990463,131109.79999995232,123879.407,123890.5,123912.607,131119.07,8,400,,,
trial,html.Screen,4_12_0,2023-09-12T21:45:13.533Z,,0,1,,8872.529999904626,response,ISIC_0014133.JPG,5,ISIC_4369035.JPG,ISIC_0014133.JPG,false,1,keypress(m),500,139991.79999995232,139991.59999990463,131102.781,131110.19999980927,131119.07,140008.707,8,400,13,,ISIC_4369035.JPG
break,html.Screen,4_12_1,2023-09-12T21:45:13.534Z,,0,,,NaN,,,,,,false,,,,139992.89999985695,139992.5,,139992,,140008.707,8,400,,,
break_continue,html.Screen,4_12_2,2023-09-12T21:45:13.534Z,,0,,,NaN,,,,,,false,,,,139993.39999985695,139993.19999980927,,139993.09999990463,,140008.707,8,400,,,
sequence,flow.Sequence,4_12,2023-09-12T21:45:13.535Z,,0,,,8874.129999809258,completion,,,,,false,,,,139993.59999990463,139993.19999980927,131102.781,131110.19999980927,131119.07,140008.707,8,400,,,
trial,html.Screen,4_13_0,2023-09-12T21:45:20.818Z,,0,1,,7268.192999856954,response,ISIC_7899041.JPG,4,ISIC_1104374.JPG,ISIC_7899041.JPG,false,1,keypress(m),500,147277.19999980927,147276.89999985695,139992.284,139993.69999980927,140008.707,147290.207,8,400,14,,ISIC_1104374.JPG
break,html.Screen,4_13_1,2023-09-12T21:45:20.819Z,,0,,,NaN,,,,,,false,,,,147278.29999995232,147277.79999995232,,147277.5,,147290.207,8,400,,,
break_continue,html.Screen,4_13_2,2023-09-12T21:45:20.820Z,,0,,,NaN,,,,,,false,,,,147278.89999985695,147278.69999980927,,147278.5,,147290.207,8,400,,,
sequence,flow.Sequence,4_13,2023-09-12T21:45:20.820Z,,0,,,7269.99299980927,completion,,,,,false,,,,147279.09999990463,147278.69999980927,139992.284,139993.69999980927,140008.707,147290.207,8,400,,,
trial,html.Screen,4_14_0,2023-09-12T21:45:24.742Z,,0,1,,3910.8929999046377,response,ISIC_0014103.JPG,5,ISIC_0008630.JPG,ISIC_0014103.JPG,false,1,keypress(m),500,151201.39999985695,151201.09999990463,147274.17,147279.29999995232,147290.207,151214.87,8,400,15,,ISIC_0008630.JPG
break,html.Screen,4_14_1,2023-09-12T21:45:24.743Z,,0,,,NaN,,,,,,false,,,,151202.5,151202.09999990463,,151201.69999980927,,151214.87,8,400,,,
break_continue,html.Screen,4_14_2,2023-09-12T21:45:24.744Z,,0,,,NaN,,,,,,false,,,,151203,151202.89999985695,,151202.69999980927,,151214.87,8,400,,,
sequence,flow.Sequence,4_14,2023-09-12T21:45:24.744Z,,0,,,3912.692999856954,completion,,,,,false,,,,151203.19999980927,151202.89999985695,147274.17,147279.19999980927,147290.207,151214.87,8,400,,,
trial,html.Screen,4_15_0,2023-09-12T21:45:28.335Z,,0,1,,3578.729999904637,response,ISIC_9100933.JPG,5,ISIC_4001990.JPG,ISIC_9100933.JPG,false,1,keypress(m),500,154794,154793.59999990463,151198.241,151203.29999995232,151214.87,154813.403,8,400,16,,ISIC_4001990.JPG
break,html.Screen,4_15_1,2023-09-12T21:45:28.336Z,,0,,,NaN,,,,,,false,,,,154795,154794.59999990463,,154794.19999980927,,154813.403,8,400,,,
break_continue,html.Screen,4_15_2,2023-09-12T21:45:28.337Z,,0,,,NaN,,,,,,false,,,,154795.59999990463,154795.39999985695,,154795.29999995232,,154813.403,8,400,,,
sequence,flow.Sequence,4_15,2023-09-12T21:45:28.337Z,,0,,,3580.5299998569535,completion,,,,,false,,,,154795.79999995232,154795.39999985695,151198.241,151203.29999995232,151214.87,154813.403,8,400,,,
trial,html.Screen,4_16_0,2023-09-12T21:45:36.066Z,,0,1,,7711.796999809274,response,ISIC_7883190.JPG,4,ISIC_0061972.JPG,ISIC_7883190.JPG,false,1,keypress(m),500,162525.5,162525.19999980927,154780.479,154796,154813.403,162536.587,8,400,17,,ISIC_0061972.JPG
break,html.Screen,4_16_1,2023-09-12T21:45:36.068Z,,0,,,NaN,,,,,,false,,,,162526.69999980927,162526.09999990463,,162525.69999980927,,162536.587,8,400,,,
break_continue,html.Screen,4_16_2,2023-09-12T21:45:36.068Z,,0,,,NaN,,,,,,false,,,,162527.5,162527.29999995232,,162526.89999985695,,162536.587,8,400,,,
sequence,flow.Sequence,4_16,2023-09-12T21:45:36.069Z,,0,,,7713.896999952325,completion,,,,,false,,,,162527.59999990463,162527.29999995232,154780.479,154795.89999985695,154813.403,162536.587,8,400,,,
trial,html.Screen,4_17_0,2023-09-12T21:45:40.840Z,,0,1,,4762.4130000000005,response,ISIC_7521698.JPG,5,ISIC_0055841.JPG,ISIC_7521698.JPG,false,1,keypress(m),500,167299.29999995232,167299,162520.519,162527.89999985695,162536.587,167310.695,8,400,18,,ISIC_0055841.JPG
break,html.Screen,4_17_1,2023-09-12T21:45:40.841Z,,0,,,NaN,,,,,,false,,,,167300.39999985695,167299.89999985695,,167299.5,,167310.695,8,400,,,
break_continue,html.Screen,4_17_2,2023-09-12T21:45:40.842Z,,0,,,NaN,,,,,,false,,,,167300.89999985695,167300.69999980927,,167300.69999980927,,167310.695,8,400,,,
sequence,flow.Sequence,4_17,2023-09-12T21:45:40.842Z,,0,,,4764.112999809266,completion,,,,,false,,,,167301.09999990463,167300.69999980927,162520.519,162527.79999995232,162536.587,167310.695,8,400,,,
trial,html.Screen,4_18_0,2023-09-12T21:45:51.629Z,,0,1,,10777.004999809258,response,ISIC_5359416.JPG,5,ISIC_9744305.JPG,ISIC_9744305.JPG,false,0,keypress(z),500,178087.89999985695,178087.69999980927,167294.397,167301.29999995232,167310.695,178091.179,8,400,19,,ISIC_5359416.JPG
break,html.Screen,4_18_1,2023-09-12T21:45:51.630Z,,0,,,NaN,,,,,,false,,,,178088.59999990463,178088.39999985695,,178088.09999990463,,178091.179,8,400,,,
break_continue,html.Screen,4_18_2,2023-09-12T21:45:51.630Z,,0,,,NaN,,,,,,false,,,,178089.09999990463,178089,,178088.89999985695,,178091.179,8,400,,,
sequence,flow.Sequence,4_18,2023-09-12T21:45:51.630Z,,0,,,10778.304999999993,completion,,,,,false,,,,178089.19999980927,178089,167294.397,167301.19999980927,167310.695,178091.179,8,400,,,
trial,html.Screen,4_19_0,2023-09-12T21:46:03.114Z,,0,1,,11513.88500000001,timeout,ISIC_5367118.JPG,5,ISIC_2635051.JPG,,false,,,500,189572.59999990463,189572.39999985695,178074.522,178089.29999995232,178091.179,189605.064,8,400,20,,
break,html.Screen,4_19_1,2023-09-12T21:46:03.114Z,,0,,,NaN,,,,,,false,,,,189573,189572.89999985695,,189572.59999990463,,189605.064,8,400,,,
break_continue,html.Screen,4_19_2,2023-09-12T21:46:03.114Z,,0,,,NaN,,,,,,false,,,,189573.19999980927,189573.19999980927,,189573.09999990463,,189605.064,8,400,,,
sequence,flow.Sequence,4_19,2023-09-12T21:46:03.114Z,,0,,,11482.020999809261,completion,,,,,false,,,,189573.29999995232,189573.19999980927,178074.522,178089.29999995232,178091.179,189605.064,8,400,,,
trial,html.Screen,4_20_0,2023-09-12T21:46:08.690Z,,0,1,,5544.0359999046195,response,ISIC_1578253.JPG,7,ISIC_0028065.JPG,ISIC_1578253.JPG,false,1,keypress(m),500,195149.29999995232,195149.09999990463,189588.418,189573.39999985695,189605.064,195170.75,8,400,21,,ISIC_0028065.JPG
break,html.Screen,4_20_1,2023-09-12T21:46:08.691Z,,0,,,NaN,,,,,,false,,,,195149.79999995232,195149.59999990463,,195149.39999985695,,195170.75,8,400,,,
break_continue,html.Screen,4_20_2,2023-09-12T21:46:08.691Z,,0,,,NaN,,,,,,false,,,,195150.19999980927,195150.09999990463,,195149.89999985695,,195170.75,8,400,,,
sequence,flow.Sequence,4_20,2023-09-12T21:46:08.691Z,,0,,,5545.0359999046195,completion,,,,,false,,,,195150.39999985695,195150.09999990463,189588.418,189573.39999985695,189605.064,195170.75,8,400,,,
trial,html.Screen,4_21_0,2023-09-12T21:46:13.821Z,,0,1,,5108.549999952316,response,ISIC_8354042.JPG,5,ISIC_0033681.JPG,ISIC_0033681.JPG,false,0,keypress(z),500,200279.5,200279.29999995232,195145.431,195150.5,195170.75,200302.518,8,400,22,,ISIC_8354042.JPG
break,html.Screen,4_21_1,2023-09-12T21:46:13.821Z,,0,,,NaN,,,,,,false,,,,200280.09999990463,200279.89999985695,,200279.59999990463,,200302.518,8,400,,,
break_continue,html.Screen,4_21_2,2023-09-12T21:46:13.822Z,,0,,,NaN,,,,,,false,,,,200280.5,200280.5,,200280.39999985695,,200302.518,8,400,,,
sequence,flow.Sequence,4_21,2023-09-12T21:46:13.822Z,,0,,,5109.75,completion,,,,,false,,,,200280.69999980927,200280.5,195145.431,195150.5,195170.75,200302.518,8,400,,,
trial,html.Screen,4_22_0,2023-09-12T21:46:16.547Z,,0,1,,2703.381999856938,response,ISIC_0014183.JPG,6,ISIC_1937955.JPG,ISIC_1937955.JPG,false,0,keypress(z),500,203006.19999980927,203005.89999985695,200277.591,200280.69999980927,200302.518,203010.265,8,400,23,,ISIC_0014183.JPG
break,html.Screen,4_22_1,2023-09-12T21:46:16.548Z,,0,,,NaN,,,,,,false,,,,203006.79999995232,203006.59999990463,,203006.39999985695,,203010.265,8,400,,,
break_continue,html.Screen,4_22_2,2023-09-12T21:46:16.548Z,,0,,,NaN,,,,,,false,,,,203007.09999990463,203007,,203006.89999985695,,203010.265,8,400,,,
sequence,flow.Sequence,4_22,2023-09-12T21:46:16.548Z,,0,,,2704.481999999989,completion,,,,,false,,,,203007.29999995232,203007,200277.591,200280.69999980927,200302.518,203010.265,8,400,,,
trial,html.Screen,4_23_0,2023-09-12T21:46:19.419Z,,0,1,,2867.234999999986,response,ISIC_0027387.JPG,5,ISIC_0027190.JPG,ISIC_0027190.JPG,false,0,keypress(z),500,205877.79999995232,205877.5,202993.577,203007.29999995232,203010.265,205892.861,8,400,24,,ISIC_0027387.JPG
break,html.Screen,4_23_1,2023-09-12T21:46:19.420Z,,0,,,NaN,,,,,,false,,,,205878.59999990463,205878.29999995232,,205878,,205892.861,8,400,,,
break_continue,html.Screen,4_23_2,2023-09-12T21:46:19.420Z,,0,,,NaN,,,,,,false,,,,205879,205878.89999985695,,205878.69999980927,,205892.861,8,400,,,
sequence,flow.Sequence,4_23,2023-09-12T21:46:19.420Z,,0,,,2868.634999856935,completion,,,,,false,,,,205879.09999990463,205878.89999985695,202993.577,203007.29999995232,203010.265,205892.861,8,400,,,
trial,html.Screen,4_24_0,2023-09-12T21:46:26.502Z,,0,1,,7068.138999999996,response,ISIC_6707990.JPG,8,ISIC_0058177.JPG,ISIC_0058177.JPG,false,0,keypress(z),500,212961.39999985695,212961,205876.292,205879.29999995232,205892.861,212982.865,8,400,25,,ISIC_6707990.JPG
break,html.Screen,4_24_1,2023-09-12T21:46:26.503Z,,0,,,NaN,,,,,,false,,,,212962,212962,,212961.59999990463,,212982.865,8,400,,,
break_continue,html.Screen,4_24_2,2023-09-12T21:46:26.503Z,,0,,,NaN,,,,,,false,,,,212962.09999990463,212962.09999990463,,212962.09999990463,,212982.865,8,400,,,
sequence,flow.Sequence,4_24,2023-09-12T21:46:26.503Z,,0,,,7069.238999904628,completion,,,,,false,,,,212962.29999995232,212962.09999990463,205876.292,205879.19999980927,205892.861,212982.865,8,400,,,
trial,html.Screen,4_25_0,2023-09-12T21:46:30.463Z,,0,1,,3939.234999904642,response,ISIC_0009984.JPG,11,ISIC_0031417.JPG,ISIC_0009984.JPG,false,1,keypress(m),500,216922.19999980927,216922.09999990463,212966.18,212962.39999985695,212982.865,216940.93,8,400,26,,ISIC_0031417.JPG
break,html.Screen,4_25_1,2023-09-12T21:46:30.464Z,,0,,,NaN,,,,,,false,,,,216922.89999985695,216922.59999990463,,216922.39999985695,,216940.93,8,400,,,
break_continue,html.Screen,4_25_2,2023-09-12T21:46:30.464Z,,0,,,NaN,,,,,,false,,,,216923.29999995232,216923.19999980927,,216923.09999990463,,216940.93,8,400,,,
sequence,flow.Sequence,4_25,2023-09-12T21:46:30.464Z,,0,,,3940.3349998092744,completion,,,,,false,,,,216923.39999985695,216923.19999980927,212966.18,212962.39999985695,212982.865,216940.93,8,400,,,
trial,html.Screen,4_26_0,2023-09-12T21:46:38.821Z,,0,1,,8338.469999856956,response,ISIC_0483289.JPG,5,ISIC_0274382.JPG,ISIC_0274382.JPG,false,0,keypress(z),500,225279.59999990463,225279.39999985695,216915.842,216923.5,216940.93,225288.41,8,400,27,,ISIC_0483289.JPG
break,html.Screen,4_26_1,2023-09-12T21:46:38.821Z,,0,,,NaN,,,,,,false,,,,225280.09999990463,225279.89999985695,,225279.69999980927,,225288.41,8,400,,,
break_continue,html.Screen,4_26_2,2023-09-12T21:46:38.822Z,,0,,,NaN,,,,,,false,,,,225280.59999990463,225280.39999985695,,225280.29999995232,,225288.41,8,400,,,
sequence,flow.Sequence,4_26,2023-09-12T21:46:38.822Z,,0,,,8339.469999856956,completion,,,,,false,,,,225280.79999995232,225280.39999985695,216915.842,216923.5,216940.93,225288.41,8,400,,,
trial,html.Screen,4_27_0,2023-09-12T21:46:44.475Z,,0,1,,5645.5899999999965,response,ISIC_0026141.JPG,5,ISIC_0000295.JPG,ISIC_0000295.JPG,false,0,keypress(z),500,230934.39999985695,230934,225271.599,225280.89999985695,225288.41,230945.242,8,400,28,,ISIC_0026141.JPG
break,html.Screen,4_27_1,2023-09-12T21:46:44.476Z,,0,,,NaN,,,,,,false,,,,230935.39999985695,230935.09999990463,,230934.59999990463,,230945.242,8,400,,,
break_continue,html.Screen,4_27_2,2023-09-12T21:46:44.477Z,,0,,,NaN,,,,,,false,,,,230935.89999985695,230935.79999995232,,230935.59999990463,,230945.242,8,400,,,
sequence,flow.Sequence,4_27,2023-09-12T21:46:44.477Z,,0,,,5647.389999952313,completion,,,,,false,,,,230936.09999990463,230935.79999995232,225271.599,225280.79999995232,225288.41,230945.242,8,400,,,
trial,html.Screen,4_28_0,2023-09-12T21:46:52.201Z,,0,1,,7714.457999809267,response,ISIC_0063715.JPG,6,ISIC_0057702.JPG,ISIC_0057702.JPG,false,0,keypress(z),500,238660,238659.69999980927,230928.65,230936.29999995232,230945.242,238668.412,8,400,29,,ISIC_0063715.JPG
break,html.Screen,4_28_1,2023-09-12T21:46:52.202Z,,0,,,NaN,,,,,,false,,,,238660.69999980927,238660.5,,238660.19999980927,,238668.412,8,400,,,
break_continue,html.Screen,4_28_2,2023-09-12T21:46:52.202Z,,0,,,NaN,,,,,,false,,,,238661.09999990463,238661.09999990463,,238660.89999985695,,238668.412,8,400,,,
sequence,flow.Sequence,4_28,2023-09-12T21:46:52.202Z,,0,,,7715.857999904634,completion,,,,,false,,,,238661.29999995232,238661.09999990463,230928.65,230936.29999995232,230945.242,238668.412,8,400,,,
trial,html.Screen,4_29_0,2023-09-12T21:46:56.756Z,,0,1,,4546.587999999989,response,ISIC_5961333.JPG,13,ISIC_0580054.JPG,ISIC_5961333.JPG,false,1,keypress(m),500,243215.29999995232,243215,238651.834,238661.39999985695,238668.412,243217.311,8,400,30,,ISIC_0580054.JPG
break,html.Screen,4_29_1,2023-09-12T21:46:56.757Z,,0,,,NaN,,,,,,false,,,,243215.69999980927,243215.59999990463,,243215.39999985695,,243217.311,8,400,,,
break_continue,html.Screen,4_29_2,2023-09-12T21:46:56.757Z,,0,,,NaN,,,,,,false,,,,243216.19999980927,243216.09999990463,,243216,,243217.311,8,400,,,
sequence,flow.Sequence,4_29,2023-09-12T21:46:56.757Z,,0,,,4547.687999904621,completion,,,,,false,,,,243216.19999980927,243216.09999990463,238651.834,238661.39999985695,238668.412,243217.311,8,400,,,
trial,html.Screen,4_30_0,2023-09-12T21:47:07.661Z,,0,1,,10902.689000000013,response,ISIC_4645995.JPG,8,ISIC_4163686.JPG,ISIC_4645995.JPG,false,1,keypress(m),500,254120.19999980927,254120,243200.649,243216.29999995232,243217.311,254139.659,8,400,31,,ISIC_4163686.JPG
break,html.Screen,4_30_1,2023-09-12T21:47:07.662Z,,0,,,NaN,,,,,,false,,,,254121,254120.69999980927,,254120.29999995232,,254139.659,8,400,,,
break_continue,html.Screen,4_30_2,2023-09-12T21:47:07.662Z,,0,,,NaN,,,,,,false,,,,254121.29999995232,254121.29999995232,,254121.09999990463,,254139.659,8,400,,,
sequence,flow.Sequence,4_30,2023-09-12T21:47:07.662Z,,0,,,10903.98899995233,completion,,,,,false,,,,254121.39999985695,254121.29999995232,243200.649,243216.29999995232,243217.311,254139.659,8,400,,,
trial,html.Screen,4_31_0,2023-09-12T21:47:15.143Z,,0,1,,7461.640999952302,response,ISIC_0014327.JPG,8,ISIC_0033300.JPG,ISIC_0014327.JPG,false,1,keypress(m),500,261601.59999990463,261601.29999995232,254106.44,254121.5,254139.659,261621.292,8,400,32,,ISIC_0033300.JPG
break,html.Screen,4_31_1,2023-09-12T21:47:15.143Z,,0,,,NaN,,,,,,false,,,,261602.39999985695,261601.89999985695,,261601.79999995232,,261621.292,8,400,,,
break_continue,html.Screen,4_31_2,2023-09-12T21:47:15.144Z,,0,,,NaN,,,,,,false,,,,261602.69999980927,261602.59999990463,,261602.5,,261621.292,8,400,,,
sequence,flow.Sequence,4_31,2023-09-12T21:47:15.144Z,,0,,,7462.940999904618,completion,,,,,false,,,,261602.69999980927,261602.59999990463,254106.44,254121.5,254139.659,261621.292,8,400,,,
trial,html.Screen,4_32_0,2023-09-12T21:47:20.672Z,,0,1,,5509.708000000013,response,ISIC_7897925.JPG,9,ISIC_4347535.JPG,ISIC_7897925.JPG,false,1,keypress(m),500,267131.19999980927,267131,261588.284,261602.79999995232,261621.292,267144.902,8,400,33,,ISIC_4347535.JPG
break,html.Screen,4_32_1,2023-09-12T21:47:20.673Z,,0,,,NaN,,,,,,false,,,,267131.7999999523,267131.59999990463,,267131.39999985695,,267144.902,8,400,,,
break_continue,html.Screen,4_32_2,2023-09-12T21:47:20.673Z,,0,,,NaN,,,,,,false,,,,267132.19999980927,267132.09999990463,,267131.89999985695,,267144.902,8,400,,,
sequence,flow.Sequence,4_32,2023-09-12T21:47:20.674Z,,0,,,5510.807999904646,completion,,,,,false,,,,267132.59999990463,267132.09999990463,261588.284,261602.69999980927,261621.292,267144.902,8,400,,,
trial,html.Screen,4_33_0,2023-09-12T21:47:25.494Z,,0,1,,4807.897999952314,response,ISIC_0046416.JPG,12,ISIC_0031745.JPG,ISIC_0046416.JPG,false,1,keypress(m),500,271953.09999990463,271952.7999999523,267119.915,267132.59999990463,267144.902,271977.204,8,400,34,,ISIC_0031745.JPG
break,html.Screen,4_33_1,2023-09-12T21:47:25.495Z,,0,,,NaN,,,,,,false,,,,271953.7999999523,271953.5,,271953.2999999523,,271977.204,8,400,,,
break_continue,html.Screen,4_33_2,2023-09-12T21:47:25.495Z,,0,,,NaN,,,,,,false,,,,271954.19999980927,271954,,271953.89999985695,,271977.204,8,400,,,
sequence,flow.Sequence,4_33,2023-09-12T21:47:25.495Z,,0,,,4809.097999999998,completion,,,,,false,,,,271954.39999985695,271954,267119.915,267132.59999990463,267144.902,271977.204,8,400,,,
trial,html.Screen,4_34_0,2023-09-12T21:47:29.490Z,,0,1,,3971.195999856922,response,ISIC_9017110.JPG,10,ISIC_0014288.JPG,ISIC_9017110.JPG,false,1,keypress(m),500,275948.7999999523,275948.39999985695,271943.874,271954.5,271977.204,275959.852,8,400,35,,ISIC_0014288.JPG
break,html.Screen,4_34_1,2023-09-12T21:47:29.491Z,,0,,,NaN,,,,,,false,,,,275949.7999999523,275949.39999985695,,275949,,275959.852,8,400,,,
break_continue,html.Screen,4_34_2,2023-09-12T21:47:29.491Z,,0,,,NaN,,,,,,false,,,,275950.19999980927,275950.09999990463,,275950,,275959.852,8,400,,,
sequence,flow.Sequence,4_34,2023-09-12T21:47:29.491Z,,0,,,3972.8959999046056,completion,,,,,false,,,,275950.5,275950.09999990463,271943.874,271954.5,271977.204,275959.852,8,400,,,
trial,html.Screen,4_35_0,2023-09-12T21:47:40.983Z,,0,1,,11514.002999999968,timeout,ISIC_4232756.JPG,12,ISIC_9972518.JPG,,false,,,500,287441.69999980927,287441.2999999523,275942.925,275950.59999990463,275959.852,287473.855,8,400,36,,
break,html.Screen,4_35_1,2023-09-12T21:47:40.983Z,,0,,,NaN,,,,,,false,,,,287442.39999985695,287442.09999990463,,287441.7999999523,,287473.855,8,400,,,
break_continue,html.Screen,4_35_2,2023-09-12T21:47:40.984Z,,0,,,NaN,,,,,,false,,,,287442.7999999523,287442.59999990463,,287442.5,,287473.855,8,400,,,
sequence,flow.Sequence,4_35,2023-09-12T21:47:40.984Z,,0,,,11482.747999904619,completion,,,,,false,,,,287442.89999985695,287442.59999990463,275942.925,275950.59999990463,275959.852,287473.855,8,400,,,
trial,html.Screen,4_36_0,2023-09-12T21:47:53.075Z,,0,1,,84833.11800000002,timeout,ISIC_0056811.JPG,12,ISIC_0010555.JPG,,false,,,500,299534,299533.69999980927,287460.035,287443.09999990463,287473.855,372306.973,8,400,37,,
break,html.Screen,4_36_1,2023-09-12T21:47:53.076Z,,0,,,NaN,,,,,,false,,,,299534.69999980927,299534.5,,299534.19999980927,,372306.973,8,400,,,
break_continue,html.Screen,4_36_2,2023-09-12T21:47:53.076Z,,0,,,NaN,,,,,,false,,,,299535.09999990463,299535,,299534.89999985695,,372306.973,8,400,,,
sequence,flow.Sequence,4_36,2023-09-12T21:47:53.076Z,,0,,,12061.145000000019,completion,,,,,false,,,,299535.19999980927,299535,287460.035,287443,287473.855,372306.973,8,400,,,
trial,html.Screen,4_37_0,2023-09-12T21:49:09.697Z,,0,1,,2661.027000000002,response,ISIC_8651053.JPG,502,ISIC_2096695.JPG,ISIC_2096695.JPG,false,0,keypress(z),500,374968.39999985695,374968,372270.072,299535.39999985695,372306.973,375002.692,8,400,38,,ISIC_8651053.JPG
break,html.Screen,4_37_1,2023-09-12T21:49:09.698Z,,0,,,NaN,,,,,,false,,,,374969.5,374969.09999990463,,374968.59999990463,,375002.692,8,400,,,
break_continue,html.Screen,4_37_2,2023-09-12T21:49:09.698Z,,0,,,NaN,,,,,,false,,,,374970.09999990463,374969.89999985695,,374969.69999980927,,375002.692,8,400,,,
sequence,flow.Sequence,4_37,2023-09-12T21:49:09.698Z,,0,,,2662.9269998569507,completion,,,,,false,,,,374970.19999980927,374969.89999985695,372270.072,299535.39999985695,372306.973,375002.692,8,400,,,
trial,html.Screen,4_38_0,2023-09-12T21:49:12.779Z,,0,1,,3047.808000000019,response,ISIC_9513808.JPG,12,ISIC_4271108.JPG,ISIC_9513808.JPG,false,1,keypress(m),500,378050.7999999523,378050.5,374986.33,374970.39999985695,375002.692,378076.646,8,400,39,,ISIC_4271108.JPG
break,html.Screen,4_38_1,2023-09-12T21:49:12.780Z,,0,,,NaN,,,,,,false,,,,378051.89999985695,378051.39999985695,,378051.09999990463,,378076.646,8,400,,,
break_continue,html.Screen,4_38_2,2023-09-12T21:49:12.781Z,,0,,,NaN,,,,,,false,,,,378052.39999985695,378052.2999999523,,378052.09999990463,,378076.646,8,400,,,
sequence,flow.Sequence,4_38,2023-09-12T21:49:12.781Z,,0,,,3049.6079999523354,completion,,,,,false,,,,378052.69999980927,378052.2999999523,374986.33,374970.39999985695,375002.692,378076.646,8,400,,,
trial,html.Screen,4_39_0,2023-09-12T21:49:15.638Z,,0,1,,2832.6539999523084,response,ISIC_0012334.JPG,6,ISIC_7575957.JPG,ISIC_0012334.JPG,false,1,keypress(m),500,380909.59999990463,380909.2999999523,378035.57,378052.89999985695,378076.646,380934.343,8,400,40,,ISIC_7575957.JPG
break,html.Screen,4_39_1,2023-09-12T21:49:15.639Z,,0,,,NaN,,,,,,false,,,,380910.59999990463,380910.2999999523,,380909.7999999523,,380934.343,8,400,,,
break_continue,html.Screen,4_39_2,2023-09-12T21:49:15.639Z,,0,,,NaN,,,,,,false,,,,380911.09999990463,380911,,380910.7999999523,,380934.343,8,400,,,
sequence,flow.Sequence,4_39,2023-09-12T21:49:15.640Z,,0,,,2834.353999999992,completion,,,,,false,,,,380911.39999985695,380911,378035.57,378052.7999999523,378076.646,380934.343,8,400,,,
trial,html.Screen,4_40_0,2023-09-12T21:49:18.372Z,,0,1,,2708.956999952323,response,ISIC_0062367.JPG,8,ISIC_0031499.JPG,ISIC_0062367.JPG,false,1,keypress(m),500,383643.69999980927,383643.2999999523,380909.855,380911.59999990463,380934.343,383659.242,8,400,41,,ISIC_0031499.JPG
break,html.Screen,4_40_1,2023-09-12T21:49:18.373Z,,0,,,NaN,,,,,,false,,,,383644.7999999523,383644.5,,383644.09999990463,,383659.242,8,400,,,
break_continue,html.Screen,4_40_2,2023-09-12T21:49:18.374Z,,0,,,NaN,,,,,,false,,,,383645.2999999523,383645.19999980927,,383645,,383659.242,8,400,,,
sequence,flow.Sequence,4_40,2023-09-12T21:49:18.374Z,,0,,,2710.8569998092717,completion,,,,,false,,,,383645.5,383645.19999980927,380909.855,380911.59999990463,380934.343,383659.242,8,400,,,
trial,html.Screen,4_41_0,2023-09-12T21:49:21.746Z,,0,1,,3358.057999952289,response,ISIC_8853902.JPG,11,ISIC_0025616.JPG,ISIC_0025616.JPG,false,0,keypress(z),500,387017.69999980927,387017.2999999523,383642.383,383645.59999990463,383659.242,387024.586,8,400,42,,ISIC_8853902.JPG
break,html.Screen,4_41_1,2023-09-12T21:49:21.747Z,,0,,,NaN,,,,,,false,,,,387018.69999980927,387018.19999980927,,387017.89999985695,,387024.586,8,400,,,
break_continue,html.Screen,4_41_2,2023-09-12T21:49:21.747Z,,0,,,NaN,,,,,,false,,,,387019.09999990463,387019,,387018.89999985695,,387024.586,8,400,,,
sequence,flow.Sequence,4_41,2023-09-12T21:49:21.748Z,,0,,,3359.7579999999725,completion,,,,,false,,,,387019.2999999523,387019,383642.383,383645.5,383659.242,387024.586,8,400,,,
trial,html.Screen,4_42_0,2023-09-12T21:49:23.946Z,,0,1,,2192.8139998569386,response,ISIC_0011343.JPG,9,ISIC_0008816.JPG,ISIC_0008816.JPG,false,0,keypress(z),500,389217.69999980927,389217.39999985695,387008.542,387019.5,387024.586,389224.046,8,400,43,,ISIC_0011343.JPG
break,html.Screen,4_42_1,2023-09-12T21:49:23.947Z,,0,,,NaN,,,,,,false,,,,389218.59999990463,389218.19999980927,,389217.89999985695,,389224.046,8,400,,,
break_continue,html.Screen,4_42_2,2023-09-12T21:49:23.947Z,,0,,,NaN,,,,,,false,,,,389219.09999990463,389219,,389218.89999985695,,389224.046,8,400,,,
sequence,flow.Sequence,4_42,2023-09-12T21:49:23.948Z,,0,,,2194.4139999999898,completion,,,,,false,,,,389219.2999999523,389219,387008.542,387019.39999985695,387024.586,389224.046,8,400,,,
trial,html.Screen,4_43_0,2023-09-12T21:49:26.101Z,,0,1,,2148.5539999046596,response,ISIC_4252887.JPG,9,ISIC_4924690.JPG,ISIC_4924690.JPG,false,0,keypress(z),500,391372.89999985695,391372.59999990463,389207.633,389219.5,389224.046,391381.995,8,400,44,,ISIC_4252887.JPG
break,html.Screen,4_43_1,2023-09-12T21:49:26.102Z,,0,,,NaN,,,,,,false,,,,391374,391373.59999990463,,391373.09999990463,,391381.995,8,400,,,
break_continue,html.Screen,4_43_2,2023-09-12T21:49:26.103Z,,0,,,NaN,,,,,,false,,,,391374.59999990463,391374.5,,391374.19999980927,,391381.995,8,400,,,
sequence,flow.Sequence,4_43,2023-09-12T21:49:26.103Z,,0,,,2150.454000000027,completion,,,,,false,,,,391374.7999999523,391374.5,389207.633,389219.39999985695,389224.046,391381.995,8,400,,,
trial,html.Screen,4_44_0,2023-09-12T21:49:28.613Z,,0,1,,2498.70499980927,response,ISIC_0011507.JPG,12,ISIC_0025735.JPG,ISIC_0025735.JPG,false,0,keypress(z),500,393885.19999980927,393880.69999980927,391365.764,391374.89999985695,391381.995,393889.556,8,400,45,,ISIC_0011507.JPG
break,html.Screen,4_44_1,2023-09-12T21:49:28.614Z,,0,,,NaN,,,,,,false,,,,393886.19999980927,393885.89999985695,,393885.39999985695,,393889.556,8,400,,,
break_continue,html.Screen,4_44_2,2023-09-12T21:49:28.615Z,,0,,,NaN,,,,,,false,,,,393886.7999999523,393886.59999990463,,393886.39999985695,,393889.556,8,400,,,
sequence,flow.Sequence,4_44,2023-09-12T21:49:28.615Z,,0,,,2504.604999904637,completion,,,,,false,,,,393887,393886.59999990463,391365.764,391374.7999999523,391381.995,393889.556,8,400,,,
trial,html.Screen,4_45_0,2023-09-12T21:49:32.385Z,,0,1,,3766.8439998569665,response,ISIC_2364150.JPG,11,ISIC_2183722.JPG,ISIC_2183722.JPG,false,0,keypress(z),500,397656.69999980927,397656.39999985695,393881.856,393887.09999990463,393889.556,397680.373,8,400,46,,ISIC_2364150.JPG
break,html.Screen,4_45_1,2023-09-12T21:49:32.386Z,,0,,,NaN,,,,,,false,,,,397657.69999980927,397657.2999999523,,397656.89999985695,,397680.373,8,400,,,
break_continue,html.Screen,4_45_2,2023-09-12T21:49:32.386Z,,0,,,NaN,,,,,,false,,,,397658.09999990463,397658,,397657.89999985695,,397680.373,8,400,,,
sequence,flow.Sequence,4_45,2023-09-12T21:49:32.387Z,,0,,,3768.4440000000177,completion,,,,,false,,,,397658.2999999523,397658,393881.856,393887.09999990463,393889.556,397680.373,8,400,,,
trial,html.Screen,4_46_0,2023-09-12T21:49:34.842Z,,0,1,,2432.8269998092437,response,ISIC_7319169.JPG,11,ISIC_9203812.JPG,ISIC_7319169.JPG,false,1,keypress(m),500,400113.39999985695,400113.19999980927,397647.08,397658.5,397680.373,400121.441,8,400,47,,ISIC_9203812.JPG
break,html.Screen,4_46_1,2023-09-12T21:49:34.843Z,,0,,,NaN,,,,,,false,,,,400114.39999985695,400114.09999990463,,400113.69999980927,,400121.441,8,400,,,
break_continue,html.Screen,4_46_2,2023-09-12T21:49:34.843Z,,0,,,NaN,,,,,,false,,,,400114.89999985695,400114.7999999523,,400114.69999980927,,400121.441,8,400,,,
sequence,flow.Sequence,4_46,2023-09-12T21:49:34.843Z,,0,,,2434.426999952295,completion,,,,,false,,,,400115,400114.7999999523,397647.08,397658.39999985695,397680.373,400121.441,8,400,,,
trial,html.Screen,4_47_0,2023-09-12T21:49:37.362Z,,0,1,,2511.8589999523247,response,ISIC_0011789.JPG,7,ISIC_9906799.JPG,ISIC_0011789.JPG,false,1,keypress(m),500,402633.59999990463,402633.2999999523,400104.775,400115.19999980927,400121.441,402637.493,8,400,48,,ISIC_9906799.JPG
break,html.Screen,4_47_1,2023-09-12T21:49:37.363Z,,0,,,NaN,,,,,,false,,,,402634.59999990463,402634.19999980927,,402633.7999999523,,402637.493,8,400,,,
break_continue,html.Screen,4_47_2,2023-09-12T21:49:37.363Z,,0,,,NaN,,,,,,false,,,,402635.09999990463,402635,,402634.7999999523,,402637.493,8,400,,,
sequence,flow.Sequence,4_47,2023-09-12T21:49:37.364Z,,0,,,2513.5590000000084,completion,,,,,false,,,,402635.2999999523,402635,400104.775,400115.19999980927,400121.441,402637.493,8,400,,,
trial,html.Screen,4_48_0,2023-09-12T21:49:39.901Z,,0,1,,2535.0069999999832,response,ISIC_0001119.JPG,11,ISIC_0065292.JPG,ISIC_0001119.JPG,false,1,keypress(m),500,405172.7999999523,405172.5,402621.471,402635.39999985695,402637.493,405195.863,8,400,49,,ISIC_0065292.JPG
break,html.Screen,4_48_1,2023-09-12T21:49:39.902Z,,0,,,NaN,,,,,,false,,,,405173.69999980927,405173.39999985695,,405173,,405195.863,8,400,,,
break_continue,html.Screen,4_48_2,2023-09-12T21:49:39.903Z,,0,,,NaN,,,,,,false,,,,405174.39999985695,405174.19999980927,,405174.09999990463,,405195.863,8,400,,,
sequence,flow.Sequence,4_48,2023-09-12T21:49:39.903Z,,0,,,2536.7069998092484,completion,,,,,false,,,,405174.5,405174.19999980927,402621.471,402635.39999985695,402637.493,405195.863,8,400,,,
trial,html.Screen,4_49_0,2023-09-12T21:49:42.389Z,,0,1,,2464.2369999046205,response,ISIC_0031408.JPG,9,ISIC_0026141.JPG,ISIC_0031408.JPG,false,1,keypress(m),500,407660.2999999523,407660.09999990463,405170.865,405174.59999990463,405195.863,407678.611,8,400,50,,ISIC_0026141.JPG
break,html.Screen,4_49_1,2023-09-12T21:49:52.389Z,,0,,,9997.303000000014,timeout,,,,,false,,,,417661,417659.838,407661.365,407660.59999990463,407678.611,417675.914,8,400,,,
break_continue,html.Screen,4_49_2,2023-09-12T21:49:53.514Z,,0,,,1091.5860000000102,response,,,,,false,continue,keypress(Space),,418785.59999990463,418767.5,417659.838,417661.2999999523,417675.914,418801.139,8,400,,,
sequence,flow.Sequence,4_49,2023-09-12T21:49:53.514Z,,0,,,13571.636999999988,completion,,,,,false,,,,418785.7999999523,418767.5,405170.865,405174.59999990463,405195.863,418801.139,8,400,,,
trial,html.Screen,4_50_0,2023-09-12T21:49:56.894Z,,0,2,,3364.460999904608,response,ISIC_4536407.JPG,9,ISIC_0026347.JPG,ISIC_4536407.JPG,false,1,keypress(m),500,422166,422165.59999990463,418776.043,418786,418801.139,422208.451,8,400,1,,ISIC_0026347.JPG
break,html.Screen,4_50_1,2023-09-12T21:49:56.895Z,,0,,,NaN,,,,,,false,,,,422167.09999990463,422166.69999980927,,422166.19999980927,,422208.451,8,400,,,
break_continue,html.Screen,4_50_2,2023-09-12T21:49:56.896Z,,0,,,NaN,,,,,,false,,,,422167.59999990463,422167.5,,422167.2999999523,,422208.451,8,400,,,
sequence,flow.Sequence,4_50,2023-09-12T21:49:56.896Z,,0,,,3366.3609999999753,completion,,,,,false,,,,422167.89999985695,422167.5,418776.043,418786,418801.139,422208.451,8,400,,,
trial,html.Screen,4_51_0,2023-09-12T21:49:59.767Z,,0,2,,2829.948999856948,response,ISIC_0003593.JPG,12,ISIC_5457889.JPG,ISIC_0003593.JPG,false,1,keypress(m),500,425038.59999990463,425038.39999985695,422191.519,422168.09999990463,422208.451,425058.061,8,400,2,,ISIC_5457889.JPG
break,html.Screen,4_51_1,2023-09-12T21:49:59.768Z,,0,,,NaN,,,,,,false,,,,425039.69999980927,425039.19999980927,,425038.89999985695,,425058.061,8,400,,,
break_continue,html.Screen,4_51_2,2023-09-12T21:49:59.768Z,,0,,,NaN,,,,,,false,,,,425040.19999980927,425040,,425039.89999985695,,425058.061,8,400,,,
sequence,flow.Sequence,4_51,2023-09-12T21:49:59.769Z,,0,,,2831.548999999999,completion,,,,,false,,,,425040.39999985695,425040,422191.519,422168.09999990463,422208.451,425058.061,8,400,,,
trial,html.Screen,4_52_0,2023-09-12T21:50:02.222Z,,0,2,,2435.7389999523293,response,ISIC_0010611.JPG,11,ISIC_4974868.JPG,ISIC_0010611.JPG,false,1,keypress(m),500,427494.09999990463,427493.7999999523,425024.525,425040.5,425058.061,427498.569,8,400,3,,ISIC_4974868.JPG
break,html.Screen,4_52_1,2023-09-12T21:50:02.223Z,,0,,,NaN,,,,,,false,,,,427495,427494.69999980927,,427494.2999999523,,427498.569,8,400,,,
break_continue,html.Screen,4_52_2,2023-09-12T21:50:02.224Z,,0,,,NaN,,,,,,false,,,,427495.59999990463,427495.39999985695,,427495.2999999523,,427498.569,8,400,,,
sequence,flow.Sequence,4_52,2023-09-12T21:50:02.224Z,,0,,,2437.338999856962,completion,,,,,false,,,,427495.89999985695,427495.39999985695,425024.525,425040.5,425058.061,427498.569,8,400,,,
trial,html.Screen,4_53_0,2023-09-12T21:50:04.990Z,,0,2,,2762.9309999999823,response,ISIC_7455460.JPG,9,ISIC_0066411.JPG,ISIC_7455460.JPG,false,1,keypress(m),500,430261.89999985695,430261.5,427482.496,427496.09999990463,427498.569,430264.507,8,400,4,,ISIC_0066411.JPG
break,html.Screen,4_53_1,2023-09-12T21:50:04.991Z,,0,,,NaN,,,,,,false,,,,430263,430262.5,,430262.09999990463,,430264.507,8,400,,,
break_continue,html.Screen,4_53_2,2023-09-12T21:50:04.992Z,,0,,,NaN,,,,,,false,,,,430263.2999999523,430263.19999980927,,430263.09999990463,,430264.507,8,400,,,
sequence,flow.Sequence,4_53,2023-09-12T21:50:04.992Z,,0,,,2764.6309998092474,completion,,,,,false,,,,430263.5,430263.19999980927,427482.496,427496.09999990463,427498.569,430264.507,8,400,,,
trial,html.Screen,4_54_0,2023-09-12T21:50:08.975Z,,0,2,,3981.0929999046493,response,ISIC_0066854.JPG,7,ISIC_0074311.JPG,ISIC_0066854.JPG,false,1,keypress(m),500,434246,434245.59999990463,430248.409,430263.59999990463,430264.507,434264.201,8,400,5,,ISIC_0074311.JPG
break,html.Screen,4_54_1,2023-09-12T21:50:08.976Z,,0,,,NaN,,,,,,false,,,,434246.89999985695,434246.5,,434246.09999990463,,434264.201,8,400,,,
break_continue,html.Screen,4_54_2,2023-09-12T21:50:08.976Z,,0,,,NaN,,,,,,false,,,,434247.39999985695,434247.2999999523,,434247.19999980927,,434264.201,8,400,,,
sequence,flow.Sequence,4_54,2023-09-12T21:50:08.976Z,,0,,,3982.792999952333,completion,,,,,false,,,,434247.59999990463,434247.2999999523,430248.409,430263.59999990463,430264.507,434264.201,8,400,,,
trial,html.Screen,4_55_0,2023-09-12T21:50:18.586Z,,0,2,,9592.798999999999,response,ISIC_5908780.JPG,5,ISIC_2652721.JPG,ISIC_5908780.JPG,false,1,keypress(m),500,443857.19999980927,443857,434230.308,434247.69999980927,434264.201,443878.006,8,400,6,,ISIC_2652721.JPG
break,html.Screen,4_55_1,2023-09-12T21:50:18.587Z,,0,,,NaN,,,,,,false,,,,443858.2999999523,443857.7999999523,,443857.59999990463,,443878.006,8,400,,,
break_continue,html.Screen,4_55_2,2023-09-12T21:50:18.588Z,,0,,,NaN,,,,,,false,,,,443858.7999999523,443858.69999980927,,443858.5,,443878.006,8,400,,,
sequence,flow.Sequence,4_55,2023-09-12T21:50:18.588Z,,0,,,9594.498999809264,completion,,,,,false,,,,443859,443858.69999980927,434230.308,434247.69999980927,434264.201,443878.006,8,400,,,
trial,html.Screen,4_56_0,2023-09-12T21:50:25.799Z,,0,2,,7192.393999856955,response,ISIC_7702857.JPG,9,ISIC_1654318.JPG,ISIC_7702857.JPG,false,1,keypress(m),500,451070.59999990463,451070.39999985695,443844.992,443859.09999990463,443878.006,451085.188,8,400,7,,ISIC_1654318.JPG
break,html.Screen,4_56_1,2023-09-12T21:50:25.801Z,,0,,,NaN,,,,,,false,,,,451071.69999980927,451071.19999980927,,451070.89999985695,,451085.188,8,400,,,
break_continue,html.Screen,4_56_2,2023-09-12T21:50:25.801Z,,0,,,NaN,,,,,,false,,,,451072.19999980927,451072.09999990463,,451071.89999985695,,451085.188,8,400,,,
sequence,flow.Sequence,4_56,2023-09-12T21:50:25.801Z,,0,,,7194.093999904639,completion,,,,,false,,,,451072.39999985695,451072.09999990463,443844.992,443859.09999990463,443878.006,451085.188,8,400,,,
trial,html.Screen,4_57_0,2023-09-12T21:50:31.694Z,,0,2,,5879.411999904609,response,ISIC_9947624.JPG,9,ISIC_0059551.JPG,ISIC_9947624.JPG,false,1,keypress(m),500,456964.89999985695,456964.59999990463,451068.559,451072.5,451085.188,456983.791,8,400,8,,ISIC_0059551.JPG
break,html.Screen,4_57_1,2023-09-12T21:50:31.695Z,,0,,,NaN,,,,,,false,,,,456966,456965.69999980927,,456965.19999980927,,456983.791,8,400,,,
break_continue,html.Screen,4_57_2,2023-09-12T21:50:31.695Z,,0,,,NaN,,,,,,false,,,,456966.5,456966.39999985695,,456966.2999999523,,456983.791,8,400,,,
sequence,flow.Sequence,4_57,2023-09-12T21:50:31.696Z,,0,,,5881.211999856925,completion,,,,,false,,,,456966.69999980927,456966.39999985695,451068.559,451072.5,451085.188,456983.791,8,400,,,
trial,html.Screen,4_58_0,2023-09-12T21:50:37.971Z,,0,2,,6257.808999904606,response,ISIC_0420777.JPG,8,ISIC_4185719.JPG,ISIC_0420777.JPG,false,1,keypress(m),500,463241.89999985695,463241.59999990463,456950.49,456966.89999985695,456983.791,463257.327,8,400,9,,ISIC_4185719.JPG
break,html.Screen,4_58_1,2023-09-12T21:50:37.972Z,,0,,,NaN,,,,,,false,,,,463242.7999999523,463242.5,,463242.09999990463,,463257.327,8,400,,,
break_continue,html.Screen,4_58_2,2023-09-12T21:50:37.972Z,,0,,,NaN,,,,,,false,,,,463243.19999980927,463243.19999980927,,463243,,463257.327,8,400,,,
sequence,flow.Sequence,4_58,2023-09-12T21:50:37.972Z,,0,,,6259.408999809239,completion,,,,,false,,,,463243.5,463243.19999980927,456950.49,456966.7999999523,456983.791,463257.327,8,400,,,
trial,html.Screen,4_59_0,2023-09-12T21:50:44.298Z,,0,2,,6311.272999904642,response,ISIC_2159510.JPG,9,ISIC_0055393.JPG,ISIC_0055393.JPG,false,0,keypress(z),500,469569,469568.59999990463,463240.387,463243.59999990463,463257.327,469588.496,8,400,10,,ISIC_2159510.JPG
break,html.Screen,4_59_1,2023-09-12T21:50:44.299Z,,0,,,NaN,,,,,,false,,,,469570,469569.59999990463,,469569.19999980927,,469588.496,8,400,,,
break_continue,html.Screen,4_59_2,2023-09-12T21:50:44.299Z,,0,,,NaN,,,,,,false,,,,469570.39999985695,469570.2999999523,,469570.19999980927,,469588.496,8,400,,,
sequence,flow.Sequence,4_59,2023-09-12T21:50:44.300Z,,0,,,6312.972999952326,completion,,,,,false,,,,469570.7999999523,469570.2999999523,463240.387,463243.59999990463,463257.327,469588.496,8,400,,,
trial,html.Screen,4_60_0,2023-09-12T21:50:46.421Z,,0,2,,2103.7039998092805,response,ISIC_0065192.JPG,12,ISIC_5486460.JPG,ISIC_5486460.JPG,false,0,keypress(z),500,471692.5,471692.19999980927,469563.807,469570.89999985695,469588.496,471713.566,8,400,11,,ISIC_0065192.JPG
break,html.Screen,4_60_1,2023-09-12T21:50:46.422Z,,0,,,NaN,,,,,,false,,,,471693.59999990463,471693.09999990463,,471692.69999980927,,471713.566,8,400,,,
break_continue,html.Screen,4_60_2,2023-09-12T21:50:46.423Z,,0,,,NaN,,,,,,false,,,,471694.09999990463,471694,,471693.89999985695,,471713.566,8,400,,,
sequence,flow.Sequence,4_60,2023-09-12T21:50:46.423Z,,0,,,2105.5040000000154,completion,,,,,false,,,,471694.2999999523,471694,469563.807,469570.89999985695,469588.496,471713.566,8,400,,,
trial,html.Screen,4_61_0,2023-09-12T21:50:49.966Z,,0,2,,3523.6339998092735,response,ISIC_5247560.JPG,10,ISIC_0056921.JPG,ISIC_0056921.JPG,false,0,keypress(z),500,475237.5,475237.19999980927,471688.088,471694.5,471713.566,475254.121,8,400,12,,ISIC_5247560.JPG
break,html.Screen,4_61_1,2023-09-12T21:50:49.967Z,,0,,,NaN,,,,,,false,,,,475238.5,475238.09999990463,,475237.7999999523,,475254.121,8,400,,,
break_continue,html.Screen,4_61_2,2023-09-12T21:50:49.968Z,,0,,,NaN,,,,,,false,,,,475239,475238.89999985695,,475238.7999999523,,475254.121,8,400,,,
sequence,flow.Sequence,4_61,2023-09-12T21:50:49.968Z,,0,,,3525.3339998569572,completion,,,,,false,,,,475239.09999990463,475238.89999985695,471688.088,471694.2999999523,471713.566,475254.121,8,400,,,
trial,html.Screen,4_62_0,2023-09-12T21:50:53.672Z,,0,2,,3688.778999856964,response,ISIC_9386509.JPG,10,ISIC_4590810.JPG,ISIC_4590810.JPG,false,0,keypress(z),500,478943.2999999523,478942.89999985695,475237.874,475239.2999999523,475254.121,478961.899,8,400,13,,ISIC_9386509.JPG
break,html.Screen,4_62_1,2023-09-12T21:50:53.673Z,,0,,,NaN,,,,,,false,,,,478944.2999999523,478943.89999985695,,478943.39999985695,,478961.899,8,400,,,
break_continue,html.Screen,4_62_2,2023-09-12T21:50:53.674Z,,0,,,NaN,,,,,,false,,,,478944.7999999523,478944.69999980927,,478944.59999990463,,478961.899,8,400,,,
sequence,flow.Sequence,4_62,2023-09-12T21:50:53.674Z,,0,,,3690.5789998092805,completion,,,,,false,,,,478945,478944.69999980927,475237.874,475239.19999980927,475254.121,478961.899,8,400,,,
trial,html.Screen,4_63_0,2023-09-12T21:51:01.773Z,,0,2,,8081.800999809289,response,ISIC_0029409.JPG,12,ISIC_3530422.JPG,ISIC_3530422.JPG,false,0,keypress(z),500,487043.89999985695,487043.69999980927,478928.345,478945.09999990463,478961.899,487059.489,8,400,14,,ISIC_0029409.JPG
break,html.Screen,4_63_1,2023-09-12T21:51:01.774Z,,0,,,NaN,,,,,,false,,,,487044.89999985695,487044.5,,487044.19999980927,,487059.489,8,400,,,
break_continue,html.Screen,4_63_2,2023-09-12T21:51:01.774Z,,0,,,NaN,,,,,,false,,,,487045.39999985695,487045.19999980927,,487045.09999990463,,487059.489,8,400,,,
sequence,flow.Sequence,4_63,2023-09-12T21:51:01.774Z,,0,,,8083.300999809289,completion,,,,,false,,,,487045.5,487045.19999980927,478928.345,478945,478961.899,487059.489,8,400,,,
trial,html.Screen,4_64_0,2023-09-12T21:51:05.363Z,,0,2,,3574.310999952315,response,ISIC_4620425.JPG,11,ISIC_0032265.JPG,ISIC_4620425.JPG,false,1,keypress(m),500,490634.09999990463,490633.7999999523,487043.322,487045.59999990463,487059.489,490658.73,8,400,15,,ISIC_0032265.JPG
break,html.Screen,4_64_1,2023-09-12T21:51:05.364Z,,0,,,NaN,,,,,,false,,,,490635,490634.59999990463,,490634.19999980927,,490658.73,8,400,,,
break_continue,html.Screen,4_64_2,2023-09-12T21:51:05.364Z,,0,,,NaN,,,,,,false,,,,490635.5,490635.39999985695,,490635.2999999523,,490658.73,8,400,,,
sequence,flow.Sequence,4_64,2023-09-12T21:51:05.365Z,,0,,,3575.9109998569475,completion,,,,,false,,,,490635.7999999523,490635.39999985695,487043.322,487045.59999990463,487059.489,490658.73,8,400,,,
trial,html.Screen,4_65_0,2023-09-12T21:51:07.531Z,,0,2,,2143.4699998092838,response,ISIC_0024990.JPG,13,ISIC_6705966.JPG,ISIC_0024990.JPG,false,1,keypress(m),500,492802.39999985695,492802.19999980927,490634.147,490635.89999985695,490658.73,492808.029,8,400,16,,ISIC_6705966.JPG
break,html.Screen,4_65_1,2023-09-12T21:51:07.532Z,,0,,,NaN,,,,,,false,,,,492803.19999980927,492803,,492802.59999990463,,492808.029,8,400,,,
break_continue,html.Screen,4_65_2,2023-09-12T21:51:07.532Z,,0,,,NaN,,,,,,false,,,,492803.59999990463,492803.5,,492803.39999985695,,492808.029,8,400,,,
sequence,flow.Sequence,4_65,2023-09-12T21:51:07.533Z,,0,,,2144.7700000000186,completion,,,,,false,,,,492803.69999980927,492803.5,490634.147,490635.89999985695,490658.73,492808.029,8,400,,,
trial,html.Screen,4_66_0,2023-09-12T21:51:10.848Z,,0,2,,3310.6709998092847,response,ISIC_7953039.JPG,10,ISIC_0073075.JPG,ISIC_7953039.JPG,false,1,keypress(m),500,496119,496118.69999980927,492791.508,492803.89999985695,492808.029,496132.825,8,400,17,,ISIC_0073075.JPG
break,html.Screen,4_66_1,2023-09-12T21:51:10.849Z,,0,,,NaN,,,,,,false,,,,496120.19999980927,496119.7999999523,,496119.2999999523,,496132.825,8,400,,,
break_continue,html.Screen,4_66_2,2023-09-12T21:51:10.850Z,,0,,,NaN,,,,,,false,,,,496120.7999999523,496120.69999980927,,496120.5,,496132.825,8,400,,,
sequence,flow.Sequence,4_66,2023-09-12T21:51:10.850Z,,0,,,3312.6709998092847,completion,,,,,false,,,,496121,496120.69999980927,492791.508,492803.7999999523,492808.029,496132.825,8,400,,,
trial,html.Screen,4_67_0,2023-09-12T21:51:13.500Z,,0,2,,2638.1749999999884,response,ISIC_4045781.JPG,11,ISIC_0073032.JPG,ISIC_4045781.JPG,false,1,keypress(m),500,498771.2999999523,498771,496116.139,496121.19999980927,496132.825,498794.601,8,400,18,,ISIC_0073032.JPG
break,html.Screen,4_67_1,2023-09-12T21:51:13.501Z,,0,,,NaN,,,,,,false,,,,498772.2999999523,498772,,498771.5,,498794.601,8,400,,,
break_continue,html.Screen,4_67_2,2023-09-12T21:51:13.502Z,,0,,,NaN,,,,,,false,,,,498772.89999985695,498772.69999980927,,498772.5,,498794.601,8,400,,,
sequence,flow.Sequence,4_67,2023-09-12T21:51:13.502Z,,0,,,2639.8749998092535,completion,,,,,false,,,,498773.09999990463,498772.69999980927,496116.139,496121.19999980927,496132.825,498794.601,8,400,,,
trial,html.Screen,4_68_0,2023-09-12T21:51:16.403Z,,0,2,,2879.098999809241,response,ISIC_0067167.JPG,11,ISIC_0057815.JPG,ISIC_0057815.JPG,false,0,keypress(z),500,501674,501673.69999980927,498757.214,498773.2999999523,498794.601,501680.899,8,400,19,,ISIC_0067167.JPG
break,html.Screen,4_68_1,2023-09-12T21:51:16.404Z,,0,,,NaN,,,,,,false,,,,501675,501674.69999980927,,501674.2999999523,,501680.899,8,400,,,
break_continue,html.Screen,4_68_2,2023-09-12T21:51:16.404Z,,0,,,NaN,,,,,,false,,,,501675.5,501675.39999985695,,501675.2999999523,,501680.899,8,400,,,
sequence,flow.Sequence,4_68,2023-09-12T21:51:16.405Z,,0,,,2880.7989998569246,completion,,,,,false,,,,501675.7999999523,501675.39999985695,498757.214,498773.2999999523,498794.601,501680.899,8,400,,,
trial,html.Screen,4_69_0,2023-09-12T21:51:21.761Z,,0,2,,5350.200999904657,response,ISIC_6025721.JPG,5,ISIC_0054655.JPG,ISIC_0054655.JPG,false,0,keypress(z),500,507031.69999980927,507031.09999990463,501664.878,501675.89999985695,501680.899,507046.951,8,400,20,,ISIC_6025721.JPG
break,html.Screen,4_69_1,2023-09-12T21:51:21.762Z,,0,,,NaN,,,,,,false,,,,507032.89999985695,507032.5,,507032,,507046.951,8,400,,,
break_continue,html.Screen,4_69_2,2023-09-12T21:51:21.762Z,,0,,,NaN,,,,,,false,,,,507033.5,507033.2999999523,,507033.09999990463,,507046.951,8,400,,,
sequence,flow.Sequence,4_69,2023-09-12T21:51:21.763Z,,0,,,5352.4009999523405,completion,,,,,false,,,,507033.89999985695,507033.2999999523,501664.878,501675.7999999523,501680.899,507046.951,8,400,,,
trial,html.Screen,4_70_0,2023-09-12T21:51:32.572Z,,0,2,,10795.648999904632,response,ISIC_3464344.JPG,10,ISIC_0011045.JPG,ISIC_3464344.JPG,false,1,keypress(m),500,517843,517842.59999990463,507030.062,507034,507046.951,517852.042,8,400,21,,ISIC_0011045.JPG
break,html.Screen,4_70_1,2023-09-12T21:51:32.573Z,,0,,,NaN,,,,,,false,,,,517844.09999990463,517843.69999980927,,517843.2999999523,,517852.042,8,400,,,
break_continue,html.Screen,4_70_2,2023-09-12T21:51:32.573Z,,0,,,NaN,,,,,,false,,,,517844.59999990463,517844.39999985695,,517844.2999999523,,517852.042,8,400,,,
sequence,flow.Sequence,4_70,2023-09-12T21:51:32.574Z,,0,,,10797.448999856948,completion,,,,,false,,,,517844.7999999523,517844.39999985695,507030.062,507034,507046.951,517852.042,8,400,,,
trial,html.Screen,4_71_0,2023-09-12T21:51:35.244Z,,0,2,,2662.2579999523005,response,ISIC_0064623.JPG,9,ISIC_2075372.JPG,ISIC_0064623.JPG,false,1,keypress(m),500,520514.69999980927,520514.2999999523,517835.396,517846.09999990463,517852.042,520518.071,8,400,22,,ISIC_2075372.JPG
break,html.Screen,4_71_1,2023-09-12T21:51:35.245Z,,0,,,NaN,,,,,,false,,,,520515.69999980927,520515.2999999523,,520514.89999985695,,520518.071,8,400,,,
break_continue,html.Screen,4_71_2,2023-09-12T21:51:35.245Z,,0,,,NaN,,,,,,false,,,,520516.19999980927,520516.09999990463,,520516,,520518.071,8,400,,,
sequence,flow.Sequence,4_71,2023-09-12T21:51:35.245Z,,0,,,2664.0579999046167,completion,,,,,false,,,,520516.39999985695,520516.09999990463,517835.396,517844.89999985695,517852.042,520518.071,8,400,,,
trial,html.Screen,4_72_0,2023-09-12T21:51:37.923Z,,0,2,,2675.4290000000037,response,ISIC_0062471.JPG,5,ISIC_6313487.JPG,ISIC_0062471.JPG,false,1,keypress(m),500,523193.89999985695,523193.5,520502.066,520516.59999990463,520518.071,523217.55,8,400,23,,ISIC_6313487.JPG
break,html.Screen,4_72_1,2023-09-12T21:51:37.924Z,,0,,,NaN,,,,,,false,,,,523194.89999985695,523194.5,,523194.09999990463,,523217.55,8,400,,,
break_continue,html.Screen,4_72_2,2023-09-12T21:51:37.924Z,,0,,,NaN,,,,,,false,,,,523195.39999985695,523195.2999999523,,523195.09999990463,,523217.55,8,400,,,
sequence,flow.Sequence,4_72,2023-09-12T21:51:37.924Z,,0,,,2677.22899995232,completion,,,,,false,,,,523195.5,523195.2999999523,520502.066,520516.5,520518.071,523217.55,8,400,,,
trial,html.Screen,4_73_0,2023-09-12T21:51:41.928Z,,0,2,,3981.549999904644,response,ISIC_6373500.JPG,6,ISIC_0010306.JPG,ISIC_6373500.JPG,false,1,keypress(m),500,527199.399999857,527199.0999999046,523193.116,523195.59999990463,523217.55,527216.524,8,400,24,,ISIC_0010306.JPG
break,html.Screen,4_73_1,2023-09-12T21:51:41.929Z,,0,,,NaN,,,,,,false,,,,527200.2999999523,527199.899999857,,527199.5999999046,,527216.524,8,400,,,
break_continue,html.Screen,4_73_2,2023-09-12T21:51:41.930Z,,0,,,NaN,,,,,,false,,,,527200.7999999523,527200.5999999046,,527200.5999999046,,527216.524,8,400,,,
sequence,flow.Sequence,4_73,2023-09-12T21:51:41.930Z,,0,,,3983.049999904644,completion,,,,,false,,,,527201,527200.5999999046,523193.116,523195.59999990463,523217.55,527216.524,8,400,,,
trial,html.Screen,4_74_0,2023-09-12T21:51:45.022Z,,0,2,,3076.575999904657,response,ISIC_6548307.JPG,9,ISIC_8885809.JPG,ISIC_8885809.JPG,false,0,keypress(z),500,530293.399999857,530293.0999999046,527183.795,527201.0999999046,527216.524,530316.383,8,400,25,,ISIC_6548307.JPG
break,html.Screen,4_74_1,2023-09-12T21:51:45.023Z,,0,,,NaN,,,,,,false,,,,530294.2999999523,530293.899999857,,530293.5,,530316.383,8,400,,,
break_continue,html.Screen,4_74_2,2023-09-12T21:51:45.024Z,,0,,,NaN,,,,,,false,,,,530294.899999857,530294.7999999523,,530294.5999999046,,530316.383,8,400,,,
sequence,flow.Sequence,4_74,2023-09-12T21:51:45.024Z,,0,,,3078.2759999523405,completion,,,,,false,,,,530295.0999999046,530294.7999999523,527183.795,527201.0999999046,527216.524,530316.383,8,400,,,
trial,html.Screen,4_75_0,2023-09-12T21:51:47.803Z,,0,2,,2757.4169999522856,response,ISIC_6384906.JPG,10,ISIC_7421214.JPG,ISIC_7421214.JPG,false,0,keypress(z),500,533074.0999999046,533073.7999999523,530283.108,530295.1999998093,530316.383,533098.52,8,400,26,,ISIC_6384906.JPG
break,html.Screen,4_75_1,2023-09-12T21:51:47.804Z,,0,,,NaN,,,,,,false,,,,533075,533074.6999998093,,533074.399999857,,533098.52,8,400,,,
break_continue,html.Screen,4_75_2,2023-09-12T21:51:47.804Z,,0,,,NaN,,,,,,false,,,,533075.2999999523,533075.1999998093,,533075.0999999046,,533098.52,8,400,,,
sequence,flow.Sequence,4_75,2023-09-12T21:51:47.804Z,,0,,,2758.8169998092344,completion,,,,,false,,,,533075.5,533075.1999998093,530283.108,530295.1999998093,530316.383,533098.52,8,400,,,
trial,html.Screen,4_76_0,2023-09-12T21:51:51.364Z,,0,2,,3536.4799999999814,response,ISIC_0054053.JPG,9,ISIC_0013921.JPG,ISIC_0013921.JPG,false,0,keypress(z),500,536635.2999999523,536635,533081.903,533075.6999998093,533098.52,536648.216,8,400,27,,ISIC_0054053.JPG
break,html.Screen,4_76_1,2023-09-12T21:51:51.365Z,,0,,,NaN,,,,,,false,,,,536636.399999857,536635.899999857,,536635.5,,536648.216,8,400,,,
break_continue,html.Screen,4_76_2,2023-09-12T21:51:51.366Z,,0,,,NaN,,,,,,false,,,,536636.6999998093,536636.6999998093,,536636.5,,536648.216,8,400,,,
sequence,flow.Sequence,4_76,2023-09-12T21:51:51.366Z,,0,,,3538.1799998092465,completion,,,,,false,,,,536636.899999857,536636.6999998093,533081.903,533075.5999999046,533098.52,536648.216,8,400,,,
trial,html.Screen,4_77_0,2023-09-12T21:51:54.632Z,,0,2,,3254.783999999985,response,ISIC_2445765.JPG,10,ISIC_0071857.JPG,ISIC_0071857.JPG,false,0,keypress(z),500,539903.2999999523,539903,536631.031,536637.0999999046,536648.216,539913.556,8,400,28,,ISIC_2445765.JPG
break,html.Screen,4_77_1,2023-09-12T21:51:54.633Z,,0,,,NaN,,,,,,false,,,,539904.399999857,539904,,539903.5999999046,,539913.556,8,400,,,
break_continue,html.Screen,4_77_2,2023-09-12T21:51:54.634Z,,0,,,NaN,,,,,,false,,,,539904.899999857,539904.6999998093,,539904.5999999046,,539913.556,8,400,,,
sequence,flow.Sequence,4_77,2023-09-12T21:51:54.634Z,,0,,,3256.4839998092502,completion,,,,,false,,,,539905.0999999046,539904.6999998093,536631.031,536637,536648.216,539913.556,8,400,,,
trial,html.Screen,4_78_0,2023-09-12T21:51:58.012Z,,0,2,,3369.643999809283,response,ISIC_7131359.JPG,11,ISIC_0004848.JPG,ISIC_0004848.JPG,false,0,keypress(z),500,543283.5,543283.1999998093,539897.462,539905.1999998093,539913.556,543296.641,8,400,29,,ISIC_7131359.JPG
break,html.Screen,4_78_1,2023-09-12T21:51:58.013Z,,0,,,NaN,,,,,,false,,,,543284.5,543284.0999999046,,543283.6999998093,,543296.641,8,400,,,
break_continue,html.Screen,4_78_2,2023-09-12T21:51:58.014Z,,0,,,NaN,,,,,,false,,,,543285,543284.899999857,,543284.6999998093,,543296.641,8,400,,,
sequence,flow.Sequence,4_78,2023-09-12T21:51:58.014Z,,0,,,3371.3439998569665,completion,,,,,false,,,,543285.1999998093,543284.899999857,539897.462,539905.1999998093,539913.556,543296.641,8,400,,,
trial,html.Screen,4_79_0,2023-09-12T21:52:01.504Z,,0,2,,3478.05899980932,response,ISIC_9303849.JPG,12,ISIC_6496765.JPG,ISIC_9303849.JPG,false,1,keypress(m),500,546774.899999857,546774.6999998093,543279.461,543285.2999999523,543296.641,546795.746,8,400,30,,ISIC_6496765.JPG
break,html.Screen,4_79_1,2023-09-12T21:52:01.505Z,,0,,,NaN,,,,,,false,,,,546775.899999857,546775.5,,546775.1999998093,,546795.746,8,400,,,
break_continue,html.Screen,4_79_2,2023-09-12T21:52:01.505Z,,0,,,NaN,,,,,,false,,,,546776.5,546776.399999857,,546776.1999998093,,546795.746,8,400,,,
sequence,flow.Sequence,4_79,2023-09-12T21:52:01.505Z,,0,,,3479.758999857004,completion,,,,,false,,,,546776.6999998093,546776.399999857,543279.461,543285.2999999523,543296.641,546795.746,8,400,,,
trial,html.Screen,4_80_0,2023-09-12T21:52:04.746Z,,0,2,,3221.3539999045897,response,ISIC_0450295.JPG,11,ISIC_6515546.JPG,ISIC_0450295.JPG,false,1,keypress(m),500,550017.5,550017.0999999046,546762.501,546776.899999857,546795.746,550036.744,8,400,31,,ISIC_6515546.JPG
break,html.Screen,4_80_1,2023-09-12T21:52:04.747Z,,0,,,NaN,,,,,,false,,,,550018.5,550018.0999999046,,550017.7999999523,,550036.744,8,400,,,
break_continue,html.Screen,4_80_2,2023-09-12T21:52:04.748Z,,0,,,NaN,,,,,,false,,,,550019.0999999046,550018.899999857,,550018.7999999523,,550036.744,8,400,,,
sequence,flow.Sequence,4_80,2023-09-12T21:52:04.748Z,,0,,,3223.153999856906,completion,,,,,false,,,,550019.5999999046,550018.899999857,546762.501,546776.7999999523,546795.746,550036.744,8,400,,,
trial,html.Screen,4_81_0,2023-09-12T21:52:07.830Z,,0,2,,3064.155999857001,response,ISIC_0059897.JPG,12,ISIC_0033561.JPG,ISIC_0059897.JPG,false,1,keypress(m),500,553101.2999999523,553100.899999857,550011.707,550019.6999998093,550036.744,553121.145,8,400,32,,ISIC_0033561.JPG
break,html.Screen,4_81_1,2023-09-12T21:52:07.831Z,,0,,,NaN,,,,,,false,,,,553102.1999998093,553101.7999999523,,553101.5,,553121.145,8,400,,,
break_continue,html.Screen,4_81_2,2023-09-12T21:52:07.832Z,,0,,,NaN,,,,,,false,,,,553102.7999999523,553102.6999998093,,553102.5,,553121.145,8,400,,,
sequence,flow.Sequence,4_81,2023-09-12T21:52:07.832Z,,0,,,3065.9559998093173,completion,,,,,false,,,,553103,553102.6999998093,550011.707,550019.6999998093,550036.744,553121.145,8,400,,,
trial,html.Screen,4_82_0,2023-09-12T21:52:10.851Z,,0,2,,3000.454999904614,response,ISIC_0029157.JPG,5,ISIC_0014082.JPG,ISIC_0029157.JPG,false,1,keypress(m),500,556121.899999857,556121.5999999046,553086.055,553103.1999998093,553121.145,556135.275,8,400,33,,ISIC_0014082.JPG
break,html.Screen,4_82_1,2023-09-12T21:52:10.852Z,,0,,,NaN,,,,,,false,,,,556123.0999999046,556122.5999999046,,556122.1999998093,,556135.275,8,400,,,
break_continue,html.Screen,4_82_2,2023-09-12T21:52:10.852Z,,0,,,NaN,,,,,,false,,,,556123.5,556123.399999857,,556123.1999998093,,556135.275,8,400,,,
sequence,flow.Sequence,4_82,2023-09-12T21:52:10.853Z,,0,,,3002.25499985693,completion,,,,,false,,,,556123.6999998093,556123.399999857,553086.055,553103,553121.145,556135.275,8,400,,,
trial,html.Screen,4_83_0,2023-09-12T21:52:13.818Z,,0,2,,2953.3249999046093,response,ISIC_0030183.JPG,12,ISIC_0027882.JPG,ISIC_0030183.JPG,false,1,keypress(m),500,559088.899999857,559088.5999999046,556118.089,556123.899999857,556135.275,559101.256,8,400,34,,ISIC_0027882.JPG
break,html.Screen,4_83_1,2023-09-12T21:52:13.819Z,,0,,,NaN,,,,,,false,,,,559089.7999999523,559089.399999857,,559089.0999999046,,559101.256,8,400,,,
break_continue,html.Screen,4_83_2,2023-09-12T21:52:13.819Z,,0,,,NaN,,,,,,false,,,,559090.2999999523,559090.1999998093,,559090.0999999046,,559101.256,8,400,,,
sequence,flow.Sequence,4_83,2023-09-12T21:52:13.819Z,,0,,,2954.924999809242,completion,,,,,false,,,,559090.5,559090.1999998093,556118.089,556123.7999999523,556135.275,559101.256,8,400,,,
trial,html.Screen,4_84_0,2023-09-12T21:52:16.713Z,,0,2,,2882.6439998568967,response,ISIC_0663588.JPG,8,ISIC_0011694.JPG,ISIC_0663588.JPG,false,1,keypress(m),500,561984.2999999523,561983.899999857,559084.364,559090.5999999046,559101.256,561999.947,8,400,35,,ISIC_0011694.JPG
break,html.Screen,4_84_1,2023-09-12T21:52:16.714Z,,0,,,NaN,,,,,,false,,,,561985.399999857,561984.899999857,,561984.5,,561999.947,8,400,,,
break_continue,html.Screen,4_84_2,2023-09-12T21:52:16.715Z,,0,,,NaN,,,,,,false,,,,561985.899999857,561985.6999998093,,561985.5999999046,,561999.947,8,400,,,
sequence,flow.Sequence,4_84,2023-09-12T21:52:16.715Z,,0,,,2884.443999809213,completion,,,,,false,,,,561986,561985.6999998093,559084.364,559090.5999999046,559101.256,561999.947,8,400,,,
trial,html.Screen,4_85_0,2023-09-12T21:52:19.438Z,,0,2,,2708.452999856905,response,ISIC_0069791.JPG,13,ISIC_7901891.JPG,ISIC_0069791.JPG,false,1,keypress(m),500,564708.6999998093,564708.399999857,561983.697,561986.2999999523,561999.947,564716.051,8,400,36,,ISIC_7901891.JPG
break,html.Screen,4_85_1,2023-09-12T21:52:19.439Z,,0,,,NaN,,,,,,false,,,,564709.7999999523,564709.399999857,,564709,,564716.051,8,400,,,
break_continue,html.Screen,4_85_2,2023-09-12T21:52:19.439Z,,0,,,NaN,,,,,,false,,,,564710.2999999523,564710.1999998093,,564710.0999999046,,564716.051,8,400,,,
sequence,flow.Sequence,4_85,2023-09-12T21:52:19.439Z,,0,,,2710.2529998092214,completion,,,,,false,,,,564710.5,564710.1999998093,561983.697,561986.2999999523,561999.947,564716.051,8,400,,,
trial,html.Screen,4_86_0,2023-09-12T21:52:22.297Z,,0,2,,2852.2489999523386,response,ISIC_0579047.JPG,7,ISIC_5732374.JPG,ISIC_0579047.JPG,false,1,keypress(m),500,567568.5,567568.2999999523,564699.948,564710.6999998093,564716.051,567581.959,8,400,37,,ISIC_5732374.JPG
break,html.Screen,4_86_1,2023-09-12T21:52:22.298Z,,0,,,NaN,,,,,,false,,,,567569.5,567569.0999999046,,567568.7999999523,,567581.959,8,400,,,
break_continue,html.Screen,4_86_2,2023-09-12T21:52:22.299Z,,0,,,NaN,,,,,,false,,,,567570.2999999523,567570,,567569.899999857,,567581.959,8,400,,,
sequence,flow.Sequence,4_86,2023-09-12T21:52:22.299Z,,0,,,2853.9490000000224,completion,,,,,false,,,,567570.5,567570,564699.948,564710.5999999046,564716.051,567581.959,8,400,,,
trial,html.Screen,4_87_0,2023-09-12T21:52:24.965Z,,0,2,,2653.940999856917,response,ISIC_6672654.JPG,11,ISIC_4523565.JPG,ISIC_6672654.JPG,false,1,keypress(m),500,570236.1999998093,570235.899999857,567565.729,567570.7999999523,567581.959,570256.894,8,400,38,,ISIC_4523565.JPG
break,html.Screen,4_87_1,2023-09-12T21:52:24.966Z,,0,,,NaN,,,,,,false,,,,570237.2999999523,570236.7999999523,,570236.399999857,,570256.894,8,400,,,
break_continue,html.Screen,4_87_2,2023-09-12T21:52:24.967Z,,0,,,NaN,,,,,,false,,,,570237.7999999523,570237.6999998093,,570237.5999999046,,570256.894,8,400,,,
sequence,flow.Sequence,4_87,2023-09-12T21:52:24.967Z,,0,,,2655.7409998092335,completion,,,,,false,,,,570238,570237.6999998093,567565.729,567570.6999998093,567581.959,570256.894,8,400,,,
trial,html.Screen,4_88_0,2023-09-12T21:52:28.740Z,,0,2,,3753.905999952345,response,ISIC_0012708.JPG,12,ISIC_0025138.JPG,ISIC_0025138.JPG,false,0,keypress(z),500,574011.0999999046,574010.7999999523,570223.22,570238.1999998093,570256.894,574030.964,8,400,39,,ISIC_0012708.JPG
break,html.Screen,4_88_1,2023-09-12T21:52:28.741Z,,0,,,NaN,,,,,,false,,,,574012.2999999523,574011.7999999523,,574011.399999857,,574030.964,8,400,,,
break_continue,html.Screen,4_88_2,2023-09-12T21:52:28.742Z,,0,,,NaN,,,,,,false,,,,574012.6999998093,574012.5999999046,,574012.5,,574030.964,8,400,,,
sequence,flow.Sequence,4_88,2023-09-12T21:52:28.742Z,,0,,,3755.7059999046614,completion,,,,,false,,,,574013,574012.5999999046,570223.22,570238.0999999046,570256.894,574030.964,8,400,,,
trial,html.Screen,4_89_0,2023-09-12T21:52:31.683Z,,0,2,,2922.735999809229,response,ISIC_0176781.JPG,6,ISIC_0012395.JPG,ISIC_0012395.JPG,false,0,keypress(z),500,576954,576953.6999998093,573997.762,574013.0999999046,574030.964,576963.125,8,400,40,,ISIC_0176781.JPG
break,html.Screen,4_89_1,2023-09-12T21:52:31.684Z,,0,,,NaN,,,,,,false,,,,576955.0999999046,576954.5999999046,,576954.2999999523,,576963.125,8,400,,,
break_continue,html.Screen,4_89_2,2023-09-12T21:52:31.684Z,,0,,,NaN,,,,,,false,,,,576955.5,576955.399999857,,576955.2999999523,,576963.125,8,400,,,
sequence,flow.Sequence,4_89,2023-09-12T21:52:31.685Z,,0,,,2924.4359998569125,completion,,,,,false,,,,576955.6999998093,576955.399999857,573997.762,574013.0999999046,574030.964,576963.125,8,400,,,
trial,html.Screen,4_90_0,2023-09-12T21:52:34.327Z,,0,2,,2634.6749999523163,response,ISIC_0024990.JPG,9,ISIC_0030128.JPG,ISIC_0030128.JPG,false,0,keypress(z),500,579598.0999999046,579597.7999999523,576946.722,576955.899999857,576963.125,579604.191,8,400,41,,ISIC_0024990.JPG
break,html.Screen,4_90_1,2023-09-12T21:52:34.328Z,,0,,,NaN,,,,,,false,,,,579599.0999999046,579598.5999999046,,579598.2999999523,,579604.191,8,400,,,
break_continue,html.Screen,4_90_2,2023-09-12T21:52:34.328Z,,0,,,NaN,,,,,,false,,,,579599.5999999046,579599.399999857,,579599.2999999523,,579604.191,8,400,,,
sequence,flow.Sequence,4_90,2023-09-12T21:52:34.329Z,,0,,,2636.274999856949,completion,,,,,false,,,,579599.6999998093,579599.399999857,576946.722,576955.6999998093,576963.125,579604.191,8,400,,,
trial,html.Screen,4_91_0,2023-09-12T21:52:36.685Z,,0,2,,2352.1089999523247,response,ISIC_7976934.JPG,8,ISIC_0068116.JPG,ISIC_0068116.JPG,false,0,keypress(z),500,581956.5999999046,581956.2999999523,579588.011,579599.7999999523,579604.191,581979.197,8,400,42,,ISIC_7976934.JPG
break,html.Screen,4_91_1,2023-09-12T21:52:36.686Z,,0,,,NaN,,,,,,false,,,,581957.6999998093,581957.1999998093,,581956.7999999523,,581979.197,8,400,,,
break_continue,html.Screen,4_91_2,2023-09-12T21:52:36.687Z,,0,,,NaN,,,,,,false,,,,581958.1999998093,581957.899999857,,581957.899999857,,581979.197,8,400,,,
sequence,flow.Sequence,4_91,2023-09-12T21:52:36.687Z,,0,,,2353.7089998569572,completion,,,,,false,,,,581958.2999999523,581957.899999857,579588.011,579599.7999999523,579604.191,581979.197,8,400,,,
trial,html.Screen,4_92_0,2023-09-12T21:52:39.292Z,,0,2,,2583.5029998092214,response,ISIC_0066033.JPG,6,ISIC_7579316.JPG,ISIC_7579316.JPG,false,0,keypress(z),500,584563,584562.6999998093,581945.57,581958.399999857,581979.197,584569.641,8,400,43,,ISIC_0066033.JPG
break,html.Screen,4_92_1,2023-09-12T21:52:39.293Z,,0,,,NaN,,,,,,false,,,,584563.899999857,584563.5999999046,,584563.1999998093,,584569.641,8,400,,,
break_continue,html.Screen,4_92_2,2023-09-12T21:52:39.293Z,,0,,,NaN,,,,,,false,,,,584564.5,584564.2999999523,,584564.2999999523,,584569.641,8,400,,,
sequence,flow.Sequence,4_92,2023-09-12T21:52:39.293Z,,0,,,2585.1029999522725,completion,,,,,false,,,,584564.5999999046,584564.2999999523,581945.57,581958.399999857,581979.197,584569.641,8,400,,,
trial,html.Screen,4_93_0,2023-09-12T21:52:42.207Z,,0,2,,2908.4589999046875,response,ISIC_9390107.JPG,5,ISIC_0009713.JPG,ISIC_0009713.JPG,false,0,keypress(z),500,587478.399999857,587478.0999999046,584553.128,584564.7999999523,584569.641,587502.341,8,400,44,,ISIC_9390107.JPG
break,html.Screen,4_93_1,2023-09-12T21:52:42.208Z,,0,,,NaN,,,,,,false,,,,587479.2999999523,587478.899999857,,587478.5999999046,,587502.341,8,400,,,
break_continue,html.Screen,4_93_2,2023-09-12T21:52:42.209Z,,0,,,NaN,,,,,,false,,,,587479.7999999523,587479.6999998093,,587479.5999999046,,587502.341,8,400,,,
sequence,flow.Sequence,4_93,2023-09-12T21:52:42.209Z,,0,,,2910.05899980932,completion,,,,,false,,,,587480,587479.6999998093,584553.128,584564.6999998093,584569.641,587502.341,8,400,,,
trial,html.Screen,4_94_0,2023-09-12T21:52:45.113Z,,0,2,,2881.4589999523014,response,ISIC_2050638.JPG,9,ISIC_0645116.JPG,ISIC_0645116.JPG,false,0,keypress(z),500,590384.0999999046,590383.7999999523,587477.982,587480.0999999046,587502.341,590402.218,8,400,45,,ISIC_2050638.JPG
break,html.Screen,4_94_1,2023-09-12T21:52:45.114Z,,0,,,NaN,,,,,,false,,,,590385.0999999046,590384.6999998093,,590384.2999999523,,590402.218,8,400,,,
break_continue,html.Screen,4_94_2,2023-09-12T21:52:45.114Z,,0,,,NaN,,,,,,false,,,,590385.5999999046,590385.5,,590385.1999998093,,590402.218,8,400,,,
sequence,flow.Sequence,4_94,2023-09-12T21:52:45.115Z,,0,,,2883.158999999985,completion,,,,,false,,,,590385.7999999523,590385.5,587477.982,587480,587502.341,590402.218,8,400,,,
trial,html.Screen,4_95_0,2023-09-12T21:52:47.939Z,,0,2,,2807.9819998092717,response,ISIC_5932383.JPG,10,ISIC_3190566.JPG,ISIC_3190566.JPG,false,0,keypress(z),500,593210.399999857,593210.1999998093,590368.932,590385.899999857,590402.218,593226.04,8,400,46,,ISIC_5932383.JPG
break,html.Screen,4_95_1,2023-09-12T21:52:47.940Z,,0,,,NaN,,,,,,false,,,,593211.399999857,593210.899999857,,593210.5999999046,,593226.04,8,400,,,
break_continue,html.Screen,4_95_2,2023-09-12T21:52:47.941Z,,0,,,NaN,,,,,,false,,,,593211.899999857,593211.6999998093,,593211.5999999046,,593226.04,8,400,,,
sequence,flow.Sequence,4_95,2023-09-12T21:52:47.941Z,,0,,,2809.4819998092717,completion,,,,,false,,,,593212,593211.6999998093,590368.932,590385.7999999523,590402.218,593226.04,8,400,,,
trial,html.Screen,4_96_0,2023-09-12T21:52:50.891Z,,0,2,,2935.3599998569116,response,ISIC_0030969.JPG,6,ISIC_1988080.JPG,ISIC_1988080.JPG,false,0,keypress(z),500,596161.5999999046,596161.399999857,593209.621,593212.0999999046,593226.04,596184.041,8,400,47,,ISIC_0030969.JPG
break,html.Screen,4_96_1,2023-09-12T21:52:50.892Z,,0,,,NaN,,,,,,false,,,,596162.6999998093,596162.2999999523,,596161.899999857,,596184.041,8,400,,,
break_continue,html.Screen,4_96_2,2023-09-12T21:52:50.892Z,,0,,,NaN,,,,,,false,,,,596163.0999999046,596163,,596162.899999857,,596184.041,8,400,,,
sequence,flow.Sequence,4_96,2023-09-12T21:52:50.892Z,,0,,,2936.9599999999627,completion,,,,,false,,,,596163.2999999523,596163,593209.621,593212.0999999046,593226.04,596184.041,8,400,,,
trial,html.Screen,4_97_0,2023-09-12T21:52:53.683Z,,0,2,,2770.258999952348,response,ISIC_0030663.JPG,6,ISIC_0033605.JPG,ISIC_0030663.JPG,false,1,keypress(m),500,598954.5999999046,598954.2999999523,596150.335,596163.399999857,596184.041,598966.877,8,400,48,,ISIC_0033605.JPG
break,html.Screen,4_97_1,2023-09-12T21:52:53.684Z,,0,,,NaN,,,,,,false,,,,598955.5,598955.0999999046,,598954.6999998093,,598966.877,8,400,,,
break_continue,html.Screen,4_97_2,2023-09-12T21:52:53.685Z,,0,,,NaN,,,,,,false,,,,598955.899999857,598955.7999999523,,598955.6999998093,,598966.877,8,400,,,
sequence,flow.Sequence,4_97,2023-09-12T21:52:53.685Z,,0,,,2771.758999952348,completion,,,,,false,,,,598956.0999999046,598955.7999999523,596150.335,596163.399999857,596184.041,598966.877,8,400,,,
trial,html.Screen,4_98_0,2023-09-12T21:52:56.366Z,,0,2,,2670.222999904654,response,ISIC_0067170.JPG,9,ISIC_0025800.JPG,ISIC_0067170.JPG,false,1,keypress(m),500,601637.399999857,601637.0999999046,598949.698,598956.1999998093,598966.877,601640.618,8,400,49,,ISIC_0025800.JPG
break,html.Screen,4_98_1,2023-09-12T21:52:56.367Z,,0,,,NaN,,,,,,false,,,,601638.399999857,601638.0999999046,,601637.6999998093,,601640.618,8,400,,,
break_continue,html.Screen,4_98_2,2023-09-12T21:52:56.368Z,,0,,,NaN,,,,,,false,,,,601639,601638.899999857,,601638.6999998093,,601640.618,8,400,,,
sequence,flow.Sequence,4_98,2023-09-12T21:52:56.368Z,,0,,,2672.0229998569703,completion,,,,,false,,,,601639.1999998093,601638.899999857,598949.698,598956.0999999046,598966.877,601640.618,8,400,,,
trial,html.Screen,4_99_0,2023-09-12T21:52:59.090Z,,0,2,,2720.781999856932,response,ISIC_4597707.JPG,5,ISIC_0033104.JPG,ISIC_4597707.JPG,false,1,keypress(m),500,604361.5999999046,604361.399999857,601624.603,601639.2999999523,601640.618,604373.945,8,400,50,,ISIC_0033104.JPG
break,html.Screen,4_99_1,2023-09-12T21:53:09.084Z,,0,,,9997.978000000003,timeout,,,,,false,,,,614356,614355.046,604357.297,604361.7999999523,604373.945,614371.923,8,400,,,
break_continue,html.Screen,4_99_2,2023-09-12T21:53:15.195Z,,0,,,6075.976999856997,response,,,,,false,continue,keypress(Space),,620466.899999857,620447.899999857,614355.046,614356.1999998093,614371.923,620487.021,8,400,,,
sequence,flow.Sequence,4_99,2023-09-12T21:53:15.195Z,,0,,,18807.281999856932,completion,,,,,false,,,,620467.1999998093,620447.899999857,601624.603,601639.1999998093,601640.618,620487.021,8,400,,,
trial,html.Screen,4_100_0,2023-09-12T21:53:17.462Z,,0,3,,2246.2789999523666,response,ISIC_0031202.JPG,8,ISIC_0011693.JPG,ISIC_0031202.JPG,false,1,keypress(m),500,622733.399999857,622733.2999999523,620453.573,620467.2999999523,620487.021,622744.148,8,400,1,,ISIC_0011693.JPG
break,html.Screen,4_100_1,2023-09-12T21:53:17.462Z,,0,,,NaN,,,,,,false,,,,622734,622733.6999998093,,622733.5,,622744.148,8,400,,,
break_continue,html.Screen,4_100_2,2023-09-12T21:53:17.462Z,,0,,,NaN,,,,,,false,,,,622734.2999999523,622734.0999999046,,622734.0999999046,,622744.148,8,400,,,
sequence,flow.Sequence,4_100,2023-09-12T21:53:17.463Z,,0,,,2247.078999904683,completion,,,,,false,,,,622734.2999999523,622734.0999999046,620453.573,620467.1999998093,620487.021,622744.148,8,400,,,
trial,html.Screen,4_101_0,2023-09-12T21:53:20.219Z,,0,3,,2746.951999904588,response,ISIC_0013243.JPG,11,ISIC_0001121.JPG,ISIC_0013243.JPG,false,1,keypress(m),500,625491.2999999523,625491.0999999046,622727.562,622734.399999857,622744.148,625501.86,8,400,2,,ISIC_0001121.JPG
break,html.Screen,4_101_1,2023-09-12T21:53:20.220Z,,0,,,NaN,,,,,,false,,,,625491.899999857,625491.6999998093,,625491.399999857,,625501.86,8,400,,,
break_continue,html.Screen,4_101_2,2023-09-12T21:53:20.221Z,,0,,,NaN,,,,,,false,,,,625492.399999857,625492.2999999523,,625492.0999999046,,625501.86,8,400,,,
sequence,flow.Sequence,4_101,2023-09-12T21:53:20.221Z,,0,,,2748.1519999522716,completion,,,,,false,,,,625492.5,625492.2999999523,622727.562,622734.399999857,622744.148,625501.86,8,400,,,
trial,html.Screen,4_102_0,2023-09-12T21:53:23.535Z,,0,3,,3304.9399999523303,response,ISIC_0034104.JPG,5,ISIC_2159510.JPG,ISIC_0034104.JPG,false,1,keypress(m),500,628807,628806.7999999523,625476.87,625492.5,625501.86,628817.812,8,400,3,,ISIC_2159510.JPG
break,html.Screen,4_102_1,2023-09-12T21:53:23.536Z,,0,,,NaN,,,,,,false,,,,628807.6999998093,628807.5,,628807.1999998093,,628817.812,8,400,,,
break_continue,html.Screen,4_102_2,2023-09-12T21:53:23.536Z,,0,,,NaN,,,,,,false,,,,628808.1999998093,628808.0999999046,,628807.899999857,,628817.812,8,400,,,
sequence,flow.Sequence,4_102,2023-09-12T21:53:23.537Z,,0,,,3306.2399999046465,completion,,,,,false,,,,628808.2999999523,628808.0999999046,625476.87,625492.5,625501.86,628817.812,8,400,,,
trial,html.Screen,4_103_0,2023-09-12T21:53:26.645Z,,0,3,,3098.487999952282,response,ISIC_0071300.JPG,6,ISIC_1253960.JPG,ISIC_0071300.JPG,false,1,keypress(m),500,631916.6999998093,631916.2999999523,628801.11,628808.5,628817.812,631925.552,8,400,4,,ISIC_1253960.JPG
break,html.Screen,4_103_1,2023-09-12T21:53:26.646Z,,0,,,NaN,,,,,,false,,,,631917.7999999523,631917.2999999523,,631916.899999857,,631925.552,8,400,,,
break_continue,html.Screen,4_103_2,2023-09-12T21:53:26.646Z,,0,,,NaN,,,,,,false,,,,631918.1999998093,631918.0999999046,,631918,,631925.552,8,400,,,
sequence,flow.Sequence,4_103,2023-09-12T21:53:26.647Z,,0,,,3100.287999904598,completion,,,,,false,,,,631918.399999857,631918.0999999046,628801.11,628808.2999999523,628817.812,631925.552,8,400,,,
trial,html.Screen,4_104_0,2023-09-12T21:53:29.805Z,,0,3,,3150.447999999975,response,ISIC_9403390.JPG,7,ISIC_0016161.JPG,ISIC_9403390.JPG,false,1,keypress(m),500,635076.399999857,635076,631909.313,631918.5,631925.552,635091.806,8,400,5,,ISIC_0016161.JPG
break,html.Screen,4_104_1,2023-09-12T21:53:29.806Z,,0,,,NaN,,,,,,false,,,,635077.399999857,635077,,635076.5999999046,,635091.806,8,400,,,
break_continue,html.Screen,4_104_2,2023-09-12T21:53:29.806Z,,0,,,NaN,,,,,,false,,,,635077.7999999523,635077.6999998093,,635077.5,,635091.806,8,400,,,
sequence,flow.Sequence,4_104,2023-09-12T21:53:29.806Z,,0,,,3152.14799980924,completion,,,,,false,,,,635078,635077.6999998093,631909.313,631918.399999857,631925.552,635091.806,8,400,,,
trial,html.Screen,4_105_0,2023-09-12T21:53:32.791Z,,0,3,,2970.893999809283,response,ISIC_0799535.JPG,5,ISIC_0064270.JPG,ISIC_0064270.JPG,false,0,keypress(z),500,638063.1999998093,638062.6999998093,635075.262,635078.0999999046,635091.806,638082.746,8,400,6,,ISIC_0799535.JPG
break,html.Screen,4_105_1,2023-09-12T21:53:32.792Z,,0,,,NaN,,,,,,false,,,,638064.2999999523,638063.899999857,,638063.5,,638082.746,8,400,,,
break_continue,html.Screen,4_105_2,2023-09-12T21:53:32.793Z,,0,,,NaN,,,,,,false,,,,638064.6999998093,638064.5999999046,,638064.399999857,,638082.746,8,400,,,
sequence,flow.Sequence,4_105,2023-09-12T21:53:32.793Z,,0,,,2972.7939999046503,completion,,,,,false,,,,638064.899999857,638064.5999999046,635075.262,635078,635091.806,638082.746,8,400,,,
trial,html.Screen,4_106_0,2023-09-12T21:53:36.477Z,,0,3,,3666.253999999957,response,ISIC_5484776.JPG,7,ISIC_6298228.JPG,ISIC_6298228.JPG,false,0,keypress(z),500,641749.1999998093,641749,638049.536,638065,638082.746,641773.077,8,400,7,,ISIC_5484776.JPG
break,html.Screen,4_106_1,2023-09-12T21:53:36.478Z,,0,,,NaN,,,,,,false,,,,641750,641749.6999998093,,641749.399999857,,641773.077,8,400,,,
break_continue,html.Screen,4_106_2,2023-09-12T21:53:36.479Z,,0,,,NaN,,,,,,false,,,,641750.399999857,641750.2999999523,,641750.1999998093,,641773.077,8,400,,,
sequence,flow.Sequence,4_106,2023-09-12T21:53:36.479Z,,0,,,3667.5539999522734,completion,,,,,false,,,,641750.399999857,641750.2999999523,638049.536,638065,638082.746,641773.077,8,400,,,
trial,html.Screen,4_107_0,2023-09-12T21:53:39.499Z,,0,3,,2997.6229998092167,response,ISIC_0015412.JPG,13,ISIC_2490481.JPG,ISIC_2490481.JPG,false,0,keypress(z),500,644770.899999857,644770.6999998093,641748.028,641750.5,641773.077,644797.318,8,400,8,,ISIC_0015412.JPG
break,html.Screen,4_107_1,2023-09-12T21:53:39.500Z,,0,,,NaN,,,,,,false,,,,644771.899999857,644771.5999999046,,644771.0999999046,,644797.318,8,400,,,
break_continue,html.Screen,4_107_2,2023-09-12T21:53:39.501Z,,0,,,NaN,,,,,,false,,,,644772.5,644772.399999857,,644772.1999998093,,644797.318,8,400,,,
sequence,flow.Sequence,4_107,2023-09-12T21:53:39.501Z,,0,,,2999.3229998569004,completion,,,,,false,,,,644772.7999999523,644772.399999857,641748.028,641750.5,641773.077,644797.318,8,400,,,
trial,html.Screen,4_108_0,2023-09-12T21:53:42.293Z,,0,3,,2766.7819999046624,response,ISIC_0031589.JPG,11,ISIC_4055361.JPG,ISIC_4055361.JPG,false,0,keypress(z),500,647564.399999857,647564.0999999046,644755.616,644773,644797.318,647579.969,8,400,9,,ISIC_0031589.JPG
break,html.Screen,4_108_1,2023-09-12T21:53:42.293Z,,0,,,NaN,,,,,,false,,,,647565.0999999046,647564.7999999523,,647564.5999999046,,647579.969,8,400,,,
break_continue,html.Screen,4_108_2,2023-09-12T21:53:42.294Z,,0,,,NaN,,,,,,false,,,,647565.5,647565.2999999523,,647565.1999998093,,647579.969,8,400,,,
sequence,flow.Sequence,4_108,2023-09-12T21:53:42.294Z,,0,,,2767.981999952346,completion,,,,,false,,,,647565.5999999046,647565.2999999523,644755.616,644772.899999857,644797.318,647579.969,8,400,,,
trial,html.Screen,4_109_0,2023-09-12T21:53:46.168Z,,0,3,,3859.6309999045916,response,ISIC_6552552.JPG,12,ISIC_7226381.JPG,ISIC_7226381.JPG,false,0,keypress(z),500,651439.7999999523,651439.5999999046,647563.312,647565.5999999046,647579.969,651454.063,8,400,10,,ISIC_6552552.JPG
break,html.Screen,4_109_1,2023-09-12T21:53:46.169Z,,0,,,NaN,,,,,,false,,,,651440.2999999523,651440.1999998093,,651439.899999857,,651454.063,8,400,,,
break_continue,html.Screen,4_109_2,2023-09-12T21:53:46.169Z,,0,,,NaN,,,,,,false,,,,651440.6999998093,651440.5,,651440.5,,651454.063,8,400,,,
sequence,flow.Sequence,4_109,2023-09-12T21:53:46.169Z,,0,,,3860.530999999959,completion,,,,,false,,,,651440.7999999523,651440.5,647563.312,647565.5999999046,647579.969,651454.063,8,400,,,
trial,html.Screen,4_110_0,2023-09-12T21:53:48.318Z,,0,3,,2135.9370000000345,response,ISIC_1885174.JPG,10,ISIC_0024423.JPG,ISIC_1885174.JPG,false,1,keypress(m),500,653590.1999998093,653590,651437.459,651440.899999857,651454.063,653611.876,8,400,11,,ISIC_0024423.JPG
break,html.Screen,4_110_1,2023-09-12T21:53:48.319Z,,0,,,NaN,,,,,,false,,,,653590.6999998093,653590.399999857,,653590.2999999523,,653611.876,8,400,,,
break_continue,html.Screen,4_110_2,2023-09-12T21:53:48.319Z,,0,,,NaN,,,,,,false,,,,653591.1999998093,653591.0999999046,,653590.899999857,,653611.876,8,400,,,
sequence,flow.Sequence,4_110,2023-09-12T21:53:48.319Z,,0,,,2137.036999904667,completion,,,,,false,,,,653591.1999998093,653591.0999999046,651437.459,651440.7999999523,651454.063,653611.876,8,400,,,
trial,html.Screen,4_111_0,2023-09-12T21:53:54.905Z,,0,3,,6564.523999856901,response,ISIC_0029374.JPG,10,ISIC_0057484.JPG,ISIC_0029374.JPG,false,1,keypress(m),500,660176.6999998093,660176.399999857,653587.087,653591.2999999523,653611.876,660193.642,8,400,12,,ISIC_0057484.JPG
break,html.Screen,4_111_1,2023-09-12T21:53:54.905Z,,0,,,NaN,,,,,,false,,,,660177.1999998093,660177,,660176.7999999523,,660193.642,8,400,,,
break_continue,html.Screen,4_111_2,2023-09-12T21:53:54.906Z,,0,,,NaN,,,,,,false,,,,660177.6999998093,660177.5,,660177.399999857,,660193.642,8,400,,,
sequence,flow.Sequence,4_111,2023-09-12T21:53:54.906Z,,0,,,6565.6239999999525,completion,,,,,false,,,,660177.7999999523,660177.5,653587.087,653591.2999999523,653611.876,660193.642,8,400,,,
trial,html.Screen,4_112_0,2023-09-12T21:53:58.322Z,,0,3,,3400.2579998569563,response,ISIC_1585511.JPG,10,ISIC_0072021.JPG,ISIC_1585511.JPG,false,1,keypress(m),500,663594.1999998093,663593.899999857,660176.971,660177.7999999523,660193.642,663609.941,8,400,13,,ISIC_0072021.JPG
break,html.Screen,4_112_1,2023-09-12T21:53:58.323Z,,0,,,NaN,,,,,,false,,,,663594.899999857,663594.6999998093,,663594.399999857,,663609.941,8,400,,,
break_continue,html.Screen,4_112_2,2023-09-12T21:53:58.323Z,,0,,,NaN,,,,,,false,,,,663595.2999999523,663595.0999999046,,663595,,663609.941,8,400,,,
sequence,flow.Sequence,4_112,2023-09-12T21:53:58.324Z,,0,,,3401.45799990464,completion,,,,,false,,,,663595.399999857,663595.0999999046,660176.971,660177.7999999523,660193.642,663609.941,8,400,,,
trial,html.Screen,4_113_0,2023-09-12T21:54:02.651Z,,0,3,,4312.458999856957,response,ISIC_0011948.JPG,10,ISIC_0072292.JPG,ISIC_0011948.JPG,false,1,keypress(m),500,667922.7999999523,667922.399999857,663593.489,663595.5,663609.941,667925.146,8,400,14,,ISIC_0072292.JPG
break,html.Screen,4_113_1,2023-09-12T21:54:02.652Z,,0,,,NaN,,,,,,false,,,,667923.7999999523,667923.5,,667923,,667925.146,8,400,,,
break_continue,html.Screen,4_113_2,2023-09-12T21:54:02.653Z,,0,,,NaN,,,,,,false,,,,667924.2999999523,667924.1999998093,,667924.0999999046,,667925.146,8,400,,,
sequence,flow.Sequence,4_113,2023-09-12T21:54:02.653Z,,0,,,4314.2589998092735,completion,,,,,false,,,,667924.5,667924.1999998093,663593.489,663595.5,663609.941,667925.146,8,400,,,
trial,html.Screen,4_114_0,2023-09-12T21:54:05.952Z,,0,3,,3298.753999856999,response,ISIC_0005319.JPG,11,ISIC_0046331.JPG,ISIC_0005319.JPG,false,1,keypress(m),500,671224.1999998093,671223.899999857,667909.133,667924.6999998093,667925.146,671241.673,8,400,15,,ISIC_0046331.JPG
break,html.Screen,4_114_1,2023-09-12T21:54:05.954Z,,0,,,NaN,,,,,,false,,,,671225.2999999523,671224.7999999523,,671224.399999857,,671241.673,8,400,,,
break_continue,html.Screen,4_114_2,2023-09-12T21:54:05.954Z,,0,,,NaN,,,,,,false,,,,671225.7999999523,671225.6999998093,,671225.5,,671241.673,8,400,,,
sequence,flow.Sequence,4_114,2023-09-12T21:54:05.954Z,,0,,,3300.5539998093154,completion,,,,,false,,,,671226,671225.6999998093,667909.133,667924.6999998093,667925.146,671241.673,8,400,,,
trial,html.Screen,4_115_0,2023-09-12T21:54:08.727Z,,0,3,,2757.1269999523647,response,ISIC_0072876.JPG,10,ISIC_3028754.JPG,ISIC_0072876.JPG,false,1,keypress(m),500,673999,673998.7999999523,671225.034,671226.1999998093,671241.673,674015.393,8,400,16,,ISIC_3028754.JPG
break,html.Screen,4_115_1,2023-09-12T21:54:08.728Z,,0,,,NaN,,,,,,false,,,,673999.5,673999.2999999523,,673999,,674015.393,8,400,,,
break_continue,html.Screen,4_115_2,2023-09-12T21:54:08.728Z,,0,,,NaN,,,,,,false,,,,673999.7999999523,673999.7999999523,,673999.5999999046,,674015.393,8,400,,,
sequence,flow.Sequence,4_115,2023-09-12T21:54:08.728Z,,0,,,2758.1269999523647,completion,,,,,false,,,,674000,673999.7999999523,671225.034,671226.0999999046,671241.673,674015.393,8,400,,,
trial,html.Screen,4_116_0,2023-09-12T21:54:12.094Z,,0,3,,3349.806999809225,response,ISIC_0029092.JPG,6,ISIC_0059314.JPG,ISIC_0029092.JPG,false,1,keypress(m),500,677365.399999857,677365.1999998093,673990.408,674000.0999999046,674015.393,677381.26,8,400,17,,ISIC_0059314.JPG
break,html.Screen,4_116_1,2023-09-12T21:54:12.095Z,,0,,,NaN,,,,,,false,,,,677365.899999857,677365.6999998093,,677365.5,,677381.26,8,400,,,
break_continue,html.Screen,4_116_2,2023-09-12T21:54:12.095Z,,0,,,NaN,,,,,,false,,,,677366.2999999523,677366.1999998093,,677366.0999999046,,677381.26,8,400,,,
sequence,flow.Sequence,4_116,2023-09-12T21:54:12.095Z,,0,,,3350.806999809225,completion,,,,,false,,,,677366.5,677366.1999998093,673990.408,674000.0999999046,674015.393,677381.26,8,400,,,
trial,html.Screen,4_117_0,2023-09-12T21:54:15.532Z,,0,3,,3421.7399999999907,response,ISIC_0026484.JPG,10,ISIC_0004848.JPG,ISIC_0026484.JPG,false,1,keypress(m),500,680803.2999999523,680803,677364.951,677366.5,677381.26,680813.871,8,400,18,,ISIC_0004848.JPG
break,html.Screen,4_117_1,2023-09-12T21:54:15.533Z,,0,,,NaN,,,,,,false,,,,680803.899999857,680803.6999998093,,680803.399999857,,680813.871,8,400,,,
break_continue,html.Screen,4_117_2,2023-09-12T21:54:15.533Z,,0,,,NaN,,,,,,false,,,,680804.2999999523,680804.0999999046,,680804,,680813.871,8,400,,,
sequence,flow.Sequence,4_117,2023-09-12T21:54:15.533Z,,0,,,3422.8399999046233,completion,,,,,false,,,,680804.2999999523,680804.0999999046,677364.951,677366.5,677381.26,680813.871,8,400,,,
trial,html.Screen,4_118_0,2023-09-12T21:54:18.065Z,,0,3,,2521.628999999957,response,ISIC_0001831.JPG,8,ISIC_0057164.JPG,ISIC_0001831.JPG,false,1,keypress(m),500,683335.6999998093,683335.5,680797.187,680804.399999857,680813.871,683355.241,8,400,19,,ISIC_0057164.JPG
break,html.Screen,4_118_1,2023-09-12T21:54:18.066Z,,0,,,NaN,,,,,,false,,,,683336.7999999523,683336.2999999523,,683336,,683355.241,8,400,,,
break_continue,html.Screen,4_118_2,2023-09-12T21:54:18.066Z,,0,,,NaN,,,,,,false,,,,683337.1999998093,683337.0999999046,,683336.899999857,,683355.241,8,400,,,
sequence,flow.Sequence,4_118,2023-09-12T21:54:18.066Z,,0,,,2523.2289999045897,completion,,,,,false,,,,683337.399999857,683337.0999999046,680797.187,680804.399999857,680813.871,683355.241,8,400,,,
trial,html.Screen,4_119_0,2023-09-12T21:54:21.415Z,,0,3,,3330.3589999045944,response,ISIC_0060621.JPG,10,ISIC_0034173.JPG,ISIC_0060621.JPG,false,1,keypress(m),500,686685.899999857,686685.5999999046,683321.673,683337.5,683355.241,686695.972,8,400,20,,ISIC_0034173.JPG
break,html.Screen,4_119_1,2023-09-12T21:54:21.416Z,,0,,,NaN,,,,,,false,,,,686686.899999857,686686.5,,686686.0999999046,,686695.972,8,400,,,
break_continue,html.Screen,4_119_2,2023-09-12T21:54:21.416Z,,0,,,NaN,,,,,,false,,,,686687.399999857,686687.1999998093,,686687.0999999046,,686695.972,8,400,,,
sequence,flow.Sequence,4_119,2023-09-12T21:54:21.416Z,,0,,,3331.958999809227,completion,,,,,false,,,,686687.5,686687.1999998093,683321.673,683337.399999857,683355.241,686695.972,8,400,,,
trial,html.Screen,4_120_0,2023-09-12T21:54:24.082Z,,0,3,,2656.3279999523656,response,ISIC_4936610.JPG,6,ISIC_0013580.JPG,ISIC_0013580.JPG,false,0,keypress(z),500,689352.5999999046,689352.2999999523,686679.701,686687.5999999046,686695.972,689378.481,8,400,21,,ISIC_4936610.JPG
break,html.Screen,4_120_1,2023-09-12T21:54:24.083Z,,0,,,NaN,,,,,,false,,,,689353.5999999046,689353.1999998093,,689352.7999999523,,689378.481,8,400,,,
break_continue,html.Screen,4_120_2,2023-09-12T21:54:24.083Z,,0,,,NaN,,,,,,false,,,,689354.0999999046,689353.899999857,,689353.7999999523,,689378.481,8,400,,,
sequence,flow.Sequence,4_120,2023-09-12T21:54:24.083Z,,0,,,2657.927999856998,completion,,,,,false,,,,689354.2999999523,689353.899999857,686679.701,686687.5999999046,686695.972,689378.481,8,400,,,
trial,html.Screen,4_121_0,2023-09-12T21:54:26.620Z,,0,3,,2511.8189999522874,response,ISIC_2639144.JPG,7,ISIC_7215208.JPG,ISIC_7215208.JPG,false,0,keypress(z),500,691890.5999999046,691890.2999999523,689337.227,689354.5,689378.481,691894.501,8,400,22,,ISIC_2639144.JPG
break,html.Screen,4_121_1,2023-09-12T21:54:26.621Z,,0,,,NaN,,,,,,false,,,,691891.6999998093,691891.1999998093,,691890.7999999523,,691894.501,8,400,,,
break_continue,html.Screen,4_121_2,2023-09-12T21:54:26.621Z,,0,,,NaN,,,,,,false,,,,691892.0999999046,691892,,691891.899999857,,691894.501,8,400,,,
sequence,flow.Sequence,4_121,2023-09-12T21:54:26.621Z,,0,,,2513.518999999971,completion,,,,,false,,,,691892.2999999523,691892,689337.227,689354.399999857,689378.481,691894.501,8,400,,,
trial,html.Screen,4_122_0,2023-09-12T21:54:29.111Z,,0,3,,2487.6989998092176,response,ISIC_0009908.JPG,8,ISIC_0057362.JPG,ISIC_0057362.JPG,false,0,keypress(z),500,694382.2999999523,694382.1999998093,691886.851,691892.399999857,691894.501,694385.557,8,400,23,,ISIC_0009908.JPG
break,html.Screen,4_122_1,2023-09-12T21:54:29.112Z,,0,,,NaN,,,,,,false,,,,694382.7999999523,694382.6999998093,,694382.5,,694385.557,8,400,,,
break_continue,html.Screen,4_122_2,2023-09-12T21:54:29.112Z,,0,,,NaN,,,,,,false,,,,694383.0999999046,694383.0999999046,,694382.899999857,,694385.557,8,400,,,
sequence,flow.Sequence,4_122,2023-09-12T21:54:29.112Z,,0,,,2488.598999904585,completion,,,,,false,,,,694383.2999999523,694383.0999999046,691886.851,691892.399999857,691894.501,694385.557,8,400,,,
trial,html.Screen,4_123_0,2023-09-12T21:54:31.659Z,,0,3,,2544.2429999522865,response,ISIC_0758797.JPG,14,ISIC_0908367.JPG,ISIC_0908367.JPG,false,0,keypress(z),500,696930.0999999046,696929.7999999523,694368.985,694383.2999999523,694385.557,696943.714,8,400,24,,ISIC_0758797.JPG
break,html.Screen,4_123_1,2023-09-12T21:54:31.660Z,,0,,,NaN,,,,,,false,,,,696931,696930.6999998093,,696930.2999999523,,696943.714,8,400,,,
break_continue,html.Screen,4_123_2,2023-09-12T21:54:31.660Z,,0,,,NaN,,,,,,false,,,,696931.5,696931.5,,696931.2999999523,,696943.714,8,400,,,
sequence,flow.Sequence,4_123,2023-09-12T21:54:31.661Z,,0,,,2545.94299999997,completion,,,,,false,,,,696931.6999998093,696931.5,694368.985,694383.2999999523,694385.557,696943.714,8,400,,,
trial,html.Screen,4_124_0,2023-09-12T21:54:34.336Z,,0,3,,2663.08599995228,response,ISIC_0064279.JPG,8,ISIC_7798403.JPG,ISIC_7798403.JPG,false,0,keypress(z),500,699607.0999999046,699606.7999999523,696927.277,696931.7999999523,696943.714,699626.667,8,400,25,,ISIC_0064279.JPG
break,html.Screen,4_124_1,2023-09-12T21:54:34.337Z,,0,,,NaN,,,,,,false,,,,699608.0999999046,699607.6999998093,,699607.2999999523,,699626.667,8,400,,,
break_continue,html.Screen,4_124_2,2023-09-12T21:54:34.338Z,,0,,,NaN,,,,,,false,,,,699608.6999998093,699608.5,,699608.2999999523,,699626.667,8,400,,,
sequence,flow.Sequence,4_124,2023-09-12T21:54:34.338Z,,0,,,2664.7859999999637,completion,,,,,false,,,,699608.7999999523,699608.5,696927.277,696931.7999999523,696943.714,699626.667,8,400,,,
trial,html.Screen,4_125_0,2023-09-12T21:54:37.743Z,,0,3,,3386.732999856933,response,ISIC_3779424.JPG,8,ISIC_1476361.JPG,ISIC_1476361.JPG,false,0,keypress(z),500,703013.6999998093,703013.399999857,699593.103,699608.899999857,699626.667,703025.829,8,400,26,,ISIC_3779424.JPG
break,html.Screen,4_125_1,2023-09-12T21:54:37.744Z,,0,,,NaN,,,,,,false,,,,703014.6999998093,703014.2999999523,,703014,,703025.829,8,400,,,
break_continue,html.Screen,4_125_2,2023-09-12T21:54:37.744Z,,0,,,NaN,,,,,,false,,,,703015.0999999046,703015,,703014.899999857,,703025.829,8,400,,,
sequence,flow.Sequence,4_125,2023-09-12T21:54:37.744Z,,0,,,3388.332999999984,completion,,,,,false,,,,703015.2999999523,703015,699593.103,699608.7999999523,699626.667,703025.829,8,400,,,
