sender,sender_type,sender_id,timestamp,meta,,blockNo,condition,duration,ended_on,img_left,img_reveal,img_right,loser,practice,response,response_action,selection_duration,time_commit,time_end,time_render,time_run,time_show,time_switch,total_blocks,total_trials,trialNo,url,winner
informed_consent,html.Screen,0,2023-09-06T19:24:52.351Z,"{""labjs_version"":""20.2.4"",""labjs_build"":{""flavor"":""production"",""commit"":""f5b4a49f956347addd546a832a3327688c2c0fef""},""location"":""https://run.pavlovia.org/MurrayBennett/melanoma-2afc/?participant=58ed7f5aac62dc00019366a9&STUDY_ID=64f8c92207ba404bcb356c90&SESSION_ID=64f8cff5ec3a31af31ddae8b&platform=prolific"",""userAgent"":""Mozilla/5.0 (Windows NT 10.0; Win64; x64) AppleWebKit/537.36 (KHTML, like Gecko) Chrome/116.0.0.0 Safari/537.36"",""platform"":""Win32"",""language"":""en-US"",""locale"":""en-US"",""timeZone"":""America/Indianapolis"",""timezoneOffset"":240,""screen_width"":1366,""screen_height"":768,""scroll_width"":1366,""scroll_height"":563,""window_innerWidth"":1366,""window_innerHeight"":611,""devicePixelRatio"":1}",,,,120364.681,response,,,,,,consent,click button,,124507.10000002384,124502.5,4104.494,4118,4137.819,124531.729,,,,"{""participant"":""58ed7f5aac62dc00019366a9"",""STUDY_ID"":""64f8c92207ba404bcb356c90"",""SESSION_ID"":""64f8cff5ec3a31af31ddae8b"",""platform"":""prolific""}",
Welcome,html.Screen,1,2023-09-06T19:31:28.574Z,,,,asymmetry,396196.87100002385,response,,,,,,continue,click button,,520730,520728.60000002384,124499.122,124507.39999997616,124531.729,520744.885,,,,,
trial,html.Screen,2_0_0,2023-09-06T19:31:32.564Z,,0,0,,3974.014999976149,response,ISIC_6997061.JPG,,ISIC_0069348.JPG,ISIC_6997061.JPG,true,1,keypress(m),500,524719.3000000715,524718.8999999762,520728.293,520730.3000000715,520744.885,524727.892,1,6,1,,ISIC_0069348.JPG
sequence,flow.Sequence,2_0,2023-09-06T19:31:32.564Z,,0,,,3974.014999976149,completion,,,,,true,,,,524719.7000000477,524718.8999999762,520728.293,520730.2000000477,520744.885,524727.892,1,6,,,
trial,html.Screen,2_1_0,2023-09-06T19:31:36.713Z,,0,0,,4141.007999976166,response,ISIC_0057368.JPG,,ISIC_0009529.JPG,ISIC_0057368.JPG,true,1,keypress(m),500,528869.2000000477,528868.8999999762,524711.309,524719.8000000715,524727.892,528877.706,1,6,2,,ISIC_0009529.JPG
sequence,flow.Sequence,2_1,2023-09-06T19:31:36.714Z,,0,,,4141.007999976166,completion,,,,,true,,,,528869.3999999762,528868.8999999762,524711.309,524719.7000000477,524727.892,528877.706,1,6,,,
trial,html.Screen,2_2_0,2023-09-06T19:31:40.764Z,,0,0,,4042.1939999761526,response,ISIC_0064954.JPG,,ISIC_9758671.JPG,ISIC_9758671.JPG,true,0,keypress(z),500,532920.2000000477,532919.8999999762,528868.454,528869.6000000238,528877.706,532927.503,1,6,3,,ISIC_0064954.JPG
sequence,flow.Sequence,2_2,2023-09-06T19:31:40.765Z,,0,,,4042.1939999761526,completion,,,,,true,,,,532920.5,532919.8999999762,528868.454,528869.5,528877.706,532927.503,1,6,,,
trial,html.Screen,2_3_0,2023-09-06T19:31:44.613Z,,0,0,,3840.496999999974,response,ISIC_0005785.JPG,,ISIC_0000080.JPG,ISIC_0000080.JPG,true,0,keypress(z),500,536768.3999999762,536768,532910.718,532920.7000000477,532927.503,536777.42,1,6,4,,ISIC_0005785.JPG
sequence,flow.Sequence,2_3,2023-09-06T19:31:44.613Z,,0,,,3840.496999999974,completion,,,,,true,,,,536768.7000000477,536768,532910.718,532920.6000000238,532927.503,536777.42,1,6,,,
trial,html.Screen,2_4_0,2023-09-06T19:31:47.613Z,,0,0,,2991.280000047642,response,ISIC_7944028.JPG,,ISIC_5390060.JPG,ISIC_7944028.JPG,true,1,keypress(m),500,539769,539768.7000000477,536760.358,536768.8999999762,536777.42,539777.189,1,6,5,,ISIC_5390060.JPG
sequence,flow.Sequence,2_4,2023-09-06T19:31:47.614Z,,0,,,2991.280000047642,completion,,,,,true,,,,539769.3000000715,539768.7000000477,536760.358,536768.8999999762,536777.42,539777.189,1,6,,,
trial,html.Screen,2_5_0,2023-09-06T19:31:50.864Z,,0,0,,3242.710999976145,response,ISIC_0010188.JPG,,ISIC_0794216.JPG,ISIC_0794216.JPG,true,0,keypress(z),500,543020.2000000477,543019.8999999762,539760.695,539769.6000000238,539777.189,543027.07,1,6,6,,ISIC_0010188.JPG
sequence,flow.Sequence,2_5,2023-09-06T19:31:50.865Z,,0,,,3242.710999976145,completion,,,,,true,,,,543020.5,543019.8999999762,539760.695,539769.5,539777.189,543027.07,1,6,,,
loop,flow.Loop,2,2023-09-06T19:31:50.865Z,,,,,22275.01499997615,completion,,,,,true,,,,543020.7000000477,543019.8999999762,520728.293,520730.2000000477,520744.885,543027.07,1,6,,,
exp_instructions,html.Screen,3,2023-09-06T19:32:08.316Z,,,,,17443.82999997621,response,,,,,,continue,keypress(Space),,560472.1000000238,560470.8999999762,543017.225,543020.8999999762,543027.07,560476.105,,,,,
trial,html.Screen,4_0_0,2023-09-06T19:32:11.681Z,,0,1,,3360.4950000238605,response,ISIC_1202976.JPG,5,ISIC_9175856.JPG,ISIC_1202976.JPG,false,1,keypress(m),500,563837,563836.6000000238,560457.537,560472.3999999762,560476.105,563842.644,8,400,1,,ISIC_9175856.JPG
break,html.Screen,4_0_1,2023-09-06T19:32:11.683Z,,0,,,NaN,,,,,,false,,,,563838.8999999762,563838.3000000715,,563837.2000000477,,563842.644,8,400,,,
break_continue,html.Screen,4_0_2,2023-09-06T19:32:11.684Z,,0,,,NaN,,,,,,false,,,,563839.5,563839.3000000715,,563839.1000000238,,563842.644,8,400,,,
sequence,flow.Sequence,4_0,2023-09-06T19:32:11.684Z,,0,,,3363.195000071544,completion,,,,,false,,,,563839.6000000238,563839.3000000715,560457.537,560472.3000000715,560476.105,563842.644,8,400,,,
trial,html.Screen,4_1_0,2023-09-06T19:32:14.392Z,,0,1,,2704.5560000477126,response,ISIC_0011520.JPG,5,ISIC_8419663.JPG,ISIC_8419663.JPG,false,0,keypress(z),500,566547.3999999762,566547.2000000477,563825.792,563839.8999999762,563842.644,566559.083,8,400,2,,ISIC_0011520.JPG
break,html.Screen,4_1_1,2023-09-06T19:32:14.393Z,,0,,,NaN,,,,,,false,,,,566548.8000000715,566548.3999999762,,566547.6000000238,,566559.083,8,400,,,
break_continue,html.Screen,4_1_2,2023-09-06T19:32:14.393Z,,0,,,NaN,,,,,,false,,,,566549.2000000477,566549.1000000238,,566549,,566559.083,8,400,,,
sequence,flow.Sequence,4_1,2023-09-06T19:32:14.394Z,,0,,,2706.4560000238707,completion,,,,,false,,,,566549.3999999762,566549.1000000238,563825.792,563839.7000000477,563842.644,566559.083,8,400,,,
trial,html.Screen,4_2_0,2023-09-06T19:32:17.372Z,,0,1,,2968.1170000476995,response,ISIC_8951909.JPG,5,ISIC_0990298.JPG,ISIC_8951909.JPG,false,1,keypress(m),500,569527.3999999762,569527.2000000477,566545.544,566549.6000000238,566559.083,569542.374,8,400,3,,ISIC_0990298.JPG
break,html.Screen,4_2_1,2023-09-06T19:32:17.373Z,,0,,,NaN,,,,,,false,,,,569528.7000000477,569528.3999999762,,569527.6000000238,,569542.374,8,400,,,
break_continue,html.Screen,4_2_2,2023-09-06T19:32:17.373Z,,0,,,NaN,,,,,,false,,,,569529.1000000238,569528.8999999762,,569528.8000000715,,569542.374,8,400,,,
sequence,flow.Sequence,4_2,2023-09-06T19:32:17.374Z,,0,,,2969.816999976174,completion,,,,,false,,,,569529.3000000715,569528.8999999762,566545.544,566549.6000000238,566559.083,569542.374,8,400,,,
trial,html.Screen,4_3_0,2023-09-06T19:32:20.241Z,,0,1,,2854.0259999762056,response,ISIC_0033980.JPG,4,ISIC_9469284.JPG,ISIC_9469284.JPG,false,0,keypress(z),500,572396.6000000238,572396.3999999762,569525.673,569529.3999999762,569542.374,572408.837,8,400,4,,ISIC_0033980.JPG
break,html.Screen,4_3_1,2023-09-06T19:32:20.242Z,,0,,,NaN,,,,,,false,,,,572397.6000000238,572397.3999999762,,572396.8000000715,,572408.837,8,400,,,
break_continue,html.Screen,4_3_2,2023-09-06T19:32:20.242Z,,0,,,NaN,,,,,,false,,,,572398,572397.8000000715,,572397.8000000715,,572408.837,8,400,,,
sequence,flow.Sequence,4_3,2023-09-06T19:32:20.242Z,,0,,,2855.426000071573,completion,,,,,false,,,,572398.1000000238,572397.8000000715,569525.673,569529.3999999762,569542.374,572408.837,8,400,,,
trial,html.Screen,4_4_0,2023-09-06T19:32:23.622Z,,0,1,,3368.5629999761004,response,ISIC_1075605.JPG,5,ISIC_3933658.JPG,ISIC_1075605.JPG,false,1,keypress(m),500,575777.8000000715,575777.3999999762,572382.312,572398.3999999762,572408.837,575791.984,8,400,5,,ISIC_3933658.JPG
break,html.Screen,4_4_1,2023-09-06T19:32:23.624Z,,0,,,NaN,,,,,,false,,,,575780,575779.8000000715,,575778,,575791.984,8,400,,,
break_continue,html.Screen,4_4_2,2023-09-06T19:32:23.625Z,,0,,,NaN,,,,,,false,,,,575780.3999999762,575780.3000000715,,575780.1000000238,,575791.984,8,400,,,
sequence,flow.Sequence,4_4,2023-09-06T19:32:23.625Z,,0,,,3371.463000071468,completion,,,,,false,,,,575780.6000000238,575780.3000000715,572382.312,572398.2000000477,572408.837,575791.984,8,400,,,
trial,html.Screen,4_5_0,2023-09-06T19:32:26.492Z,,0,1,,2855.3160000714706,response,ISIC_7340112.JPG,5,ISIC_7798403.JPG,ISIC_7798403.JPG,false,0,keypress(z),500,578647.6000000238,578647.3000000715,575775.285,575780.7000000477,575791.984,578658.465,8,400,6,,ISIC_7340112.JPG
break,html.Screen,4_5_1,2023-09-06T19:32:26.493Z,,0,,,NaN,,,,,,false,,,,578648.8000000715,578648.5,,578647.8000000715,,578658.465,8,400,,,
break_continue,html.Screen,4_5_2,2023-09-06T19:32:26.493Z,,0,,,NaN,,,,,,false,,,,578649.2000000477,578649.1000000238,,578648.8999999762,,578658.465,8,400,,,
sequence,flow.Sequence,4_5,2023-09-06T19:32:26.494Z,,0,,,2857.116000023787,completion,,,,,false,,,,578649.3999999762,578649.1000000238,575775.285,575780.7000000477,575791.984,578658.465,8,400,,,
trial,html.Screen,4_6_0,2023-09-06T19:32:29.189Z,,0,1,,2685.2350000477163,response,ISIC_5961092.JPG,5,ISIC_0013472.JPG,ISIC_0013472.JPG,false,0,keypress(z),500,581344.1000000238,581343.7000000477,578644.989,578649.3999999762,578658.465,581358.368,8,400,7,,ISIC_5961092.JPG
break,html.Screen,4_6_1,2023-09-06T19:32:29.191Z,,0,,,NaN,,,,,,false,,,,581345.6000000238,581345.2000000477,,581344.3000000715,,581358.368,8,400,,,
break_continue,html.Screen,4_6_2,2023-09-06T19:32:29.191Z,,0,,,NaN,,,,,,false,,,,581346.1000000238,581346,,581345.8999999762,,581358.368,8,400,,,
sequence,flow.Sequence,4_6,2023-09-06T19:32:29.191Z,,0,,,2687.5350000000326,completion,,,,,false,,,,581346.3000000715,581346,578644.989,578649.3999999762,578658.465,581358.368,8,400,,,
trial,html.Screen,4_7_0,2023-09-06T19:32:32.314Z,,0,1,,3110.732000023825,response,ISIC_0000031.JPG,5,ISIC_2067576.JPG,ISIC_2067576.JPG,false,0,keypress(z),500,584469.3999999762,584469.1000000238,581341.821,581346.6000000238,581358.368,584474.926,8,400,8,,ISIC_0000031.JPG
break,html.Screen,4_7_1,2023-09-06T19:32:32.316Z,,0,,,NaN,,,,,,false,,,,584470.8000000715,584470.5,,584469.6000000238,,584474.926,8,400,,,
break_continue,html.Screen,4_7_2,2023-09-06T19:32:32.316Z,,0,,,NaN,,,,,,false,,,,584471.2000000477,584471.1000000238,,584471,,584474.926,8,400,,,
sequence,flow.Sequence,4_7,2023-09-06T19:32:32.316Z,,0,,,3112.732000023825,completion,,,,,false,,,,584471.3000000715,584471.1000000238,581341.821,581346.5,581358.368,584474.926,8,400,,,
trial,html.Screen,4_8_0,2023-09-06T19:32:35.246Z,,0,1,,2926.274000047706,response,ISIC_0033640.JPG,4,ISIC_0000176.JPG,ISIC_0033640.JPG,false,1,keypress(m),500,587401.5,587401.2000000477,584465.275,584471.6000000238,584474.926,587408.091,8,400,9,,ISIC_0000176.JPG
break,html.Screen,4_8_1,2023-09-06T19:32:35.248Z,,0,,,NaN,,,,,,false,,,,587402.8000000715,587402.3999999762,,587401.7000000477,,587408.091,8,400,,,
break_continue,html.Screen,4_8_2,2023-09-06T19:32:35.248Z,,0,,,NaN,,,,,,false,,,,587403.3999999762,587403.2000000477,,587402.8999999762,,587408.091,8,400,,,
sequence,flow.Sequence,4_8,2023-09-06T19:32:35.248Z,,0,,,2928.274000047706,completion,,,,,false,,,,587403.5,587403.2000000477,584465.275,584471.3999999762,584474.926,587408.091,8,400,,,
trial,html.Screen,4_9_0,2023-09-06T19:32:38.537Z,,0,1,,3284.2090000715107,response,ISIC_8170849.JPG,5,ISIC_7244604.JPG,ISIC_8170849.JPG,false,1,keypress(m),500,590692.6000000238,590692.3000000715,587391.251,587403.6000000238,587408.091,590707.929,8,400,10,,ISIC_7244604.JPG
break,html.Screen,4_9_1,2023-09-06T19:32:38.538Z,,0,,,NaN,,,,,,false,,,,590693.6000000238,590693.3000000715,,590692.7000000477,,590707.929,8,400,,,
break_continue,html.Screen,4_9_2,2023-09-06T19:32:38.539Z,,0,,,NaN,,,,,,false,,,,590693.8999999762,590693.8000000715,,590693.6000000238,,590707.929,8,400,,,
sequence,flow.Sequence,4_9,2023-09-06T19:32:38.539Z,,0,,,3285.7090000715107,completion,,,,,false,,,,590694.1000000238,590693.8000000715,587391.251,587403.6000000238,587408.091,590707.929,8,400,,,
trial,html.Screen,4_10_0,2023-09-06T19:32:41.686Z,,0,1,,3132.5709999999963,response,ISIC_2151856.JPG,6,ISIC_0015045.JPG,ISIC_2151856.JPG,false,1,keypress(m),500,593840.7000000477,593840.5,590677.761,590694.2000000477,590707.929,593858.136,8,400,11,,ISIC_0015045.JPG
break,html.Screen,4_10_1,2023-09-06T19:32:41.687Z,,0,,,NaN,,,,,,false,,,,593841.8999999762,593841.6000000238,,593841,,593858.136,8,400,,,
break_continue,html.Screen,4_10_2,2023-09-06T19:32:41.687Z,,0,,,NaN,,,,,,false,,,,593842.2000000477,593842.2000000477,,593842,,593858.136,8,400,,,
sequence,flow.Sequence,4_10,2023-09-06T19:32:41.687Z,,0,,,3134.27100004768,completion,,,,,false,,,,593842.5,593842.2000000477,590677.761,590694.2000000477,590707.929,593858.136,8,400,,,
trial,html.Screen,4_11_0,2023-09-06T19:32:44.282Z,,0,1,,2578.564000047627,response,ISIC_0055013.JPG,5,ISIC_0069204.JPG,ISIC_0069204.JPG,false,0,keypress(z),500,596437,596436.7000000477,593841.25,593842.6000000238,593858.136,596440.989,8,400,12,,ISIC_0055013.JPG
break,html.Screen,4_11_1,2023-09-06T19:32:44.283Z,,0,,,NaN,,,,,,false,,,,596438.2000000477,596437.8000000715,,596437.1000000238,,596440.989,8,400,,,
break_continue,html.Screen,4_11_2,2023-09-06T19:32:44.284Z,,0,,,NaN,,,,,,false,,,,596438.8000000715,596438.6000000238,,596438.3999999762,,596440.989,8,400,,,
sequence,flow.Sequence,4_11,2023-09-06T19:32:44.284Z,,0,,,2580.464000023785,completion,,,,,false,,,,596439,596438.6000000238,593841.25,593842.5,593858.136,596440.989,8,400,,,
trial,html.Screen,4_12_0,2023-09-06T19:32:46.958Z,,0,1,,2671.7110000477405,response,ISIC_7404937.JPG,5,ISIC_3094758.JPG,ISIC_7404937.JPG,false,1,keypress(m),500,599113,599112.7000000477,596431.359,596439.2000000477,596440.989,599124.106,8,400,13,,ISIC_3094758.JPG
break,html.Screen,4_12_1,2023-09-06T19:32:46.959Z,,0,,,NaN,,,,,,false,,,,599114.1000000238,599113.8000000715,,599113.2000000477,,599124.106,8,400,,,
break_continue,html.Screen,4_12_2,2023-09-06T19:32:46.959Z,,0,,,NaN,,,,,,false,,,,599114.5,599114.3000000715,,599114.2000000477,,599124.106,8,400,,,
sequence,flow.Sequence,4_12,2023-09-06T19:32:46.960Z,,0,,,2673.3110000715824,completion,,,,,false,,,,599114.6000000238,599114.3000000715,596431.359,596439.1000000238,596440.989,599124.106,8,400,,,
trial,html.Screen,4_13_0,2023-09-06T19:32:49.650Z,,0,1,,2680.6940000714967,response,ISIC_7658133.JPG,5,ISIC_0014395.JPG,ISIC_7658133.JPG,false,1,keypress(m),500,601805.1000000238,601804.8000000715,599107.423,599114.8000000715,599124.106,601807.407,8,400,14,,ISIC_0014395.JPG
break,html.Screen,4_13_1,2023-09-06T19:32:49.651Z,,0,,,NaN,,,,,,false,,,,601806.3999999762,601806.2000000477,,601805.3000000715,,601807.407,8,400,,,
break_continue,html.Screen,4_13_2,2023-09-06T19:32:49.652Z,,0,,,NaN,,,,,,false,,,,601807,601806.8000000715,,601806.6000000238,,601807.407,8,400,,,
sequence,flow.Sequence,4_13,2023-09-06T19:32:49.652Z,,0,,,2682.6940000714967,completion,,,,,false,,,,601807.3999999762,601806.8000000715,599107.423,599114.7000000477,599124.106,601807.407,8,400,,,
trial,html.Screen,4_14_0,2023-09-06T19:32:52.586Z,,0,1,,2933.893000071519,response,ISIC_6486856.JPG,5,ISIC_0026329.JPG,ISIC_0026329.JPG,false,0,keypress(z),500,604741.5,604741.3000000715,601793.855,601807.8000000715,601807.407,604757.164,8,400,15,,ISIC_6486856.JPG
break,html.Screen,4_14_1,2023-09-06T19:32:52.588Z,,0,,,NaN,,,,,,false,,,,604742.6000000238,604742.3000000715,,604741.7000000477,,604757.164,8,400,,,
break_continue,html.Screen,4_14_2,2023-09-06T19:32:52.588Z,,0,,,NaN,,,,,,false,,,,604743,604743,,604742.8000000715,,604757.164,8,400,,,
sequence,flow.Sequence,4_14,2023-09-06T19:32:52.588Z,,0,,,2935.5929999999935,completion,,,,,false,,,,604743.2000000477,604743,601793.855,601807.7000000477,601807.407,604757.164,8,400,,,
trial,html.Screen,4_15_0,2023-09-06T19:32:55.743Z,,0,1,,3140.436000023852,response,ISIC_0026868.JPG,5,ISIC_6425888.JPG,ISIC_0026868.JPG,false,1,keypress(m),500,607897.8000000715,607897.6000000238,604740.631,604743.3999999762,604757.164,607907.048,8,400,16,,ISIC_6425888.JPG
break,html.Screen,4_15_1,2023-09-06T19:32:55.744Z,,0,,,NaN,,,,,,false,,,,607898.7000000477,607898.5,,607898.1000000238,,607907.048,8,400,,,
break_continue,html.Screen,4_15_2,2023-09-06T19:32:55.744Z,,0,,,NaN,,,,,,false,,,,607899.1000000238,607899,,607898.8000000715,,607907.048,8,400,,,
sequence,flow.Sequence,4_15,2023-09-06T19:32:55.744Z,,0,,,3141.8360000000102,completion,,,,,false,,,,607899.2000000477,607899,604740.631,604743.3000000715,604757.164,607907.048,8,400,,,
trial,html.Screen,4_16_0,2023-09-06T19:32:58.583Z,,0,1,,2830.752000071574,response,ISIC_5239856.JPG,5,ISIC_5920470.JPG,ISIC_5920470.JPG,false,0,keypress(z),500,610738.2000000477,610737.8000000715,607897.204,607899.3000000715,607907.048,610740.234,8,400,17,,ISIC_5239856.JPG
break,html.Screen,4_16_1,2023-09-06T19:32:58.584Z,,0,,,NaN,,,,,,false,,,,610739.3999999762,610739.1000000238,,610738.3999999762,,610740.234,8,400,,,
break_continue,html.Screen,4_16_2,2023-09-06T19:32:58.585Z,,0,,,NaN,,,,,,false,,,,610739.8000000715,610739.7000000477,,610739.5,,610740.234,8,400,,,
sequence,flow.Sequence,4_16,2023-09-06T19:32:58.585Z,,0,,,2832.652000047732,completion,,,,,false,,,,610739.8999999762,610739.7000000477,607897.204,607899.3000000715,607907.048,610740.234,8,400,,,
trial,html.Screen,4_17_0,2023-09-06T19:33:01.275Z,,0,1,,2689.665999976103,response,ISIC_2822718.JPG,6,ISIC_6019374.JPG,ISIC_2822718.JPG,false,1,keypress(m),500,613430.1000000238,613429.8999999762,610723.463,610740.1000000238,610740.234,613440.171,8,400,18,,ISIC_6019374.JPG
break,html.Screen,4_17_1,2023-09-06T19:33:01.276Z,,0,,,NaN,,,,,,false,,,,613431.3999999762,613431,,613430.3000000715,,613440.171,8,400,,,
break_continue,html.Screen,4_17_2,2023-09-06T19:33:01.277Z,,0,,,NaN,,,,,,false,,,,613431.8000000715,613431.7000000477,,613431.5,,613440.171,8,400,,,
sequence,flow.Sequence,4_17,2023-09-06T19:33:01.277Z,,0,,,2691.4660000476288,completion,,,,,false,,,,613432,613431.7000000477,610723.463,610740.1000000238,610740.234,613440.171,8,400,,,
trial,html.Screen,4_18_0,2023-09-06T19:33:03.823Z,,0,1,,2537.929000023869,response,ISIC_0010426.JPG,6,ISIC_0163812.JPG,ISIC_0163812.JPG,false,0,keypress(z),500,615978.3000000715,615978.1000000238,613425.2,613432.1000000238,613440.171,615990.076,8,400,19,,ISIC_0010426.JPG
break,html.Screen,4_18_1,2023-09-06T19:33:03.824Z,,0,,,NaN,,,,,,false,,,,615979.3000000715,615979.1000000238,,615978.3999999762,,615990.076,8,400,,,
break_continue,html.Screen,4_18_2,2023-09-06T19:33:03.825Z,,0,,,NaN,,,,,,false,,,,615979.6000000238,615979.5,,615979.3999999762,,615990.076,8,400,,,
sequence,flow.Sequence,4_18,2023-09-06T19:33:03.825Z,,0,,,2539.329000000027,completion,,,,,false,,,,615979.8000000715,615979.5,613425.2,613432.1000000238,613440.171,615990.076,8,400,,,
trial,html.Screen,4_19_0,2023-09-06T19:33:06.952Z,,0,1,,3116.823999976157,response,ISIC_1706912.JPG,5,ISIC_2526170.JPG,ISIC_1706912.JPG,false,1,keypress(m),500,619107.1000000238,619106.8999999762,615975.89,615979.8999999762,615990.076,619123.529,8,400,20,,ISIC_2526170.JPG
break,html.Screen,4_19_1,2023-09-06T19:33:06.953Z,,0,,,NaN,,,,,,false,,,,619108.1000000238,619107.8999999762,,619107.3000000715,,619123.529,8,400,,,
break_continue,html.Screen,4_19_2,2023-09-06T19:33:06.953Z,,0,,,NaN,,,,,,false,,,,619108.6000000238,619108.3999999762,,619108.3000000715,,619123.529,8,400,,,
sequence,flow.Sequence,4_19,2023-09-06T19:33:06.954Z,,0,,,3118.323999976157,completion,,,,,false,,,,619108.8000000715,619108.3999999762,615975.89,615979.8999999762,615990.076,619123.529,8,400,,,
trial,html.Screen,4_20_0,2023-09-06T19:33:09.870Z,,0,1,,2901.6710000477033,response,ISIC_0026659.JPG,5,ISIC_7636321.JPG,ISIC_7636321.JPG,false,0,keypress(z),500,622025.3999999762,622025.2000000477,619106.638,619108.8000000715,619123.529,622039.65,8,400,21,,ISIC_0026659.JPG
break,html.Screen,4_20_1,2023-09-06T19:33:09.871Z,,0,,,NaN,,,,,,false,,,,622026.2000000477,622026.1000000238,,622025.5,,622039.65,8,400,,,
break_continue,html.Screen,4_20_2,2023-09-06T19:33:09.871Z,,0,,,NaN,,,,,,false,,,,622026.6000000238,622026.5,,622026.3999999762,,622039.65,8,400,,,
sequence,flow.Sequence,4_20,2023-09-06T19:33:09.872Z,,0,,,2902.9710000000196,completion,,,,,false,,,,622026.8000000715,622026.5,619106.638,619108.8000000715,619123.529,622039.65,8,400,,,
trial,html.Screen,4_21_0,2023-09-06T19:33:13.733Z,,0,1,,3848.1500000715023,response,ISIC_0070463.JPG,6,ISIC_0011546.JPG,ISIC_0070463.JPG,false,1,keypress(m),500,625888.1000000238,625887.8000000715,622023.195,622026.8999999762,622039.65,625906.18,8,400,22,,ISIC_0011546.JPG
break,html.Screen,4_21_1,2023-09-06T19:33:13.734Z,,0,,,NaN,,,,,,false,,,,625888.8999999762,625888.8000000715,,625888.3000000715,,625906.18,8,400,,,
break_continue,html.Screen,4_21_2,2023-09-06T19:33:13.734Z,,0,,,NaN,,,,,,false,,,,625889.2000000477,625889.2000000477,,625889,,625906.18,8,400,,,
sequence,flow.Sequence,4_21,2023-09-06T19:33:13.734Z,,0,,,3849.5500000476604,completion,,,,,false,,,,625889.3999999762,625889.2000000477,622023.195,622026.8000000715,622039.65,625906.18,8,400,,,
trial,html.Screen,4_22_0,2023-09-06T19:33:16.416Z,,0,1,,2664.5200000476325,response,ISIC_0064034.JPG,5,ISIC_7604596.JPG,ISIC_7604596.JPG,false,0,keypress(z),500,628571.1000000238,628570.7000000477,625889.482,625889.8000000715,625906.18,628589.747,8,400,23,,ISIC_0064034.JPG
break,html.Screen,4_22_1,2023-09-06T19:33:16.418Z,,0,,,NaN,,,,,,false,,,,628572.5,628572.2000000477,,628571.3000000715,,628589.747,8,400,,,
break_continue,html.Screen,4_22_2,2023-09-06T19:33:16.418Z,,0,,,NaN,,,,,,false,,,,628573.3000000715,628573.1000000238,,628572.8000000715,,628589.747,8,400,,,
sequence,flow.Sequence,4_22,2023-09-06T19:33:16.418Z,,0,,,2666.9200000237906,completion,,,,,false,,,,628573.5,628573.1000000238,625889.482,625889.8000000715,625906.18,628589.747,8,400,,,
trial,html.Screen,4_23_0,2023-09-06T19:33:19.076Z,,0,1,,2641.45300004771,response,ISIC_0014217.JPG,4,ISIC_1768733.JPG,ISIC_1768733.JPG,false,0,keypress(z),500,631231.5,631231.2000000477,628558.503,628573.6000000238,628589.747,631239.137,8,400,24,,ISIC_0014217.JPG
break,html.Screen,4_23_1,2023-09-06T19:33:19.078Z,,0,,,NaN,,,,,,false,,,,631232.8000000715,631232.3999999762,,631231.7000000477,,631239.137,8,400,,,
break_continue,html.Screen,4_23_2,2023-09-06T19:33:19.078Z,,0,,,NaN,,,,,,false,,,,631233.2000000477,631233.1000000238,,631233,,631239.137,8,400,,,
sequence,flow.Sequence,4_23,2023-09-06T19:33:19.078Z,,0,,,2643.353000023868,completion,,,,,false,,,,631233.3000000715,631233.1000000238,628558.503,628573.5,628589.747,631239.137,8,400,,,
trial,html.Screen,4_24_0,2023-09-06T19:33:22.187Z,,0,1,,3102.563000047696,response,ISIC_0056796.JPG,6,ISIC_0485914.JPG,ISIC_0056796.JPG,false,1,keypress(m),500,634342.1000000238,634341.7000000477,631222.691,631233.5,631239.137,634355.686,8,400,25,,ISIC_0485914.JPG
break,html.Screen,4_24_1,2023-09-06T19:33:22.188Z,,0,,,NaN,,,,,,false,,,,634343.3999999762,634343.1000000238,,634342.2000000477,,634355.686,8,400,,,
break_continue,html.Screen,4_24_2,2023-09-06T19:33:22.189Z,,0,,,NaN,,,,,,false,,,,634343.8000000715,634343.6000000238,,634343.5,,634355.686,8,400,,,
sequence,flow.Sequence,4_24,2023-09-06T19:33:22.189Z,,0,,,3104.463000023854,completion,,,,,false,,,,634343.8999999762,634343.6000000238,631222.691,631233.3999999762,631239.137,634355.686,8,400,,,
trial,html.Screen,4_25_0,2023-09-06T19:33:24.991Z,,0,1,,2789.713999976171,response,ISIC_0054244.JPG,4,ISIC_0030481.JPG,ISIC_0054244.JPG,false,1,keypress(m),500,637145.7000000477,637145.3999999762,634339.24,634344,634355.686,637155.546,8,400,26,,ISIC_0030481.JPG
break,html.Screen,4_25_1,2023-09-06T19:33:24.992Z,,0,,,NaN,,,,,,false,,,,637146.7000000477,637146.3999999762,,637145.8999999762,,637155.546,8,400,,,
break_continue,html.Screen,4_25_2,2023-09-06T19:33:24.992Z,,0,,,NaN,,,,,,false,,,,637146.8999999762,637146.8000000715,,637146.7000000477,,637155.546,8,400,,,
sequence,flow.Sequence,4_25,2023-09-06T19:33:24.992Z,,0,,,2791.1140000715386,completion,,,,,false,,,,637147.2000000477,637146.8000000715,634339.24,634344,634355.686,637155.546,8,400,,,
trial,html.Screen,4_26_0,2023-09-06T19:33:27.874Z,,0,1,,2872.954000000027,response,ISIC_8095877.JPG,5,ISIC_0069056.JPG,ISIC_8095877.JPG,false,1,keypress(m),500,640028.8999999762,640028.5,637140.723,637147.2000000477,637155.546,640038.785,8,400,27,,ISIC_0069056.JPG
break,html.Screen,4_26_1,2023-09-06T19:33:27.875Z,,0,,,NaN,,,,,,false,,,,640030.5,640030.2000000477,,640029.1000000238,,640038.785,8,400,,,
break_continue,html.Screen,4_26_2,2023-09-06T19:33:27.876Z,,0,,,NaN,,,,,,false,,,,640030.8999999762,640030.8999999762,,640030.7000000477,,640038.785,8,400,,,
sequence,flow.Sequence,4_26,2023-09-06T19:33:27.876Z,,0,,,2875.353999976185,completion,,,,,false,,,,640031.1000000238,640030.8999999762,637140.723,637147.2000000477,637155.546,640038.785,8,400,,,
trial,html.Screen,4_27_0,2023-09-06T19:33:30.615Z,,0,1,,2731.6149999761255,response,ISIC_0012055.JPG,5,ISIC_0058580.JPG,ISIC_0058580.JPG,false,0,keypress(z),500,642770.7000000477,642770.3999999762,640024.636,640031.2000000477,640038.785,642788.991,8,400,28,,ISIC_0012055.JPG
break,html.Screen,4_27_1,2023-09-06T19:33:30.617Z,,0,,,NaN,,,,,,false,,,,642771.8999999762,642771.6000000238,,642771,,642788.991,8,400,,,
break_continue,html.Screen,4_27_2,2023-09-06T19:33:30.617Z,,0,,,NaN,,,,,,false,,,,642772.3000000715,642772.2000000477,,642772,,642788.991,8,400,,,
sequence,flow.Sequence,4_27,2023-09-06T19:33:30.617Z,,0,,,2733.415000047651,completion,,,,,false,,,,642772.5,642772.2000000477,640024.636,640031.2000000477,640038.785,642788.991,8,400,,,
trial,html.Screen,4_28_0,2023-09-06T19:33:33.404Z,,0,1,,2770.1090000238037,response,ISIC_0497390.JPG,4,ISIC_0032441.JPG,ISIC_0497390.JPG,false,1,keypress(m),500,645559.3000000715,645559.1000000238,642755.443,642772.7000000477,642788.991,645571.864,8,400,29,,ISIC_0032441.JPG
break,html.Screen,4_28_1,2023-09-06T19:33:33.405Z,,0,,,NaN,,,,,,false,,,,645560.3999999762,645560.1000000238,,645559.5,,645571.864,8,400,,,
break_continue,html.Screen,4_28_2,2023-09-06T19:33:33.405Z,,0,,,NaN,,,,,,false,,,,645560.6000000238,645560.5,,645560.3999999762,,645571.864,8,400,,,
sequence,flow.Sequence,4_28,2023-09-06T19:33:33.405Z,,0,,,2771.508999999962,completion,,,,,false,,,,645560.7000000477,645560.5,642755.443,642772.6000000238,642788.991,645571.864,8,400,,,
trial,html.Screen,4_29_0,2023-09-06T19:33:36.591Z,,0,1,,3174.535999976215,response,ISIC_0029686.JPG,6,ISIC_5176419.JPG,ISIC_5176419.JPG,false,0,keypress(z),500,648746.7000000477,648746.3999999762,645555.296,645560.8999999762,645571.864,648754.957,8,400,30,,ISIC_0029686.JPG
break,html.Screen,4_29_1,2023-09-06T19:33:36.592Z,,0,,,NaN,,,,,,false,,,,648747.5,648747.3999999762,,648746.8999999762,,648754.957,8,400,,,
break_continue,html.Screen,4_29_2,2023-09-06T19:33:36.593Z,,0,,,NaN,,,,,,false,,,,648747.8999999762,648747.8000000715,,648747.7000000477,,648754.957,8,400,,,
sequence,flow.Sequence,4_29,2023-09-06T19:33:36.593Z,,0,,,3175.9360000715824,completion,,,,,false,,,,648748,648747.8000000715,645555.296,645560.8999999762,645571.864,648754.957,8,400,,,
trial,html.Screen,4_30_0,2023-09-06T19:33:39.796Z,,0,1,,3195.7430000476306,response,ISIC_0055143.JPG,5,ISIC_0034256.JPG,ISIC_0055143.JPG,false,1,keypress(m),500,651951,651950.7000000477,648740.111,648748.2000000477,648754.957,651954.793,8,400,31,,ISIC_0034256.JPG
break,html.Screen,4_30_1,2023-09-06T19:33:39.797Z,,0,,,NaN,,,,,,false,,,,651952.2000000477,651951.8000000715,,651951.1000000238,,651954.793,8,400,,,
break_continue,html.Screen,4_30_2,2023-09-06T19:33:39.797Z,,0,,,NaN,,,,,,false,,,,651952.6000000238,651952.5,,651952.3000000715,,651954.793,8,400,,,
sequence,flow.Sequence,4_30,2023-09-06T19:33:39.797Z,,0,,,3197.542999999947,completion,,,,,false,,,,651952.7000000477,651952.5,648740.111,648748.1000000238,648754.957,651954.793,8,400,,,
trial,html.Screen,4_31_0,2023-09-06T19:33:42.649Z,,0,1,,2849.1069999762112,response,ISIC_0003793.JPG,5,ISIC_2458609.JPG,ISIC_0003793.JPG,false,1,keypress(m),500,654804.2000000477,654803.8999999762,651940.731,651952.8999999762,651954.793,654821.322,8,400,32,,ISIC_2458609.JPG
break,html.Screen,4_31_1,2023-09-06T19:33:42.650Z,,0,,,NaN,,,,,,false,,,,654805.2000000477,654804.8999999762,,654804.3999999762,,654821.322,8,400,,,
break_continue,html.Screen,4_31_2,2023-09-06T19:33:42.650Z,,0,,,NaN,,,,,,false,,,,654805.6000000238,654805.5,,654805.3999999762,,654821.322,8,400,,,
sequence,flow.Sequence,4_31,2023-09-06T19:33:42.650Z,,0,,,2850.707000000053,completion,,,,,false,,,,654805.8000000715,654805.5,651940.731,651952.8000000715,651954.793,654821.322,8,400,,,
trial,html.Screen,4_32_0,2023-09-06T19:33:46.813Z,,0,1,,4146.37800004764,response,ISIC_0028984.JPG,5,ISIC_0071568.JPG,ISIC_0028984.JPG,false,1,keypress(m),500,658968.1000000238,658967.7000000477,654804.804,654806,654821.322,658971.119,8,400,33,,ISIC_0071568.JPG
break,html.Screen,4_32_1,2023-09-06T19:33:46.814Z,,0,,,NaN,,,,,,false,,,,658969.3999999762,658969,,658968.3000000715,,658971.119,8,400,,,
break_continue,html.Screen,4_32_2,2023-09-06T19:33:46.814Z,,0,,,NaN,,,,,,false,,,,658969.8000000715,658969.6000000238,,658969.5,,658971.119,8,400,,,
sequence,flow.Sequence,4_32,2023-09-06T19:33:46.815Z,,0,,,4148.278000023798,completion,,,,,false,,,,658969.8999999762,658969.6000000238,654804.804,654805.8999999762,654821.322,658971.119,8,400,,,
trial,html.Screen,4_33_0,2023-09-06T19:33:49.841Z,,0,1,,3024.481000023894,response,ISIC_6155981.JPG,7,ISIC_0032841.JPG,ISIC_6155981.JPG,false,1,keypress(m),500,661995.8000000715,661995.6000000238,658954.523,658970.1000000238,658971.119,662004.241,8,400,34,,ISIC_0032841.JPG
break,html.Screen,4_33_1,2023-09-06T19:33:49.842Z,,0,,,NaN,,,,,,false,,,,661997,661996.7000000477,,661996.1000000238,,662004.241,8,400,,,
break_continue,html.Screen,4_33_2,2023-09-06T19:33:49.842Z,,0,,,NaN,,,,,,false,,,,661997.6000000238,661997.3000000715,,661997.1000000238,,662004.241,8,400,,,
sequence,flow.Sequence,4_33,2023-09-06T19:33:49.842Z,,0,,,3026.1810000715777,completion,,,,,false,,,,661997.7000000477,661997.3000000715,658954.523,658970,658971.119,662004.241,8,400,,,
trial,html.Screen,4_34_0,2023-09-06T19:33:52.712Z,,0,1,,2863.0590000714874,response,ISIC_0060148.JPG,6,ISIC_0027282.JPG,ISIC_0027282.JPG,false,0,keypress(z),500,664867.7000000477,664867.3000000715,661987.663,661997.8999999762,662004.241,664870.877,8,400,35,,ISIC_0060148.JPG
break,html.Screen,4_34_1,2023-09-06T19:33:52.713Z,,0,,,NaN,,,,,,false,,,,664868.7000000477,664868.3000000715,,664867.8000000715,,664870.877,8,400,,,
break_continue,html.Screen,4_34_2,2023-09-06T19:33:52.714Z,,0,,,NaN,,,,,,false,,,,664869,664868.8000000715,,664868.8000000715,,664870.877,8,400,,,
sequence,flow.Sequence,4_34,2023-09-06T19:33:52.714Z,,0,,,2864.5590000714874,completion,,,,,false,,,,664869.2000000477,664868.8000000715,661987.663,661997.8999999762,662004.241,664870.877,8,400,,,
trial,html.Screen,4_35_0,2023-09-06T19:33:55.557Z,,0,1,,2841.0229999761796,response,ISIC_8174951.JPG,4,ISIC_7839712.JPG,ISIC_8174951.JPG,false,1,keypress(m),500,667712.3000000715,667711.8999999762,664854.252,664869.3999999762,664870.877,667720.625,8,400,36,,ISIC_7839712.JPG
break,html.Screen,4_35_1,2023-09-06T19:33:55.558Z,,0,,,NaN,,,,,,false,,,,667713.7000000477,667713.3999999762,,667712.5,,667720.625,8,400,,,
break_continue,html.Screen,4_35_2,2023-09-06T19:33:55.559Z,,0,,,NaN,,,,,,false,,,,667714.1000000238,667714,,667713.8000000715,,667720.625,8,400,,,
sequence,flow.Sequence,4_35,2023-09-06T19:33:55.559Z,,0,,,2843.1230000000214,completion,,,,,false,,,,667714.3000000715,667714,664854.252,664869.3000000715,664870.877,667720.625,8,400,,,
trial,html.Screen,4_36_0,2023-09-06T19:33:58.169Z,,0,1,,2603.375,response,ISIC_6768006.JPG,4,ISIC_0067172.JPG,ISIC_6768006.JPG,false,1,keypress(m),500,670324.2000000477,670324,667704.179,667714.3000000715,667720.625,670337.202,8,400,37,,ISIC_0067172.JPG
break,html.Screen,4_36_1,2023-09-06T19:33:58.170Z,,0,,,NaN,,,,,,false,,,,670325,670324.8000000715,,670324.3000000715,,670337.202,8,400,,,
break_continue,html.Screen,4_36_2,2023-09-06T19:33:58.170Z,,0,,,NaN,,,,,,false,,,,670325.3000000715,670325.2000000477,,670325.2000000477,,670337.202,8,400,,,
sequence,flow.Sequence,4_36,2023-09-06T19:33:58.170Z,,0,,,2604.5750000476837,completion,,,,,false,,,,670325.5,670325.2000000477,667704.179,667714.3000000715,667720.625,670337.202,8,400,,,
trial,html.Screen,4_37_0,2023-09-06T19:34:00.732Z,,0,1,,2550.1979999761097,response,ISIC_8901371.JPG,5,ISIC_7565128.JPG,ISIC_7565128.JPG,false,0,keypress(z),500,672887.6000000238,672887.3999999762,670320.707,670325.6000000238,670337.202,672903.796,8,400,38,,ISIC_8901371.JPG
break,html.Screen,4_37_1,2023-09-06T19:34:00.733Z,,0,,,NaN,,,,,,false,,,,672888.6000000238,672888.3999999762,,672887.7000000477,,672903.796,8,400,,,
break_continue,html.Screen,4_37_2,2023-09-06T19:34:00.734Z,,0,,,NaN,,,,,,false,,,,672889,672888.8999999762,,672888.8000000715,,672903.796,8,400,,,
sequence,flow.Sequence,4_37,2023-09-06T19:34:00.734Z,,0,,,2551.6979999761097,completion,,,,,false,,,,672889.2000000477,672888.8999999762,670320.707,670325.6000000238,670337.202,672903.796,8,400,,,
trial,html.Screen,4_38_0,2023-09-06T19:34:03.440Z,,0,1,,2691.103999976185,response,ISIC_9134453.JPG,5,ISIC_1962844.JPG,ISIC_9134453.JPG,false,1,keypress(m),500,675595.3000000715,675594.8999999762,672872.279,672889.3999999762,672903.796,675603.586,8,400,39,,ISIC_1962844.JPG
break,html.Screen,4_38_1,2023-09-06T19:34:03.441Z,,0,,,NaN,,,,,,false,,,,675596.3999999762,675596.1000000238,,675595.3999999762,,675603.586,8,400,,,
break_continue,html.Screen,4_38_2,2023-09-06T19:34:03.441Z,,0,,,NaN,,,,,,false,,,,675596.8999999762,675596.7000000477,,675596.5,,675603.586,8,400,,,
sequence,flow.Sequence,4_38,2023-09-06T19:34:03.442Z,,0,,,2692.9040000477107,completion,,,,,false,,,,675597,675596.7000000477,672872.279,672889.3999999762,672903.796,675603.586,8,400,,,
trial,html.Screen,4_39_0,2023-09-06T19:34:06.009Z,,0,1,,2560.813999976148,response,ISIC_6478506.JPG,6,ISIC_6336926.JPG,ISIC_6478506.JPG,false,1,keypress(m),500,678164.7000000477,678164.3999999762,675593.795,675597.1000000238,675603.586,678170.127,8,400,40,,ISIC_6336926.JPG
break,html.Screen,4_39_1,2023-09-06T19:34:06.010Z,,0,,,NaN,,,,,,false,,,,678165.8000000715,678165.6000000238,,678164.8999999762,,678170.127,8,400,,,
break_continue,html.Screen,4_39_2,2023-09-06T19:34:06.011Z,,0,,,NaN,,,,,,false,,,,678166.2000000477,678166.2000000477,,678166,,678170.127,8,400,,,
sequence,flow.Sequence,4_39,2023-09-06T19:34:06.011Z,,0,,,2562.6140000476735,completion,,,,,false,,,,678166.3999999762,678166.2000000477,675593.795,675597.1000000238,675603.586,678170.127,8,400,,,
trial,html.Screen,4_40_0,2023-09-06T19:34:08.766Z,,0,1,,2750.9730000238633,response,ISIC_9684318.JPG,5,ISIC_0064318.JPG,ISIC_9684318.JPG,false,1,keypress(m),500,680921.5,680921.1000000238,678153.317,678166.6000000238,678170.127,680936.747,8,400,41,,ISIC_0064318.JPG
break,html.Screen,4_40_1,2023-09-06T19:34:08.768Z,,0,,,NaN,,,,,,false,,,,680923,680922.6000000238,,680921.7000000477,,680936.747,8,400,,,
break_continue,html.Screen,4_40_2,2023-09-06T19:34:08.768Z,,0,,,NaN,,,,,,false,,,,680923.6000000238,680923.3999999762,,680923.1000000238,,680936.747,8,400,,,
sequence,flow.Sequence,4_40,2023-09-06T19:34:08.768Z,,0,,,2753.2729999761796,completion,,,,,false,,,,680923.7000000477,680923.3999999762,678153.317,678166.5,678170.127,680936.747,8,400,,,
trial,html.Screen,4_41_0,2023-09-06T19:34:11.685Z,,0,1,,2903.253000000026,response,ISIC_0068015.JPG,4,ISIC_0013204.JPG,ISIC_0013204.JPG,false,0,keypress(z),500,683840.3999999762,683840,680919.664,680923.8999999762,680936.747,683853.141,8,400,42,,ISIC_0068015.JPG
break,html.Screen,4_41_1,2023-09-06T19:34:11.686Z,,0,,,NaN,,,,,,false,,,,683841.8000000715,683841.3999999762,,683840.6000000238,,683853.141,8,400,,,
break_continue,html.Screen,4_41_2,2023-09-06T19:34:11.687Z,,0,,,NaN,,,,,,false,,,,683842.1000000238,683842,,683841.8999999762,,683853.141,8,400,,,
sequence,flow.Sequence,4_41,2023-09-06T19:34:11.687Z,,0,,,2905.253000000026,completion,,,,,false,,,,683842.3000000715,683842,680919.664,680923.8999999762,680936.747,683853.141,8,400,,,
trial,html.Screen,4_42_0,2023-09-06T19:34:14.233Z,,0,1,,2535.258999976213,response,ISIC_0059722.JPG,5,ISIC_0011484.JPG,ISIC_0059722.JPG,false,1,keypress(m),500,686388.6000000238,686388.3999999762,683836.591,683842.5,683853.141,686403.062,8,400,43,,ISIC_0011484.JPG
break,html.Screen,4_42_1,2023-09-06T19:34:14.234Z,,0,,,NaN,,,,,,false,,,,686389.7000000477,686389.3999999762,,686388.8000000715,,686403.062,8,400,,,
break_continue,html.Screen,4_42_2,2023-09-06T19:34:14.235Z,,0,,,NaN,,,,,,false,,,,686390,686389.8999999762,,686389.8000000715,,686403.062,8,400,,,
sequence,flow.Sequence,4_42,2023-09-06T19:34:14.235Z,,0,,,2536.758999976213,completion,,,,,false,,,,686390.2000000477,686389.8999999762,683836.591,683842.3999999762,683853.141,686403.062,8,400,,,
trial,html.Screen,4_43_0,2023-09-06T19:34:16.980Z,,0,1,,2731.8379999761237,response,ISIC_5048571.JPG,5,ISIC_0063425.JPG,ISIC_0063425.JPG,false,0,keypress(z),500,689135.2000000477,689134.8999999762,686376.33,686390.3000000715,686403.062,689153.802,8,400,44,,ISIC_5048571.JPG
break,html.Screen,4_43_1,2023-09-06T19:34:16.981Z,,0,,,NaN,,,,,,false,,,,689136.3999999762,689136,,689135.5,,689153.802,8,400,,,
break_continue,html.Screen,4_43_2,2023-09-06T19:34:16.981Z,,0,,,NaN,,,,,,false,,,,689136.8000000715,689136.6000000238,,689136.5,,689153.802,8,400,,,
sequence,flow.Sequence,4_43,2023-09-06T19:34:16.982Z,,0,,,2733.5380000238074,completion,,,,,false,,,,689137,689136.6000000238,686376.33,686390.3000000715,686403.062,689153.802,8,400,,,
trial,html.Screen,4_44_0,2023-09-06T19:34:19.742Z,,0,1,,2743.3980000476586,response,ISIC_5883331.JPG,5,ISIC_5839679.JPG,ISIC_5883331.JPG,false,1,keypress(m),500,691897.5,691897.2000000477,689119.455,689137.1000000238,689153.802,691902.78,8,400,45,,ISIC_5839679.JPG
break,html.Screen,4_44_1,2023-09-06T19:34:19.743Z,,0,,,NaN,,,,,,false,,,,691898.8000000715,691898.5,,691897.7000000477,,691902.78,8,400,,,
break_continue,html.Screen,4_44_2,2023-09-06T19:34:19.744Z,,0,,,NaN,,,,,,false,,,,691899.2000000477,691899.1000000238,,691898.8999999762,,691902.78,8,400,,,
sequence,flow.Sequence,4_44,2023-09-06T19:34:19.744Z,,0,,,2745.2980000238167,completion,,,,,false,,,,691899.3999999762,691899.1000000238,689119.455,689137.1000000238,689153.802,691902.78,8,400,,,
trial,html.Screen,4_45_0,2023-09-06T19:34:22.354Z,,0,1,,2606.61999997613,response,ISIC_0033125.JPG,4,ISIC_3501997.JPG,ISIC_3501997.JPG,false,0,keypress(z),500,694509.7000000477,694509.3999999762,691885.712,691899.5,691902.78,694519.269,8,400,46,,ISIC_0033125.JPG
break,html.Screen,4_45_1,2023-09-06T19:34:22.356Z,,0,,,NaN,,,,,,false,,,,694511.3999999762,694511.1000000238,,694510,,694519.269,8,400,,,
break_continue,html.Screen,4_45_2,2023-09-06T19:34:22.357Z,,0,,,NaN,,,,,,false,,,,694511.8999999762,694511.7000000477,,694511.6000000238,,694519.269,8,400,,,
sequence,flow.Sequence,4_45,2023-09-06T19:34:22.357Z,,0,,,2608.920000047656,completion,,,,,false,,,,694512.1000000238,694511.7000000477,691885.712,691899.5,691902.78,694519.269,8,400,,,
trial,html.Screen,4_46_0,2023-09-06T19:34:25.048Z,,0,1,,2683.8310000238707,response,ISIC_9568138.JPG,4,ISIC_0072171.JPG,ISIC_0072171.JPG,false,0,keypress(z),500,697203.5,697203.1000000238,694502.759,694512.2000000477,694519.269,697219.435,8,400,47,,ISIC_9568138.JPG
break,html.Screen,4_46_1,2023-09-06T19:34:25.050Z,,0,,,NaN,,,,,,false,,,,697204.8999999762,697204.6000000238,,697203.7000000477,,697219.435,8,400,,,
break_continue,html.Screen,4_46_2,2023-09-06T19:34:25.050Z,,0,,,NaN,,,,,,false,,,,697205.6000000238,697205.3999999762,,697205.2000000477,,697219.435,8,400,,,
sequence,flow.Sequence,4_46,2023-09-06T19:34:25.051Z,,0,,,2686.130999976187,completion,,,,,false,,,,697205.8999999762,697205.3999999762,694502.759,694512.1000000238,694519.269,697219.435,8,400,,,
trial,html.Screen,4_47_0,2023-09-06T19:34:27.781Z,,0,1,,2716.9649999761023,response,ISIC_0060452.JPG,6,ISIC_5895384.JPG,ISIC_0060452.JPG,false,1,keypress(m),500,699936.7000000477,699936.3999999762,697192.504,697206.1000000238,697219.435,699952.711,8,400,48,,ISIC_5895384.JPG
break,html.Screen,4_47_1,2023-09-06T19:34:27.782Z,,0,,,NaN,,,,,,false,,,,699937.7000000477,699937.5,,699936.8999999762,,699952.711,8,400,,,
break_continue,html.Screen,4_47_2,2023-09-06T19:34:27.783Z,,0,,,NaN,,,,,,false,,,,699938.2000000477,699938,,699937.8999999762,,699952.711,8,400,,,
sequence,flow.Sequence,4_47,2023-09-06T19:34:27.783Z,,0,,,2718.564999999944,completion,,,,,false,,,,699938.3000000715,699938,697192.504,697206,697219.435,699952.711,8,400,,,
trial,html.Screen,4_48_0,2023-09-06T19:34:30.495Z,,0,1,,2697.3890000238316,response,ISIC_6831482.JPG,5,ISIC_5434055.JPG,ISIC_6831482.JPG,false,1,keypress(m),500,702650.3000000715,702650.1000000238,699935.813,699938.5,699952.711,702652.191,8,400,49,,ISIC_5434055.JPG
break,html.Screen,4_48_1,2023-09-06T19:34:30.496Z,,0,,,NaN,,,,,,false,,,,702651.3000000715,702651.2000000477,,702650.6000000238,,702652.191,8,400,,,
break_continue,html.Screen,4_48_2,2023-09-06T19:34:30.497Z,,0,,,NaN,,,,,,false,,,,702651.7000000477,702651.6000000238,,702651.3999999762,,702652.191,8,400,,,
sequence,flow.Sequence,4_48,2023-09-06T19:34:30.497Z,,0,,,2698.8890000238316,completion,,,,,false,,,,702651.8000000715,702651.6000000238,699935.813,699938.3999999762,699952.711,702652.191,8,400,,,
trial,html.Screen,4_49_0,2023-09-06T19:34:34.099Z,,0,1,,3601.3090000000084,response,ISIC_6413346.JPG,5,ISIC_6732560.JPG,ISIC_6413346.JPG,false,1,keypress(m),500,706253.7000000477,706253.5,702635.863,702652,702652.191,706268.748,8,400,50,,ISIC_6732560.JPG
break,html.Screen,4_49_1,2023-09-06T19:34:44.098Z,,0,,,9999.623000000021,timeout,,,,,false,,,,716252.7000000477,716251.772,706252.119,706254,706268.748,716268.371,8,400,,,
break_continue,html.Screen,4_49_2,2023-09-06T19:34:45.753Z,,0,,,1628.0289999761153,response,,,,,false,continue,keypress(Space),,717908,717896.3999999762,716251.772,716252.8000000715,716268.371,717918.059,8,400,,,
sequence,flow.Sequence,4_49,2023-09-06T19:34:45.753Z,,0,,,15244.208999976167,completion,,,,,false,,,,717908.3000000715,717896.3999999762,702635.863,702651.8999999762,702652.191,717918.059,8,400,,,
trial,html.Screen,4_50_0,2023-09-06T19:34:49.085Z,,0,2,,3321.6410000476753,response,ISIC_5647697.JPG,4,ISIC_8433108.JPG,ISIC_5647697.JPG,false,1,keypress(m),500,721239.8999999762,721239.7000000477,717901.607,717908.3999999762,717918.059,721251.203,8,400,1,,ISIC_8433108.JPG
break,html.Screen,4_50_1,2023-09-06T19:34:49.086Z,,0,,,NaN,,,,,,false,,,,721240.8999999762,721240.7000000477,,721240.1000000238,,721251.203,8,400,,,
break_continue,html.Screen,4_50_2,2023-09-06T19:34:49.086Z,,0,,,NaN,,,,,,false,,,,721241.3000000715,721241.1000000238,,721241.1000000238,,721251.203,8,400,,,
sequence,flow.Sequence,4_50,2023-09-06T19:34:49.086Z,,0,,,3323.0410000238335,completion,,,,,false,,,,721241.3999999762,721241.1000000238,717901.607,717908.3999999762,717918.059,721251.203,8,400,,,
trial,html.Screen,4_51_0,2023-09-06T19:34:52.307Z,,0,2,,3210.3970000238623,response,ISIC_0066209.JPG,5,ISIC_0067235.JPG,ISIC_0067235.JPG,false,0,keypress(z),500,724461.8999999762,724461.6000000238,721234.845,721241.5,721251.203,724467.765,8,400,2,,ISIC_0066209.JPG
break,html.Screen,4_51_1,2023-09-06T19:34:52.308Z,,0,,,NaN,,,,,,false,,,,724462.8000000715,724462.5,,724462.1000000238,,724467.765,8,400,,,
break_continue,html.Screen,4_51_2,2023-09-06T19:34:52.308Z,,0,,,NaN,,,,,,false,,,,724463.1000000238,724463.1000000238,,724462.8999999762,,724467.765,8,400,,,
sequence,flow.Sequence,4_51,2023-09-06T19:34:52.308Z,,0,,,3211.8970000238623,completion,,,,,false,,,,724463.3000000715,724463.1000000238,721234.845,721241.3999999762,721251.203,724467.765,8,400,,,
trial,html.Screen,4_52_0,2023-09-06T19:34:55.446Z,,0,2,,3133.335000023828,response,ISIC_0010014.JPG,5,ISIC_0055081.JPG,ISIC_0055081.JPG,false,0,keypress(z),500,727601.3999999762,727601.1000000238,724451.642,724463.3999999762,724467.765,727617.578,8,400,3,,ISIC_0010014.JPG
break,html.Screen,4_52_1,2023-09-06T19:34:55.447Z,,0,,,NaN,,,,,,false,,,,727602.6000000238,727602.2000000477,,727601.6000000238,,727617.578,8,400,,,
break_continue,html.Screen,4_52_2,2023-09-06T19:34:55.448Z,,0,,,NaN,,,,,,false,,,,727603,727602.8000000715,,727602.6000000238,,727617.578,8,400,,,
sequence,flow.Sequence,4_52,2023-09-06T19:34:55.448Z,,0,,,3135.0350000715116,completion,,,,,false,,,,727603.2000000477,727602.8000000715,724451.642,724463.3999999762,724467.765,727617.578,8,400,,,
trial,html.Screen,4_53_0,2023-09-06T19:34:58.366Z,,0,2,,2903.3219999761786,response,ISIC_0024271.JPG,5,ISIC_1223648.JPG,ISIC_0024271.JPG,false,1,keypress(m),500,730521.1000000238,730520.8999999762,727600.892,727603.3000000715,727617.578,730534.169,8,400,4,,ISIC_1223648.JPG
break,html.Screen,4_53_1,2023-09-06T19:34:58.367Z,,0,,,NaN,,,,,,false,,,,730522,730521.8000000715,,730521.3000000715,,730534.169,8,400,,,
break_continue,html.Screen,4_53_2,2023-09-06T19:34:58.367Z,,0,,,NaN,,,,,,false,,,,730522.3999999762,730522.2000000477,,730522.1000000238,,730534.169,8,400,,,
sequence,flow.Sequence,4_53,2023-09-06T19:34:58.367Z,,0,,,2904.622000047704,completion,,,,,false,,,,730522.6000000238,730522.2000000477,727600.892,727603.3000000715,727617.578,730534.169,8,400,,,
trial,html.Screen,4_54_0,2023-09-06T19:35:01.009Z,,0,2,,2629.7309999761637,response,ISIC_4614604.JPG,5,ISIC_0031208.JPG,ISIC_4614604.JPG,false,1,keypress(m),500,733164.3000000715,733163.8999999762,730517.552,730522.6000000238,730534.169,733167.374,8,400,5,,ISIC_0031208.JPG
break,html.Screen,4_54_1,2023-09-06T19:35:01.011Z,,0,,,NaN,,,,,,false,,,,733165.6000000238,733165.3000000715,,733164.5,,733167.374,8,400,,,
break_continue,html.Screen,4_54_2,2023-09-06T19:35:01.011Z,,0,,,NaN,,,,,,false,,,,733166.1000000238,733165.8999999762,,733165.7000000477,,733167.374,8,400,,,
sequence,flow.Sequence,4_54,2023-09-06T19:35:01.011Z,,0,,,2631.7309999761637,completion,,,,,false,,,,733166.2000000477,733165.8999999762,730517.552,730522.6000000238,730534.169,733167.374,8,400,,,
trial,html.Screen,4_55_0,2023-09-06T19:35:03.688Z,,0,2,,2675.426000071573,response,ISIC_6617840.JPG,5,ISIC_0025343.JPG,ISIC_0025343.JPG,false,0,keypress(z),500,735843,735842.8000000715,733150.896,733166.3000000715,733167.374,735850.487,8,400,6,,ISIC_6617840.JPG
break,html.Screen,4_55_1,2023-09-06T19:35:03.689Z,,0,,,NaN,,,,,,false,,,,735844.2000000477,735844,,735843.3000000715,,735850.487,8,400,,,
break_continue,html.Screen,4_55_2,2023-09-06T19:35:03.690Z,,0,,,NaN,,,,,,false,,,,735844.6000000238,735844.5,,735844.3000000715,,735850.487,8,400,,,
sequence,flow.Sequence,4_55,2023-09-06T19:35:03.690Z,,0,,,2677.1260000000475,completion,,,,,false,,,,735844.8000000715,735844.5,733150.896,733166.3000000715,733167.374,735850.487,8,400,,,
trial,html.Screen,4_56_0,2023-09-06T19:35:07.005Z,,0,2,,3309.1130000238772,response,ISIC_0066358.JPG,4,ISIC_0009230.JPG,ISIC_0009230.JPG,false,0,keypress(z),500,739159.8999999762,739159.6000000238,735833.88,735844.8999999762,735850.487,739166.985,8,400,7,,ISIC_0066358.JPG
break,html.Screen,4_56_1,2023-09-06T19:35:07.006Z,,0,,,NaN,,,,,,false,,,,739160.8999999762,739160.7000000477,,739160.1000000238,,739166.985,8,400,,,
break_continue,html.Screen,4_56_2,2023-09-06T19:35:07.006Z,,0,,,NaN,,,,,,false,,,,739161.1000000238,739161.1000000238,,739161,,739166.985,8,400,,,
sequence,flow.Sequence,4_56,2023-09-06T19:35:07.006Z,,0,,,3310.6130000238772,completion,,,,,false,,,,739161.3999999762,739161.1000000238,735833.88,735844.8999999762,735850.487,739166.985,8,400,,,
trial,html.Screen,4_57_0,2023-09-06T19:35:10.038Z,,0,2,,3025.414999976172,response,ISIC_0066740.JPG,5,ISIC_0024313.JPG,ISIC_0066740.JPG,false,1,keypress(m),500,742192.7000000477,742192.3999999762,739151.338,739161.5,739166.985,742200.187,8,400,8,,ISIC_0024313.JPG
break,html.Screen,4_57_1,2023-09-06T19:35:10.038Z,,0,,,NaN,,,,,,false,,,,742193.6000000238,742193.3000000715,,742192.8000000715,,742200.187,8,400,,,
break_continue,html.Screen,4_57_2,2023-09-06T19:35:10.039Z,,0,,,NaN,,,,,,false,,,,742193.8999999762,742193.8000000715,,742193.7000000477,,742200.187,8,400,,,
sequence,flow.Sequence,4_57,2023-09-06T19:35:10.039Z,,0,,,3026.8150000715395,completion,,,,,false,,,,742194,742193.8000000715,739151.338,739161.5,739166.985,742200.187,8,400,,,
trial,html.Screen,4_58_0,2023-09-06T19:35:12.761Z,,0,2,,2715.613000071491,response,ISIC_0033104.JPG,6,ISIC_2167209.JPG,ISIC_2167209.JPG,false,0,keypress(z),500,744916,744915.8000000715,742183.508,742194.2000000477,742200.187,744933.463,8,400,9,,ISIC_0033104.JPG
break,html.Screen,4_58_1,2023-09-06T19:35:12.762Z,,0,,,NaN,,,,,,false,,,,744916.8999999762,744916.6000000238,,744916.2000000477,,744933.463,8,400,,,
break_continue,html.Screen,4_58_2,2023-09-06T19:35:12.762Z,,0,,,NaN,,,,,,false,,,,744917.1000000238,744917,,744916.8999999762,,744933.463,8,400,,,
sequence,flow.Sequence,4_58,2023-09-06T19:35:12.762Z,,0,,,2716.8129999999655,completion,,,,,false,,,,744917.3000000715,744917,742183.508,742194.1000000238,742200.187,744933.463,8,400,,,
trial,html.Screen,4_59_0,2023-09-06T19:35:15.939Z,,0,2,,3160.537000000011,response,ISIC_4322723.JPG,5,ISIC_3493866.JPG,ISIC_3493866.JPG,false,0,keypress(z),500,748094.3000000715,748094,744900.287,744917.5,744933.463,748099.876,8,400,10,,ISIC_4322723.JPG
break,html.Screen,4_59_1,2023-09-06T19:35:15.940Z,,0,,,NaN,,,,,,false,,,,748095.2000000477,748095.1000000238,,748094.3999999762,,748099.876,8,400,,,
break_continue,html.Screen,4_59_2,2023-09-06T19:35:15.941Z,,0,,,NaN,,,,,,false,,,,748095.5,748095.5,,748095.3999999762,,748099.876,8,400,,,
sequence,flow.Sequence,4_59,2023-09-06T19:35:15.941Z,,0,,,3162.037000000011,completion,,,,,false,,,,748095.8999999762,748095.5,744900.287,744917.3999999762,744933.463,748099.876,8,400,,,
trial,html.Screen,4_60_0,2023-09-06T19:35:19.271Z,,0,2,,3326.0239999761106,response,ISIC_0031844.JPG,5,ISIC_0056819.JPG,ISIC_0031844.JPG,false,1,keypress(m),500,751426.2000000477,751425.8999999762,748083.231,748096,748099.876,751433.049,8,400,11,,ISIC_0056819.JPG
break,html.Screen,4_60_1,2023-09-06T19:35:19.272Z,,0,,,NaN,,,,,,false,,,,751427.2000000477,751427,,751426.3999999762,,751433.049,8,400,,,
break_continue,html.Screen,4_60_2,2023-09-06T19:35:19.272Z,,0,,,NaN,,,,,,false,,,,751427.3999999762,751427.3000000715,,751427.2000000477,,751433.049,8,400,,,
sequence,flow.Sequence,4_60,2023-09-06T19:35:19.273Z,,0,,,3327.424000071478,completion,,,,,false,,,,751427.6000000238,751427.3000000715,748083.231,748095.8999999762,748099.876,751433.049,8,400,,,
trial,html.Screen,4_61_0,2023-09-06T19:35:22.914Z,,0,2,,3636.051000023843,response,ISIC_3817292.JPG,6,ISIC_3952030.JPG,ISIC_3952030.JPG,false,0,keypress(z),500,755069.3999999762,755069.1000000238,751417.265,751427.8000000715,751433.049,755082.873,8,400,12,,ISIC_3817292.JPG
break,html.Screen,4_61_1,2023-09-06T19:35:22.916Z,,0,,,NaN,,,,,,false,,,,755070.7000000477,755070.3000000715,,755069.7000000477,,755082.873,8,400,,,
break_continue,html.Screen,4_61_2,2023-09-06T19:35:22.916Z,,0,,,NaN,,,,,,false,,,,755071.2000000477,755071,,755070.8999999762,,755082.873,8,400,,,
sequence,flow.Sequence,4_61,2023-09-06T19:35:22.916Z,,0,,,3637.951000000001,completion,,,,,false,,,,755071.5,755071,751417.265,751427.8000000715,751433.049,755082.873,8,400,,,
trial,html.Screen,4_62_0,2023-09-06T19:35:26.807Z,,0,2,,3878.6269999999786,response,ISIC_0057531.JPG,5,ISIC_0059412.JPG,ISIC_0057531.JPG,false,1,keypress(m),500,758961.7000000477,758961.5,755066.223,755071.6000000238,755082.873,758966.009,8,400,13,,ISIC_0059412.JPG
break,html.Screen,4_62_1,2023-09-06T19:35:26.808Z,,0,,,NaN,,,,,,false,,,,758963.2000000477,758962.7000000477,,758961.8999999762,,758966.009,8,400,,,
break_continue,html.Screen,4_62_2,2023-09-06T19:35:26.809Z,,0,,,NaN,,,,,,false,,,,758963.7000000477,758963.6000000238,,758963.3999999762,,758966.009,8,400,,,
sequence,flow.Sequence,4_62,2023-09-06T19:35:26.809Z,,0,,,3880.7270000238204,completion,,,,,false,,,,758963.8999999762,758963.6000000238,755066.223,755071.6000000238,755082.873,758966.009,8,400,,,
trial,html.Screen,4_63_0,2023-09-06T19:35:29.675Z,,0,2,,2863.7910000715638,response,ISIC_0010636.JPG,4,ISIC_0063980.JPG,ISIC_0010636.JPG,false,1,keypress(m),500,761830.1000000238,761829.8000000715,758949.623,758964.1000000238,758966.009,761832.481,8,400,14,,ISIC_0063980.JPG
break,html.Screen,4_63_1,2023-09-06T19:35:29.676Z,,0,,,NaN,,,,,,false,,,,761831,761830.8000000715,,761830.2000000477,,761832.481,8,400,,,
break_continue,html.Screen,4_63_2,2023-09-06T19:35:29.676Z,,0,,,NaN,,,,,,false,,,,761831.3999999762,761831.3000000715,,761831.1000000238,,761832.481,8,400,,,
sequence,flow.Sequence,4_63,2023-09-06T19:35:29.676Z,,0,,,2865.2910000715638,completion,,,,,false,,,,761831.5,761831.3000000715,758949.623,758964,758966.009,761832.481,8,400,,,
trial,html.Screen,4_64_0,2023-09-06T19:35:33.247Z,,0,2,,3569.4189999761293,response,ISIC_0026700.JPG,5,ISIC_1744817.JPG,ISIC_0026700.JPG,false,1,keypress(m),500,765402.2000000477,765401.8999999762,761815.838,761831.7000000477,761832.481,765415.675,8,400,15,,ISIC_1744817.JPG
break,html.Screen,4_64_1,2023-09-06T19:35:33.248Z,,0,,,NaN,,,,,,false,,,,765403.3000000715,765403.1000000238,,765402.3000000715,,765415.675,8,400,,,
break_continue,html.Screen,4_64_2,2023-09-06T19:35:33.249Z,,0,,,NaN,,,,,,false,,,,765404,765403.8000000715,,765403.6000000238,,765415.675,8,400,,,
sequence,flow.Sequence,4_64,2023-09-06T19:35:33.249Z,,0,,,3571.3190000714967,completion,,,,,false,,,,765404.3000000715,765403.8000000715,761815.838,761831.7000000477,761832.481,765415.675,8,400,,,
trial,html.Screen,4_65_0,2023-09-06T19:35:36.251Z,,0,2,,2989.7249999761116,response,ISIC_0031070.JPG,6,ISIC_6773367.JPG,ISIC_6773367.JPG,false,0,keypress(z),500,768405.7000000477,768405.3999999762,765399.37,765404.3999999762,765415.675,768415.485,8,400,16,,ISIC_0031070.JPG
break,html.Screen,4_65_1,2023-09-06T19:35:36.252Z,,0,,,NaN,,,,,,false,,,,768407.3000000715,768406.8999999762,,768406,,768415.485,8,400,,,
break_continue,html.Screen,4_65_2,2023-09-06T19:35:36.253Z,,0,,,NaN,,,,,,false,,,,768407.8999999762,768407.7000000477,,768407.5,,768415.485,8,400,,,
sequence,flow.Sequence,4_65,2023-09-06T19:35:36.253Z,,0,,,2992.025000047637,completion,,,,,false,,,,768408,768407.7000000477,765399.37,765404.3999999762,765415.675,768415.485,8,400,,,
trial,html.Screen,4_66_0,2023-09-06T19:35:39.663Z,,0,2,,3402.515000000014,response,ISIC_2268341.JPG,4,ISIC_0032130.JPG,ISIC_0032130.JPG,false,0,keypress(z),500,771818.3999999762,771818,768398.948,768408.2000000477,768415.485,771848.744,8,400,17,,ISIC_2268341.JPG
break,html.Screen,4_66_1,2023-09-06T19:35:39.664Z,,0,,,NaN,,,,,,false,,,,771819.3999999762,771819.2000000477,,771818.6000000238,,771848.744,8,400,,,
break_continue,html.Screen,4_66_2,2023-09-06T19:35:39.665Z,,0,,,NaN,,,,,,false,,,,771819.8999999762,771819.7000000477,,771819.6000000238,,771848.744,8,400,,,
sequence,flow.Sequence,4_66,2023-09-06T19:35:39.665Z,,0,,,3404.2150000476977,completion,,,,,false,,,,771820.1000000238,771819.7000000477,768398.948,768408.1000000238,768415.485,771848.744,8,400,,,
trial,html.Screen,4_67_0,2023-09-06T19:35:43.412Z,,0,2,,3717.856000023894,response,ISIC_3436033.JPG,4,ISIC_3163773.JPG,ISIC_3436033.JPG,false,1,keypress(m),500,775567,775566.6000000238,771832.063,771820.2000000477,771848.744,775581.869,8,400,18,,ISIC_3163773.JPG
break,html.Screen,4_67_1,2023-09-06T19:35:43.413Z,,0,,,NaN,,,,,,false,,,,775568.1000000238,775567.7000000477,,775567.2000000477,,775581.869,8,400,,,
break_continue,html.Screen,4_67_2,2023-09-06T19:35:43.414Z,,0,,,NaN,,,,,,false,,,,775568.8999999762,775568.7000000477,,775568.5,,775581.869,8,400,,,
sequence,flow.Sequence,4_67,2023-09-06T19:35:43.414Z,,0,,,3719.956000047736,completion,,,,,false,,,,775569.1000000238,775568.7000000477,771832.063,771820.1000000238,771848.744,775581.869,8,400,,,
trial,html.Screen,4_68_0,2023-09-06T19:35:46.896Z,,0,2,,3468.631000000052,response,ISIC_0072714.JPG,5,ISIC_5164416.JPG,ISIC_0072714.JPG,false,1,keypress(m),500,779050.7000000477,779050.5,775565.199,775569.3000000715,775581.869,779065.007,8,400,19,,ISIC_5164416.JPG
break,html.Screen,4_68_1,2023-09-06T19:35:46.897Z,,0,,,NaN,,,,,,false,,,,779052.1000000238,779051.8000000715,,779051,,779065.007,8,400,,,
break_continue,html.Screen,4_68_2,2023-09-06T19:35:46.898Z,,0,,,NaN,,,,,,false,,,,779052.5,779052.5,,779052.2000000477,,779065.007,8,400,,,
sequence,flow.Sequence,4_68,2023-09-06T19:35:46.898Z,,0,,,3470.631000000052,completion,,,,,false,,,,779052.8000000715,779052.5,775565.199,775569.2000000477,775581.869,779065.007,8,400,,,
trial,html.Screen,4_69_0,2023-09-06T19:35:50.052Z,,0,2,,3141.9930000000168,response,ISIC_2143002.JPG,5,ISIC_8356468.JPG,ISIC_8356468.JPG,false,0,keypress(z),500,782207.3000000715,782207,779048.953,779052.8999999762,779065.007,782214.818,8,400,20,,ISIC_2143002.JPG
break,html.Screen,4_69_1,2023-09-06T19:35:50.053Z,,0,,,NaN,,,,,,false,,,,782208.5,782208.2000000477,,782207.3999999762,,782214.818,8,400,,,
break_continue,html.Screen,4_69_2,2023-09-06T19:35:50.054Z,,0,,,NaN,,,,,,false,,,,782209,782208.8000000715,,782208.7000000477,,782214.818,8,400,,,
sequence,flow.Sequence,4_69,2023-09-06T19:35:50.054Z,,0,,,3143.7930000715423,completion,,,,,false,,,,782209.1000000238,782208.8000000715,779048.953,779052.8999999762,779065.007,782214.818,8,400,,,
trial,html.Screen,4_70_0,2023-09-06T19:35:53.273Z,,0,2,,3213.2820000238717,response,ISIC_0068166.JPG,4,ISIC_0032152.JPG,ISIC_0032152.JPG,false,0,keypress(z),500,785428.5,785428.1000000238,782198.104,782209.3000000715,782214.818,785448.018,8,400,21,,ISIC_0068166.JPG
break,html.Screen,4_70_1,2023-09-06T19:35:53.275Z,,0,,,NaN,,,,,,false,,,,785429.7000000477,785429.3999999762,,785428.8000000715,,785448.018,8,400,,,
break_continue,html.Screen,4_70_2,2023-09-06T19:35:53.275Z,,0,,,NaN,,,,,,false,,,,785430.2000000477,785430,,785429.8000000715,,785448.018,8,400,,,
sequence,flow.Sequence,4_70,2023-09-06T19:35:53.275Z,,0,,,3215.18200000003,completion,,,,,false,,,,785430.3999999762,785430,782198.104,782209.3000000715,782214.818,785448.018,8,400,,,
trial,html.Screen,4_71_0,2023-09-06T19:35:56.397Z,,0,2,,3104.1820000476437,response,ISIC_0032424.JPG,5,ISIC_8922355.JPG,ISIC_8922355.JPG,false,0,keypress(z),500,788552.3999999762,788552.2000000477,785431.399,785430.5,785448.018,788564.479,8,400,22,,ISIC_0032424.JPG
break,html.Screen,4_71_1,2023-09-06T19:35:56.398Z,,0,,,NaN,,,,,,false,,,,788553.3000000715,788553.1000000238,,788552.6000000238,,788564.479,8,400,,,
break_continue,html.Screen,4_71_2,2023-09-06T19:35:56.399Z,,0,,,NaN,,,,,,false,,,,788553.6000000238,788553.5,,788553.3999999762,,788564.479,8,400,,,
sequence,flow.Sequence,4_71,2023-09-06T19:35:56.399Z,,0,,,3105.48199999996,completion,,,,,false,,,,788553.7000000477,788553.5,785431.399,785430.5,785448.018,788564.479,8,400,,,
trial,html.Screen,4_72_0,2023-09-06T19:35:59.265Z,,0,2,,2855.0209999999497,response,ISIC_0010998.JPG,6,ISIC_8955135.JPG,ISIC_8955135.JPG,false,0,keypress(z),500,791419.7000000477,791419.5,788547.874,788553.8999999762,788564.479,791431.098,8,400,23,,ISIC_0010998.JPG
break,html.Screen,4_72_1,2023-09-06T19:35:59.266Z,,0,,,NaN,,,,,,false,,,,791420.6000000238,791420.3999999762,,791419.8999999762,,791431.098,8,400,,,
break_continue,html.Screen,4_72_2,2023-09-06T19:35:59.266Z,,0,,,NaN,,,,,,false,,,,791420.8999999762,791420.8000000715,,791420.7000000477,,791431.098,8,400,,,
sequence,flow.Sequence,4_72,2023-09-06T19:35:59.266Z,,0,,,2856.3210000714753,completion,,,,,false,,,,791421,791420.8000000715,788547.874,788553.8999999762,788564.479,791431.098,8,400,,,
trial,html.Screen,4_73_0,2023-09-06T19:36:03.524Z,,0,2,,4248.102000047686,response,ISIC_0024525.JPG,4,ISIC_7025487.JPG,ISIC_7025487.JPG,false,0,keypress(z),500,795679.5,795679.2000000477,791415.299,791421.2000000477,791431.098,795697.863,8,400,24,,ISIC_0024525.JPG
break,html.Screen,4_73_1,2023-09-06T19:36:03.525Z,,0,,,NaN,,,,,,false,,,,795680.5,795680.3000000715,,795679.7000000477,,795697.863,8,400,,,
break_continue,html.Screen,4_73_2,2023-09-06T19:36:03.526Z,,0,,,NaN,,,,,,false,,,,795681,795680.8999999762,,795680.7000000477,,795697.863,8,400,,,
sequence,flow.Sequence,4_73,2023-09-06T19:36:03.526Z,,0,,,4249.80199997616,completion,,,,,false,,,,795681.2000000477,795680.8999999762,791415.299,791421.1000000238,791431.098,795697.863,8,400,,,
trial,html.Screen,4_74_0,2023-09-06T19:36:06.297Z,,0,2,,2754.3370000476716,response,ISIC_6066292.JPG,5,ISIC_9121369.JPG,ISIC_6066292.JPG,false,1,keypress(m),500,798452.5,798452.2000000477,795664.48,795681.3999999762,795697.863,798480.69,8,400,25,,ISIC_9121369.JPG
break,html.Screen,4_74_1,2023-09-06T19:36:06.298Z,,0,,,NaN,,,,,,false,,,,798453.3000000715,798453.1000000238,,798452.7000000477,,798480.69,8,400,,,
break_continue,html.Screen,4_74_2,2023-09-06T19:36:06.299Z,,0,,,NaN,,,,,,false,,,,798453.6000000238,798453.5,,798453.5,,798480.69,8,400,,,
sequence,flow.Sequence,4_74,2023-09-06T19:36:06.299Z,,0,,,2755.636999999988,completion,,,,,false,,,,798453.8000000715,798453.5,795664.48,795681.3000000715,795697.863,798480.69,8,400,,,
trial,html.Screen,4_75_0,2023-09-06T19:36:09.596Z,,0,2,,3270.5100000477396,response,ISIC_0004907.JPG,5,ISIC_0072748.JPG,ISIC_0004907.JPG,false,1,keypress(m),500,801751.5,801751.2000000477,798464.026,798453.8999999762,798480.69,801763.81,8,400,26,,ISIC_0072748.JPG
break,html.Screen,4_75_1,2023-09-06T19:36:09.597Z,,0,,,NaN,,,,,,false,,,,801752.6000000238,801752.3000000715,,801751.6000000238,,801763.81,8,400,,,
break_continue,html.Screen,4_75_2,2023-09-06T19:36:09.598Z,,0,,,NaN,,,,,,false,,,,801753,801752.8000000715,,801752.6000000238,,801763.81,8,400,,,
sequence,flow.Sequence,4_75,2023-09-06T19:36:09.598Z,,0,,,3272.1100000715815,completion,,,,,false,,,,801753.1000000238,801752.8000000715,798464.026,798453.8999999762,798480.69,801763.81,8,400,,,
trial,html.Screen,4_76_0,2023-09-06T19:36:12.752Z,,0,2,,3142.890000047628,response,ISIC_0054941.JPG,4,ISIC_1850674.JPG,ISIC_1850674.JPG,false,0,keypress(z),500,804907,804906.7000000477,801747.539,801753.2000000477,801763.81,804913.655,8,400,27,,ISIC_0054941.JPG
break,html.Screen,4_76_1,2023-09-06T19:36:12.753Z,,0,,,NaN,,,,,,false,,,,804908.1000000238,804907.8000000715,,804907.2000000477,,804913.655,8,400,,,
break_continue,html.Screen,4_76_2,2023-09-06T19:36:12.753Z,,0,,,NaN,,,,,,false,,,,804908.5,804908.3999999762,,804908.2000000477,,804913.655,8,400,,,
sequence,flow.Sequence,4_76,2023-09-06T19:36:12.754Z,,0,,,3144.5899999761023,completion,,,,,false,,,,804908.6000000238,804908.3999999762,801747.539,801753.1000000238,801763.81,804913.655,8,400,,,
trial,html.Screen,4_77_0,2023-09-06T19:36:16.043Z,,0,2,,3284.1450000714976,response,ISIC_1983754.JPG,6,ISIC_5922588.JPG,ISIC_5922588.JPG,false,0,keypress(z),500,808198.2000000477,808197.8000000715,804897.009,804908.8999999762,804913.655,808213.586,8,400,28,,ISIC_1983754.JPG
break,html.Screen,4_77_1,2023-09-06T19:36:16.045Z,,0,,,NaN,,,,,,false,,,,808199.6000000238,808199.2000000477,,808198.5,,808213.586,8,400,,,
break_continue,html.Screen,4_77_2,2023-09-06T19:36:16.045Z,,0,,,NaN,,,,,,false,,,,808200,808199.8999999762,,808199.8000000715,,808213.586,8,400,,,
sequence,flow.Sequence,4_77,2023-09-06T19:36:16.045Z,,0,,,3286.24499997613,completion,,,,,false,,,,808200.2000000477,808199.8999999762,804897.009,804908.8000000715,804913.655,808213.586,8,400,,,
trial,html.Screen,4_78_0,2023-09-06T19:36:19.761Z,,0,2,,3702.313999976148,response,ISIC_3249704.JPG,4,ISIC_3474681.JPG,ISIC_3474681.JPG,false,0,keypress(z),500,811916.2000000477,811915.8999999762,808197.134,808200.3000000715,808213.586,811929.949,8,400,29,,ISIC_3249704.JPG
break,html.Screen,4_78_1,2023-09-06T19:36:19.762Z,,0,,,NaN,,,,,,false,,,,811917.3999999762,811917.1000000238,,811916.3999999762,,811929.949,8,400,,,
break_continue,html.Screen,4_78_2,2023-09-06T19:36:19.763Z,,0,,,NaN,,,,,,false,,,,811917.7000000477,811917.6000000238,,811917.5,,811929.949,8,400,,,
sequence,flow.Sequence,4_78,2023-09-06T19:36:19.763Z,,0,,,3704.0140000238316,completion,,,,,false,,,,811917.8999999762,811917.6000000238,808197.134,808200.3000000715,808213.586,811929.949,8,400,,,
trial,html.Screen,4_79_0,2023-09-06T19:36:22.677Z,,0,2,,2901.950999976136,response,ISIC_8503961.JPG,4,ISIC_0024265.JPG,ISIC_8503961.JPG,false,1,keypress(m),500,814832.3000000715,814831.8999999762,811913.303,811918.1000000238,811929.949,814863.185,8,400,30,,ISIC_0024265.JPG
break,html.Screen,4_79_1,2023-09-06T19:36:22.678Z,,0,,,NaN,,,,,,false,,,,814833,814832.8000000715,,814832.3999999762,,814863.185,8,400,,,
break_continue,html.Screen,4_79_2,2023-09-06T19:36:22.678Z,,0,,,NaN,,,,,,false,,,,814833.3999999762,814833.2000000477,,814833.1000000238,,814863.185,8,400,,,
sequence,flow.Sequence,4_79,2023-09-06T19:36:22.679Z,,0,,,2903.2510000476614,completion,,,,,false,,,,814833.6000000238,814833.2000000477,811913.303,811918,811929.949,814863.185,8,400,,,
trial,html.Screen,4_80_0,2023-09-06T19:36:25.529Z,,0,2,,2820.814999999944,response,ISIC_0029290.JPG,5,ISIC_0580054.JPG,ISIC_0580054.JPG,false,0,keypress(z),500,817684.3000000715,817684,814846.476,814833.7000000477,814863.185,817696.378,8,400,31,,ISIC_0029290.JPG
break,html.Screen,4_80_1,2023-09-06T19:36:25.530Z,,0,,,NaN,,,,,,false,,,,817685.2000000477,817684.8999999762,,817684.3999999762,,817696.378,8,400,,,
break_continue,html.Screen,4_80_2,2023-09-06T19:36:25.530Z,,0,,,NaN,,,,,,false,,,,817685.5,817685.3000000715,,817685.2000000477,,817696.378,8,400,,,
sequence,flow.Sequence,4_80,2023-09-06T19:36:25.531Z,,0,,,2822.1150000714697,completion,,,,,false,,,,817685.7000000477,817685.3000000715,814846.476,814833.7000000477,814863.185,817696.378,8,400,,,
trial,html.Screen,4_81_0,2023-09-06T19:36:28.493Z,,0,2,,2951.722000023816,response,ISIC_0072215.JPG,6,ISIC_6253295.JPG,ISIC_6253295.JPG,false,0,keypress(z),500,820648.3999999762,820648.1000000238,817679.662,817685.8000000715,817696.378,820662.879,8,400,32,,ISIC_0072215.JPG
break,html.Screen,4_81_1,2023-09-06T19:36:28.494Z,,0,,,NaN,,,,,,false,,,,820649.3000000715,820649.1000000238,,820648.6000000238,,820662.879,8,400,,,
break_continue,html.Screen,4_81_2,2023-09-06T19:36:28.495Z,,0,,,NaN,,,,,,false,,,,820649.7000000477,820649.6000000238,,820649.5,,820662.879,8,400,,,
sequence,flow.Sequence,4_81,2023-09-06T19:36:28.495Z,,0,,,2953.222000023816,completion,,,,,false,,,,820649.8000000715,820649.6000000238,817679.662,817685.7000000477,817696.378,820662.879,8,400,,,
trial,html.Screen,4_82_0,2023-09-06T19:36:31.473Z,,0,2,,2964.8210000477266,response,ISIC_9808863.JPG,5,ISIC_0025085.JPG,ISIC_0025085.JPG,false,0,keypress(z),500,823628.1000000238,823627.7000000477,820646.553,820649.8999999762,820662.879,823646.465,8,400,33,,ISIC_9808863.JPG
break,html.Screen,4_82_1,2023-09-06T19:36:31.474Z,,0,,,NaN,,,,,,false,,,,823629.5,823629.1000000238,,823628.3000000715,,823646.465,8,400,,,
break_continue,html.Screen,4_82_2,2023-09-06T19:36:31.475Z,,0,,,NaN,,,,,,false,,,,823630.1000000238,823629.8999999762,,823629.7000000477,,823646.465,8,400,,,
sequence,flow.Sequence,4_82,2023-09-06T19:36:31.475Z,,0,,,2967.020999976201,completion,,,,,false,,,,823630.3000000715,823629.8999999762,820646.553,820649.8999999762,820662.879,823646.465,8,400,,,
trial,html.Screen,4_83_0,2023-09-06T19:36:34.150Z,,0,2,,2658.335000071558,response,ISIC_8747095.JPG,6,ISIC_0033966.JPG,ISIC_0033966.JPG,false,0,keypress(z),500,826305.2000000477,826304.8000000715,823612.737,823630.6000000238,823646.465,826312.563,8,400,34,,ISIC_8747095.JPG
break,html.Screen,4_83_1,2023-09-06T19:36:34.152Z,,0,,,NaN,,,,,,false,,,,826306.8000000715,826306.3999999762,,826305.5,,826312.563,8,400,,,
break_continue,html.Screen,4_83_2,2023-09-06T19:36:34.152Z,,0,,,NaN,,,,,,false,,,,826307.3000000715,826307.1000000238,,826307,,826312.563,8,400,,,
sequence,flow.Sequence,4_83,2023-09-06T19:36:34.152Z,,0,,,2660.6350000238745,completion,,,,,false,,,,826307.3999999762,826307.1000000238,823612.737,823630.5,823646.465,826312.563,8,400,,,
trial,html.Screen,4_84_0,2023-09-06T19:36:36.941Z,,0,2,,2783.5370000238763,response,ISIC_0029021.JPG,5,ISIC_7844825.JPG,ISIC_7844825.JPG,false,0,keypress(z),500,829096.3999999762,829096.1000000238,826296.617,826307.6000000238,826312.563,829112.469,8,400,35,,ISIC_0029021.JPG
break,html.Screen,4_84_1,2023-09-06T19:36:36.943Z,,0,,,NaN,,,,,,false,,,,829097.7000000477,829097.3000000715,,829096.6000000238,,829112.469,8,400,,,
break_continue,html.Screen,4_84_2,2023-09-06T19:36:36.943Z,,0,,,NaN,,,,,,false,,,,829098.2000000477,829098,,829097.8000000715,,829112.469,8,400,,,
sequence,flow.Sequence,4_84,2023-09-06T19:36:36.943Z,,0,,,2785.4370000000345,completion,,,,,false,,,,829098.3000000715,829098,826296.617,826307.6000000238,826312.563,829112.469,8,400,,,
trial,html.Screen,4_85_0,2023-09-06T19:36:39.985Z,,0,2,,3027.631000023801,response,ISIC_8690205.JPG,5,ISIC_9088073.JPG,ISIC_8690205.JPG,false,1,keypress(m),500,832140.5,832140.1000000238,829095.709,829098.5,829112.469,832145.614,8,400,36,,ISIC_9088073.JPG
break,html.Screen,4_85_1,2023-09-06T19:36:39.987Z,,0,,,NaN,,,,,,false,,,,832141.8000000715,832141.3999999762,,832140.6000000238,,832145.614,8,400,,,
break_continue,html.Screen,4_85_2,2023-09-06T19:36:39.987Z,,0,,,NaN,,,,,,false,,,,832142.2000000477,832142.1000000238,,832141.8999999762,,832145.614,8,400,,,
sequence,flow.Sequence,4_85,2023-09-06T19:36:39.987Z,,0,,,3029.631000023801,completion,,,,,false,,,,832142.3999999762,832142.1000000238,829095.709,829098.3999999762,829112.469,832145.614,8,400,,,
trial,html.Screen,4_86_0,2023-09-06T19:36:43.207Z,,0,2,,3216.1860000715824,response,ISIC_3893354.JPG,4,ISIC_0032226.JPG,ISIC_0032226.JPG,false,0,keypress(z),500,835362.1000000238,835361.8000000715,832129.263,832142.6000000238,832145.614,835378.981,8,400,37,,ISIC_3893354.JPG
break,html.Screen,4_86_1,2023-09-06T19:36:43.208Z,,0,,,NaN,,,,,,false,,,,835363.1000000238,835362.8000000715,,835362.3000000715,,835378.981,8,400,,,
break_continue,html.Screen,4_86_2,2023-09-06T19:36:43.208Z,,0,,,NaN,,,,,,false,,,,835363.3999999762,835363.2000000477,,835363.2000000477,,835378.981,8,400,,,
sequence,flow.Sequence,4_86,2023-09-06T19:36:43.209Z,,0,,,3217.5860000477405,completion,,,,,false,,,,835363.6000000238,835363.2000000477,832129.263,832142.5,832145.614,835378.981,8,400,,,
trial,html.Screen,4_87_0,2023-09-06T19:36:45.835Z,,0,2,,2611.219000047655,response,ISIC_0056900.JPG,4,ISIC_0031295.JPG,ISIC_0056900.JPG,false,1,keypress(m),500,837990.5,837990.2000000477,835362.324,835363.8000000715,835378.981,837995.317,8,400,38,,ISIC_0031295.JPG
break,html.Screen,4_87_1,2023-09-06T19:36:45.836Z,,0,,,NaN,,,,,,false,,,,837991.5,837991.3000000715,,837990.6000000238,,837995.317,8,400,,,
break_continue,html.Screen,4_87_2,2023-09-06T19:36:45.837Z,,0,,,NaN,,,,,,false,,,,837991.8000000715,837991.7000000477,,837991.6000000238,,837995.317,8,400,,,
sequence,flow.Sequence,4_87,2023-09-06T19:36:45.837Z,,0,,,2612.719000047655,completion,,,,,false,,,,837992,837991.7000000477,835362.324,835363.8000000715,835378.981,837995.317,8,400,,,
trial,html.Screen,4_88_0,2023-09-06T19:36:49.072Z,,0,2,,3231.7830000238027,response,ISIC_0028405.JPG,5,ISIC_2577938.JPG,ISIC_2577938.JPG,false,0,keypress(z),500,841227.5,841227.1000000238,837979.279,837992.2000000477,837995.317,841246.037,8,400,39,,ISIC_0028405.JPG
break,html.Screen,4_88_1,2023-09-06T19:36:49.073Z,,0,,,NaN,,,,,,false,,,,841228.5,841228.2000000477,,841227.6000000238,,841246.037,8,400,,,
break_continue,html.Screen,4_88_2,2023-09-06T19:36:49.074Z,,0,,,NaN,,,,,,false,,,,841228.8000000715,841228.7000000477,,841228.6000000238,,841246.037,8,400,,,
sequence,flow.Sequence,4_88,2023-09-06T19:36:49.074Z,,0,,,3233.3830000476446,completion,,,,,false,,,,841229,841228.7000000477,837979.279,837992.2000000477,837995.317,841246.037,8,400,,,
trial,html.Screen,4_89_0,2023-09-06T19:36:51.812Z,,0,2,,2720.862999976147,response,ISIC_8626941.JPG,4,ISIC_0070940.JPG,ISIC_8626941.JPG,false,1,keypress(m),500,843967.3000000715,843966.8999999762,841211.748,841229.1000000238,841246.037,843978.293,8,400,40,,ISIC_0070940.JPG
break,html.Screen,4_89_1,2023-09-06T19:36:51.813Z,,0,,,NaN,,,,,,false,,,,843968.3999999762,843968.1000000238,,843967.3999999762,,843978.293,8,400,,,
break_continue,html.Screen,4_89_2,2023-09-06T19:36:51.814Z,,0,,,NaN,,,,,,false,,,,843968.8000000715,843968.7000000477,,843968.6000000238,,843978.293,8,400,,,
sequence,flow.Sequence,4_89,2023-09-06T19:36:51.814Z,,0,,,2722.6630000476725,completion,,,,,false,,,,843969,843968.7000000477,841211.748,841229,841246.037,843978.293,8,400,,,
trial,html.Screen,4_90_0,2023-09-06T19:36:54.920Z,,0,2,,3096.907000047737,response,ISIC_0011305.JPG,5,ISIC_0062770.JPG,ISIC_0062770.JPG,false,0,keypress(z),500,847075.6000000238,847075.2000000477,843962.019,843969.1000000238,843978.293,847078.222,8,400,41,,ISIC_0011305.JPG
break,html.Screen,4_90_1,2023-09-06T19:36:54.922Z,,0,,,NaN,,,,,,false,,,,847076.7000000477,847076.3999999762,,847075.7000000477,,847078.222,8,400,,,
break_continue,html.Screen,4_90_2,2023-09-06T19:36:54.922Z,,0,,,NaN,,,,,,false,,,,847077.2000000477,847077,,847076.8999999762,,847078.222,8,400,,,
sequence,flow.Sequence,4_90,2023-09-06T19:36:54.922Z,,0,,,3098.707000000053,completion,,,,,false,,,,847077.3000000715,847077,843962.019,843969.1000000238,843978.293,847078.222,8,400,,,
trial,html.Screen,4_91_0,2023-09-06T19:36:57.969Z,,0,2,,3045.2780000000494,response,ISIC_0160831.JPG,5,ISIC_2283628.JPG,ISIC_0160831.JPG,false,1,keypress(m),500,850123.7000000477,850123.5,847062.051,847077.3999999762,847078.222,850128.086,8,400,42,,ISIC_2283628.JPG
break,html.Screen,4_91_1,2023-09-06T19:36:57.969Z,,0,,,NaN,,,,,,false,,,,850124.6000000238,850124.3000000715,,850123.8999999762,,850128.086,8,400,,,
break_continue,html.Screen,4_91_2,2023-09-06T19:36:57.970Z,,0,,,NaN,,,,,,false,,,,850124.8000000715,850124.7000000477,,850124.7000000477,,850128.086,8,400,,,
sequence,flow.Sequence,4_91,2023-09-06T19:36:57.970Z,,0,,,3046.478000047733,completion,,,,,false,,,,850125,850124.7000000477,847062.051,847077.3999999762,847078.222,850128.086,8,400,,,
trial,html.Screen,4_92_0,2023-09-06T19:37:00.867Z,,0,2,,2894.2140000715153,response,ISIC_0000507.JPG,5,ISIC_0063556.JPG,ISIC_0000507.JPG,false,1,keypress(m),500,853022.5,853022.3000000715,850112.025,850125.1000000238,850128.086,853027.888,8,400,43,,ISIC_0063556.JPG
break,html.Screen,4_92_1,2023-09-06T19:37:00.868Z,,0,,,NaN,,,,,,false,,,,853023.5,853023.2000000477,,853022.6000000238,,853027.888,8,400,,,
break_continue,html.Screen,4_92_2,2023-09-06T19:37:00.869Z,,0,,,NaN,,,,,,false,,,,853023.8000000715,853023.7000000477,,853023.6000000238,,853027.888,8,400,,,
sequence,flow.Sequence,4_92,2023-09-06T19:37:00.869Z,,0,,,2895.6140000476735,completion,,,,,false,,,,853023.8999999762,853023.7000000477,850112.025,850125,850128.086,853027.888,8,400,,,
trial,html.Screen,4_93_0,2023-09-06T19:37:03.862Z,,0,2,,2989.1119999999646,response,ISIC_0054914.JPG,5,ISIC_4894929.JPG,ISIC_4894929.JPG,false,0,keypress(z),500,856017.3000000715,856017,853011.208,853024,853027.888,856027.744,8,400,44,,ISIC_0054914.JPG
break,html.Screen,4_93_1,2023-09-06T19:37:03.863Z,,0,,,NaN,,,,,,false,,,,856018.3000000715,856018.1000000238,,856017.5,,856027.744,8,400,,,
break_continue,html.Screen,4_93_2,2023-09-06T19:37:03.863Z,,0,,,NaN,,,,,,false,,,,856018.6000000238,856018.5,,856018.3000000715,,856027.744,8,400,,,
sequence,flow.Sequence,4_93,2023-09-06T19:37:03.864Z,,0,,,2990.6119999999646,completion,,,,,false,,,,856018.7000000477,856018.5,853011.208,853024,853027.888,856027.744,8,400,,,
trial,html.Screen,4_94_0,2023-09-06T19:37:07.690Z,,0,2,,3816.956000047736,response,ISIC_3650533.JPG,5,ISIC_0072733.JPG,ISIC_0072733.JPG,false,0,keypress(z),500,859845,859844.7000000477,856011.25,856018.8000000715,856027.744,859860.801,8,400,45,,ISIC_3650533.JPG
break,html.Screen,4_94_1,2023-09-06T19:37:07.691Z,,0,,,NaN,,,,,,false,,,,859846.1000000238,859845.8000000715,,859845.2000000477,,859860.801,8,400,,,
break_continue,html.Screen,4_94_2,2023-09-06T19:37:07.691Z,,0,,,NaN,,,,,,false,,,,859846.5,859846.3000000715,,859846.2000000477,,859860.801,8,400,,,
sequence,flow.Sequence,4_94,2023-09-06T19:37:07.692Z,,0,,,3818.5560000715777,completion,,,,,false,,,,859846.6000000238,859846.3000000715,856011.25,856018.8000000715,856027.744,859860.801,8,400,,,
trial,html.Screen,4_95_0,2023-09-06T19:37:10.782Z,,0,2,,3076.0989999761805,response,ISIC_7216266.JPG,6,ISIC_0884550.JPG,ISIC_0884550.JPG,false,0,keypress(z),500,862937.2000000477,862936.8999999762,859844.418,859846.8000000715,859860.801,862960.883,8,400,46,,ISIC_7216266.JPG
break,html.Screen,4_95_1,2023-09-06T19:37:10.783Z,,0,,,NaN,,,,,,false,,,,862938.3000000715,862938.1000000238,,862937.5,,862960.883,8,400,,,
break_continue,html.Screen,4_95_2,2023-09-06T19:37:10.784Z,,0,,,NaN,,,,,,false,,,,862938.8000000715,862938.7000000477,,862938.5,,862960.883,8,400,,,
sequence,flow.Sequence,4_95,2023-09-06T19:37:10.784Z,,0,,,3077.899000047706,completion,,,,,false,,,,862939,862938.7000000477,859844.418,859846.8000000715,859860.801,862960.883,8,400,,,
trial,html.Screen,4_96_0,2023-09-06T19:37:13.825Z,,0,2,,3019.317000047653,response,ISIC_0028041.JPG,5,ISIC_9788174.JPG,ISIC_0028041.JPG,false,1,keypress(m),500,865980.5,865980.2000000477,862944.051,862939.2000000477,862960.883,866010.586,8,400,47,,ISIC_9788174.JPG
break,html.Screen,4_96_1,2023-09-06T19:37:13.826Z,,0,,,NaN,,,,,,false,,,,865981.2000000477,865981.1000000238,,865980.6000000238,,866010.586,8,400,,,
break_continue,html.Screen,4_96_2,2023-09-06T19:37:13.826Z,,0,,,NaN,,,,,,false,,,,865981.5,865981.3999999762,,865981.3000000715,,866010.586,8,400,,,
sequence,flow.Sequence,4_96,2023-09-06T19:37:13.827Z,,0,,,3020.5169999761274,completion,,,,,false,,,,865981.6000000238,865981.3999999762,862944.051,862939.1000000238,862960.883,866010.586,8,400,,,
trial,html.Screen,4_97_0,2023-09-06T19:37:16.757Z,,0,2,,2901.4139999999898,response,ISIC_0025755.JPG,5,ISIC_0069274.JPG,ISIC_0069274.JPG,false,0,keypress(z),500,868912.2000000477,868912,865993.913,865981.8000000715,866010.586,868927.157,8,400,48,,ISIC_0025755.JPG
break,html.Screen,4_97_1,2023-09-06T19:37:16.758Z,,0,,,NaN,,,,,,false,,,,868913.3999999762,868912.8999999762,,868912.3999999762,,868927.157,8,400,,,
break_continue,html.Screen,4_97_2,2023-09-06T19:37:16.759Z,,0,,,NaN,,,,,,false,,,,868913.8999999762,868913.6000000238,,868913.5,,868927.157,8,400,,,
sequence,flow.Sequence,4_97,2023-09-06T19:37:16.759Z,,0,,,2903.0140000238316,completion,,,,,false,,,,868914,868913.6000000238,865993.913,865981.7000000477,866010.586,868927.157,8,400,,,
trial,html.Screen,4_98_0,2023-09-06T19:37:20.284Z,,0,2,,3511.9430000238353,response,ISIC_6646939.JPG,5,ISIC_5778927.JPG,ISIC_6646939.JPG,false,1,keypress(m),500,872439.3999999762,872439.1000000238,868910.498,868914.3000000715,868927.157,872443.59,8,400,49,,ISIC_5778927.JPG
break,html.Screen,4_98_1,2023-09-06T19:37:20.286Z,,0,,,NaN,,,,,,false,,,,872441,872440.6000000238,,872439.8000000715,,872443.59,8,400,,,
break_continue,html.Screen,4_98_2,2023-09-06T19:37:20.287Z,,0,,,NaN,,,,,,false,,,,872441.6000000238,872441.3999999762,,872441.2000000477,,872443.59,8,400,,,
sequence,flow.Sequence,4_98,2023-09-06T19:37:20.287Z,,0,,,3514.2429999761516,completion,,,,,false,,,,872441.8000000715,872441.3999999762,868910.498,868914.2000000477,868927.157,872443.59,8,400,,,
trial,html.Screen,4_99_0,2023-09-06T19:37:23.190Z,,0,2,,2901.5100000238745,response,ISIC_9323095.JPG,5,ISIC_0778327.JPG,ISIC_9323095.JPG,false,1,keypress(m),500,875345.3000000715,875345.1000000238,872427.163,872442,872443.59,875360.186,8,400,50,,ISIC_0778327.JPG
break,html.Screen,4_99_1,2023-09-06T19:37:33.188Z,,0,,,9999.347000000067,timeout,,,,,false,,,,885344,885342.961,875343.384,875345.6000000238,875360.186,885359.533,8,400,,,
break_continue,html.Screen,4_99_2,2023-09-06T19:37:54.484Z,,0,,,21257.866999976104,response,,,,,false,continue,keypress(Space),,906640.3000000715,906617.3999999762,885342.961,885344.1000000238,885359.533,906659.412,8,400,,,
sequence,flow.Sequence,4_99,2023-09-06T19:37:54.485Z,,0,,,34173.80999997619,completion,,,,,false,,,,906640.3999999762,906617.3999999762,872427.163,872442,872443.59,906659.412,8,400,,,
trial,html.Screen,4_100_0,2023-09-06T19:37:57.353Z,,0,3,,2849.2880000476725,response,ISIC_8559515.JPG,5,ISIC_0011013.JPG,ISIC_8559515.JPG,false,1,keypress(m),500,909509,909508.7000000477,906624.347,906640.6000000238,906659.412,909525.064,8,400,1,,ISIC_0011013.JPG
break,html.Screen,4_100_1,2023-09-06T19:37:57.354Z,,0,,,NaN,,,,,,false,,,,909510,909509.8000000715,,909509.1000000238,,909525.064,8,400,,,
break_continue,html.Screen,4_100_2,2023-09-06T19:37:57.355Z,,0,,,NaN,,,,,,false,,,,909510.5,909510.3000000715,,909510.2000000477,,909525.064,8,400,,,
sequence,flow.Sequence,4_100,2023-09-06T19:37:57.355Z,,0,,,2850.8880000715144,completion,,,,,false,,,,909510.6000000238,909510.3000000715,906624.347,906640.6000000238,906659.412,909525.064,8,400,,,
trial,html.Screen,4_101_0,2023-09-06T19:38:00.174Z,,0,3,,2804.7360000715125,response,ISIC_0057858.JPG,4,ISIC_0032872.JPG,ISIC_0057858.JPG,false,1,keypress(m),500,912330.2000000477,912329.8000000715,909508.464,909510.7000000477,909525.064,912341.59,8,400,2,,ISIC_0032872.JPG
break,html.Screen,4_101_1,2023-09-06T19:38:00.176Z,,0,,,NaN,,,,,,false,,,,912331.3999999762,912331.1000000238,,912330.3000000715,,912341.59,8,400,,,
break_continue,html.Screen,4_101_2,2023-09-06T19:38:00.176Z,,0,,,NaN,,,,,,false,,,,912331.8999999762,912331.7000000477,,912331.5,,912341.59,8,400,,,
sequence,flow.Sequence,4_101,2023-09-06T19:38:00.176Z,,0,,,2806.6360000476707,completion,,,,,false,,,,912332,912331.7000000477,909508.464,909510.7000000477,909525.064,912341.59,8,400,,,
trial,html.Screen,4_102_0,2023-09-06T19:38:02.709Z,,0,3,,2522.8099999761907,response,ISIC_0351547.JPG,5,ISIC_0032596.JPG,ISIC_0351547.JPG,false,1,keypress(m),500,914864.7000000477,914864.3999999762,912324.949,912332.2000000477,912341.59,914874.709,8,400,3,,ISIC_0032596.JPG
break,html.Screen,4_102_1,2023-09-06T19:38:02.710Z,,0,,,NaN,,,,,,false,,,,914866.2000000477,914865.8000000715,,914864.8999999762,,914874.709,8,400,,,
break_continue,html.Screen,4_102_2,2023-09-06T19:38:02.711Z,,0,,,NaN,,,,,,false,,,,914866.7000000477,914866.3999999762,,914866.3000000715,,914874.709,8,400,,,
sequence,flow.Sequence,4_102,2023-09-06T19:38:02.711Z,,0,,,2524.8099999761907,completion,,,,,false,,,,914866.8000000715,914866.3999999762,912324.949,912332.1000000238,912341.59,914874.709,8,400,,,
trial,html.Screen,4_103_0,2023-09-06T19:38:05.386Z,,0,3,,2666.6909999761265,response,ISIC_0069995.JPG,5,ISIC_8325260.JPG,ISIC_8325260.JPG,false,0,keypress(z),500,917541.6000000238,917541.3999999762,914858.123,914866.8999999762,914874.709,917557.897,8,400,4,,ISIC_0069995.JPG
break,html.Screen,4_103_1,2023-09-06T19:38:05.387Z,,0,,,NaN,,,,,,false,,,,917542.8000000715,917542.5,,917541.8000000715,,917557.897,8,400,,,
break_continue,html.Screen,4_103_2,2023-09-06T19:38:05.387Z,,0,,,NaN,,,,,,false,,,,917543.2000000477,917543.1000000238,,917543,,917557.897,8,400,,,
sequence,flow.Sequence,4_103,2023-09-06T19:38:05.388Z,,0,,,2668.39100002381,completion,,,,,false,,,,917543.3999999762,917543.1000000238,914858.123,914866.8999999762,914874.709,917557.897,8,400,,,
trial,html.Screen,4_104_0,2023-09-06T19:38:08.878Z,,0,3,,3475.7030000238447,response,ISIC_0065597.JPG,5,ISIC_2418276.JPG,ISIC_0065597.JPG,false,1,keypress(m),500,921033.8999999762,921033.6000000238,917541.293,917543.5,917557.897,921041.084,8,400,5,,ISIC_2418276.JPG
break,html.Screen,4_104_1,2023-09-06T19:38:08.879Z,,0,,,NaN,,,,,,false,,,,921034.8999999762,921034.6000000238,,921034.1000000238,,921041.084,8,400,,,
break_continue,html.Screen,4_104_2,2023-09-06T19:38:08.880Z,,0,,,NaN,,,,,,false,,,,921035.5,921035.2000000477,,921035.1000000238,,921041.084,8,400,,,
sequence,flow.Sequence,4_104,2023-09-06T19:38:08.880Z,,0,,,3477.3030000476865,completion,,,,,false,,,,921035.7000000477,921035.2000000477,917541.293,917543.5,917557.897,921041.084,8,400,,,
trial,html.Screen,4_105_0,2023-09-06T19:38:14.326Z,,0,3,,5440.116000047652,response,ISIC_9087221.JPG,5,ISIC_0031582.JPG,ISIC_0031582.JPG,false,0,keypress(z),500,926481.5,926481.2000000477,921024.398,921035.8000000715,921041.084,926490.796,8,400,6,,ISIC_9087221.JPG
break,html.Screen,4_105_1,2023-09-06T19:38:14.326Z,,0,,,NaN,,,,,,false,,,,926482.3000000715,926482.1000000238,,926481.6000000238,,926490.796,8,400,,,
break_continue,html.Screen,4_105_2,2023-09-06T19:38:14.327Z,,0,,,NaN,,,,,,false,,,,926482.6000000238,926482.5,,926482.3999999762,,926490.796,8,400,,,
sequence,flow.Sequence,4_105,2023-09-06T19:38:14.327Z,,0,,,5441.415999999968,completion,,,,,false,,,,926482.8000000715,926482.5,921024.398,921035.8000000715,921041.084,926490.796,8,400,,,
trial,html.Screen,4_106_0,2023-09-06T19:38:17.001Z,,0,3,,2666.103999976185,response,ISIC_2993032.JPG,4,ISIC_2167209.JPG,ISIC_2167209.JPG,false,0,keypress(z),500,929157.2000000477,929156.8999999762,926474.146,926482.8999999762,926490.796,929174.194,8,400,7,,ISIC_2993032.JPG
break,html.Screen,4_106_1,2023-09-06T19:38:17.002Z,,0,,,NaN,,,,,,false,,,,929158,929157.8000000715,,929157.3000000715,,929174.194,8,400,,,
break_continue,html.Screen,4_106_2,2023-09-06T19:38:17.003Z,,0,,,NaN,,,,,,false,,,,929158.3999999762,929158.3000000715,,929158.2000000477,,929174.194,8,400,,,
sequence,flow.Sequence,4_106,2023-09-06T19:38:17.003Z,,0,,,2667.5040000715526,completion,,,,,false,,,,929158.6000000238,929158.3000000715,926474.146,926482.8999999762,926490.796,929174.194,8,400,,,
trial,html.Screen,4_107_0,2023-09-06T19:38:19.805Z,,0,3,,2786.2059999761404,response,ISIC_0060773.JPG,6,ISIC_0024999.JPG,ISIC_0060773.JPG,false,1,keypress(m),500,931960.6000000238,931960.3999999762,929157.312,929158.7000000477,929174.194,931973.907,8,400,8,,ISIC_0024999.JPG
break,html.Screen,4_107_1,2023-09-06T19:38:19.806Z,,0,,,NaN,,,,,,false,,,,931961.6000000238,931961.3999999762,,931960.7000000477,,931973.907,8,400,,,
break_continue,html.Screen,4_107_2,2023-09-06T19:38:19.806Z,,0,,,NaN,,,,,,false,,,,931962,931961.8999999762,,931961.8000000715,,931973.907,8,400,,,
sequence,flow.Sequence,4_107,2023-09-06T19:38:19.806Z,,0,,,2787.7059999761404,completion,,,,,false,,,,931962.1000000238,931961.8999999762,929157.312,929158.7000000477,929174.194,931973.907,8,400,,,
trial,html.Screen,4_108_0,2023-09-06T19:38:22.872Z,,0,3,,3053.893000071519,response,ISIC_1185006.JPG,5,ISIC_2209697.JPG,ISIC_1185006.JPG,false,1,keypress(m),500,935028.1000000238,935027.8000000715,931957.168,931962.2000000477,931973.907,935040.406,8,400,9,,ISIC_2209697.JPG
break,html.Screen,4_108_1,2023-09-06T19:38:22.873Z,,0,,,NaN,,,,,,false,,,,935029,935028.8000000715,,935028.3000000715,,935040.406,8,400,,,
break_continue,html.Screen,4_108_2,2023-09-06T19:38:22.873Z,,0,,,NaN,,,,,,false,,,,935029.3000000715,935029.2000000477,,935029.2000000477,,935040.406,8,400,,,
sequence,flow.Sequence,4_108,2023-09-06T19:38:22.874Z,,0,,,3055.293000047677,completion,,,,,false,,,,935029.5,935029.2000000477,931957.168,931962.2000000477,931973.907,935040.406,8,400,,,
trial,html.Screen,4_109_0,2023-09-06T19:38:25.536Z,,0,3,,2651.694000023883,response,ISIC_8064866.JPG,5,ISIC_4915897.JPG,ISIC_4915897.JPG,false,0,keypress(z),500,937692.3000000715,937692.1000000238,935023.66,935029.6000000238,935040.406,937706.917,8,400,10,,ISIC_8064866.JPG
break,html.Screen,4_109_1,2023-09-06T19:38:25.537Z,,0,,,NaN,,,,,,false,,,,937693.2000000477,937693,,937692.6000000238,,937706.917,8,400,,,
break_continue,html.Screen,4_109_2,2023-09-06T19:38:25.538Z,,0,,,NaN,,,,,,false,,,,937693.5,937693.3999999762,,937693.3999999762,,937706.917,8,400,,,
sequence,flow.Sequence,4_109,2023-09-06T19:38:25.538Z,,0,,,2652.993999976199,completion,,,,,false,,,,937693.7000000477,937693.3999999762,935023.66,935029.6000000238,935040.406,937706.917,8,400,,,
trial,html.Screen,4_110_0,2023-09-06T19:38:28.356Z,,0,3,,2804.4829999761423,response,ISIC_0066143.JPG,4,ISIC_4876378.JPG,ISIC_4876378.JPG,false,0,keypress(z),500,940511.8000000715,940511.3999999762,937690.202,937693.8000000715,937706.917,940523.38,8,400,11,,ISIC_0066143.JPG
break,html.Screen,4_110_1,2023-09-06T19:38:28.357Z,,0,,,NaN,,,,,,false,,,,940512.8999999762,940512.6000000238,,940512,,940523.38,8,400,,,
break_continue,html.Screen,4_110_2,2023-09-06T19:38:28.357Z,,0,,,NaN,,,,,,false,,,,940513.3000000715,940513.1000000238,,940513,,940523.38,8,400,,,
sequence,flow.Sequence,4_110,2023-09-06T19:38:28.358Z,,0,,,2806.183000023826,completion,,,,,false,,,,940513.6000000238,940513.1000000238,937690.202,937693.7000000477,937706.917,940523.38,8,400,,,
trial,html.Screen,4_111_0,2023-09-06T19:38:30.991Z,,0,3,,2622.220000023837,response,ISIC_8010862.JPG,4,ISIC_9765760.JPG,ISIC_8010862.JPG,false,1,keypress(m),500,943145.8999999762,943145.6000000238,940506.766,940513.7000000477,940523.38,943156.681,8,400,12,,ISIC_9765760.JPG
break,html.Screen,4_111_1,2023-09-06T19:38:30.992Z,,0,,,NaN,,,,,,false,,,,943147.2000000477,943146.8999999762,,943146.1000000238,,943156.681,8,400,,,
break_continue,html.Screen,4_111_2,2023-09-06T19:38:30.993Z,,0,,,NaN,,,,,,false,,,,943147.6000000238,943147.5,,943147.3999999762,,943156.681,8,400,,,
sequence,flow.Sequence,4_111,2023-09-06T19:38:30.993Z,,0,,,2624.1199999999953,completion,,,,,false,,,,943147.8000000715,943147.5,940506.766,940513.6000000238,940523.38,943156.681,8,400,,,
trial,html.Screen,4_112_0,2023-09-06T19:38:33.651Z,,0,3,,2648.6190000715433,response,ISIC_1870415.JPG,4,ISIC_0033063.JPG,ISIC_0033063.JPG,false,0,keypress(z),500,945805.6000000238,945805.3000000715,943139.945,943147.8999999762,943156.681,945823.128,8,400,13,,ISIC_1870415.JPG
break,html.Screen,4_112_1,2023-09-06T19:38:33.652Z,,0,,,NaN,,,,,,false,,,,945806.8000000715,945806.5,,945805.8000000715,,945823.128,8,400,,,
break_continue,html.Screen,4_112_2,2023-09-06T19:38:33.652Z,,0,,,NaN,,,,,,false,,,,945807.2000000477,945807,,945806.8999999762,,945823.128,8,400,,,
sequence,flow.Sequence,4_112,2023-09-06T19:38:33.652Z,,0,,,2650.3190000000177,completion,,,,,false,,,,945807.3999999762,945807,943139.945,943147.8999999762,943156.681,945823.128,8,400,,,
trial,html.Screen,4_113_0,2023-09-06T19:38:36.214Z,,0,3,,2546.1720000714995,response,ISIC_1788979.JPG,5,ISIC_0010965.JPG,ISIC_1788979.JPG,false,1,keypress(m),500,948369.5,948369.3000000715,945790.215,945807.5,945823.128,948373.006,8,400,14,,ISIC_0010965.JPG
break,html.Screen,4_113_1,2023-09-06T19:38:36.216Z,,0,,,NaN,,,,,,false,,,,948370.7000000477,948370.3999999762,,948369.8000000715,,948373.006,8,400,,,
break_continue,html.Screen,4_113_2,2023-09-06T19:38:36.216Z,,0,,,NaN,,,,,,false,,,,948371.2000000477,948371,,948370.8000000715,,948373.006,8,400,,,
sequence,flow.Sequence,4_113,2023-09-06T19:38:36.216Z,,0,,,2547.871999999974,completion,,,,,false,,,,948371.3999999762,948371,945790.215,945807.5,945823.128,948373.006,8,400,,,
trial,html.Screen,4_114_0,2023-09-06T19:38:39.004Z,,0,3,,2786.2940000714734,response,ISIC_0026802.JPG,5,ISIC_1452549.JPG,ISIC_1452549.JPG,false,0,keypress(z),500,951159.6000000238,951159.3000000715,948356.391,948371.5,948373.006,951172.908,8,400,15,,ISIC_0026802.JPG
break,html.Screen,4_114_1,2023-09-06T19:38:39.005Z,,0,,,NaN,,,,,,false,,,,951160.3999999762,951160.1000000238,,951159.7000000477,,951172.908,8,400,,,
break_continue,html.Screen,4_114_2,2023-09-06T19:38:39.006Z,,0,,,NaN,,,,,,false,,,,951160.7000000477,951160.6000000238,,951160.5,,951172.908,8,400,,,
sequence,flow.Sequence,4_114,2023-09-06T19:38:39.006Z,,0,,,2787.5940000237897,completion,,,,,false,,,,951160.8999999762,951160.6000000238,948356.391,948371.3999999762,948373.006,951172.908,8,400,,,
trial,html.Screen,4_115_0,2023-09-06T19:38:41.840Z,,0,3,,2821.692000023788,response,ISIC_0953675.JPG,5,ISIC_0053485.JPG,ISIC_0953675.JPG,false,1,keypress(m),500,953994.8000000715,953994.6000000238,951156.162,951161,951172.908,954006.164,8,400,16,,ISIC_0053485.JPG
break,html.Screen,4_115_1,2023-09-06T19:38:41.841Z,,0,,,NaN,,,,,,false,,,,953995.8999999762,953995.7000000477,,953995,,954006.164,8,400,,,
break_continue,html.Screen,4_115_2,2023-09-06T19:38:41.841Z,,0,,,NaN,,,,,,false,,,,953996.1000000238,953996,,953995.8999999762,,954006.164,8,400,,,
sequence,flow.Sequence,4_115,2023-09-06T19:38:41.841Z,,0,,,2823.091999999946,completion,,,,,false,,,,953996.3000000715,953996,951156.162,951161,951172.908,954006.164,8,400,,,
trial,html.Screen,4_116_0,2023-09-06T19:38:44.567Z,,0,3,,2715.8360000000102,response,ISIC_3747979.JPG,6,ISIC_0000413.JPG,ISIC_3747979.JPG,false,1,keypress(m),500,956722.2000000477,956722,953989.715,953996.3999999762,954006.164,956739.248,8,400,17,,ISIC_0000413.JPG
break,html.Screen,4_116_1,2023-09-06T19:38:44.568Z,,0,,,NaN,,,,,,false,,,,956723.1000000238,956722.8999999762,,956722.3999999762,,956739.248,8,400,,,
break_continue,html.Screen,4_116_2,2023-09-06T19:38:44.568Z,,0,,,NaN,,,,,,false,,,,956723.5,956723.3999999762,,956723.3000000715,,956739.248,8,400,,,
sequence,flow.Sequence,4_116,2023-09-06T19:38:44.569Z,,0,,,2717.2359999761684,completion,,,,,false,,,,956723.8000000715,956723.3999999762,953989.715,953996.3999999762,954006.164,956739.248,8,400,,,
trial,html.Screen,4_117_0,2023-09-06T19:38:47.499Z,,0,3,,2914.4520000476623,response,ISIC_0046932.JPG,5,ISIC_0026204.JPG,ISIC_0046932.JPG,false,1,keypress(m),500,959654,959653.7000000477,956722.625,956723.8999999762,956739.248,959655.805,8,400,18,,ISIC_0026204.JPG
break,html.Screen,4_117_1,2023-09-06T19:38:47.500Z,,0,,,NaN,,,,,,false,,,,959655,959654.8000000715,,959654.1000000238,,959655.805,8,400,,,
break_continue,html.Screen,4_117_2,2023-09-06T19:38:47.500Z,,0,,,NaN,,,,,,false,,,,959655.5,959655.3000000715,,959655.1000000238,,959655.805,8,400,,,
sequence,flow.Sequence,4_117,2023-09-06T19:38:47.501Z,,0,,,2916.052000071504,completion,,,,,false,,,,959655.7000000477,959655.3000000715,956722.625,956723.8000000715,956739.248,959655.805,8,400,,,
trial,html.Screen,4_118_0,2023-09-06T19:38:50.383Z,,0,3,,2881.8950000476325,response,ISIC_0000313.JPG,5,ISIC_8484660.JPG,ISIC_0000313.JPG,false,1,keypress(m),500,962538,962537.7000000477,959639.218,959655.8000000715,959655.805,962556.71,8,400,19,,ISIC_8484660.JPG
break,html.Screen,4_118_1,2023-09-06T19:38:50.384Z,,0,,,NaN,,,,,,false,,,,962538.8999999762,962538.7000000477,,962538.2000000477,,962556.71,8,400,,,
break_continue,html.Screen,4_118_2,2023-09-06T19:38:50.384Z,,0,,,NaN,,,,,,false,,,,962539.2000000477,962539.1000000238,,962538.8999999762,,962556.71,8,400,,,
sequence,flow.Sequence,4_118,2023-09-06T19:38:50.384Z,,0,,,2883.2950000237906,completion,,,,,false,,,,962539.3000000715,962539.1000000238,959639.218,959655.7000000477,959655.805,962556.71,8,400,,,
trial,html.Screen,4_119_0,2023-09-06T19:38:53.287Z,,0,3,,2884.990000047721,response,ISIC_0026272.JPG,4,ISIC_3430447.JPG,ISIC_0026272.JPG,false,1,keypress(m),500,965442,965441.7000000477,962522.38,962539.5,962556.71,965455.463,8,400,20,,ISIC_3430447.JPG
break,html.Screen,4_119_1,2023-09-06T19:38:53.288Z,,0,,,NaN,,,,,,false,,,,965443.5,965443.1000000238,,965442.3000000715,,965455.463,8,400,,,
break_continue,html.Screen,4_119_2,2023-09-06T19:38:53.289Z,,0,,,NaN,,,,,,false,,,,965443.8999999762,965443.8000000715,,965443.6000000238,,965455.463,8,400,,,
sequence,flow.Sequence,4_119,2023-09-06T19:38:53.289Z,,0,,,2887.090000071563,completion,,,,,false,,,,965444,965443.8000000715,962522.38,962539.5,962556.71,965455.463,8,400,,,
trial,html.Screen,4_120_0,2023-09-06T19:38:56.542Z,,0,3,,3241.637000023853,response,ISIC_5992534.JPG,5,ISIC_5557025.JPG,ISIC_5557025.JPG,false,0,keypress(z),500,968697.5,968697.1000000238,965438.833,965444.2000000477,965455.463,968705.285,8,400,21,,ISIC_5992534.JPG
break,html.Screen,4_120_1,2023-09-06T19:38:56.544Z,,0,,,NaN,,,,,,false,,,,968698.8999999762,968698.5,,968697.7000000477,,968705.285,8,400,,,
break_continue,html.Screen,4_120_2,2023-09-06T19:38:56.544Z,,0,,,NaN,,,,,,false,,,,968699.5,968699.3000000715,,968699.1000000238,,968705.285,8,400,,,
sequence,flow.Sequence,4_120,2023-09-06T19:38:56.545Z,,0,,,3243.8370000715367,completion,,,,,false,,,,968699.6000000238,968699.3000000715,965438.833,965444.1000000238,965455.463,968705.285,8,400,,,
trial,html.Screen,4_121_0,2023-09-06T19:38:59.428Z,,0,3,,2877.2149999999674,response,ISIC_0034106.JPG,4,ISIC_9956400.JPG,ISIC_0034106.JPG,false,1,keypress(m),500,971582.7000000477,971582.5,968688.723,968699.8999999762,968705.285,971588.518,8,400,22,,ISIC_9956400.JPG
break,html.Screen,4_121_1,2023-09-06T19:38:59.428Z,,0,,,NaN,,,,,,false,,,,971583.6000000238,971583.3999999762,,971582.8000000715,,971588.518,8,400,,,
break_continue,html.Screen,4_121_2,2023-09-06T19:38:59.429Z,,0,,,NaN,,,,,,false,,,,971584,971583.8000000715,,971583.7000000477,,971588.518,8,400,,,
sequence,flow.Sequence,4_121,2023-09-06T19:38:59.429Z,,0,,,2878.515000071493,completion,,,,,false,,,,971584.1000000238,971583.8000000715,968688.723,968699.8000000715,968705.285,971588.518,8,400,,,
trial,html.Screen,4_122_0,2023-09-06T19:39:02.535Z,,0,3,,3100.98199999996,response,ISIC_4752144.JPG,5,ISIC_7008335.JPG,ISIC_4752144.JPG,false,1,keypress(m),500,974689.8000000715,974689.5,971571.83,971584.2000000477,971588.518,974705.081,8,400,23,,ISIC_7008335.JPG
break,html.Screen,4_122_1,2023-09-06T19:39:02.536Z,,0,,,NaN,,,,,,false,,,,974691.3999999762,974691,,974690,,974705.081,8,400,,,
break_continue,html.Screen,4_122_2,2023-09-06T19:39:02.537Z,,0,,,NaN,,,,,,false,,,,974691.8999999762,974691.7000000477,,974691.5,,974705.081,8,400,,,
sequence,flow.Sequence,4_122,2023-09-06T19:39:02.537Z,,0,,,3103.1820000476437,completion,,,,,false,,,,974692.1000000238,974691.7000000477,971571.83,971584.1000000238,971588.518,974705.081,8,400,,,
trial,html.Screen,4_123_0,2023-09-06T19:39:05.467Z,,0,3,,2917.119000047678,response,ISIC_3878174.JPG,5,ISIC_0007084.JPG,ISIC_0007084.JPG,false,0,keypress(z),500,977622.5,977622.2000000477,974688.326,974692.3000000715,974705.081,977638.211,8,400,24,,ISIC_3878174.JPG
break,html.Screen,4_123_1,2023-09-06T19:39:05.469Z,,0,,,NaN,,,,,,false,,,,977623.7000000477,977623.3000000715,,977622.7000000477,,977638.211,8,400,,,
break_continue,html.Screen,4_123_2,2023-09-06T19:39:05.469Z,,0,,,NaN,,,,,,false,,,,977624.3999999762,977624.2000000477,,977624.1000000238,,977638.211,8,400,,,
sequence,flow.Sequence,4_123,2023-09-06T19:39:05.470Z,,0,,,2919.119000047678,completion,,,,,false,,,,977624.7000000477,977624.2000000477,974688.326,974692.2000000477,974705.081,977638.211,8,400,,,
trial,html.Screen,4_124_0,2023-09-06T19:39:08.929Z,,0,3,,3445.8890000238316,response,ISIC_0026659.JPG,6,ISIC_8527092.JPG,ISIC_8527092.JPG,false,0,keypress(z),500,981084.3000000715,981084.1000000238,977621.537,977624.8999999762,977638.211,981088.023,8,400,25,,ISIC_0026659.JPG
break,html.Screen,4_124_1,2023-09-06T19:39:08.930Z,,0,,,NaN,,,,,,false,,,,981085.3000000715,981085,,981084.5,,981088.023,8,400,,,
break_continue,html.Screen,4_124_2,2023-09-06T19:39:08.931Z,,0,,,NaN,,,,,,false,,,,981085.8000000715,981085.3999999762,,981085.3000000715,,981088.023,8,400,,,
sequence,flow.Sequence,4_124,2023-09-06T19:39:08.931Z,,0,,,3447.188999976148,completion,,,,,false,,,,981086,981085.3999999762,977621.537,977624.7000000477,977638.211,981088.023,8,400,,,
trial,html.Screen,4_125_0,2023-09-06T19:39:11.719Z,,0,3,,2785.3769999761134,response,ISIC_5821293.JPG,6,ISIC_3463156.JPG,ISIC_3463156.JPG,false,0,keypress(z),500,983873.7000000477,983873.3999999762,981071.459,981086.1000000238,981088.023,983887.859,8,400,26,,ISIC_5821293.JPG
break,html.Screen,4_125_1,2023-09-06T19:39:11.720Z,,0,,,NaN,,,,,,false,,,,983875.3000000715,983874.8000000715,,983874,,983887.859,8,400,,,
break_continue,html.Screen,4_125_2,2023-09-06T19:39:11.721Z,,0,,,NaN,,,,,,false,,,,983875.8000000715,983875.6000000238,,983875.3999999762,,983887.859,8,400,,,
sequence,flow.Sequence,4_125,2023-09-06T19:39:11.721Z,,0,,,2787.577000023797,completion,,,,,false,,,,983876.1000000238,983875.6000000238,981071.459,981086.1000000238,981088.023,983887.859,8,400,,,
