sender,sender_type,sender_id,timestamp,meta,,blockNo,condition,duration,ended_on,img_left,img_reveal,img_right,loser,practice,response,response_action,selection_duration,time_commit,time_end,time_render,time_run,time_show,time_switch,total_blocks,total_trials,trialNo,url,winner
informed_consent,html.Screen,0,2023-11-02T16:16:43.267Z,"{""labjs_version"":""20.2.4"",""labjs_build"":{""flavor"":""production"",""commit"":""f5b4a49f956347addd546a832a3327688c2c0fef""},""location"":""https://run.pavlovia.org/MurrayBennett/melanoma-2afc/?participant=67341&platform=sona"",""userAgent"":""Mozilla/5.0 (Macintosh; Intel Mac OS X 10_15_7) AppleWebKit/537.36 (KHTML, like Gecko) Chrome/117.0.0.0 Safari/537.36"",""platform"":""MacIntel"",""language"":""en-US"",""locale"":""en-US"",""timeZone"":""America/Chicago"",""timezoneOffset"":300,""screen_width"":1440,""screen_height"":900,""scroll_width"":868,""scroll_height"":672,""window_innerWidth"":868,""window_innerHeight"":720,""devicePixelRatio"":1}",,,,5214.013,response,,,,,,consent,click button,,7307.5,7305,1507.642,2092.5,2090.987,7341.585,,,,"{""participant"":""67341"",""platform"":""sona""}",
Welcome,html.Screen,1,2023-11-02T16:16:44.295Z,,,,uniform,991.915,response,,,,,,continue,click button,,8335.70000000298,8333.5,7291.584,7307.70000000298,7341.585,8341.605,,,,,
trial,html.Screen,2_0_0,2023-11-02T16:16:48.013Z,,0,0,,3711.0950000029807,response,ISIC_0063388.JPG,,ISIC_0025593.JPG,ISIC_0025593.JPG,true,0,keypress(z),500,12052.900000002235,12052.70000000298,8324.938,8335.800000000745,8341.605,12058.346,1,6,1,,ISIC_0063388.JPG
sequence,flow.Sequence,2_0,2023-11-02T16:16:48.013Z,,0,,,3711.0950000029807,completion,,,,,true,,,,12053.400000002235,12052.70000000298,8324.938,8335.800000000745,8341.605,12058.346,1,6,,,
trial,html.Screen,2_1_0,2023-11-02T16:16:53.346Z,,0,0,,5327.554000002236,response,ISIC_0028178.JPG,,ISIC_1309015.JPG,ISIC_0028178.JPG,true,1,keypress(m),500,17386.10000000149,17385.900000002235,12041.679,12053.400000002235,12058.346,17392.38,1,6,2,,ISIC_1309015.JPG
sequence,flow.Sequence,2_1,2023-11-02T16:16:53.346Z,,0,,,5327.554000002236,completion,,,,,true,,,,17386.300000000745,17385.900000002235,12041.679,12053.400000002235,12058.346,17392.38,1,6,,,
trial,html.Screen,2_2_0,2023-11-02T16:16:56.900Z,,0,0,,3548.320000002979,response,ISIC_3314853.JPG,,ISIC_0031128.JPG,ISIC_3314853.JPG,true,1,keypress(m),500,20940.900000002235,20940.70000000298,17375.713,17386.400000002235,17392.38,20942.451,1,6,3,,ISIC_0031128.JPG
sequence,flow.Sequence,2_2,2023-11-02T16:16:56.900Z,,0,,,3548.320000002979,completion,,,,,true,,,,20941,20940.70000000298,17375.713,17386.400000002235,17392.38,20942.451,1,6,,,
trial,html.Screen,2_3_0,2023-11-02T16:17:00.040Z,,0,0,,3138.048999999999,response,ISIC_0031612.JPG,,ISIC_8980141.JPG,ISIC_8980141.JPG,true,0,keypress(z),500,24080.60000000149,24080.5,20925.784,20941.10000000149,20942.451,24092.514,1,6,4,,ISIC_0031612.JPG
sequence,flow.Sequence,2_3,2023-11-02T16:17:00.040Z,,0,,,3138.048999999999,completion,,,,,true,,,,24080.900000002235,24080.5,20925.784,20941.10000000149,20942.451,24092.514,1,6,,,
trial,html.Screen,2_4_0,2023-11-02T16:17:02.426Z,,0,0,,2373.786000000746,response,ISIC_1197737.JPG,,ISIC_9721604.JPG,ISIC_1197737.JPG,true,1,keypress(m),500,26466.60000000149,26466.300000000745,24075.847,24081,24092.514,26475.895,1,6,5,,ISIC_9721604.JPG
sequence,flow.Sequence,2_4,2023-11-02T16:17:02.426Z,,0,,,2373.786000000746,completion,,,,,true,,,,26467,26466.300000000745,24075.847,24081,24092.514,26475.895,1,6,,,
trial,html.Screen,2_5_0,2023-11-02T16:17:04.973Z,,0,0,,2537.9050000007446,response,ISIC_0025346.JPG,,ISIC_0010681.JPG,ISIC_0010681.JPG,true,0,keypress(z),500,29014,29013.800000000745,26459.228,26467.20000000298,26475.895,29026.463,1,6,6,,ISIC_0025346.JPG
sequence,flow.Sequence,2_5,2023-11-02T16:17:04.974Z,,0,,,2537.9050000007446,completion,,,,,true,,,,29014.300000000745,29013.800000000745,26459.228,26467.20000000298,26475.895,29026.463,1,6,,,
loop,flow.Loop,2,2023-11-02T16:17:04.974Z,,,,,20672.195000000745,completion,,,,,true,,,,29014.5,29013.800000000745,8324.938,8335.70000000298,8341.605,29026.463,1,6,,,
exp_instructions,html.Screen,3,2023-11-02T16:17:11.183Z,,,,,6194.837000000745,response,,,,,,continue,keypress(Space),,35223.60000000149,35221.300000000745,29009.796,29014.60000000149,29026.463,35226.587,,,,,
trial,html.Screen,4_0_0,2023-11-02T16:17:14.053Z,,0,1,,2866.9130000000005,response,ISIC_0248628.JPG,6,ISIC_1452314.JPG,ISIC_1452314.JPG,false,0,keypress(z),500,38093.800000000745,38093.5,35209.92,35223.70000000298,35226.587,38110.545,8,400,1,,ISIC_0248628.JPG
break,html.Screen,4_0_1,2023-11-02T16:17:14.054Z,,0,,,NaN,,,,,,false,,,,38095.20000000298,38094.900000002235,,38094,,38110.545,8,400,,,
break_continue,html.Screen,4_0_2,2023-11-02T16:17:14.055Z,,0,,,NaN,,,,,,false,,,,38096.10000000149,38095.70000000298,,38095.400000002235,,38110.545,8,400,,,
sequence,flow.Sequence,4_0,2023-11-02T16:17:14.055Z,,0,,,2869.1130000029807,completion,,,,,false,,,,38096.300000000745,38095.70000000298,35209.92,35223.70000000298,35226.587,38110.545,8,400,,,
trial,html.Screen,4_1_0,2023-11-02T16:17:16.669Z,,0,1,,2599.155000002982,response,ISIC_0024246.JPG,6,ISIC_0031548.JPG,ISIC_0024246.JPG,false,1,keypress(m),500,40709.800000000745,40709.70000000298,38093.878,38096.5,38110.545,40710.597,8,400,2,,ISIC_0031548.JPG
break,html.Screen,4_1_1,2023-11-02T16:17:16.669Z,,0,,,NaN,,,,,,false,,,,40710.300000000745,40710.10000000149,,40709.900000002235,,40710.597,8,400,,,
break_continue,html.Screen,4_1_2,2023-11-02T16:17:16.669Z,,0,,,NaN,,,,,,false,,,,40710.5,40710.400000002235,,40710.400000002235,,40710.597,8,400,,,
sequence,flow.Sequence,4_1,2023-11-02T16:17:16.670Z,,0,,,2599.855000002237,completion,,,,,false,,,,40710.5,40710.400000002235,38093.878,38096.400000002235,38110.545,40710.597,8,400,,,
trial,html.Screen,4_2_0,2023-11-02T16:17:18.689Z,,0,1,,2019.7030000007435,response,ISIC_5805349.JPG,9,ISIC_9052500.JPG,ISIC_9052500.JPG,false,0,keypress(z),500,42730.400000002235,42730.300000000745,40693.93,40710.60000000149,40710.597,42743.971,8,400,3,,ISIC_5805349.JPG
break,html.Screen,4_2_1,2023-11-02T16:17:18.690Z,,0,,,NaN,,,,,,false,,,,42730.800000000745,42730.70000000298,,42730.5,,42743.971,8,400,,,
break_continue,html.Screen,4_2_2,2023-11-02T16:17:18.690Z,,0,,,NaN,,,,,,false,,,,42731,42730.900000002235,,42730.900000002235,,42743.971,8,400,,,
sequence,flow.Sequence,4_2,2023-11-02T16:17:18.690Z,,0,,,2020.3030000022336,completion,,,,,false,,,,42731.10000000149,42730.900000002235,40693.93,40710.60000000149,40710.597,42743.971,8,400,,,
trial,html.Screen,4_3_0,2023-11-02T16:17:21.062Z,,0,1,,2358.9290000022374,response,ISIC_8813283.JPG,6,ISIC_1471329.JPG,ISIC_8813283.JPG,false,1,keypress(m),500,45103.10000000149,45102.900000002235,42727.304,42731.400000002235,42743.971,45110.685,8,400,4,,ISIC_1471329.JPG
break,html.Screen,4_3_1,2023-11-02T16:17:21.063Z,,0,,,NaN,,,,,,false,,,,45103.70000000298,45103.60000000149,,45103.400000002235,,45110.685,8,400,,,
break_continue,html.Screen,4_3_2,2023-11-02T16:17:21.063Z,,0,,,NaN,,,,,,false,,,,45104,45103.900000002235,,45103.800000000745,,45110.685,8,400,,,
sequence,flow.Sequence,4_3,2023-11-02T16:17:21.063Z,,0,,,2359.9290000022374,completion,,,,,false,,,,45104.10000000149,45103.900000002235,42727.304,42731.10000000149,42743.971,45110.685,8,400,,,
trial,html.Screen,4_4_0,2023-11-02T16:17:23.402Z,,0,1,,2331.9150000014924,response,ISIC_0437978.JPG,6,ISIC_0066483.JPG,ISIC_0066483.JPG,false,0,keypress(z),500,47442.800000000745,47442.60000000149,45094.018,45104.10000000149,45110.685,47444.065,8,400,5,,ISIC_0437978.JPG
break,html.Screen,4_4_1,2023-11-02T16:17:23.402Z,,0,,,NaN,,,,,,false,,,,47443.300000000745,47443.20000000298,,47443,,47444.065,8,400,,,
break_continue,html.Screen,4_4_2,2023-11-02T16:17:23.402Z,,0,,,NaN,,,,,,false,,,,47443.5,47443.5,,47443.300000000745,,47444.065,8,400,,,
sequence,flow.Sequence,4_4,2023-11-02T16:17:23.403Z,,0,,,2332.8150000000023,completion,,,,,false,,,,47443.70000000298,47443.5,45094.018,45104.10000000149,45110.685,47444.065,8,400,,,
trial,html.Screen,4_5_0,2023-11-02T16:17:25.680Z,,0,1,,2276.9349999999977,response,ISIC_0004509.JPG,7,ISIC_3936223.JPG,ISIC_0004509.JPG,false,1,keypress(m),500,49721.20000000298,49721,47427.398,47443.70000000298,47444.065,49727.879,8,400,6,,ISIC_3936223.JPG
break,html.Screen,4_5_1,2023-11-02T16:17:25.681Z,,0,,,NaN,,,,,,false,,,,49722,49721.800000000745,,49721.400000002235,,49727.879,8,400,,,
break_continue,html.Screen,4_5_2,2023-11-02T16:17:25.681Z,,0,,,NaN,,,,,,false,,,,49722.300000000745,49722.20000000298,,49722.10000000149,,49727.879,8,400,,,
sequence,flow.Sequence,4_5,2023-11-02T16:17:25.681Z,,0,,,2278.135000002978,completion,,,,,false,,,,49722.5,49722.20000000298,47427.398,47443.70000000298,47444.065,49727.879,8,400,,,
trial,html.Screen,4_6_0,2023-11-02T16:17:28.051Z,,0,1,,2363.9210000007442,response,ISIC_6176182.JPG,7,ISIC_7169653.JPG,ISIC_6176182.JPG,false,1,keypress(m),500,52092,52091.800000000745,49711.212,49722.70000000298,49727.879,52094.593,8,400,7,,ISIC_7169653.JPG
break,html.Screen,4_6_1,2023-11-02T16:17:28.051Z,,0,,,NaN,,,,,,false,,,,52092.5,52092.400000002235,,52092.20000000298,,52094.593,8,400,,,
break_continue,html.Screen,4_6_2,2023-11-02T16:17:28.052Z,,0,,,NaN,,,,,,false,,,,52092.800000000745,52092.800000000745,,52092.70000000298,,52094.593,8,400,,,
sequence,flow.Sequence,4_6,2023-11-02T16:17:28.052Z,,0,,,2364.9210000007442,completion,,,,,false,,,,52093,52092.800000000745,49711.212,49722.60000000149,49727.879,52094.593,8,400,,,
trial,html.Screen,4_7_0,2023-11-02T16:17:30.728Z,,0,1,,2674.7070000007443,response,ISIC_0010783.JPG,5,ISIC_1018265.JPG,ISIC_0010783.JPG,false,1,keypress(m),500,54769.60000000149,54769.300000000745,52077.926,52093.10000000149,52094.593,54777.98,8,400,8,,ISIC_1018265.JPG
break,html.Screen,4_7_1,2023-11-02T16:17:30.729Z,,0,,,NaN,,,,,,false,,,,54770.20000000298,54770,,54769.800000000745,,54777.98,8,400,,,
break_continue,html.Screen,4_7_2,2023-11-02T16:17:30.729Z,,0,,,NaN,,,,,,false,,,,54770.60000000149,54770.5,,54770.300000000745,,54777.98,8,400,,,
sequence,flow.Sequence,4_7,2023-11-02T16:17:30.730Z,,0,,,2675.9069999999992,completion,,,,,false,,,,54770.800000000745,54770.5,52077.926,52093,52094.593,54777.98,8,400,,,
trial,html.Screen,4_8_0,2023-11-02T16:17:33.054Z,,0,1,,2317.019999999997,response,ISIC_0071778.JPG,8,ISIC_0024268.JPG,ISIC_0024268.JPG,false,0,keypress(z),500,57095.300000000745,57095,54761.313,54771,54777.98,57111.36,8,400,9,,ISIC_0071778.JPG
break,html.Screen,4_8_1,2023-11-02T16:17:33.055Z,,0,,,NaN,,,,,,false,,,,57096.20000000298,57095.900000002235,,57095.5,,57111.36,8,400,,,
break_continue,html.Screen,4_8_2,2023-11-02T16:17:33.055Z,,0,,,NaN,,,,,,false,,,,57096.60000000149,57096.5,,57096.400000002235,,57111.36,8,400,,,
sequence,flow.Sequence,4_8,2023-11-02T16:17:33.056Z,,0,,,2318.519999999997,completion,,,,,false,,,,57096.900000002235,57096.5,54761.313,54770.900000002235,54777.98,57111.36,8,400,,,
trial,html.Screen,4_9_0,2023-11-02T16:17:35.508Z,,0,1,,2438.0400000022346,response,ISIC_2146346.JPG,5,ISIC_0064761.JPG,ISIC_2146346.JPG,false,1,keypress(m),500,59549.70000000298,59549.400000002235,57094.693,57097.10000000149,57111.36,59561.908,8,400,10,,ISIC_0064761.JPG
break,html.Screen,4_9_1,2023-11-02T16:17:35.509Z,,0,,,NaN,,,,,,false,,,,59550.20000000298,59550.10000000149,,59549.800000000745,,59561.908,8,400,,,
break_continue,html.Screen,4_9_2,2023-11-02T16:17:35.509Z,,0,,,NaN,,,,,,false,,,,59550.300000000745,59550.20000000298,,59550.20000000298,,59561.908,8,400,,,
sequence,flow.Sequence,4_9,2023-11-02T16:17:35.509Z,,0,,,2438.8400000029797,completion,,,,,false,,,,59550.400000002235,59550.20000000298,57094.693,57097,57111.36,59561.908,8,400,,,
trial,html.Screen,4_10_0,2023-11-02T16:17:37.911Z,,0,1,,2390.292000002977,response,ISIC_0024718.JPG,4,ISIC_7489895.JPG,ISIC_0024718.JPG,false,1,keypress(m),500,61952.300000000745,61952.20000000298,59545.241,59550.5,59561.908,61978.623,8,400,11,,ISIC_7489895.JPG
break,html.Screen,4_10_1,2023-11-02T16:17:37.912Z,,0,,,NaN,,,,,,false,,,,61953,61952.800000000745,,61952.5,,61978.623,8,400,,,
break_continue,html.Screen,4_10_2,2023-11-02T16:17:37.912Z,,0,,,NaN,,,,,,false,,,,61953.400000002235,61953.20000000298,,61953.20000000298,,61978.623,8,400,,,
sequence,flow.Sequence,4_10,2023-11-02T16:17:37.912Z,,0,,,2391.292000002977,completion,,,,,false,,,,61953.5,61953.20000000298,59545.241,59550.5,59561.908,61978.623,8,400,,,
trial,html.Screen,4_11_0,2023-11-02T16:17:40.411Z,,0,1,,2473.4770000014905,response,ISIC_4079108.JPG,5,ISIC_0029652.JPG,ISIC_0029652.JPG,false,0,keypress(z),500,64452.300000000745,64452.10000000149,61961.956,61953.60000000149,61978.623,64462.006,8,400,12,,ISIC_4079108.JPG
break,html.Screen,4_11_1,2023-11-02T16:17:40.411Z,,0,,,NaN,,,,,,false,,,,64452.800000000745,64452.60000000149,,64452.400000002235,,64462.006,8,400,,,
break_continue,html.Screen,4_11_2,2023-11-02T16:17:40.412Z,,0,,,NaN,,,,,,false,,,,64453,64453,,64452.800000000745,,64462.006,8,400,,,
sequence,flow.Sequence,4_11,2023-11-02T16:17:40.412Z,,0,,,2474.3770000000004,completion,,,,,false,,,,64453.10000000149,64453,61961.956,61953.60000000149,61978.623,64462.006,8,400,,,
trial,html.Screen,4_12_0,2023-11-02T16:17:42.672Z,,0,1,,2251.294000000744,response,ISIC_0056047.JPG,5,ISIC_2967024.JPG,ISIC_0056047.JPG,false,1,keypress(m),500,66713.60000000149,66713.30000000075,64445.339,64453.20000000298,64462.006,66728.718,8,400,13,,ISIC_2967024.JPG
break,html.Screen,4_12_1,2023-11-02T16:17:42.673Z,,0,,,NaN,,,,,,false,,,,66714.30000000075,66714.10000000149,,66713.80000000075,,66728.718,8,400,,,
break_continue,html.Screen,4_12_2,2023-11-02T16:17:42.673Z,,0,,,NaN,,,,,,false,,,,66714.70000000298,66714.60000000149,,66714.40000000224,,66728.718,8,400,,,
sequence,flow.Sequence,4_12,2023-11-02T16:17:42.673Z,,0,,,2252.594000001489,completion,,,,,false,,,,66714.90000000224,66714.60000000149,64445.339,64453.20000000298,64462.006,66728.718,8,400,,,
trial,html.Screen,4_13_0,2023-11-02T16:17:45.062Z,,0,1,,2374.5820000007516,response,ISIC_8956001.JPG,7,ISIC_0024256.JPG,ISIC_0024256.JPG,false,0,keypress(z),500,69103.60000000149,69103.30000000075,66712.051,66715,66728.718,69112.702,8,400,14,,ISIC_8956001.JPG
break,html.Screen,4_13_1,2023-11-02T16:17:45.063Z,,0,,,NaN,,,,,,false,,,,69104.30000000075,69104.10000000149,,69103.70000000298,,69112.702,8,400,,,
break_continue,html.Screen,4_13_2,2023-11-02T16:17:45.063Z,,0,,,NaN,,,,,,false,,,,69104.60000000149,69104.5,,69104.30000000075,,69112.702,8,400,,,
sequence,flow.Sequence,4_13,2023-11-02T16:17:45.063Z,,0,,,2375.7820000000065,completion,,,,,false,,,,69104.80000000075,69104.5,66712.051,66715,66728.718,69112.702,8,400,,,
trial,html.Screen,4_14_0,2023-11-02T16:17:47.501Z,,0,1,,2429.3980000014853,response,ISIC_5787517.JPG,5,ISIC_0054599.JPG,ISIC_0054599.JPG,false,0,keypress(z),500,71542.30000000075,71542.10000000149,69096.035,69104.90000000224,69112.702,71546.084,8,400,15,,ISIC_5787517.JPG
break,html.Screen,4_14_1,2023-11-02T16:17:47.501Z,,0,,,NaN,,,,,,false,,,,71543,71542.80000000075,,71542.40000000224,,71546.084,8,400,,,
break_continue,html.Screen,4_14_2,2023-11-02T16:17:47.502Z,,0,,,NaN,,,,,,false,,,,71543.30000000075,71543.10000000149,,71543.10000000149,,71546.084,8,400,,,
sequence,flow.Sequence,4_14,2023-11-02T16:17:47.502Z,,0,,,2430.3980000014853,completion,,,,,false,,,,71543.40000000224,71543.10000000149,69096.035,69104.90000000224,69112.702,71546.084,8,400,,,
trial,html.Screen,4_15_0,2023-11-02T16:17:49.922Z,,0,1,,2417.6160000029777,response,ISIC_4732684.JPG,8,ISIC_5486725.JPG,ISIC_4732684.JPG,false,1,keypress(m),500,73964,73963.70000000298,71529.417,71543.5,71546.084,73979.466,8,400,16,,ISIC_5486725.JPG
break,html.Screen,4_15_1,2023-11-02T16:17:49.923Z,,0,,,NaN,,,,,,false,,,,73964.70000000298,73964.5,,73964.10000000149,,73979.466,8,400,,,
break_continue,html.Screen,4_15_2,2023-11-02T16:17:49.923Z,,0,,,NaN,,,,,,false,,,,73965.10000000149,73964.90000000224,,73964.80000000075,,73979.466,8,400,,,
sequence,flow.Sequence,4_15,2023-11-02T16:17:49.924Z,,0,,,2418.8160000022326,completion,,,,,false,,,,73965.30000000075,73964.90000000224,71529.417,71543.5,71546.084,73979.466,8,400,,,
trial,html.Screen,4_16_0,2023-11-02T16:17:52.360Z,,0,1,,2421.73400000298,response,ISIC_0033325.JPG,5,ISIC_3296136.JPG,ISIC_0033325.JPG,false,1,keypress(m),500,76401.30000000075,76401.20000000298,73962.799,73965.40000000224,73979.466,76412.848,8,400,17,,ISIC_3296136.JPG
break,html.Screen,4_16_1,2023-11-02T16:17:52.360Z,,0,,,NaN,,,,,,false,,,,76402,76401.90000000224,,76401.60000000149,,76412.848,8,400,,,
break_continue,html.Screen,4_16_2,2023-11-02T16:17:52.361Z,,0,,,NaN,,,,,,false,,,,76402.5,76402.30000000075,,76402.20000000298,,76412.848,8,400,,,
sequence,flow.Sequence,4_16,2023-11-02T16:17:52.361Z,,0,,,2422.8340000007447,completion,,,,,false,,,,76402.70000000298,76402.30000000075,73962.799,73965.40000000224,73979.466,76412.848,8,400,,,
trial,html.Screen,4_17_0,2023-11-02T16:17:55.582Z,,0,1,,3210.352000002982,response,ISIC_7746479.JPG,7,ISIC_7518524.JPG,ISIC_7746479.JPG,false,1,keypress(m),500,79623.30000000075,79623.20000000298,76396.181,76402.80000000075,76412.848,79630.07,8,400,18,,ISIC_7518524.JPG
break,html.Screen,4_17_1,2023-11-02T16:17:55.582Z,,0,,,NaN,,,,,,false,,,,79624.10000000149,79623.90000000224,,79623.60000000149,,79630.07,8,400,,,
break_continue,html.Screen,4_17_2,2023-11-02T16:17:55.583Z,,0,,,NaN,,,,,,false,,,,79624.40000000224,79624.30000000075,,79624.20000000298,,79630.07,8,400,,,
sequence,flow.Sequence,4_17,2023-11-02T16:17:55.583Z,,0,,,3211.452000000747,completion,,,,,false,,,,79624.60000000149,79624.30000000075,76396.181,76402.80000000075,76412.848,79630.07,8,400,,,
trial,html.Screen,4_18_0,2023-11-02T16:17:58.678Z,,0,1,,3089.030000001483,response,ISIC_2741857.JPG,7,ISIC_0327406.JPG,ISIC_0327406.JPG,false,0,keypress(z),500,82719.30000000075,82719.10000000149,79613.403,79624.70000000298,79630.07,82730.132,8,400,19,,ISIC_2741857.JPG
break,html.Screen,4_18_1,2023-11-02T16:17:58.678Z,,0,,,NaN,,,,,,false,,,,82720,82719.80000000075,,82719.5,,82730.132,8,400,,,
break_continue,html.Screen,4_18_2,2023-11-02T16:17:58.679Z,,0,,,NaN,,,,,,false,,,,82720.40000000224,82720.20000000298,,82720.20000000298,,82730.132,8,400,,,
sequence,flow.Sequence,4_18,2023-11-02T16:17:58.679Z,,0,,,3090.1300000029732,completion,,,,,false,,,,82720.60000000149,82720.20000000298,79613.403,79624.70000000298,79630.07,82730.132,8,400,,,
trial,html.Screen,4_19_0,2023-11-02T16:18:01.099Z,,0,1,,2410.1680000007473,response,ISIC_8814612.JPG,8,ISIC_0061188.JPG,ISIC_8814612.JPG,false,1,keypress(m),500,85140.5,85140.30000000075,82713.465,82720.70000000298,82730.132,85146.847,8,400,20,,ISIC_0061188.JPG
break,html.Screen,4_19_1,2023-11-02T16:18:01.099Z,,0,,,NaN,,,,,,false,,,,85141.10000000149,85140.90000000224,,85140.60000000149,,85146.847,8,400,,,
break_continue,html.Screen,4_19_2,2023-11-02T16:18:01.100Z,,0,,,NaN,,,,,,false,,,,85141.40000000224,85141.30000000075,,85141.20000000298,,85146.847,8,400,,,
sequence,flow.Sequence,4_19,2023-11-02T16:18:01.100Z,,0,,,2411.1680000007473,completion,,,,,false,,,,85141.5,85141.30000000075,82713.465,82720.70000000298,82730.132,85146.847,8,400,,,
trial,html.Screen,4_20_0,2023-11-02T16:18:03.774Z,,0,1,,2668.753000001496,response,ISIC_4936610.JPG,7,ISIC_6793983.JPG,ISIC_6793983.JPG,false,0,keypress(z),500,87815.90000000224,87815.60000000149,85130.18,85141.60000000149,85146.847,87830.234,8,400,21,,ISIC_4936610.JPG
break,html.Screen,4_20_1,2023-11-02T16:18:03.775Z,,0,,,NaN,,,,,,false,,,,87816.60000000149,87816.40000000224,,87816,,87830.234,8,400,,,
break_continue,html.Screen,4_20_2,2023-11-02T16:18:03.775Z,,0,,,NaN,,,,,,false,,,,87817.20000000298,87817,,87816.70000000298,,87830.234,8,400,,,
sequence,flow.Sequence,4_20,2023-11-02T16:18:03.776Z,,0,,,2670.1530000000057,completion,,,,,false,,,,87817.40000000224,87817,85130.18,85141.60000000149,85146.847,87830.234,8,400,,,
trial,html.Screen,4_21_0,2023-11-02T16:18:07.155Z,,0,1,,3366.1660000022384,response,ISIC_7515794.JPG,7,ISIC_6414435.JPG,ISIC_7515794.JPG,false,1,keypress(m),500,91196.70000000298,91196.40000000224,87813.567,87817.5,87830.234,91214.118,8,400,22,,ISIC_6414435.JPG
break,html.Screen,4_21_1,2023-11-02T16:18:07.156Z,,0,,,NaN,,,,,,false,,,,91197.40000000224,91197.30000000075,,91196.90000000224,,91214.118,8,400,,,
break_continue,html.Screen,4_21_2,2023-11-02T16:18:07.156Z,,0,,,NaN,,,,,,false,,,,91198,91197.80000000075,,91197.70000000298,,91214.118,8,400,,,
sequence,flow.Sequence,4_21,2023-11-02T16:18:07.156Z,,0,,,3367.5660000007483,completion,,,,,false,,,,91198.10000000149,91197.80000000075,87813.567,87817.5,87830.234,91214.118,8,400,,,
trial,html.Screen,4_22_0,2023-11-02T16:18:10.363Z,,0,1,,3191.082000002978,response,ISIC_5104731.JPG,5,ISIC_8139762.JPG,ISIC_8139762.JPG,false,0,keypress(z),500,94405.40000000224,94405.20000000298,91197.451,91198.40000000224,91214.118,94414.182,8,400,23,,ISIC_5104731.JPG
break,html.Screen,4_22_1,2023-11-02T16:18:10.364Z,,0,,,NaN,,,,,,false,,,,94406,94405.80000000075,,94405.60000000149,,94414.182,8,400,,,
break_continue,html.Screen,4_22_2,2023-11-02T16:18:10.365Z,,0,,,NaN,,,,,,false,,,,94406.5,94406.40000000224,,94406.10000000149,,94414.182,8,400,,,
sequence,flow.Sequence,4_22,2023-11-02T16:18:10.365Z,,0,,,3192.282000002233,completion,,,,,false,,,,94406.60000000149,94406.40000000224,91197.451,91198.30000000075,91214.118,94414.182,8,400,,,
trial,html.Screen,4_23_0,2023-11-02T16:18:14.303Z,,0,1,,3930.4180000014894,response,ISIC_0060452.JPG,6,ISIC_0057913.JPG,ISIC_0057913.JPG,false,0,keypress(z),500,98344.80000000075,98344.60000000149,94397.515,94406.80000000075,94414.182,98347.594,8,400,24,,ISIC_0060452.JPG
break,html.Screen,4_23_1,2023-11-02T16:18:14.303Z,,0,,,NaN,,,,,,false,,,,98345.5,98345.30000000075,,98345,,98347.594,8,400,,,
break_continue,html.Screen,4_23_2,2023-11-02T16:18:14.304Z,,0,,,NaN,,,,,,false,,,,98346.20000000298,98346,,98345.80000000075,,98347.594,8,400,,,
sequence,flow.Sequence,4_23,2023-11-02T16:18:14.304Z,,0,,,3931.8179999999993,completion,,,,,false,,,,98346.40000000224,98346,94397.515,94406.80000000075,94414.182,98347.594,8,400,,,
trial,html.Screen,4_24_0,2023-11-02T16:18:19.509Z,,0,1,,5203.206000000748,response,ISIC_0210282.JPG,8,ISIC_0014542.JPG,ISIC_0210282.JPG,false,1,keypress(m),500,103551,103550.80000000075,98330.927,98346.5,98347.594,103564.834,8,400,25,,ISIC_0014542.JPG
break,html.Screen,4_24_1,2023-11-02T16:18:19.510Z,,0,,,NaN,,,,,,false,,,,103552,103551.60000000149,,103551.20000000298,,103564.834,8,400,,,
break_continue,html.Screen,4_24_2,2023-11-02T16:18:19.510Z,,0,,,NaN,,,,,,false,,,,103552.40000000224,103552.30000000075,,103552.20000000298,,103564.834,8,400,,,
sequence,flow.Sequence,4_24,2023-11-02T16:18:19.510Z,,0,,,5204.706000000748,completion,,,,,false,,,,103552.60000000149,103552.30000000075,98330.927,98346.5,98347.594,103564.834,8,400,,,
trial,html.Screen,4_25_0,2023-11-02T16:18:23.340Z,,0,1,,3817.1659999999974,response,ISIC_5484776.JPG,5,ISIC_0004728.JPG,ISIC_0004728.JPG,false,0,keypress(z),500,107382.30000000075,107382,103548.167,103552.80000000075,103564.834,107398.244,8,400,26,,ISIC_5484776.JPG
break,html.Screen,4_25_1,2023-11-02T16:18:23.341Z,,0,,,NaN,,,,,,false,,,,107383.5,107382.80000000075,,107382.40000000224,,107398.244,8,400,,,
break_continue,html.Screen,4_25_2,2023-11-02T16:18:23.342Z,,0,,,NaN,,,,,,false,,,,107383.80000000075,107383.70000000298,,107383.60000000149,,107398.244,8,400,,,
sequence,flow.Sequence,4_25,2023-11-02T16:18:23.342Z,,0,,,3818.8660000029777,completion,,,,,false,,,,107383.90000000224,107383.70000000298,103548.167,103552.70000000298,103564.834,107398.244,8,400,,,
trial,html.Screen,4_26_0,2023-11-02T16:18:26.883Z,,0,1,,3527.056000000739,response,ISIC_7455460.JPG,8,ISIC_1508215.JPG,ISIC_7455460.JPG,false,1,keypress(m),500,110925.40000000224,110925.30000000075,107381.577,107384.10000000149,107398.244,110932.161,8,400,27,,ISIC_1508215.JPG
break,html.Screen,4_26_1,2023-11-02T16:18:26.884Z,,0,,,NaN,,,,,,false,,,,110926.10000000149,110926,,110925.70000000298,,110932.161,8,400,,,
break_continue,html.Screen,4_26_2,2023-11-02T16:18:26.884Z,,0,,,NaN,,,,,,false,,,,110926.5,110926.40000000224,,110926.20000000298,,110932.161,8,400,,,
sequence,flow.Sequence,4_26,2023-11-02T16:18:26.884Z,,0,,,3528.156000002229,completion,,,,,false,,,,110926.80000000075,110926.40000000224,107381.577,107384.10000000149,107398.244,110932.161,8,400,,,
trial,html.Screen,4_27_0,2023-11-02T16:18:30.393Z,,0,1,,3502.9390000014973,response,ISIC_0033250.JPG,7,ISIC_4298624.JPG,ISIC_4298624.JPG,false,0,keypress(z),500,114435.20000000298,114435.10000000149,110915.494,110927,110932.161,114448.898,8,400,28,,ISIC_0033250.JPG
break,html.Screen,4_27_1,2023-11-02T16:18:30.393Z,,0,,,NaN,,,,,,false,,,,114435.80000000075,114435.70000000298,,114435.40000000224,,114448.898,8,400,,,
break_continue,html.Screen,4_27_2,2023-11-02T16:18:30.394Z,,0,,,NaN,,,,,,false,,,,114436.30000000075,114436.20000000298,,114436,,114448.898,8,400,,,
sequence,flow.Sequence,4_27,2023-11-02T16:18:30.394Z,,0,,,3504.0390000029874,completion,,,,,false,,,,114436.5,114436.20000000298,110915.494,110926.90000000224,110932.161,114448.898,8,400,,,
trial,html.Screen,4_28_0,2023-11-02T16:18:34.702Z,,0,1,,4295.502000002234,response,ISIC_3431915.JPG,7,ISIC_0029839.JPG,ISIC_3431915.JPG,false,1,keypress(m),500,118744.60000000149,118744.40000000224,114432.231,114436.60000000149,114448.898,118748.984,8,400,29,,ISIC_0029839.JPG
break,html.Screen,4_28_1,2023-11-02T16:18:34.703Z,,0,,,NaN,,,,,,false,,,,118745,118744.90000000224,,118744.70000000298,,118748.984,8,400,,,
break_continue,html.Screen,4_28_2,2023-11-02T16:18:34.703Z,,0,,,NaN,,,,,,false,,,,118745.40000000224,118745.20000000298,,118745.10000000149,,118748.984,8,400,,,
sequence,flow.Sequence,4_28,2023-11-02T16:18:34.703Z,,0,,,4296.302000002979,completion,,,,,false,,,,118745.5,118745.20000000298,114432.231,114436.5,114448.898,118748.984,8,400,,,
trial,html.Screen,4_29_0,2023-11-02T16:18:39.185Z,,0,1,,4478.016000000003,response,ISIC_0046537.JPG,4,ISIC_0062468.JPG,ISIC_0046537.JPG,false,1,keypress(m),500,123227.10000000149,123227,118732.317,118745.60000000149,118748.984,123232.911,8,400,30,,ISIC_0062468.JPG
break,html.Screen,4_29_1,2023-11-02T16:18:39.185Z,,0,,,NaN,,,,,,false,,,,123227.70000000298,123227.5,,123227.30000000075,,123232.911,8,400,,,
break_continue,html.Screen,4_29_2,2023-11-02T16:18:39.186Z,,0,,,NaN,,,,,,false,,,,123228.70000000298,123227.90000000224,,123227.80000000075,,123232.911,8,400,,,
sequence,flow.Sequence,4_29,2023-11-02T16:18:39.186Z,,0,,,4478.916000002238,completion,,,,,false,,,,123228.80000000075,123227.90000000224,118732.317,118745.60000000149,118748.984,123232.911,8,400,,,
trial,html.Screen,4_30_0,2023-11-02T16:18:49.773Z,,0,1,,10582.489000002242,response,ISIC_0029626.JPG,6,ISIC_0011343.JPG,ISIC_0011343.JPG,false,0,keypress(z),500,133815.6000000015,133815.40000000224,123216.244,123228.90000000224,123232.911,133833.729,8,400,31,,ISIC_0029626.JPG
break,html.Screen,4_30_1,2023-11-02T16:18:49.774Z,,0,,,NaN,,,,,,false,,,,133816.40000000224,133816.1000000015,,133815.80000000075,,133833.729,8,400,,,
break_continue,html.Screen,4_30_2,2023-11-02T16:18:49.774Z,,0,,,NaN,,,,,,false,,,,133817.1000000015,133816.90000000224,,133816.80000000075,,133833.729,8,400,,,
sequence,flow.Sequence,4_30,2023-11-02T16:18:49.774Z,,0,,,10583.989000002242,completion,,,,,false,,,,133817.20000000298,133816.90000000224,123216.244,123228.90000000224,123232.911,133833.729,8,400,,,
trial,html.Screen,4_31_0,2023-11-02T16:18:55.126Z,,0,1,,5334.471000002988,response,ISIC_0034170.JPG,4,ISIC_0645454.JPG,ISIC_0645454.JPG,false,0,keypress(z),500,139168.30000000075,139168.20000000298,133817.062,133817.20000000298,133833.729,139183.836,8,400,32,,ISIC_0034170.JPG
break,html.Screen,4_31_1,2023-11-02T16:18:55.127Z,,0,,,NaN,,,,,,false,,,,139169.80000000075,139169.6000000015,,139168.6000000015,,139183.836,8,400,,,
break_continue,html.Screen,4_31_2,2023-11-02T16:18:55.127Z,,0,,,NaN,,,,,,false,,,,139170,139169.90000000224,,139169.90000000224,,139183.836,8,400,,,
sequence,flow.Sequence,4_31,2023-11-02T16:18:55.127Z,,0,,,5336.171000002243,completion,,,,,false,,,,139170.1000000015,139169.90000000224,133817.062,133817.20000000298,133833.729,139183.836,8,400,,,
trial,html.Screen,4_32_0,2023-11-02T16:19:03.739Z,,0,1,,8597.464000000735,response,ISIC_6209119.JPG,6,ISIC_0027769.JPG,ISIC_6209119.JPG,false,1,keypress(m),500,147781.5,147781.30000000075,139167.169,139170.20000000298,139183.836,147801.221,8,400,33,,ISIC_0027769.JPG
break,html.Screen,4_32_1,2023-11-02T16:19:03.739Z,,0,,,NaN,,,,,,false,,,,147782.40000000224,147781.90000000224,,147781.6000000015,,147801.221,8,400,,,
break_continue,html.Screen,4_32_2,2023-11-02T16:19:03.740Z,,0,,,NaN,,,,,,false,,,,147783.1000000015,147783.1000000015,,147782.5,,147801.221,8,400,,,
sequence,flow.Sequence,4_32,2023-11-02T16:19:03.740Z,,0,,,8599.26400000148,completion,,,,,false,,,,147783.30000000075,147783.1000000015,139167.169,139170.1000000015,139183.836,147801.221,8,400,,,
trial,html.Screen,4_33_0,2023-11-02T16:19:11.682Z,,0,1,,7923.3790000015,response,ISIC_0033886.JPG,5,ISIC_9765760.JPG,ISIC_0033886.JPG,false,1,keypress(m),500,155724.80000000075,155724.6000000015,147784.554,147783.5,147801.221,155735.251,8,400,34,,ISIC_9765760.JPG
break,html.Screen,4_33_1,2023-11-02T16:19:11.682Z,,0,,,NaN,,,,,,false,,,,155725.20000000298,155725.1000000015,,155724.90000000224,,155735.251,8,400,,,
break_continue,html.Screen,4_33_2,2023-11-02T16:19:11.682Z,,0,,,NaN,,,,,,false,,,,155725.30000000075,155725.30000000075,,155725.30000000075,,155735.251,8,400,,,
sequence,flow.Sequence,4_33,2023-11-02T16:19:11.682Z,,0,,,7924.079000000755,completion,,,,,false,,,,155725.40000000224,155725.30000000075,147784.554,147783.5,147801.221,155735.251,8,400,,,
trial,html.Screen,4_34_0,2023-11-02T16:19:18.920Z,,0,1,,7228.049000000756,response,ISIC_4348579.JPG,7,ISIC_0057762.JPG,ISIC_0057762.JPG,false,0,keypress(z),500,162963.40000000224,162963.30000000075,155718.584,155725.6000000015,155735.251,162968.729,8,400,35,,ISIC_4348579.JPG
break,html.Screen,4_34_1,2023-11-02T16:19:18.920Z,,0,,,NaN,,,,,,false,,,,162963.80000000075,162963.70000000298,,162963.40000000224,,162968.729,8,400,,,
break_continue,html.Screen,4_34_2,2023-11-02T16:19:18.921Z,,0,,,NaN,,,,,,false,,,,162963.90000000224,162963.90000000224,,162963.80000000075,,162968.729,8,400,,,
sequence,flow.Sequence,4_34,2023-11-02T16:19:18.921Z,,0,,,7228.649000002246,completion,,,,,false,,,,162964.1000000015,162963.90000000224,155718.584,155725.5,155735.251,162968.729,8,400,,,
trial,html.Screen,4_35_0,2023-11-02T16:19:30.411Z,,0,1,,11517.40400000001,timeout,ISIC_2490481.JPG,5,ISIC_7184722.JPG,,false,,,500,174454.30000000075,174454.1000000015,162952.062,162964.1000000015,162968.729,174486.133,8,400,36,,
break,html.Screen,4_35_1,2023-11-02T16:19:30.412Z,,0,,,NaN,,,,,,false,,,,174455.40000000224,174455.20000000298,,174454.40000000224,,174486.133,8,400,,,
break_continue,html.Screen,4_35_2,2023-11-02T16:19:30.412Z,,0,,,NaN,,,,,,false,,,,174455.90000000224,174455.80000000075,,174455.70000000298,,174486.133,8,400,,,
sequence,flow.Sequence,4_35,2023-11-02T16:19:30.412Z,,0,,,11487.071000000753,completion,,,,,false,,,,174456,174455.80000000075,162952.062,162964.1000000015,162968.729,174486.133,8,400,,,
trial,html.Screen,4_36_0,2023-11-02T16:19:41.931Z,,0,1,,11517.404999999999,timeout,ISIC_2876073.JPG,6,ISIC_0000452.JPG,,false,,,500,185974.6000000015,185974.5,174469.466,174456,174486.133,186003.538,8,400,37,,
break,html.Screen,4_36_1,2023-11-02T16:19:41.931Z,,0,,,NaN,,,,,,false,,,,185975,185974.80000000075,,185974.70000000298,,186003.538,8,400,,,
break_continue,html.Screen,4_36_2,2023-11-02T16:19:41.931Z,,0,,,NaN,,,,,,false,,,,185975.20000000298,185975.20000000298,,185975.1000000015,,186003.538,8,400,,,
sequence,flow.Sequence,4_36,2023-11-02T16:19:41.932Z,,0,,,11489.067000002979,completion,,,,,false,,,,185975.20000000298,185975.20000000298,174469.466,174456,174486.133,186003.538,8,400,,,
trial,html.Screen,4_37_0,2023-11-02T16:19:53.445Z,,0,1,,11517.880999999994,timeout,ISIC_0055435.JPG,7,ISIC_9559922.JPG,,false,,,500,197489,197488.70000000298,185986.871,185975.30000000075,186003.538,197521.419,8,400,38,,
break,html.Screen,4_37_1,2023-11-02T16:19:53.446Z,,0,,,NaN,,,,,,false,,,,197489.6000000015,197489.5,,197489.20000000298,,197521.419,8,400,,,
break_continue,html.Screen,4_37_2,2023-11-02T16:19:53.446Z,,0,,,NaN,,,,,,false,,,,197490,197489.90000000224,,197489.80000000075,,197521.419,8,400,,,
sequence,flow.Sequence,4_37,2023-11-02T16:19:53.446Z,,0,,,11486.362000002235,completion,,,,,false,,,,197490.30000000075,197489.90000000224,185986.871,185975.30000000075,186003.538,197521.419,8,400,,,
trial,html.Screen,4_38_0,2023-11-02T16:20:04.967Z,,0,1,,11517.550000000017,timeout,ISIC_0062077.JPG,6,ISIC_1522266.JPG,,false,,,500,209011.20000000298,209011,197504.752,197490.40000000224,197521.419,209038.969,8,400,39,,
break,html.Screen,4_38_1,2023-11-02T16:20:04.968Z,,0,,,NaN,,,,,,false,,,,209011.80000000075,209011.70000000298,,209011.40000000224,,209038.969,8,400,,,
break_continue,html.Screen,4_38_2,2023-11-02T16:20:04.968Z,,0,,,NaN,,,,,,false,,,,209012.20000000298,209012.1000000015,,209011.90000000224,,209038.969,8,400,,,
sequence,flow.Sequence,4_38,2023-11-02T16:20:04.968Z,,0,,,11490.681000001496,completion,,,,,false,,,,209012.40000000224,209012.1000000015,197504.752,197490.40000000224,197521.419,209038.969,8,400,,,
trial,html.Screen,4_39_0,2023-11-02T16:20:16.484Z,,0,1,,11517.470000000001,timeout,ISIC_0025904.JPG,7,ISIC_0057016.JPG,,false,,,500,220528.5,220528.20000000298,209022.302,209012.5,209038.969,220556.439,8,400,40,,
break,html.Screen,4_39_1,2023-11-02T16:20:16.485Z,,0,,,NaN,,,,,,false,,,,220529,220528.90000000224,,220528.5,,220556.439,8,400,,,
break_continue,html.Screen,4_39_2,2023-11-02T16:20:16.485Z,,0,,,NaN,,,,,,false,,,,220529.6000000015,220529.40000000224,,220529.20000000298,,220556.439,8,400,,,
sequence,flow.Sequence,4_39,2023-11-02T16:20:16.485Z,,0,,,11490.431000002223,completion,,,,,false,,,,220529.80000000075,220529.40000000224,209022.302,209012.5,209038.969,220556.439,8,400,,,
trial,html.Screen,4_40_0,2023-11-02T16:20:28.001Z,,0,1,,11517.357999999978,timeout,ISIC_0069058.JPG,7,ISIC_3777798.JPG,,false,,,500,232045.20000000298,232044.90000000224,220539.772,220529.90000000224,220556.439,232073.797,8,400,41,,
break,html.Screen,4_40_1,2023-11-02T16:20:28.001Z,,0,,,NaN,,,,,,false,,,,232045.6000000015,232045.5,,232045.20000000298,,232073.797,8,400,,,
break_continue,html.Screen,4_40_2,2023-11-02T16:20:28.001Z,,0,,,NaN,,,,,,false,,,,232046,232045.90000000224,,232045.80000000075,,232073.797,8,400,,,
sequence,flow.Sequence,4_40,2023-11-02T16:20:28.002Z,,0,,,11489.461000002222,completion,,,,,false,,,,232046.1000000015,232045.90000000224,220539.772,220529.90000000224,220556.439,232073.797,8,400,,,
trial,html.Screen,4_41_0,2023-11-02T16:20:39.517Z,,0,1,,11517.493000000017,timeout,ISIC_0070244.JPG,7,ISIC_3576066.JPG,,false,,,500,243562,243561.90000000224,232057.13,232046.30000000075,232073.797,243591.29,8,400,42,,
break,html.Screen,4_41_1,2023-11-02T16:20:39.518Z,,0,,,NaN,,,,,,false,,,,243562.6000000015,243562.40000000224,,243562.1000000015,,243591.29,8,400,,,
break_continue,html.Screen,4_41_2,2023-11-02T16:20:39.518Z,,0,,,NaN,,,,,,false,,,,243563.20000000298,243562.80000000075,,243562.80000000075,,243591.29,8,400,,,
sequence,flow.Sequence,4_41,2023-11-02T16:20:39.519Z,,0,,,11489.003000000754,completion,,,,,false,,,,243563.40000000224,243562.80000000075,232057.13,232046.20000000298,232073.797,243591.29,8,400,,,
trial,html.Screen,4_42_0,2023-11-02T16:20:51.035Z,,0,1,,11517.484999999986,timeout,ISIC_1565767.JPG,5,ISIC_0028976.JPG,,false,,,500,255079.70000000298,255079.5,243574.623,243563.5,243591.29,255108.775,8,400,43,,
break,html.Screen,4_42_1,2023-11-02T16:20:51.035Z,,0,,,NaN,,,,,,false,,,,255080.30000000075,255080.20000000298,,255079.90000000224,,255108.775,8,400,,,
break_continue,html.Screen,4_42_2,2023-11-02T16:20:51.036Z,,0,,,NaN,,,,,,false,,,,255080.70000000298,255080.6000000015,,255080.5,,255108.775,8,400,,,
sequence,flow.Sequence,4_42,2023-11-02T16:20:51.036Z,,0,,,11489.310000001482,completion,,,,,false,,,,255080.90000000224,255080.6000000015,243574.623,243563.5,243591.29,255108.775,8,400,,,
trial,html.Screen,4_43_0,2023-11-02T16:21:02.552Z,,0,1,,11517.518000000011,timeout,ISIC_0000118.JPG,7,ISIC_5520533.JPG,,false,,,500,266596.90000000224,266596.6000000015,255092.108,255081.1000000015,255108.775,266626.293,8,400,44,,
break,html.Screen,4_43_1,2023-11-02T16:21:02.552Z,,0,,,NaN,,,,,,false,,,,266597.5,266597.30000000075,,266597,,266626.293,8,400,,,
break_continue,html.Screen,4_43_2,2023-11-02T16:21:02.553Z,,0,,,NaN,,,,,,false,,,,266597.90000000224,266597.700000003,,266597.6000000015,,266626.293,8,400,,,
sequence,flow.Sequence,4_43,2023-11-02T16:21:02.553Z,,0,,,11488.925000002986,completion,,,,,false,,,,266598.1000000015,266597.700000003,255092.108,255081,255108.775,266626.293,8,400,,,
trial,html.Screen,4_44_0,2023-11-02T16:21:14.069Z,,0,1,,11517.429999999993,timeout,ISIC_8967786.JPG,6,ISIC_9473492.JPG,,false,,,500,278114.1000000015,278114,266609.626,266598.200000003,266626.293,278143.723,8,400,45,,
break,html.Screen,4_44_1,2023-11-02T16:21:14.069Z,,0,,,NaN,,,,,,false,,,,278114.80000000075,278114.6000000015,,278114.30000000075,,278143.723,8,400,,,
break_continue,html.Screen,4_44_2,2023-11-02T16:21:14.070Z,,0,,,NaN,,,,,,false,,,,278115.1000000015,278115,,278115,,278143.723,8,400,,,
sequence,flow.Sequence,4_44,2023-11-02T16:21:14.070Z,,0,,,11488.706999999995,completion,,,,,false,,,,278115.30000000075,278115,266609.626,266598.200000003,266626.293,278143.723,8,400,,,
trial,html.Screen,4_45_0,2023-11-02T16:21:16.842Z,,0,1,,2743.577000000747,response,ISIC_0003664.JPG,5,ISIC_0068924.JPG,ISIC_0003664.JPG,false,1,keypress(m),500,280887.5,280887.30000000075,278127.056,278115.5,278143.723,280893.778,8,400,46,,ISIC_0068924.JPG
break,html.Screen,4_45_1,2023-11-02T16:21:16.843Z,,0,,,NaN,,,,,,false,,,,280888.200000003,280888,,280887.700000003,,280893.778,8,400,,,
break_continue,html.Screen,4_45_2,2023-11-02T16:21:16.843Z,,0,,,NaN,,,,,,false,,,,280888.6000000015,280888.5,,280888.30000000075,,280893.778,8,400,,,
sequence,flow.Sequence,4_45,2023-11-02T16:21:16.843Z,,0,,,2744.777000000002,completion,,,,,false,,,,280888.80000000075,280888.5,278127.056,278115.40000000224,278143.723,280893.778,8,400,,,
trial,html.Screen,4_46_0,2023-11-02T16:21:19.268Z,,0,1,,2419.122000002244,response,ISIC_5213829.JPG,6,ISIC_8176449.JPG,ISIC_5213829.JPG,false,1,keypress(m),500,283313.200000003,283312.90000000224,280877.111,280889,280893.778,283327.16,8,400,47,,ISIC_8176449.JPG
break,html.Screen,4_46_1,2023-11-02T16:21:19.268Z,,0,,,NaN,,,,,,false,,,,283313.90000000224,283313.700000003,,283313.40000000224,,283327.16,8,400,,,
break_continue,html.Screen,4_46_2,2023-11-02T16:21:19.269Z,,0,,,NaN,,,,,,false,,,,283314.30000000075,283314.200000003,,283314,,283327.16,8,400,,,
sequence,flow.Sequence,4_46,2023-11-02T16:21:19.269Z,,0,,,2420.422000002989,completion,,,,,false,,,,283314.6000000015,283314.200000003,280877.111,280889,280893.778,283327.16,8,400,,,
trial,html.Screen,4_47_0,2023-11-02T16:21:21.596Z,,0,1,,2313.740000002261,response,ISIC_7758102.JPG,8,ISIC_1858237.JPG,ISIC_1858237.JPG,false,0,keypress(z),500,285641.1000000015,285640.90000000224,283310.493,283314.80000000075,283327.16,285643.873,8,400,48,,ISIC_7758102.JPG
break,html.Screen,4_47_1,2023-11-02T16:21:21.596Z,,0,,,NaN,,,,,,false,,,,285641.80000000075,285641.6000000015,,285641.30000000075,,285643.873,8,400,,,
break_continue,html.Screen,4_47_2,2023-11-02T16:21:21.597Z,,0,,,NaN,,,,,,false,,,,285642.200000003,285642.1000000015,,285641.90000000224,,285643.873,8,400,,,
sequence,flow.Sequence,4_47,2023-11-02T16:21:21.597Z,,0,,,2314.9400000015157,completion,,,,,false,,,,285642.40000000224,285642.1000000015,283310.493,283314.700000003,283327.16,285643.873,8,400,,,
trial,html.Screen,4_48_0,2023-11-02T16:21:23.910Z,,0,1,,2311.2270000014687,response,ISIC_9688119.JPG,7,ISIC_0058998.JPG,ISIC_9688119.JPG,false,1,keypress(m),500,287955.30000000075,287955.1000000015,285627.206,285642.5,285643.873,287961.075,8,400,49,,ISIC_0058998.JPG
break,html.Screen,4_48_1,2023-11-02T16:21:23.910Z,,0,,,NaN,,,,,,false,,,,287956,287955.80000000075,,287955.5,,287961.075,8,400,,,
break_continue,html.Screen,4_48_2,2023-11-02T16:21:23.911Z,,0,,,NaN,,,,,,false,,,,287956.40000000224,287956.200000003,,287956.200000003,,287961.075,8,400,,,
sequence,flow.Sequence,4_48,2023-11-02T16:21:23.911Z,,0,,,2312.327000002959,completion,,,,,false,,,,287956.6000000015,287956.200000003,285627.206,285642.5,285643.873,287961.075,8,400,,,
trial,html.Screen,4_49_0,2023-11-02T16:21:26.264Z,,0,1,,2348.6250000029686,response,ISIC_7844565.JPG,5,ISIC_5866419.JPG,ISIC_7844565.JPG,false,1,keypress(m),500,290310.1000000015,290309.700000003,287944.408,287956.700000003,287961.075,290311.122,8,400,50,,ISIC_5866419.JPG
break,html.Screen,4_49_1,2023-11-02T16:21:36.251Z,,0,,,10000.709000000032,timeout,,,,,false,,,,300296.6000000015,300295.164,290294.455,290310.200000003,290311.122,300311.831,8,400,,,
break_continue,html.Screen,4_49_2,2023-11-02T16:21:37.361Z,,0,,,1080.3690000029746,response,,,,,false,continue,keypress(Space),,301406.700000003,301392.200000003,300295.164,300296.80000000075,300311.831,301411.853,8,400,,,
sequence,flow.Sequence,4_49,2023-11-02T16:21:37.361Z,,0,,,13431.125000002969,completion,,,,,false,,,,301406.80000000075,301392.200000003,287944.408,287956.700000003,287961.075,301411.853,8,400,,,
trial,html.Screen,4_50_0,2023-11-02T16:21:41.926Z,,0,2,,4559.847000002977,response,ISIC_0011092.JPG,4,ISIC_0033782.JPG,ISIC_0011092.JPG,false,1,keypress(m),500,305972,305971.700000003,301395.186,301406.90000000224,301411.853,305978.611,8,400,1,,ISIC_0033782.JPG
break,html.Screen,4_50_1,2023-11-02T16:21:41.927Z,,0,,,NaN,,,,,,false,,,,305972.6000000015,305972.40000000224,,305972.200000003,,305978.611,8,400,,,
break_continue,html.Screen,4_50_2,2023-11-02T16:21:41.927Z,,0,,,NaN,,,,,,false,,,,305973.1000000015,305973,,305972.80000000075,,305978.611,8,400,,,
sequence,flow.Sequence,4_50,2023-11-02T16:21:41.927Z,,0,,,4561.146999999997,completion,,,,,false,,,,305973.30000000075,305973,301395.186,301406.90000000224,301411.853,305978.611,8,400,,,
trial,html.Screen,4_51_0,2023-11-02T16:21:46.672Z,,0,2,,4738.68900000077,response,ISIC_7976934.JPG,7,ISIC_0065292.JPG,ISIC_0065292.JPG,false,0,keypress(z),500,310717.6000000015,310717.30000000075,305961.944,305973.40000000224,305978.611,310729.211,8,400,2,,ISIC_7976934.JPG
break,html.Screen,4_51_1,2023-11-02T16:21:46.672Z,,0,,,NaN,,,,,,false,,,,310718.200000003,310718.1000000015,,310717.700000003,,310729.211,8,400,,,
break_continue,html.Screen,4_51_2,2023-11-02T16:21:46.673Z,,0,,,NaN,,,,,,false,,,,310718.700000003,310718.6000000015,,310718.40000000224,,310729.211,8,400,,,
sequence,flow.Sequence,4_51,2023-11-02T16:21:46.673Z,,0,,,4739.989000001515,completion,,,,,false,,,,310718.90000000224,310718.6000000015,305961.944,305973.40000000224,305978.611,310729.211,8,400,,,
trial,html.Screen,4_52_0,2023-11-02T16:21:50.070Z,,0,2,,3386.7889999999898,response,ISIC_0014974.JPG,7,ISIC_0062471.JPG,ISIC_0014974.JPG,false,1,keypress(m),500,314116.30000000075,314116,310712.544,310719,310729.211,314129.279,8,400,3,,ISIC_0062471.JPG
break,html.Screen,4_52_1,2023-11-02T16:21:50.071Z,,0,,,NaN,,,,,,false,,,,314117,314116.80000000075,,314116.6000000015,,314129.279,8,400,,,
break_continue,html.Screen,4_52_2,2023-11-02T16:21:50.071Z,,0,,,NaN,,,,,,false,,,,314117.40000000224,314117.30000000075,,314117.1000000015,,314129.279,8,400,,,
sequence,flow.Sequence,4_52,2023-11-02T16:21:50.071Z,,0,,,3388.089000000735,completion,,,,,false,,,,314117.6000000015,314117.30000000075,310712.544,310718.90000000224,310729.211,314129.279,8,400,,,
trial,html.Screen,4_53_0,2023-11-02T16:21:53.947Z,,0,2,,3863.8210000015097,response,ISIC_0064517.JPG,7,ISIC_6440229.JPG,ISIC_6440229.JPG,false,0,keypress(z),500,317993.30000000075,317993.1000000015,314112.612,314117.700000003,314129.279,317996.5,8,400,4,,ISIC_0064517.JPG
break,html.Screen,4_53_1,2023-11-02T16:21:53.948Z,,0,,,NaN,,,,,,false,,,,317994,317993.80000000075,,317993.5,,317996.5,8,400,,,
break_continue,html.Screen,4_53_2,2023-11-02T16:21:53.948Z,,0,,,NaN,,,,,,false,,,,317994.40000000224,317994.200000003,,317994.1000000015,,317996.5,8,400,,,
sequence,flow.Sequence,4_53,2023-11-02T16:21:53.948Z,,0,,,3864.921000003,completion,,,,,false,,,,317994.6000000015,317994.200000003,314112.612,314117.700000003,314129.279,317996.5,8,400,,,
trial,html.Screen,4_54_0,2023-11-02T16:22:00.351Z,,0,2,,6400.400000002235,response,ISIC_0005572.JPG,8,ISIC_0000801.JPG,ISIC_0005572.JPG,false,1,keypress(m),500,324397.200000003,324396.90000000224,317979.833,317994.700000003,317996.5,324413.295,8,400,5,,ISIC_0000801.JPG
break,html.Screen,4_54_1,2023-11-02T16:22:00.352Z,,0,,,NaN,,,,,,false,,,,324397.90000000224,324397.700000003,,324397.40000000224,,324413.295,8,400,,,
break_continue,html.Screen,4_54_2,2023-11-02T16:22:00.352Z,,0,,,NaN,,,,,,false,,,,324398.30000000075,324398.1000000015,,324398,,324413.295,8,400,,,
sequence,flow.Sequence,4_54,2023-11-02T16:22:00.352Z,,0,,,6401.60000000149,completion,,,,,false,,,,324398.5,324398.1000000015,317979.833,317994.700000003,317996.5,324413.295,8,400,,,
trial,html.Screen,4_55_0,2023-11-02T16:22:03.923Z,,0,2,,3555.5050000007614,response,ISIC_8423248.JPG,7,ISIC_0025391.JPG,ISIC_0025391.JPG,false,0,keypress(z),500,327969.1000000015,327968.80000000075,324396.628,324398.700000003,324413.295,327997.264,8,400,6,,ISIC_8423248.JPG
break,html.Screen,4_55_1,2023-11-02T16:22:03.923Z,,0,,,NaN,,,,,,false,,,,327969.80000000075,327969.6000000015,,327969.30000000075,,327997.264,8,400,,,
break_continue,html.Screen,4_55_2,2023-11-02T16:22:03.924Z,,0,,,NaN,,,,,,false,,,,327970.1000000015,327970,,327969.80000000075,,327997.264,8,400,,,
sequence,flow.Sequence,4_55,2023-11-02T16:22:03.924Z,,0,,,3556.7050000000163,completion,,,,,false,,,,327970.30000000075,327970,324396.628,324398.6000000015,324413.295,327997.264,8,400,,,
trial,html.Screen,4_56_0,2023-11-02T16:22:08.249Z,,0,2,,4298.336000001465,response,ISIC_0069944.JPG,5,ISIC_0053469.JPG,ISIC_0069944.JPG,false,1,keypress(m),500,332295.80000000075,332295.6000000015,327980.597,327970.5,327997.264,332314.017,8,400,7,,ISIC_0053469.JPG
break,html.Screen,4_56_1,2023-11-02T16:22:08.250Z,,0,,,NaN,,,,,,false,,,,332296.6000000015,332296.40000000224,,332296,,332314.017,8,400,,,
break_continue,html.Screen,4_56_2,2023-11-02T16:22:08.251Z,,0,,,NaN,,,,,,false,,,,332297,332296.80000000075,,332296.700000003,,332314.017,8,400,,,
sequence,flow.Sequence,4_56,2023-11-02T16:22:08.251Z,,0,,,4299.53600000072,completion,,,,,false,,,,332297.200000003,332296.80000000075,327980.597,327970.5,327997.264,332314.017,8,400,,,
trial,html.Screen,4_57_0,2023-11-02T16:22:15.425Z,,0,2,,7157.2830000007525,response,ISIC_4015508.JPG,8,ISIC_5179620.JPG,ISIC_4015508.JPG,false,1,keypress(m),500,339471.6000000015,339471.30000000075,332297.35,332297.30000000075,332314.017,339481.341,8,400,8,,ISIC_5179620.JPG
break,html.Screen,4_57_1,2023-11-02T16:22:15.426Z,,0,,,NaN,,,,,,false,,,,339472.30000000075,339472.1000000015,,339471.700000003,,339481.341,8,400,,,
break_continue,html.Screen,4_57_2,2023-11-02T16:22:15.426Z,,0,,,NaN,,,,,,false,,,,339472.6000000015,339472.5,,339472.40000000224,,339481.341,8,400,,,
sequence,flow.Sequence,4_57,2023-11-02T16:22:15.426Z,,0,,,7158.483000000007,completion,,,,,false,,,,339472.80000000075,339472.5,332297.35,332297.30000000075,332314.017,339481.341,8,400,,,
trial,html.Screen,4_58_0,2023-11-02T16:22:19.528Z,,0,2,,4093.3590000029653,response,ISIC_8814398.JPG,8,ISIC_0011496.JPG,ISIC_0011496.JPG,false,0,keypress(z),500,343574.90000000224,343574.700000003,339464.674,339473,339481.341,343581.423,8,400,9,,ISIC_8814398.JPG
break,html.Screen,4_58_1,2023-11-02T16:22:19.529Z,,0,,,NaN,,,,,,false,,,,343575.700000003,343575.40000000224,,343575.1000000015,,343581.423,8,400,,,
break_continue,html.Screen,4_58_2,2023-11-02T16:22:19.529Z,,0,,,NaN,,,,,,false,,,,343576,343575.80000000075,,343575.700000003,,343581.423,8,400,,,
sequence,flow.Sequence,4_58,2023-11-02T16:22:19.530Z,,0,,,4094.45900000073,completion,,,,,false,,,,343576.200000003,343575.80000000075,339464.674,339473,339481.341,343581.423,8,400,,,
trial,html.Screen,4_59_0,2023-11-02T16:22:23.852Z,,0,2,,4316.67700000148,response,ISIC_9958062.JPG,7,ISIC_7811951.JPG,ISIC_9958062.JPG,false,1,keypress(m),500,347898.200000003,347898.1000000015,343564.756,343576.40000000224,343581.423,347914.843,8,400,10,,ISIC_7811951.JPG
break,html.Screen,4_59_1,2023-11-02T16:22:23.852Z,,0,,,NaN,,,,,,false,,,,347899,347898.90000000224,,347898.5,,347914.843,8,400,,,
break_continue,html.Screen,4_59_2,2023-11-02T16:22:23.853Z,,0,,,NaN,,,,,,false,,,,347899.40000000224,347899.30000000075,,347899.200000003,,347914.843,8,400,,,
sequence,flow.Sequence,4_59,2023-11-02T16:22:23.853Z,,0,,,4317.877000000735,completion,,,,,false,,,,347899.700000003,347899.30000000075,343564.756,343576.30000000075,343581.423,347914.843,8,400,,,
trial,html.Screen,4_60_0,2023-11-02T16:22:30.082Z,,0,2,,6214.1570000000065,response,ISIC_1154109.JPG,7,ISIC_0030080.JPG,ISIC_0030080.JPG,false,0,keypress(z),500,354129.200000003,354129,347898.176,347899.90000000224,347914.843,354132.109,8,400,11,,ISIC_1154109.JPG
break,html.Screen,4_60_1,2023-11-02T16:22:30.083Z,,0,,,NaN,,,,,,false,,,,354129.90000000224,354129.700000003,,354129.40000000224,,354132.109,8,400,,,
break_continue,html.Screen,4_60_2,2023-11-02T16:22:30.083Z,,0,,,NaN,,,,,,false,,,,354130.200000003,354130.1000000015,,354130.1000000015,,354132.109,8,400,,,
sequence,flow.Sequence,4_60,2023-11-02T16:22:30.084Z,,0,,,6215.257000001497,completion,,,,,false,,,,354130.40000000224,354130.1000000015,347898.176,347899.80000000075,347914.843,354132.109,8,400,,,
trial,html.Screen,4_61_0,2023-11-02T16:22:41.572Z,,0,2,,11517.675999999978,timeout,ISIC_0000462.JPG,8,ISIC_0014181.JPG,,false,,,500,365618.6000000015,365618.40000000224,354115.442,354130.6000000015,354132.109,365649.785,8,400,12,,
break,html.Screen,4_61_1,2023-11-02T16:22:41.572Z,,0,,,NaN,,,,,,false,,,,365619.30000000075,365619.1000000015,,365618.80000000075,,365649.785,8,400,,,
break_continue,html.Screen,4_61_2,2023-11-02T16:22:41.573Z,,0,,,NaN,,,,,,false,,,,365619.700000003,365619.5,,365619.40000000224,,365649.785,8,400,,,
sequence,flow.Sequence,4_61,2023-11-02T16:22:41.573Z,,0,,,11487.391000000003,completion,,,,,false,,,,365620,365619.5,354115.442,354130.6000000015,354132.109,365649.785,8,400,,,
trial,html.Screen,4_62_0,2023-11-02T16:22:45.501Z,,0,2,,3897.615000002261,response,ISIC_0028181.JPG,5,ISIC_0033193.JPG,ISIC_0033193.JPG,false,0,keypress(z),500,369547.6000000015,369547.40000000224,365633.118,365620.1000000015,365649.785,369549.863,8,400,13,,ISIC_0028181.JPG
break,html.Screen,4_62_1,2023-11-02T16:22:45.501Z,,0,,,NaN,,,,,,false,,,,369548.30000000075,369548.200000003,,369547.80000000075,,369549.863,8,400,,,
break_continue,html.Screen,4_62_2,2023-11-02T16:22:45.502Z,,0,,,NaN,,,,,,false,,,,369548.700000003,369548.6000000015,,369548.5,,369549.863,8,400,,,
sequence,flow.Sequence,4_62,2023-11-02T16:22:45.502Z,,0,,,3898.8150000015157,completion,,,,,false,,,,369548.90000000224,369548.6000000015,365633.118,365620,365649.785,369549.863,8,400,,,
trial,html.Screen,4_63_0,2023-11-02T16:22:49.647Z,,0,2,,4144.537000002223,response,ISIC_0003593.JPG,7,ISIC_3179296.JPG,ISIC_0003593.JPG,false,1,keypress(m),500,373694.6000000015,373694.40000000224,369533.196,369549,369549.863,373699.946,8,400,14,,ISIC_3179296.JPG
break,html.Screen,4_63_1,2023-11-02T16:22:49.648Z,,0,,,NaN,,,,,,false,,,,373695.30000000075,373695.200000003,,373694.90000000224,,373699.946,8,400,,,
break_continue,html.Screen,4_63_2,2023-11-02T16:22:49.649Z,,0,,,NaN,,,,,,false,,,,373695.700000003,373695.6000000015,,373695.40000000224,,373699.946,8,400,,,
sequence,flow.Sequence,4_63,2023-11-02T16:22:49.649Z,,0,,,4145.737000001478,completion,,,,,false,,,,373695.80000000075,373695.6000000015,369533.196,369549,369549.863,373699.946,8,400,,,
trial,html.Screen,4_64_0,2023-11-02T16:22:54.805Z,,0,2,,5152.454000002239,response,ISIC_0063425.JPG,6,ISIC_0027832.JPG,ISIC_0027832.JPG,false,0,keypress(z),500,378852.700000003,378852.40000000224,373683.279,373696,373699.946,378867.14,8,400,15,,ISIC_0063425.JPG
break,html.Screen,4_64_1,2023-11-02T16:22:54.806Z,,0,,,NaN,,,,,,false,,,,378853.40000000224,378853.200000003,,378852.90000000224,,378867.14,8,400,,,
break_continue,html.Screen,4_64_2,2023-11-02T16:22:54.806Z,,0,,,NaN,,,,,,false,,,,378853.700000003,378853.6000000015,,378853.5,,378867.14,8,400,,,
sequence,flow.Sequence,4_64,2023-11-02T16:22:54.807Z,,0,,,5153.654000001494,completion,,,,,false,,,,378853.90000000224,378853.6000000015,373683.279,373696,373699.946,378867.14,8,400,,,
trial,html.Screen,4_65_0,2023-11-02T16:23:03.480Z,,0,2,,8659.960000001476,response,ISIC_0072612.JPG,9,ISIC_0024455.JPG,ISIC_0072612.JPG,false,1,keypress(m),500,387527.40000000224,387527.1000000015,378850.473,378854,378867.14,387534.582,8,400,16,,ISIC_0024455.JPG
break,html.Screen,4_65_1,2023-11-02T16:23:03.481Z,,0,,,NaN,,,,,,false,,,,387528.1000000015,387527.90000000224,,387527.6000000015,,387534.582,8,400,,,
break_continue,html.Screen,4_65_2,2023-11-02T16:23:03.481Z,,0,,,NaN,,,,,,false,,,,387528.40000000224,387528.40000000224,,387528.200000003,,387534.582,8,400,,,
sequence,flow.Sequence,4_65,2023-11-02T16:23:03.481Z,,0,,,8661.260000002221,completion,,,,,false,,,,387528.6000000015,387528.40000000224,378850.473,378854,378867.14,387534.582,8,400,,,
trial,html.Screen,4_66_0,2023-11-02T16:23:06.543Z,,0,2,,3055.918000000005,response,ISIC_8621568.JPG,9,ISIC_8689112.JPG,ISIC_8689112.JPG,false,0,keypress(z),500,390590.700000003,390590.5,387517.915,387528.80000000075,387534.582,390601.31,8,400,17,,ISIC_8621568.JPG
break,html.Screen,4_66_1,2023-11-02T16:23:06.544Z,,0,,,NaN,,,,,,false,,,,390591.40000000224,390591.200000003,,390590.90000000224,,390601.31,8,400,,,
break_continue,html.Screen,4_66_2,2023-11-02T16:23:06.544Z,,0,,,NaN,,,,,,false,,,,390591.80000000075,390591.700000003,,390591.6000000015,,390601.31,8,400,,,
sequence,flow.Sequence,4_66,2023-11-02T16:23:06.544Z,,0,,,3057.1180000029854,completion,,,,,false,,,,390592,390591.700000003,387517.915,387528.700000003,387534.582,390601.31,8,400,,,
trial,html.Screen,4_67_0,2023-11-02T16:23:11.989Z,,0,2,,5434.5900000022375,response,ISIC_0053611.JPG,8,ISIC_7759376.JPG,ISIC_0053611.JPG,false,1,keypress(m),500,396036.1000000015,396035.90000000224,390584.643,390592.1000000015,390601.31,396051.419,8,400,18,,ISIC_7759376.JPG
break,html.Screen,4_67_1,2023-11-02T16:23:11.989Z,,0,,,NaN,,,,,,false,,,,396036.90000000224,396036.700000003,,396036.30000000075,,396051.419,8,400,,,
break_continue,html.Screen,4_67_2,2023-11-02T16:23:11.990Z,,0,,,NaN,,,,,,false,,,,396037.30000000075,396037.1000000015,,396037,,396051.419,8,400,,,
sequence,flow.Sequence,4_67,2023-11-02T16:23:11.990Z,,0,,,5435.790000001492,completion,,,,,false,,,,396037.5,396037.1000000015,390584.643,390592,390601.31,396051.419,8,400,,,
trial,html.Screen,4_68_0,2023-11-02T16:23:15.898Z,,0,2,,3893.8810000007506,response,ISIC_0030518.JPG,6,ISIC_7648726.JPG,ISIC_7648726.JPG,false,0,keypress(z),500,399945.5,399945.30000000075,396034.752,396037.700000003,396051.419,399952.087,8,400,19,,ISIC_0030518.JPG
break,html.Screen,4_68_1,2023-11-02T16:23:15.898Z,,0,,,NaN,,,,,,false,,,,399946.1000000015,399945.90000000224,,399945.700000003,,399952.087,8,400,,,
break_continue,html.Screen,4_68_2,2023-11-02T16:23:15.899Z,,0,,,NaN,,,,,,false,,,,399946.5,399946.40000000224,,399946.30000000075,,399952.087,8,400,,,
sequence,flow.Sequence,4_68,2023-11-02T16:23:15.899Z,,0,,,3894.9810000022408,completion,,,,,false,,,,399946.700000003,399946.40000000224,396034.752,396037.6000000015,396051.419,399952.087,8,400,,,
trial,html.Screen,4_69_0,2023-11-02T16:23:24.191Z,,0,2,,8286.01300000149,response,ISIC_0025499.JPG,5,ISIC_0030911.JPG,ISIC_0030911.JPG,false,0,keypress(z),500,408238.40000000224,408238.1000000015,399935.42,399946.80000000075,399952.087,408252.747,8,400,20,,ISIC_0025499.JPG
break,html.Screen,4_69_1,2023-11-02T16:23:24.191Z,,0,,,NaN,,,,,,false,,,,408239.1000000015,408238.90000000224,,408238.6000000015,,408252.747,8,400,,,
break_continue,html.Screen,4_69_2,2023-11-02T16:23:24.192Z,,0,,,NaN,,,,,,false,,,,408239.5,408239.30000000075,,408239.200000003,,408252.747,8,400,,,
sequence,flow.Sequence,4_69,2023-11-02T16:23:24.192Z,,0,,,8287.213000000746,completion,,,,,false,,,,408239.6000000015,408239.30000000075,399935.42,399946.80000000075,399952.087,408252.747,8,400,,,
trial,html.Screen,4_70_0,2023-11-02T16:23:34.229Z,,0,2,,10023.953000003006,response,ISIC_0060659.JPG,7,ISIC_0057495.JPG,ISIC_0060659.JPG,false,1,keypress(m),500,418276.90000000224,418276.700000003,408236.08,408239.80000000075,408252.747,418303.47,8,400,21,,ISIC_0057495.JPG
break,html.Screen,4_70_1,2023-11-02T16:23:34.230Z,,0,,,NaN,,,,,,false,,,,418277.700000003,418277.40000000224,,418277.1000000015,,418303.47,8,400,,,
break_continue,html.Screen,4_70_2,2023-11-02T16:23:34.230Z,,0,,,NaN,,,,,,false,,,,418278,418278,,418277.80000000075,,418303.47,8,400,,,
sequence,flow.Sequence,4_70,2023-11-02T16:23:34.230Z,,0,,,10025.253000000026,completion,,,,,false,,,,418278.200000003,418278,408236.08,408239.700000003,408252.747,418303.47,8,400,,,
trial,html.Screen,4_71_0,2023-11-02T16:23:38.107Z,,0,2,,3851.030000000028,response,ISIC_7973296.JPG,5,ISIC_7831274.JPG,ISIC_7831274.JPG,false,0,keypress(z),500,422154.80000000075,422154.5,418286.803,418278.30000000075,418303.47,422170.214,8,400,22,,ISIC_7973296.JPG
break,html.Screen,4_71_1,2023-11-02T16:23:38.107Z,,0,,,NaN,,,,,,false,,,,422155.5,422155.40000000224,,422155,,422170.214,8,400,,,
break_continue,html.Screen,4_71_2,2023-11-02T16:23:38.109Z,,0,,,NaN,,,,,,false,,,,422156.700000003,422156.5,,422156.30000000075,,422170.214,8,400,,,
sequence,flow.Sequence,4_71,2023-11-02T16:23:38.109Z,,0,,,3853.030000000028,completion,,,,,false,,,,422156.90000000224,422156.5,418286.803,418278.30000000075,418303.47,422170.214,8,400,,,
trial,html.Screen,4_72_0,2023-11-02T16:23:44.624Z,,0,2,,6501.486000003002,response,ISIC_0054248.JPG,5,ISIC_7264251.JPG,ISIC_0054248.JPG,false,1,keypress(m),500,428671.90000000224,428671.700000003,422153.547,422157.1000000015,422170.214,428687.486,8,400,23,,ISIC_7264251.JPG
break,html.Screen,4_72_1,2023-11-02T16:23:44.624Z,,0,,,NaN,,,,,,false,,,,428672.6000000015,428672.40000000224,,428672.200000003,,428687.486,8,400,,,
break_continue,html.Screen,4_72_2,2023-11-02T16:23:44.625Z,,0,,,NaN,,,,,,false,,,,428673.1000000015,428672.90000000224,,428672.80000000075,,428687.486,8,400,,,
sequence,flow.Sequence,4_72,2023-11-02T16:23:44.625Z,,0,,,6502.686000002257,completion,,,,,false,,,,428673.30000000075,428672.90000000224,422153.547,422157.1000000015,422170.214,428687.486,8,400,,,
trial,html.Screen,4_73_0,2023-11-02T16:23:49.128Z,,0,2,,4488.714000003005,response,ISIC_6913045.JPG,6,ISIC_8175453.JPG,ISIC_8175453.JPG,false,0,keypress(z),500,433176.40000000224,433176.200000003,428670.819,428673.40000000224,428687.486,433187.576,8,400,24,,ISIC_6913045.JPG
break,html.Screen,4_73_1,2023-11-02T16:23:49.129Z,,0,,,NaN,,,,,,false,,,,433177,433176.90000000224,,433176.6000000015,,433187.576,8,400,,,
break_continue,html.Screen,4_73_2,2023-11-02T16:23:49.129Z,,0,,,NaN,,,,,,false,,,,433177.5,433177.40000000224,,433177.30000000075,,433187.576,8,400,,,
sequence,flow.Sequence,4_73,2023-11-02T16:23:49.129Z,,0,,,4489.91400000226,completion,,,,,false,,,,433177.700000003,433177.40000000224,428670.819,428673.30000000075,428687.486,433187.576,8,400,,,
trial,html.Screen,4_74_0,2023-11-02T16:24:00.628Z,,0,2,,11517.439000000013,timeout,ISIC_1858989.JPG,7,ISIC_9324486.JPG,,false,,,500,444676.5,444676.30000000075,433170.909,433177.80000000075,433187.576,444705.015,8,400,25,,
break,html.Screen,4_74_1,2023-11-02T16:24:00.629Z,,0,,,NaN,,,,,,false,,,,444677.200000003,444676.90000000224,,444676.700000003,,444705.015,8,400,,,
break_continue,html.Screen,4_74_2,2023-11-02T16:24:00.629Z,,0,,,NaN,,,,,,false,,,,444677.5,444677.40000000224,,444677.200000003,,444705.015,8,400,,,
sequence,flow.Sequence,4_74,2023-11-02T16:24:00.629Z,,0,,,11489.824000002234,completion,,,,,false,,,,444677.6000000015,444677.40000000224,433170.909,433177.80000000075,433187.576,444705.015,8,400,,,
trial,html.Screen,4_75_0,2023-11-02T16:24:02.696Z,,0,2,,2039.285000000731,response,ISIC_9640145.JPG,7,ISIC_0029214.JPG,ISIC_0029214.JPG,false,0,keypress(z),500,446744.5,446744.30000000075,444688.348,444677.80000000075,444705.015,446755.056,8,400,26,,ISIC_9640145.JPG
break,html.Screen,4_75_1,2023-11-02T16:24:02.697Z,,0,,,NaN,,,,,,false,,,,446745.200000003,446745,,446744.700000003,,446755.056,8,400,,,
break_continue,html.Screen,4_75_2,2023-11-02T16:24:02.697Z,,0,,,NaN,,,,,,false,,,,446745.6000000015,446745.40000000224,,446745.30000000075,,446755.056,8,400,,,
sequence,flow.Sequence,4_75,2023-11-02T16:24:02.697Z,,0,,,2040.3850000022212,completion,,,,,false,,,,446745.700000003,446745.40000000224,444688.348,444677.80000000075,444705.015,446755.056,8,400,,,
trial,html.Screen,4_76_0,2023-11-02T16:24:05.329Z,,0,2,,2622.7440000007628,response,ISIC_2513481.JPG,5,ISIC_0030911.JPG,ISIC_0030911.JPG,false,0,keypress(z),500,449378.1000000015,449377.80000000075,446738.389,446745.90000000224,446755.056,449388.892,8,400,27,,ISIC_2513481.JPG
break,html.Screen,4_76_1,2023-11-02T16:24:05.330Z,,0,,,NaN,,,,,,false,,,,449378.700000003,449378.5,,449378.30000000075,,449388.892,8,400,,,
break_continue,html.Screen,4_76_2,2023-11-02T16:24:05.331Z,,0,,,NaN,,,,,,false,,,,449379.1000000015,449379,,449378.90000000224,,449388.892,8,400,,,
sequence,flow.Sequence,4_76,2023-11-02T16:24:05.331Z,,0,,,2623.9440000000177,completion,,,,,false,,,,449379.30000000075,449379,446738.389,446745.80000000075,446755.056,449388.892,8,400,,,
trial,html.Screen,4_77_0,2023-11-02T16:24:08.534Z,,0,2,,3193.5080000022426,response,ISIC_3327201.JPG,8,ISIC_5648111.JPG,ISIC_3327201.JPG,false,1,keypress(m),500,452582.6000000015,452582.40000000224,449372.225,449379.40000000224,449388.892,452588.956,8,400,28,,ISIC_5648111.JPG
break,html.Screen,4_77_1,2023-11-02T16:24:08.535Z,,0,,,NaN,,,,,,false,,,,452583.200000003,452583.1000000015,,452582.80000000075,,452588.956,8,400,,,
break_continue,html.Screen,4_77_2,2023-11-02T16:24:08.535Z,,0,,,NaN,,,,,,false,,,,452583.6000000015,452583.5,,452583.30000000075,,452588.956,8,400,,,
sequence,flow.Sequence,4_77,2023-11-02T16:24:08.535Z,,0,,,3194.6080000000075,completion,,,,,false,,,,452583.700000003,452583.5,449372.225,449379.40000000224,449388.892,452588.956,8,400,,,
trial,html.Screen,4_78_0,2023-11-02T16:24:11.502Z,,0,2,,2961.3440000007395,response,ISIC_1753877.JPG,7,ISIC_0624498.JPG,ISIC_0624498.JPG,false,0,keypress(z),500,455550.5,455550.30000000075,452572.289,452583.90000000224,452588.956,455555.682,8,400,29,,ISIC_1753877.JPG
break,html.Screen,4_78_1,2023-11-02T16:24:11.503Z,,0,,,NaN,,,,,,false,,,,455551.200000003,455551,,455550.80000000075,,455555.682,8,400,,,
break_continue,html.Screen,4_78_2,2023-11-02T16:24:11.503Z,,0,,,NaN,,,,,,false,,,,455551.6000000015,455551.5,,455551.40000000224,,455555.682,8,400,,,
sequence,flow.Sequence,4_78,2023-11-02T16:24:11.503Z,,0,,,2962.5439999999944,completion,,,,,false,,,,455551.80000000075,455551.5,452572.289,452583.90000000224,452588.956,455555.682,8,400,,,
trial,html.Screen,4_79_0,2023-11-02T16:24:15.573Z,,0,2,,4065.7180000022636,response,ISIC_0015245.JPG,5,ISIC_0030003.JPG,ISIC_0015245.JPG,false,1,keypress(m),500,459621.700000003,459621.40000000224,455539.015,455551.90000000224,455555.682,459622.989,8,400,30,,ISIC_0030003.JPG
break,html.Screen,4_79_1,2023-11-02T16:24:15.574Z,,0,,,NaN,,,,,,false,,,,459622.40000000224,459622.200000003,,459621.90000000224,,459622.989,8,400,,,
break_continue,html.Screen,4_79_2,2023-11-02T16:24:15.574Z,,0,,,NaN,,,,,,false,,,,459622.700000003,459622.6000000015,,459622.5,,459622.989,8,400,,,
sequence,flow.Sequence,4_79,2023-11-02T16:24:15.574Z,,0,,,4066.9180000015185,completion,,,,,false,,,,459623,459622.6000000015,455539.015,455551.90000000224,455555.682,459622.989,8,400,,,
trial,html.Screen,4_80_0,2023-11-02T16:24:25.931Z,,0,2,,10357.010999999999,response,ISIC_0000395.JPG,8,ISIC_9756117.JPG,ISIC_9756117.JPG,false,0,keypress(z),500,469980.30000000075,469980,459606.322,459623.1000000015,459622.989,469990.341,8,400,31,,ISIC_0000395.JPG
break,html.Screen,4_80_1,2023-11-02T16:24:25.932Z,,0,,,NaN,,,,,,false,,,,469981.1000000015,469980.80000000075,,469980.40000000224,,469990.341,8,400,,,
break_continue,html.Screen,4_80_2,2023-11-02T16:24:25.933Z,,0,,,NaN,,,,,,false,,,,469981.40000000224,469981.30000000075,,469981.30000000075,,469990.341,8,400,,,
sequence,flow.Sequence,4_80,2023-11-02T16:24:25.933Z,,0,,,10358.311000000744,completion,,,,,false,,,,469981.700000003,469981.30000000075,459606.322,459623,459622.989,469990.341,8,400,,,
trial,html.Screen,4_81_0,2023-11-02T16:24:31.026Z,,0,2,,5084.759000001475,response,ISIC_0033517.JPG,7,ISIC_2232442.JPG,ISIC_0033517.JPG,false,1,keypress(m),500,475075.30000000075,475075.1000000015,469973.674,469981.80000000075,469990.341,475090.443,8,400,32,,ISIC_2232442.JPG
break,html.Screen,4_81_1,2023-11-02T16:24:31.027Z,,0,,,NaN,,,,,,false,,,,475076.200000003,475075.90000000224,,475075.5,,475090.443,8,400,,,
break_continue,html.Screen,4_81_2,2023-11-02T16:24:31.027Z,,0,,,NaN,,,,,,false,,,,475076.6000000015,475076.5,,475076.40000000224,,475090.443,8,400,,,
sequence,flow.Sequence,4_81,2023-11-02T16:24:31.028Z,,0,,,5086.158999999985,completion,,,,,false,,,,475076.700000003,475076.5,469973.674,469981.80000000075,469990.341,475090.443,8,400,,,
trial,html.Screen,4_82_0,2023-11-02T16:24:35.863Z,,0,2,,4821.857000000717,response,ISIC_3390057.JPG,7,ISIC_0027065.JPG,ISIC_0027065.JPG,false,0,keypress(z),500,479912.5,479912.30000000075,475073.776,475076.90000000224,475090.443,479941.084,8,400,33,,ISIC_3390057.JPG
break,html.Screen,4_82_1,2023-11-02T16:24:35.864Z,,0,,,NaN,,,,,,false,,,,479913.200000003,479913,,479912.700000003,,479941.084,8,400,,,
break_continue,html.Screen,4_82_2,2023-11-02T16:24:35.864Z,,0,,,NaN,,,,,,false,,,,479913.5,479913.40000000224,,479913.30000000075,,479941.084,8,400,,,
sequence,flow.Sequence,4_82,2023-11-02T16:24:35.865Z,,0,,,4822.957000002207,completion,,,,,false,,,,479913.700000003,479913.40000000224,475073.776,475076.90000000224,475090.443,479941.084,8,400,,,
trial,html.Screen,4_83_0,2023-11-02T16:24:40.587Z,,0,2,,4694.516000001517,response,ISIC_0740449.JPG,6,ISIC_7340247.JPG,ISIC_0740449.JPG,false,1,keypress(m),500,484635.80000000075,484635.6000000015,479924.417,479913.80000000075,479941.084,484641.178,8,400,34,,ISIC_7340247.JPG
break,html.Screen,4_83_1,2023-11-02T16:24:40.587Z,,0,,,NaN,,,,,,false,,,,484636.5,484636.30000000075,,484636,,484641.178,8,400,,,
break_continue,html.Screen,4_83_2,2023-11-02T16:24:40.588Z,,0,,,NaN,,,,,,false,,,,484636.90000000224,484636.80000000075,,484636.6000000015,,484641.178,8,400,,,
sequence,flow.Sequence,4_83,2023-11-02T16:24:40.588Z,,0,,,4695.716000000772,completion,,,,,false,,,,484637.1000000015,484636.80000000075,479924.417,479913.80000000075,479941.084,484641.178,8,400,,,
trial,html.Screen,4_84_0,2023-11-02T16:24:45.505Z,,0,2,,4913.022000002966,response,ISIC_4900077.JPG,8,ISIC_1919324.JPG,ISIC_1919324.JPG,false,0,keypress(z),500,489554.40000000224,489554.200000003,484624.511,484637.200000003,484641.178,489557.943,8,400,35,,ISIC_4900077.JPG
break,html.Screen,4_84_1,2023-11-02T16:24:45.506Z,,0,,,NaN,,,,,,false,,,,489555.200000003,489555,,489554.700000003,,489557.943,8,400,,,
break_continue,html.Screen,4_84_2,2023-11-02T16:24:45.506Z,,0,,,NaN,,,,,,false,,,,489555.5,489555.40000000224,,489555.30000000075,,489557.943,8,400,,,
sequence,flow.Sequence,4_84,2023-11-02T16:24:45.506Z,,0,,,4914.222000002221,completion,,,,,false,,,,489555.700000003,489555.40000000224,484624.511,484637.200000003,484641.178,489557.943,8,400,,,
trial,html.Screen,4_85_0,2023-11-02T16:24:48.869Z,,0,2,,3360.4570000022068,response,ISIC_1285870.JPG,5,ISIC_0054941.JPG,ISIC_1285870.JPG,false,1,keypress(m),500,492918.5,492918.40000000224,489541.276,489555.80000000075,489557.943,492925.178,8,400,36,,ISIC_0054941.JPG
break,html.Screen,4_85_1,2023-11-02T16:24:48.870Z,,0,,,NaN,,,,,,false,,,,492919.200000003,492919,,492918.80000000075,,492925.178,8,400,,,
break_continue,html.Screen,4_85_2,2023-11-02T16:24:48.870Z,,0,,,NaN,,,,,,false,,,,492919.6000000015,492919.40000000224,,492919.40000000224,,492925.178,8,400,,,
sequence,flow.Sequence,4_85,2023-11-02T16:24:48.870Z,,0,,,3361.4570000022068,completion,,,,,false,,,,492919.80000000075,492919.40000000224,489541.276,489555.80000000075,489557.943,492925.178,8,400,,,
trial,html.Screen,4_86_0,2023-11-02T16:24:53.310Z,,0,2,,4434.122000000731,response,ISIC_0034046.JPG,9,ISIC_0027659.JPG,ISIC_0027659.JPG,false,0,keypress(z),500,497359.5,497359.30000000075,492908.511,492920,492925.178,497375.267,8,400,37,,ISIC_0034046.JPG
break,html.Screen,4_86_1,2023-11-02T16:24:53.311Z,,0,,,NaN,,,,,,false,,,,497360.200000003,497360,,497359.80000000075,,497375.267,8,400,,,
break_continue,html.Screen,4_86_2,2023-11-02T16:24:53.311Z,,0,,,NaN,,,,,,false,,,,497360.6000000015,497360.40000000224,,497360.40000000224,,497375.267,8,400,,,
sequence,flow.Sequence,4_86,2023-11-02T16:24:53.311Z,,0,,,4435.222000002221,completion,,,,,false,,,,497360.80000000075,497360.40000000224,492908.511,492920,492925.178,497375.267,8,400,,,
trial,html.Screen,4_87_0,2023-11-02T16:25:02.372Z,,0,2,,9046.333000001498,response,ISIC_4161113.JPG,7,ISIC_0071338.JPG,ISIC_0071338.JPG,false,0,keypress(z),500,506421.80000000075,506421.6000000015,497358.6,497361,497375.267,506426.05,8,400,38,,ISIC_4161113.JPG
break,html.Screen,4_87_1,2023-11-02T16:25:02.373Z,,0,,,NaN,,,,,,false,,,,506422.5,506422.30000000075,,506422.1000000015,,506426.05,8,400,,,
break_continue,html.Screen,4_87_2,2023-11-02T16:25:02.373Z,,0,,,NaN,,,,,,false,,,,506422.90000000224,506422.700000003,,506422.6000000015,,506426.05,8,400,,,
sequence,flow.Sequence,4_87,2023-11-02T16:25:02.373Z,,0,,,9047.433000002988,completion,,,,,false,,,,506423.1000000015,506422.700000003,497358.6,497361,497375.267,506426.05,8,400,,,
trial,html.Screen,4_88_0,2023-11-02T16:25:11.465Z,,0,2,,9088.250000000757,response,ISIC_0027109.JPG,8,ISIC_7711947.JPG,ISIC_0027109.JPG,false,1,keypress(m),500,515514.5,515514.30000000075,506409.383,506423.200000003,506426.05,515526.841,8,400,39,,ISIC_7711947.JPG
break,html.Screen,4_88_1,2023-11-02T16:25:11.465Z,,0,,,NaN,,,,,,false,,,,515515.30000000075,515515.1000000015,,515514.80000000075,,515526.841,8,400,,,
break_continue,html.Screen,4_88_2,2023-11-02T16:25:11.466Z,,0,,,NaN,,,,,,false,,,,515515.6000000015,515515.5,,515515.30000000075,,515526.841,8,400,,,
sequence,flow.Sequence,4_88,2023-11-02T16:25:11.466Z,,0,,,9089.450000000012,completion,,,,,false,,,,515515.80000000075,515515.5,506409.383,506423.200000003,506426.05,515526.841,8,400,,,
trial,html.Screen,4_89_0,2023-11-02T16:25:16.254Z,,0,2,,4776.658999999985,response,ISIC_0069986.JPG,7,ISIC_1977265.JPG,ISIC_1977265.JPG,false,0,keypress(z),500,520303.700000003,520303.5,515510.174,515516,515526.841,520310.27,8,400,40,,ISIC_0069986.JPG
break,html.Screen,4_89_1,2023-11-02T16:25:16.254Z,,0,,,NaN,,,,,,false,,,,520304.40000000224,520304.200000003,,520303.90000000224,,520310.27,8,400,,,
break_continue,html.Screen,4_89_2,2023-11-02T16:25:16.255Z,,0,,,NaN,,,,,,false,,,,520304.700000003,520304.6000000015,,520304.5,,520310.27,8,400,,,
sequence,flow.Sequence,4_89,2023-11-02T16:25:16.255Z,,0,,,4777.759000001475,completion,,,,,false,,,,520305,520304.6000000015,515510.174,515515.90000000224,515526.841,520310.27,8,400,,,
trial,html.Screen,4_90_0,2023-11-02T16:25:22.401Z,,0,2,,6140.729999999981,response,ISIC_0024607.JPG,7,ISIC_0014088.JPG,ISIC_0024607.JPG,false,1,keypress(m),500,526451.200000003,526451,520293.603,520305.1000000015,520310.27,526460.809,8,400,41,,ISIC_0014088.JPG
break,html.Screen,4_90_1,2023-11-02T16:25:22.402Z,,0,,,NaN,,,,,,false,,,,526451.8000000007,526451.6000000015,,526451.3000000007,,526460.809,8,400,,,
break_continue,html.Screen,4_90_2,2023-11-02T16:25:22.402Z,,0,,,NaN,,,,,,false,,,,526452.1000000015,526452,,526451.9000000022,,526460.809,8,400,,,
sequence,flow.Sequence,4_90,2023-11-02T16:25:22.402Z,,0,,,6141.729999999981,completion,,,,,false,,,,526452.200000003,526452,520293.603,520305,520310.27,526460.809,8,400,,,
trial,html.Screen,4_91_0,2023-11-02T16:25:28.711Z,,0,2,,6300.091000002227,response,ISIC_0011527.JPG,7,ISIC_0069698.JPG,ISIC_0069698.JPG,false,0,keypress(z),500,532761.200000003,532760.9000000022,526444.142,526452.4000000022,526460.809,532777.602,8,400,42,,ISIC_0011527.JPG
break,html.Screen,4_91_1,2023-11-02T16:25:28.712Z,,0,,,NaN,,,,,,false,,,,532761.8000000007,532761.6000000015,,532761.3000000007,,532777.602,8,400,,,
break_continue,html.Screen,4_91_2,2023-11-02T16:25:28.712Z,,0,,,NaN,,,,,,false,,,,532762.1000000015,532762,,532761.9000000022,,532777.602,8,400,,,
sequence,flow.Sequence,4_91,2023-11-02T16:25:28.712Z,,0,,,6301.190999999992,completion,,,,,false,,,,532762.3000000007,532762,526444.142,526452.3000000007,526460.809,532777.602,8,400,,,
trial,html.Screen,4_92_0,2023-11-02T16:25:31.951Z,,0,2,,3222.998000001535,response,ISIC_0064247.JPG,7,ISIC_0033279.JPG,ISIC_0064247.JPG,false,1,keypress(m),500,536000.9000000022,536000.6000000015,532760.935,532762.5,532777.602,536011.592,8,400,43,,ISIC_0033279.JPG
break,html.Screen,4_92_1,2023-11-02T16:25:31.951Z,,0,,,NaN,,,,,,false,,,,536001.5,536001.3000000007,,536001,,536011.592,8,400,,,
break_continue,html.Screen,4_92_2,2023-11-02T16:25:31.952Z,,0,,,NaN,,,,,,false,,,,536001.8000000007,536001.700000003,,536001.6000000015,,536011.592,8,400,,,
sequence,flow.Sequence,4_92,2023-11-02T16:25:31.952Z,,0,,,3224.098000003025,completion,,,,,false,,,,536002,536001.700000003,532760.935,532762.4000000022,532777.602,536011.592,8,400,,,
trial,html.Screen,4_93_0,2023-11-02T16:25:35.683Z,,0,2,,3721.1080000030342,response,ISIC_0014931.JPG,7,ISIC_0013702.JPG,ISIC_0014931.JPG,false,1,keypress(m),500,539732.9000000022,539732.700000003,535994.925,536002.1000000015,536011.592,539745,8,400,44,,ISIC_0013702.JPG
break,html.Screen,4_93_1,2023-11-02T16:25:35.683Z,,0,,,NaN,,,,,,false,,,,539733.6000000015,539733.4000000022,,539733.200000003,,539745,8,400,,,
break_continue,html.Screen,4_93_2,2023-11-02T16:25:35.684Z,,0,,,NaN,,,,,,false,,,,539733.9000000022,539733.8000000007,,539733.700000003,,539745,8,400,,,
sequence,flow.Sequence,4_93,2023-11-02T16:25:35.684Z,,0,,,3722.208000000799,completion,,,,,false,,,,539734.1000000015,539733.8000000007,535994.925,536002,536011.592,539745,8,400,,,
trial,html.Screen,4_94_0,2023-11-02T16:25:39.803Z,,0,2,,4107.800000000745,response,ISIC_6119830.JPG,8,ISIC_3018550.JPG,ISIC_6119830.JPG,false,1,keypress(m),500,543852.9000000022,543852.8000000007,539728.333,539734.200000003,539745,543861.749,8,400,45,,ISIC_3018550.JPG
break,html.Screen,4_94_1,2023-11-02T16:25:39.804Z,,0,,,NaN,,,,,,false,,,,543853.9000000022,543853.5,,543853.200000003,,543861.749,8,400,,,
break_continue,html.Screen,4_94_2,2023-11-02T16:25:39.804Z,,0,,,NaN,,,,,,false,,,,543854.3000000007,543854.200000003,,543854.1000000015,,543861.749,8,400,,,
sequence,flow.Sequence,4_94,2023-11-02T16:25:39.804Z,,0,,,4109.20000000298,completion,,,,,false,,,,543854.5,543854.200000003,539728.333,539734.200000003,539745,543861.749,8,400,,,
trial,html.Screen,4_95_0,2023-11-02T16:25:42.930Z,,0,2,,3118.1510000022827,response,ISIC_1368336.JPG,8,ISIC_0013492.JPG,ISIC_0013492.JPG,false,0,keypress(z),500,546980.200000003,546979.9000000022,543845.082,543854.700000003,543861.749,546995.664,8,400,46,,ISIC_1368336.JPG
break,html.Screen,4_95_1,2023-11-02T16:25:42.931Z,,0,,,NaN,,,,,,false,,,,546980.9000000022,546980.700000003,,546980.4000000022,,546995.664,8,400,,,
break_continue,html.Screen,4_95_2,2023-11-02T16:25:42.931Z,,0,,,NaN,,,,,,false,,,,546981.4000000022,546981.200000003,,546981.1000000015,,546995.664,8,400,,,
sequence,flow.Sequence,4_95,2023-11-02T16:25:42.931Z,,0,,,3119.4510000030277,completion,,,,,false,,,,546981.6000000015,546981.200000003,543845.082,543854.6000000015,543861.749,546995.664,8,400,,,
trial,html.Screen,4_96_0,2023-11-02T16:25:51.192Z,,0,2,,8247.136000000755,response,ISIC_1264950.JPG,6,ISIC_7830756.JPG,ISIC_1264950.JPG,false,1,keypress(m),500,555243,555242.8000000007,546978.997,546981.8000000007,546995.664,555245.829,8,400,47,,ISIC_7830756.JPG
break,html.Screen,4_96_1,2023-11-02T16:25:51.193Z,,0,,,NaN,,,,,,false,,,,555243.700000003,555243.5,,555243.3000000007,,555245.829,8,400,,,
break_continue,html.Screen,4_96_2,2023-11-02T16:25:51.194Z,,0,,,NaN,,,,,,false,,,,555244.1000000015,555244,,555243.8000000007,,555245.829,8,400,,,
sequence,flow.Sequence,4_96,2023-11-02T16:25:51.194Z,,0,,,8248.33600000001,completion,,,,,false,,,,555244.3000000007,555244,546978.997,546981.700000003,546995.664,555245.829,8,400,,,
trial,html.Screen,4_97_0,2023-11-02T16:25:55.982Z,,0,2,,4786.670999999973,response,ISIC_0010749.JPG,8,ISIC_0005377.JPG,ISIC_0005377.JPG,false,0,keypress(z),500,560032.700000003,560032.5,555229.162,555244.4000000022,555245.829,560046.356,8,400,48,,ISIC_0010749.JPG
break,html.Screen,4_97_1,2023-11-02T16:25:55.983Z,,0,,,NaN,,,,,,false,,,,560033.4000000022,560033.200000003,,560032.9000000022,,560046.356,8,400,,,
break_continue,html.Screen,4_97_2,2023-11-02T16:25:55.983Z,,0,,,NaN,,,,,,false,,,,560033.8000000007,560033.6000000015,,560033.5,,560046.356,8,400,,,
sequence,flow.Sequence,4_97,2023-11-02T16:25:55.983Z,,0,,,4787.771000001463,completion,,,,,false,,,,560033.9000000022,560033.6000000015,555229.162,555244.4000000022,555245.829,560046.356,8,400,,,
trial,html.Screen,4_98_0,2023-11-02T16:26:05.317Z,,0,2,,9320.944000000716,response,ISIC_0011086.JPG,7,ISIC_0316668.JPG,ISIC_0316668.JPG,false,0,keypress(z),500,569367.5,569367.3000000007,560029.689,560034.200000003,560046.356,569380.558,8,400,49,,ISIC_0011086.JPG
break,html.Screen,4_98_1,2023-11-02T16:26:05.317Z,,0,,,NaN,,,,,,false,,,,569368.3000000007,569368,,569367.8000000007,,569380.558,8,400,,,
break_continue,html.Screen,4_98_2,2023-11-02T16:26:05.318Z,,0,,,NaN,,,,,,false,,,,569368.700000003,569368.6000000015,,569368.4000000022,,569380.558,8,400,,,
sequence,flow.Sequence,4_98,2023-11-02T16:26:05.318Z,,0,,,9322.244000001461,completion,,,,,false,,,,569368.9000000022,569368.6000000015,560029.689,560034,560046.356,569380.558,8,400,,,
trial,html.Screen,4_99_0,2023-11-02T16:26:07.656Z,,0,2,,2326.0420000015292,response,ISIC_3786438.JPG,7,ISIC_0059547.JPG,ISIC_3786438.JPG,false,1,keypress(m),500,571706.9000000022,571706.6000000015,569363.891,569369.1000000015,569380.558,571713.938,8,400,50,,ISIC_0059547.JPG
break,html.Screen,4_99_1,2023-11-02T16:26:17.650Z,,0,,,10000.60400000005,timeout,,,,,false,,,,581701,581697.875,571697.271,571707.1000000015,571713.938,581714.542,8,400,,,
break_continue,html.Screen,4_99_2,2023-11-02T16:26:18.741Z,,0,,,1059.2580000007292,response,,,,,false,continue,keypress(Space),,582791.8000000007,582773.8000000007,581697.875,581701.200000003,581714.542,582797.897,8,400,,,
sequence,flow.Sequence,4_99,2023-11-02T16:26:18.741Z,,0,,,13393.242000000784,completion,,,,,false,,,,582791.9000000022,582773.8000000007,569363.891,569369,569380.558,582797.897,8,400,,,
trial,html.Screen,4_100_0,2023-11-02T16:26:21.482Z,,0,3,,2734.503000002238,response,ISIC_0068576.JPG,6,ISIC_8357415.JPG,ISIC_8357415.JPG,false,0,keypress(z),500,585532.700000003,585532.4000000022,582781.23,582792,582797.897,585547.952,8,400,1,,ISIC_0068576.JPG
break,html.Screen,4_100_1,2023-11-02T16:26:21.482Z,,0,,,NaN,,,,,,false,,,,585533.3000000007,585533.200000003,,585532.8000000007,,585547.952,8,400,,,
break_continue,html.Screen,4_100_2,2023-11-02T16:26:21.483Z,,0,,,NaN,,,,,,false,,,,585533.700000003,585533.6000000015,,585533.5,,585547.952,8,400,,,
sequence,flow.Sequence,4_100,2023-11-02T16:26:21.483Z,,0,,,2735.703000001493,completion,,,,,false,,,,585533.9000000022,585533.6000000015,582781.23,582791.9000000022,582797.897,585547.952,8,400,,,
trial,html.Screen,4_101_0,2023-11-02T16:26:25.806Z,,0,3,,4308.848000000697,response,ISIC_4723378.JPG,8,ISIC_0001743.JPG,ISIC_4723378.JPG,false,1,keypress(m),500,589857,589856.8000000007,585531.285,585534.1000000015,585547.952,589865.314,8,400,2,,ISIC_0001743.JPG
break,html.Screen,4_101_1,2023-11-02T16:26:25.807Z,,0,,,NaN,,,,,,false,,,,589857.700000003,589857.5,,589857.3000000007,,589865.314,8,400,,,
break_continue,html.Screen,4_101_2,2023-11-02T16:26:25.807Z,,0,,,NaN,,,,,,false,,,,589858.3000000007,589858,,589857.9000000022,,589865.314,8,400,,,
sequence,flow.Sequence,4_101,2023-11-02T16:26:25.807Z,,0,,,4310.047999999952,completion,,,,,false,,,,589858.4000000022,589858,585531.285,585534,585547.952,589865.314,8,400,,,
trial,html.Screen,4_102_0,2023-11-02T16:26:30.467Z,,0,3,,4653.086000002222,response,ISIC_6529819.JPG,6,ISIC_0001135.JPG,ISIC_0001135.JPG,false,0,keypress(z),500,594518.5,594518.4000000022,589848.647,589858.6000000015,589865.314,594532.074,8,400,3,,ISIC_6529819.JPG
break,html.Screen,4_102_1,2023-11-02T16:26:30.468Z,,0,,,NaN,,,,,,false,,,,594519.200000003,594519.1000000015,,594518.700000003,,594532.074,8,400,,,
break_continue,html.Screen,4_102_2,2023-11-02T16:26:30.468Z,,0,,,NaN,,,,,,false,,,,594519.5,594519.4000000022,,594519.4000000022,,594532.074,8,400,,,
sequence,flow.Sequence,4_102,2023-11-02T16:26:30.468Z,,0,,,4654.086000002222,completion,,,,,false,,,,594519.8000000007,594519.4000000022,589848.647,589858.5,589865.314,594532.074,8,400,,,
trial,html.Screen,4_103_0,2023-11-02T16:26:35.544Z,,0,3,,5063.326000002213,response,ISIC_7833178.JPG,9,ISIC_0010486.JPG,ISIC_7833178.JPG,false,1,keypress(m),500,599595.700000003,599595.4000000022,594515.407,594519.9000000022,594532.074,599598.842,8,400,4,,ISIC_0010486.JPG
break,html.Screen,4_103_1,2023-11-02T16:26:35.545Z,,0,,,NaN,,,,,,false,,,,599596.3000000007,599596.1000000015,,599595.8000000007,,599598.842,8,400,,,
break_continue,html.Screen,4_103_2,2023-11-02T16:26:35.545Z,,0,,,NaN,,,,,,false,,,,599596.700000003,599596.6000000015,,599596.4000000022,,599598.842,8,400,,,
sequence,flow.Sequence,4_103,2023-11-02T16:26:35.545Z,,0,,,5064.526000001468,completion,,,,,false,,,,599596.9000000022,599596.6000000015,594515.407,594519.9000000022,594532.074,599598.842,8,400,,,
trial,html.Screen,4_104_0,2023-11-02T16:26:43.022Z,,0,3,,7474.658000000054,response,ISIC_8145260.JPG,6,ISIC_0026364.JPG,ISIC_0026364.JPG,false,0,keypress(z),500,607073.9000000022,607073.5,599582.175,599597,599598.842,607082.829,8,400,5,,ISIC_8145260.JPG
break,html.Screen,4_104_1,2023-11-02T16:26:43.024Z,,0,,,NaN,,,,,,false,,,,607075,607074.8000000007,,607074.5,,607082.829,8,400,,,
break_continue,html.Screen,4_104_2,2023-11-02T16:26:43.024Z,,0,,,NaN,,,,,,false,,,,607075.4000000022,607075.3000000007,,607075.1000000015,,607082.829,8,400,,,
sequence,flow.Sequence,4_104,2023-11-02T16:26:43.024Z,,0,,,7476.458000000799,completion,,,,,false,,,,607075.5,607075.3000000007,599582.175,599597,599598.842,607082.829,8,400,,,
trial,html.Screen,4_105_0,2023-11-02T16:26:50.473Z,,0,3,,7441.670999999973,response,ISIC_2310935.JPG,7,ISIC_0004558.JPG,ISIC_2310935.JPG,false,1,keypress(m),500,614524.8000000007,614524.5,607066.162,607075.6000000015,607082.829,614533.667,8,400,6,,ISIC_0004558.JPG
break,html.Screen,4_105_1,2023-11-02T16:26:50.474Z,,0,,,NaN,,,,,,false,,,,614525.4000000022,614525.200000003,,614524.9000000022,,614533.667,8,400,,,
break_continue,html.Screen,4_105_2,2023-11-02T16:26:50.474Z,,0,,,NaN,,,,,,false,,,,614525.9000000022,614525.700000003,,614525.5,,614533.667,8,400,,,
sequence,flow.Sequence,4_105,2023-11-02T16:26:50.474Z,,0,,,7442.871000002953,completion,,,,,false,,,,614526.1000000015,614525.700000003,607066.162,607075.5,607082.829,614533.667,8,400,,,
trial,html.Screen,4_106_0,2023-11-02T16:26:55.665Z,,0,3,,5183.233000002219,response,ISIC_0010773.JPG,7,ISIC_8837443.JPG,ISIC_8837443.JPG,false,0,keypress(z),500,619717,619716.9000000022,614517,614526.200000003,614533.667,619733.771,8,400,7,,ISIC_0010773.JPG
break,html.Screen,4_106_1,2023-11-02T16:26:55.666Z,,0,,,NaN,,,,,,false,,,,619717.8000000007,619717.6000000015,,619717.3000000007,,619733.771,8,400,,,
break_continue,html.Screen,4_106_2,2023-11-02T16:26:55.666Z,,0,,,NaN,,,,,,false,,,,619718.200000003,619718,,619718,,619733.771,8,400,,,
sequence,flow.Sequence,4_106,2023-11-02T16:26:55.667Z,,0,,,5184.332999999984,completion,,,,,false,,,,619718.5,619718,614517,614526.200000003,614533.667,619733.771,8,400,,,
trial,html.Screen,4_107_0,2023-11-02T16:26:58.806Z,,0,3,,3123.4290000030305,response,ISIC_0458561.JPG,5,ISIC_0055701.JPG,ISIC_0458561.JPG,false,1,keypress(m),500,622857.4000000022,622857.200000003,619717.104,619718.700000003,619733.771,622867.167,8,400,8,,ISIC_0055701.JPG
break,html.Screen,4_107_1,2023-11-02T16:26:58.806Z,,0,,,NaN,,,,,,false,,,,622858,622857.9000000022,,622857.6000000015,,622867.167,8,400,,,
break_continue,html.Screen,4_107_2,2023-11-02T16:26:58.807Z,,0,,,NaN,,,,,,false,,,,622858.4000000022,622858.3000000007,,622858.200000003,,622867.167,8,400,,,
sequence,flow.Sequence,4_107,2023-11-02T16:26:58.807Z,,0,,,3124.5290000007953,completion,,,,,false,,,,622858.5,622858.3000000007,619717.104,619718.6000000015,619733.771,622867.167,8,400,,,
trial,html.Screen,4_108_0,2023-11-02T16:27:03.097Z,,0,3,,4281.133000000729,response,ISIC_9109361.JPG,5,ISIC_4951035.JPG,ISIC_9109361.JPG,false,1,keypress(m),500,627148.6000000015,627148.3000000007,622850.5,622858.700000003,622867.167,627151.008,8,400,9,,ISIC_4951035.JPG
break,html.Screen,4_108_1,2023-11-02T16:27:03.097Z,,0,,,NaN,,,,,,false,,,,627149.3000000007,627149.1000000015,,627148.8000000007,,627151.008,8,400,,,
break_continue,html.Screen,4_108_2,2023-11-02T16:27:03.098Z,,0,,,NaN,,,,,,false,,,,627149.6000000015,627149.5,,627149.4000000022,,627151.008,8,400,,,
sequence,flow.Sequence,4_108,2023-11-02T16:27:03.098Z,,0,,,4282.332999999984,completion,,,,,false,,,,627149.8000000007,627149.5,622850.5,622858.6000000015,622867.167,627151.008,8,400,,,
trial,html.Screen,4_109_0,2023-11-02T16:27:08.990Z,,0,3,,5890.892000002204,response,ISIC_4745475.JPG,7,ISIC_0024779.JPG,ISIC_0024779.JPG,false,0,keypress(z),500,633042.1000000015,633041.9000000022,627134.341,627150,627151.008,633051.126,8,400,10,,ISIC_4745475.JPG
break,html.Screen,4_109_1,2023-11-02T16:27:08.991Z,,0,,,NaN,,,,,,false,,,,633042.9000000022,633042.700000003,,633042.3000000007,,633051.126,8,400,,,
break_continue,html.Screen,4_109_2,2023-11-02T16:27:08.991Z,,0,,,NaN,,,,,,false,,,,633043.3000000007,633043.1000000015,,633043,,633051.126,8,400,,,
sequence,flow.Sequence,4_109,2023-11-02T16:27:08.992Z,,0,,,5892.092000001459,completion,,,,,false,,,,633043.5,633043.1000000015,627134.341,627150,627151.008,633051.126,8,400,,,
trial,html.Screen,4_110_0,2023-11-02T16:27:15.154Z,,0,3,,6155.274000002188,response,ISIC_0064656.JPG,6,ISIC_5848892.JPG,ISIC_0064656.JPG,false,1,keypress(m),500,639206.6000000015,639206.4000000022,633034.459,633043.700000003,633051.126,639218.414,8,400,11,,ISIC_5848892.JPG
break,html.Screen,4_110_1,2023-11-02T16:27:15.155Z,,0,,,NaN,,,,,,false,,,,639207.3000000007,639207.200000003,,639206.8000000007,,639218.414,8,400,,,
break_continue,html.Screen,4_110_2,2023-11-02T16:27:15.156Z,,0,,,NaN,,,,,,false,,,,639207.8000000007,639207.700000003,,639207.6000000015,,639218.414,8,400,,,
sequence,flow.Sequence,4_110,2023-11-02T16:27:15.156Z,,0,,,6156.574000002933,completion,,,,,false,,,,639208,639207.700000003,633034.459,633043.700000003,633051.126,639218.414,8,400,,,
trial,html.Screen,4_111_0,2023-11-02T16:27:25.496Z,,0,3,,10329.78600000299,response,ISIC_5441247.JPG,6,ISIC_0066109.JPG,ISIC_5441247.JPG,false,1,keypress(m),500,649548.4000000022,649548.200000003,639201.747,639208.1000000015,639218.414,649552.709,8,400,12,,ISIC_0066109.JPG
break,html.Screen,4_111_1,2023-11-02T16:27:25.497Z,,0,,,NaN,,,,,,false,,,,649549.1000000015,649548.9000000022,,649548.700000003,,649552.709,8,400,,,
break_continue,html.Screen,4_111_2,2023-11-02T16:27:25.497Z,,0,,,NaN,,,,,,false,,,,649549.5,649549.3000000007,,649549.3000000007,,649552.709,8,400,,,
sequence,flow.Sequence,4_111,2023-11-02T16:27:25.497Z,,0,,,10330.886000000755,completion,,,,,false,,,,649549.700000003,649549.3000000007,639201.747,639208,639218.414,649552.709,8,400,,,
trial,html.Screen,4_112_0,2023-11-02T16:27:32.365Z,,0,3,,6864.6910000022035,response,ISIC_0025450.JPG,8,ISIC_4193253.JPG,ISIC_4193253.JPG,false,0,keypress(z),500,656417.700000003,656417.4000000022,649536.042,649549.8000000007,649552.709,656419.513,8,400,13,,ISIC_0025450.JPG
break,html.Screen,4_112_1,2023-11-02T16:27:32.366Z,,0,,,NaN,,,,,,false,,,,656418.4000000022,656418.200000003,,656417.9000000022,,656419.513,8,400,,,
break_continue,html.Screen,4_112_2,2023-11-02T16:27:32.366Z,,0,,,NaN,,,,,,false,,,,656418.8000000007,656418.6000000015,,656418.5,,656419.513,8,400,,,
sequence,flow.Sequence,4_112,2023-11-02T16:27:32.366Z,,0,,,6865.891000001458,completion,,,,,false,,,,656418.9000000022,656418.6000000015,649536.042,649549.8000000007,649552.709,656419.513,8,400,,,
trial,html.Screen,4_113_0,2023-11-02T16:27:35.592Z,,0,3,,3224.3870000022,response,ISIC_0067094.JPG,9,ISIC_0012887.JPG,ISIC_0067094.JPG,false,1,keypress(m),500,659644.1000000015,659643.9000000022,656402.846,656419.1000000015,656419.513,659653.447,8,400,14,,ISIC_0012887.JPG
break,html.Screen,4_113_1,2023-11-02T16:27:35.592Z,,0,,,NaN,,,,,,false,,,,659644.9000000022,659644.6000000015,,659644.4000000022,,659653.447,8,400,,,
break_continue,html.Screen,4_113_2,2023-11-02T16:27:35.593Z,,0,,,NaN,,,,,,false,,,,659645.200000003,659645,,659644.9000000022,,659653.447,8,400,,,
sequence,flow.Sequence,4_113,2023-11-02T16:27:35.593Z,,0,,,3225.4869999999646,completion,,,,,false,,,,659645.4000000022,659645,656402.846,656419,656419.513,659653.447,8,400,,,
trial,html.Screen,4_114_0,2023-11-02T16:27:47.088Z,,0,3,,11517.422999999952,timeout,ISIC_0034192.JPG,7,ISIC_2365588.JPG,,false,,,500,671140.200000003,671140,659636.78,659645.4000000022,659653.447,671170.87,8,400,15,,
break,html.Screen,4_114_1,2023-11-02T16:27:47.088Z,,0,,,NaN,,,,,,false,,,,671140.9000000022,671140.700000003,,671140.5,,671170.87,8,400,,,
break_continue,html.Screen,4_114_2,2023-11-02T16:27:47.089Z,,0,,,NaN,,,,,,false,,,,671141.200000003,671141.1000000015,,671141,,671170.87,8,400,,,
sequence,flow.Sequence,4_114,2023-11-02T16:27:47.089Z,,0,,,11487.653000001446,completion,,,,,false,,,,671141.4000000022,671141.1000000015,659636.78,659645.4000000022,659653.447,671170.87,8,400,,,
trial,html.Screen,4_115_0,2023-11-02T16:27:51.428Z,,0,3,,4310.130000000005,response,ISIC_3779093.JPG,8,ISIC_0033586.JPG,ISIC_0033586.JPG,false,0,keypress(z),500,675481.1000000015,675481,671154.203,671141.6000000015,671170.87,675487.623,8,400,16,,ISIC_3779093.JPG
break,html.Screen,4_115_1,2023-11-02T16:27:51.429Z,,0,,,NaN,,,,,,false,,,,675482,675481.700000003,,675481.3000000007,,675487.623,8,400,,,
break_continue,html.Screen,4_115_2,2023-11-02T16:27:51.430Z,,0,,,NaN,,,,,,false,,,,675482.4000000022,675482.200000003,,675482.1000000015,,675487.623,8,400,,,
sequence,flow.Sequence,4_115,2023-11-02T16:27:51.430Z,,0,,,4311.330000002985,completion,,,,,false,,,,675482.5,675482.200000003,671154.203,671141.5,671170.87,675487.623,8,400,,,
trial,html.Screen,4_116_0,2023-11-02T16:28:02.922Z,,0,3,,11517.444000000018,timeout,ISIC_0032637.JPG,7,ISIC_0066733.JPG,,false,,,500,686974.9000000022,686974.8000000007,675470.956,675482.700000003,675487.623,687005.067,8,400,17,,
break,html.Screen,4_116_1,2023-11-02T16:28:02.922Z,,0,,,NaN,,,,,,false,,,,686975.4000000022,686975.200000003,,686975.1000000015,,687005.067,8,400,,,
break_continue,html.Screen,4_116_2,2023-11-02T16:28:02.923Z,,0,,,NaN,,,,,,false,,,,686975.8000000007,686975.6000000015,,686975.6000000015,,687005.067,8,400,,,
sequence,flow.Sequence,4_116,2023-11-02T16:28:02.923Z,,0,,,11487.977000001469,completion,,,,,false,,,,686975.9000000022,686975.6000000015,675470.956,675482.700000003,675487.623,687005.067,8,400,,,
trial,html.Screen,4_117_0,2023-11-02T16:28:11.297Z,,0,3,,8344.633000002941,response,ISIC_0028239.JPG,5,ISIC_8295834.JPG,ISIC_0028239.JPG,false,1,keypress(m),500,695349.8000000007,695349.700000003,686988.4,686976.1000000015,687005.067,695355.932,8,400,18,,ISIC_8295834.JPG
break,html.Screen,4_117_1,2023-11-02T16:28:11.297Z,,0,,,NaN,,,,,,false,,,,695350.5,695350.3000000007,,695350.1000000015,,695355.932,8,400,,,
break_continue,html.Screen,4_117_2,2023-11-02T16:28:11.298Z,,0,,,NaN,,,,,,false,,,,695350.8000000007,695350.6000000015,,695350.6000000015,,695355.932,8,400,,,
sequence,flow.Sequence,4_117,2023-11-02T16:28:11.298Z,,0,,,8345.533000001451,completion,,,,,false,,,,695350.9000000022,695350.6000000015,686988.4,686976.1000000015,687005.067,695355.932,8,400,,,
trial,html.Screen,4_118_0,2023-11-02T16:28:16.538Z,,0,3,,5235.16800000146,response,ISIC_0061829.JPG,9,ISIC_0028173.JPG,ISIC_0028173.JPG,false,0,keypress(z),500,700591.3000000007,700591.1000000015,695339.265,695351.1000000015,695355.932,700606.037,8,400,19,,ISIC_0061829.JPG
break,html.Screen,4_118_1,2023-11-02T16:28:16.539Z,,0,,,NaN,,,,,,false,,,,700592,700591.9000000022,,700591.5,,700606.037,8,400,,,
break_continue,html.Screen,4_118_2,2023-11-02T16:28:16.539Z,,0,,,NaN,,,,,,false,,,,700592.4000000022,700592.200000003,,700592.1000000015,,700606.037,8,400,,,
sequence,flow.Sequence,4_118,2023-11-02T16:28:16.539Z,,0,,,5236.26800000295,completion,,,,,false,,,,700592.6000000015,700592.200000003,695339.265,695351,695355.932,700606.037,8,400,,,
trial,html.Screen,4_119_0,2023-11-02T16:28:19.629Z,,0,3,,3076.462999999989,response,ISIC_0065039.JPG,6,ISIC_0394030.JPG,ISIC_0065039.JPG,false,1,keypress(m),500,703682.8000000007,703682.5,700589.37,700592.700000003,700606.037,703689.432,8,400,20,,ISIC_0394030.JPG
break,html.Screen,4_119_1,2023-11-02T16:28:19.630Z,,0,,,NaN,,,,,,false,,,,703683.4000000022,703683.200000003,,703682.9000000022,,703689.432,8,400,,,
break_continue,html.Screen,4_119_2,2023-11-02T16:28:19.630Z,,0,,,NaN,,,,,,false,,,,703683.8000000007,703683.6000000015,,703683.5,,703689.432,8,400,,,
sequence,flow.Sequence,4_119,2023-11-02T16:28:19.631Z,,0,,,3077.563000001479,completion,,,,,false,,,,703684,703683.6000000015,700589.37,700592.700000003,700606.037,703689.432,8,400,,,
trial,html.Screen,4_120_0,2023-11-02T16:28:22.612Z,,0,3,,2975.7680000029504,response,ISIC_4013189.JPG,7,ISIC_8650269.JPG,ISIC_8650269.JPG,false,0,keypress(z),500,706665.4000000022,706665.200000003,703672.765,703684.1000000015,703689.432,706673.27,8,400,21,,ISIC_4013189.JPG
break,html.Screen,4_120_1,2023-11-02T16:28:22.613Z,,0,,,NaN,,,,,,false,,,,706666.3000000007,706666.1000000015,,706665.700000003,,706673.27,8,400,,,
break_continue,html.Screen,4_120_2,2023-11-02T16:28:22.613Z,,0,,,NaN,,,,,,false,,,,706666.700000003,706666.5,,706666.5,,706673.27,8,400,,,
sequence,flow.Sequence,4_120,2023-11-02T16:28:22.614Z,,0,,,2977.06799999997,completion,,,,,false,,,,706666.9000000022,706666.5,703672.765,703684,703689.432,706673.27,8,400,,,
trial,html.Screen,4_121_0,2023-11-02T16:28:26.073Z,,0,3,,3453.3300000014715,response,ISIC_3971712.JPG,9,ISIC_0073156.JPG,ISIC_3971712.JPG,false,1,keypress(m),500,710126.8000000007,710126.6000000015,706656.603,706667.1000000015,706673.27,710140.006,8,400,22,,ISIC_0073156.JPG
break,html.Screen,4_121_1,2023-11-02T16:28:26.074Z,,0,,,NaN,,,,,,false,,,,710127.5,710127.4000000022,,710127.1000000015,,710140.006,8,400,,,
break_continue,html.Screen,4_121_2,2023-11-02T16:28:26.074Z,,0,,,NaN,,,,,,false,,,,710127.9000000022,710127.8000000007,,710127.700000003,,710140.006,8,400,,,
sequence,flow.Sequence,4_121,2023-11-02T16:28:26.075Z,,0,,,3454.5300000007264,completion,,,,,false,,,,710128.1000000015,710127.8000000007,706656.603,706667,706673.27,710140.006,8,400,,,
trial,html.Screen,4_122_0,2023-11-02T16:28:31.283Z,,0,3,,5195.894000002183,response,ISIC_4620425.JPG,7,ISIC_8691327.JPG,ISIC_8691327.JPG,false,0,keypress(z),500,715336.1000000015,715335.9000000022,710123.339,710128.200000003,710140.006,715340.11,8,400,23,,ISIC_4620425.JPG
break,html.Screen,4_122_1,2023-11-02T16:28:31.283Z,,0,,,NaN,,,,,,false,,,,715336.9000000022,715336.700000003,,715336.4000000022,,715340.11,8,400,,,
break_continue,html.Screen,4_122_2,2023-11-02T16:28:31.284Z,,0,,,NaN,,,,,,false,,,,715337.4000000022,715337.200000003,,715337,,715340.11,8,400,,,
sequence,flow.Sequence,4_122,2023-11-02T16:28:31.284Z,,0,,,5197.194000002928,completion,,,,,false,,,,715337.6000000015,715337.200000003,710123.339,710128.200000003,710140.006,715340.11,8,400,,,
trial,html.Screen,4_123_0,2023-11-02T16:28:34.488Z,,0,3,,3201.290000002249,response,ISIC_0026348.JPG,8,ISIC_0056167.JPG,ISIC_0026348.JPG,false,1,keypress(m),500,718541.700000003,718541.4000000022,715323.443,715337.8000000007,715340.11,718557.373,8,400,24,,ISIC_0056167.JPG
break,html.Screen,4_123_1,2023-11-02T16:28:34.489Z,,0,,,NaN,,,,,,false,,,,718542.5,718542.3000000007,,718542,,718557.373,8,400,,,
break_continue,html.Screen,4_123_2,2023-11-02T16:28:34.490Z,,0,,,NaN,,,,,,false,,,,718543.1000000015,718542.9000000022,,718542.8000000007,,718557.373,8,400,,,
sequence,flow.Sequence,4_123,2023-11-02T16:28:34.490Z,,0,,,3202.790000002249,completion,,,,,false,,,,718543.4000000022,718542.9000000022,715323.443,715337.8000000007,715340.11,718557.373,8,400,,,
trial,html.Screen,4_124_0,2023-11-02T16:28:45.990Z,,0,3,,11517.554000000004,timeout,ISIC_5457229.JPG,6,ISIC_1037945.JPG,,false,,,500,730044,730043.8000000007,718540.706,718543.6000000015,718557.373,730074.927,8,400,25,,
break,html.Screen,4_124_1,2023-11-02T16:28:45.991Z,,0,,,NaN,,,,,,false,,,,730044.6000000015,730044.4000000022,,730044.1000000015,,730074.927,8,400,,,
break_continue,html.Screen,4_124_2,2023-11-02T16:28:45.991Z,,0,,,NaN,,,,,,false,,,,730045.1000000015,730044.8000000007,,730044.700000003,,730074.927,8,400,,,
sequence,flow.Sequence,4_124,2023-11-02T16:28:45.992Z,,0,,,11487.427000000724,completion,,,,,false,,,,730045.3000000007,730044.8000000007,718540.706,718543.5,718557.373,730074.927,8,400,,,
trial,html.Screen,4_125_0,2023-11-02T16:28:55.995Z,,0,3,,9973.87300000072,response,ISIC_1585370.JPG,5,ISIC_0059041.JPG,ISIC_0059041.JPG,false,0,keypress(z),500,740049.1000000015,740048.8000000007,730058.26,730045.5,730074.927,740075.687,8,400,26,,ISIC_1585370.JPG
break,html.Screen,4_125_1,2023-11-02T16:28:55.996Z,,0,,,NaN,,,,,,false,,,,740049.700000003,740049.5,,740049.3000000007,,740075.687,8,400,,,
break_continue,html.Screen,4_125_2,2023-11-02T16:28:55.996Z,,0,,,NaN,,,,,,false,,,,740050.1000000015,740050,,740049.9000000022,,740075.687,8,400,,,
sequence,flow.Sequence,4_125,2023-11-02T16:28:55.996Z,,0,,,9975.072999999975,completion,,,,,false,,,,740050.5,740050,730058.26,730045.4000000022,730074.927,740075.687,8,400,,,
trial,html.Screen,4_126_0,2023-11-02T16:29:00.305Z,,0,3,,4282.913000001456,response,ISIC_5823859.JPG,9,ISIC_4014307.JPG,ISIC_5823859.JPG,false,1,keypress(m),500,744358.8000000007,744358.6000000015,740059.02,740050.6000000015,740075.687,744375.773,8,400,27,,ISIC_4014307.JPG
break,html.Screen,4_126_1,2023-11-02T16:29:00.305Z,,0,,,NaN,,,,,,false,,,,744359.5,744359.3000000007,,744359,,744375.773,8,400,,,
break_continue,html.Screen,4_126_2,2023-11-02T16:29:00.306Z,,0,,,NaN,,,,,,false,,,,744359.8000000007,744359.700000003,,744359.6000000015,,744375.773,8,400,,,
sequence,flow.Sequence,4_126,2023-11-02T16:29:00.306Z,,0,,,4284.013000002946,completion,,,,,false,,,,744360,744359.700000003,740059.02,740050.5,740075.687,744375.773,8,400,,,
trial,html.Screen,4_127_0,2023-11-02T16:29:05.782Z,,0,3,,5459.726999999955,response,ISIC_8513112.JPG,7,ISIC_0056739.JPG,ISIC_8513112.JPG,false,1,keypress(m),500,749835.700000003,749835.5,744359.106,744360.1000000015,744375.773,749842.549,8,400,28,,ISIC_0056739.JPG
break,html.Screen,4_127_1,2023-11-02T16:29:05.782Z,,0,,,NaN,,,,,,false,,,,749836.4000000022,749836.200000003,,749835.9000000022,,749842.549,8,400,,,
break_continue,html.Screen,4_127_2,2023-11-02T16:29:05.783Z,,0,,,NaN,,,,,,false,,,,749836.8000000007,749836.6000000015,,749836.5,,749842.549,8,400,,,
