sender,sender_type,sender_id,timestamp,meta,,blockNo,condition,duration,ended_on,img_left,img_reveal,img_right,loser,practice,response,response_action,selection_duration,time_commit,time_end,time_render,time_run,time_show,time_switch,total_blocks,total_trials,trialNo,url,winner
informed_consent,html.Screen,0,2023-05-02T14:42:19.408Z,"{""labjs_version"":""20.2.4"",""labjs_build"":{""flavor"":""production"",""commit"":""f5b4a49f956347addd546a832a3327688c2c0fef""},""location"":""https://run.pavlovia.org/MurrayBennett/melanoma-2afc/?participant=64968"",""userAgent"":""Mozilla/5.0 (Macintosh; Intel Mac OS X 10_15_7) AppleWebKit/537.36 (KHTML, like Gecko) Chrome/112.0.0.0 Safari/537.36"",""platform"":""MacIntel"",""language"":""en-US"",""locale"":""en-US"",""timeZone"":""America/Chicago"",""timezoneOffset"":300,""screen_width"":1440,""screen_height"":900,""scroll_width"":1440,""scroll_height"":773,""window_innerWidth"":1440,""window_innerHeight"":821,""devicePixelRatio"":2}",,,,3314.3030000059603,response,,,,,,consent,click button,,5432.4000000059605,5428.9000000059605,1764.611,2121.7999999821186,2114.597,5464.463,,,,"{""participant"":""64968""}",
Welcome,html.Screen,1,2023-05-02T14:42:20.292Z,,,,irregular,849.1369999940398,response,,,,,,continue,click button,,6316.799999982119,6313.5999999940395,5431.131,5432.5999999940395,5464.463,6331.095,,,,,
trial,html.Screen,2_0_0,2023-05-02T14:42:28.379Z,,0,0,,8072.405,response,ISIC_0061792.JPG,,ISIC_4679428.JPG,ISIC_0061792.JPG,true,0,keypress(z),500,14403.799999982119,14403.5,6314.429,6317.0999999940395,6331.095,14418.798,1,6,1,,ISIC_4679428.JPG
sequence,flow.Sequence,2_0,2023-05-02T14:42:28.380Z,,0,,,8072.405,completion,,,,,true,,,,14404.199999988079,14403.5,6314.429,6317,6331.095,14418.798,1,6,,,
trial,html.Screen,2_1_0,2023-05-02T14:42:31.155Z,,0,0,,2760.7019999999993,response,ISIC_0776486.JPG,,ISIC_5199497.JPG,ISIC_5199497.JPG,true,0,keypress(z),500,17179.79999998212,17179.5,14402.132,14404.40000000596,14418.798,17185.354,1,6,2,,ISIC_0776486.JPG
sequence,flow.Sequence,2_1,2023-05-02T14:42:31.156Z,,0,,,2760.7019999999993,completion,,,,,true,,,,17180.19999998808,17179.5,14402.132,14404.40000000596,14418.798,17185.354,1,6,,,
trial,html.Screen,2_2_0,2023-05-02T14:42:34.634Z,,0,0,,3473.1460000000006,response,ISIC_2556187.JPG,,ISIC_8575776.JPG,ISIC_2556187.JPG,true,1,keypress(m),500,20658.79999998212,20658.5,17168.688,17180.40000000596,17185.354,20676.128,1,6,3,,ISIC_8575776.JPG
sequence,flow.Sequence,2_2,2023-05-02T14:42:34.634Z,,0,,,3473.1460000000006,completion,,,,,true,,,,20659.19999998808,20658.5,17168.688,17180.40000000596,17185.354,20676.128,1,6,,,
trial,html.Screen,2_3_0,2023-05-02T14:42:36.963Z,,0,0,,2311.27200000596,response,ISIC_8141769.JPG,,ISIC_9238366.JPG,ISIC_9238366.JPG,true,0,keypress(z),500,22987.59999999404,22987.40000000596,20659.462,20659.29999998212,20676.128,22992.702,1,6,4,,ISIC_8141769.JPG
sequence,flow.Sequence,2_3,2023-05-02T14:42:36.963Z,,0,,,2311.27200000596,completion,,,,,true,,,,22987.90000000596,22987.40000000596,20659.462,20659.19999998808,20676.128,22992.702,1,6,,,
trial,html.Screen,2_4_0,2023-05-02T14:42:39.304Z,,0,0,,2335.8979999940384,response,ISIC_8949026.JPG,,ISIC_9959593.JPG,ISIC_9959593.JPG,true,0,keypress(z),500,25329,25328.59999999404,22976.036,22988,22992.702,25342.608,1,6,5,,ISIC_8949026.JPG
sequence,flow.Sequence,2_4,2023-05-02T14:42:39.305Z,,0,,,2335.8979999940384,completion,,,,,true,,,,25329.40000000596,25328.59999999404,22976.036,22988,22992.702,25342.608,1,6,,,
trial,html.Screen,2_5_0,2023-05-02T14:42:41.524Z,,0,0,,2205.4919999940394,response,ISIC_0010479.JPG,,ISIC_0460240.JPG,ISIC_0010479.JPG,true,1,keypress(m),500,27548.29999998212,27548.09999999404,25325.942,25329.59999999404,25342.608,27559.186,1,6,6,,ISIC_0460240.JPG
sequence,flow.Sequence,2_5,2023-05-02T14:42:41.524Z,,0,,,2205.4919999940394,completion,,,,,true,,,,27548.69999998808,27548.09999999404,25325.942,25329.5,25342.608,27559.186,1,6,,,
loop,flow.Loop,2,2023-05-02T14:42:41.524Z,,,,,21217.00499999404,completion,,,,,true,,,,27549,27548.09999999404,6314.429,6317,6331.095,27559.186,1,6,,,
exp_instructions,html.Screen,3,2023-05-02T14:42:50.479Z,,,,,8937.813999999998,response,,,,,,continue,keypress(Space),,36503.69999998808,36497,27542.52,27549.09999999404,27559.186,36508.828,,,,,
trial,html.Screen,4_0_0,2023-05-02T14:42:52.841Z,,0,1,,2356.771999994038,response,ISIC_3509838.JPG,,ISIC_0005028.JPG,ISIC_3509838.JPG,false,1,keypress(m),500,38866,38865.59999999404,36492.162,36504,36508.828,38880.493,8,400,1,,ISIC_0005028.JPG
break,html.Screen,4_0_1,2023-05-02T14:42:52.842Z,,0,,,NaN,,,,,,false,,,,38867,38866.69999998808,,38866.19999998808,,38880.493,8,400,,,
break_continue,html.Screen,4_0_2,2023-05-02T14:42:52.843Z,,0,,,NaN,,,,,,false,,,,38867.59999999404,38867.40000000596,,38867.19999998808,,38880.493,8,400,,,
sequence,flow.Sequence,4_0,2023-05-02T14:42:52.843Z,,0,,,2358.572000005959,completion,,,,,false,,,,38867.79999998212,38867.40000000596,36492.162,36503.90000000596,36508.828,38880.493,8,400,,,
trial,html.Screen,4_1_0,2023-05-02T14:42:55.123Z,,0,1,,2267.006999999998,response,ISIC_2231191.JPG,,ISIC_0006327.JPG,ISIC_0006327.JPG,false,0,keypress(z),500,41147.79999998212,41147.5,38863.827,38867.90000000596,38880.493,41163.735,8,400,2,,ISIC_2231191.JPG
break,html.Screen,4_1_1,2023-05-02T14:42:55.124Z,,0,,,NaN,,,,,,false,,,,41148.69999998808,41148.5,,41148.09999999404,,41163.735,8,400,,,
break_continue,html.Screen,4_1_2,2023-05-02T14:42:55.124Z,,0,,,NaN,,,,,,false,,,,41149.09999999404,41149,,41148.90000000596,,41163.735,8,400,,,
sequence,flow.Sequence,4_1,2023-05-02T14:42:55.124Z,,0,,,2268.506999999998,completion,,,,,false,,,,41149.29999998212,41149,38863.827,38867.90000000596,38880.493,41163.735,8,400,,,
trial,html.Screen,4_2_0,2023-05-02T14:42:57.449Z,,0,1,,2309.7649999999994,response,ISIC_5552066.JPG,,ISIC_0010818.JPG,ISIC_5552066.JPG,false,1,keypress(m),500,43473.79999998212,43473.5,41147.069,41149.40000000596,41163.735,43480.309,8,400,3,,ISIC_0010818.JPG
break,html.Screen,4_2_1,2023-05-02T14:42:57.450Z,,0,,,NaN,,,,,,false,,,,43474.59999999404,43474.40000000596,,43474,,43480.309,8,400,,,
break_continue,html.Screen,4_2_2,2023-05-02T14:42:57.450Z,,0,,,NaN,,,,,,false,,,,43475,43474.90000000596,,43474.79999998212,,43480.309,8,400,,,
sequence,flow.Sequence,4_2,2023-05-02T14:42:57.450Z,,0,,,2311.16500000596,completion,,,,,false,,,,43475.19999998808,43474.90000000596,41147.069,41149.40000000596,41163.735,43480.309,8,400,,,
trial,html.Screen,4_3_0,2023-05-02T14:42:59.699Z,,0,1,,2243.2909999940384,response,ISIC_7826557.JPG,,ISIC_0068217.JPG,ISIC_0068217.JPG,false,0,keypress(z),500,45723.90000000596,45723.59999999404,43463.643,43475.5,43480.309,45730.219,8,400,4,,ISIC_7826557.JPG
break,html.Screen,4_3_1,2023-05-02T14:42:59.700Z,,0,,,NaN,,,,,,false,,,,45724.69999998808,45724.5,,45724.09999999404,,45730.219,8,400,,,
break_continue,html.Screen,4_3_2,2023-05-02T14:42:59.700Z,,0,,,NaN,,,,,,false,,,,45725.09999999404,45725,,45724.90000000596,,45730.219,8,400,,,
sequence,flow.Sequence,4_3,2023-05-02T14:42:59.700Z,,0,,,2244.690999999999,completion,,,,,false,,,,45725.40000000596,45725,43463.643,43475.40000000596,43480.309,45730.219,8,400,,,
trial,html.Screen,4_4_0,2023-05-02T14:43:01.913Z,,0,1,,2207.2810000000027,response,ISIC_0026428.JPG,,ISIC_0293086.JPG,ISIC_0026428.JPG,false,1,keypress(m),500,47937.79999998212,47937.5,45713.553,45725.59999999404,45730.219,47941.518,8,400,5,,ISIC_0293086.JPG
break,html.Screen,4_4_1,2023-05-02T14:43:01.914Z,,0,,,NaN,,,,,,false,,,,47938.59999999404,47938.40000000596,,47938.09999999404,,47941.518,8,400,,,
break_continue,html.Screen,4_4_2,2023-05-02T14:43:01.914Z,,0,,,NaN,,,,,,false,,,,47939.09999999404,47938.90000000596,,47938.79999998212,,47941.518,8,400,,,
sequence,flow.Sequence,4_4,2023-05-02T14:43:01.914Z,,0,,,2208.681000005963,completion,,,,,false,,,,47939.19999998808,47938.90000000596,45713.553,45725.40000000596,45730.219,47941.518,8,400,,,
trial,html.Screen,4_5_0,2023-05-02T14:43:04.585Z,,0,1,,2668.081999994043,response,ISIC_6487069.JPG,,ISIC_0030718.JPG,ISIC_0030718.JPG,false,0,keypress(z),500,50609.90000000596,50609.59999999404,47924.852,47939.40000000596,47941.518,50624.744,8,400,6,,ISIC_6487069.JPG
break,html.Screen,4_5_1,2023-05-02T14:43:04.586Z,,0,,,NaN,,,,,,false,,,,50610.69999998808,50610.40000000596,,50610,,50624.744,8,400,,,
break_continue,html.Screen,4_5_2,2023-05-02T14:43:04.586Z,,0,,,NaN,,,,,,false,,,,50611,50610.90000000596,,50610.69999998808,,50624.744,8,400,,,
sequence,flow.Sequence,4_5,2023-05-02T14:43:04.586Z,,0,,,2669.382000005964,completion,,,,,false,,,,50611.19999998808,50610.90000000596,47924.852,47939.40000000596,47941.518,50624.744,8,400,,,
trial,html.Screen,4_6_0,2023-05-02T14:43:06.883Z,,0,1,,2282.756000000001,response,ISIC_0031202.JPG,,ISIC_0025759.JPG,ISIC_0031202.JPG,false,1,keypress(m),500,52907.79999998212,52907.5,50608.078,50611.40000000596,50624.744,52924.652,8,400,7,,ISIC_0025759.JPG
break,html.Screen,4_6_1,2023-05-02T14:43:06.883Z,,0,,,NaN,,,,,,false,,,,52908.59999999404,52908.29999998212,,52908.09999999404,,52924.652,8,400,,,
break_continue,html.Screen,4_6_2,2023-05-02T14:43:06.884Z,,0,,,NaN,,,,,,false,,,,52909,52908.90000000596,,52908.69999998808,,52924.652,8,400,,,
sequence,flow.Sequence,4_6,2023-05-02T14:43:06.884Z,,0,,,2284.1560000059617,completion,,,,,false,,,,52909.19999998808,52908.90000000596,50608.078,50611.29999998212,50624.744,52924.652,8,400,,,
trial,html.Screen,4_7_0,2023-05-02T14:43:09.104Z,,0,1,,2204.1479999821167,response,ISIC_0032782.JPG,,ISIC_4427755.JPG,ISIC_4427755.JPG,false,0,keypress(z),500,55129.09999999404,55128.79999998212,52907.986,52909.40000000596,52924.652,55141.23,8,400,8,,ISIC_0032782.JPG
break,html.Screen,4_7_1,2023-05-02T14:43:09.105Z,,0,,,NaN,,,,,,false,,,,55129.90000000596,55129.59999999404,,55129.29999998212,,55141.23,8,400,,,
break_continue,html.Screen,4_7_2,2023-05-02T14:43:09.105Z,,0,,,NaN,,,,,,false,,,,55130.29999998212,55130.19999998808,,55130,,55141.23,8,400,,,
sequence,flow.Sequence,4_7,2023-05-02T14:43:09.105Z,,0,,,2205.547999988077,completion,,,,,false,,,,55130.59999999404,55130.19999998808,52907.986,52909.29999998212,52924.652,55141.23,8,400,,,
trial,html.Screen,4_8_0,2023-05-02T14:43:11.425Z,,0,1,,2308.769999999997,response,ISIC_0034048.JPG,,ISIC_0032630.JPG,ISIC_0032630.JPG,false,0,keypress(z),500,57450.29999998212,57450,55124.564,55130.69999998808,55141.23,57460.956,8,400,9,,ISIC_0034048.JPG
break,html.Screen,4_8_1,2023-05-02T14:43:11.426Z,,0,,,NaN,,,,,,false,,,,57451.19999998808,57450.90000000596,,57450.5,,57460.956,8,400,,,
break_continue,html.Screen,4_8_2,2023-05-02T14:43:11.426Z,,0,,,NaN,,,,,,false,,,,57451.5,57451.40000000596,,57451.29999998212,,57460.956,8,400,,,
sequence,flow.Sequence,4_8,2023-05-02T14:43:11.427Z,,0,,,2310.1700000059573,completion,,,,,false,,,,57451.69999998808,57451.40000000596,55124.564,55130.59999999404,55141.23,57460.956,8,400,,,
trial,html.Screen,4_9_0,2023-05-02T14:43:14.177Z,,0,1,,2740.944000005962,response,ISIC_8510848.JPG,,ISIC_6870208.JPG,ISIC_8510848.JPG,false,1,keypress(m),500,60202.19999998808,60201.90000000596,57444.29,57451.90000000596,57460.956,60210.846,8,400,10,,ISIC_6870208.JPG
break,html.Screen,4_9_1,2023-05-02T14:43:14.178Z,,0,,,NaN,,,,,,false,,,,60203.09999999404,60202.69999998808,,60202.5,,60210.846,8,400,,,
break_continue,html.Screen,4_9_2,2023-05-02T14:43:14.178Z,,0,,,NaN,,,,,,false,,,,60203.5,60203.19999998808,,60203.19999998808,,60210.846,8,400,,,
sequence,flow.Sequence,4_9,2023-05-02T14:43:14.178Z,,0,,,2742.2439999880808,completion,,,,,false,,,,60203.59999999404,60203.19999998808,57444.29,57451.90000000596,57460.956,60210.846,8,400,,,
trial,html.Screen,4_10_0,2023-05-02T14:43:16.673Z,,0,1,,2487.1540000000023,response,ISIC_0011529.JPG,,ISIC_0070711.JPG,ISIC_0070711.JPG,false,0,keypress(z),500,62698.19999998808,62698,60194.18,60203.69999998808,60210.846,62710.746,8,400,11,,ISIC_0011529.JPG
break,html.Screen,4_10_1,2023-05-02T14:43:16.674Z,,0,,,NaN,,,,,,false,,,,62699.09999999404,62698.79999998212,,62698.5,,62710.746,8,400,,,
break_continue,html.Screen,4_10_2,2023-05-02T14:43:16.674Z,,0,,,NaN,,,,,,false,,,,62699.40000000596,62699.29999998212,,62699.19999998808,,62710.746,8,400,,,
sequence,flow.Sequence,4_10,2023-05-02T14:43:16.674Z,,0,,,2488.453999982121,completion,,,,,false,,,,62699.59999999404,62699.29999998212,60194.18,60203.69999998808,60210.846,62710.746,8,400,,,
trial,html.Screen,4_11_0,2023-05-02T14:43:18.817Z,,0,1,,2131.254000000001,response,ISIC_0071245.JPG,,ISIC_0070814.JPG,ISIC_0071245.JPG,false,1,keypress(m),500,64842.29999998212,64842,62694.08,62699.79999998212,62710.746,64843.994,8,400,12,,ISIC_0070814.JPG
break,html.Screen,4_11_1,2023-05-02T14:43:18.818Z,,0,,,NaN,,,,,,false,,,,64843.09999999404,64842.90000000596,,64842.5,,64843.994,8,400,,,
break_continue,html.Screen,4_11_2,2023-05-02T14:43:18.818Z,,0,,,NaN,,,,,,false,,,,64843.40000000596,64843.29999998212,,64843.19999998808,,64843.994,8,400,,,
sequence,flow.Sequence,4_11,2023-05-02T14:43:18.818Z,,0,,,2132.5539999821194,completion,,,,,false,,,,64843.59999999404,64843.29999998212,62694.08,62699.69999998808,62710.746,64843.994,8,400,,,
trial,html.Screen,4_12_0,2023-05-02T14:43:21.048Z,,0,1,,2229.506000000001,response,ISIC_9542544.JPG,,ISIC_0026759.JPG,ISIC_0026759.JPG,false,0,keypress(z),500,67073.79999998212,67073.5,64827.328,64843.79999998212,64843.994,67077.238,8,400,13,,ISIC_9542544.JPG
break,html.Screen,4_12_1,2023-05-02T14:43:21.049Z,,0,,,NaN,,,,,,false,,,,67074.59999999404,67074.29999998212,,67074,,67077.238,8,400,,,
break_continue,html.Screen,4_12_2,2023-05-02T14:43:21.050Z,,0,,,NaN,,,,,,false,,,,67074.90000000596,67074.79999998212,,67074.69999998808,,67077.238,8,400,,,
sequence,flow.Sequence,4_12,2023-05-02T14:43:21.050Z,,0,,,2230.80599998212,completion,,,,,false,,,,67075.09999999404,67074.79999998212,64827.328,64843.79999998212,64843.994,67077.238,8,400,,,
trial,html.Screen,4_13_0,2023-05-02T14:43:23.528Z,,0,1,,2476.162000005963,response,ISIC_0062906.JPG,,ISIC_0029942.JPG,ISIC_0062906.JPG,false,1,keypress(m),500,69553.59999999404,69553.40000000596,67060.572,67075.19999998808,67077.238,69564.338,8,400,14,,ISIC_0029942.JPG
break,html.Screen,4_13_1,2023-05-02T14:43:23.529Z,,0,,,NaN,,,,,,false,,,,69554.5,69554.29999998212,,69553.90000000596,,69564.338,8,400,,,
break_continue,html.Screen,4_13_2,2023-05-02T14:43:23.529Z,,0,,,NaN,,,,,,false,,,,69554.90000000596,69554.79999998212,,69554.59999999404,,69564.338,8,400,,,
sequence,flow.Sequence,4_13,2023-05-02T14:43:23.530Z,,0,,,2477.561999982121,completion,,,,,false,,,,69555.09999999404,69554.79999998212,67060.572,67075.19999998808,67077.238,69564.338,8,400,,,
trial,html.Screen,4_14_0,2023-05-02T14:43:25.785Z,,0,1,,2245.3619999880757,response,ISIC_1790808.JPG,,ISIC_7575246.JPG,ISIC_1790808.JPG,false,0,keypress(z),500,71809.90000000596,71809.69999998808,69547.672,69555.29999998212,69564.338,71814.248,8,400,15,,ISIC_7575246.JPG
break,html.Screen,4_14_1,2023-05-02T14:43:25.785Z,,0,,,NaN,,,,,,false,,,,71810.69999998808,71810.5,,71810.19999998808,,71814.248,8,400,,,
break_continue,html.Screen,4_14_2,2023-05-02T14:43:25.786Z,,0,,,NaN,,,,,,false,,,,71811.19999998808,71810.90000000596,,71810.79999998212,,71814.248,8,400,,,
sequence,flow.Sequence,4_14,2023-05-02T14:43:25.786Z,,0,,,2246.562000005957,completion,,,,,false,,,,71811.29999998212,71810.90000000596,69547.672,69555.19999998808,69564.338,71814.248,8,400,,,
trial,html.Screen,4_15_0,2023-05-02T14:43:28.210Z,,0,1,,2421.251999999993,response,ISIC_0067467.JPG,,ISIC_4153542.JPG,ISIC_4153542.JPG,false,1,keypress(m),500,74235.79999998212,74235.5,71797.582,71811.5,71814.248,74247.484,8,400,16,,ISIC_0067467.JPG
break,html.Screen,4_15_1,2023-05-02T14:43:28.211Z,,0,,,NaN,,,,,,false,,,,74236.69999998808,74236.40000000596,,74236,,74247.484,8,400,,,
break_continue,html.Screen,4_15_2,2023-05-02T14:43:28.212Z,,0,,,NaN,,,,,,false,,,,74237,74236.90000000596,,74236.79999998212,,74247.484,8,400,,,
sequence,flow.Sequence,4_15,2023-05-02T14:43:28.212Z,,0,,,2422.6520000059536,completion,,,,,false,,,,74237.19999998808,74236.90000000596,71797.582,71811.40000000596,71814.248,74247.484,8,400,,,
trial,html.Screen,4_15_0,2023-05-02T14:43:28.225Z,,0,1,,2435.751999999993,response,ISIC_0067467.JPG,,ISIC_4153542.JPG,ISIC_4153542.JPG,false,0,keypress(z),500,74250.19999998808,74250,71797.582,71811.5,71814.248,,8,400,16,,ISIC_0067467.JPG
trial,html.Screen,4_16_0,2023-05-02T14:43:30.660Z,,0,1,,2437.2159999880823,response,ISIC_8121679.JPG,,ISIC_1869829.JPG,ISIC_8121679.JPG,false,0,keypress(z),500,76685,76684.69999998808,74230.818,74237.5,74247.484,,8,400,17,,ISIC_1869829.JPG
break,html.Screen,4_16_1,2023-05-02T14:43:30.660Z,,0,,,NaN,,,,,,false,,,,76685.69999998808,76685.59999999404,,76685.19999998808,,76714.052,8,400,,,
break_continue,html.Screen,4_16_2,2023-05-02T14:43:30.661Z,,0,,,NaN,,,,,,false,,,,76686.09999999404,76686,,76685.79999998212,,76714.052,8,400,,,
sequence,flow.Sequence,4_16,2023-05-02T14:43:30.661Z,,0,,,2438.5160000000033,completion,,,,,false,,,,76686.29999998212,76686,74230.818,74237.40000000596,74247.484,76714.052,8,400,,,
trial,html.Screen,4_16_0,2023-05-02T14:43:30.689Z,,0,1,,2467.0160000000033,response,ISIC_8121679.JPG,,ISIC_1869829.JPG,ISIC_8121679.JPG,false,1,keypress(m),500,76714.79999998212,76714.5,74230.818,74237.5,74247.484,76714.052,8,400,17,,ISIC_1869829.JPG
trial,html.Screen,4_17_0,2023-05-02T14:43:33.752Z,,0,1,,3063.3480000059644,response,ISIC_0011177.JPG,,ISIC_0031096.JPG,ISIC_0031096.JPG,false,1,keypress(m),500,79777.79999998212,79777.40000000596,76697.386,76686.5,76714.052,79786.55,8,400,18,,ISIC_0011177.JPG
break,html.Screen,4_17_1,2023-05-02T14:43:33.753Z,,0,,,NaN,,,,,,false,,,,79778.79999998212,79778.5,,79778,,79786.55,8,400,,,
break_continue,html.Screen,4_17_2,2023-05-02T14:43:33.754Z,,0,,,NaN,,,,,,false,,,,79779.19999998808,79779,,79778.90000000596,,79786.55,8,400,,,
sequence,flow.Sequence,4_17,2023-05-02T14:43:33.754Z,,0,,,3064.948000000004,completion,,,,,false,,,,79779.29999998212,79779,76697.386,76686.40000000596,76714.052,79786.55,8,400,,,
trial,html.Screen,4_18_0,2023-05-02T14:43:36.111Z,,0,1,,2349.7499999821157,response,ISIC_5218530.JPG,,ISIC_9401187.JPG,ISIC_9401187.JPG,false,0,keypress(z),500,82136.59999999404,82136.29999998212,79769.884,79779.5,79786.55,82153.122,8,400,19,,ISIC_5218530.JPG
break,html.Screen,4_18_1,2023-05-02T14:43:36.112Z,,0,,,NaN,,,,,,false,,,,82137.59999999404,82137.29999998212,,82136.90000000596,,82153.122,8,400,,,
break_continue,html.Screen,4_18_2,2023-05-02T14:43:36.112Z,,0,,,NaN,,,,,,false,,,,82137.90000000596,82137.69999998808,,82137.59999999404,,82153.122,8,400,,,
sequence,flow.Sequence,4_18,2023-05-02T14:43:36.113Z,,0,,,2351.149999988076,completion,,,,,false,,,,82138.09999999404,82137.69999998808,79769.884,79779.5,79786.55,82153.122,8,400,,,
trial,html.Screen,4_19_0,2023-05-02T14:43:38.596Z,,0,1,,2468.077999988076,response,ISIC_0033605.JPG,,ISIC_9244047.JPG,ISIC_0033605.JPG,false,1,keypress(m),500,84621.5,84621.19999998808,82136.456,82138.29999998212,82153.122,84653.022,8,400,20,,ISIC_9244047.JPG
break,html.Screen,4_19_1,2023-05-02T14:43:38.597Z,,0,,,NaN,,,,,,false,,,,84622.29999998212,84622.09999999404,,84621.79999998212,,84653.022,8,400,,,
break_continue,html.Screen,4_19_2,2023-05-02T14:43:38.597Z,,0,,,NaN,,,,,,false,,,,84622.69999998808,84622.5,,84622.29999998212,,84653.022,8,400,,,
sequence,flow.Sequence,4_19,2023-05-02T14:43:38.597Z,,0,,,2469.377999999997,completion,,,,,false,,,,84622.90000000596,84622.5,82136.456,82138.19999998808,82153.122,84653.022,8,400,,,
trial,html.Screen,4_20_0,2023-05-02T14:43:40.607Z,,0,1,,1979.3780000059633,response,ISIC_3429835.JPG,,ISIC_5223280.JPG,ISIC_3429835.JPG,false,1,keypress(m),500,86632.79999998212,86632.40000000596,84636.356,84623,84653.022,86636.276,8,400,21,,ISIC_5223280.JPG
break,html.Screen,4_20_1,2023-05-02T14:43:40.608Z,,0,,,NaN,,,,,,false,,,,86633.69999998808,86633.5,,86633.09999999404,,86636.276,8,400,,,
break_continue,html.Screen,4_20_2,2023-05-02T14:43:40.609Z,,0,,,NaN,,,,,,false,,,,86634.29999998212,86634.19999998808,,86633.90000000596,,86636.276,8,400,,,
sequence,flow.Sequence,4_20,2023-05-02T14:43:40.609Z,,0,,,1981.1779999880819,completion,,,,,false,,,,86634.5,86634.19999998808,84636.356,84623,84653.022,86636.276,8,400,,,
trial,html.Screen,4_21_0,2023-05-02T14:43:43.032Z,,0,1,,2421.224000000002,response,ISIC_0033519.JPG,,ISIC_4843102.JPG,ISIC_4843102.JPG,false,0,keypress(z),500,89057.69999998808,89057.5,86619.61,86634.69999998808,86636.276,89068.376,8,400,22,,ISIC_0033519.JPG
break,html.Screen,4_21_1,2023-05-02T14:43:43.033Z,,0,,,NaN,,,,,,false,,,,89058.59999999404,89058.40000000596,,89058,,89068.376,8,400,,,
break_continue,html.Screen,4_21_2,2023-05-02T14:43:43.033Z,,0,,,NaN,,,,,,false,,,,89059,89058.90000000596,,89058.69999998808,,89068.376,8,400,,,
sequence,flow.Sequence,4_21,2023-05-02T14:43:43.034Z,,0,,,2422.6240000059624,completion,,,,,false,,,,89059.19999998808,89058.90000000596,86619.61,86634.69999998808,86636.276,89068.376,8,400,,,
trial,html.Screen,4_22_0,2023-05-02T14:43:45.999Z,,0,1,,2955.9239999821148,response,ISIC_0028573.JPG,,ISIC_0010061.JPG,ISIC_0028573.JPG,false,1,keypress(m),500,92024.5,92024.29999998212,89051.71,89059.29999998212,89068.376,92034.924,8,400,23,,ISIC_0010061.JPG
break,html.Screen,4_22_1,2023-05-02T14:43:45.999Z,,0,,,NaN,,,,,,false,,,,92025.19999998808,92025,,92024.69999998808,,92034.924,8,400,,,
break_continue,html.Screen,4_22_2,2023-05-02T14:43:46.000Z,,0,,,NaN,,,,,,false,,,,92025.5,92025.40000000596,,92025.29999998212,,92034.924,8,400,,,
sequence,flow.Sequence,4_22,2023-05-02T14:43:46.000Z,,0,,,2957.0240000059566,completion,,,,,false,,,,92025.59999999404,92025.40000000596,89051.71,89059.29999998212,89068.376,92034.924,8,400,,,
trial,html.Screen,4_23_0,2023-05-02T14:43:48.225Z,,0,1,,2215.1759999940405,response,ISIC_0059959.JPG,,ISIC_0024679.JPG,ISIC_0059959.JPG,false,1,keypress(m),500,94250.29999998212,94250.09999999404,92018.258,92025.69999998808,92034.924,94251.502,8,400,24,,ISIC_0024679.JPG
break,html.Screen,4_23_1,2023-05-02T14:43:48.225Z,,0,,,NaN,,,,,,false,,,,94251.09999999404,94250.90000000596,,94250.59999999404,,94251.502,8,400,,,
break_continue,html.Screen,4_23_2,2023-05-02T14:43:48.226Z,,0,,,NaN,,,,,,false,,,,94251.59999999404,94251.40000000596,,94251.29999998212,,94251.502,8,400,,,
sequence,flow.Sequence,4_23,2023-05-02T14:43:48.226Z,,0,,,2216.4760000059614,completion,,,,,false,,,,94251.79999998212,94251.40000000596,92018.258,92025.69999998808,92034.924,94251.502,8,400,,,
trial,html.Screen,4_24_0,2023-05-02T14:43:50.568Z,,0,1,,2341.998000000007,response,ISIC_7544537.JPG,,ISIC_0032597.JPG,ISIC_7544537.JPG,false,1,keypress(m),500,96593.69999998808,96593.5,94234.836,94252,94251.502,96601.408,8,400,25,,ISIC_0032597.JPG
break,html.Screen,4_24_1,2023-05-02T14:43:50.569Z,,0,,,NaN,,,,,,false,,,,96594.59999999404,96594.40000000596,,96594,,96601.408,8,400,,,
break_continue,html.Screen,4_24_2,2023-05-02T14:43:50.569Z,,0,,,NaN,,,,,,false,,,,96595,96594.90000000596,,96594.79999998212,,96601.408,8,400,,,
sequence,flow.Sequence,4_24,2023-05-02T14:43:50.569Z,,0,,,2343.3980000059673,completion,,,,,false,,,,96595.19999998808,96594.90000000596,94234.836,94251.90000000596,94251.502,96601.408,8,400,,,
trial,html.Screen,4_25_0,2023-05-02T14:43:52.703Z,,0,1,,2126.9920000059647,response,ISIC_0068560.JPG,,ISIC_0026545.JPG,ISIC_0068560.JPG,false,0,keypress(z),500,98728.69999998808,98728.40000000596,96584.742,96595.40000000596,96601.408,98751.261,8,400,26,,ISIC_0026545.JPG
break,html.Screen,4_25_1,2023-05-02T14:43:52.704Z,,0,,,NaN,,,,,,false,,,,98729.40000000596,98729.19999998808,,98728.90000000596,,98751.261,8,400,,,
break_continue,html.Screen,4_25_2,2023-05-02T14:43:52.704Z,,0,,,NaN,,,,,,false,,,,98729.79999998212,98729.69999998808,,98729.59999999404,,98751.261,8,400,,,
sequence,flow.Sequence,4_25,2023-05-02T14:43:52.704Z,,0,,,2128.2919999880833,completion,,,,,false,,,,98730,98729.69999998808,96584.742,96595.29999998212,96601.408,98751.261,8,400,,,
trial,html.Screen,4_26_0,2023-05-02T14:43:55.112Z,,0,1,,2386.2390000000014,response,ISIC_0031356.JPG,,ISIC_8344345.JPG,ISIC_0031356.JPG,false,1,keypress(m),500,101137.79999998212,101137.5,98734.595,98730.09999999404,98751.261,101151.165,8,400,27,,ISIC_8344345.JPG
break,html.Screen,4_26_1,2023-05-02T14:43:55.113Z,,0,,,NaN,,,,,,false,,,,101138.79999998212,101138.5,,101138.09999999404,,101151.165,8,400,,,
break_continue,html.Screen,4_26_2,2023-05-02T14:43:55.113Z,,0,,,NaN,,,,,,false,,,,101139.09999999404,101139,,101139,,101151.165,8,400,,,
sequence,flow.Sequence,4_26,2023-05-02T14:43:55.114Z,,0,,,2387.7390000000014,completion,,,,,false,,,,101139.40000000596,101139,98734.595,98730.09999999404,98751.261,101151.165,8,400,,,
trial,html.Screen,4_27_0,2023-05-02T14:43:57.474Z,,0,1,,2348.3350000000064,response,ISIC_5931552.JPG,,ISIC_8752021.JPG,ISIC_5931552.JPG,false,1,keypress(m),500,103499.69999998808,103499.5,101134.499,101139.59999999404,101151.165,103501.071,8,400,28,,ISIC_8752021.JPG
break,html.Screen,4_27_1,2023-05-02T14:43:57.475Z,,0,,,NaN,,,,,,false,,,,103500.59999999404,103500.40000000596,,103500,,103501.071,8,400,,,
break_continue,html.Screen,4_27_2,2023-05-02T14:43:57.475Z,,0,,,NaN,,,,,,false,,,,103501,103500.90000000596,,103500.69999998808,,103501.071,8,400,,,
sequence,flow.Sequence,4_27,2023-05-02T14:43:57.475Z,,0,,,2349.735000005967,completion,,,,,false,,,,103501.29999998212,103500.90000000596,101134.499,101139.5,101151.165,103501.071,8,400,,,
trial,html.Screen,4_28_0,2023-05-02T14:44:00.200Z,,0,1,,2724.4290000000037,response,ISIC_0026008.JPG,,ISIC_6038490.JPG,ISIC_0026008.JPG,false,1,keypress(m),500,106225.69999998808,106225.5,103484.405,103501.40000000596,103501.071,106234.295,8,400,29,,ISIC_6038490.JPG
break,html.Screen,4_28_1,2023-05-02T14:44:00.201Z,,0,,,NaN,,,,,,false,,,,106226.59999999404,106226.29999998212,,106226,,106234.295,8,400,,,
break_continue,html.Screen,4_28_2,2023-05-02T14:44:00.201Z,,0,,,NaN,,,,,,false,,,,106227,106226.90000000596,,106226.79999998212,,106234.295,8,400,,,
sequence,flow.Sequence,4_28,2023-05-02T14:44:00.201Z,,0,,,2725.829000005964,completion,,,,,false,,,,106227.19999998808,106226.90000000596,103484.405,103501.40000000596,103501.071,106234.295,8,400,,,
trial,html.Screen,4_29_0,2023-05-02T14:44:02.322Z,,0,1,,2113.5049999821204,response,ISIC_0066401.JPG,,ISIC_0004564.JPG,ISIC_0066401.JPG,false,0,keypress(z),500,108348.09999999404,108347.79999998212,106217.629,106227.40000000596,106234.295,108367.543,8,400,30,,ISIC_0004564.JPG
break,html.Screen,4_29_1,2023-05-02T14:44:02.323Z,,0,,,NaN,,,,,,false,,,,108348.90000000596,108348.59999999404,,108348.19999998808,,108367.543,8,400,,,
break_continue,html.Screen,4_29_2,2023-05-02T14:44:02.323Z,,0,,,NaN,,,,,,false,,,,108349.19999998808,108349.09999999404,,108348.90000000596,,108367.543,8,400,,,
sequence,flow.Sequence,4_29,2023-05-02T14:44:02.323Z,,0,,,2114.8049999940413,completion,,,,,false,,,,108349.40000000596,108349.09999999404,106217.629,106227.29999998212,106234.295,108367.543,8,400,,,
trial,html.Screen,4_30_0,2023-05-02T14:44:04.951Z,,0,1,,2609.156999988074,response,ISIC_7826557.JPG,,ISIC_3942075.JPG,ISIC_7826557.JPG,false,1,keypress(m),500,110976.90000000596,110976.69999998808,108350.877,108349.5,108367.543,110992.974,8,400,31,,ISIC_3942075.JPG
break,html.Screen,4_30_1,2023-05-02T14:44:04.952Z,,0,,,NaN,,,,,,false,,,,110977.69999998808,110977.5,,110977.19999998808,,110992.974,8,400,,,
break_continue,html.Screen,4_30_2,2023-05-02T14:44:04.952Z,,0,,,NaN,,,,,,false,,,,110978.09999999404,110978,,110977.90000000596,,110992.974,8,400,,,
sequence,flow.Sequence,4_30,2023-05-02T14:44:04.952Z,,0,,,2610.456999999995,completion,,,,,false,,,,110978.29999998212,110978,108350.877,108349.5,108367.543,110992.974,8,400,,,
trial,html.Screen,4_31_0,2023-05-02T14:44:07.263Z,,0,1,,2295.6259999940376,response,ISIC_0008162.JPG,,ISIC_0057716.JPG,ISIC_0057716.JPG,false,0,keypress(z),500,113288.79999998212,113288.59999999404,110976.308,110978.40000000596,110992.974,113309.548,8,400,32,,ISIC_0008162.JPG
break,html.Screen,4_31_1,2023-05-02T14:44:07.263Z,,0,,,NaN,,,,,,false,,,,113289.29999998212,113289.29999998212,,113289,,113309.548,8,400,,,
break_continue,html.Screen,4_31_2,2023-05-02T14:44:07.264Z,,0,,,NaN,,,,,,false,,,,113289.59999999404,113289.5,,113289.40000000596,,113309.548,8,400,,,
sequence,flow.Sequence,4_31,2023-05-02T14:44:07.264Z,,0,,,2296.525999999998,completion,,,,,false,,,,113289.79999998212,113289.5,110976.308,110978.40000000596,110992.974,113309.548,8,400,,,
trial,html.Screen,4_32_0,2023-05-02T14:44:19.479Z,,0,1,,15131.786000000007,timeout,ISIC_2733056.JPG,,ISIC_0010142.JPG,,false,,,500,125505.40000000596,125505,113292.882,113289.90000000596,113309.548,128441.334,8,400,33,,
break,html.Screen,4_32_1,2023-05-02T14:44:19.480Z,,0,,,NaN,,,,,,false,,,,125506.09999999404,125505.79999998212,,125505.59999999404,,128441.334,8,400,,,
break_continue,html.Screen,4_32_2,2023-05-02T14:44:19.480Z,,0,,,NaN,,,,,,false,,,,125506.5,125506.40000000596,,125506.19999998808,,128441.334,8,400,,,
sequence,flow.Sequence,4_32,2023-05-02T14:44:19.480Z,,0,,,12196.852000005965,completion,,,,,false,,,,125506.69999998808,125506.40000000596,113292.882,113289.90000000596,113309.548,128441.334,8,400,,,
trial,html.Screen,4_33_0,2023-05-02T14:44:24.626Z,,0,1,,2210.265999994037,response,ISIC_2226940.JPG,,ISIC_0025369.JPG,ISIC_2226940.JPG,false,1,keypress(m),500,130651.79999998212,130651.59999999404,128424.668,125506.79999998212,128441.334,130657.912,8,400,34,,ISIC_0025369.JPG
break,html.Screen,4_33_1,2023-05-02T14:44:24.626Z,,0,,,NaN,,,,,,false,,,,130652.79999998212,130652.40000000596,,130652.19999998808,,130657.912,8,400,,,
break_continue,html.Screen,4_33_2,2023-05-02T14:44:24.627Z,,0,,,NaN,,,,,,false,,,,130653.19999998808,130653,,130652.90000000596,,130657.912,8,400,,,
sequence,flow.Sequence,4_33,2023-05-02T14:44:24.627Z,,0,,,2211.6659999999974,completion,,,,,false,,,,130653.29999998212,130653,128424.668,125506.79999998212,128441.334,130657.912,8,400,,,
trial,html.Screen,4_34_0,2023-05-02T14:44:26.871Z,,0,1,,2239.687999994043,response,ISIC_9187876.JPG,,ISIC_6517082.JPG,ISIC_9187876.JPG,false,1,keypress(m),500,132897.79999998212,132897.59999999404,130641.246,130653.5,130657.912,132907.822,8,400,35,,ISIC_6517082.JPG
break,html.Screen,4_34_1,2023-05-02T14:44:26.872Z,,0,,,NaN,,,,,,false,,,,132898.59999999404,132898.40000000596,,132898,,132907.822,8,400,,,
break_continue,html.Screen,4_34_2,2023-05-02T14:44:26.873Z,,0,,,NaN,,,,,,false,,,,132899,132898.90000000596,,132898.79999998212,,132907.822,8,400,,,
sequence,flow.Sequence,4_34,2023-05-02T14:44:26.873Z,,0,,,2240.988000005964,completion,,,,,false,,,,132899.19999998808,132898.90000000596,130641.246,130653.5,130657.912,132907.822,8,400,,,
trial,html.Screen,4_35_0,2023-05-02T14:44:30.263Z,,0,1,,3381.777999994054,response,ISIC_8265105.JPG,,ISIC_8708106.JPG,ISIC_8265105.JPG,false,1,keypress(m),500,136289.79999998212,136289.59999999404,132891.156,132899.40000000596,132907.822,136291.02,8,400,36,,ISIC_8708106.JPG
break,html.Screen,4_35_1,2023-05-02T14:44:30.264Z,,0,,,NaN,,,,,,false,,,,136290.59999999404,136290.29999998212,,136290,,136291.02,8,400,,,
break_continue,html.Screen,4_35_2,2023-05-02T14:44:30.265Z,,0,,,NaN,,,,,,false,,,,136291,136290.79999998212,,136290.69999998808,,136291.02,8,400,,,
sequence,flow.Sequence,4_35,2023-05-02T14:44:30.265Z,,0,,,3382.977999982133,completion,,,,,false,,,,136291.19999998808,136290.79999998212,132891.156,132899.29999998212,132907.822,136291.02,8,400,,,
trial,html.Screen,4_36_0,2023-05-02T14:44:41.191Z,,0,1,,10926.48000000001,response,ISIC_0056849.JPG,,ISIC_0028969.JPG,ISIC_0028969.JPG,false,0,keypress(z),500,147217.79999998212,147217.5,136274.354,136291.29999998212,136291.02,147221.197,8,400,37,,ISIC_0056849.JPG
break,html.Screen,4_36_1,2023-05-02T14:44:41.192Z,,0,,,NaN,,,,,,false,,,,147218.59999999404,147218.40000000596,,147218,,147221.197,8,400,,,
break_continue,html.Screen,4_36_2,2023-05-02T14:44:41.192Z,,0,,,NaN,,,,,,false,,,,147219,147218.79999998212,,147218.69999998808,,147221.197,8,400,,,
sequence,flow.Sequence,4_36,2023-05-02T14:44:41.193Z,,0,,,10927.779999982129,completion,,,,,false,,,,147219.19999998808,147218.79999998212,136274.354,136291.29999998212,136291.02,147221.197,8,400,,,
trial,html.Screen,4_37_0,2023-05-02T14:44:47.104Z,,0,1,,5909.203000005975,response,ISIC_0331124.JPG,,ISIC_0000129.JPG,ISIC_0000129.JPG,false,0,keypress(z),500,153130.69999998808,153130.40000000596,147204.531,147219.29999998212,147221.197,153137.627,8,400,38,,ISIC_0331124.JPG
break,html.Screen,4_37_1,2023-05-02T14:44:47.105Z,,0,,,NaN,,,,,,false,,,,153131.5,153131.19999998808,,153130.90000000596,,153137.627,8,400,,,
break_continue,html.Screen,4_37_2,2023-05-02T14:44:47.105Z,,0,,,NaN,,,,,,false,,,,153131.90000000596,153131.79999998212,,153131.59999999404,,153137.627,8,400,,,
sequence,flow.Sequence,4_37,2023-05-02T14:44:47.105Z,,0,,,5910.602999982133,completion,,,,,false,,,,153132,153131.79999998212,147204.531,147219.19999998808,147221.197,153137.627,8,400,,,
trial,html.Screen,4_38_0,2023-05-02T14:44:49.136Z,,0,1,,2024.3729999999923,response,ISIC_0011715.JPG,,ISIC_0012260.JPG,ISIC_0011715.JPG,false,1,keypress(m),500,155162.29999998212,155162,153120.961,153132.19999998808,153137.627,155170.879,8,400,39,,ISIC_0012260.JPG
break,html.Screen,4_38_1,2023-05-02T14:44:49.136Z,,0,,,NaN,,,,,,false,,,,155163,155162.79999998212,,155162.5,,155170.879,8,400,,,
break_continue,html.Screen,4_38_2,2023-05-02T14:44:49.137Z,,0,,,NaN,,,,,,false,,,,155163.5,155163.29999998212,,155163.19999998808,,155170.879,8,400,,,
sequence,flow.Sequence,4_38,2023-05-02T14:44:49.137Z,,0,,,2025.672999982111,completion,,,,,false,,,,155163.59999999404,155163.29999998212,153120.961,153132.19999998808,153137.627,155170.879,8,400,,,
trial,html.Screen,4_39_0,2023-05-02T14:44:52.192Z,,0,1,,3047.1210000000137,response,ISIC_5895384.JPG,,ISIC_0026890.JPG,ISIC_5895384.JPG,false,1,keypress(m),500,158218.29999998212,158218,155154.213,155163.79999998212,155170.879,158220.384,8,400,40,,ISIC_0026890.JPG
break,html.Screen,4_39_1,2023-05-02T14:44:52.192Z,,0,,,NaN,,,,,,false,,,,158219.09999999404,158218.79999998212,,158218.59999999404,,158220.384,8,400,,,
break_continue,html.Screen,4_39_2,2023-05-02T14:44:52.193Z,,0,,,NaN,,,,,,false,,,,158219.5,158219.29999998212,,158219.19999998808,,158220.384,8,400,,,
sequence,flow.Sequence,4_39,2023-05-02T14:44:52.193Z,,0,,,3048.4209999821323,completion,,,,,false,,,,158219.59999999404,158219.29999998212,155154.213,155163.69999998808,155170.879,158220.384,8,400,,,
trial,html.Screen,4_40_0,2023-05-02T14:44:54.976Z,,0,1,,2781.616000000009,response,ISIC_4348579.JPG,,ISIC_0072641.JPG,ISIC_0072641.JPG,false,0,keypress(z),500,161002.29999998212,161002,158203.718,158219.79999998212,158220.384,161003.606,8,400,41,,ISIC_4348579.JPG
break,html.Screen,4_40_1,2023-05-02T14:44:54.976Z,,0,,,NaN,,,,,,false,,,,161003.09999999404,161002.90000000596,,161002.59999999404,,161003.606,8,400,,,
break_continue,html.Screen,4_40_2,2023-05-02T14:44:54.977Z,,0,,,NaN,,,,,,false,,,,161003.5,161003.40000000596,,161003.29999998212,,161003.606,8,400,,,
sequence,flow.Sequence,4_40,2023-05-02T14:44:54.977Z,,0,,,2783.0160000059695,completion,,,,,false,,,,161003.69999998808,161003.40000000596,158203.718,158219.79999998212,158220.384,161003.606,8,400,,,
trial,html.Screen,4_41_0,2023-05-02T14:44:57.367Z,,0,1,,2389.8940000000002,response,ISIC_6269414.JPG,,ISIC_0003767.JPG,ISIC_6269414.JPG,false,1,keypress(m),500,163393.79999998212,163393.5,160986.94,161003.79999998212,161003.606,163403.51,8,400,42,,ISIC_0003767.JPG
break,html.Screen,4_41_1,2023-05-02T14:44:57.368Z,,0,,,NaN,,,,,,false,,,,163394.5,163394.29999998212,,163394,,163403.51,8,400,,,
break_continue,html.Screen,4_41_2,2023-05-02T14:44:57.368Z,,0,,,NaN,,,,,,false,,,,163395,163394.79999998212,,163394.79999998212,,163403.51,8,400,,,
sequence,flow.Sequence,4_41,2023-05-02T14:44:57.368Z,,0,,,2391.193999982119,completion,,,,,false,,,,163395.19999998808,163394.79999998212,160986.94,161003.79999998212,161003.606,163403.51,8,400,,,
trial,html.Screen,4_42_0,2023-05-02T14:44:59.777Z,,0,1,,2399.9899999999907,response,ISIC_5382189.JPG,,ISIC_6995731.JPG,ISIC_6995731.JPG,false,0,keypress(z),500,165803.69999998808,165803.5,163386.844,163395.29999998212,163403.51,165820.08,8,400,43,,ISIC_5382189.JPG
break,html.Screen,4_42_1,2023-05-02T14:44:59.778Z,,0,,,NaN,,,,,,false,,,,165804.59999999404,165804.29999998212,,165804,,165820.08,8,400,,,
break_continue,html.Screen,4_42_2,2023-05-02T14:44:59.778Z,,0,,,NaN,,,,,,false,,,,165805,165804.79999998212,,165804.69999998808,,165820.08,8,400,,,
sequence,flow.Sequence,4_42,2023-05-02T14:44:59.778Z,,0,,,2401.2899999821093,completion,,,,,false,,,,165805.19999998808,165804.79999998212,163386.844,163395.29999998212,163403.51,165820.08,8,400,,,
trial,html.Screen,4_43_0,2023-05-02T14:45:02.327Z,,0,1,,2533.420000000013,response,ISIC_6449065.JPG,,ISIC_7967108.JPG,ISIC_7967108.JPG,false,0,keypress(z),500,168353.79999998212,168353.5,165803.414,165805.29999998212,165820.08,168370.763,8,400,44,,ISIC_6449065.JPG
break,html.Screen,4_43_1,2023-05-02T14:45:02.328Z,,0,,,NaN,,,,,,false,,,,168354.5,168354.29999998212,,168354,,168370.763,8,400,,,
break_continue,html.Screen,4_43_2,2023-05-02T14:45:02.328Z,,0,,,NaN,,,,,,false,,,,168354.90000000596,168354.79999998212,,168354.69999998808,,168370.763,8,400,,,
sequence,flow.Sequence,4_43,2023-05-02T14:45:02.328Z,,0,,,2534.7199999821314,completion,,,,,false,,,,168355.09999999404,168354.79999998212,165803.414,165805.29999998212,165820.08,168370.763,8,400,,,
trial,html.Screen,4_44_0,2023-05-02T14:45:04.545Z,,0,1,,2200.7369999999937,response,ISIC_0000179.JPG,,ISIC_0025766.JPG,ISIC_0025766.JPG,false,0,keypress(z),500,170571.79999998212,170571.5,168354.097,168355.29999998212,168370.763,170587.341,8,400,45,,ISIC_0000179.JPG
break,html.Screen,4_44_1,2023-05-02T14:45:04.546Z,,0,,,NaN,,,,,,false,,,,170572.59999999404,170572.40000000596,,170572.09999999404,,170587.341,8,400,,,
break_continue,html.Screen,4_44_2,2023-05-02T14:45:04.546Z,,0,,,NaN,,,,,,false,,,,170573,170572.90000000596,,170572.69999998808,,170587.341,8,400,,,
sequence,flow.Sequence,4_44,2023-05-02T14:45:04.546Z,,0,,,2202.137000005954,completion,,,,,false,,,,170573.19999998808,170572.90000000596,168354.097,168355.19999998808,168370.763,170587.341,8,400,,,
trial,html.Screen,4_45_0,2023-05-02T14:45:08.479Z,,0,1,,3918.7589999940537,response,ISIC_7511557.JPG,,ISIC_7415335.JPG,ISIC_7415335.JPG,false,0,keypress(z),500,174506.29999998212,174506.09999999404,170570.675,170573.29999998212,170587.341,174520.517,8,400,46,,ISIC_7511557.JPG
break,html.Screen,4_45_1,2023-05-02T14:45:08.480Z,,0,,,NaN,,,,,,false,,,,174507.09999999404,174506.90000000596,,174506.5,,174520.517,8,400,,,
break_continue,html.Screen,4_45_2,2023-05-02T14:45:08.481Z,,0,,,NaN,,,,,,false,,,,174507.5,174507.29999998212,,174507.19999998808,,174520.517,8,400,,,
sequence,flow.Sequence,4_45,2023-05-02T14:45:08.481Z,,0,,,3919.958999982133,completion,,,,,false,,,,174507.69999998808,174507.29999998212,170570.675,170573.19999998808,170587.341,174520.517,8,400,,,
trial,html.Screen,4_46_0,2023-05-02T14:45:10.494Z,,0,1,,2000.082999994047,response,ISIC_0033640.JPG,,ISIC_3096949.JPG,ISIC_0033640.JPG,false,1,keypress(m),500,176520.90000000596,176520.59999999404,174503.851,174507.79999998212,174520.517,176537.103,8,400,47,,ISIC_3096949.JPG
break,html.Screen,4_46_1,2023-05-02T14:45:10.495Z,,0,,,NaN,,,,,,false,,,,176521.69999998808,176521.5,,176521.09999999404,,176537.103,8,400,,,
break_continue,html.Screen,4_46_2,2023-05-02T14:45:10.495Z,,0,,,NaN,,,,,,false,,,,176522.09999999404,176521.90000000596,,176521.79999998212,,176537.103,8,400,,,
sequence,flow.Sequence,4_46,2023-05-02T14:45:10.495Z,,0,,,2001.383000005968,completion,,,,,false,,,,176522.29999998212,176521.90000000596,174503.851,174507.79999998212,174520.517,176537.103,8,400,,,
trial,html.Screen,4_47_0,2023-05-02T14:45:12.879Z,,0,1,,2368.896999999997,response,ISIC_0033995.JPG,,ISIC_0205127.JPG,ISIC_0205127.JPG,false,0,keypress(z),500,178906.29999998212,178906,176520.437,176522.5,176537.103,178917.635,8,400,48,,ISIC_0033995.JPG
break,html.Screen,4_47_1,2023-05-02T14:45:12.880Z,,0,,,NaN,,,,,,false,,,,178907.09999999404,178906.79999998212,,178906.5,,178917.635,8,400,,,
break_continue,html.Screen,4_47_2,2023-05-02T14:45:12.880Z,,0,,,NaN,,,,,,false,,,,178907.5,178907.29999998212,,178907.29999998212,,178917.635,8,400,,,
sequence,flow.Sequence,4_47,2023-05-02T14:45:12.881Z,,0,,,2370.196999982116,completion,,,,,false,,,,178907.69999998808,178907.29999998212,176520.437,176522.40000000596,176537.103,178917.635,8,400,,,
trial,html.Screen,4_48_0,2023-05-02T14:45:16.287Z,,0,1,,3396.265000005951,response,ISIC_4978697.JPG,,ISIC_7666224.JPG,ISIC_4978697.JPG,false,1,keypress(m),500,182314.29999998212,182313.90000000596,178900.969,178907.90000000596,178917.635,182317.499,8,400,49,,ISIC_7666224.JPG
break,html.Screen,4_48_1,2023-05-02T14:45:16.288Z,,0,,,NaN,,,,,,false,,,,182315.09999999404,182314.90000000596,,182314.5,,182317.499,8,400,,,
break_continue,html.Screen,4_48_2,2023-05-02T14:45:16.288Z,,0,,,NaN,,,,,,false,,,,182315.5,182315.40000000596,,182315.19999998808,,182317.499,8,400,,,
sequence,flow.Sequence,4_48,2023-05-02T14:45:16.289Z,,0,,,3397.765000005951,completion,,,,,false,,,,182315.69999998808,182315.40000000596,178900.969,178907.69999998808,178917.635,182317.499,8,400,,,
trial,html.Screen,4_49_0,2023-05-02T14:45:18.375Z,,0,1,,2084.0009999999893,response,ISIC_0030660.JPG,,ISIC_1919324.JPG,ISIC_0030660.JPG,false,1,keypress(m),500,184401.79999998212,184401.5,182300.833,182315.79999998212,182317.499,184417.415,8,400,50,,ISIC_1919324.JPG
break,html.Screen,4_49_1,2023-05-02T14:45:23.375Z,,0,,,4999.799999999988,timeout,,,,,false,,,,189401.69999998808,189400.549,184400.749,184402,184417.415,189417.215,8,400,,,
break_continue,html.Screen,4_49_2,2023-05-02T14:45:25.039Z,,0,,,1633.584999982122,response,,,,,false,continue,keypress(Space),,191065.79999998212,191050.79999998212,189400.549,189401.90000000596,189417.215,191067.149,8,400,,,
sequence,flow.Sequence,4_49,2023-05-02T14:45:25.039Z,,0,,,8733.300999982108,completion,,,,,false,,,,191066,191050.79999998212,182300.833,182315.79999998212,182317.499,191067.149,8,400,,,
trial,html.Screen,4_50_0,2023-05-02T14:45:27.279Z,,0,2,,2238.850999999995,response,ISIC_0004789.JPG,,ISIC_0027387.JPG,ISIC_0027387.JPG,false,0,keypress(z),500,193306.29999998212,193306,191050.483,191066.09999999404,191067.149,193317.059,8,400,1,,ISIC_0004789.JPG
break,html.Screen,4_50_1,2023-05-02T14:45:27.280Z,,0,,,NaN,,,,,,false,,,,193307.09999999404,193306.90000000596,,193306.5,,193317.059,8,400,,,
break_continue,html.Screen,4_50_2,2023-05-02T14:45:27.280Z,,0,,,NaN,,,,,,false,,,,193307.59999999404,193307.40000000596,,193307.29999998212,,193317.059,8,400,,,
sequence,flow.Sequence,4_50,2023-05-02T14:45:27.281Z,,0,,,2240.2510000059556,completion,,,,,false,,,,193307.69999998808,193307.40000000596,191050.483,191066,191067.149,193317.059,8,400,,,
trial,html.Screen,4_51_0,2023-05-02T14:45:29.262Z,,0,2,,1972.2409999821102,response,ISIC_3734674.JPG,,ISIC_8282404.JPG,ISIC_8282404.JPG,false,0,keypress(z),500,195289.69999998808,195289.29999998212,193300.393,193307.90000000596,193317.059,195300.313,8,400,2,,ISIC_3734674.JPG
break,html.Screen,4_51_1,2023-05-02T14:45:29.263Z,,0,,,NaN,,,,,,false,,,,195290.40000000596,195290.19999998808,,195289.90000000596,,195300.313,8,400,,,
break_continue,html.Screen,4_51_2,2023-05-02T14:45:29.264Z,,0,,,NaN,,,,,,false,,,,195290.79999998212,195290.69999998808,,195290.59999999404,,195300.313,8,400,,,
sequence,flow.Sequence,4_51,2023-05-02T14:45:29.264Z,,0,,,1973.6409999880707,completion,,,,,false,,,,195291,195290.69999998808,193300.393,193307.79999998212,193317.059,195300.313,8,400,,,
trial,html.Screen,4_52_0,2023-05-02T14:45:31.711Z,,0,2,,2437.6870000000054,response,ISIC_0000135.JPG,,ISIC_0055086.JPG,ISIC_0055086.JPG,false,0,keypress(z),500,197738.29999998212,197738,195283.647,195291.19999998808,195300.313,197750.215,8,400,3,,ISIC_0000135.JPG
break,html.Screen,4_52_1,2023-05-02T14:45:31.712Z,,0,,,NaN,,,,,,false,,,,197739.09999999404,197738.79999998212,,197738.5,,197750.215,8,400,,,
break_continue,html.Screen,4_52_2,2023-05-02T14:45:31.712Z,,0,,,NaN,,,,,,false,,,,197739.5,197739.40000000596,,197739.19999998808,,197750.215,8,400,,,
sequence,flow.Sequence,4_52,2023-05-02T14:45:31.712Z,,0,,,2439.087000005966,completion,,,,,false,,,,197739.69999998808,197739.40000000596,195283.647,195291.09999999404,195300.313,197750.215,8,400,,,
trial,html.Screen,4_53_0,2023-05-02T14:45:33.949Z,,0,2,,2226.185000005964,response,ISIC_0403458.JPG,,ISIC_0030506.JPG,ISIC_0030506.JPG,false,0,keypress(z),500,199976.69999998808,199976.40000000596,197733.549,197739.90000000596,197750.215,199984.163,8,400,4,,ISIC_0403458.JPG
break,html.Screen,4_53_1,2023-05-02T14:45:33.950Z,,0,,,NaN,,,,,,false,,,,199977.5,199977.29999998212,,199976.90000000596,,199984.163,8,400,,,
break_continue,html.Screen,4_53_2,2023-05-02T14:45:33.951Z,,0,,,NaN,,,,,,false,,,,199978,199977.79999998212,,199977.69999998808,,199984.163,8,400,,,
sequence,flow.Sequence,4_53,2023-05-02T14:45:33.951Z,,0,,,2227.584999982122,completion,,,,,false,,,,199978.09999999404,199977.79999998212,197733.549,197739.79999998212,197750.215,199984.163,8,400,,,
trial,html.Screen,4_54_0,2023-05-02T14:45:36.934Z,,0,2,,2977.3369999999995,response,ISIC_0941332.JPG,,ISIC_0641173.JPG,ISIC_0641173.JPG,false,0,keypress(z),500,202961.69999998808,202961.5,199967.497,199978.29999998212,199984.163,202967.377,8,400,5,,ISIC_0941332.JPG
break,html.Screen,4_54_1,2023-05-02T14:45:36.935Z,,0,,,NaN,,,,,,false,,,,202962.59999999404,202962.40000000596,,202962,,202967.377,8,400,,,
break_continue,html.Screen,4_54_2,2023-05-02T14:45:36.936Z,,0,,,NaN,,,,,,false,,,,202963,202962.79999998212,,202962.69999998808,,202967.377,8,400,,,
sequence,flow.Sequence,4_54,2023-05-02T14:45:36.936Z,,0,,,2978.636999982118,completion,,,,,false,,,,202963.19999998808,202962.79999998212,199967.497,199978.19999998808,199984.163,202967.377,8,400,,,
trial,html.Screen,4_55_0,2023-05-02T14:45:39.520Z,,0,2,,2580.222999994032,response,ISIC_3413138.JPG,,ISIC_0059786.JPG,ISIC_0059786.JPG,false,0,keypress(z),500,205547.79999998212,205547.59999999404,202950.711,202963.29999998212,202967.377,205550.607,8,400,6,,ISIC_3413138.JPG
break,html.Screen,4_55_1,2023-05-02T14:45:39.521Z,,0,,,NaN,,,,,,false,,,,205548.59999999404,205548.29999998212,,205548.09999999404,,205550.607,8,400,,,
break_continue,html.Screen,4_55_2,2023-05-02T14:45:39.522Z,,0,,,NaN,,,,,,false,,,,205549,205548.90000000596,,205548.79999998212,,205550.607,8,400,,,
sequence,flow.Sequence,4_55,2023-05-02T14:45:39.522Z,,0,,,2581.523000005953,completion,,,,,false,,,,205549.19999998808,205548.90000000596,202950.711,202963.29999998212,202967.377,205550.607,8,400,,,
trial,html.Screen,4_56_0,2023-05-02T14:45:43.638Z,,0,2,,4114.893000000011,response,ISIC_6620748.JPG,,ISIC_0060342.JPG,ISIC_0060342.JPG,false,0,keypress(z),500,209665.69999998808,209665.5,205533.941,205549.40000000596,205550.607,209673.153,8,400,7,,ISIC_6620748.JPG
break,html.Screen,4_56_1,2023-05-02T14:45:43.639Z,,0,,,NaN,,,,,,false,,,,209666.59999999404,209666.29999998212,,209666,,209673.153,8,400,,,
break_continue,html.Screen,4_56_2,2023-05-02T14:45:43.640Z,,0,,,NaN,,,,,,false,,,,209666.90000000596,209666.79999998212,,209666.69999998808,,209673.153,8,400,,,
sequence,flow.Sequence,4_56,2023-05-02T14:45:43.640Z,,0,,,4116.19299998213,completion,,,,,false,,,,209667.19999998808,209666.79999998212,205533.941,205549.29999998212,205550.607,209673.153,8,400,,,
trial,html.Screen,4_57_0,2023-05-02T14:45:46.225Z,,0,2,,2578.9469999940484,response,ISIC_2768787.JPG,,ISIC_0032341.JPG,ISIC_0032341.JPG,false,0,keypress(z),500,212252.40000000596,212252.09999999404,209656.487,209667.29999998212,209673.153,212256.383,8,400,8,,ISIC_2768787.JPG
break,html.Screen,4_57_1,2023-05-02T14:45:46.226Z,,0,,,NaN,,,,,,false,,,,212253.09999999404,212252.90000000596,,212252.59999999404,,212256.383,8,400,,,
break_continue,html.Screen,4_57_2,2023-05-02T14:45:46.226Z,,0,,,NaN,,,,,,false,,,,212253.59999999404,212253.5,,212253.29999998212,,212256.383,8,400,,,
sequence,flow.Sequence,4_57,2023-05-02T14:45:46.226Z,,0,,,2580.347000000009,completion,,,,,false,,,,212253.79999998212,212253.5,209656.487,209667.29999998212,209673.153,212256.383,8,400,,,
trial,html.Screen,4_58_0,2023-05-02T14:45:48.230Z,,0,2,,2001.1169999999984,response,ISIC_0031784.JPG,,ISIC_1565767.JPG,ISIC_1565767.JPG,false,0,keypress(z),500,214257.79999998212,214257.5,212239.717,212253.90000000596,212256.383,214272.969,8,400,9,,ISIC_0031784.JPG
break,html.Screen,4_58_1,2023-05-02T14:45:48.231Z,,0,,,NaN,,,,,,false,,,,214258.59999999404,214258.40000000596,,214258,,214272.969,8,400,,,
break_continue,html.Screen,4_58_2,2023-05-02T14:45:48.231Z,,0,,,NaN,,,,,,false,,,,214259,214258.79999998212,,214258.79999998212,,214272.969,8,400,,,
sequence,flow.Sequence,4_58,2023-05-02T14:45:48.232Z,,0,,,2002.416999982117,completion,,,,,false,,,,214259.19999998808,214258.79999998212,212239.717,212253.90000000596,212256.383,214272.969,8,400,,,
trial,html.Screen,4_59_0,2023-05-02T14:45:50.262Z,,0,2,,2016.4310000059486,response,ISIC_0003122.JPG,,ISIC_5526879.JPG,ISIC_5526879.JPG,false,0,keypress(z),500,216289.69999998808,216289.40000000596,214256.303,214259.29999998212,214272.969,216306.221,8,400,10,,ISIC_0003122.JPG
break,html.Screen,4_59_1,2023-05-02T14:45:50.263Z,,0,,,NaN,,,,,,false,,,,216290.5,216290.29999998212,,216289.90000000596,,216306.221,8,400,,,
break_continue,html.Screen,4_59_2,2023-05-02T14:45:50.263Z,,0,,,NaN,,,,,,false,,,,216290.90000000596,216290.79999998212,,216290.69999998808,,216306.221,8,400,,,
sequence,flow.Sequence,4_59,2023-05-02T14:45:50.264Z,,0,,,2017.8309999821067,completion,,,,,false,,,,216291.19999998808,216290.79999998212,214256.303,214259.29999998212,214272.969,216306.221,8,400,,,
trial,html.Screen,4_60_0,2023-05-02T14:45:54.022Z,,0,2,,3743.2790000000095,response,ISIC_0009958.JPG,,ISIC_8374889.JPG,ISIC_8374889.JPG,false,0,keypress(z),500,220049.69999998808,220049.5,216289.555,216291.29999998212,216306.221,220058.744,8,400,11,,ISIC_0009958.JPG
break,html.Screen,4_60_1,2023-05-02T14:45:54.023Z,,0,,,NaN,,,,,,false,,,,220050.59999999404,220050.29999998212,,220050,,220058.744,8,400,,,
break_continue,html.Screen,4_60_2,2023-05-02T14:45:54.023Z,,0,,,NaN,,,,,,false,,,,220051,220050.90000000596,,220050.69999998808,,220058.744,8,400,,,
sequence,flow.Sequence,4_60,2023-05-02T14:45:54.024Z,,0,,,3744.67900000597,completion,,,,,false,,,,220051.19999998808,220050.90000000596,216289.555,216291.19999998808,216306.221,220058.744,8,400,,,
trial,html.Screen,4_61_0,2023-05-02T14:45:56.518Z,,0,2,,2486.755999999994,response,ISIC_0189694.JPG,,ISIC_1423737.JPG,ISIC_1423737.JPG,false,0,keypress(z),500,222545.79999998212,222545.5,220042.078,220051.29999998212,220058.744,222558.644,8,400,12,,ISIC_0189694.JPG
break,html.Screen,4_61_1,2023-05-02T14:45:56.519Z,,0,,,NaN,,,,,,false,,,,222546.59999999404,222546.29999998212,,222546,,222558.644,8,400,,,
break_continue,html.Screen,4_61_2,2023-05-02T14:45:56.519Z,,0,,,NaN,,,,,,false,,,,222547,222546.79999998212,,222546.69999998808,,222558.644,8,400,,,
sequence,flow.Sequence,4_61,2023-05-02T14:45:56.520Z,,0,,,2488.0559999821126,completion,,,,,false,,,,222547.09999999404,222546.79999998212,220042.078,220051.29999998212,220058.744,222558.644,8,400,,,
trial,html.Screen,4_62_0,2023-05-02T14:45:58.497Z,,0,2,,1965.4559999940393,response,ISIC_0026049.JPG,,ISIC_6961503.JPG,ISIC_6961503.JPG,false,0,keypress(z),500,224524.29999998212,224524.09999999404,222541.978,222547.29999998212,222558.644,224541.898,8,400,13,,ISIC_0026049.JPG
break,html.Screen,4_62_1,2023-05-02T14:45:58.497Z,,0,,,NaN,,,,,,false,,,,224525.19999998808,224524.90000000596,,224524.5,,224541.898,8,400,,,
break_continue,html.Screen,4_62_2,2023-05-02T14:45:58.498Z,,0,,,NaN,,,,,,false,,,,224525.59999999404,224525.5,,224525.29999998212,,224541.898,8,400,,,
sequence,flow.Sequence,4_62,2023-05-02T14:45:58.498Z,,0,,,1966.8559999999998,completion,,,,,false,,,,224525.79999998212,224525.5,222541.978,222547.19999998808,222558.644,224541.898,8,400,,,
trial,html.Screen,4_63_0,2023-05-02T14:46:01.158Z,,0,2,,2643.6020000000135,response,ISIC_3805025.JPG,,ISIC_6488658.JPG,ISIC_6488658.JPG,false,0,keypress(z),500,227185.79999998212,227185.5,224525.232,224525.90000000596,224541.898,227191.792,8,400,14,,ISIC_3805025.JPG
break,html.Screen,4_63_1,2023-05-02T14:46:01.159Z,,0,,,NaN,,,,,,false,,,,227186.59999999404,227186.29999998212,,227186,,227191.792,8,400,,,
break_continue,html.Screen,4_63_2,2023-05-02T14:46:01.159Z,,0,,,NaN,,,,,,false,,,,227187,227186.79999998212,,227186.69999998808,,227191.792,8,400,,,
sequence,flow.Sequence,4_63,2023-05-02T14:46:01.159Z,,0,,,2644.901999982132,completion,,,,,false,,,,227187.09999999404,227186.79999998212,224525.232,224525.90000000596,224541.898,227191.792,8,400,,,
trial,html.Screen,4_64_0,2023-05-02T14:46:03.342Z,,0,2,,2177.9079999880923,response,ISIC_0032955.JPG,,ISIC_5659295.JPG,ISIC_5659295.JPG,false,0,keypress(z),500,229369.90000000596,229369.69999998808,227175.126,227187.29999998212,227191.792,229375.038,8,400,15,,ISIC_0032955.JPG
break,html.Screen,4_64_1,2023-05-02T14:46:03.343Z,,0,,,NaN,,,,,,false,,,,229370.79999998212,229370.59999999404,,229370.29999998212,,229375.038,8,400,,,
break_continue,html.Screen,4_64_2,2023-05-02T14:46:03.343Z,,0,,,NaN,,,,,,false,,,,229371.29999998212,229371,,229371,,229375.038,8,400,,,
sequence,flow.Sequence,4_64,2023-05-02T14:46:03.344Z,,0,,,2179.2080000000133,completion,,,,,false,,,,229371.40000000596,229371,227175.126,227187.19999998808,227191.792,229375.038,8,400,,,
trial,html.Screen,4_65_0,2023-05-02T14:46:05.606Z,,0,2,,2258.4619999999995,response,ISIC_6450034.JPG,,ISIC_4116224.JPG,ISIC_4116224.JPG,false,0,keypress(z),500,231633.69999998808,231633.5,229358.372,229371.5,229375.038,231646.538,8,400,16,,ISIC_6450034.JPG
break,html.Screen,4_65_1,2023-05-02T14:46:05.607Z,,0,,,NaN,,,,,,false,,,,231634.59999999404,231634.29999998212,,231634,,231646.538,8,400,,,
break_continue,html.Screen,4_65_2,2023-05-02T14:46:05.607Z,,0,,,NaN,,,,,,false,,,,231635,231634.79999998212,,231634.69999998808,,231646.538,8,400,,,
sequence,flow.Sequence,4_65,2023-05-02T14:46:05.607Z,,0,,,2259.761999982118,completion,,,,,false,,,,231635.19999998808,231634.79999998212,229358.372,229371.5,229375.038,231646.538,8,400,,,
trial,html.Screen,4_66_0,2023-05-02T14:46:08.320Z,,0,2,,2701.061999994039,response,ISIC_6220625.JPG,,ISIC_0009975.JPG,ISIC_0009975.JPG,false,0,keypress(z),500,234347.90000000596,234347.59999999404,231629.872,231635.29999998212,231646.538,234363.096,8,400,17,,ISIC_6220625.JPG
break,html.Screen,4_66_1,2023-05-02T14:46:08.321Z,,0,,,NaN,,,,,,false,,,,234348.59999999404,234348.29999998212,,234348.09999999404,,234363.096,8,400,,,
break_continue,html.Screen,4_66_2,2023-05-02T14:46:08.321Z,,0,,,NaN,,,,,,false,,,,234349,234348.79999998212,,234348.69999998808,,234363.096,8,400,,,
sequence,flow.Sequence,4_66,2023-05-02T14:46:08.321Z,,0,,,2702.261999982118,completion,,,,,false,,,,234349.19999998808,234348.79999998212,231629.872,231635.29999998212,231646.538,234363.096,8,400,,,
trial,html.Screen,4_67_0,2023-05-02T14:46:11.318Z,,0,2,,2982.503999994049,response,ISIC_1225511.JPG,,ISIC_0027170.JPG,ISIC_0027170.JPG,false,0,keypress(z),500,237346,237345.59999999404,234346.43,234349.29999998212,234363.096,237362.976,8,400,18,,ISIC_1225511.JPG
break,html.Screen,4_67_1,2023-05-02T14:46:11.319Z,,0,,,NaN,,,,,,false,,,,237346.69999998808,237346.5,,237346.19999998808,,237362.976,8,400,,,
break_continue,html.Screen,4_67_2,2023-05-02T14:46:11.319Z,,0,,,NaN,,,,,,false,,,,237347.09999999404,237347,,237346.90000000596,,237362.976,8,400,,,
sequence,flow.Sequence,4_67,2023-05-02T14:46:11.319Z,,0,,,2983.9040000000095,completion,,,,,false,,,,237347.29999998212,237347,234346.43,234349.19999998808,234363.096,237362.976,8,400,,,
trial,html.Screen,4_68_0,2023-05-02T14:46:13.318Z,,0,2,,1982.524000000005,response,ISIC_0011350.JPG,,ISIC_0013365.JPG,ISIC_0013365.JPG,false,0,keypress(z),500,239345.69999998808,239345.5,237346.31,237347.5,237362.976,239362.896,8,400,19,,ISIC_0011350.JPG
break,html.Screen,4_68_1,2023-05-02T14:46:13.319Z,,0,,,NaN,,,,,,false,,,,239346.5,239346.19999998808,,239346,,239362.896,8,400,,,
break_continue,html.Screen,4_68_2,2023-05-02T14:46:13.319Z,,0,,,NaN,,,,,,false,,,,239346.79999998212,239346.69999998808,,239346.59999999404,,239362.896,8,400,,,
sequence,flow.Sequence,4_68,2023-05-02T14:46:13.319Z,,0,,,1983.723999988084,completion,,,,,false,,,,239347,239346.69999998808,237346.31,237347.5,237362.976,239362.896,8,400,,,
trial,html.Screen,4_69_0,2023-05-02T14:46:15.430Z,,0,2,,2094.4039999821107,response,ISIC_5581297.JPG,,ISIC_8108090.JPG,ISIC_8108090.JPG,false,0,keypress(z),500,241457.5,241457.29999998212,239346.23,239347.19999998808,239362.896,241462.092,8,400,20,,ISIC_5581297.JPG
break,html.Screen,4_69_1,2023-05-02T14:46:15.430Z,,0,,,NaN,,,,,,false,,,,241458.40000000596,241458.09999999404,,241457.79999998212,,241462.092,8,400,,,
break_continue,html.Screen,4_69_2,2023-05-02T14:46:15.431Z,,0,,,NaN,,,,,,false,,,,241458.79999998212,241458.69999998808,,241458.5,,241462.092,8,400,,,
sequence,flow.Sequence,4_69,2023-05-02T14:46:15.431Z,,0,,,2095.803999988071,completion,,,,,false,,,,241459,241458.69999998808,239346.23,239347.19999998808,239362.896,241462.092,8,400,,,
trial,html.Screen,4_70_0,2023-05-02T14:46:17.584Z,,0,2,,2149.7079999821144,response,ISIC_0071458.JPG,,ISIC_0066382.JPG,ISIC_0066382.JPG,false,0,keypress(z),500,243612.19999998808,243611.79999998212,241445.426,241459.19999998808,241462.092,243628.672,8,400,21,,ISIC_0071458.JPG
break,html.Screen,4_70_1,2023-05-02T14:46:17.585Z,,0,,,NaN,,,,,,false,,,,243613,243612.69999998808,,243612.40000000596,,243628.672,8,400,,,
break_continue,html.Screen,4_70_2,2023-05-02T14:46:17.585Z,,0,,,NaN,,,,,,false,,,,243613.40000000596,243613.29999998212,,243613.19999998808,,243628.672,8,400,,,
sequence,flow.Sequence,4_70,2023-05-02T14:46:17.586Z,,0,,,2151.2079999821144,completion,,,,,false,,,,243613.59999999404,243613.29999998212,241445.426,241459.09999999404,241462.092,243628.672,8,400,,,
trial,html.Screen,4_71_0,2023-05-02T14:46:23.174Z,,0,2,,5572.828000000009,response,ISIC_0567814.JPG,,ISIC_3342474.JPG,ISIC_3342474.JPG,false,0,keypress(z),500,249201.69999998808,249201.5,243612.006,243613.79999998212,243628.672,249211.782,8,400,22,,ISIC_0567814.JPG
break,html.Screen,4_71_1,2023-05-02T14:46:23.175Z,,0,,,NaN,,,,,,false,,,,249202.59999999404,249202.40000000596,,249202,,249211.782,8,400,,,
break_continue,html.Screen,4_71_2,2023-05-02T14:46:23.175Z,,0,,,NaN,,,,,,false,,,,249203,249202.90000000596,,249202.79999998212,,249211.782,8,400,,,
sequence,flow.Sequence,4_71,2023-05-02T14:46:23.175Z,,0,,,5574.228000005969,completion,,,,,false,,,,249203.29999998212,249202.90000000596,243612.006,243613.69999998808,243628.672,249211.782,8,400,,,
trial,html.Screen,4_72_0,2023-05-02T14:46:27.824Z,,0,2,,4639.618000005954,response,ISIC_4614129.JPG,,ISIC_1619814.JPG,ISIC_4614129.JPG,false,1,keypress(m),500,253851.69999998808,253851.40000000596,249195.116,249203.40000000596,249211.782,253862.483,8,400,23,,ISIC_1619814.JPG
break,html.Screen,4_72_1,2023-05-02T14:46:27.825Z,,0,,,NaN,,,,,,false,,,,253852.59999999404,253852.40000000596,,253852.09999999404,,253862.483,8,400,,,
break_continue,html.Screen,4_72_2,2023-05-02T14:46:27.825Z,,0,,,NaN,,,,,,false,,,,253853.09999999404,253853,,253852.79999998212,,253862.483,8,400,,,
sequence,flow.Sequence,4_72,2023-05-02T14:46:27.825Z,,0,,,4641.2179999999935,completion,,,,,false,,,,253853.29999998212,253853,249195.116,249203.29999998212,249211.782,253862.483,8,400,,,
trial,html.Screen,4_73_0,2023-05-02T14:46:29.958Z,,0,2,,2123.0169999999925,response,ISIC_0098784.JPG,,ISIC_0025520.JPG,ISIC_0098784.JPG,false,1,keypress(m),500,255985.69999998808,255985.5,253845.817,253853.40000000596,253862.483,255995.731,8,400,24,,ISIC_0025520.JPG
break,html.Screen,4_73_1,2023-05-02T14:46:29.958Z,,0,,,NaN,,,,,,false,,,,255986.59999999404,255986.29999998212,,255986,,255995.731,8,400,,,
break_continue,html.Screen,4_73_2,2023-05-02T14:46:29.959Z,,0,,,NaN,,,,,,false,,,,255987.09999999404,255986.90000000596,,255986.79999998212,,255995.731,8,400,,,
sequence,flow.Sequence,4_73,2023-05-02T14:46:29.959Z,,0,,,2124.417000005953,completion,,,,,false,,,,255987.19999998808,255986.90000000596,253845.817,253853.40000000596,253862.483,255995.731,8,400,,,
trial,html.Screen,4_74_0,2023-05-02T14:46:32.053Z,,0,2,,2084.7690000000002,response,ISIC_0025500.JPG,,ISIC_9732721.JPG,ISIC_0025500.JPG,false,1,keypress(m),500,258080.79999998212,258080.5,255979.065,255987.40000000596,255995.731,258095.647,8,400,25,,ISIC_9732721.JPG
break,html.Screen,4_74_1,2023-05-02T14:46:32.053Z,,0,,,NaN,,,,,,false,,,,258081.5,258081.29999998212,,258081,,258095.647,8,400,,,
break_continue,html.Screen,4_74_2,2023-05-02T14:46:32.054Z,,0,,,NaN,,,,,,false,,,,258081.90000000596,258081.79999998212,,258081.69999998808,,258095.647,8,400,,,
sequence,flow.Sequence,4_74,2023-05-02T14:46:32.054Z,,0,,,2086.068999982119,completion,,,,,false,,,,258082.19999998808,258081.79999998212,255979.065,255987.40000000596,255995.731,258095.647,8,400,,,
trial,html.Screen,4_75_0,2023-05-02T14:46:43.552Z,,0,2,,11516.206000000006,timeout,ISIC_6620748.JPG,,ISIC_0014541.JPG,,false,,,500,269580.09999999404,269579.7999999821,258078.981,258082.29999998212,258095.647,269611.853,8,400,26,,
break,html.Screen,4_75_1,2023-05-02T14:46:43.552Z,,0,,,NaN,,,,,,false,,,,269580.6999999881,269580.59999999404,,269580.2999999821,,269611.853,8,400,,,
break_continue,html.Screen,4_75_2,2023-05-02T14:46:43.553Z,,0,,,NaN,,,,,,false,,,,269581.1999999881,269581.09999999404,,269581,,269611.853,8,400,,,
sequence,flow.Sequence,4_75,2023-05-02T14:46:43.553Z,,0,,,11485.452999994042,completion,,,,,false,,,,269581.40000000596,269581.09999999404,258078.981,258082.29999998212,258095.647,269611.853,8,400,,,
trial,html.Screen,4_76_0,2023-05-02T14:46:48.580Z,,0,2,,4996.646999999997,response,ISIC_0069946.JPG,,ISIC_1731109.JPG,ISIC_1731109.JPG,false,0,keypress(z),500,274608.59999999404,274608.5,269595.187,269581.59999999404,269611.853,274627.198,8,400,27,,ISIC_0069946.JPG
break,html.Screen,4_76_1,2023-05-02T14:46:48.581Z,,0,,,NaN,,,,,,false,,,,274609,274608.90000000596,,274608.6999999881,,274627.198,8,400,,,
break_continue,html.Screen,4_76_2,2023-05-02T14:46:48.581Z,,0,,,NaN,,,,,,false,,,,274609.1999999881,274609.09999999404,,274609,,274627.198,8,400,,,
sequence,flow.Sequence,4_76,2023-05-02T14:46:48.581Z,,0,,,4997.246999994037,completion,,,,,false,,,,274609.1999999881,274609.09999999404,269595.187,269581.5,269611.853,274627.198,8,400,,,
trial,html.Screen,4_77_0,2023-05-02T14:46:51.759Z,,0,2,,3160.2020000059856,response,ISIC_0029281.JPG,,ISIC_4652186.JPG,ISIC_0029281.JPG,false,1,keypress(m),500,277787.5,277787.40000000596,274610.532,274609.2999999821,274627.198,277793.738,8,400,28,,ISIC_4652186.JPG
break,html.Screen,4_77_1,2023-05-02T14:46:51.760Z,,0,,,NaN,,,,,,false,,,,277788.09999999404,277787.90000000596,,277787.6999999881,,277793.738,8,400,,,
break_continue,html.Screen,4_77_2,2023-05-02T14:46:51.760Z,,0,,,NaN,,,,,,false,,,,277788.1999999881,277788.1999999881,,277788.09999999404,,277793.738,8,400,,,
sequence,flow.Sequence,4_77,2023-05-02T14:46:51.760Z,,0,,,3161.001999988104,completion,,,,,false,,,,277788.40000000596,277788.1999999881,274610.532,274609.2999999821,274627.198,277793.738,8,400,,,
trial,html.Screen,4_78_0,2023-05-02T14:47:03.253Z,,0,2,,11516.206000000006,timeout,ISIC_9618489.JPG,,ISIC_0010251.JPG,,false,,,500,289281.2999999821,289281,277777.072,277788.5,277793.738,289309.944,8,400,29,,
break,html.Screen,4_78_1,2023-05-02T14:47:03.254Z,,0,,,NaN,,,,,,false,,,,289282.09999999404,289281.90000000596,,289281.59999999404,,289309.944,8,400,,,
break_continue,html.Screen,4_78_2,2023-05-02T14:47:03.254Z,,0,,,NaN,,,,,,false,,,,289282.6999999881,289282.59999999404,,289282.40000000596,,289309.944,8,400,,,
sequence,flow.Sequence,4_78,2023-05-02T14:47:03.254Z,,0,,,11488.861999994027,completion,,,,,false,,,,289282.90000000596,289282.59999999404,277777.072,277788.5,277793.738,289309.944,8,400,,,
trial,html.Screen,4_79_0,2023-05-02T14:47:07.021Z,,0,2,,3739.7559999880614,response,ISIC_3209501.JPG,,ISIC_5850699.JPG,ISIC_5850699.JPG,false,0,keypress(z),500,293050,293049.6999999881,289293.278,289283,289309.944,293059.101,8,400,30,,ISIC_3209501.JPG
break,html.Screen,4_79_1,2023-05-02T14:47:07.022Z,,0,,,NaN,,,,,,false,,,,293050.7999999821,293050.59999999404,,293050.1999999881,,293059.101,8,400,,,
break_continue,html.Screen,4_79_2,2023-05-02T14:47:07.023Z,,0,,,NaN,,,,,,false,,,,293051.1999999881,293051.09999999404,,293050.90000000596,,293059.101,8,400,,,
sequence,flow.Sequence,4_79,2023-05-02T14:47:07.023Z,,0,,,3741.155999994022,completion,,,,,false,,,,293051.40000000596,293051.09999999404,289293.278,289283,289309.944,293059.101,8,400,,,
trial,html.Screen,4_80_0,2023-05-02T14:47:09.213Z,,0,2,,2182.7990000059363,response,ISIC_4177450.JPG,,ISIC_7592920.JPG,ISIC_7592920.JPG,false,0,keypress(z),500,295242.09999999404,295241.90000000596,293042.435,293051.59999999404,293059.101,295259.013,8,400,31,,ISIC_4177450.JPG
break,html.Screen,4_80_1,2023-05-02T14:47:09.214Z,,0,,,NaN,,,,,,false,,,,295242.6999999881,295242.5,,295242.2999999821,,295259.013,8,400,,,
break_continue,html.Screen,4_80_2,2023-05-02T14:47:09.214Z,,0,,,NaN,,,,,,false,,,,295242.90000000596,295242.7999999821,,295242.7999999821,,295259.013,8,400,,,
sequence,flow.Sequence,4_80,2023-05-02T14:47:09.214Z,,0,,,2183.6989999820944,completion,,,,,false,,,,295243.09999999404,295242.7999999821,293042.435,293051.5,293059.101,295259.013,8,400,,,
trial,html.Screen,4_81_0,2023-05-02T14:47:11.374Z,,0,2,,2142.987000000023,response,ISIC_0010555.JPG,,ISIC_0026531.JPG,ISIC_0010555.JPG,false,1,keypress(m),500,297402.1999999881,297402,295242.347,295243.1999999881,295259.013,297408.927,8,400,32,,ISIC_0026531.JPG
break,html.Screen,4_81_1,2023-05-02T14:47:11.374Z,,0,,,NaN,,,,,,false,,,,297403,297402.7999999821,,297402.5,,297408.927,8,400,,,
break_continue,html.Screen,4_81_2,2023-05-02T14:47:11.375Z,,0,,,NaN,,,,,,false,,,,297403.5,297403.2999999821,,297403.1999999881,,297408.927,8,400,,,
sequence,flow.Sequence,4_81,2023-05-02T14:47:11.375Z,,0,,,2144.2869999821414,completion,,,,,false,,,,297403.59999999404,297403.2999999821,295242.347,295243.1999999881,295259.013,297408.927,8,400,,,
trial,html.Screen,4_82_0,2023-05-02T14:47:15.685Z,,0,2,,4304.473000005935,response,ISIC_0046626.JPG,,ISIC_4679971.JPG,ISIC_4679971.JPG,false,0,keypress(z),500,301713.59999999404,301713.40000000596,297392.261,297403.7999999821,297408.927,301725.954,8,400,33,,ISIC_0046626.JPG
break,html.Screen,4_82_1,2023-05-02T14:47:15.685Z,,0,,,NaN,,,,,,false,,,,301714.1999999881,301714.09999999404,,301713.7999999821,,301725.954,8,400,,,
break_continue,html.Screen,4_82_2,2023-05-02T14:47:15.686Z,,0,,,NaN,,,,,,false,,,,301714.5,301714.40000000596,,301714.2999999821,,301725.954,8,400,,,
sequence,flow.Sequence,4_82,2023-05-02T14:47:15.686Z,,0,,,4305.473000005935,completion,,,,,false,,,,301714.59999999404,301714.40000000596,297392.261,297403.7999999821,297408.927,301725.954,8,400,,,
trial,html.Screen,4_83_0,2023-05-02T14:47:19.141Z,,0,2,,3443.545999999973,response,ISIC_7378303.JPG,,ISIC_4086323.JPG,ISIC_4086323.JPG,false,0,keypress(z),500,305169.6999999881,305169.5,301709.288,301714.6999999881,301725.954,305175.816,8,400,34,,ISIC_7378303.JPG
break,html.Screen,4_83_1,2023-05-02T14:47:19.142Z,,0,,,NaN,,,,,,false,,,,305170.40000000596,305170.1999999881,,305169.90000000596,,305175.816,8,400,,,
break_continue,html.Screen,4_83_2,2023-05-02T14:47:19.142Z,,0,,,NaN,,,,,,false,,,,305170.6999999881,305170.6999999881,,305170.5,,305175.816,8,400,,,
sequence,flow.Sequence,4_83,2023-05-02T14:47:19.142Z,,0,,,3444.745999988052,completion,,,,,false,,,,305170.90000000596,305170.6999999881,301709.288,301714.59999999404,301725.954,305175.816,8,400,,,
trial,html.Screen,4_84_0,2023-05-02T14:47:21.823Z,,0,2,,2675.8839999880875,response,ISIC_0004857.JPG,,ISIC_3700351.JPG,ISIC_0004857.JPG,false,1,keypress(m),500,307851.90000000596,307851.6999999881,305159.15,305171.09999999404,305175.816,307859.042,8,400,35,,ISIC_3700351.JPG
break,html.Screen,4_84_1,2023-05-02T14:47:21.824Z,,0,,,NaN,,,,,,false,,,,307852.6999999881,307852.40000000596,,307852.1999999881,,307859.042,8,400,,,
break_continue,html.Screen,4_84_2,2023-05-02T14:47:21.824Z,,0,,,NaN,,,,,,false,,,,307853.09999999404,307852.90000000596,,307852.90000000596,,307859.042,8,400,,,
sequence,flow.Sequence,4_84,2023-05-02T14:47:21.824Z,,0,,,2677.084000005969,completion,,,,,false,,,,307853.2999999821,307852.90000000596,305159.15,305171,305175.816,307859.042,8,400,,,
trial,html.Screen,4_85_0,2023-05-02T14:47:25.221Z,,0,2,,3390.457999999984,response,ISIC_4231346.JPG,,ISIC_0000300.JPG,ISIC_0000300.JPG,false,0,keypress(z),500,311249.6999999881,311249.5,307842.376,307853.40000000596,307859.042,311258.906,8,400,36,,ISIC_4231346.JPG
break,html.Screen,4_85_1,2023-05-02T14:47:25.221Z,,0,,,NaN,,,,,,false,,,,311250.5,311250.1999999881,,311249.90000000596,,311258.906,8,400,,,
break_continue,html.Screen,4_85_2,2023-05-02T14:47:25.222Z,,0,,,NaN,,,,,,false,,,,311250.7999999821,311250.6999999881,,311250.59999999404,,311258.906,8,400,,,
sequence,flow.Sequence,4_85,2023-05-02T14:47:25.222Z,,0,,,3391.6579999880632,completion,,,,,false,,,,311250.90000000596,311250.6999999881,307842.376,307853.40000000596,307859.042,311258.906,8,400,,,
trial,html.Screen,4_86_0,2023-05-02T14:47:30.069Z,,0,2,,4838.494000005943,response,ISIC_0231167.JPG,,ISIC_8325260.JPG,ISIC_0231167.JPG,false,1,keypress(m),500,316097.7999999821,316097.40000000596,311242.24,311251.09999999404,311258.906,316123.387,8,400,37,,ISIC_8325260.JPG
break,html.Screen,4_86_1,2023-05-02T14:47:30.070Z,,0,,,NaN,,,,,,false,,,,316098.5,316098.2999999821,,316098,,316123.387,8,400,,,
break_continue,html.Screen,4_86_2,2023-05-02T14:47:30.070Z,,0,,,NaN,,,,,,false,,,,316098.90000000596,316098.6999999881,,316098.6999999881,,316123.387,8,400,,,
sequence,flow.Sequence,4_86,2023-05-02T14:47:30.070Z,,0,,,4839.793999988062,completion,,,,,false,,,,316099.09999999404,316098.6999999881,311242.24,311251.09999999404,311258.906,316123.387,8,400,,,
trial,html.Screen,4_87_0,2023-05-02T14:47:34.031Z,,0,2,,3936.2129999940516,response,ISIC_6785041.JPG,,ISIC_0411688.JPG,ISIC_6785041.JPG,false,1,keypress(m),500,320059.7999999821,320059.59999999404,316106.721,316099.1999999881,316123.387,320073.229,8,400,38,,ISIC_0411688.JPG
break,html.Screen,4_87_1,2023-05-02T14:47:34.031Z,,0,,,NaN,,,,,,false,,,,320060.5,320060.2999999821,,320060,,320073.229,8,400,,,
break_continue,html.Screen,4_87_2,2023-05-02T14:47:34.032Z,,0,,,NaN,,,,,,false,,,,320060.90000000596,320060.7999999821,,320060.6999999881,,320073.229,8,400,,,
sequence,flow.Sequence,4_87,2023-05-02T14:47:34.032Z,,0,,,3937.4129999821307,completion,,,,,false,,,,320061.09999999404,320060.7999999821,316106.721,316099.1999999881,316123.387,320073.229,8,400,,,
trial,html.Screen,4_88_0,2023-05-02T14:47:38.349Z,,0,2,,4304.771000000008,response,ISIC_0000166.JPG,,ISIC_0029339.JPG,ISIC_0029339.JPG,false,0,keypress(z),500,324378.2999999821,324378,320056.563,320061.2999999821,320073.229,324389.689,8,400,39,,ISIC_0000166.JPG
break,html.Screen,4_88_1,2023-05-02T14:47:38.350Z,,0,,,NaN,,,,,,false,,,,324379.09999999404,324378.90000000596,,324378.5,,324389.689,8,400,,,
break_continue,html.Screen,4_88_2,2023-05-02T14:47:38.350Z,,0,,,NaN,,,,,,false,,,,324379.40000000596,324379.2999999821,,324379.1999999881,,324389.689,8,400,,,
sequence,flow.Sequence,4_88,2023-05-02T14:47:38.350Z,,0,,,4306.0709999821265,completion,,,,,false,,,,324379.59999999404,324379.2999999821,320056.563,320061.09999999404,320073.229,324389.689,8,400,,,
trial,html.Screen,4_89_0,2023-05-02T14:47:42.324Z,,0,2,,3963.7110000059474,response,ISIC_0068924.JPG,,ISIC_0054936.JPG,ISIC_0054936.JPG,false,0,keypress(z),500,328353.59999999404,328353.40000000596,324373.023,324379.7999999821,324389.689,328356.197,8,400,40,,ISIC_0068924.JPG
break,html.Screen,4_89_1,2023-05-02T14:47:42.325Z,,0,,,NaN,,,,,,false,,,,328354.1999999881,328354,,328353.7999999821,,328356.197,8,400,,,
break_continue,html.Screen,4_89_2,2023-05-02T14:47:42.325Z,,0,,,NaN,,,,,,false,,,,328354.5,328354.40000000596,,328354.2999999821,,328356.197,8,400,,,
sequence,flow.Sequence,4_89,2023-05-02T14:47:42.325Z,,0,,,3964.7110000059474,completion,,,,,false,,,,328354.59999999404,328354.40000000596,324373.023,324379.6999999881,324389.689,328356.197,8,400,,,
trial,html.Screen,4_90_0,2023-05-02T14:47:46.660Z,,0,2,,4333.102999982133,response,ISIC_0027956.JPG,,ISIC_6118204.JPG,ISIC_6118204.JPG,false,0,keypress(z),500,332689.59999999404,332689.2999999821,328339.531,328354.59999999404,328356.197,332701.161,8,400,41,,ISIC_0027956.JPG
break,html.Screen,4_90_1,2023-05-02T14:47:46.661Z,,0,,,NaN,,,,,,false,,,,332690.2999999821,332690.09999999404,,332689.7999999821,,332701.161,8,400,,,
break_continue,html.Screen,4_90_2,2023-05-02T14:47:46.661Z,,0,,,NaN,,,,,,false,,,,332690.6999999881,332690.59999999404,,332690.40000000596,,332701.161,8,400,,,
sequence,flow.Sequence,4_90,2023-05-02T14:47:46.662Z,,0,,,4334.402999994054,completion,,,,,false,,,,332690.90000000596,332690.59999999404,328339.531,328354.59999999404,328356.197,332701.161,8,400,,,
trial,html.Screen,4_91_0,2023-05-02T14:47:50.255Z,,0,2,,3582.4389999940176,response,ISIC_6983970.JPG,,ISIC_0010834.JPG,ISIC_6983970.JPG,false,1,keypress(m),500,336283.90000000596,336283.59999999404,332684.495,332690.90000000596,332701.161,336301.017,8,400,42,,ISIC_0010834.JPG
break,html.Screen,4_91_1,2023-05-02T14:47:50.255Z,,0,,,NaN,,,,,,false,,,,336284.59999999404,336284.2999999821,,336284,,336301.017,8,400,,,
break_continue,html.Screen,4_91_2,2023-05-02T14:47:50.256Z,,0,,,NaN,,,,,,false,,,,336284.90000000596,336284.90000000596,,336284.7999999821,,336301.017,8,400,,,
sequence,flow.Sequence,4_91,2023-05-02T14:47:50.256Z,,0,,,3583.7390000059386,completion,,,,,false,,,,336285.09999999404,336284.90000000596,332684.495,332690.90000000596,332701.161,336301.017,8,400,,,
trial,html.Screen,4_92_0,2023-05-02T14:47:52.637Z,,0,2,,2364.9830000000075,response,ISIC_0799535.JPG,,ISIC_5910595.JPG,ISIC_5910595.JPG,false,0,keypress(z),500,338666.2999999821,338666,336284.351,336285.2999999821,336301.017,338667.589,8,400,43,,ISIC_0799535.JPG
break,html.Screen,4_92_1,2023-05-02T14:47:52.638Z,,0,,,NaN,,,,,,false,,,,338667.09999999404,338666.7999999821,,338666.5,,338667.589,8,400,,,
break_continue,html.Screen,4_92_2,2023-05-02T14:47:52.638Z,,0,,,NaN,,,,,,false,,,,338667.5,338667.2999999821,,338667.1999999881,,338667.589,8,400,,,
sequence,flow.Sequence,4_92,2023-05-02T14:47:52.638Z,,0,,,2366.282999982126,completion,,,,,false,,,,338667.59999999404,338667.2999999821,336284.351,336285.2999999821,336301.017,338667.589,8,400,,,
trial,html.Screen,4_93_0,2023-05-02T14:48:04.126Z,,0,2,,11516.206000000006,timeout,ISIC_2616327.JPG,,ISIC_8755163.JPG,,false,,,500,350155.09999999404,350154.7999999821,338650.923,338667.7999999821,338667.589,350183.795,8,400,44,,
break,html.Screen,4_93_1,2023-05-02T14:48:04.126Z,,0,,,NaN,,,,,,false,,,,350155.6999999881,350155.59999999404,,350155.1999999881,,350183.795,8,400,,,
break_continue,html.Screen,4_93_2,2023-05-02T14:48:04.127Z,,0,,,NaN,,,,,,false,,,,350156.09999999404,350156,,350155.90000000596,,350183.795,8,400,,,
sequence,flow.Sequence,4_93,2023-05-02T14:48:04.127Z,,0,,,11488.411000000022,completion,,,,,false,,,,350156.40000000596,350156,338650.923,338667.6999999881,338667.589,350183.795,8,400,,,
trial,html.Screen,4_94_0,2023-05-02T14:48:15.636Z,,0,2,,11513.722999999998,timeout,ISIC_0059601.JPG,,ISIC_0057032.JPG,,false,,,500,361666,361665.6999999881,350167.129,350156.5,350183.795,361697.518,8,400,45,,
break,html.Screen,4_94_1,2023-05-02T14:48:15.637Z,,0,,,NaN,,,,,,false,,,,361666.6999999881,361666.5,,361666.1999999881,,361697.518,8,400,,,
break_continue,html.Screen,4_94_2,2023-05-02T14:48:15.638Z,,0,,,NaN,,,,,,false,,,,361667.1999999881,361667.09999999404,,361666.90000000596,,361697.518,8,400,,,
sequence,flow.Sequence,4_94,2023-05-02T14:48:15.638Z,,0,,,11483.304999994056,completion,,,,,false,,,,361667.40000000596,361667.09999999404,350167.129,350156.40000000596,350183.795,361697.518,8,400,,,
trial,html.Screen,4_95_0,2023-05-02T14:48:18.811Z,,0,2,,3143.1819999880972,response,ISIC_0030910.JPG,,ISIC_0029316.JPG,ISIC_0029316.JPG,false,0,keypress(z),500,364841,364840.6999999881,361680.852,361667.59999999404,361697.518,364855.103,8,400,46,,ISIC_0030910.JPG
break,html.Screen,4_95_1,2023-05-02T14:48:18.812Z,,0,,,NaN,,,,,,false,,,,364841.59999999404,364841.5,,364841.09999999404,,364855.103,8,400,,,
break_continue,html.Screen,4_95_2,2023-05-02T14:48:18.812Z,,0,,,NaN,,,,,,false,,,,364842,364842,,364841.7999999821,,364855.103,8,400,,,
sequence,flow.Sequence,4_95,2023-05-02T14:48:18.812Z,,0,,,3144.482000000018,completion,,,,,false,,,,364842.1999999881,364842,361680.852,361667.5,361697.518,364855.103,8,400,,,
trial,html.Screen,4_96_0,2023-05-02T14:48:22.092Z,,0,2,,3266.896999999997,response,ISIC_0030235.JPG,,ISIC_2096695.JPG,ISIC_0030235.JPG,false,1,keypress(m),500,368122.2999999821,368122,364838.437,364842.40000000596,364855.103,368138.305,8,400,47,,ISIC_2096695.JPG
break,html.Screen,4_96_1,2023-05-02T14:48:22.093Z,,0,,,NaN,,,,,,false,,,,368123,368122.7999999821,,368122.5,,368138.305,8,400,,,
break_continue,html.Screen,4_96_2,2023-05-02T14:48:22.094Z,,0,,,NaN,,,,,,false,,,,368123.5,368123.2999999821,,368123.1999999881,,368138.305,8,400,,,
sequence,flow.Sequence,4_96,2023-05-02T14:48:22.094Z,,0,,,3268.196999982116,completion,,,,,false,,,,368123.59999999404,368123.2999999821,364838.437,364842.40000000596,364855.103,368138.305,8,400,,,
trial,html.Screen,4_97_0,2023-05-02T14:48:24.108Z,,0,2,,1999.0950000059674,response,ISIC_4462476.JPG,,ISIC_0031146.JPG,ISIC_0031146.JPG,false,0,keypress(z),500,370137.6999999881,370137.40000000596,368121.639,368123.7999999821,368138.305,370154.891,8,400,48,,ISIC_4462476.JPG
break,html.Screen,4_97_1,2023-05-02T14:48:24.109Z,,0,,,NaN,,,,,,false,,,,370138.5,370138.2999999821,,370138,,370154.891,8,400,,,
break_continue,html.Screen,4_97_2,2023-05-02T14:48:24.109Z,,0,,,NaN,,,,,,false,,,,370138.90000000596,370138.7999999821,,370138.6999999881,,370154.891,8,400,,,
sequence,flow.Sequence,4_97,2023-05-02T14:48:24.109Z,,0,,,2000.4949999821256,completion,,,,,false,,,,370139.09999999404,370138.7999999821,368121.639,368123.7999999821,368138.305,370154.891,8,400,,,
trial,html.Screen,4_98_0,2023-05-02T14:48:26.084Z,,0,2,,1958.6089999999967,response,ISIC_0030760.JPG,,ISIC_0055393.JPG,ISIC_0030760.JPG,false,1,keypress(m),500,372113.7999999821,372113.5,370138.225,370139.1999999881,370154.891,372121.479,8,400,49,,ISIC_0055393.JPG
break,html.Screen,4_98_1,2023-05-02T14:48:26.085Z,,0,,,NaN,,,,,,false,,,,372114.59999999404,372114.2999999821,,372114,,372121.479,8,400,,,
break_continue,html.Screen,4_98_2,2023-05-02T14:48:26.085Z,,0,,,NaN,,,,,,false,,,,372115,372114.7999999821,,372114.6999999881,,372121.479,8,400,,,
sequence,flow.Sequence,4_98,2023-05-02T14:48:26.085Z,,0,,,1959.9089999821153,completion,,,,,false,,,,372115.09999999404,372114.7999999821,370138.225,370139.1999999881,370154.891,372121.479,8,400,,,
trial,html.Screen,4_99_0,2023-05-02T14:48:29.230Z,,0,2,,3137.9210000059684,response,ISIC_1132788.JPG,,ISIC_0558485.JPG,ISIC_0558485.JPG,false,0,keypress(z),500,375259.6999999881,375259.40000000596,372104.813,372115.2999999821,372121.479,375271.387,8,400,50,,ISIC_1132788.JPG
break,html.Screen,4_99_1,2023-05-02T14:48:34.226Z,,0,,,4999.799999999988,timeout,,,,,false,,,,380256,380254.521,375254.721,375259.90000000596,375271.387,380271.187,8,400,,,
break_continue,html.Screen,4_99_2,2023-05-02T14:48:44.769Z,,0,,,10506.912999994063,response,,,,,false,continue,keypress(Space),,390799.09999999404,390778.09999999404,380254.521,380256.1999999881,380271.187,390804.099,8,400,,,
sequence,flow.Sequence,4_99,2023-05-02T14:48:44.769Z,,0,,,18656.620999994047,completion,,,,,false,,,,390799.1999999881,390778.09999999404,372104.813,372115.1999999881,372121.479,390804.099,8,400,,,
trial,html.Screen,4_100_0,2023-05-02T14:48:49.004Z,,0,3,,4229.901000000013,response,ISIC_1220154.JPG,,ISIC_1945381.JPG,ISIC_1220154.JPG,false,1,keypress(m),500,395034.2999999821,395034,390787.433,390799.2999999821,390804.099,395037.848,8,400,1,,ISIC_1945381.JPG
break,html.Screen,4_100_1,2023-05-02T14:48:49.005Z,,0,,,NaN,,,,,,false,,,,395035,395034.7999999821,,395034.5,,395037.848,8,400,,,
break_continue,html.Screen,4_100_2,2023-05-02T14:48:49.005Z,,0,,,NaN,,,,,,false,,,,395035.40000000596,395035.2999999821,,395035.1999999881,,395037.848,8,400,,,
sequence,flow.Sequence,4_100,2023-05-02T14:48:49.005Z,,0,,,4231.200999982131,completion,,,,,false,,,,395035.59999999404,395035.2999999821,390787.433,390799.2999999821,390804.099,395037.848,8,400,,,
trial,html.Screen,4_101_0,2023-05-02T14:48:56.556Z,,0,3,,7548.152000000002,response,ISIC_0013778.JPG,,ISIC_2244564.JPG,ISIC_2244564.JPG,false,0,keypress(z),500,402586.2999999821,402586,395021.182,395035.7999999821,395037.848,402594.865,8,400,2,,ISIC_0013778.JPG
break,html.Screen,4_101_1,2023-05-02T14:48:56.557Z,,0,,,NaN,,,,,,false,,,,402587.09999999404,402586.7999999821,,402586.5,,402594.865,8,400,,,
break_continue,html.Screen,4_101_2,2023-05-02T14:48:56.557Z,,0,,,NaN,,,,,,false,,,,402587.5,402587.40000000596,,402587.2999999821,,402594.865,8,400,,,
sequence,flow.Sequence,4_101,2023-05-02T14:48:56.557Z,,0,,,7549.552000005962,completion,,,,,false,,,,402587.6999999881,402587.40000000596,395021.182,395035.6999999881,395037.848,402594.865,8,400,,,
trial,html.Screen,4_102_0,2023-05-02T14:48:59.820Z,,0,3,,3255.1350000000093,response,ISIC_9232153.JPG,,ISIC_4735959.JPG,ISIC_4735959.JPG,false,0,keypress(z),500,405850.1999999881,405850,402578.199,402587.7999999821,402594.865,405861.401,8,400,3,,ISIC_9232153.JPG
break,html.Screen,4_102_1,2023-05-02T14:48:59.821Z,,0,,,NaN,,,,,,false,,,,405851,405850.7999999821,,405850.40000000596,,405861.401,8,400,,,
break_continue,html.Screen,4_102_2,2023-05-02T14:48:59.821Z,,0,,,NaN,,,,,,false,,,,405851.40000000596,405851.2999999821,,405851.1999999881,,405861.401,8,400,,,
sequence,flow.Sequence,4_102,2023-05-02T14:48:59.821Z,,0,,,3256.434999982128,completion,,,,,false,,,,405851.59999999404,405851.2999999821,402578.199,402587.7999999821,402594.865,405861.401,8,400,,,
trial,html.Screen,4_103_0,2023-05-02T14:49:03.619Z,,0,3,,3788.0989999999874,response,ISIC_0032812.JPG,,ISIC_3786075.JPG,ISIC_3786075.JPG,false,0,keypress(z),500,409649.90000000596,409649.5,405844.735,405851.6999999881,405861.401,409661.249,8,400,4,,ISIC_0032812.JPG
break,html.Screen,4_103_1,2023-05-02T14:49:03.620Z,,0,,,NaN,,,,,,false,,,,409650.40000000596,409650.1999999881,,409650,,409661.249,8,400,,,
break_continue,html.Screen,4_103_2,2023-05-02T14:49:03.620Z,,0,,,NaN,,,,,,false,,,,409650.59999999404,409650.5,,409650.40000000596,,409661.249,8,400,,,
sequence,flow.Sequence,4_103,2023-05-02T14:49:03.620Z,,0,,,3789.0989999999874,completion,,,,,false,,,,409650.7999999821,409650.5,405844.735,405851.6999999881,405861.401,409661.249,8,400,,,
trial,html.Screen,4_104_0,2023-05-02T14:49:11.532Z,,0,3,,7900.950999988068,response,ISIC_0069830.JPG,,ISIC_4311777.JPG,ISIC_4311777.JPG,false,0,keypress(z),500,417562.59999999404,417562.1999999881,409644.583,409650.90000000596,409661.249,417577.859,8,400,5,,ISIC_0069830.JPG
break,html.Screen,4_104_1,2023-05-02T14:49:11.533Z,,0,,,NaN,,,,,,false,,,,417563.2999999821,417563,,417562.7999999821,,417577.859,8,400,,,
break_continue,html.Screen,4_104_2,2023-05-02T14:49:11.533Z,,0,,,NaN,,,,,,false,,,,417563.59999999404,417563.5,,417563.40000000596,,417577.859,8,400,,,
sequence,flow.Sequence,4_104,2023-05-02T14:49:11.533Z,,0,,,7902.250999999989,completion,,,,,false,,,,417563.7999999821,417563.5,409644.583,409650.7999999821,409661.249,417577.859,8,400,,,
trial,html.Screen,4_105_0,2023-05-02T14:49:13.868Z,,0,3,,2320.1410000000033,response,ISIC_2844539.JPG,,ISIC_9141065.JPG,ISIC_9141065.JPG,false,0,keypress(z),500,419898.2999999821,419898,417561.193,417564,417577.859,419911.099,8,400,6,,ISIC_2844539.JPG
break,html.Screen,4_105_1,2023-05-02T14:49:13.869Z,,0,,,NaN,,,,,,false,,,,419899.09999999404,419898.90000000596,,419898.5,,419911.099,8,400,,,
break_continue,html.Screen,4_105_2,2023-05-02T14:49:13.869Z,,0,,,NaN,,,,,,false,,,,419899.5,419899.40000000596,,419899.1999999881,,419911.099,8,400,,,
sequence,flow.Sequence,4_105,2023-05-02T14:49:13.869Z,,0,,,2321.5410000059637,completion,,,,,false,,,,419899.59999999404,419899.40000000596,417561.193,417564,417577.859,419911.099,8,400,,,
trial,html.Screen,4_106_0,2023-05-02T14:49:18.108Z,,0,3,,4226.801000005973,response,ISIC_4808298.JPG,,ISIC_0067840.JPG,ISIC_0067840.JPG,false,0,keypress(z),500,424138.2999999821,424137.90000000596,419894.433,419899.7999999821,419911.099,424144.263,8,400,7,,ISIC_4808298.JPG
break,html.Screen,4_106_1,2023-05-02T14:49:18.108Z,,0,,,NaN,,,,,,false,,,,424139,424138.7999999821,,424138.5,,424144.263,8,400,,,
break_continue,html.Screen,4_106_2,2023-05-02T14:49:18.109Z,,0,,,NaN,,,,,,false,,,,424139.40000000596,424139.2999999821,,424139.1999999881,,424144.263,8,400,,,
sequence,flow.Sequence,4_106,2023-05-02T14:49:18.109Z,,0,,,4228.200999982131,completion,,,,,false,,,,424139.59999999404,424139.2999999821,419894.433,419899.7999999821,419911.099,424144.263,8,400,,,
trial,html.Screen,4_107_0,2023-05-02T14:49:22.611Z,,0,3,,4497.336999994062,response,ISIC_0000469.JPG,,ISIC_9511832.JPG,ISIC_9511832.JPG,false,0,keypress(z),500,428641.7999999821,428641.59999999404,424127.597,424139.7999999821,424144.263,428644.807,8,400,8,,ISIC_0000469.JPG
break,html.Screen,4_107_1,2023-05-02T14:49:22.612Z,,0,,,NaN,,,,,,false,,,,428642.59999999404,428642.2999999821,,428642,,428644.807,8,400,,,
break_continue,html.Screen,4_107_2,2023-05-02T14:49:22.612Z,,0,,,NaN,,,,,,false,,,,428642.90000000596,428642.7999999821,,428642.6999999881,,428644.807,8,400,,,
sequence,flow.Sequence,4_107,2023-05-02T14:49:22.612Z,,0,,,4498.536999982141,completion,,,,,false,,,,428643.09999999404,428642.7999999821,424127.597,424139.6999999881,424144.263,428644.807,8,400,,,
trial,html.Screen,4_108_0,2023-05-02T14:49:25.315Z,,0,3,,2700.6930000000284,response,ISIC_0032510.JPG,,ISIC_0002811.JPG,ISIC_0002811.JPG,false,0,keypress(z),500,431345.7999999821,431345.5,428628.141,428643.2999999821,428644.807,431361.365,8,400,9,,ISIC_0032510.JPG
break,html.Screen,4_108_1,2023-05-02T14:49:25.316Z,,0,,,NaN,,,,,,false,,,,431346.5,431346.2999999821,,431346,,431361.365,8,400,,,
break_continue,html.Screen,4_108_2,2023-05-02T14:49:25.316Z,,0,,,NaN,,,,,,false,,,,431346.90000000596,431346.7999999821,,431346.6999999881,,431361.365,8,400,,,
sequence,flow.Sequence,4_108,2023-05-02T14:49:25.316Z,,0,,,2701.992999982147,completion,,,,,false,,,,431347.09999999404,431346.7999999821,428628.141,428643.2999999821,428644.807,431361.365,8,400,,,
trial,html.Screen,4_109_0,2023-05-02T14:49:30.211Z,,0,3,,4880.135000000009,response,ISIC_2276141.JPG,,ISIC_0063516.JPG,ISIC_0063516.JPG,false,0,keypress(z),500,436241.7999999821,436241.5,431344.699,431347.2999999821,431361.365,436261.169,8,400,10,,ISIC_2276141.JPG
break,html.Screen,4_109_1,2023-05-02T14:49:30.212Z,,0,,,NaN,,,,,,false,,,,436242.5,436242.1999999881,,436242,,436261.169,8,400,,,
break_continue,html.Screen,4_109_2,2023-05-02T14:49:30.212Z,,0,,,NaN,,,,,,false,,,,436242.7999999821,436242.6999999881,,436242.6999999881,,436261.169,8,400,,,
sequence,flow.Sequence,4_109,2023-05-02T14:49:30.212Z,,0,,,4881.334999988088,completion,,,,,false,,,,436243.09999999404,436242.6999999881,431344.699,431347.2999999821,431361.365,436261.169,8,400,,,
trial,html.Screen,4_110_0,2023-05-02T14:49:32.859Z,,0,3,,2628.231000005966,response,ISIC_0010916.JPG,,ISIC_3410193.JPG,ISIC_3410193.JPG,false,0,keypress(z),500,438889.6999999881,438889.40000000596,436244.503,436243.1999999881,436261.169,438904.57,8,400,11,,ISIC_0010916.JPG
break,html.Screen,4_110_1,2023-05-02T14:49:32.860Z,,0,,,NaN,,,,,,false,,,,438890.5,438890.1999999881,,438889.90000000596,,438904.57,8,400,,,
break_continue,html.Screen,4_110_2,2023-05-02T14:49:32.860Z,,0,,,NaN,,,,,,false,,,,438890.7999999821,438890.6999999881,,438890.59999999404,,438904.57,8,400,,,
sequence,flow.Sequence,4_110,2023-05-02T14:49:32.860Z,,0,,,2629.5309999880847,completion,,,,,false,,,,438891.09999999404,438890.6999999881,436244.503,436243.09999999404,436261.169,438904.57,8,400,,,
trial,html.Screen,4_111_0,2023-05-02T14:49:34.956Z,,0,3,,2081.7299999821116,response,ISIC_0533930.JPG,,ISIC_0029106.JPG,ISIC_0029106.JPG,false,0,keypress(z),500,440986.5,440986.2999999821,438887.904,438891.1999999881,438904.57,440987.82,8,400,12,,ISIC_0533930.JPG
break,html.Screen,4_111_1,2023-05-02T14:49:34.956Z,,0,,,NaN,,,,,,false,,,,440987.2999999821,440987.09999999404,,440986.6999999881,,440987.82,8,400,,,
break_continue,html.Screen,4_111_2,2023-05-02T14:49:34.957Z,,0,,,NaN,,,,,,false,,,,440987.6999999881,440987.59999999404,,440987.40000000596,,440987.82,8,400,,,
sequence,flow.Sequence,4_111,2023-05-02T14:49:34.957Z,,0,,,2083.0299999940326,completion,,,,,false,,,,440987.90000000596,440987.59999999404,438887.904,438891.1999999881,438904.57,440987.82,8,400,,,
trial,html.Screen,4_112_0,2023-05-02T14:49:40.363Z,,0,3,,5406.179999999993,response,ISIC_7966295.JPG,,ISIC_8699796.JPG,ISIC_8699796.JPG,false,0,keypress(z),500,446394.1999999881,446394,440971.154,440988,440987.82,446404.27,8,400,13,,ISIC_7966295.JPG
break,html.Screen,4_112_1,2023-05-02T14:49:40.364Z,,0,,,NaN,,,,,,false,,,,446395.09999999404,446394.7999999821,,446394.5,,446404.27,8,400,,,
break_continue,html.Screen,4_112_2,2023-05-02T14:49:40.365Z,,0,,,NaN,,,,,,false,,,,446395.59999999404,446395.40000000596,,446395.40000000596,,446404.27,8,400,,,
sequence,flow.Sequence,4_112,2023-05-02T14:49:40.365Z,,0,,,5407.5800000059535,completion,,,,,false,,,,446395.6999999881,446395.40000000596,440971.154,440988,440987.82,446404.27,8,400,,,
trial,html.Screen,4_113_0,2023-05-02T14:49:43.083Z,,0,3,,2709.7299999999814,response,ISIC_0004728.JPG,,ISIC_0538042.JPG,ISIC_0538042.JPG,false,0,keypress(z),500,449114.2999999821,449114,446387.604,446395.90000000596,446404.27,449115.322,8,400,14,,ISIC_0004728.JPG
break,html.Screen,4_113_1,2023-05-02T14:49:43.084Z,,0,,,NaN,,,,,,false,,,,449115.09999999404,449114.90000000596,,449114.5,,449115.322,8,400,,,
break_continue,html.Screen,4_113_2,2023-05-02T14:49:43.085Z,,0,,,NaN,,,,,,false,,,,449115.5,449115.40000000596,,449115.1999999881,,449115.322,8,400,,,
sequence,flow.Sequence,4_113,2023-05-02T14:49:43.085Z,,0,,,2711.130000005942,completion,,,,,false,,,,449115.6999999881,449115.40000000596,446387.604,446395.90000000596,446404.27,449115.322,8,400,,,
trial,html.Screen,4_114_0,2023-05-02T14:49:46.107Z,,0,3,,3022.6780000000144,response,ISIC_0030554.JPG,,ISIC_0059884.JPG,ISIC_0059884.JPG,false,0,keypress(z),500,452138.2999999821,452138,449098.656,449115.7999999821,449115.322,452148.534,8,400,15,,ISIC_0030554.JPG
break,html.Screen,4_114_1,2023-05-02T14:49:46.108Z,,0,,,NaN,,,,,,false,,,,452139,452138.7999999821,,452138.5,,452148.534,8,400,,,
break_continue,html.Screen,4_114_2,2023-05-02T14:49:46.108Z,,0,,,NaN,,,,,,false,,,,452139.5,452139.2999999821,,452139.1999999881,,452148.534,8,400,,,
sequence,flow.Sequence,4_114,2023-05-02T14:49:46.109Z,,0,,,3023.977999982133,completion,,,,,false,,,,452139.6999999881,452139.2999999821,449098.656,449115.6999999881,449115.322,452148.534,8,400,,,
trial,html.Screen,4_115_0,2023-05-02T14:49:49.651Z,,0,3,,3532.966000000015,response,ISIC_0000434.JPG,,ISIC_0067397.JPG,ISIC_0067397.JPG,false,0,keypress(z),500,455681.6999999881,455681.5,452131.868,452139.7999999821,452148.534,455698.392,8,400,16,,ISIC_0000434.JPG
break,html.Screen,4_115_1,2023-05-02T14:49:49.652Z,,0,,,NaN,,,,,,false,,,,455682.59999999404,455682.2999999821,,455682,,455698.392,8,400,,,
break_continue,html.Screen,4_115_2,2023-05-02T14:49:49.652Z,,0,,,NaN,,,,,,false,,,,455683,455682.90000000596,,455682.6999999881,,455698.392,8,400,,,
sequence,flow.Sequence,4_115,2023-05-02T14:49:49.652Z,,0,,,3534.3660000059754,completion,,,,,false,,,,455683.1999999881,455682.90000000596,452131.868,452139.7999999821,452148.534,455698.392,8,400,,,
trial,html.Screen,4_116_0,2023-05-02T14:49:52.763Z,,0,3,,3095.508000005968,response,ISIC_0694677.JPG,,ISIC_2844085.JPG,ISIC_2844085.JPG,false,0,keypress(z),500,458794.09999999404,458793.90000000596,455681.726,455683.2999999821,455698.392,458798.268,8,400,17,,ISIC_0694677.JPG
break,html.Screen,4_116_1,2023-05-02T14:49:52.764Z,,0,,,NaN,,,,,,false,,,,458794.6999999881,458794.5,,458794.2999999821,,458798.268,8,400,,,
break_continue,html.Screen,4_116_2,2023-05-02T14:49:52.764Z,,0,,,NaN,,,,,,false,,,,458795,458794.90000000596,,458794.7999999821,,458798.268,8,400,,,
sequence,flow.Sequence,4_116,2023-05-02T14:49:52.764Z,,0,,,3096.508000005968,completion,,,,,false,,,,458795.09999999404,458794.90000000596,455681.726,455683.2999999821,455698.392,458798.268,8,400,,,
trial,html.Screen,4_117_0,2023-05-02T14:49:56.515Z,,0,3,,3747.232000000018,response,ISIC_0011267.JPG,,ISIC_0026868.JPG,ISIC_0026868.JPG,false,0,keypress(z),500,462545.7999999821,462545.5,458781.602,458795.1999999881,458798.268,462560.469,8,400,18,,ISIC_0011267.JPG
break,html.Screen,4_117_1,2023-05-02T14:49:56.515Z,,0,,,NaN,,,,,,false,,,,462546.59999999404,462546.2999999821,,462546,,462560.469,8,400,,,
break_continue,html.Screen,4_117_2,2023-05-02T14:49:56.516Z,,0,,,NaN,,,,,,false,,,,462547,462546.7999999821,,462546.7999999821,,462560.469,8,400,,,
sequence,flow.Sequence,4_117,2023-05-02T14:49:56.516Z,,0,,,3748.5319999821368,completion,,,,,false,,,,462547.1999999881,462546.7999999821,458781.602,458795.1999999881,458798.268,462560.469,8,400,,,
trial,html.Screen,4_118_0,2023-05-02T14:49:59.131Z,,0,3,,2601.5310000000172,response,ISIC_0064478.JPG,,ISIC_9317483.JPG,ISIC_9317483.JPG,false,0,keypress(z),500,465162.2999999821,465162,462543.803,462547.2999999821,462560.469,465177.031,8,400,19,,ISIC_0064478.JPG
break,html.Screen,4_118_1,2023-05-02T14:49:59.132Z,,0,,,NaN,,,,,,false,,,,465163.09999999404,465162.7999999821,,465162.5,,465177.031,8,400,,,
break_continue,html.Screen,4_118_2,2023-05-02T14:49:59.132Z,,0,,,NaN,,,,,,false,,,,465163.5,465163.5,,465163.1999999881,,465177.031,8,400,,,
sequence,flow.Sequence,4_118,2023-05-02T14:49:59.133Z,,0,,,2603.0310000000172,completion,,,,,false,,,,465163.6999999881,465163.5,462543.803,462547.2999999821,462560.469,465177.031,8,400,,,
trial,html.Screen,4_119_0,2023-05-02T14:50:01.963Z,,0,3,,2816.9689999999828,response,ISIC_0013136.JPG,,ISIC_5913155.JPG,ISIC_5913155.JPG,false,0,keypress(z),500,467994.2999999821,467994,465160.365,465163.90000000596,465177.031,468010.251,8,400,20,,ISIC_0013136.JPG
break,html.Screen,4_119_1,2023-05-02T14:50:01.964Z,,0,,,NaN,,,,,,false,,,,467995,467994.90000000596,,467994.5,,468010.251,8,400,,,
break_continue,html.Screen,4_119_2,2023-05-02T14:50:01.964Z,,0,,,NaN,,,,,,false,,,,467995.5,467995.40000000596,,467995.1999999881,,468010.251,8,400,,,
sequence,flow.Sequence,4_119,2023-05-02T14:50:01.964Z,,0,,,2818.3690000059432,completion,,,,,false,,,,467995.6999999881,467995.40000000596,465160.365,465163.7999999821,465177.031,468010.251,8,400,,,
trial,html.Screen,4_120_0,2023-05-02T14:50:04.194Z,,0,3,,2214.8489999940502,response,ISIC_1118894.JPG,,ISIC_0013427.JPG,ISIC_0013427.JPG,false,0,keypress(z),500,470225.5,470225.09999999404,467993.585,467995.7999999821,468010.251,470242.29,8,400,21,,ISIC_1118894.JPG
break,html.Screen,4_120_1,2023-05-02T14:50:04.195Z,,0,,,NaN,,,,,,false,,,,470226.5,470226.1999999881,,470225.6999999881,,470242.29,8,400,,,
break_continue,html.Screen,4_120_2,2023-05-02T14:50:04.196Z,,0,,,NaN,,,,,,false,,,,470227,470226.90000000596,,470226.6999999881,,470242.29,8,400,,,
sequence,flow.Sequence,4_120,2023-05-02T14:50:04.196Z,,0,,,2216.649000005971,completion,,,,,false,,,,470227.1999999881,470226.90000000596,467993.585,467995.7999999821,468010.251,470242.29,8,400,,,
trial,html.Screen,4_121_0,2023-05-02T14:50:07.997Z,,0,3,,3785.3099999940605,response,ISIC_0031028.JPG,,ISIC_1426331.JPG,ISIC_1426331.JPG,false,0,keypress(z),500,474027.90000000596,474027.59999999404,470225.624,470227.2999999821,470242.29,474042.138,8,400,22,,ISIC_0031028.JPG
break,html.Screen,4_121_1,2023-05-02T14:50:07.997Z,,0,,,NaN,,,,,,false,,,,474028.6999999881,474028.40000000596,,474028,,474042.138,8,400,,,
break_continue,html.Screen,4_121_2,2023-05-02T14:50:07.998Z,,0,,,NaN,,,,,,false,,,,474029.09999999404,474028.90000000596,,474028.7999999821,,474042.138,8,400,,,
sequence,flow.Sequence,4_121,2023-05-02T14:50:07.998Z,,0,,,3786.6100000059814,completion,,,,,false,,,,474029.1999999881,474028.90000000596,470225.624,470227.2999999821,470242.29,474042.138,8,400,,,
trial,html.Screen,4_122_0,2023-05-02T14:50:10.322Z,,0,3,,2311.4619999940624,response,ISIC_9028726.JPG,,ISIC_8719134.JPG,ISIC_8719134.JPG,false,0,keypress(z),500,476353.90000000596,476353.59999999404,474025.472,474029.40000000596,474042.138,476358.712,8,400,23,,ISIC_9028726.JPG
break,html.Screen,4_122_1,2023-05-02T14:50:10.323Z,,0,,,NaN,,,,,,false,,,,476354.59999999404,476354.40000000596,,476354,,476358.712,8,400,,,
break_continue,html.Screen,4_122_2,2023-05-02T14:50:10.324Z,,0,,,NaN,,,,,,false,,,,476355,476354.90000000596,,476354.6999999881,,476358.712,8,400,,,
sequence,flow.Sequence,4_122,2023-05-02T14:50:10.324Z,,0,,,2312.7620000059833,completion,,,,,false,,,,476355.09999999404,476354.90000000596,474025.472,474029.40000000596,474042.138,476358.712,8,400,,,
trial,html.Screen,4_123_0,2023-05-02T14:50:12.509Z,,0,3,,2181.2880000000005,response,ISIC_0897526.JPG,,ISIC_0058580.JPG,ISIC_0058580.JPG,false,0,keypress(z),500,478540.2999999821,478540,476342.046,476355.2999999821,476358.712,478541.958,8,400,24,,ISIC_0897526.JPG
break,html.Screen,4_123_1,2023-05-02T14:50:12.509Z,,0,,,NaN,,,,,,false,,,,478540.90000000596,478540.6999999881,,478540.40000000596,,478541.958,8,400,,,
break_continue,html.Screen,4_123_2,2023-05-02T14:50:12.510Z,,0,,,NaN,,,,,,false,,,,478541.1999999881,478541.09999999404,,478541,,478541.958,8,400,,,
sequence,flow.Sequence,4_123,2023-05-02T14:50:12.510Z,,0,,,2182.38799999404,completion,,,,,false,,,,478541.40000000596,478541.09999999404,476342.046,476355.1999999881,476358.712,478541.958,8,400,,,
trial,html.Screen,4_124_0,2023-05-02T14:50:15.106Z,,0,3,,2595.6419999940554,response,ISIC_4223734.JPG,,ISIC_6913272.JPG,ISIC_6913272.JPG,false,0,keypress(z),500,481137.90000000596,481137.59999999404,478525.292,478541.5,478541.958,481151.816,8,400,25,,ISIC_4223734.JPG
break,html.Screen,4_124_1,2023-05-02T14:50:15.107Z,,0,,,NaN,,,,,,false,,,,481138.7999999821,481138.5,,481138.1999999881,,481151.816,8,400,,,
break_continue,html.Screen,4_124_2,2023-05-02T14:50:15.108Z,,0,,,NaN,,,,,,false,,,,481139.1999999881,481139,,481138.90000000596,,481151.816,8,400,,,
sequence,flow.Sequence,4_124,2023-05-02T14:50:15.108Z,,0,,,2597.042000000016,completion,,,,,false,,,,481139.40000000596,481139,478525.292,478541.5,478541.958,481151.816,8,400,,,
trial,html.Screen,4_125_0,2023-05-02T14:50:21.661Z,,0,3,,6540.283999994048,response,ISIC_0027590.JPG,,ISIC_0533122.JPG,ISIC_0533122.JPG,false,0,keypress(z),500,487692.2999999821,487692.09999999404,481135.15,481139.5,481151.816,487701.554,8,400,26,,ISIC_0027590.JPG
break,html.Screen,4_125_1,2023-05-02T14:50:21.662Z,,0,,,NaN,,,,,,false,,,,487693.09999999404,487692.7999999821,,487692.59999999404,,487701.554,8,400,,,
break_continue,html.Screen,4_125_2,2023-05-02T14:50:21.662Z,,0,,,NaN,,,,,,false,,,,487693.5,487693.40000000596,,487693.2999999821,,487701.554,8,400,,,
sequence,flow.Sequence,4_125,2023-05-02T14:50:21.662Z,,0,,,6541.584000005969,completion,,,,,false,,,,487693.6999999881,487693.40000000596,481135.15,481139.5,481151.816,487701.554,8,400,,,
trial,html.Screen,4_126_0,2023-05-02T14:50:24.491Z,,0,3,,2820.545999994036,response,ISIC_3637551.JPG,,ISIC_0025931.JPG,ISIC_0025931.JPG,false,0,keypress(z),500,490522.2999999821,490522.09999999404,487684.888,487693.90000000596,487701.554,490534.646,8,400,27,,ISIC_3637551.JPG
