sender,sender_type,sender_id,timestamp,meta,,blockNo,condition,duration,ended_on,img_left,img_reveal,img_right,loser,practice,response,response_action,selection_duration,time_commit,time_end,time_render,time_run,time_show,time_switch,total_blocks,total_trials,trialNo,url,winner
informed_consent,html.Screen,0,2023-10-31T23:48:05.984Z,"{""labjs_version"":""20.2.4"",""labjs_build"":{""flavor"":""production"",""commit"":""f5b4a49f956347addd546a832a3327688c2c0fef""},""location"":""https://run.pavlovia.org/MurrayBennett/melanoma-2afc/?participant=65904&platform=sona"",""userAgent"":""Mozilla/5.0 (Macintosh; Intel Mac OS X 10_15_7) AppleWebKit/605.1.15 (KHTML, like Gecko) Version/16.6 Safari/605.1.15"",""platform"":""MacIntel"",""language"":""en-US"",""locale"":""en-US"",""timeZone"":""America/Chicago"",""timezoneOffset"":300,""screen_width"":1440,""screen_height"":900,""scroll_width"":1439,""scroll_height"":679,""window_innerWidth"":1439,""window_innerHeight"":727,""devicePixelRatio"":2}",,,,6264,response,,,,,,consent,click button,,8011.000000000001,8048,1784,1781.0000000000002,1797,8047,,,,"{""participant"":""65904"",""platform"":""sona""}",
Welcome,html.Screen,1,2023-10-31T23:49:40.460Z,,,,symmetry,94496,response,,,,,,continue,click button,,102488,102527,8031,8012,8047,102515,,,,,
trial,html.Screen,2_0_0,2023-10-31T23:49:48.739Z,,0,0,,8269,response,ISIC_0069348.JPG,,ISIC_6997061.JPG,ISIC_0069348.JPG,true,1,keypress(m),500,110768,110767,102498,102489,102515,110798,1,6,1,,ISIC_6997061.JPG
sequence,flow.Sequence,2_0,2023-10-31T23:49:48.739Z,,0,,,8252,completion,,,,,true,,,,110768,110767,102498,102489,102515,110798,1,6,,,
trial,html.Screen,2_1_0,2023-10-31T23:49:52.639Z,,0,0,,3887,response,ISIC_0009529.JPG,,ISIC_0057368.JPG,ISIC_0057368.JPG,true,0,keypress(z),500,114668,114668,110781,110769,110798,114698,1,6,2,,ISIC_0009529.JPG
sequence,flow.Sequence,2_1,2023-10-31T23:49:52.640Z,,0,,,3870,completion,,,,,true,,,,114669,114668,110781,110769,110798,114698,1,6,,,
trial,html.Screen,2_2_0,2023-10-31T23:49:56.936Z,,0,0,,4284,response,ISIC_0064954.JPG,,ISIC_9758671.JPG,ISIC_9758671.JPG,true,0,keypress(z),500,118965,118965,114681,114669,114698,118998,1,6,3,,ISIC_0064954.JPG
sequence,flow.Sequence,2_2,2023-10-31T23:49:56.937Z,,0,,,4267,completion,,,,,true,,,,118966.00000000001,118965,114681,114669,114698,118998,1,6,,,
trial,html.Screen,2_3_0,2023-10-31T23:50:00.476Z,,0,0,,3523,response,ISIC_0000080.JPG,,ISIC_0005785.JPG,ISIC_0005785.JPG,true,0,keypress(z),500,122505,122505,118982,118967,118998,122531,1,6,4,,ISIC_0000080.JPG
sequence,flow.Sequence,2_3,2023-10-31T23:50:00.477Z,,0,,,3507,completion,,,,,true,,,,122506,122505,118982,118966.00000000001,118998,122531,1,6,,,
trial,html.Screen,2_4_0,2023-10-31T23:50:03.934Z,,0,0,,3447,response,ISIC_5390060.JPG,,ISIC_7944028.JPG,ISIC_5390060.JPG,true,1,keypress(m),500,125963.00000000001,125962,122515,122506,122531,125998,1,6,5,,ISIC_7944028.JPG
sequence,flow.Sequence,2_4,2023-10-31T23:50:03.934Z,,0,,,3431,completion,,,,,true,,,,125963.00000000001,125962,122515,122506,122531,125998,1,6,,,
trial,html.Screen,2_5_0,2023-10-31T23:50:07.552Z,,0,0,,3599.0000000000146,response,ISIC_0794216.JPG,,ISIC_0010188.JPG,ISIC_0010188.JPG,true,0,keypress(z),500,129580.99999999999,129580.00000000001,125981,125964,125998,129614,1,6,6,,ISIC_0794216.JPG
sequence,flow.Sequence,2_5,2023-10-31T23:50:07.552Z,,0,,,3582.0000000000146,completion,,,,,true,,,,129582,129580.00000000001,125981,125964,125998,129614,1,6,,,
loop,flow.Loop,2,2023-10-31T23:50:07.553Z,,,,,27065.000000000015,completion,,,,,true,,,,129582,129580.00000000001,102498,102489,102515,129614,1,6,,,
exp_instructions,html.Screen,3,2023-10-31T23:50:09.994Z,,,,,2463,response,,,,,,continue,keypress(Space),,132023,132061,129598,129582,129614,132048,,,,,
trial,html.Screen,4_0_0,2023-10-31T23:50:14.341Z,,0,1,,4338,response,ISIC_0024268.JPG,9,ISIC_0003111.JPG,ISIC_0003111.JPG,false,0,keypress(z),500,136370,136369,132031,132024,132048,136397,8,400,1,,ISIC_0024268.JPG
break,html.Screen,4_0_1,2023-10-31T23:50:14.342Z,,0,,,NaN,,,,,,false,,,,136372,136371,,136370,,136397,8,400,,,
break_continue,html.Screen,4_0_2,2023-10-31T23:50:14.343Z,,0,,,NaN,,,,,,false,,,,136372,136372,,136372,,136397,8,400,,,
sequence,flow.Sequence,4_0,2023-10-31T23:50:14.343Z,,0,,,4324,completion,,,,,false,,,,136373,136372,132031,132024,132048,136397,8,400,,,
trial,html.Screen,4_1_0,2023-10-31T23:50:19.493Z,,0,1,,5140,response,ISIC_0014061.JPG,17,ISIC_1372928.JPG,ISIC_0014061.JPG,false,1,keypress(m),500,141523,141522,136382,136373,136397,141548,8,400,2,,ISIC_1372928.JPG
break,html.Screen,4_1_1,2023-10-31T23:50:19.495Z,,0,,,NaN,,,,,,false,,,,141524,141524,,141523,,141548,8,400,,,
break_continue,html.Screen,4_1_2,2023-10-31T23:50:19.496Z,,0,,,NaN,,,,,,false,,,,141525,141525,,141525,,141548,8,400,,,
sequence,flow.Sequence,4_1,2023-10-31T23:50:19.496Z,,0,,,5128,completion,,,,,false,,,,141525,141525,136382,136373,136397,141548,8,400,,,
trial,html.Screen,4_2_0,2023-10-31T23:50:22.882Z,,0,1,,3379,response,ISIC_0031203.JPG,7,ISIC_0005261.JPG,ISIC_0031203.JPG,false,1,keypress(m),500,144911,144910,141531,141526,141548,144948,8,400,3,,ISIC_0005261.JPG
break,html.Screen,4_2_1,2023-10-31T23:50:22.883Z,,0,,,NaN,,,,,,false,,,,144912,144912,,144912,,144948,8,400,,,
break_continue,html.Screen,4_2_2,2023-10-31T23:50:22.883Z,,0,,,NaN,,,,,,false,,,,144913,144913,,144912,,144948,8,400,,,
sequence,flow.Sequence,4_2,2023-10-31T23:50:22.883Z,,0,,,3365,completion,,,,,false,,,,144913,144913,141531,141525,141548,144948,8,400,,,
trial,html.Screen,4_3_0,2023-10-31T23:50:26.130Z,,0,1,,3227,response,ISIC_6392089.JPG,2,ISIC_0033893.JPG,ISIC_0033893.JPG,false,0,keypress(z),500,148159,148159,144932,144913,144948,148181,8,400,4,,ISIC_6392089.JPG
break,html.Screen,4_3_1,2023-10-31T23:50:26.131Z,,0,,,NaN,,,,,,false,,,,148161,148160,,148160,,148181,8,400,,,
break_continue,html.Screen,4_3_2,2023-10-31T23:50:26.132Z,,0,,,NaN,,,,,,false,,,,148161,148161,,148161,,148181,8,400,,,
sequence,flow.Sequence,4_3,2023-10-31T23:50:26.132Z,,0,,,3213,completion,,,,,false,,,,148162,148161,144932,144913,144948,148181,8,400,,,
trial,html.Screen,4_4_0,2023-10-31T23:50:29.181Z,,0,1,,3046,response,ISIC_0296109.JPG,3,ISIC_0034120.JPG,ISIC_0296109.JPG,false,1,keypress(m),500,151210,151210,148164,148162,148181,151232,8,400,5,,ISIC_0034120.JPG
break,html.Screen,4_4_1,2023-10-31T23:50:29.182Z,,0,,,NaN,,,,,,false,,,,151212,151211,,151211,,151232,8,400,,,
break_continue,html.Screen,4_4_2,2023-10-31T23:50:29.183Z,,0,,,NaN,,,,,,false,,,,151213,151212,,151212,,151232,8,400,,,
sequence,flow.Sequence,4_4,2023-10-31T23:50:29.183Z,,0,,,3031,completion,,,,,false,,,,151213,151212,148164,148162,148181,151232,8,400,,,
trial,html.Screen,4_5_0,2023-10-31T23:50:32.765Z,,0,1,,3579,response,ISIC_0030732.JPG,6,ISIC_0013972.JPG,ISIC_0013972.JPG,false,0,keypress(z),500,154794,154794,151215,151213,151232,154815,8,400,6,,ISIC_0030732.JPG
break,html.Screen,4_5_1,2023-10-31T23:50:32.766Z,,0,,,NaN,,,,,,false,,,,154796,154796,,154795.00000000003,,154815,8,400,,,
break_continue,html.Screen,4_5_2,2023-10-31T23:50:32.767Z,,0,,,NaN,,,,,,false,,,,154796,154796,,154796,,154815,8,400,,,
sequence,flow.Sequence,4_5,2023-10-31T23:50:32.767Z,,0,,,3564,completion,,,,,false,,,,154797,154796,151215,151213,151232,154815,8,400,,,
trial,html.Screen,4_6_0,2023-10-31T23:50:36.820Z,,0,1,,4050,response,ISIC_0011369.JPG,3,ISIC_0070351.JPG,ISIC_0070351.JPG,false,0,keypress(z),500,158849,158849,154799,154797,154815,158882,8,400,7,,ISIC_0011369.JPG
break,html.Screen,4_6_1,2023-10-31T23:50:36.821Z,,0,,,NaN,,,,,,false,,,,158851,158850,,158850,,158882,8,400,,,
break_continue,html.Screen,4_6_2,2023-10-31T23:50:36.821Z,,0,,,NaN,,,,,,false,,,,158851,158851,,158851,,158882,8,400,,,
sequence,flow.Sequence,4_6,2023-10-31T23:50:36.822Z,,0,,,4036,completion,,,,,false,,,,158851,158851,154799,154797,154815,158882,8,400,,,
trial,html.Screen,4_7_0,2023-10-31T23:50:40.735Z,,0,1,,3899,response,ISIC_4973549.JPG,2,ISIC_0663941.JPG,ISIC_4973549.JPG,false,1,keypress(m),500,162764,162764,158865,158852,158882,162798,8,400,8,,ISIC_0663941.JPG
break,html.Screen,4_7_1,2023-10-31T23:50:40.736Z,,0,,,NaN,,,,,,false,,,,162766,162766,,162765.00000000003,,162798,8,400,,,
break_continue,html.Screen,4_7_2,2023-10-31T23:50:40.737Z,,0,,,NaN,,,,,,false,,,,162767,162767,,162766,,162798,8,400,,,
sequence,flow.Sequence,4_7,2023-10-31T23:50:40.737Z,,0,,,3885,completion,,,,,false,,,,162767,162767,158865,158852,158882,162798,8,400,,,
trial,html.Screen,4_8_0,2023-10-31T23:50:44.139Z,,0,1,,3386,response,ISIC_0070432.JPG,7,ISIC_7626256.JPG,ISIC_0070432.JPG,false,1,keypress(m),500,166169,166168,162782,162767,162798,166198,8,400,9,,ISIC_7626256.JPG
break,html.Screen,4_8_1,2023-10-31T23:50:44.141Z,,0,,,NaN,,,,,,false,,,,166170.00000000003,166170.00000000003,,166169,,166198,8,400,,,
break_continue,html.Screen,4_8_2,2023-10-31T23:50:44.141Z,,0,,,NaN,,,,,,false,,,,166171,166171,,166170.00000000003,,166198,8,400,,,
sequence,flow.Sequence,4_8,2023-10-31T23:50:44.141Z,,0,,,3373,completion,,,,,false,,,,166171,166171,162782,162767,162798,166198,8,400,,,
trial,html.Screen,4_9_0,2023-10-31T23:50:48.229Z,,0,1,,4076,response,ISIC_1200689.JPG,4,ISIC_0028565.JPG,ISIC_1200689.JPG,false,1,keypress(m),500,170259,170258,166182,166171,166198,170282,8,400,10,,ISIC_0028565.JPG
break,html.Screen,4_9_1,2023-10-31T23:50:48.230Z,,0,,,NaN,,,,,,false,,,,170260,170260,,170259,,170282,8,400,,,
break_continue,html.Screen,4_9_2,2023-10-31T23:50:48.231Z,,0,,,NaN,,,,,,false,,,,170260,170260,,170260,,170282,8,400,,,
sequence,flow.Sequence,4_9,2023-10-31T23:50:48.231Z,,0,,,4062,completion,,,,,false,,,,170261,170260,166182,166171,166198,170282,8,400,,,
trial,html.Screen,4_10_0,2023-10-31T23:50:52.317Z,,0,1,,4081,response,ISIC_0033211.JPG,3,ISIC_0029296.JPG,ISIC_0033211.JPG,false,1,keypress(m),500,174347,174346,170265,170261,170282,174382,8,400,11,,ISIC_0029296.JPG
break,html.Screen,4_10_1,2023-10-31T23:50:52.318Z,,0,,,NaN,,,,,,false,,,,174348,174348,,174347,,174382,8,400,,,
break_continue,html.Screen,4_10_2,2023-10-31T23:50:52.319Z,,0,,,NaN,,,,,,false,,,,174349,174348,,174348,,174382,8,400,,,
sequence,flow.Sequence,4_10,2023-10-31T23:50:52.319Z,,0,,,4066,completion,,,,,false,,,,174349,174348,170265,170261,170282,174382,8,400,,,
trial,html.Screen,4_11_0,2023-10-31T23:50:55.735Z,,0,1,,3400.000000000029,response,ISIC_0014219.JPG,10,ISIC_4474170.JPG,ISIC_0014219.JPG,false,1,keypress(m),500,177765.00000000003,177765.00000000003,174365,174349,174382,177799,8,400,12,,ISIC_4474170.JPG
break,html.Screen,4_11_1,2023-10-31T23:50:55.737Z,,0,,,NaN,,,,,,false,,,,177767,177767,,177766,,177799,8,400,,,
break_continue,html.Screen,4_11_2,2023-10-31T23:50:55.738Z,,0,,,NaN,,,,,,false,,,,177767,177767,,177767,,177799,8,400,,,
sequence,flow.Sequence,4_11,2023-10-31T23:50:55.738Z,,0,,,3385,completion,,,,,false,,,,177768,177767,174365,174349,174382,177799,8,400,,,
trial,html.Screen,4_12_0,2023-10-31T23:50:59.175Z,,0,1,,3424,response,ISIC_0001602.JPG,2,ISIC_2266715.JPG,ISIC_2266715.JPG,false,0,keypress(z),500,181205,181205,177781,177768,177799,181232,8,400,13,,ISIC_0001602.JPG
break,html.Screen,4_12_1,2023-10-31T23:50:59.176Z,,0,,,NaN,,,,,,false,,,,181206.00000000003,181206.00000000003,,181205,,181232,8,400,,,
break_continue,html.Screen,4_12_2,2023-10-31T23:50:59.177Z,,0,,,NaN,,,,,,false,,,,181207,181207,,181206.00000000003,,181232,8,400,,,
sequence,flow.Sequence,4_12,2023-10-31T23:50:59.177Z,,0,,,3408,completion,,,,,false,,,,181207,181207,177781,177768,177799,181232,8,400,,,
trial,html.Screen,4_13_0,2023-10-31T23:51:02.954Z,,0,1,,3768,response,ISIC_0702876.JPG,0,ISIC_0610849.JPG,ISIC_0610849.JPG,false,0,keypress(z),500,184984,184983,181215,181207,181232,185015,8,400,14,,ISIC_0702876.JPG
break,html.Screen,4_13_1,2023-10-31T23:51:02.955Z,,0,,,NaN,,,,,,false,,,,184985,184985,,184984,,185015,8,400,,,
break_continue,html.Screen,4_13_2,2023-10-31T23:51:02.955Z,,0,,,NaN,,,,,,false,,,,184985,184985,,184985,,185015,8,400,,,
sequence,flow.Sequence,4_13,2023-10-31T23:51:02.956Z,,0,,,3753,completion,,,,,false,,,,184986,184985,181215,181207,181232,185015,8,400,,,
trial,html.Screen,4_14_0,2023-10-31T23:51:06.384Z,,0,1,,3416.000000000029,response,ISIC_0014629.JPG,10,ISIC_2807121.JPG,ISIC_0014629.JPG,false,1,keypress(m),500,188415,188414.00000000003,184998,184986,185015,188449,8,400,15,,ISIC_2807121.JPG
break,html.Screen,4_14_1,2023-10-31T23:51:06.386Z,,0,,,NaN,,,,,,false,,,,188416,188415,,188415,,188449,8,400,,,
break_continue,html.Screen,4_14_2,2023-10-31T23:51:06.386Z,,0,,,NaN,,,,,,false,,,,188417,188416,,188416,,188449,8,400,,,
sequence,flow.Sequence,4_14,2023-10-31T23:51:06.387Z,,0,,,3401,completion,,,,,false,,,,188417,188416,184998,184986,185015,188449,8,400,,,
trial,html.Screen,4_15_0,2023-10-31T23:51:09.975Z,,0,1,,3573,response,ISIC_7798358.JPG,4,ISIC_0711360.JPG,ISIC_7798358.JPG,false,1,keypress(m),500,192005,192005,188432,188417,188449,192032,8,400,16,,ISIC_0711360.JPG
break,html.Screen,4_15_1,2023-10-31T23:51:09.977Z,,0,,,NaN,,,,,,false,,,,192007,192006,,192006,,192032,8,400,,,
break_continue,html.Screen,4_15_2,2023-10-31T23:51:09.977Z,,0,,,NaN,,,,,,false,,,,192007,192007,,192007,,192032,8,400,,,
sequence,flow.Sequence,4_15,2023-10-31T23:51:09.977Z,,0,,,3558,completion,,,,,false,,,,192007,192007,188432,188417,188449,192032,8,400,,,
trial,html.Screen,4_16_0,2023-10-31T23:51:13.418Z,,0,1,,3433,response,ISIC_0055378.JPG,5,ISIC_3064807.JPG,ISIC_0055378.JPG,false,1,keypress(m),500,195449,195448,192015,192008,192032,195482,8,400,17,,ISIC_3064807.JPG
break,html.Screen,4_16_1,2023-10-31T23:51:13.420Z,,0,,,NaN,,,,,,false,,,,195450.00000000003,195450.00000000003,,195449,,195482,8,400,,,
break_continue,html.Screen,4_16_2,2023-10-31T23:51:13.420Z,,0,,,NaN,,,,,,false,,,,195451,195451,,195451,,195482,8,400,,,
sequence,flow.Sequence,4_16,2023-10-31T23:51:13.421Z,,0,,,3419,completion,,,,,false,,,,195451,195451,192015,192008,192032,195482,8,400,,,
trial,html.Screen,4_17_0,2023-10-31T23:51:17.550Z,,0,1,,4114,response,ISIC_5823292.JPG,4,ISIC_0033302.JPG,ISIC_5823292.JPG,false,1,keypress(m),500,199580,199579,195465,195451,195482,199615,8,400,18,,ISIC_0033302.JPG
break,html.Screen,4_17_1,2023-10-31T23:51:17.551Z,,0,,,NaN,,,,,,false,,,,199581.00000000003,199581.00000000003,,199580,,199615,8,400,,,
break_continue,html.Screen,4_17_2,2023-10-31T23:51:17.551Z,,0,,,NaN,,,,,,false,,,,199582,199581.00000000003,,199581.00000000003,,199615,8,400,,,
sequence,flow.Sequence,4_17,2023-10-31T23:51:17.551Z,,0,,,4099.000000000029,completion,,,,,false,,,,199582,199581.00000000003,195465,195451,195482,199615,8,400,,,
trial,html.Screen,4_18_0,2023-10-31T23:51:22.287Z,,0,1,,4718,response,ISIC_6821316.JPG,11,ISIC_0032726.JPG,ISIC_0032726.JPG,false,0,keypress(z),500,204318,204317,199599,199582,199615,204349,8,400,19,,ISIC_6821316.JPG
break,html.Screen,4_18_1,2023-10-31T23:51:22.288Z,,0,,,NaN,,,,,,false,,,,204319.00000000003,204318,,204318,,204349,8,400,,,
break_continue,html.Screen,4_18_2,2023-10-31T23:51:22.289Z,,0,,,NaN,,,,,,false,,,,204319.00000000003,204319.00000000003,,204319.00000000003,,204349,8,400,,,
sequence,flow.Sequence,4_18,2023-10-31T23:51:22.289Z,,0,,,4704.000000000029,completion,,,,,false,,,,204319.00000000003,204319.00000000003,199599,199582,199615,204349,8,400,,,
trial,html.Screen,4_19_0,2023-10-31T23:51:25.447Z,,0,1,,3145,response,ISIC_5490257.JPG,2,ISIC_0058768.JPG,ISIC_0058768.JPG,false,0,keypress(z),500,207478,207477,204332,204319.00000000003,204349,207515,8,400,20,,ISIC_5490257.JPG
break,html.Screen,4_19_1,2023-10-31T23:51:25.449Z,,0,,,NaN,,,,,,false,,,,207479,207479,,207478,,207515,8,400,,,
break_continue,html.Screen,4_19_2,2023-10-31T23:51:25.449Z,,0,,,NaN,,,,,,false,,,,207479,207479,,207479,,207515,8,400,,,
sequence,flow.Sequence,4_19,2023-10-31T23:51:25.449Z,,0,,,3130,completion,,,,,false,,,,207479,207479,204332,204319.00000000003,204349,207515,8,400,,,
trial,html.Screen,4_20_0,2023-10-31T23:51:29.228Z,,0,1,,3759,response,ISIC_2829088.JPG,15,ISIC_3786438.JPG,ISIC_2829088.JPG,false,1,keypress(m),500,211258,211258,207499,207480.00000000003,207515,211282,8,400,21,,ISIC_3786438.JPG
break,html.Screen,4_20_1,2023-10-31T23:51:29.229Z,,0,,,NaN,,,,,,false,,,,211260,211260,,211259,,211282,8,400,,,
break_continue,html.Screen,4_20_2,2023-10-31T23:51:29.230Z,,0,,,NaN,,,,,,false,,,,211261,211260,,211260,,211282,8,400,,,
sequence,flow.Sequence,4_20,2023-10-31T23:51:29.230Z,,0,,,3745,completion,,,,,false,,,,211261,211260,207499,207480.00000000003,207515,211282,8,400,,,
trial,html.Screen,4_21_0,2023-10-31T23:51:32.350Z,,0,1,,3115,response,ISIC_0010860.JPG,2,ISIC_0011337.JPG,ISIC_0011337.JPG,false,0,keypress(z),500,214380,214380,211265,211261,211282,214399,8,400,22,,ISIC_0010860.JPG
break,html.Screen,4_21_1,2023-10-31T23:51:32.351Z,,0,,,NaN,,,,,,false,,,,214381,214381,,214381,,214399,8,400,,,
break_continue,html.Screen,4_21_2,2023-10-31T23:51:32.351Z,,0,,,NaN,,,,,,false,,,,214382,214381,,214381,,214399,8,400,,,
sequence,flow.Sequence,4_21,2023-10-31T23:51:32.351Z,,0,,,3099,completion,,,,,false,,,,214382,214381,211265,211261,211282,214399,8,400,,,
trial,html.Screen,4_22_0,2023-10-31T23:51:35.453Z,,0,1,,3099,response,ISIC_0004679.JPG,6,ISIC_0057594.JPG,ISIC_0004679.JPG,false,1,keypress(m),500,217484,217483,214384,214382,214399,217515,8,400,23,,ISIC_0057594.JPG
break,html.Screen,4_22_1,2023-10-31T23:51:35.455Z,,0,,,NaN,,,,,,false,,,,217485,217485,,217484,,217515,8,400,,,
break_continue,html.Screen,4_22_2,2023-10-31T23:51:35.455Z,,0,,,NaN,,,,,,false,,,,217485,217485,,217485,,217515,8,400,,,
sequence,flow.Sequence,4_22,2023-10-31T23:51:35.455Z,,0,,,3086,completion,,,,,false,,,,217485,217485,214384,214382,214399,217515,8,400,,,
trial,html.Screen,4_23_0,2023-10-31T23:51:38.667Z,,0,1,,3198,response,ISIC_0026613.JPG,7,ISIC_7545432.JPG,ISIC_7545432.JPG,false,0,keypress(z),500,220698,220697,217499,217486.00000000003,217515,220732,8,400,24,,ISIC_0026613.JPG
break,html.Screen,4_23_1,2023-10-31T23:51:38.668Z,,0,,,NaN,,,,,,false,,,,220699,220698,,220698,,220732,8,400,,,
break_continue,html.Screen,4_23_2,2023-10-31T23:51:38.668Z,,0,,,NaN,,,,,,false,,,,220699,220699,,220699,,220732,8,400,,,
sequence,flow.Sequence,4_23,2023-10-31T23:51:38.668Z,,0,,,3184,completion,,,,,false,,,,220699,220699,217499,217485,217515,220732,8,400,,,
trial,html.Screen,4_24_0,2023-10-31T23:51:41.513Z,,0,1,,2825,response,ISIC_4088647.JPG,8,ISIC_4018813.JPG,ISIC_4018813.JPG,false,0,keypress(z),500,223544,223541,220716,220699,220732,223582,8,400,25,,ISIC_4088647.JPG
break,html.Screen,4_24_1,2023-10-31T23:51:41.517Z,,0,,,NaN,,,,,,false,,,,223548,223547,,223546,,223582,8,400,,,
break_continue,html.Screen,4_24_2,2023-10-31T23:51:41.517Z,,0,,,NaN,,,,,,false,,,,223548,223548,,223548,,223582,8,400,,,
sequence,flow.Sequence,4_24,2023-10-31T23:51:41.517Z,,0,,,2816,completion,,,,,false,,,,223548,223548,220716,220699,220732,223582,8,400,,,
trial,html.Screen,4_25_0,2023-10-31T23:51:44.429Z,,0,1,,2894,response,ISIC_0029729.JPG,11,ISIC_0033300.JPG,ISIC_0029729.JPG,false,1,keypress(m),500,226460,226459,223565,223548,223582,226482,8,400,26,,ISIC_0033300.JPG
break,html.Screen,4_25_1,2023-10-31T23:51:44.430Z,,0,,,NaN,,,,,,false,,,,226461,226461,,226460,,226482,8,400,,,
break_continue,html.Screen,4_25_2,2023-10-31T23:51:44.431Z,,0,,,NaN,,,,,,false,,,,226461,226461,,226461,,226482,8,400,,,
sequence,flow.Sequence,4_25,2023-10-31T23:51:44.431Z,,0,,,2879,completion,,,,,false,,,,226461,226461,223565,223548,223582,226482,8,400,,,
trial,html.Screen,4_26_0,2023-10-31T23:51:47.348Z,,0,1,,2913,response,ISIC_5100319.JPG,2,ISIC_0024310.JPG,ISIC_5100319.JPG,false,1,keypress(m),500,229379,229378,226465,226462.00000000003,226482,229416,8,400,27,,ISIC_0024310.JPG
break,html.Screen,4_26_1,2023-10-31T23:51:47.349Z,,0,,,NaN,,,,,,false,,,,229380,229379,,229379,,229416,8,400,,,
break_continue,html.Screen,4_26_2,2023-10-31T23:51:47.349Z,,0,,,NaN,,,,,,false,,,,229380,229380,,229380,,229416,8,400,,,
sequence,flow.Sequence,4_26,2023-10-31T23:51:47.349Z,,0,,,2898,completion,,,,,false,,,,229380,229380,226465,226461,226482,229416,8,400,,,
trial,html.Screen,4_27_0,2023-10-31T23:51:50.457Z,,0,1,,3088,response,ISIC_0026167.JPG,6,ISIC_9562442.JPG,ISIC_0026167.JPG,false,1,keypress(m),500,232488,232487,229399,229380,229416,232516,8,400,28,,ISIC_9562442.JPG
break,html.Screen,4_27_1,2023-10-31T23:51:50.458Z,,0,,,NaN,,,,,,false,,,,232489,232489,,232488,,232516,8,400,,,
break_continue,html.Screen,4_27_2,2023-10-31T23:51:50.458Z,,0,,,NaN,,,,,,false,,,,232489,232489,,232489,,232516,8,400,,,
sequence,flow.Sequence,4_27,2023-10-31T23:51:50.459Z,,0,,,3073,completion,,,,,false,,,,232489,232489,229399,229380,229416,232516,8,400,,,
trial,html.Screen,4_28_0,2023-10-31T23:51:54.133Z,,0,1,,3664,response,ISIC_2482061.JPG,3,ISIC_6590303.JPG,ISIC_6590303.JPG,false,0,keypress(z),500,236164.00000000003,236163,232499,232489,232516,236199,8,400,29,,ISIC_2482061.JPG
break,html.Screen,4_28_1,2023-10-31T23:51:54.134Z,,0,,,NaN,,,,,,false,,,,236165,236165,,236164.00000000003,,236199,8,400,,,
break_continue,html.Screen,4_28_2,2023-10-31T23:51:54.134Z,,0,,,NaN,,,,,,false,,,,236165,236165,,236165,,236199,8,400,,,
sequence,flow.Sequence,4_28,2023-10-31T23:51:54.134Z,,0,,,3649,completion,,,,,false,,,,236165,236165,232499,232489,232516,236199,8,400,,,
trial,html.Screen,4_29_0,2023-10-31T23:51:57.439Z,,0,1,,3288,response,ISIC_9059311.JPG,6,ISIC_0010837.JPG,ISIC_9059311.JPG,false,1,keypress(m),500,239470,239470,236182,236165,236199,239499,8,400,30,,ISIC_0010837.JPG
break,html.Screen,4_29_1,2023-10-31T23:51:57.441Z,,0,,,NaN,,,,,,false,,,,239471,239471,,239471,,239499,8,400,,,
break_continue,html.Screen,4_29_2,2023-10-31T23:51:57.441Z,,0,,,NaN,,,,,,false,,,,239472,239472,,239472,,239499,8,400,,,
sequence,flow.Sequence,4_29,2023-10-31T23:51:57.441Z,,0,,,3273,completion,,,,,false,,,,239472,239472,236182,236165,236199,239499,8,400,,,
trial,html.Screen,4_30_0,2023-10-31T23:52:00.873Z,,0,1,,3421,response,ISIC_0765584.JPG,5,ISIC_2660216.JPG,ISIC_2660216.JPG,false,0,keypress(z),500,242904,242903,239482,239472,239499,242932,8,400,31,,ISIC_0765584.JPG
break,html.Screen,4_30_1,2023-10-31T23:52:00.874Z,,0,,,NaN,,,,,,false,,,,242905,242905,,242904,,242932,8,400,,,
break_continue,html.Screen,4_30_2,2023-10-31T23:52:00.874Z,,0,,,NaN,,,,,,false,,,,242905,242905,,242905,,242932,8,400,,,
sequence,flow.Sequence,4_30,2023-10-31T23:52:00.875Z,,0,,,3406,completion,,,,,false,,,,242906,242905,239482,239472,239499,242932,8,400,,,
trial,html.Screen,4_31_0,2023-10-31T23:52:04.227Z,,0,1,,3341,response,ISIC_1597566.JPG,5,ISIC_5005869.JPG,ISIC_5005869.JPG,false,0,keypress(z),500,246258,246257,242916,242906,242932,246282,8,400,32,,ISIC_1597566.JPG
break,html.Screen,4_31_1,2023-10-31T23:52:04.228Z,,0,,,NaN,,,,,,false,,,,246259,246259,,246258,,246282,8,400,,,
break_continue,html.Screen,4_31_2,2023-10-31T23:52:04.228Z,,0,,,NaN,,,,,,false,,,,246259,246259,,246259,,246282,8,400,,,
sequence,flow.Sequence,4_31,2023-10-31T23:52:04.228Z,,0,,,3327,completion,,,,,false,,,,246259,246259,242916,242906,242932,246282,8,400,,,
trial,html.Screen,4_32_0,2023-10-31T23:52:07.866Z,,0,1,,3631,response,ISIC_1978947.JPG,7,ISIC_9974613.JPG,ISIC_9974613.JPG,false,0,keypress(z),500,249897,249897,246266,246260.00000000003,246282,249932,8,400,33,,ISIC_1978947.JPG
break,html.Screen,4_32_1,2023-10-31T23:52:07.867Z,,0,,,NaN,,,,,,false,,,,249898,249898,,249897,,249932,8,400,,,
break_continue,html.Screen,4_32_2,2023-10-31T23:52:07.868Z,,0,,,NaN,,,,,,false,,,,249899,249899,,249898,,249932,8,400,,,
sequence,flow.Sequence,4_32,2023-10-31T23:52:07.868Z,,0,,,3617,completion,,,,,false,,,,249899,249899,246266,246260.00000000003,246282,249932,8,400,,,
trial,html.Screen,4_33_0,2023-10-31T23:52:11.222Z,,0,1,,3336,response,ISIC_0013491.JPG,11,ISIC_6997433.JPG,ISIC_6997433.JPG,false,0,keypress(z),500,253253,253252,249916,249899,249932,253282,8,400,34,,ISIC_0013491.JPG
break,html.Screen,4_33_1,2023-10-31T23:52:11.224Z,,0,,,NaN,,,,,,false,,,,253255,253254.00000000003,,253253,,253282,8,400,,,
break_continue,html.Screen,4_33_2,2023-10-31T23:52:11.224Z,,0,,,NaN,,,,,,false,,,,253255,253255,,253255,,253282,8,400,,,
sequence,flow.Sequence,4_33,2023-10-31T23:52:11.224Z,,0,,,3323,completion,,,,,false,,,,253255,253255,249916,249899,249932,253282,8,400,,,
trial,html.Screen,4_34_0,2023-10-31T23:52:14.437Z,,0,1,,3202.000000000029,response,ISIC_7563744.JPG,3,ISIC_8727962.JPG,ISIC_7563744.JPG,false,1,keypress(m),500,256468.00000000003,256468.00000000003,253266,253256,253282,256499,8,400,35,,ISIC_8727962.JPG
break,html.Screen,4_34_1,2023-10-31T23:52:14.438Z,,0,,,NaN,,,,,,false,,,,256469,256469,,256468.00000000003,,256499,8,400,,,
break_continue,html.Screen,4_34_2,2023-10-31T23:52:14.438Z,,0,,,NaN,,,,,,false,,,,256469,256469,,256469,,256499,8,400,,,
sequence,flow.Sequence,4_34,2023-10-31T23:52:14.438Z,,0,,,3187,completion,,,,,false,,,,256470.00000000003,256469,253266,253256,253282,256499,8,400,,,
trial,html.Screen,4_35_0,2023-10-31T23:52:17.345Z,,0,1,,2894.000000000029,response,ISIC_0012208.JPG,6,ISIC_7205745.JPG,ISIC_7205745.JPG,false,0,keypress(z),500,259376.00000000003,259376.00000000003,256482,256470.00000000003,256499,259399,8,400,36,,ISIC_0012208.JPG
break,html.Screen,4_35_1,2023-10-31T23:52:17.347Z,,0,,,NaN,,,,,,false,,,,259378,259377,,259377,,259399,8,400,,,
break_continue,html.Screen,4_35_2,2023-10-31T23:52:17.347Z,,0,,,NaN,,,,,,false,,,,259378,259378,,259378,,259399,8,400,,,
sequence,flow.Sequence,4_35,2023-10-31T23:52:17.347Z,,0,,,2879,completion,,,,,false,,,,259379.00000000003,259378,256482,256470.00000000003,256499,259399,8,400,,,
trial,html.Screen,4_36_0,2023-10-31T23:52:20.564Z,,0,1,,3212,response,ISIC_3800541.JPG,2,ISIC_5416978.JPG,ISIC_3800541.JPG,false,1,keypress(m),500,262595,262594,259382,259379.00000000003,259399,262633,8,400,37,,ISIC_5416978.JPG
break,html.Screen,4_36_1,2023-10-31T23:52:20.565Z,,0,,,NaN,,,,,,false,,,,262596,262596,,262595,,262633,8,400,,,
break_continue,html.Screen,4_36_2,2023-10-31T23:52:20.566Z,,0,,,NaN,,,,,,false,,,,262597,262597,,262597,,262633,8,400,,,
sequence,flow.Sequence,4_36,2023-10-31T23:52:20.566Z,,0,,,3198,completion,,,,,false,,,,262597,262597,259382,259379.00000000003,259399,262633,8,400,,,
trial,html.Screen,4_37_0,2023-10-31T23:52:23.405Z,,0,1,,2820,response,ISIC_2259190.JPG,2,ISIC_0961235.JPG,ISIC_0961235.JPG,false,0,keypress(z),500,265436,265436,262616,262597,262633,265465,8,400,38,,ISIC_2259190.JPG
break,html.Screen,4_37_1,2023-10-31T23:52:23.406Z,,0,,,NaN,,,,,,false,,,,265437,265437,,265436,,265465,8,400,,,
break_continue,html.Screen,4_37_2,2023-10-31T23:52:23.407Z,,0,,,NaN,,,,,,false,,,,265438,265438,,265438,,265465,8,400,,,
sequence,flow.Sequence,4_37,2023-10-31T23:52:23.407Z,,0,,,2805,completion,,,,,false,,,,265438,265438,262616,262597,262633,265465,8,400,,,
trial,html.Screen,4_38_0,2023-10-31T23:52:26.461Z,,0,1,,3042,response,ISIC_0027620.JPG,3,ISIC_5239607.JPG,ISIC_5239607.JPG,false,0,keypress(z),500,268492,268491,265449,265438,265465,268515,8,400,39,,ISIC_0027620.JPG
break,html.Screen,4_38_1,2023-10-31T23:52:26.462Z,,0,,,NaN,,,,,,false,,,,268493,268493,,268492,,268515,8,400,,,
break_continue,html.Screen,4_38_2,2023-10-31T23:52:26.462Z,,0,,,NaN,,,,,,false,,,,268494,268493,,268493,,268515,8,400,,,
sequence,flow.Sequence,4_38,2023-10-31T23:52:26.462Z,,0,,,3028,completion,,,,,false,,,,268494,268493,265449,265438,265465,268515,8,400,,,
trial,html.Screen,4_39_0,2023-10-31T23:52:30.390Z,,0,1,,3922,response,ISIC_2853290.JPG,14,ISIC_4643298.JPG,ISIC_2853290.JPG,false,1,keypress(m),500,272422,272421,268499,268494,268515,272449,8,400,40,,ISIC_4643298.JPG
break,html.Screen,4_39_1,2023-10-31T23:52:30.391Z,,0,,,NaN,,,,,,false,,,,272422,272422,,272422,,272449,8,400,,,
break_continue,html.Screen,4_39_2,2023-10-31T23:52:30.391Z,,0,,,NaN,,,,,,false,,,,272423,272423,,272423,,272449,8,400,,,
sequence,flow.Sequence,4_39,2023-10-31T23:52:30.392Z,,0,,,3908,completion,,,,,false,,,,272423,272423,268499,268494,268515,272449,8,400,,,
trial,html.Screen,4_40_0,2023-10-31T23:52:34.414Z,,0,1,,4012,response,ISIC_7162343.JPG,4,ISIC_0053960.JPG,ISIC_0053960.JPG,false,0,keypress(z),500,276445,276445,272433,272423,272449,276483,8,400,41,,ISIC_7162343.JPG
break,html.Screen,4_40_1,2023-10-31T23:52:34.415Z,,0,,,NaN,,,,,,false,,,,276446,276446,,276446,,276483,8,400,,,
break_continue,html.Screen,4_40_2,2023-10-31T23:52:34.415Z,,0,,,NaN,,,,,,false,,,,276447,276447,,276447,,276483,8,400,,,
sequence,flow.Sequence,4_40,2023-10-31T23:52:34.415Z,,0,,,3998,completion,,,,,false,,,,276447,276447,272433,272423,272449,276483,8,400,,,
trial,html.Screen,4_41_0,2023-10-31T23:52:37.309Z,,0,1,,2875.000000000058,response,ISIC_0026505.JPG,13,ISIC_0000346.JPG,ISIC_0000346.JPG,false,0,keypress(z),500,279341,279340.00000000006,276465,276447,276483,279366,8,400,42,,ISIC_0026505.JPG
break,html.Screen,4_41_1,2023-10-31T23:52:37.310Z,,0,,,NaN,,,,,,false,,,,279342,279342,,279341,,279366,8,400,,,
break_continue,html.Screen,4_41_2,2023-10-31T23:52:37.311Z,,0,,,NaN,,,,,,false,,,,279342,279342,,279342,,279366,8,400,,,
sequence,flow.Sequence,4_41,2023-10-31T23:52:37.311Z,,0,,,2859,completion,,,,,false,,,,279342,279342,276465,276447,276483,279366,8,400,,,
trial,html.Screen,4_42_0,2023-10-31T23:52:40.129Z,,0,1,,2811,response,ISIC_6208508.JPG,7,ISIC_5607702.JPG,ISIC_5607702.JPG,false,0,keypress(z),500,282160,282160,279349,279342,279366,282182,8,400,43,,ISIC_6208508.JPG
break,html.Screen,4_42_1,2023-10-31T23:52:40.130Z,,0,,,NaN,,,,,,false,,,,282161,282161,,282161,,282182,8,400,,,
break_continue,html.Screen,4_42_2,2023-10-31T23:52:40.130Z,,0,,,NaN,,,,,,false,,,,282162,282162,,282162,,282182,8,400,,,
sequence,flow.Sequence,4_42,2023-10-31T23:52:40.130Z,,0,,,2796,completion,,,,,false,,,,282162,282162,279349,279342,279366,282182,8,400,,,
trial,html.Screen,4_43_0,2023-10-31T23:52:42.992Z,,0,1,,2858,response,ISIC_4022621.JPG,5,ISIC_0011956.JPG,ISIC_4022621.JPG,false,1,keypress(m),500,285024,285023,282165,282162,282182,285049,8,400,44,,ISIC_0011956.JPG
break,html.Screen,4_43_1,2023-10-31T23:52:42.994Z,,0,,,NaN,,,,,,false,,,,285025.00000000006,285025.00000000006,,285024,,285049,8,400,,,
break_continue,html.Screen,4_43_2,2023-10-31T23:52:42.994Z,,0,,,NaN,,,,,,false,,,,285026,285025.00000000006,,285025.00000000006,,285049,8,400,,,
sequence,flow.Sequence,4_43,2023-10-31T23:52:42.994Z,,0,,,2843.000000000058,completion,,,,,false,,,,285026,285025.00000000006,282165,282162,282182,285049,8,400,,,
trial,html.Screen,4_44_0,2023-10-31T23:52:45.956Z,,0,1,,2951,response,ISIC_2447578.JPG,6,ISIC_0031800.JPG,ISIC_2447578.JPG,false,1,keypress(m),500,287988,287984,285033,285026,285049,288016,8,400,45,,ISIC_0031800.JPG
break,html.Screen,4_44_1,2023-10-31T23:52:45.957Z,,0,,,NaN,,,,,,false,,,,287989.00000000006,287988,,287988,,288016,8,400,,,
break_continue,html.Screen,4_44_2,2023-10-31T23:52:45.957Z,,0,,,NaN,,,,,,false,,,,287989.00000000006,287989.00000000006,,287989.00000000006,,288016,8,400,,,
sequence,flow.Sequence,4_44,2023-10-31T23:52:45.957Z,,0,,,2940.000000000058,completion,,,,,false,,,,287989.00000000006,287989.00000000006,285033,285026,285049,288016,8,400,,,
trial,html.Screen,4_45_0,2023-10-31T23:52:49.391Z,,0,1,,3423,response,ISIC_0071869.JPG,15,ISIC_0029982.JPG,ISIC_0071869.JPG,false,1,keypress(m),500,291422,291422,287999,287989.00000000006,288016,291448,8,400,46,,ISIC_0029982.JPG
break,html.Screen,4_45_1,2023-10-31T23:52:49.392Z,,0,,,NaN,,,,,,false,,,,291423,291423,,291423,,291448,8,400,,,
break_continue,html.Screen,4_45_2,2023-10-31T23:52:49.392Z,,0,,,NaN,,,,,,false,,,,291424,291423,,291423,,291448,8,400,,,
sequence,flow.Sequence,4_45,2023-10-31T23:52:49.392Z,,0,,,3407,completion,,,,,false,,,,291424,291423,287999,287989.00000000006,288016,291448,8,400,,,
trial,html.Screen,4_46_0,2023-10-31T23:52:52.620Z,,0,1,,3218,response,ISIC_3909443.JPG,1,ISIC_0055498.JPG,ISIC_0055498.JPG,false,0,keypress(z),500,294652,294651,291433,291424,291448,294683,8,400,47,,ISIC_3909443.JPG
break,html.Screen,4_46_1,2023-10-31T23:52:52.621Z,,0,,,NaN,,,,,,false,,,,294653,294653,,294652,,294683,8,400,,,
break_continue,html.Screen,4_46_2,2023-10-31T23:52:52.622Z,,0,,,NaN,,,,,,false,,,,294653,294653,,294653,,294683,8,400,,,
sequence,flow.Sequence,4_46,2023-10-31T23:52:52.622Z,,0,,,3205,completion,,,,,false,,,,294654,294653,291433,291424,291448,294683,8,400,,,
trial,html.Screen,4_47_0,2023-10-31T23:52:55.460Z,,0,1,,2826,response,ISIC_7413786.JPG,2,ISIC_4026569.JPG,ISIC_4026569.JPG,false,0,keypress(z),500,297491,297491,294665,294654,294683,297516,8,400,48,,ISIC_7413786.JPG
break,html.Screen,4_47_1,2023-10-31T23:52:55.461Z,,0,,,NaN,,,,,,false,,,,297492,297492,,297492,,297516,8,400,,,
break_continue,html.Screen,4_47_2,2023-10-31T23:52:55.461Z,,0,,,NaN,,,,,,false,,,,297493,297492,,297492,,297516,8,400,,,
sequence,flow.Sequence,4_47,2023-10-31T23:52:55.461Z,,0,,,2809,completion,,,,,false,,,,297493,297492,294665,294654,294683,297516,8,400,,,
trial,html.Screen,4_48_0,2023-10-31T23:52:58.556Z,,0,1,,3088,response,ISIC_5357288.JPG,9,ISIC_7455460.JPG,ISIC_7455460.JPG,false,0,keypress(z),500,300587,300587,297499,297493,297516,300616,8,400,49,,ISIC_5357288.JPG
break,html.Screen,4_48_1,2023-10-31T23:52:58.557Z,,0,,,NaN,,,,,,false,,,,300589,300589,,300588,,300616,8,400,,,
break_continue,html.Screen,4_48_2,2023-10-31T23:52:58.557Z,,0,,,NaN,,,,,,false,,,,300589,300589,,300589,,300616,8,400,,,
sequence,flow.Sequence,4_48,2023-10-31T23:52:58.558Z,,0,,,3073,completion,,,,,false,,,,300589,300589,297499,297493,297516,300616,8,400,,,
trial,html.Screen,4_49_0,2023-10-31T23:53:03.871Z,,0,1,,5303,response,ISIC_0027024.JPG,3,ISIC_5821131.JPG,ISIC_5821131.JPG,false,0,keypress(z),500,305903,305902,300599,300590.00000000006,300616,305933,8,400,50,,ISIC_0027024.JPG
break,html.Screen,4_49_1,2023-10-31T23:53:13.885Z,,0,,,10000,timeout,,,,,false,,,,315917.00000000006,315916,305916,305903,305933,315933,8,400,,,
break_continue,html.Screen,4_49_2,2023-10-31T23:53:17.202Z,,0,,,3356,response,,,,,false,continue,keypress(Space),,319234,319272,315916,315917.00000000006,315933,319266,8,400,,,
sequence,flow.Sequence,4_49,2023-10-31T23:53:17.203Z,,0,,,18656,completion,,,,,false,,,,319235,319272,300599,300589,300616,319266,8,400,,,
trial,html.Screen,4_50_0,2023-10-31T23:53:19.970Z,,0,2,,2752.000000000058,response,ISIC_0010241.JPG,8,ISIC_5048124.JPG,ISIC_0010241.JPG,false,1,keypress(m),500,322002,322001.00000000006,319249,319235,319266,322033,8,400,1,,ISIC_5048124.JPG
break,html.Screen,4_50_1,2023-10-31T23:53:19.971Z,,0,,,NaN,,,,,,false,,,,322003,322003,,322002,,322033,8,400,,,
break_continue,html.Screen,4_50_2,2023-10-31T23:53:19.971Z,,0,,,NaN,,,,,,false,,,,322003,322003,,322003,,322033,8,400,,,
sequence,flow.Sequence,4_50,2023-10-31T23:53:19.971Z,,0,,,2737,completion,,,,,false,,,,322004,322003,319249,319235,319266,322033,8,400,,,
trial,html.Screen,4_51_0,2023-10-31T23:53:23.085Z,,0,2,,3101,response,ISIC_8234773.JPG,3,ISIC_8986997.JPG,ISIC_8234773.JPG,false,1,keypress(m),500,325118,325117,322016,322004,322033,325149,8,400,2,,ISIC_8986997.JPG
break,html.Screen,4_51_1,2023-10-31T23:53:23.087Z,,0,,,NaN,,,,,,false,,,,325119,325118,,325118,,325149,8,400,,,
break_continue,html.Screen,4_51_2,2023-10-31T23:53:23.087Z,,0,,,NaN,,,,,,false,,,,325119,325119,,325119,,325149,8,400,,,
sequence,flow.Sequence,4_51,2023-10-31T23:53:23.087Z,,0,,,3086,completion,,,,,false,,,,325119,325119,322016,322004,322033,325149,8,400,,,
trial,html.Screen,4_52_0,2023-10-31T23:53:25.878Z,,0,2,,2776,response,ISIC_8709211.JPG,5,ISIC_0046626.JPG,ISIC_8709211.JPG,false,1,keypress(m),500,327910,327909,325133,325119,325149,327933,8,400,3,,ISIC_0046626.JPG
break,html.Screen,4_52_1,2023-10-31T23:53:25.878Z,,0,,,NaN,,,,,,false,,,,327911,327911,,327910,,327933,8,400,,,
break_continue,html.Screen,4_52_2,2023-10-31T23:53:25.879Z,,0,,,NaN,,,,,,false,,,,327911,327911,,327911,,327933,8,400,,,
sequence,flow.Sequence,4_52,2023-10-31T23:53:25.879Z,,0,,,2762,completion,,,,,false,,,,327911,327911,325133,325119,325149,327933,8,400,,,
trial,html.Screen,4_53_0,2023-10-31T23:53:29.368Z,,0,2,,3484.000000000058,response,ISIC_5502342.JPG,8,ISIC_7764987.JPG,ISIC_5502342.JPG,false,1,keypress(m),500,331401,331400.00000000006,327916,327911,327933,331433,8,400,4,,ISIC_7764987.JPG
break,html.Screen,4_53_1,2023-10-31T23:53:29.370Z,,0,,,NaN,,,,,,false,,,,331402,331402,,331401,,331433,8,400,,,
break_continue,html.Screen,4_53_2,2023-10-31T23:53:29.370Z,,0,,,NaN,,,,,,false,,,,331402,331402,,331402,,331433,8,400,,,
sequence,flow.Sequence,4_53,2023-10-31T23:53:29.370Z,,0,,,3469,completion,,,,,false,,,,331402,331402,327916,327911,327933,331433,8,400,,,
trial,html.Screen,4_54_0,2023-10-31T23:53:32.442Z,,0,2,,3058,response,ISIC_0069398.JPG,6,ISIC_0010965.JPG,ISIC_0010965.JPG,false,0,keypress(z),500,334474,334474,331416,331403,331433,334500,8,400,5,,ISIC_0069398.JPG
break,html.Screen,4_54_1,2023-10-31T23:53:32.443Z,,0,,,NaN,,,,,,false,,,,334475,334475,,334475,,334500,8,400,,,
break_continue,html.Screen,4_54_2,2023-10-31T23:53:32.443Z,,0,,,NaN,,,,,,false,,,,334476,334476,,334475,,334500,8,400,,,
sequence,flow.Sequence,4_54,2023-10-31T23:53:32.443Z,,0,,,3043,completion,,,,,false,,,,334476,334476,331416,331403,331433,334500,8,400,,,
trial,html.Screen,4_55_0,2023-10-31T23:53:37.447Z,,0,2,,4996,response,ISIC_0029397.JPG,0,ISIC_2808323.JPG,ISIC_0029397.JPG,false,1,keypress(m),500,339479,339479,334483,334476,334500,339516,8,400,6,,ISIC_2808323.JPG
break,html.Screen,4_55_1,2023-10-31T23:53:37.448Z,,0,,,NaN,,,,,,false,,,,339480,339480,,339479,,339516,8,400,,,
break_continue,html.Screen,4_55_2,2023-10-31T23:53:37.448Z,,0,,,NaN,,,,,,false,,,,339480,339480,,339480,,339516,8,400,,,
sequence,flow.Sequence,4_55,2023-10-31T23:53:37.448Z,,0,,,4980,completion,,,,,false,,,,339481,339480,334483,334476,334500,339516,8,400,,,
trial,html.Screen,4_56_0,2023-10-31T23:53:40.524Z,,0,2,,3055,response,ISIC_0054167.JPG,4,ISIC_0058418.JPG,ISIC_0054167.JPG,false,1,keypress(m),500,342556,342555,339500,339481,339516,342583,8,400,7,,ISIC_0058418.JPG
break,html.Screen,4_56_1,2023-10-31T23:53:40.525Z,,0,,,NaN,,,,,,false,,,,342557,342557,,342556,,342583,8,400,,,
break_continue,html.Screen,4_56_2,2023-10-31T23:53:40.525Z,,0,,,NaN,,,,,,false,,,,342557,342557,,342557,,342583,8,400,,,
sequence,flow.Sequence,4_56,2023-10-31T23:53:40.525Z,,0,,,3041,completion,,,,,false,,,,342558,342557,339500,339481,339516,342583,8,400,,,
trial,html.Screen,4_57_0,2023-10-31T23:53:43.600Z,,0,2,,3066,response,ISIC_2364150.JPG,0,ISIC_9482039.JPG,ISIC_9482039.JPG,false,0,keypress(z),500,345633,345632,342566,342558,342583,345666,8,400,8,,ISIC_2364150.JPG
break,html.Screen,4_57_1,2023-10-31T23:53:43.601Z,,0,,,NaN,,,,,,false,,,,345634,345634,,345633,,345666,8,400,,,
break_continue,html.Screen,4_57_2,2023-10-31T23:53:43.602Z,,0,,,NaN,,,,,,false,,,,345634,345634,,345634,,345666,8,400,,,
sequence,flow.Sequence,4_57,2023-10-31T23:53:43.602Z,,0,,,3051,completion,,,,,false,,,,345635,345634,342566,342558,342583,345666,8,400,,,
trial,html.Screen,4_58_0,2023-10-31T23:53:46.766Z,,0,2,,3149,response,ISIC_0027277.JPG,6,ISIC_0029397.JPG,ISIC_0029397.JPG,false,0,keypress(z),500,348798,348798,345649,345635,345666,348833,8,400,9,,ISIC_0027277.JPG
break,html.Screen,4_58_1,2023-10-31T23:53:46.768Z,,0,,,NaN,,,,,,false,,,,348800,348799.00000000006,,348799.00000000006,,348833,8,400,,,
break_continue,html.Screen,4_58_2,2023-10-31T23:53:46.768Z,,0,,,NaN,,,,,,false,,,,348800,348800,,348800,,348833,8,400,,,
sequence,flow.Sequence,4_58,2023-10-31T23:53:46.768Z,,0,,,3134,completion,,,,,false,,,,348801,348800,345649,345635,345666,348833,8,400,,,
trial,html.Screen,4_59_0,2023-10-31T23:53:50.347Z,,0,2,,3563,response,ISIC_2377039.JPG,9,ISIC_7167811.JPG,ISIC_7167811.JPG,false,0,keypress(z),500,352380,352379,348816,348801,348833,352416,8,400,10,,ISIC_2377039.JPG
break,html.Screen,4_59_1,2023-10-31T23:53:50.348Z,,0,,,NaN,,,,,,false,,,,352381,352381,,352380,,352416,8,400,,,
break_continue,html.Screen,4_59_2,2023-10-31T23:53:50.349Z,,0,,,NaN,,,,,,false,,,,352381,352381,,352381,,352416,8,400,,,
sequence,flow.Sequence,4_59,2023-10-31T23:53:50.349Z,,0,,,3548,completion,,,,,false,,,,352382,352381,348816,348801,348833,352416,8,400,,,
trial,html.Screen,4_60_0,2023-10-31T23:53:53.021Z,,0,2,,2653,response,ISIC_0008510.JPG,8,ISIC_9211072.JPG,ISIC_9211072.JPG,false,0,keypress(z),500,355054.00000000006,355053,352400,352382,352416,355083,8,400,11,,ISIC_0008510.JPG
break,html.Screen,4_60_1,2023-10-31T23:53:53.023Z,,0,,,NaN,,,,,,false,,,,355055,355055,,355054.00000000006,,355083,8,400,,,
break_continue,html.Screen,4_60_2,2023-10-31T23:53:53.023Z,,0,,,NaN,,,,,,false,,,,355056,355056,,355056,,355083,8,400,,,
sequence,flow.Sequence,4_60,2023-10-31T23:53:53.023Z,,0,,,2640,completion,,,,,false,,,,355056,355056,352400,352382,352416,355083,8,400,,,
trial,html.Screen,4_61_0,2023-10-31T23:53:55.967Z,,0,2,,2932,response,ISIC_0065200.JPG,3,ISIC_4034644.JPG,ISIC_4034644.JPG,false,0,keypress(z),500,358000,357999,355067,355056,355083,358033,8,400,12,,ISIC_0065200.JPG
break,html.Screen,4_61_1,2023-10-31T23:53:55.968Z,,0,,,NaN,,,,,,false,,,,358001.00000000006,358001.00000000006,,358000,,358033,8,400,,,
break_continue,html.Screen,4_61_2,2023-10-31T23:53:55.969Z,,0,,,NaN,,,,,,false,,,,358001.00000000006,358001.00000000006,,358001.00000000006,,358033,8,400,,,
sequence,flow.Sequence,4_61,2023-10-31T23:53:55.969Z,,0,,,2918.000000000058,completion,,,,,false,,,,358001.00000000006,358001.00000000006,355067,355056,355083,358033,8,400,,,
trial,html.Screen,4_62_0,2023-10-31T23:53:59.140Z,,0,2,,3155,response,ISIC_2922104.JPG,6,ISIC_5194331.JPG,ISIC_2922104.JPG,false,1,keypress(m),500,361172,361172,358017,358001.00000000006,358033,361200,8,400,13,,ISIC_5194331.JPG
break,html.Screen,4_62_1,2023-10-31T23:53:59.141Z,,0,,,NaN,,,,,,false,,,,361173,361173,,361173,,361200,8,400,,,
break_continue,html.Screen,4_62_2,2023-10-31T23:53:59.141Z,,0,,,NaN,,,,,,false,,,,361174.00000000006,361174.00000000006,,361173,,361200,8,400,,,
sequence,flow.Sequence,4_62,2023-10-31T23:53:59.141Z,,0,,,3141.000000000058,completion,,,,,false,,,,361174.00000000006,361174.00000000006,358017,358001.00000000006,358033,361200,8,400,,,
trial,html.Screen,4_63_0,2023-10-31T23:54:03.214Z,,0,2,,4063,response,ISIC_0066935.JPG,3,ISIC_0011868.JPG,ISIC_0066935.JPG,false,1,keypress(m),500,365246,365246,361183,361174.00000000006,361200,365266,8,400,14,,ISIC_0011868.JPG
break,html.Screen,4_63_1,2023-10-31T23:54:03.215Z,,0,,,NaN,,,,,,false,,,,365247,365247,,365247,,365266,8,400,,,
break_continue,html.Screen,4_63_2,2023-10-31T23:54:03.215Z,,0,,,NaN,,,,,,false,,,,365248,365248,,365248,,365266,8,400,,,
sequence,flow.Sequence,4_63,2023-10-31T23:54:03.215Z,,0,,,4048,completion,,,,,false,,,,365248,365248,361183,361174.00000000006,361200,365266,8,400,,,
trial,html.Screen,4_64_0,2023-10-31T23:54:06.700Z,,0,2,,3482,response,ISIC_2644988.JPG,8,ISIC_0033725.JPG,ISIC_0033725.JPG,false,0,keypress(z),500,368733,368732,365250,365248,365266,368767,8,400,15,,ISIC_2644988.JPG
break,html.Screen,4_64_1,2023-10-31T23:54:06.701Z,,0,,,NaN,,,,,,false,,,,368734,368734,,368733,,368767,8,400,,,
break_continue,html.Screen,4_64_2,2023-10-31T23:54:06.701Z,,0,,,NaN,,,,,,false,,,,368734,368734,,368734,,368767,8,400,,,
sequence,flow.Sequence,4_64,2023-10-31T23:54:06.701Z,,0,,,3468,completion,,,,,false,,,,368734,368734,365250,365248,365266,368767,8,400,,,
trial,html.Screen,4_65_0,2023-10-31T23:54:11.989Z,,0,2,,5271,response,ISIC_0013898.JPG,6,ISIC_0654846.JPG,ISIC_0654846.JPG,false,0,keypress(z),500,374021,374021,368750,368734,368767,374050,8,400,16,,ISIC_0013898.JPG
break,html.Screen,4_65_1,2023-10-31T23:54:11.990Z,,0,,,NaN,,,,,,false,,,,374023,374023,,374022,,374050,8,400,,,
break_continue,html.Screen,4_65_2,2023-10-31T23:54:11.991Z,,0,,,NaN,,,,,,false,,,,374023,374023,,374023,,374050,8,400,,,
sequence,flow.Sequence,4_65,2023-10-31T23:54:11.991Z,,0,,,5256,completion,,,,,false,,,,374024,374023,368750,368734,368767,374050,8,400,,,
trial,html.Screen,4_66_0,2023-10-31T23:54:15.350Z,,0,2,,3350,response,ISIC_0057199.JPG,3,ISIC_4646815.JPG,ISIC_4646815.JPG,false,0,keypress(z),500,377383,377383,374033,374024,374050,377417,8,400,17,,ISIC_0057199.JPG
break,html.Screen,4_66_1,2023-10-31T23:54:15.351Z,,0,,,NaN,,,,,,false,,,,377384,377384,,377384,,377417,8,400,,,
break_continue,html.Screen,4_66_2,2023-10-31T23:54:15.352Z,,0,,,NaN,,,,,,false,,,,377384,377384,,377384,,377417,8,400,,,
sequence,flow.Sequence,4_66,2023-10-31T23:54:15.352Z,,0,,,3334,completion,,,,,false,,,,377385,377384,374033,374024,374050,377417,8,400,,,
trial,html.Screen,4_67_0,2023-10-31T23:54:19.801Z,,0,2,,4434,response,ISIC_1210565.JPG,9,ISIC_0000554.JPG,ISIC_0000554.JPG,false,0,keypress(z),500,381834,381834,377400,377385,377417,381867,8,400,18,,ISIC_1210565.JPG
break,html.Screen,4_67_1,2023-10-31T23:54:19.802Z,,0,,,NaN,,,,,,false,,,,381835,381835,,381834,,381867,8,400,,,
break_continue,html.Screen,4_67_2,2023-10-31T23:54:19.803Z,,0,,,NaN,,,,,,false,,,,381836,381836,,381836,,381867,8,400,,,
sequence,flow.Sequence,4_67,2023-10-31T23:54:19.803Z,,0,,,4419,completion,,,,,false,,,,381836,381836,377400,377385,377417,381867,8,400,,,
trial,html.Screen,4_68_0,2023-10-31T23:54:23.015Z,,0,2,,3197,response,ISIC_2498215.JPG,9,ISIC_0055747.JPG,ISIC_2498215.JPG,false,1,keypress(m),500,385048,385047,381850,381836,381867,385083,8,400,19,,ISIC_0055747.JPG
break,html.Screen,4_68_1,2023-10-31T23:54:23.016Z,,0,,,NaN,,,,,,false,,,,385049.00000000006,385049.00000000006,,385048,,385083,8,400,,,
break_continue,html.Screen,4_68_2,2023-10-31T23:54:23.016Z,,0,,,NaN,,,,,,false,,,,385049.00000000006,385049.00000000006,,385049.00000000006,,385083,8,400,,,
sequence,flow.Sequence,4_68,2023-10-31T23:54:23.016Z,,0,,,3182.000000000058,completion,,,,,false,,,,385049.00000000006,385049.00000000006,381850,381836,381867,385083,8,400,,,
trial,html.Screen,4_69_0,2023-10-31T23:54:27.192Z,,0,2,,4157,response,ISIC_0030457.JPG,6,ISIC_5181177.JPG,ISIC_5181177.JPG,false,0,keypress(z),500,389225,389224,385067,385049.00000000006,385083,389250,8,400,20,,ISIC_0030457.JPG
break,html.Screen,4_69_1,2023-10-31T23:54:27.193Z,,0,,,NaN,,,,,,false,,,,389226,389226,,389225,,389250,8,400,,,
break_continue,html.Screen,4_69_2,2023-10-31T23:54:27.194Z,,0,,,NaN,,,,,,false,,,,389227.00000000006,389227.00000000006,,389226,,389250,8,400,,,
sequence,flow.Sequence,4_69,2023-10-31T23:54:27.194Z,,0,,,4144.000000000058,completion,,,,,false,,,,389227.00000000006,389227.00000000006,385067,385049.00000000006,385083,389250,8,400,,,
trial,html.Screen,4_70_0,2023-10-31T23:54:30.961Z,,0,2,,3760,response,ISIC_3449290.JPG,5,ISIC_0056326.JPG,ISIC_0056326.JPG,false,0,keypress(z),500,392994,392993,389233,389227.00000000006,389250,393017,8,400,21,,ISIC_3449290.JPG
break,html.Screen,4_70_1,2023-10-31T23:54:30.962Z,,0,,,NaN,,,,,,false,,,,392995,392995,,392994,,393017,8,400,,,
break_continue,html.Screen,4_70_2,2023-10-31T23:54:30.962Z,,0,,,NaN,,,,,,false,,,,392995,392995,,392995,,393017,8,400,,,
sequence,flow.Sequence,4_70,2023-10-31T23:54:30.962Z,,0,,,3745,completion,,,,,false,,,,392995,392995,389233,389227.00000000006,389250,393017,8,400,,,
trial,html.Screen,4_71_0,2023-10-31T23:54:35.018Z,,0,2,,4050,response,ISIC_0063516.JPG,4,ISIC_0011702.JPG,ISIC_0011702.JPG,false,0,keypress(z),500,397051,397050,393000,392996,393017,397083,8,400,22,,ISIC_0063516.JPG
break,html.Screen,4_71_1,2023-10-31T23:54:35.019Z,,0,,,NaN,,,,,,false,,,,397052,397052,,397051,,397083,8,400,,,
break_continue,html.Screen,4_71_2,2023-10-31T23:54:35.019Z,,0,,,NaN,,,,,,false,,,,397052,397052,,397052,,397083,8,400,,,
sequence,flow.Sequence,4_71,2023-10-31T23:54:35.019Z,,0,,,4035,completion,,,,,false,,,,397052,397052,393000,392995,393017,397083,8,400,,,
trial,html.Screen,4_72_0,2023-10-31T23:54:39.079Z,,0,2,,4046,response,ISIC_0002901.JPG,5,ISIC_0032847.JPG,ISIC_0002901.JPG,false,1,keypress(m),500,401112,401112,397066,397052,397083,401133,8,400,23,,ISIC_0032847.JPG
break,html.Screen,4_72_1,2023-10-31T23:54:39.080Z,,0,,,NaN,,,,,,false,,,,401113,401113,,401112,,401133,8,400,,,
break_continue,html.Screen,4_72_2,2023-10-31T23:54:39.080Z,,0,,,NaN,,,,,,false,,,,401114.00000000006,401113,,401113,,401133,8,400,,,
sequence,flow.Sequence,4_72,2023-10-31T23:54:39.080Z,,0,,,4030,completion,,,,,false,,,,401114.00000000006,401113,397066,397052,397083,401133,8,400,,,
trial,html.Screen,4_73_0,2023-10-31T23:54:43.500Z,,0,2,,4417,response,ISIC_7519627.JPG,7,ISIC_0062517.JPG,ISIC_0062517.JPG,false,0,keypress(z),500,405534,405533,401116,401114.00000000006,401133,405567,8,400,24,,ISIC_7519627.JPG
break,html.Screen,4_73_1,2023-10-31T23:54:43.501Z,,0,,,NaN,,,,,,false,,,,405535,405534,,405534,,405567,8,400,,,
break_continue,html.Screen,4_73_2,2023-10-31T23:54:43.502Z,,0,,,NaN,,,,,,false,,,,405535,405535,,405535,,405567,8,400,,,
sequence,flow.Sequence,4_73,2023-10-31T23:54:43.502Z,,0,,,4402,completion,,,,,false,,,,405535,405535,401116,401114.00000000006,401133,405567,8,400,,,
trial,html.Screen,4_74_0,2023-10-31T23:54:48.737Z,,0,2,,5220,response,ISIC_0030333.JPG,4,ISIC_4640293.JPG,ISIC_4640293.JPG,false,0,keypress(z),500,410770,410770,405550,405535,405567,410800,8,400,25,,ISIC_0030333.JPG
break,html.Screen,4_74_1,2023-10-31T23:54:48.738Z,,0,,,NaN,,,,,,false,,,,410771,410771,,410771,,410800,8,400,,,
break_continue,html.Screen,4_74_2,2023-10-31T23:54:48.738Z,,0,,,NaN,,,,,,false,,,,410772,410772,,410772,,410800,8,400,,,
sequence,flow.Sequence,4_74,2023-10-31T23:54:48.738Z,,0,,,5205,completion,,,,,false,,,,410772,410772,405550,405535,405567,410800,8,400,,,
trial,html.Screen,4_75_0,2023-10-31T23:54:54.650Z,,0,2,,5899,response,ISIC_0066674.JPG,17,ISIC_0011150.JPG,ISIC_0066674.JPG,false,1,keypress(m),500,416683,416683,410784,410772,410800,416717,8,400,26,,ISIC_0011150.JPG
break,html.Screen,4_75_1,2023-10-31T23:54:54.651Z,,0,,,NaN,,,,,,false,,,,416685,416684,,416684,,416717,8,400,,,
break_continue,html.Screen,4_75_2,2023-10-31T23:54:54.652Z,,0,,,NaN,,,,,,false,,,,416685,416685,,416685,,416717,8,400,,,
sequence,flow.Sequence,4_75,2023-10-31T23:54:54.652Z,,0,,,5885,completion,,,,,false,,,,416685,416685,410784,410772,410800,416717,8,400,,,
trial,html.Screen,4_76_0,2023-10-31T23:54:57.812Z,,0,2,,3145,response,ISIC_1735204.JPG,8,ISIC_2378428.JPG,ISIC_1735204.JPG,false,1,keypress(m),500,419845,419845,416700,416685,416717,419867,8,400,27,,ISIC_2378428.JPG
break,html.Screen,4_76_1,2023-10-31T23:54:57.813Z,,0,,,NaN,,,,,,false,,,,419847.00000000006,419846,,419846,,419867,8,400,,,
break_continue,html.Screen,4_76_2,2023-10-31T23:54:57.814Z,,0,,,NaN,,,,,,false,,,,419847.00000000006,419847.00000000006,,419847.00000000006,,419867,8,400,,,
sequence,flow.Sequence,4_76,2023-10-31T23:54:57.814Z,,0,,,3130.000000000058,completion,,,,,false,,,,419847.00000000006,419847.00000000006,416700,416685,416717,419867,8,400,,,
trial,html.Screen,4_77_0,2023-10-31T23:55:00.748Z,,0,2,,2931,response,ISIC_1672821.JPG,6,ISIC_2800198.JPG,ISIC_1672821.JPG,false,1,keypress(m),500,422782,422781,419850,419848,419867,422817,8,400,28,,ISIC_2800198.JPG
break,html.Screen,4_77_1,2023-10-31T23:55:00.749Z,,0,,,NaN,,,,,,false,,,,422783,422782,,422782,,422817,8,400,,,
break_continue,html.Screen,4_77_2,2023-10-31T23:55:00.749Z,,0,,,NaN,,,,,,false,,,,422783,422783,,422783,,422817,8,400,,,
sequence,flow.Sequence,4_77,2023-10-31T23:55:00.749Z,,0,,,2916,completion,,,,,false,,,,422783,422783,419850,419847.00000000006,419867,422817,8,400,,,
trial,html.Screen,4_78_0,2023-10-31T23:55:03.537Z,,0,2,,2770,response,ISIC_0070784.JPG,10,ISIC_7306535.JPG,ISIC_7306535.JPG,false,0,keypress(z),500,425570,425570,422800,422783,422817,425600,8,400,29,,ISIC_0070784.JPG
break,html.Screen,4_78_1,2023-10-31T23:55:03.538Z,,0,,,NaN,,,,,,false,,,,425571,425571,,425570,,425600,8,400,,,
break_continue,html.Screen,4_78_2,2023-10-31T23:55:03.538Z,,0,,,NaN,,,,,,false,,,,425572,425572,,425571,,425600,8,400,,,
sequence,flow.Sequence,4_78,2023-10-31T23:55:03.538Z,,0,,,2755,completion,,,,,false,,,,425572,425572,422800,422783,422817,425600,8,400,,,
trial,html.Screen,4_79_0,2023-10-31T23:55:07.972Z,,0,2,,4421,response,ISIC_0030150.JPG,0,ISIC_7604870.JPG,ISIC_7604870.JPG,false,0,keypress(z),500,430006,430005,425584,425572,425600,430033,8,400,30,,ISIC_0030150.JPG
break,html.Screen,4_79_1,2023-10-31T23:55:07.973Z,,0,,,NaN,,,,,,false,,,,430007,430007,,430006,,430033,8,400,,,
break_continue,html.Screen,4_79_2,2023-10-31T23:55:07.973Z,,0,,,NaN,,,,,,false,,,,430007,430007,,430007,,430033,8,400,,,
sequence,flow.Sequence,4_79,2023-10-31T23:55:07.974Z,,0,,,4407,completion,,,,,false,,,,430007,430007,425584,425572,425600,430033,8,400,,,
trial,html.Screen,4_80_0,2023-10-31T23:55:10.657Z,,0,2,,2674.000000000058,response,ISIC_0005291.JPG,4,ISIC_7216266.JPG,ISIC_0005291.JPG,false,1,keypress(m),500,432691.00000000006,432691.00000000006,430017,430008,430033,432717,8,400,31,,ISIC_7216266.JPG
break,html.Screen,4_80_1,2023-10-31T23:55:10.658Z,,0,,,NaN,,,,,,false,,,,432692,432692,,432691.00000000006,,432717,8,400,,,
break_continue,html.Screen,4_80_2,2023-10-31T23:55:10.659Z,,0,,,NaN,,,,,,false,,,,432692,432692,,432692,,432717,8,400,,,
sequence,flow.Sequence,4_80,2023-10-31T23:55:10.659Z,,0,,,2659,completion,,,,,false,,,,432693,432692,430017,430008,430033,432717,8,400,,,
trial,html.Screen,4_81_0,2023-10-31T23:55:13.817Z,,0,2,,3150,response,ISIC_2245709.JPG,5,ISIC_0072418.JPG,ISIC_0072418.JPG,false,0,keypress(z),500,435851,435850,432700,432693,432717,435883,8,400,32,,ISIC_2245709.JPG
break,html.Screen,4_81_1,2023-10-31T23:55:13.818Z,,0,,,NaN,,,,,,false,,,,435852.00000000006,435851,,435851,,435883,8,400,,,
break_continue,html.Screen,4_81_2,2023-10-31T23:55:13.818Z,,0,,,NaN,,,,,,false,,,,435852.00000000006,435852.00000000006,,435852.00000000006,,435883,8,400,,,
sequence,flow.Sequence,4_81,2023-10-31T23:55:13.818Z,,0,,,3135.000000000058,completion,,,,,false,,,,435852.00000000006,435852.00000000006,432700,432693,432717,435883,8,400,,,
trial,html.Screen,4_82_0,2023-10-31T23:55:17.737Z,,0,2,,3903,response,ISIC_2633745.JPG,9,ISIC_0010523.JPG,ISIC_0010523.JPG,false,0,keypress(z),500,439770,439770,435867,435852.00000000006,435883,439800,8,400,33,,ISIC_2633745.JPG
break,html.Screen,4_82_1,2023-10-31T23:55:17.738Z,,0,,,NaN,,,,,,false,,,,439771,439771,,439771,,439800,8,400,,,
break_continue,html.Screen,4_82_2,2023-10-31T23:55:17.738Z,,0,,,NaN,,,,,,false,,,,439772,439772,,439772,,439800,8,400,,,
sequence,flow.Sequence,4_82,2023-10-31T23:55:17.738Z,,0,,,3889,completion,,,,,false,,,,439772,439772,435867,435852.00000000006,435883,439800,8,400,,,
trial,html.Screen,4_83_0,2023-10-31T23:55:21.761Z,,0,2,,4010,response,ISIC_0007749.JPG,0,ISIC_2822622.JPG,ISIC_0007749.JPG,false,1,keypress(m),500,443795,443794,439784,439772,439800,443817,8,400,34,,ISIC_2822622.JPG
break,html.Screen,4_83_1,2023-10-31T23:55:21.762Z,,0,,,NaN,,,,,,false,,,,443795,443795,,443795,,443817,8,400,,,
break_continue,html.Screen,4_83_2,2023-10-31T23:55:21.762Z,,0,,,NaN,,,,,,false,,,,443796,443796,,443796,,443817,8,400,,,
sequence,flow.Sequence,4_83,2023-10-31T23:55:21.762Z,,0,,,3996,completion,,,,,false,,,,443796,443796,439784,439772,439800,443817,8,400,,,
trial,html.Screen,4_84_0,2023-10-31T23:55:25.738Z,,0,2,,3972,response,ISIC_0001743.JPG,8,ISIC_4045781.JPG,ISIC_0001743.JPG,false,1,keypress(m),500,447772,447772,443800,443796,443817,447800,8,400,35,,ISIC_4045781.JPG
break,html.Screen,4_84_1,2023-10-31T23:55:25.740Z,,0,,,NaN,,,,,,false,,,,447774,447773,,447773,,447800,8,400,,,
break_continue,html.Screen,4_84_2,2023-10-31T23:55:25.740Z,,0,,,NaN,,,,,,false,,,,447774,447774,,447774,,447800,8,400,,,
sequence,flow.Sequence,4_84,2023-10-31T23:55:25.740Z,,0,,,3957,completion,,,,,false,,,,447774,447774,443800,443796,443817,447800,8,400,,,
trial,html.Screen,4_85_0,2023-10-31T23:55:28.945Z,,0,2,,3194,response,ISIC_7141361.JPG,2,ISIC_0027556.JPG,ISIC_7141361.JPG,false,1,keypress(m),500,450979,450978,447784,447774,447800,451000,8,400,36,,ISIC_0027556.JPG
break,html.Screen,4_85_1,2023-10-31T23:55:28.946Z,,0,,,NaN,,,,,,false,,,,450980,450980,,450979,,451000,8,400,,,
break_continue,html.Screen,4_85_2,2023-10-31T23:55:28.947Z,,0,,,NaN,,,,,,false,,,,450981,450981,,450981,,451000,8,400,,,
sequence,flow.Sequence,4_85,2023-10-31T23:55:28.947Z,,0,,,3181,completion,,,,,false,,,,450981,450981,447784,447774,447800,451000,8,400,,,
trial,html.Screen,4_86_0,2023-10-31T23:55:31.785Z,,0,2,,2835,response,ISIC_5648111.JPG,5,ISIC_0054954.JPG,ISIC_0054954.JPG,false,0,keypress(z),500,453820,453819,450984,450981,451000,453851,8,400,37,,ISIC_5648111.JPG
break,html.Screen,4_86_1,2023-10-31T23:55:31.786Z,,0,,,NaN,,,,,,false,,,,453820,453820,,453820,,453851,8,400,,,
break_continue,html.Screen,4_86_2,2023-10-31T23:55:31.787Z,,0,,,NaN,,,,,,false,,,,453821,453821,,453821,,453851,8,400,,,
sequence,flow.Sequence,4_86,2023-10-31T23:55:31.787Z,,0,,,2821,completion,,,,,false,,,,453821,453821,450984,450981,451000,453851,8,400,,,
trial,html.Screen,4_87_0,2023-10-31T23:55:41.578Z,,0,2,,9777,response,ISIC_8502869.JPG,7,ISIC_0032951.JPG,ISIC_0032951.JPG,false,0,keypress(z),500,463612,463611,453834,453821,453851,463633,8,400,38,,ISIC_8502869.JPG
break,html.Screen,4_87_1,2023-10-31T23:55:41.579Z,,0,,,NaN,,,,,,false,,,,463613,463613,,463612,,463633,8,400,,,
break_continue,html.Screen,4_87_2,2023-10-31T23:55:41.579Z,,0,,,NaN,,,,,,false,,,,463613,463613,,463613,,463633,8,400,,,
sequence,flow.Sequence,4_87,2023-10-31T23:55:41.579Z,,0,,,9762,completion,,,,,false,,,,463614.00000000006,463613,453834,453821,453851,463633,8,400,,,
trial,html.Screen,4_88_0,2023-10-31T23:55:44.826Z,,0,2,,3243,response,ISIC_7642500.JPG,6,ISIC_6023518.JPG,ISIC_6023518.JPG,false,0,keypress(z),500,466861,466860,463617,463614.00000000006,463633,466884,8,400,39,,ISIC_7642500.JPG
break,html.Screen,4_88_1,2023-10-31T23:55:44.828Z,,0,,,NaN,,,,,,false,,,,466862,466862,,466861,,466884,8,400,,,
break_continue,html.Screen,4_88_2,2023-10-31T23:55:44.828Z,,0,,,NaN,,,,,,false,,,,466862,466862,,466862,,466884,8,400,,,
sequence,flow.Sequence,4_88,2023-10-31T23:55:44.828Z,,0,,,3229,completion,,,,,false,,,,466862,466862,463617,463614.00000000006,463633,466884,8,400,,,
trial,html.Screen,4_89_0,2023-10-31T23:55:47.828Z,,0,2,,2995,response,ISIC_0000801.JPG,5,ISIC_0030457.JPG,ISIC_0000801.JPG,false,1,keypress(m),500,469863,469862,466867,466862,466884,469884,8,400,40,,ISIC_0030457.JPG
break,html.Screen,4_89_1,2023-10-31T23:55:47.829Z,,0,,,NaN,,,,,,false,,,,469864.00000000006,469864.00000000006,,469863,,469884,8,400,,,
break_continue,html.Screen,4_89_2,2023-10-31T23:55:47.830Z,,0,,,NaN,,,,,,false,,,,469864.00000000006,469864.00000000006,,469864.00000000006,,469884,8,400,,,
sequence,flow.Sequence,4_89,2023-10-31T23:55:47.830Z,,0,,,2980.000000000058,completion,,,,,false,,,,469864.00000000006,469864.00000000006,466867,466862,466884,469884,8,400,,,
trial,html.Screen,4_90_0,2023-10-31T23:55:51.982Z,,0,2,,4149,response,ISIC_0034316.JPG,3,ISIC_9564379.JPG,ISIC_0034316.JPG,false,1,keypress(m),500,474017,474016,469867,469864.00000000006,469884,474051,8,400,41,,ISIC_9564379.JPG
break,html.Screen,4_90_1,2023-10-31T23:55:51.984Z,,0,,,NaN,,,,,,false,,,,474018,474018,,474017,,474051,8,400,,,
break_continue,html.Screen,4_90_2,2023-10-31T23:55:51.984Z,,0,,,NaN,,,,,,false,,,,474018,474018,,474018,,474051,8,400,,,
sequence,flow.Sequence,4_90,2023-10-31T23:55:51.984Z,,0,,,4134,completion,,,,,false,,,,474019,474018,469867,469864.00000000006,469884,474051,8,400,,,
trial,html.Screen,4_91_0,2023-10-31T23:55:54.846Z,,0,2,,2846,response,ISIC_0057059.JPG,7,ISIC_7246852.JPG,ISIC_7246852.JPG,false,0,keypress(z),500,476880,476880,474034,474019,474051,476901,8,400,42,,ISIC_0057059.JPG
break,html.Screen,4_91_1,2023-10-31T23:55:54.847Z,,0,,,NaN,,,,,,false,,,,476881,476881,,476880,,476901,8,400,,,
break_continue,html.Screen,4_91_2,2023-10-31T23:55:54.847Z,,0,,,NaN,,,,,,false,,,,476881,476881,,476881,,476901,8,400,,,
sequence,flow.Sequence,4_91,2023-10-31T23:55:54.847Z,,0,,,2830,completion,,,,,false,,,,476882,476881,474034,474019,474051,476901,8,400,,,
trial,html.Screen,4_92_0,2023-10-31T23:55:57.991Z,,0,2,,3141.000000000058,response,ISIC_0028484.JPG,1,ISIC_0059065.JPG,ISIC_0059065.JPG,false,0,keypress(z),500,480026,480025.00000000006,476884,476882,476901,480051,8,400,43,,ISIC_0028484.JPG
break,html.Screen,4_92_1,2023-10-31T23:55:57.992Z,,0,,,NaN,,,,,,false,,,,480027,480027,,480026,,480051,8,400,,,
break_continue,html.Screen,4_92_2,2023-10-31T23:55:57.993Z,,0,,,NaN,,,,,,false,,,,480027,480027,,480027,,480051,8,400,,,
sequence,flow.Sequence,4_92,2023-10-31T23:55:57.993Z,,0,,,3126,completion,,,,,false,,,,480027,480027,476884,476882,476901,480051,8,400,,,
trial,html.Screen,4_93_0,2023-10-31T23:56:01.185Z,,0,2,,3185,response,ISIC_7748144.JPG,5,ISIC_8869929.JPG,ISIC_8869929.JPG,false,0,keypress(z),500,483219,483219,480034,480028,480051,483251,8,400,44,,ISIC_7748144.JPG
break,html.Screen,4_93_1,2023-10-31T23:56:01.186Z,,0,,,NaN,,,,,,false,,,,483220,483220,,483220,,483251,8,400,,,
break_continue,html.Screen,4_93_2,2023-10-31T23:56:01.186Z,,0,,,NaN,,,,,,false,,,,483221,483221,,483221,,483251,8,400,,,
sequence,flow.Sequence,4_93,2023-10-31T23:56:01.186Z,,0,,,3170,completion,,,,,false,,,,483221,483221,480034,480027,480051,483251,8,400,,,
trial,html.Screen,4_94_0,2023-10-31T23:56:03.970Z,,0,2,,2769,response,ISIC_0029078.JPG,2,ISIC_0012025.JPG,ISIC_0012025.JPG,false,0,keypress(z),500,486004,486003,483234,483221,483251,486034,8,400,45,,ISIC_0029078.JPG
break,html.Screen,4_94_1,2023-10-31T23:56:03.971Z,,0,,,NaN,,,,,,false,,,,486005,486005,,486004,,486034,8,400,,,
break_continue,html.Screen,4_94_2,2023-10-31T23:56:03.971Z,,0,,,NaN,,,,,,false,,,,486006,486006,,486006,,486034,8,400,,,
sequence,flow.Sequence,4_94,2023-10-31T23:56:03.972Z,,0,,,2755,completion,,,,,false,,,,486006,486006,483234,483221,483251,486034,8,400,,,
trial,html.Screen,4_95_0,2023-10-31T23:56:07.152Z,,0,2,,3169.000000000058,response,ISIC_9407690.JPG,13,ISIC_5961333.JPG,ISIC_9407690.JPG,false,1,keypress(m),500,489187,489186.00000000006,486017,486006,486034,489217,8,400,46,,ISIC_5961333.JPG
break,html.Screen,4_95_1,2023-10-31T23:56:07.153Z,,0,,,NaN,,,,,,false,,,,489188,489187,,489187,,489217,8,400,,,
break_continue,html.Screen,4_95_2,2023-10-31T23:56:07.153Z,,0,,,NaN,,,,,,false,,,,489188,489188,,489188,,489217,8,400,,,
sequence,flow.Sequence,4_95,2023-10-31T23:56:07.153Z,,0,,,3154,completion,,,,,false,,,,489188,489188,486017,486006,486034,489217,8,400,,,
trial,html.Screen,4_96_0,2023-10-31T23:56:09.963Z,,0,2,,2796,response,ISIC_8013225.JPG,1,ISIC_0010757.JPG,ISIC_0010757.JPG,false,0,keypress(z),500,491998,491997,489201,489188,489217,492034,8,400,47,,ISIC_8013225.JPG
break,html.Screen,4_96_1,2023-10-31T23:56:09.964Z,,0,,,NaN,,,,,,false,,,,491999,491998,,491998,,492034,8,400,,,
break_continue,html.Screen,4_96_2,2023-10-31T23:56:09.965Z,,0,,,NaN,,,,,,false,,,,491999,491999,,491999,,492034,8,400,,,
sequence,flow.Sequence,4_96,2023-10-31T23:56:09.965Z,,0,,,2782,completion,,,,,false,,,,491999,491999,489201,489188,489217,492034,8,400,,,
trial,html.Screen,4_97_0,2023-10-31T23:56:12.651Z,,0,2,,2668,response,ISIC_0070752.JPG,6,ISIC_4070687.JPG,ISIC_4070687.JPG,false,0,keypress(z),500,494686.00000000006,494685,492017,491999,492034,494717,8,400,48,,ISIC_0070752.JPG
break,html.Screen,4_97_1,2023-10-31T23:56:12.652Z,,0,,,NaN,,,,,,false,,,,494687,494686.00000000006,,494686.00000000006,,494717,8,400,,,
break_continue,html.Screen,4_97_2,2023-10-31T23:56:12.652Z,,0,,,NaN,,,,,,false,,,,494687,494687,,494687,,494717,8,400,,,
sequence,flow.Sequence,4_97,2023-10-31T23:56:12.652Z,,0,,,2653,completion,,,,,false,,,,494687,494687,492017,491999,492034,494717,8,400,,,
trial,html.Screen,4_98_0,2023-10-31T23:56:15.686Z,,0,2,,3019,response,ISIC_0000143.JPG,15,ISIC_0034051.JPG,ISIC_0000143.JPG,false,1,keypress(m),500,497720,497720,494701,494687,494717,497751,8,400,49,,ISIC_0034051.JPG
break,html.Screen,4_98_1,2023-10-31T23:56:15.687Z,,0,,,NaN,,,,,,false,,,,497722.00000000006,497721,,497721,,497751,8,400,,,
break_continue,html.Screen,4_98_2,2023-10-31T23:56:15.687Z,,0,,,NaN,,,,,,false,,,,497722.00000000006,497722.00000000006,,497722.00000000006,,497751,8,400,,,
sequence,flow.Sequence,4_98,2023-10-31T23:56:15.688Z,,0,,,3005.000000000058,completion,,,,,false,,,,497722.00000000006,497722.00000000006,494701,494687,494717,497751,8,400,,,
trial,html.Screen,4_99_0,2023-10-31T23:56:18.565Z,,0,2,,2865,response,ISIC_0259179.JPG,4,ISIC_6220953.JPG,ISIC_6220953.JPG,false,0,keypress(z),500,500600,500599,497734,497723,497751,500634,8,400,50,,ISIC_0259179.JPG
break,html.Screen,4_99_1,2023-10-31T23:56:48.682Z,,0,,,30117,timeout,,,,,false,,,,530717,530716,500617,500600,500634,530751,8,400,,,
break_continue,html.Screen,4_99_2,2023-10-31T23:56:50.418Z,,0,,,1776,response,,,,,false,continue,keypress(Space),,532453,532492,530716,530717,530751,532484,8,400,,,
sequence,flow.Sequence,4_99,2023-10-31T23:56:50.418Z,,0,,,34741,completion,,,,,false,,,,532453,532492,497734,497723,497751,532484,8,400,,,
trial,html.Screen,4_100_0,2023-10-31T23:56:53.724Z,,0,3,,3291,response,ISIC_0011700.JPG,7,ISIC_5931552.JPG,ISIC_0011700.JPG,false,1,keypress(m),500,535759,535759,532468,532453,532484,535784,8,400,1,,ISIC_5931552.JPG
break,html.Screen,4_100_1,2023-10-31T23:56:53.725Z,,0,,,NaN,,,,,,false,,,,535761,535760,,535760,,535784,8,400,,,
break_continue,html.Screen,4_100_2,2023-10-31T23:56:53.726Z,,0,,,NaN,,,,,,false,,,,535761,535761,,535761,,535784,8,400,,,
sequence,flow.Sequence,4_100,2023-10-31T23:56:53.726Z,,0,,,3277,completion,,,,,false,,,,535761,535761,532468,532453,532484,535784,8,400,,,
trial,html.Screen,4_101_0,2023-10-31T23:56:57.111Z,,0,3,,3378,response,ISIC_3737487.JPG,3,ISIC_0062160.JPG,ISIC_0062160.JPG,false,0,keypress(z),500,539146,539146,535768,535761,535784,539167,8,400,2,,ISIC_3737487.JPG
break,html.Screen,4_101_1,2023-10-31T23:56:57.112Z,,0,,,NaN,,,,,,false,,,,539147,539147,,539147,,539167,8,400,,,
break_continue,html.Screen,4_101_2,2023-10-31T23:56:57.112Z,,0,,,NaN,,,,,,false,,,,539148,539148,,539147,,539167,8,400,,,
sequence,flow.Sequence,4_101,2023-10-31T23:56:57.112Z,,0,,,3364,completion,,,,,false,,,,539148,539148,535768,535761,535784,539167,8,400,,,
trial,html.Screen,4_102_0,2023-10-31T23:56:59.903Z,,0,3,,2788,response,ISIC_0032320.JPG,6,ISIC_0058877.JPG,ISIC_0032320.JPG,false,1,keypress(m),500,541939,541938,539150,539148,539167,541968,8,400,3,,ISIC_0058877.JPG
break,html.Screen,4_102_1,2023-10-31T23:56:59.904Z,,0,,,NaN,,,,,,false,,,,541940,541940,,541939,,541968,8,400,,,
break_continue,html.Screen,4_102_2,2023-10-31T23:56:59.905Z,,0,,,NaN,,,,,,false,,,,541940,541940,,541940,,541968,8,400,,,
sequence,flow.Sequence,4_102,2023-10-31T23:56:59.905Z,,0,,,2773,completion,,,,,false,,,,541940,541940,539150,539148,539167,541968,8,400,,,
trial,html.Screen,4_103_0,2023-10-31T23:57:02.638Z,,0,3,,2722,response,ISIC_0028070.JPG,17,ISIC_4015508.JPG,ISIC_0028070.JPG,false,1,keypress(m),500,544674,544673,541951,541940,541968,544701,8,400,4,,ISIC_4015508.JPG
break,html.Screen,4_103_1,2023-10-31T23:57:02.639Z,,0,,,NaN,,,,,,false,,,,544675,544674,,544674,,544701,8,400,,,
break_continue,html.Screen,4_103_2,2023-10-31T23:57:02.639Z,,0,,,NaN,,,,,,false,,,,544675,544675,,544675,,544701,8,400,,,
sequence,flow.Sequence,4_103,2023-10-31T23:57:02.639Z,,0,,,2707,completion,,,,,false,,,,544675,544675,541951,541940,541968,544701,8,400,,,
trial,html.Screen,4_104_0,2023-10-31T23:57:05.780Z,,0,3,,3131,response,ISIC_0070822.JPG,15,ISIC_0000296.JPG,ISIC_0000296.JPG,false,0,keypress(z),500,547816,547815,544684,544675,544701,547851,8,400,5,,ISIC_0070822.JPG
break,html.Screen,4_104_1,2023-10-31T23:57:05.781Z,,0,,,NaN,,,,,,false,,,,547817,547817,,547816,,547851,8,400,,,
break_continue,html.Screen,4_104_2,2023-10-31T23:57:05.782Z,,0,,,NaN,,,,,,false,,,,547817,547817,,547817,,547851,8,400,,,
sequence,flow.Sequence,4_104,2023-10-31T23:57:05.782Z,,0,,,3116,completion,,,,,false,,,,547817,547817,544684,544675,544701,547851,8,400,,,
trial,html.Screen,4_105_0,2023-10-31T23:57:08.878Z,,0,3,,3079,response,ISIC_1620401.JPG,6,ISIC_0014423.JPG,ISIC_1620401.JPG,false,1,keypress(m),500,550913,550913,547834,547817,547851,550934,8,400,6,,ISIC_0014423.JPG
break,html.Screen,4_105_1,2023-10-31T23:57:08.879Z,,0,,,NaN,,,,,,false,,,,550914,550914,,550914,,550934,8,400,,,
break_continue,html.Screen,4_105_2,2023-10-31T23:57:08.879Z,,0,,,NaN,,,,,,false,,,,550915,550915,,550915,,550934,8,400,,,
sequence,flow.Sequence,4_105,2023-10-31T23:57:08.879Z,,0,,,3064,completion,,,,,false,,,,550915,550915,547834,547817,547851,550934,8,400,,,
trial,html.Screen,4_106_0,2023-10-31T23:57:11.693Z,,0,3,,2811.0000000001164,response,ISIC_5231145.JPG,1,ISIC_2513481.JPG,ISIC_2513481.JPG,false,0,keypress(z),500,553728.0000000001,553728.0000000001,550917,550915,550934,553751,8,400,7,,ISIC_5231145.JPG
break,html.Screen,4_106_1,2023-10-31T23:57:11.694Z,,0,,,NaN,,,,,,false,,,,553729,553729,,553729,,553751,8,400,,,
break_continue,html.Screen,4_106_2,2023-10-31T23:57:11.694Z,,0,,,NaN,,,,,,false,,,,553730,553730,,553730,,553751,8,400,,,
sequence,flow.Sequence,4_106,2023-10-31T23:57:11.694Z,,0,,,2796,completion,,,,,false,,,,553730,553730,550917,550915,550934,553751,8,400,,,
trial,html.Screen,4_107_0,2023-10-31T23:57:14.387Z,,0,3,,2688,response,ISIC_4978039.JPG,7,ISIC_0014800.JPG,ISIC_4978039.JPG,false,1,keypress(m),500,556422,556422,553734,553730,553751,556451,8,400,8,,ISIC_0014800.JPG
break,html.Screen,4_107_1,2023-10-31T23:57:14.388Z,,0,,,NaN,,,,,,false,,,,556423,556423,,556423,,556451,8,400,,,
break_continue,html.Screen,4_107_2,2023-10-31T23:57:14.388Z,,0,,,NaN,,,,,,false,,,,556424,556424,,556424,,556451,8,400,,,
sequence,flow.Sequence,4_107,2023-10-31T23:57:14.388Z,,0,,,2673,completion,,,,,false,,,,556424,556424,553734,553730,553751,556451,8,400,,,
trial,html.Screen,4_108_0,2023-10-31T23:57:18.463Z,,0,3,,4064,response,ISIC_8945395.JPG,3,ISIC_0053760.JPG,ISIC_8945395.JPG,false,1,keypress(m),500,560499,560499,556435,556424,556451,560535,8,400,9,,ISIC_0053760.JPG
break,html.Screen,4_108_1,2023-10-31T23:57:18.464Z,,0,,,NaN,,,,,,false,,,,560500,560500,,560499,,560535,8,400,,,
break_continue,html.Screen,4_108_2,2023-10-31T23:57:18.465Z,,0,,,NaN,,,,,,false,,,,560500,560500,,560500,,560535,8,400,,,
sequence,flow.Sequence,4_108,2023-10-31T23:57:18.465Z,,0,,,4049,completion,,,,,false,,,,560501,560500,556435,556424,556451,560535,8,400,,,
trial,html.Screen,4_109_0,2023-10-31T23:57:21.646Z,,0,3,,3164,response,ISIC_0063516.JPG,13,ISIC_0028131.JPG,ISIC_0028131.JPG,false,0,keypress(z),500,563682,563682,560518,560501,560535,563701,8,400,10,,ISIC_0063516.JPG
break,html.Screen,4_109_1,2023-10-31T23:57:21.647Z,,0,,,NaN,,,,,,false,,,,563683,563683,,563682,,563701,8,400,,,
break_continue,html.Screen,4_109_2,2023-10-31T23:57:21.647Z,,0,,,NaN,,,,,,false,,,,563683,563683,,563683,,563701,8,400,,,
sequence,flow.Sequence,4_109,2023-10-31T23:57:21.648Z,,0,,,3148,completion,,,,,false,,,,563683,563683,560518,560501,560535,563701,8,400,,,
trial,html.Screen,4_110_0,2023-10-31T23:57:25.167Z,,0,3,,3517,response,ISIC_2621288.JPG,7,ISIC_1515947.JPG,ISIC_2621288.JPG,false,1,keypress(m),500,567203,567202,563685,563683,563701,567235,8,400,11,,ISIC_1515947.JPG
break,html.Screen,4_110_1,2023-10-31T23:57:25.168Z,,0,,,NaN,,,,,,false,,,,567204.0000000001,567203,,567203,,567235,8,400,,,
break_continue,html.Screen,4_110_2,2023-10-31T23:57:25.168Z,,0,,,NaN,,,,,,false,,,,567204.0000000001,567204.0000000001,,567204.0000000001,,567235,8,400,,,
sequence,flow.Sequence,4_110,2023-10-31T23:57:25.169Z,,0,,,3503.0000000001164,completion,,,,,false,,,,567204.0000000001,567204.0000000001,563685,563683,563701,567235,8,400,,,
trial,html.Screen,4_111_0,2023-10-31T23:57:28.998Z,,0,3,,3815,response,ISIC_8702237.JPG,8,ISIC_3825641.JPG,ISIC_8702237.JPG,false,1,keypress(m),500,571034,571033,567218,567205,567235,571068,8,400,12,,ISIC_3825641.JPG
break,html.Screen,4_111_1,2023-10-31T23:57:28.999Z,,0,,,NaN,,,,,,false,,,,571035,571035,,571034,,571068,8,400,,,
break_continue,html.Screen,4_111_2,2023-10-31T23:57:29.000Z,,0,,,NaN,,,,,,false,,,,571036,571035,,571035,,571068,8,400,,,
sequence,flow.Sequence,4_111,2023-10-31T23:57:29.000Z,,0,,,3800,completion,,,,,false,,,,571036,571035,567218,567204.0000000001,567235,571068,8,400,,,
trial,html.Screen,4_112_0,2023-10-31T23:57:32.150Z,,0,3,,3134.0000000001164,response,ISIC_0000171.JPG,1,ISIC_0011064.JPG,ISIC_0000171.JPG,false,1,keypress(m),500,574186,574185.0000000001,571051,571036,571068,574218,8,400,13,,ISIC_0011064.JPG
break,html.Screen,4_112_1,2023-10-31T23:57:32.151Z,,0,,,NaN,,,,,,false,,,,574187,574187,,574186,,574218,8,400,,,
break_continue,html.Screen,4_112_2,2023-10-31T23:57:32.152Z,,0,,,NaN,,,,,,false,,,,574188,574188,,574188,,574218,8,400,,,
sequence,flow.Sequence,4_112,2023-10-31T23:57:32.152Z,,0,,,3120,completion,,,,,false,,,,574188,574188,571051,571036,571068,574218,8,400,,,
trial,html.Screen,4_113_0,2023-10-31T23:57:35.953Z,,0,3,,3787,response,ISIC_9694867.JPG,4,ISIC_3413138.JPG,ISIC_3413138.JPG,false,0,keypress(z),500,577989,577988,574201,574188,574218,578017,8,400,14,,ISIC_9694867.JPG
break,html.Screen,4_113_1,2023-10-31T23:57:35.954Z,,0,,,NaN,,,,,,false,,,,577990,577989,,577989,,578017,8,400,,,
break_continue,html.Screen,4_113_2,2023-10-31T23:57:35.954Z,,0,,,NaN,,,,,,false,,,,577990,577990,,577990,,578017,8,400,,,
sequence,flow.Sequence,4_113,2023-10-31T23:57:35.954Z,,0,,,3772,completion,,,,,false,,,,577990,577990,574201,574188,574218,578017,8,400,,,
trial,html.Screen,4_114_0,2023-10-31T23:57:40.061Z,,0,3,,4096,response,ISIC_7508320.JPG,5,ISIC_0069669.JPG,ISIC_7508320.JPG,false,1,keypress(m),500,582097,582097,578001,577990,578017,582135,8,400,15,,ISIC_0069669.JPG
break,html.Screen,4_114_1,2023-10-31T23:57:40.062Z,,0,,,NaN,,,,,,false,,,,582098,582098,,582097,,582135,8,400,,,
break_continue,html.Screen,4_114_2,2023-10-31T23:57:40.063Z,,0,,,NaN,,,,,,false,,,,582099,582099,,582099,,582135,8,400,,,
sequence,flow.Sequence,4_114,2023-10-31T23:57:40.063Z,,0,,,4082,completion,,,,,false,,,,582099,582099,578001,577990,578017,582135,8,400,,,
trial,html.Screen,4_115_0,2023-10-31T23:57:44.070Z,,0,3,,3988,response,ISIC_0024256.JPG,9,ISIC_0028751.JPG,ISIC_0024256.JPG,false,1,keypress(m),500,586106,586106,582118,582099,582135,586135,8,400,16,,ISIC_0028751.JPG
break,html.Screen,4_115_1,2023-10-31T23:57:44.071Z,,0,,,NaN,,,,,,false,,,,586107,586107,,586106,,586135,8,400,,,
break_continue,html.Screen,4_115_2,2023-10-31T23:57:44.071Z,,0,,,NaN,,,,,,false,,,,586107,586107,,586107,,586135,8,400,,,
sequence,flow.Sequence,4_115,2023-10-31T23:57:44.071Z,,0,,,3972,completion,,,,,false,,,,586108.0000000001,586107,582118,582099,582135,586135,8,400,,,
trial,html.Screen,4_116_0,2023-10-31T23:57:49.005Z,,0,3,,4923,response,ISIC_0065918.JPG,4,ISIC_0064660.JPG,ISIC_0064660.JPG,false,0,keypress(z),500,591041,591041,586118,586108.0000000001,586135,591068,8,400,17,,ISIC_0065918.JPG
break,html.Screen,4_116_1,2023-10-31T23:57:49.007Z,,0,,,NaN,,,,,,false,,,,591043,591042,,591042,,591068,8,400,,,
break_continue,html.Screen,4_116_2,2023-10-31T23:57:49.007Z,,0,,,NaN,,,,,,false,,,,591043,591043,,591043,,591068,8,400,,,
sequence,flow.Sequence,4_116,2023-10-31T23:57:49.007Z,,0,,,4908,completion,,,,,false,,,,591043,591043,586118,586108.0000000001,586135,591068,8,400,,,
trial,html.Screen,4_117_0,2023-10-31T23:57:52.683Z,,0,3,,3668,response,ISIC_0030373.JPG,6,ISIC_0028573.JPG,ISIC_0030373.JPG,false,1,keypress(m),500,594719,594719,591051,591043,591068,594751,8,400,18,,ISIC_0028573.JPG
break,html.Screen,4_117_1,2023-10-31T23:57:52.684Z,,0,,,NaN,,,,,,false,,,,594720,594720,,594720,,594751,8,400,,,
break_continue,html.Screen,4_117_2,2023-10-31T23:57:52.684Z,,0,,,NaN,,,,,,false,,,,594721,594721,,594721,,594751,8,400,,,
sequence,flow.Sequence,4_117,2023-10-31T23:57:52.685Z,,0,,,3653,completion,,,,,false,,,,594721,594721,591051,591043,591068,594751,8,400,,,
trial,html.Screen,4_118_0,2023-10-31T23:57:56.457Z,,0,3,,3758,response,ISIC_0013491.JPG,9,ISIC_0000814.JPG,ISIC_0013491.JPG,false,1,keypress(m),500,598493,598492,594734,594721,594751,598518,8,400,19,,ISIC_0000814.JPG
break,html.Screen,4_118_1,2023-10-31T23:57:56.458Z,,0,,,NaN,,,,,,false,,,,598494,598494,,598493,,598518,8,400,,,
break_continue,html.Screen,4_118_2,2023-10-31T23:57:56.458Z,,0,,,NaN,,,,,,false,,,,598495,598494,,598494,,598518,8,400,,,
sequence,flow.Sequence,4_118,2023-10-31T23:57:56.458Z,,0,,,3743,completion,,,,,false,,,,598495,598494,594734,594721,594751,598518,8,400,,,
trial,html.Screen,4_119_0,2023-10-31T23:57:59.677Z,,0,3,,3212,response,ISIC_2064934.JPG,8,ISIC_2736880.JPG,ISIC_2064934.JPG,false,1,keypress(m),500,601714,601713,598501,598495,598518,601752,8,400,20,,ISIC_2736880.JPG
break,html.Screen,4_119_1,2023-10-31T23:57:59.678Z,,0,,,NaN,,,,,,false,,,,601715,601715,,601714,,601752,8,400,,,
break_continue,html.Screen,4_119_2,2023-10-31T23:57:59.679Z,,0,,,NaN,,,,,,false,,,,601715,601715,,601715,,601752,8,400,,,
sequence,flow.Sequence,4_119,2023-10-31T23:57:59.679Z,,0,,,3197,completion,,,,,false,,,,601715,601715,598501,598495,598518,601752,8,400,,,
trial,html.Screen,4_120_0,2023-10-31T23:58:02.468Z,,0,3,,2769,response,ISIC_2479134.JPG,6,ISIC_1939413.JPG,ISIC_1939413.JPG,false,0,keypress(z),500,604504,604504,601735,601715,601752,604535,8,400,21,,ISIC_2479134.JPG
break,html.Screen,4_120_1,2023-10-31T23:58:02.469Z,,0,,,NaN,,,,,,false,,,,604505,604505,,604505,,604535,8,400,,,
break_continue,html.Screen,4_120_2,2023-10-31T23:58:02.469Z,,0,,,NaN,,,,,,false,,,,604506,604506,,604506,,604535,8,400,,,
sequence,flow.Sequence,4_120,2023-10-31T23:58:02.469Z,,0,,,2754,completion,,,,,false,,,,604506,604506,601735,601715,601752,604535,8,400,,,
trial,html.Screen,4_121_0,2023-10-31T23:58:05.314Z,,0,3,,2832,response,ISIC_0030219.JPG,2,ISIC_4237064.JPG,ISIC_4237064.JPG,false,0,keypress(z),500,607350,607350,604518,604506,604535,607385,8,400,22,,ISIC_0030219.JPG
break,html.Screen,4_121_1,2023-10-31T23:58:05.315Z,,0,,,NaN,,,,,,false,,,,607351,607351,,607350,,607385,8,400,,,
break_continue,html.Screen,4_121_2,2023-10-31T23:58:05.315Z,,0,,,NaN,,,,,,false,,,,607351,607351,,607351,,607385,8,400,,,
sequence,flow.Sequence,4_121,2023-10-31T23:58:05.315Z,,0,,,2816,completion,,,,,false,,,,607351,607351,604518,604506,604535,607385,8,400,,,
trial,html.Screen,4_122_0,2023-10-31T23:58:09.051Z,,0,3,,3719,response,ISIC_4691689.JPG,7,ISIC_5099569.JPG,ISIC_5099569.JPG,false,0,keypress(z),500,611088,611087,607368,607352,607385,611118,8,400,23,,ISIC_4691689.JPG
break,html.Screen,4_122_1,2023-10-31T23:58:09.052Z,,0,,,NaN,,,,,,false,,,,611089,611088,,611088,,611118,8,400,,,
break_continue,html.Screen,4_122_2,2023-10-31T23:58:09.053Z,,0,,,NaN,,,,,,false,,,,611089,611089,,611089,,611118,8,400,,,
sequence,flow.Sequence,4_122,2023-10-31T23:58:09.053Z,,0,,,3704,completion,,,,,false,,,,611089,611089,607368,607351,607385,611118,8,400,,,
trial,html.Screen,4_123_0,2023-10-31T23:58:12.449Z,,0,3,,3383,response,ISIC_2203247.JPG,6,ISIC_0072377.JPG,ISIC_0072377.JPG,false,0,keypress(z),500,614485,614485,611102,611089,611118,614501,8,400,24,,ISIC_2203247.JPG
break,html.Screen,4_123_1,2023-10-31T23:58:12.450Z,,0,,,NaN,,,,,,false,,,,614487,614486,,614486,,614501,8,400,,,
break_continue,html.Screen,4_123_2,2023-10-31T23:58:12.451Z,,0,,,NaN,,,,,,false,,,,614487,614487,,614487,,614501,8,400,,,
sequence,flow.Sequence,4_123,2023-10-31T23:58:12.451Z,,0,,,3369,completion,,,,,false,,,,614487,614487,611102,611089,611118,614501,8,400,,,
trial,html.Screen,4_124_0,2023-10-31T23:58:15.577Z,,0,3,,3123,response,ISIC_0071834.JPG,5,ISIC_2072219.JPG,ISIC_0071834.JPG,false,1,keypress(m),500,617613,617613,614490,614488,614501,617635,8,400,25,,ISIC_2072219.JPG
break,html.Screen,4_124_1,2023-10-31T23:58:15.578Z,,0,,,NaN,,,,,,false,,,,617614,617614,,617614,,617635,8,400,,,
break_continue,html.Screen,4_124_2,2023-10-31T23:58:15.578Z,,0,,,NaN,,,,,,false,,,,617615,617615,,617615,,617635,8,400,,,
sequence,flow.Sequence,4_124,2023-10-31T23:58:15.578Z,,0,,,3114,completion,,,,,false,,,,617615,617615,614490,614488,614501,617635,8,400,,,
trial,html.Screen,4_125_0,2023-10-31T23:58:18.708Z,,0,3,,3126,response,ISIC_0031096.JPG,6,ISIC_0059219.JPG,ISIC_0059219.JPG,false,0,keypress(z),500,620745,620744,617618,617615,617635,620768,8,400,26,,ISIC_0031096.JPG
break,html.Screen,4_125_1,2023-10-31T23:58:18.709Z,,0,,,NaN,,,,,,false,,,,620746,620746,,620745,,620768,8,400,,,
break_continue,html.Screen,4_125_2,2023-10-31T23:58:18.710Z,,0,,,NaN,,,,,,false,,,,620746,620746,,620746,,620768,8,400,,,
sequence,flow.Sequence,4_125,2023-10-31T23:58:18.710Z,,0,,,3111,completion,,,,,false,,,,620746,620746,617618,617615,617635,620768,8,400,,,
trial,html.Screen,4_126_0,2023-10-31T23:58:21.845Z,,0,3,,3130,response,ISIC_0080817.JPG,3,ISIC_9053910.JPG,ISIC_0080817.JPG,false,1,keypress(m),500,623882.0000000001,623881,620751,620746,620768,623918,8,400,27,,ISIC_9053910.JPG
break,html.Screen,4_126_1,2023-10-31T23:58:21.847Z,,0,,,NaN,,,,,,false,,,,623883,623883,,623882.0000000001,,623918,8,400,,,
break_continue,html.Screen,4_126_2,2023-10-31T23:58:21.847Z,,0,,,NaN,,,,,,false,,,,623884,623883,,623883,,623918,8,400,,,
sequence,flow.Sequence,4_126,2023-10-31T23:58:21.847Z,,0,,,3115,completion,,,,,false,,,,623884,623883,620751,620746,620768,623918,8,400,,,
trial,html.Screen,4_127_0,2023-10-31T23:58:24.730Z,,0,3,,2864,response,ISIC_1519891.JPG,16,ISIC_4980328.JPG,ISIC_1519891.JPG,false,1,keypress(m),500,626767,626766,623902,623884,623918,626802,8,400,28,,ISIC_4980328.JPG
break,html.Screen,4_127_1,2023-10-31T23:58:24.731Z,,0,,,NaN,,,,,,false,,,,626768,626768,,626767,,626802,8,400,,,
break_continue,html.Screen,4_127_2,2023-10-31T23:58:24.731Z,,0,,,NaN,,,,,,false,,,,626768,626768,,626768,,626802,8,400,,,
sequence,flow.Sequence,4_127,2023-10-31T23:58:24.732Z,,0,,,2850,completion,,,,,false,,,,626768,626768,623902,623884,623918,626802,8,400,,,
trial,html.Screen,4_128_0,2023-10-31T23:58:27.391Z,,0,3,,2641,response,ISIC_0026901.JPG,3,ISIC_6159783.JPG,ISIC_6159783.JPG,false,0,keypress(z),500,629428,629427,626786,626768,626802,629452,8,400,29,,ISIC_0026901.JPG
break,html.Screen,4_128_1,2023-10-31T23:58:27.392Z,,0,,,NaN,,,,,,false,,,,629429,629428,,629428,,629452,8,400,,,
break_continue,html.Screen,4_128_2,2023-10-31T23:58:27.392Z,,0,,,NaN,,,,,,false,,,,629429,629429,,629429,,629452,8,400,,,
sequence,flow.Sequence,4_128,2023-10-31T23:58:27.392Z,,0,,,2627,completion,,,,,false,,,,629429,629429,626786,626768,626802,629452,8,400,,,
trial,html.Screen,4_129_0,2023-10-31T23:58:30.727Z,,0,3,,3328,response,ISIC_0000226.JPG,7,ISIC_0027350.JPG,ISIC_0000226.JPG,false,1,keypress(m),500,632764,632763,629435,629429,629452,632785,8,400,30,,ISIC_0027350.JPG
break,html.Screen,4_129_1,2023-10-31T23:58:30.728Z,,0,,,NaN,,,,,,false,,,,632765,632764,,632764,,632785,8,400,,,
break_continue,html.Screen,4_129_2,2023-10-31T23:58:30.728Z,,0,,,NaN,,,,,,false,,,,632765,632765,,632765,,632785,8,400,,,
sequence,flow.Sequence,4_129,2023-10-31T23:58:30.729Z,,0,,,3313,completion,,,,,false,,,,632765,632765,629435,629429,629452,632785,8,400,,,
trial,html.Screen,4_130_0,2023-10-31T23:58:34.000Z,,0,3,,3268,response,ISIC_0010671.JPG,3,ISIC_0046626.JPG,ISIC_0010671.JPG,false,1,keypress(m),500,636037,636036,632768,632765,632785,636068,8,400,31,,ISIC_0046626.JPG
break,html.Screen,4_130_1,2023-10-31T23:58:34.001Z,,0,,,NaN,,,,,,false,,,,636038,636038,,636037,,636068,8,400,,,
break_continue,html.Screen,4_130_2,2023-10-31T23:58:34.001Z,,0,,,NaN,,,,,,false,,,,636038,636038,,636038,,636068,8,400,,,
sequence,flow.Sequence,4_130,2023-10-31T23:58:34.002Z,,0,,,3253,completion,,,,,false,,,,636038,636038,632768,632765,632785,636068,8,400,,,
trial,html.Screen,4_131_0,2023-10-31T23:58:36.897Z,,0,3,,2881,response,ISIC_0065235.JPG,6,ISIC_0064860.JPG,ISIC_0064860.JPG,false,0,keypress(z),500,638934,638933,636052,636038,636068,638968,8,400,32,,ISIC_0065235.JPG
break,html.Screen,4_131_1,2023-10-31T23:58:36.898Z,,0,,,NaN,,,,,,false,,,,638935.0000000001,638934,,638934,,638968,8,400,,,
break_continue,html.Screen,4_131_2,2023-10-31T23:58:36.898Z,,0,,,NaN,,,,,,false,,,,638935.0000000001,638935.0000000001,,638935.0000000001,,638968,8,400,,,
sequence,flow.Sequence,4_131,2023-10-31T23:58:36.898Z,,0,,,2867.0000000001164,completion,,,,,false,,,,638935.0000000001,638935.0000000001,636052,636038,636068,638968,8,400,,,
trial,html.Screen,4_132_0,2023-10-31T23:58:40.773Z,,0,3,,3858.0000000001164,response,ISIC_0014920.JPG,9,ISIC_0063061.JPG,ISIC_0063061.JPG,false,0,keypress(z),500,642810.0000000001,642810.0000000001,638952,638935.0000000001,638968,642835,8,400,33,,ISIC_0014920.JPG
break,html.Screen,4_132_1,2023-10-31T23:58:40.774Z,,0,,,NaN,,,,,,false,,,,642811,642811,,642810.0000000001,,642835,8,400,,,
break_continue,html.Screen,4_132_2,2023-10-31T23:58:40.775Z,,0,,,NaN,,,,,,false,,,,642812,642811,,642811,,642835,8,400,,,
sequence,flow.Sequence,4_132,2023-10-31T23:58:40.775Z,,0,,,3843,completion,,,,,false,,,,642812,642811,638952,638935.0000000001,638968,642835,8,400,,,
trial,html.Screen,4_133_0,2023-10-31T23:58:44.933Z,,0,3,,4151,response,ISIC_7870290.JPG,8,ISIC_0059421.JPG,ISIC_7870290.JPG,false,1,keypress(m),500,646970,646969,642818,642812,642835,647002,8,400,34,,ISIC_0059421.JPG
break,html.Screen,4_133_1,2023-10-31T23:58:44.934Z,,0,,,NaN,,,,,,false,,,,646971,646971,,646970,,647002,8,400,,,
break_continue,html.Screen,4_133_2,2023-10-31T23:58:44.935Z,,0,,,NaN,,,,,,false,,,,646972,646971,,646971,,647002,8,400,,,
sequence,flow.Sequence,4_133,2023-10-31T23:58:44.935Z,,0,,,4136,completion,,,,,false,,,,646972,646971,642818,642812,642835,647002,8,400,,,
trial,html.Screen,4_134_0,2023-10-31T23:58:49.153Z,,0,3,,4204,response,ISIC_3077674.JPG,6,ISIC_0068975.JPG,ISIC_3077674.JPG,false,1,keypress(m),500,651190,651189,646985,646972,647002,651219,8,400,35,,ISIC_0068975.JPG
break,html.Screen,4_134_1,2023-10-31T23:58:49.154Z,,0,,,NaN,,,,,,false,,,,651191,651191,,651190,,651219,8,400,,,
break_continue,html.Screen,4_134_2,2023-10-31T23:58:49.154Z,,0,,,NaN,,,,,,false,,,,651191,651191,,651191,,651219,8,400,,,
sequence,flow.Sequence,4_134,2023-10-31T23:58:49.154Z,,0,,,4189,completion,,,,,false,,,,651191,651191,646985,646972,647002,651219,8,400,,,
trial,html.Screen,4_135_0,2023-10-31T23:58:52.382Z,,0,3,,3217,response,ISIC_0059506.JPG,4,ISIC_7875088.JPG,ISIC_0059506.JPG,false,1,keypress(m),500,654419,654418,651201,651192,651219,654452,8,400,36,,ISIC_7875088.JPG
break,html.Screen,4_135_1,2023-10-31T23:58:52.383Z,,0,,,NaN,,,,,,false,,,,654420,654420,,654419,,654452,8,400,,,
break_continue,html.Screen,4_135_2,2023-10-31T23:58:52.383Z,,0,,,NaN,,,,,,false,,,,654421,654420,,654420,,654452,8,400,,,
sequence,flow.Sequence,4_135,2023-10-31T23:58:52.384Z,,0,,,3201,completion,,,,,false,,,,654421,654420,651201,651191,651219,654452,8,400,,,
trial,html.Screen,4_136_0,2023-10-31T23:58:56.144Z,,0,3,,3745.0000000001164,response,ISIC_0063268.JPG,8,ISIC_0028773.JPG,ISIC_0028773.JPG,false,0,keypress(z),500,658181,658180.0000000001,654435,654421,654452,658219,8,400,37,,ISIC_0063268.JPG
break,html.Screen,4_136_1,2023-10-31T23:58:56.145Z,,0,,,NaN,,,,,,false,,,,658182,658182,,658181,,658219,8,400,,,
break_continue,html.Screen,4_136_2,2023-10-31T23:58:56.145Z,,0,,,NaN,,,,,,false,,,,658182,658182,,658182,,658219,8,400,,,
sequence,flow.Sequence,4_136,2023-10-31T23:58:56.146Z,,0,,,3730,completion,,,,,false,,,,658183,658182,654435,654421,654452,658219,8,400,,,
trial,html.Screen,4_137_0,2023-10-31T23:58:59.401Z,,0,3,,3235,response,ISIC_0061381.JPG,6,ISIC_0032841.JPG,ISIC_0032841.JPG,false,0,keypress(z),500,661438,661437,658202,658183,658219,661469,8,400,38,,ISIC_0061381.JPG
break,html.Screen,4_137_1,2023-10-31T23:58:59.401Z,,0,,,NaN,,,,,,false,,,,661439,661438,,661438,,661469,8,400,,,
break_continue,html.Screen,4_137_2,2023-10-31T23:58:59.402Z,,0,,,NaN,,,,,,false,,,,661439,661439,,661439,,661469,8,400,,,
sequence,flow.Sequence,4_137,2023-10-31T23:58:59.402Z,,0,,,3220,completion,,,,,false,,,,661439,661439,658202,658183,658219,661469,8,400,,,
trial,html.Screen,4_138_0,2023-10-31T23:59:02.482Z,,0,3,,3067,response,ISIC_0025580.JPG,6,ISIC_1460932.JPG,ISIC_1460932.JPG,false,0,keypress(z),500,664519,664519,661452,661439,661469,664552,8,400,39,,ISIC_0025580.JPG
break,html.Screen,4_138_1,2023-10-31T23:59:02.483Z,,0,,,NaN,,,,,,false,,,,664520,664520,,664520,,664552,8,400,,,
break_continue,html.Screen,4_138_2,2023-10-31T23:59:02.483Z,,0,,,NaN,,,,,,false,,,,664521,664520,,664520,,664552,8,400,,,
sequence,flow.Sequence,4_138,2023-10-31T23:59:02.483Z,,0,,,3051,completion,,,,,false,,,,664521,664520,661452,661439,661469,664552,8,400,,,
trial,html.Screen,4_139_0,2023-10-31T23:59:05.416Z,,0,3,,2918,response,ISIC_0032248.JPG,6,ISIC_0027964.JPG,ISIC_0032248.JPG,false,1,keypress(m),500,667454.0000000001,667453,664535,664521,664552,667485,8,400,40,,ISIC_0027964.JPG
break,html.Screen,4_139_1,2023-10-31T23:59:05.417Z,,0,,,NaN,,,,,,false,,,,667455,667455,,667454.0000000001,,667485,8,400,,,
break_continue,html.Screen,4_139_2,2023-10-31T23:59:05.418Z,,0,,,NaN,,,,,,false,,,,667455,667455,,667455,,667485,8,400,,,
sequence,flow.Sequence,4_139,2023-10-31T23:59:05.418Z,,0,,,2903,completion,,,,,false,,,,667455,667455,664535,664521,664552,667485,8,400,,,
trial,html.Screen,4_140_0,2023-10-31T23:59:08.276Z,,0,3,,2844,response,ISIC_0013801.JPG,6,ISIC_0027072.JPG,ISIC_0027072.JPG,false,0,keypress(z),500,670313,670313,667469,667455,667485,670335,8,400,41,,ISIC_0013801.JPG
break,html.Screen,4_140_1,2023-10-31T23:59:08.277Z,,0,,,NaN,,,,,,false,,,,670315,670314,,670314,,670335,8,400,,,
break_continue,html.Screen,4_140_2,2023-10-31T23:59:08.278Z,,0,,,NaN,,,,,,false,,,,670315,670315,,670315,,670335,8,400,,,
sequence,flow.Sequence,4_140,2023-10-31T23:59:08.278Z,,0,,,2830,completion,,,,,false,,,,670315,670315,667469,667455,667485,670335,8,400,,,
trial,html.Screen,4_141_0,2023-10-31T23:59:11.429Z,,0,3,,3148,response,ISIC_0033496.JPG,2,ISIC_0010862.JPG,ISIC_0010862.JPG,false,0,keypress(z),500,673466,673466,670318,670315,670335,673502,8,400,42,,ISIC_0033496.JPG
break,html.Screen,4_141_1,2023-10-31T23:59:11.430Z,,0,,,NaN,,,,,,false,,,,673468,673467,,673467,,673502,8,400,,,
break_continue,html.Screen,4_141_2,2023-10-31T23:59:11.430Z,,0,,,NaN,,,,,,false,,,,673468,673468,,673468,,673502,8,400,,,
sequence,flow.Sequence,4_141,2023-10-31T23:59:11.431Z,,0,,,3133,completion,,,,,false,,,,673468,673468,670318,670315,670335,673502,8,400,,,
trial,html.Screen,4_142_0,2023-10-31T23:59:14.436Z,,0,3,,2988.0000000001164,response,ISIC_1850196.JPG,9,ISIC_0030336.JPG,ISIC_1850196.JPG,false,1,keypress(m),500,676473.0000000001,676473.0000000001,673485,673468,673502,676502,8,400,43,,ISIC_0030336.JPG
break,html.Screen,4_142_1,2023-10-31T23:59:14.437Z,,0,,,NaN,,,,,,false,,,,676474,676474,,676473.0000000001,,676502,8,400,,,
break_continue,html.Screen,4_142_2,2023-10-31T23:59:14.437Z,,0,,,NaN,,,,,,false,,,,676474,676474,,676474,,676502,8,400,,,
sequence,flow.Sequence,4_142,2023-10-31T23:59:14.437Z,,0,,,2972,completion,,,,,false,,,,676475,676474,673485,673468,673502,676502,8,400,,,
trial,html.Screen,4_143_0,2023-10-31T23:59:17.589Z,,0,3,,3141,response,ISIC_2797576.JPG,5,ISIC_0028009.JPG,ISIC_2797576.JPG,false,1,keypress(m),500,679626,679626,676485,676475,676502,679652,8,400,44,,ISIC_0028009.JPG
break,html.Screen,4_143_1,2023-10-31T23:59:17.590Z,,0,,,NaN,,,,,,false,,,,679627.0000000001,679627.0000000001,,679627.0000000001,,679652,8,400,,,
break_continue,html.Screen,4_143_2,2023-10-31T23:59:17.590Z,,0,,,NaN,,,,,,false,,,,679628,679628,,679627.0000000001,,679652,8,400,,,
sequence,flow.Sequence,4_143,2023-10-31T23:59:17.590Z,,0,,,3126,completion,,,,,false,,,,679628,679628,676485,676475,676502,679652,8,400,,,
trial,html.Screen,4_144_0,2023-10-31T23:59:20.910Z,,0,3,,3312,response,ISIC_2915747.JPG,2,ISIC_7898061.JPG,ISIC_7898061.JPG,false,0,keypress(z),500,682947,682947,679635,679628,679652,682969,8,400,45,,ISIC_2915747.JPG
break,html.Screen,4_144_1,2023-10-31T23:59:20.911Z,,0,,,NaN,,,,,,false,,,,682948,682948,,682947,,682969,8,400,,,
break_continue,html.Screen,4_144_2,2023-10-31T23:59:20.911Z,,0,,,NaN,,,,,,false,,,,682948,682948,,682948,,682969,8,400,,,
sequence,flow.Sequence,4_144,2023-10-31T23:59:20.911Z,,0,,,3296,completion,,,,,false,,,,682948,682948,679635,679628,679652,682969,8,400,,,
trial,html.Screen,4_145_0,2023-10-31T23:59:23.755Z,,0,3,,2840,response,ISIC_0027408.JPG,1,ISIC_2341875.JPG,ISIC_2341875.JPG,false,0,keypress(z),500,685793,685792,682952,682949.0000000001,682969,685818,8,400,46,,ISIC_0027408.JPG
break,html.Screen,4_145_1,2023-10-31T23:59:23.756Z,,0,,,NaN,,,,,,false,,,,685794,685793,,685793,,685818,8,400,,,
break_continue,html.Screen,4_145_2,2023-10-31T23:59:23.757Z,,0,,,NaN,,,,,,false,,,,685794,685794,,685794,,685818,8,400,,,
sequence,flow.Sequence,4_145,2023-10-31T23:59:23.757Z,,0,,,2825,completion,,,,,false,,,,685794,685794,682952,682949.0000000001,682969,685818,8,400,,,
trial,html.Screen,4_146_0,2023-10-31T23:59:26.590Z,,0,3,,2825.0000000001164,response,ISIC_7260492.JPG,2,ISIC_0029863.JPG,ISIC_7260492.JPG,false,1,keypress(m),500,688628,688627.0000000001,685802,685794,685818,688652,8,400,47,,ISIC_0029863.JPG
break,html.Screen,4_146_1,2023-10-31T23:59:26.591Z,,0,,,NaN,,,,,,false,,,,688629,688628,,688628,,688652,8,400,,,
break_continue,html.Screen,4_146_2,2023-10-31T23:59:26.591Z,,0,,,NaN,,,,,,false,,,,688629,688629,,688629,,688652,8,400,,,
sequence,flow.Sequence,4_146,2023-10-31T23:59:26.591Z,,0,,,2811,completion,,,,,false,,,,688629,688629,685802,685794,685818,688652,8,400,,,
trial,html.Screen,4_147_0,2023-10-31T23:59:29.489Z,,0,3,,2891.0000000001164,response,ISIC_0032622.JPG,6,ISIC_0525687.JPG,ISIC_0525687.JPG,false,0,keypress(z),500,691526.0000000001,691526.0000000001,688635,688629,688652,691552,8,400,48,,ISIC_0032622.JPG
break,html.Screen,4_147_1,2023-10-31T23:59:29.490Z,,0,,,NaN,,,,,,false,,,,691527,691527,,691527,,691552,8,400,,,
break_continue,html.Screen,4_147_2,2023-10-31T23:59:29.490Z,,0,,,NaN,,,,,,false,,,,691528,691528,,691527,,691552,8,400,,,
sequence,flow.Sequence,4_147,2023-10-31T23:59:29.490Z,,0,,,2876,completion,,,,,false,,,,691528,691528,688635,688629,688652,691552,8,400,,,
trial,html.Screen,4_148_0,2023-10-31T23:59:33.996Z,,0,3,,4498,response,ISIC_5457889.JPG,7,ISIC_0025277.JPG,ISIC_0025277.JPG,false,0,keypress(z),500,696034,696033,691535,691528,691552,696052,8,400,49,,ISIC_5457889.JPG
break,html.Screen,4_148_1,2023-10-31T23:59:33.997Z,,0,,,NaN,,,,,,false,,,,696035,696035,,696034,,696052,8,400,,,
break_continue,html.Screen,4_148_2,2023-10-31T23:59:33.998Z,,0,,,NaN,,,,,,false,,,,696036,696035,,696035,,696052,8,400,,,
sequence,flow.Sequence,4_148,2023-10-31T23:59:33.998Z,,0,,,4483,completion,,,,,false,,,,696036,696035,691535,691528,691552,696052,8,400,,,
trial,html.Screen,4_149_0,2023-10-31T23:59:37.610Z,,0,3,,3609,response,ISIC_8174881.JPG,3,ISIC_0061624.JPG,ISIC_0061624.JPG,false,0,keypress(z),500,699647,699647,696038,696036,696052,699669,8,400,50,,ISIC_8174881.JPG
break,html.Screen,4_149_1,2023-10-31T23:59:47.615Z,,0,,,10000,timeout,,,,,false,,,,709653,709652,699652,699648,699669,709669,8,400,,,
break_continue,html.Screen,4_149_2,2023-10-31T23:59:49.123Z,,0,,,1554,response,,,,,false,continue,keypress(Space),,711161,711206,709652,709653,709669,711186,8,400,,,
sequence,flow.Sequence,4_149,2023-10-31T23:59:49.123Z,,0,,,15154,completion,,,,,false,,,,711161,711206,696038,696036,696052,711186,8,400,,,
trial,html.Screen,4_150_0,2023-10-31T23:59:52.103Z,,0,4,,2971,response,ISIC_0030951.JPG,2,ISIC_0010723.JPG,ISIC_0010723.JPG,false,0,keypress(z),500,714141,714140,711169,711161,711186,714169,8,400,1,,ISIC_0030951.JPG
break,html.Screen,4_150_1,2023-10-31T23:59:52.104Z,,0,,,NaN,,,,,,false,,,,714142,714141,,714141,,714169,8,400,,,
break_continue,html.Screen,4_150_2,2023-10-31T23:59:52.104Z,,0,,,NaN,,,,,,false,,,,714142,714142,,714142,,714169,8,400,,,
sequence,flow.Sequence,4_150,2023-10-31T23:59:52.104Z,,0,,,2956,completion,,,,,false,,,,714142,714142,711169,711161,711186,714169,8,400,,,
trial,html.Screen,4_151_0,2023-10-31T23:59:55.404Z,,0,4,,3290,response,ISIC_0000441.JPG,6,ISIC_9063429.JPG,ISIC_9063429.JPG,false,0,keypress(z),500,717442,717442,714152,714142,714169,717468,8,400,2,,ISIC_0000441.JPG
break,html.Screen,4_151_1,2023-10-31T23:59:55.406Z,,0,,,NaN,,,,,,false,,,,717444,717443,,717443,,717468,8,400,,,
break_continue,html.Screen,4_151_2,2023-10-31T23:59:55.406Z,,0,,,NaN,,,,,,false,,,,717444,717444,,717444,,717468,8,400,,,
sequence,flow.Sequence,4_151,2023-10-31T23:59:55.406Z,,0,,,3275,completion,,,,,false,,,,717444,717444,714152,714142,714169,717468,8,400,,,
trial,html.Screen,4_152_0,2023-10-31T23:59:58.234Z,,0,4,,2819,response,ISIC_0065775.JPG,7,ISIC_0000287.JPG,ISIC_0000287.JPG,false,0,keypress(z),500,720272,720271,717452,717444,717468,720302,8,400,3,,ISIC_0065775.JPG
break,html.Screen,4_152_1,2023-10-31T23:59:58.235Z,,0,,,NaN,,,,,,false,,,,720273,720273,,720272,,720302,8,400,,,
break_continue,html.Screen,4_152_2,2023-10-31T23:59:58.235Z,,0,,,NaN,,,,,,false,,,,720273,720273,,720273,,720302,8,400,,,
sequence,flow.Sequence,4_152,2023-10-31T23:59:58.235Z,,0,,,2805,completion,,,,,false,,,,720273,720273,717452,717444,717468,720302,8,400,,,
trial,html.Screen,4_153_0,2023-11-01T00:00:00.943Z,,0,4,,2694,response,ISIC_7096389.JPG,3,ISIC_0069093.JPG,ISIC_7096389.JPG,false,1,keypress(m),500,722981,722980,720286,720273,720302,723002,8,400,4,,ISIC_0069093.JPG
break,html.Screen,4_153_1,2023-11-01T00:00:00.944Z,,0,,,NaN,,,,,,false,,,,722982,722982,,722981,,723002,8,400,,,
break_continue,html.Screen,4_153_2,2023-11-01T00:00:00.944Z,,0,,,NaN,,,,,,false,,,,722982,722982,,722982,,723002,8,400,,,
sequence,flow.Sequence,4_153,2023-11-01T00:00:00.944Z,,0,,,2680,completion,,,,,false,,,,722982,722982,720286,720273,720302,723002,8,400,,,
trial,html.Screen,4_154_0,2023-11-01T00:00:03.926Z,,0,4,,2978,response,ISIC_0025289.JPG,1,ISIC_4197990.JPG,ISIC_4197990.JPG,false,0,keypress(z),500,725964,725963,722985,722983.0000000001,723002,725986,8,400,5,,ISIC_0025289.JPG
break,html.Screen,4_154_1,2023-11-01T00:00:03.926Z,,0,,,NaN,,,,,,false,,,,725965,725964,,725964,,725986,8,400,,,
break_continue,html.Screen,4_154_2,2023-11-01T00:00:03.927Z,,0,,,NaN,,,,,,false,,,,725965,725965,,725965,,725986,8,400,,,
sequence,flow.Sequence,4_154,2023-11-01T00:00:03.927Z,,0,,,2963,completion,,,,,false,,,,725965,725965,722985,722982,723002,725986,8,400,,,
trial,html.Screen,4_155_0,2023-11-01T00:00:07.005Z,,0,4,,3075,response,ISIC_0032721.JPG,4,ISIC_4966865.JPG,ISIC_4966865.JPG,false,0,keypress(z),500,729043,729043,725968,725965,725986,729069,8,400,6,,ISIC_0032721.JPG
break,html.Screen,4_155_1,2023-11-01T00:00:07.006Z,,0,,,NaN,,,,,,false,,,,729044,729044,,729044,,729069,8,400,,,
break_continue,html.Screen,4_155_2,2023-11-01T00:00:07.007Z,,0,,,NaN,,,,,,false,,,,729045,729045,,729044,,729069,8,400,,,
sequence,flow.Sequence,4_155,2023-11-01T00:00:07.007Z,,0,,,3059,completion,,,,,false,,,,729045,729045,725968,725965,725986,729069,8,400,,,
trial,html.Screen,4_156_0,2023-11-01T00:00:10.053Z,,0,4,,3039,response,ISIC_4980328.JPG,8,ISIC_7518524.JPG,ISIC_4980328.JPG,false,1,keypress(m),500,732092,732091,729052,729045,729069,732119,8,400,7,,ISIC_7518524.JPG
break,html.Screen,4_156_1,2023-11-01T00:00:10.054Z,,0,,,NaN,,,,,,false,,,,732092,732092,,732092,,732119,8,400,,,
break_continue,html.Screen,4_156_2,2023-11-01T00:00:10.054Z,,0,,,NaN,,,,,,false,,,,732093,732093,,732093,,732119,8,400,,,
sequence,flow.Sequence,4_156,2023-11-01T00:00:10.055Z,,0,,,3024,completion,,,,,false,,,,732093,732093,729052,729045,729069,732119,8,400,,,
trial,html.Screen,4_157_0,2023-11-01T00:00:14.012Z,,0,4,,3948.0000000001164,response,ISIC_5926550.JPG,3,ISIC_7141361.JPG,ISIC_7141361.JPG,false,0,keypress(z),500,736051,736050.0000000001,732102,732093,732119,736069,8,400,8,,ISIC_5926550.JPG
break,html.Screen,4_157_1,2023-11-01T00:00:14.013Z,,0,,,NaN,,,,,,false,,,,736051,736051,,736051,,736069,8,400,,,
break_continue,html.Screen,4_157_2,2023-11-01T00:00:14.013Z,,0,,,NaN,,,,,,false,,,,736052,736052,,736052,,736069,8,400,,,
sequence,flow.Sequence,4_157,2023-11-01T00:00:14.013Z,,0,,,3933,completion,,,,,false,,,,736052,736052,732102,732093,732119,736069,8,400,,,
trial,html.Screen,4_158_0,2023-11-01T00:00:19.309Z,,0,4,,5293,response,ISIC_4811593.JPG,10,ISIC_2884038.JPG,ISIC_2884038.JPG,false,0,keypress(z),500,741347,741347,736054,736052,736069,741369,8,400,9,,ISIC_4811593.JPG
break,html.Screen,4_158_1,2023-11-01T00:00:19.309Z,,0,,,NaN,,,,,,false,,,,741348.0000000001,741348.0000000001,,741347,,741369,8,400,,,
