sender,sender_type,sender_id,timestamp,meta,,blockNo,condition,duration,ended_on,img_left,img_reveal,img_right,loser,practice,response,response_action,selection_duration,time_commit,time_end,time_render,time_run,time_show,time_switch,total_blocks,total_trials,trialNo,url,winner
informed_consent,html.Screen,0,2023-05-02T14:50:34.529Z,"{""labjs_version"":""20.2.4"",""labjs_build"":{""flavor"":""production"",""commit"":""f5b4a49f956347addd546a832a3327688c2c0fef""},""location"":""https://run.pavlovia.org/MurrayBennett/melanoma-2afc/?participant=64653"",""userAgent"":""Mozilla/5.0 (Windows NT 10.0; Win64; x64) AppleWebKit/537.36 (KHTML, like Gecko) Chrome/112.0.0.0 Safari/537.36"",""platform"":""Win32"",""language"":""en-US"",""locale"":""en-US"",""timeZone"":""America/Chicago"",""timezoneOffset"":300,""screen_width"":1920,""screen_height"":1080,""scroll_width"":1920,""scroll_height"":959,""window_innerWidth"":1920,""window_innerHeight"":1007,""devicePixelRatio"":1}",,,,9957.161000035763,response,,,,,,consent,click button,,12952.200000047684,12950.900000035763,2985.413,2986.600000023842,2993.739,12984.191,,,,"{""participant"":""64653""}",
Welcome,html.Screen,1,2023-05-02T14:50:54.099Z,,,,irregular,19536.709000035764,response,,,,,,continue,click button,,32521.700000047684,32520.900000035763,12944.077,12952.300000011921,12984.191,32527.438,,,,,
trial,html.Screen,2_0_0,2023-05-02T14:50:58.357Z,,0,0,,4252.162000023844,response,ISIC_0061792.JPG,,ISIC_4679428.JPG,ISIC_0061792.JPG,true,1,keypress(m),500,36779.700000047684,36779.60000002384,32519.367,32521.80000001192,32527.438,36782.138,1,6,1,,ISIC_4679428.JPG
sequence,flow.Sequence,2_0,2023-05-02T14:50:58.357Z,,0,,,4252.162000023844,completion,,,,,true,,,,36779.90000003576,36779.60000002384,32519.367,32521.80000001192,32527.438,36782.138,1,6,,,
trial,html.Screen,2_1_0,2023-05-02T14:51:05.699Z,,0,0,,7339.262000035764,response,ISIC_0776486.JPG,,ISIC_5199497.JPG,ISIC_5199497.JPG,true,0,keypress(z),500,44121.5,44121.40000003576,36773.724,36779.90000003576,36782.138,44126.008,1,6,2,,ISIC_0776486.JPG
sequence,flow.Sequence,2_1,2023-05-02T14:51:05.699Z,,0,,,7339.262000035764,completion,,,,,true,,,,44121.700000047684,44121.40000003576,36773.724,36779.90000003576,36782.138,44126.008,1,6,,,
trial,html.Screen,2_2_0,2023-05-02T14:51:12.324Z,,0,0,,6620.792000011919,response,ISIC_2556187.JPG,,ISIC_8575776.JPG,ISIC_2556187.JPG,true,1,keypress(m),500,50746.90000003576,50746.80000001192,44117.461,44121.700000047684,44126.008,50753.843,1,6,3,,ISIC_8575776.JPG
sequence,flow.Sequence,2_2,2023-05-02T14:51:12.324Z,,0,,,6620.792000011919,completion,,,,,true,,,,50747,50746.80000001192,44117.461,44121.700000047684,44126.008,50753.843,1,6,,,
trial,html.Screen,2_3_0,2023-05-02T14:51:15.428Z,,0,0,,3081.557000035762,response,ISIC_8141769.JPG,,ISIC_9238366.JPG,ISIC_9238366.JPG,true,0,keypress(z),500,53835.5,53835.40000003576,50745.936,50747.200000047684,50753.843,53842.978,1,6,4,,ISIC_8141769.JPG
sequence,flow.Sequence,2_3,2023-05-02T14:51:15.428Z,,0,,,3081.557000035762,completion,,,,,true,,,,53835.60000002384,53835.40000003576,50745.936,50747.10000002384,50753.843,53842.978,1,6,,,
trial,html.Screen,2_4_0,2023-05-02T14:51:19.023Z,,0,0,,3588.322000011918,response,ISIC_8949026.JPG,,ISIC_9959593.JPG,ISIC_8949026.JPG,true,1,keypress(m),500,57431.5,57431.30000001192,53835.095,53835.700000047684,53842.978,57440.136,1,6,5,,ISIC_9959593.JPG
sequence,flow.Sequence,2_4,2023-05-02T14:51:19.024Z,,0,,,3588.322000011918,completion,,,,,true,,,,57431.700000047684,57431.30000001192,53835.095,53835.700000047684,53842.978,57440.136,1,6,,,
trial,html.Screen,2_5_0,2023-05-02T14:51:22.955Z,,0,0,,3922.764000035764,response,ISIC_0010479.JPG,,ISIC_0460240.JPG,ISIC_0460240.JPG,true,0,keypress(z),500,61363.10000002384,61362.90000003576,57431.55,57431.80000001192,57440.136,61369.985,1,6,6,,ISIC_0010479.JPG
sequence,flow.Sequence,2_5,2023-05-02T14:51:22.955Z,,0,,,3922.764000035764,completion,,,,,true,,,,61363.30000001192,61362.90000003576,57431.55,57431.700000047684,57440.136,61369.985,1,6,,,
loop,flow.Loop,2,2023-05-02T14:51:22.955Z,,,,,28835.462000035765,completion,,,,,true,,,,61363.40000003576,61362.90000003576,32519.367,32521.80000001192,32527.438,61369.985,1,6,,,
exp_instructions,html.Screen,3,2023-05-02T14:51:26.823Z,,,,,3860.1150000238413,response,,,,,,continue,keypress(Space),,65230.60000002384,65230.10000002384,61361.618,61363.40000003576,61369.985,65233.344,,,,,
trial,html.Screen,4_0_0,2023-05-02T14:51:31.913Z,,0,1,,5087.0560000357655,response,ISIC_0030156.JPG,,ISIC_6265473.JPG,ISIC_6265473.JPG,false,0,keypress(z),500,70320.5,70320.40000003576,65225.011,65230.80000001192,65233.344,70329.291,8,400,1,,ISIC_0030156.JPG
break,html.Screen,4_0_1,2023-05-02T14:51:31.913Z,,0,,,NaN,,,,,,false,,,,70321.20000004768,70321,,70320.60000002384,,70329.291,8,400,,,
break_continue,html.Screen,4_0_2,2023-05-02T14:51:31.913Z,,0,,,NaN,,,,,,false,,,,70321.40000003576,70321.30000001192,,70321.30000001192,,70329.291,8,400,,,
sequence,flow.Sequence,4_0,2023-05-02T14:51:31.913Z,,0,,,5087.956000011924,completion,,,,,false,,,,70321.5,70321.30000001192,65225.011,65230.80000001192,65233.344,70329.291,8,400,,,
trial,html.Screen,4_1_0,2023-05-02T14:51:36.278Z,,0,1,,4356.909000047686,response,ISIC_2946577.JPG,,ISIC_1178518.JPG,ISIC_1178518.JPG,false,0,keypress(z),500,74686.30000001192,74686.20000004768,70320.576,70321.5,70329.291,74692.106,8,400,2,,ISIC_2946577.JPG
break,html.Screen,4_1_1,2023-05-02T14:51:36.279Z,,0,,,NaN,,,,,,false,,,,74686.80000001192,74686.5,,74686.40000003576,,74692.106,8,400,,,
break_continue,html.Screen,4_1_2,2023-05-02T14:51:36.279Z,,0,,,NaN,,,,,,false,,,,74687,74686.90000003576,,74686.80000001192,,74692.106,8,400,,,
sequence,flow.Sequence,4_1,2023-05-02T14:51:36.279Z,,0,,,4357.609000035765,completion,,,,,false,,,,74687.10000002384,74686.90000003576,70320.576,70321.5,70329.291,74692.106,8,400,,,
trial,html.Screen,4_2_0,2023-05-02T14:51:39.478Z,,0,1,,3193.594000047684,response,ISIC_3435596.JPG,,ISIC_4099428.JPG,ISIC_4099428.JPG,false,0,keypress(z),500,77885.80000001192,77885.70000004768,74684.025,74687.20000004768,74692.106,77889.511,8,400,3,,ISIC_3435596.JPG
break,html.Screen,4_2_1,2023-05-02T14:51:39.478Z,,0,,,NaN,,,,,,false,,,,77886.20000004768,77886,,77885.90000003576,,77889.511,8,400,,,
break_continue,html.Screen,4_2_2,2023-05-02T14:51:39.478Z,,0,,,NaN,,,,,,false,,,,77886.5,77886.40000003576,,77886.30000001192,,77889.511,8,400,,,
sequence,flow.Sequence,4_2,2023-05-02T14:51:39.479Z,,0,,,3194.294000035763,completion,,,,,false,,,,77886.60000002384,77886.40000003576,74684.025,74687.10000002384,74692.106,77889.511,8,400,,,
trial,html.Screen,4_3_0,2023-05-02T14:51:44.468Z,,0,1,,4986.589000023843,response,ISIC_0003068.JPG,,ISIC_0057692.JPG,ISIC_0003068.JPG,false,1,keypress(m),500,82876.30000001192,82876.10000002384,77881.223,77886.60000002384,77889.511,82885.483,8,400,4,,ISIC_0057692.JPG
break,html.Screen,4_3_1,2023-05-02T14:51:44.469Z,,0,,,NaN,,,,,,false,,,,82876.5,82876.5,,82876.30000001192,,82885.483,8,400,,,
break_continue,html.Screen,4_3_2,2023-05-02T14:51:44.469Z,,0,,,NaN,,,,,,false,,,,82876.70000004768,82876.60000002384,,82876.60000002384,,82885.483,8,400,,,
sequence,flow.Sequence,4_3,2023-05-02T14:51:44.469Z,,0,,,4987.089000023843,completion,,,,,false,,,,82876.80000001192,82876.60000002384,77881.223,77886.60000002384,77889.511,82885.483,8,400,,,
trial,html.Screen,4_4_0,2023-05-02T14:51:48.142Z,,0,1,,3664.817000011928,response,ISIC_0072136.JPG,,ISIC_8036544.JPG,ISIC_8036544.JPG,false,0,keypress(z),500,86550.5,86550.30000001192,82876.988,82876.80000001192,82885.483,86557.281,8,400,5,,ISIC_0072136.JPG
break,html.Screen,4_4_1,2023-05-02T14:51:48.143Z,,0,,,NaN,,,,,,false,,,,86551,86550.70000004768,,86550.60000002384,,86557.281,8,400,,,
break_continue,html.Screen,4_4_2,2023-05-02T14:51:48.143Z,,0,,,NaN,,,,,,false,,,,86551.20000004768,86551.20000004768,,86551.10000002384,,86557.281,8,400,,,
sequence,flow.Sequence,4_4,2023-05-02T14:51:48.143Z,,0,,,3665.717000047691,completion,,,,,false,,,,86551.30000001192,86551.20000004768,82876.988,82876.80000001192,82885.483,86557.281,8,400,,,
trial,html.Screen,4_5_0,2023-05-02T14:51:53.555Z,,0,1,,5405.819000023839,response,ISIC_1925623.JPG,,ISIC_3750329.JPG,ISIC_1925623.JPG,false,1,keypress(m),500,91963.30000001192,91963.10000002384,86548.929,86551.40000003576,86557.281,91969.292,8,400,6,,ISIC_3750329.JPG
break,html.Screen,4_5_1,2023-05-02T14:51:53.556Z,,0,,,NaN,,,,,,false,,,,91963.80000001192,91963.5,,91963.30000001192,,91969.292,8,400,,,
break_continue,html.Screen,4_5_2,2023-05-02T14:51:53.556Z,,0,,,NaN,,,,,,false,,,,91964,91963.90000003576,,91963.90000003576,,91969.292,8,400,,,
sequence,flow.Sequence,4_5,2023-05-02T14:51:53.556Z,,0,,,5406.61900003576,completion,,,,,false,,,,91964.10000002384,91963.90000003576,86548.929,86551.40000003576,86557.281,91969.292,8,400,,,
trial,html.Screen,4_6_0,2023-05-02T14:51:58.683Z,,0,1,,5121.308000023841,response,ISIC_0033799.JPG,,ISIC_0032598.JPG,ISIC_0033799.JPG,false,1,keypress(m),500,97090.70000004768,97090.60000002384,91961.585,91964.20000004768,91969.292,97098.454,8,400,7,,ISIC_0032598.JPG
break,html.Screen,4_6_1,2023-05-02T14:51:58.683Z,,0,,,NaN,,,,,,false,,,,97091.10000002384,97091,,97090.80000001192,,97098.454,8,400,,,
break_continue,html.Screen,4_6_2,2023-05-02T14:51:58.683Z,,0,,,NaN,,,,,,false,,,,97091.5,97091.40000003576,,97091.30000001192,,97098.454,8,400,,,
sequence,flow.Sequence,4_6,2023-05-02T14:51:58.684Z,,0,,,5122.1080000357615,completion,,,,,false,,,,97091.5,97091.40000003576,91961.585,91964.10000002384,91969.292,97098.454,8,400,,,
trial,html.Screen,4_7_0,2023-05-02T14:52:01.913Z,,0,1,,3222.246000047686,response,ISIC_0011779.JPG,,ISIC_0033137.JPG,ISIC_0033137.JPG,false,0,keypress(z),500,100320.90000003576,100320.70000004768,97090.486,97091.60000002384,97098.454,100329.041,8,400,8,,ISIC_0011779.JPG
break,html.Screen,4_7_1,2023-05-02T14:52:01.913Z,,0,,,NaN,,,,,,false,,,,100321.40000003576,100321.10000002384,,100320.90000003576,,100329.041,8,400,,,
break_continue,html.Screen,4_7_2,2023-05-02T14:52:01.914Z,,0,,,NaN,,,,,,false,,,,100321.70000004768,100321.70000004768,,100321.60000002384,,100329.041,8,400,,,
sequence,flow.Sequence,4_7,2023-05-02T14:52:01.914Z,,0,,,3223.246000047686,completion,,,,,false,,,,100321.80000001192,100321.70000004768,97090.486,97091.60000002384,97098.454,100329.041,8,400,,,
trial,html.Screen,4_8_0,2023-05-02T14:52:05.795Z,,0,1,,3874.3590000357653,response,ISIC_0064836.JPG,,ISIC_0082348.JPG,ISIC_0064836.JPG,false,1,keypress(m),500,104203.5,104203.40000003576,100320.847,100321.80000001192,100329.041,104209.079,8,400,9,,ISIC_0082348.JPG
break,html.Screen,4_8_1,2023-05-02T14:52:05.796Z,,0,,,NaN,,,,,,false,,,,104204,104203.80000001192,,104203.60000002384,,104209.079,8,400,,,
break_continue,html.Screen,4_8_2,2023-05-02T14:52:05.796Z,,0,,,NaN,,,,,,false,,,,104204.20000004768,104204.20000004768,,104204.10000002384,,104209.079,8,400,,,
sequence,flow.Sequence,4_8,2023-05-02T14:52:05.796Z,,0,,,3875.1590000476863,completion,,,,,false,,,,104204.30000001192,104204.20000004768,100320.847,100321.80000001192,100329.041,104209.079,8,400,,,
trial,html.Screen,4_9_0,2023-05-02T14:52:08.892Z,,0,1,,3091.121000047686,response,ISIC_0014133.JPG,,ISIC_9244047.JPG,ISIC_9244047.JPG,false,0,keypress(z),500,107300.30000001192,107300.20000004768,104201.107,104204.40000003576,104209.079,107306.746,8,400,10,,ISIC_0014133.JPG
break,html.Screen,4_9_1,2023-05-02T14:52:08.893Z,,0,,,NaN,,,,,,false,,,,107300.80000001192,107300.60000002384,,107300.40000003576,,107306.746,8,400,,,
break_continue,html.Screen,4_9_2,2023-05-02T14:52:08.893Z,,0,,,NaN,,,,,,false,,,,107301.10000002384,107300.90000003576,,107300.90000003576,,107306.746,8,400,,,
sequence,flow.Sequence,4_9,2023-05-02T14:52:08.893Z,,0,,,3091.821000035765,completion,,,,,false,,,,107301.10000002384,107300.90000003576,104201.107,104204.40000003576,104209.079,107306.746,8,400,,,
trial,html.Screen,4_10_0,2023-05-02T14:52:14.044Z,,0,1,,5145.554000011922,response,ISIC_9865814.JPG,,ISIC_0013588.JPG,ISIC_9865814.JPG,false,1,keypress(m),500,112452.40000003576,112452.30000001192,107298.688,107301.20000004768,107306.746,112460.539,8,400,11,,ISIC_0013588.JPG
break,html.Screen,4_10_1,2023-05-02T14:52:14.045Z,,0,,,NaN,,,,,,false,,,,112452.90000003576,112452.70000004768,,112452.5,,112460.539,8,400,,,
break_continue,html.Screen,4_10_2,2023-05-02T14:52:14.045Z,,0,,,NaN,,,,,,false,,,,112453.30000001192,112453.10000002384,,112453.10000002384,,112460.539,8,400,,,
sequence,flow.Sequence,4_10,2023-05-02T14:52:14.045Z,,0,,,5146.354000023843,completion,,,,,false,,,,112453.40000003576,112453.10000002384,107298.688,107301.20000004768,107306.746,112460.539,8,400,,,
trial,html.Screen,4_11_0,2023-05-02T14:52:19.910Z,,0,1,,5857.161000047679,response,ISIC_0030913.JPG,,ISIC_2513481.JPG,ISIC_0030913.JPG,false,1,keypress(m),500,118317.80000001192,118317.70000004768,112452.521,112453.40000003576,112460.539,118322.429,8,400,12,,ISIC_2513481.JPG
break,html.Screen,4_11_1,2023-05-02T14:52:19.910Z,,0,,,NaN,,,,,,false,,,,118318.20000004768,118318.10000002384,,118317.90000003576,,118322.429,8,400,,,
break_continue,html.Screen,4_11_2,2023-05-02T14:52:19.911Z,,0,,,NaN,,,,,,false,,,,118318.70000004768,118318.5,,118318.40000003576,,118322.429,8,400,,,
sequence,flow.Sequence,4_11,2023-05-02T14:52:19.911Z,,0,,,5857.960999999996,completion,,,,,false,,,,118318.70000004768,118318.5,112452.521,112453.40000003576,112460.539,118322.429,8,400,,,
trial,html.Screen,4_12_0,2023-05-02T14:52:25.951Z,,0,1,,6036.77100004768,response,ISIC_0046640.JPG,,ISIC_0015109.JPG,ISIC_0046640.JPG,false,1,keypress(m),500,124359.30000001192,124359.20000004768,118314.141,118318.80000001192,118322.429,124367.328,8,400,13,,ISIC_0015109.JPG
break,html.Screen,4_12_1,2023-05-02T14:52:25.952Z,,0,,,NaN,,,,,,false,,,,124359.70000004768,124359.5,,124359.40000003576,,124367.328,8,400,,,
break_continue,html.Screen,4_12_2,2023-05-02T14:52:25.952Z,,0,,,NaN,,,,,,false,,,,124360.10000002384,124360,,124360,,124367.328,8,400,,,
sequence,flow.Sequence,4_12,2023-05-02T14:52:25.952Z,,0,,,6037.570999999996,completion,,,,,false,,,,124360.10000002384,124360,118314.141,118318.80000001192,118322.429,124367.328,8,400,,,
trial,html.Screen,4_13_0,2023-05-02T14:52:28.983Z,,0,1,,3023.5720000357687,response,ISIC_9034574.JPG,,ISIC_0813423.JPG,ISIC_9034574.JPG,false,1,keypress(m),500,127391,127390.90000003576,124359.13,124360.20000004768,124367.328,127398.324,8,400,14,,ISIC_0813423.JPG
break,html.Screen,4_13_1,2023-05-02T14:52:28.983Z,,0,,,NaN,,,,,,false,,,,127391.5,127391.30000001192,,127391.20000004768,,127398.324,8,400,,,
break_continue,html.Screen,4_13_2,2023-05-02T14:52:28.984Z,,0,,,NaN,,,,,,false,,,,127391.80000001192,127391.70000004768,,127391.60000002384,,127398.324,8,400,,,
sequence,flow.Sequence,4_13,2023-05-02T14:52:28.984Z,,0,,,3024.3720000476897,completion,,,,,false,,,,127391.80000001192,127391.70000004768,124359.13,124360.20000004768,124367.328,127398.324,8,400,,,
trial,html.Screen,4_14_0,2023-05-02T14:52:31.843Z,,0,1,,2852.2760000238486,response,ISIC_9822801.JPG,,ISIC_0054914.JPG,ISIC_9822801.JPG,false,1,keypress(m),500,130250.60000002384,130250.60000002384,127390.177,127391.80000001192,127398.324,130254.012,8,400,15,,ISIC_0054914.JPG
break,html.Screen,4_14_1,2023-05-02T14:52:31.843Z,,0,,,NaN,,,,,,false,,,,130251.10000002384,130250.90000003576,,130250.70000004768,,130254.012,8,400,,,
break_continue,html.Screen,4_14_2,2023-05-02T14:52:31.843Z,,0,,,NaN,,,,,,false,,,,130251.40000003576,130251.30000001192,,130251.30000001192,,130254.012,8,400,,,
sequence,flow.Sequence,4_14,2023-05-02T14:52:31.843Z,,0,,,2852.9760000119277,completion,,,,,false,,,,130251.40000003576,130251.30000001192,127390.177,127391.80000001192,127398.324,130254.012,8,400,,,
trial,html.Screen,4_15_0,2023-05-02T14:52:35.918Z,,0,1,,4071.7880000119185,response,ISIC_4548632.JPG,,ISIC_6178099.JPG,ISIC_4548632.JPG,false,1,keypress(m),500,134325.80000001192,134325.80000001192,130246.694,130251.5,130254.012,134333.992,8,400,16,,ISIC_6178099.JPG
break,html.Screen,4_15_1,2023-05-02T14:52:35.918Z,,0,,,NaN,,,,,,false,,,,134326.40000003576,134326.10000002384,,134326,,134333.992,8,400,,,
break_continue,html.Screen,4_15_2,2023-05-02T14:52:35.919Z,,0,,,NaN,,,,,,false,,,,134326.70000004768,134326.70000004768,,134326.60000002384,,134333.992,8,400,,,
sequence,flow.Sequence,4_15,2023-05-02T14:52:35.919Z,,0,,,4072.6880000476813,completion,,,,,false,,,,134326.80000001192,134326.70000004768,130246.694,130251.5,130254.012,134333.992,8,400,,,
trial,html.Screen,4_16_0,2023-05-02T14:52:40.601Z,,0,1,,4674.708000047685,response,ISIC_0006717.JPG,,ISIC_0034263.JPG,ISIC_0006717.JPG,false,1,keypress(m),500,139008.90000003576,139008.70000004768,134325.953,134326.80000001192,134333.992,139013.363,8,400,17,,ISIC_0034263.JPG
break,html.Screen,4_16_1,2023-05-02T14:52:40.601Z,,0,,,NaN,,,,,,false,,,,139009.30000001192,139009.10000002384,,139009,,139013.363,8,400,,,
break_continue,html.Screen,4_16_2,2023-05-02T14:52:40.602Z,,0,,,NaN,,,,,,false,,,,139009.70000004768,139009.60000002384,,139009.60000002384,,139013.363,8,400,,,
sequence,flow.Sequence,4_16,2023-05-02T14:52:40.602Z,,0,,,4675.6080000238435,completion,,,,,false,,,,139009.70000004768,139009.60000002384,134325.953,134326.80000001192,134333.992,139013.363,8,400,,,
trial,html.Screen,4_17_0,2023-05-02T14:52:50.840Z,,0,1,,10234.437000011909,response,ISIC_8527092.JPG,,ISIC_0058098.JPG,ISIC_8527092.JPG,false,1,keypress(m),500,149248,149247.80000001192,139005.169,139009.80000001192,139013.363,149254.856,8,400,18,,ISIC_0058098.JPG
break,html.Screen,4_17_1,2023-05-02T14:52:50.840Z,,0,,,NaN,,,,,,false,,,,149248.40000003576,149248.30000001192,,149248,,149254.856,8,400,,,
break_continue,html.Screen,4_17_2,2023-05-02T14:52:50.841Z,,0,,,NaN,,,,,,false,,,,149248.90000003576,149248.80000001192,,149248.70000004768,,149254.856,8,400,,,
sequence,flow.Sequence,4_17,2023-05-02T14:52:50.841Z,,0,,,10235.437000011909,completion,,,,,false,,,,149248.90000003576,149248.80000001192,139005.169,139009.80000001192,139013.363,149254.856,8,400,,,
trial,html.Screen,4_18_0,2023-05-02T14:52:54.522Z,,0,1,,3674.544000035763,response,ISIC_8147189.JPG,,ISIC_5507066.JPG,ISIC_8147189.JPG,false,1,keypress(m),500,152929.60000002384,152929.40000003576,149247.316,149248.90000003576,149254.856,152934.984,8,400,19,,ISIC_5507066.JPG
break,html.Screen,4_18_1,2023-05-02T14:52:54.522Z,,0,,,NaN,,,,,,false,,,,152930,152929.80000001192,,152929.70000004768,,152934.984,8,400,,,
break_continue,html.Screen,4_18_2,2023-05-02T14:52:54.522Z,,0,,,NaN,,,,,,false,,,,152930.40000003576,152930.30000001192,,152930.20000004768,,152934.984,8,400,,,
sequence,flow.Sequence,4_18,2023-05-02T14:52:54.522Z,,0,,,3675.444000011921,completion,,,,,false,,,,152930.40000003576,152930.30000001192,149247.316,149248.90000003576,149254.856,152934.984,8,400,,,
trial,html.Screen,4_19_0,2023-05-02T14:53:01.279Z,,0,1,,6751.816000011924,response,ISIC_6289346.JPG,,ISIC_9197665.JPG,ISIC_6289346.JPG,false,1,keypress(m),500,159686.80000001192,159686.80000001192,152927.743,152930.40000003576,152934.984,159700.086,8,400,20,,ISIC_9197665.JPG
break,html.Screen,4_19_1,2023-05-02T14:53:01.279Z,,0,,,NaN,,,,,,false,,,,159687.5,159687.30000001192,,159687,,159700.086,8,400,,,
break_continue,html.Screen,4_19_2,2023-05-02T14:53:01.280Z,,0,,,NaN,,,,,,false,,,,159687.90000003576,159687.80000001192,,159687.60000002384,,159700.086,8,400,,,
sequence,flow.Sequence,4_19,2023-05-02T14:53:01.280Z,,0,,,6752.816000011924,completion,,,,,false,,,,159687.90000003576,159687.80000001192,152927.743,152930.40000003576,152934.984,159700.086,8,400,,,
trial,html.Screen,4_20_0,2023-05-02T14:53:04.473Z,,0,1,,3180.6140000476735,response,ISIC_0029839.JPG,,ISIC_0010797.JPG,ISIC_0029839.JPG,false,1,keypress(m),500,162880.90000003576,162880.70000004768,159679.472,159687.90000003576,159700.086,162885.099,8,400,21,,ISIC_0010797.JPG
break,html.Screen,4_20_1,2023-05-02T14:53:04.473Z,,0,,,NaN,,,,,,false,,,,162881.5,162881.20000004768,,162881,,162885.099,8,400,,,
break_continue,html.Screen,4_20_2,2023-05-02T14:53:04.474Z,,0,,,NaN,,,,,,false,,,,162881.80000001192,162881.70000004768,,162881.60000002384,,162885.099,8,400,,,
sequence,flow.Sequence,4_20,2023-05-02T14:53:04.474Z,,0,,,3181.6140000476735,completion,,,,,false,,,,162881.80000001192,162881.70000004768,159679.472,159687.90000003576,159700.086,162885.099,8,400,,,
trial,html.Screen,4_21_0,2023-05-02T14:53:07.405Z,,0,1,,2928.2010000119335,response,ISIC_0069645.JPG,,ISIC_5343231.JPG,ISIC_5343231.JPG,false,0,keypress(z),500,165813.40000003576,165813.30000001192,162876.884,162881.80000001192,162885.099,165815.914,8,400,22,,ISIC_0069645.JPG
break,html.Screen,4_21_1,2023-05-02T14:53:07.406Z,,0,,,NaN,,,,,,false,,,,165813.90000003576,165813.70000004768,,165813.40000003576,,165815.914,8,400,,,
break_continue,html.Screen,4_21_2,2023-05-02T14:53:07.406Z,,0,,,NaN,,,,,,false,,,,165814.10000002384,165814.10000002384,,165814.10000002384,,165815.914,8,400,,,
sequence,flow.Sequence,4_21,2023-05-02T14:53:07.406Z,,0,,,2929.0010000238544,completion,,,,,false,,,,165814.30000001192,165814.10000002384,162876.884,162881.80000001192,162885.099,165815.914,8,400,,,
trial,html.Screen,4_22_0,2023-05-02T14:53:10.877Z,,0,1,,3468.686000023852,response,ISIC_0033779.JPG,,ISIC_0033405.JPG,ISIC_0033405.JPG,false,0,keypress(z),500,169284.70000004768,169284.60000002384,165808.036,165814.30000001192,165815.914,169287.947,8,400,23,,ISIC_0033779.JPG
break,html.Screen,4_22_1,2023-05-02T14:53:10.877Z,,0,,,NaN,,,,,,false,,,,169285.30000001192,169285,,169284.80000001192,,169287.947,8,400,,,
break_continue,html.Screen,4_22_2,2023-05-02T14:53:10.877Z,,0,,,NaN,,,,,,false,,,,169285.5,169285.40000003576,,169285.40000003576,,169287.947,8,400,,,
sequence,flow.Sequence,4_22,2023-05-02T14:53:10.878Z,,0,,,3469.486000035773,completion,,,,,false,,,,169285.60000002384,169285.40000003576,165808.036,165814.30000001192,165815.914,169287.947,8,400,,,
trial,html.Screen,4_23_0,2023-05-02T14:53:13.605Z,,0,1,,2724.953000035777,response,ISIC_0014703.JPG,,ISIC_8650516.JPG,ISIC_8650516.JPG,false,0,keypress(z),500,172013,172012.90000003576,169280.747,169285.60000002384,169287.947,172019.201,8,400,24,,ISIC_0014703.JPG
break,html.Screen,4_23_1,2023-05-02T14:53:13.605Z,,0,,,NaN,,,,,,false,,,,172013.40000003576,172013.30000001192,,172013.10000002384,,172019.201,8,400,,,
break_continue,html.Screen,4_23_2,2023-05-02T14:53:13.606Z,,0,,,NaN,,,,,,false,,,,172013.90000003576,172013.80000001192,,172013.60000002384,,172019.201,8,400,,,
sequence,flow.Sequence,4_23,2023-05-02T14:53:13.606Z,,0,,,2725.8530000119354,completion,,,,,false,,,,172013.90000003576,172013.80000001192,169280.747,169285.60000002384,169287.947,172019.201,8,400,,,
trial,html.Screen,4_24_0,2023-05-02T14:53:16.568Z,,0,1,,2956.59900001192,response,ISIC_0071492.JPG,,ISIC_0062559.JPG,ISIC_0062559.JPG,false,0,keypress(z),500,174975.90000003576,174975.80000001192,172010.878,172013.90000003576,172019.201,174983.325,8,400,25,,ISIC_0071492.JPG
break,html.Screen,4_24_1,2023-05-02T14:53:16.568Z,,0,,,NaN,,,,,,false,,,,174976.30000001192,174976.10000002384,,174976,,174983.325,8,400,,,
break_continue,html.Screen,4_24_2,2023-05-02T14:53:16.568Z,,0,,,NaN,,,,,,false,,,,174976.5,174976.5,,174976.40000003576,,174983.325,8,400,,,
sequence,flow.Sequence,4_24,2023-05-02T14:53:16.569Z,,0,,,2957.298999999999,completion,,,,,false,,,,174976.60000002384,174976.5,172010.878,172013.90000003576,172019.201,174983.325,8,400,,,
trial,html.Screen,4_25_0,2023-05-02T14:53:21.068Z,,0,1,,4492.375000047672,response,ISIC_5938680.JPG,,ISIC_0000026.JPG,ISIC_5938680.JPG,false,1,keypress(m),500,179475.90000003576,179475.70000004768,174975.229,174976.70000004768,174983.325,179479.483,8,400,26,,ISIC_0000026.JPG
break,html.Screen,4_25_1,2023-05-02T14:53:21.068Z,,0,,,NaN,,,,,,false,,,,179476.30000001192,179476.10000002384,,179475.90000003576,,179479.483,8,400,,,
break_continue,html.Screen,4_25_2,2023-05-02T14:53:21.069Z,,0,,,NaN,,,,,,false,,,,179476.60000002384,179476.5,,179476.40000003576,,179479.483,8,400,,,
sequence,flow.Sequence,4_25,2023-05-02T14:53:21.069Z,,0,,,4493.174999999988,completion,,,,,false,,,,179476.70000004768,179476.5,174975.229,174976.70000004768,174983.325,179479.483,8,400,,,
trial,html.Screen,4_26_0,2023-05-02T14:53:25.888Z,,0,1,,4816.8170000119135,response,ISIC_0011448.JPG,,ISIC_0638889.JPG,ISIC_0638889.JPG,false,0,keypress(z),500,184296.30000001192,184296.30000001192,179471.662,179476.80000001192,179479.483,184300.454,8,400,27,,ISIC_0011448.JPG
break,html.Screen,4_26_1,2023-05-02T14:53:25.889Z,,0,,,NaN,,,,,,false,,,,184296.80000001192,184296.70000004768,,184296.40000003576,,184300.454,8,400,,,
break_continue,html.Screen,4_26_2,2023-05-02T14:53:25.889Z,,0,,,NaN,,,,,,false,,,,184297.20000004768,184297.10000002384,,184297,,184300.454,8,400,,,
sequence,flow.Sequence,4_26,2023-05-02T14:53:25.889Z,,0,,,4817.617000023834,completion,,,,,false,,,,184297.30000001192,184297.10000002384,179471.662,179476.70000004768,179479.483,184300.454,8,400,,,
trial,html.Screen,4_27_0,2023-05-02T14:53:29.220Z,,0,1,,3327.846000011923,response,ISIC_6931712.JPG,,ISIC_0028915.JPG,ISIC_6931712.JPG,false,1,keypress(m),500,187628.40000003576,187628.30000001192,184293.18,184297.30000001192,184300.454,187631.024,8,400,28,,ISIC_0028915.JPG
break,html.Screen,4_27_1,2023-05-02T14:53:29.221Z,,0,,,NaN,,,,,,false,,,,187628.70000004768,187628.60000002384,,187628.5,,187631.024,8,400,,,
break_continue,html.Screen,4_27_2,2023-05-02T14:53:29.221Z,,0,,,NaN,,,,,,false,,,,187629.20000004768,187629.10000002384,,187628.90000003576,,187631.024,8,400,,,
sequence,flow.Sequence,4_27,2023-05-02T14:53:29.221Z,,0,,,3328.646000023844,completion,,,,,false,,,,187629.20000004768,187629.10000002384,184293.18,184297.30000001192,184300.454,187631.024,8,400,,,
trial,html.Screen,4_28_0,2023-05-02T14:53:32.084Z,,0,1,,2860.876000035758,response,ISIC_9668514.JPG,,ISIC_0067206.JPG,ISIC_9668514.JPG,false,1,keypress(m),500,190492,190491.90000003576,187622.955,187629.30000001192,187631.024,190495.389,8,400,29,,ISIC_0067206.JPG
break,html.Screen,4_28_1,2023-05-02T14:53:32.084Z,,0,,,NaN,,,,,,false,,,,190492.5,190492.20000004768,,190492.10000002384,,190495.389,8,400,,,
break_continue,html.Screen,4_28_2,2023-05-02T14:53:32.085Z,,0,,,NaN,,,,,,false,,,,190492.70000004768,190492.70000004768,,190492.60000002384,,190495.389,8,400,,,
sequence,flow.Sequence,4_28,2023-05-02T14:53:32.085Z,,0,,,2861.676000047679,completion,,,,,false,,,,190492.90000003576,190492.70000004768,187622.955,187629.30000001192,187631.024,190495.389,8,400,,,
trial,html.Screen,4_29_0,2023-05-02T14:53:34.980Z,,0,1,,2892.7110000238463,response,ISIC_1314502.JPG,,ISIC_0060481.JPG,ISIC_1314502.JPG,false,1,keypress(m),500,193388.20000004768,193388.10000002384,190487.001,190492.90000003576,190495.389,193392.775,8,400,30,,ISIC_0060481.JPG
break,html.Screen,4_29_1,2023-05-02T14:53:34.981Z,,0,,,NaN,,,,,,false,,,,193388.70000004768,193388.5,,193388.30000001192,,193392.775,8,400,,,
break_continue,html.Screen,4_29_2,2023-05-02T14:53:34.981Z,,0,,,NaN,,,,,,false,,,,193389.10000002384,193389,,193389,,193392.775,8,400,,,
sequence,flow.Sequence,4_29,2023-05-02T14:53:34.981Z,,0,,,2893.6110000000044,completion,,,,,false,,,,193389.30000001192,193389,190487.001,190492.90000003576,190495.389,193392.775,8,400,,,
trial,html.Screen,4_30_0,2023-05-02T14:53:39.381Z,,0,1,,4395.825000023848,response,ISIC_0026460.JPG,,ISIC_4876193.JPG,ISIC_4876193.JPG,false,0,keypress(z),500,197788.80000001192,197788.60000002384,193385.094,193389.30000001192,193392.775,197797.797,8,400,31,,ISIC_0026460.JPG
break,html.Screen,4_30_1,2023-05-02T14:53:39.381Z,,0,,,NaN,,,,,,false,,,,197789.40000003576,197789.10000002384,,197788.90000003576,,197797.797,8,400,,,
break_continue,html.Screen,4_30_2,2023-05-02T14:53:39.382Z,,0,,,NaN,,,,,,false,,,,197790.20000004768,197790.20000004768,,197789.5,,197797.797,8,400,,,
sequence,flow.Sequence,4_30,2023-05-02T14:53:39.382Z,,0,,,4397.4250000476895,completion,,,,,false,,,,197790.30000001192,197790.20000004768,193385.094,193389.30000001192,193392.775,197797.797,8,400,,,
trial,html.Screen,4_31_0,2023-05-02T14:53:45.266Z,,0,1,,5876.203000000009,response,ISIC_5190920.JPG,,ISIC_0082348.JPG,ISIC_0082348.JPG,false,0,keypress(z),500,203674.20000004768,203674,197781.929,197790.30000001192,197797.797,203675.976,8,400,32,,ISIC_5190920.JPG
break,html.Screen,4_31_1,2023-05-02T14:53:45.267Z,,0,,,NaN,,,,,,false,,,,203674.60000002384,203674.30000001192,,203674.30000001192,,203675.976,8,400,,,
break_continue,html.Screen,4_31_2,2023-05-02T14:53:45.267Z,,0,,,NaN,,,,,,false,,,,203674.90000003576,203674.80000001192,,203674.80000001192,,203675.976,8,400,,,
sequence,flow.Sequence,4_31,2023-05-02T14:53:45.267Z,,0,,,5877.0030000119295,completion,,,,,false,,,,203674.90000003576,203674.80000001192,197781.929,197790.30000001192,197797.797,203675.976,8,400,,,
trial,html.Screen,4_32_0,2023-05-02T14:53:48.528Z,,0,1,,3259.9240000357677,response,ISIC_0813342.JPG,,ISIC_0034217.JPG,ISIC_0034217.JPG,false,0,keypress(z),500,206936,206935.90000003576,203667.765,203674.90000003576,203675.976,206939.893,8,400,33,,ISIC_0813342.JPG
break,html.Screen,4_32_1,2023-05-02T14:53:48.528Z,,0,,,NaN,,,,,,false,,,,206936.40000003576,206936.20000004768,,206936.10000002384,,206939.893,8,400,,,
break_continue,html.Screen,4_32_2,2023-05-02T14:53:48.529Z,,0,,,NaN,,,,,,false,,,,206936.70000004768,206936.60000002384,,206936.60000002384,,206939.893,8,400,,,
sequence,flow.Sequence,4_32,2023-05-02T14:53:48.529Z,,0,,,3260.6240000238467,completion,,,,,false,,,,206936.70000004768,206936.60000002384,203667.765,203674.90000003576,203675.976,206939.893,8,400,,,
trial,html.Screen,4_33_0,2023-05-02T14:53:54.836Z,,0,1,,6303.707000023831,response,ISIC_0069536.JPG,,ISIC_0059411.JPG,ISIC_0059411.JPG,false,0,keypress(z),500,213243.70000004768,213243.60000002384,206931.653,206936.80000001192,206939.893,213251.377,8,400,34,,ISIC_0069536.JPG
break,html.Screen,4_33_1,2023-05-02T14:53:54.836Z,,0,,,NaN,,,,,,false,,,,213244.10000002384,213244,,213243.80000001192,,213251.377,8,400,,,
break_continue,html.Screen,4_33_2,2023-05-02T14:53:54.836Z,,0,,,NaN,,,,,,false,,,,213244.40000003576,213244.30000001192,,213244.20000004768,,213251.377,8,400,,,
sequence,flow.Sequence,4_33,2023-05-02T14:53:54.836Z,,0,,,6304.40700001191,completion,,,,,false,,,,213244.5,213244.30000001192,206931.653,206936.70000004768,206939.893,213251.377,8,400,,,
trial,html.Screen,4_34_0,2023-05-02T14:53:59.001Z,,0,1,,4157.323000047676,response,ISIC_0004509.JPG,,ISIC_0030697.JPG,ISIC_0030697.JPG,false,0,keypress(z),500,217408.90000003576,217408.70000004768,213243.382,213244.5,213251.377,217414.394,8,400,35,,ISIC_0004509.JPG
break,html.Screen,4_34_1,2023-05-02T14:53:59.001Z,,0,,,NaN,,,,,,false,,,,217409.30000001192,217409.10000002384,,217409,,217414.394,8,400,,,
break_continue,html.Screen,4_34_2,2023-05-02T14:53:59.002Z,,0,,,NaN,,,,,,false,,,,217409.60000002384,217409.60000002384,,217409.5,,217414.394,8,400,,,
sequence,flow.Sequence,4_34,2023-05-02T14:53:59.002Z,,0,,,4158.223000023834,completion,,,,,false,,,,217409.60000002384,217409.60000002384,213243.382,213244.5,213251.377,217414.394,8,400,,,
trial,html.Screen,4_35_0,2023-05-02T14:54:03.771Z,,0,1,,4764.406000011921,response,ISIC_0071957.JPG,,ISIC_3397174.JPG,ISIC_0071957.JPG,false,1,keypress(m),500,222178.90000003576,222178.80000001192,217407.139,217409.60000002384,217414.394,222185.476,8,400,36,,ISIC_3397174.JPG
break,html.Screen,4_35_1,2023-05-02T14:54:03.771Z,,0,,,NaN,,,,,,false,,,,222179.5,222179.10000002384,,222179.10000002384,,222185.476,8,400,,,
break_continue,html.Screen,4_35_2,2023-05-02T14:54:03.772Z,,0,,,NaN,,,,,,false,,,,222179.70000004768,222179.60000002384,,222179.5,,222185.476,8,400,,,
sequence,flow.Sequence,4_35,2023-05-02T14:54:03.772Z,,0,,,4765.206000023842,completion,,,,,false,,,,222179.70000004768,222179.60000002384,217407.139,217409.60000002384,217414.394,222185.476,8,400,,,
trial,html.Screen,4_36_0,2023-05-02T14:54:06.558Z,,0,1,,2780.6240000238467,response,ISIC_0072418.JPG,,ISIC_0060741.JPG,ISIC_0060741.JPG,false,0,keypress(z),500,224966.20000004768,224966.10000002384,222177.206,222179.80000001192,222185.476,224975.021,8,400,37,,ISIC_0072418.JPG
break,html.Screen,4_36_1,2023-05-02T14:54:06.558Z,,0,,,NaN,,,,,,false,,,,224966.5,224966.40000003576,,224966.20000004768,,224975.021,8,400,,,
break_continue,html.Screen,4_36_2,2023-05-02T14:54:06.559Z,,0,,,NaN,,,,,,false,,,,224966.90000003576,224966.80000001192,,224966.70000004768,,224975.021,8,400,,,
sequence,flow.Sequence,4_36,2023-05-02T14:54:06.559Z,,0,,,2781.324000011926,completion,,,,,false,,,,224966.90000003576,224966.80000001192,222177.206,222179.80000001192,222185.476,224975.021,8,400,,,
trial,html.Screen,4_37_0,2023-05-02T14:54:12.124Z,,0,1,,5556.779000011913,response,ISIC_4129321.JPG,,ISIC_0262770.JPG,ISIC_4129321.JPG,false,1,keypress(m),500,230531.90000003576,230531.80000001192,224966.558,224967,224975.021,230536.79,8,400,38,,ISIC_0262770.JPG
break,html.Screen,4_37_1,2023-05-02T14:54:12.124Z,,0,,,NaN,,,,,,false,,,,230532.30000001192,230532.10000002384,,230532,,230536.79,8,400,,,
break_continue,html.Screen,4_37_2,2023-05-02T14:54:12.125Z,,0,,,NaN,,,,,,false,,,,230532.70000004768,230532.5,,230532.5,,230536.79,8,400,,,
sequence,flow.Sequence,4_37,2023-05-02T14:54:12.125Z,,0,,,5557.478999999992,completion,,,,,false,,,,230532.70000004768,230532.5,224966.558,224967,224975.021,230536.79,8,400,,,
trial,html.Screen,4_38_0,2023-05-02T14:54:15.055Z,,0,1,,2925.709999999992,response,ISIC_0030423.JPG,,ISIC_0010262.JPG,ISIC_0010262.JPG,false,0,keypress(z),500,233462.70000004768,233462.5,230528.943,230532.70000004768,230536.79,233467.619,8,400,39,,ISIC_0030423.JPG
break,html.Screen,4_38_1,2023-05-02T14:54:15.055Z,,0,,,NaN,,,,,,false,,,,233463.20000004768,233462.90000003576,,233462.80000001192,,233467.619,8,400,,,
break_continue,html.Screen,4_38_2,2023-05-02T14:54:15.056Z,,0,,,NaN,,,,,,false,,,,233463.40000003576,233463.40000003576,,233463.30000001192,,233467.619,8,400,,,
sequence,flow.Sequence,4_38,2023-05-02T14:54:15.056Z,,0,,,2926.6100000357546,completion,,,,,false,,,,233463.60000002384,233463.40000003576,230528.943,230532.70000004768,230536.79,233467.619,8,400,,,
trial,html.Screen,4_39_0,2023-05-02T14:54:19.367Z,,0,1,,4307.380999999994,response,ISIC_0034210.JPG,,ISIC_4730433.JPG,ISIC_0034210.JPG,false,1,keypress(m),500,237775.10000002384,237775,233460.306,233463.60000002384,233467.619,237780.718,8,400,40,,ISIC_4730433.JPG
break,html.Screen,4_39_1,2023-05-02T14:54:19.368Z,,0,,,NaN,,,,,,false,,,,237775.60000002384,237775.30000001192,,237775.20000004768,,237780.718,8,400,,,
break_continue,html.Screen,4_39_2,2023-05-02T14:54:19.368Z,,0,,,NaN,,,,,,false,,,,237775.90000003576,237775.80000001192,,237775.70000004768,,237780.718,8,400,,,
sequence,flow.Sequence,4_39,2023-05-02T14:54:19.368Z,,0,,,4308.181000011915,completion,,,,,false,,,,237775.90000003576,237775.80000001192,233460.306,233463.60000002384,233467.619,237780.718,8,400,,,
trial,html.Screen,4_40_0,2023-05-02T14:54:24.128Z,,0,1,,4755.48200004769,response,ISIC_9543945.JPG,,ISIC_8389839.JPG,ISIC_9543945.JPG,false,1,keypress(m),500,242536.30000001192,242536.20000004768,237772.759,237776.10000002384,237780.718,242543.636,8,400,41,,ISIC_8389839.JPG
break,html.Screen,4_40_1,2023-05-02T14:54:24.129Z,,0,,,NaN,,,,,,false,,,,242536.70000004768,242536.5,,242536.40000003576,,242543.636,8,400,,,
break_continue,html.Screen,4_40_2,2023-05-02T14:54:24.129Z,,0,,,NaN,,,,,,false,,,,242537,242536.90000003576,,242536.90000003576,,242543.636,8,400,,,
sequence,flow.Sequence,4_40,2023-05-02T14:54:24.129Z,,0,,,4756.182000035769,completion,,,,,false,,,,242537.10000002384,242536.90000003576,237772.759,237776,237780.718,242543.636,8,400,,,
trial,html.Screen,4_41_0,2023-05-02T14:54:30.213Z,,0,1,,6077.364000000001,response,ISIC_0914168.JPG,,ISIC_0000305.JPG,ISIC_0914168.JPG,false,1,keypress(m),500,248621.10000002384,248621,242535.405,242537.10000002384,242543.636,248630.048,8,400,42,,ISIC_0000305.JPG
break,html.Screen,4_41_1,2023-05-02T14:54:30.214Z,,0,,,NaN,,,,,,false,,,,248621.60000002384,248621.30000001192,,248621.10000002384,,248630.048,8,400,,,
break_continue,html.Screen,4_41_2,2023-05-02T14:54:30.214Z,,0,,,NaN,,,,,,false,,,,248621.90000003576,248621.90000003576,,248621.70000004768,,248630.048,8,400,,,
sequence,flow.Sequence,4_41,2023-05-02T14:54:30.214Z,,0,,,6078.264000035764,completion,,,,,false,,,,248622.10000002384,248621.90000003576,242535.405,242537.10000002384,242543.636,248630.048,8,400,,,
trial,html.Screen,4_42_0,2023-05-02T14:54:33.635Z,,0,1,,3412.852000035753,response,ISIC_0254517.JPG,,ISIC_0058716.JPG,ISIC_0254517.JPG,false,1,keypress(m),500,252043.10000002384,252042.90000003576,248614.068,248622.10000002384,248630.048,252052.323,8,400,43,,ISIC_0058716.JPG
break,html.Screen,4_42_1,2023-05-02T14:54:33.636Z,,0,,,NaN,,,,,,false,,,,252043.80000001192,252043.60000002384,,252043.30000001192,,252052.323,8,400,,,
break_continue,html.Screen,4_42_2,2023-05-02T14:54:33.636Z,,0,,,NaN,,,,,,false,,,,252044.10000002384,252044,,252043.90000003576,,252052.323,8,400,,,
sequence,flow.Sequence,4_42,2023-05-02T14:54:33.636Z,,0,,,3413.95199999999,completion,,,,,false,,,,252044.10000002384,252044,248614.068,248622.10000002384,248630.048,252052.323,8,400,,,
trial,html.Screen,4_43_0,2023-05-02T14:54:36.496Z,,0,1,,2851.3770000476798,response,ISIC_8690205.JPG,,ISIC_0014629.JPG,ISIC_8690205.JPG,false,1,keypress(m),500,254903.90000003576,254903.70000004768,252036.652,252044.20000004768,252052.323,254908.197,8,400,44,,ISIC_0014629.JPG
break,html.Screen,4_43_1,2023-05-02T14:54:36.497Z,,0,,,NaN,,,,,,false,,,,254904.60000002384,254904.40000003576,,254904.10000002384,,254908.197,8,400,,,
break_continue,html.Screen,4_43_2,2023-05-02T14:54:36.497Z,,0,,,NaN,,,,,,false,,,,254905,254904.80000001192,,254904.80000001192,,254908.197,8,400,,,
sequence,flow.Sequence,4_43,2023-05-02T14:54:36.497Z,,0,,,2852.477000011917,completion,,,,,false,,,,254905,254904.80000001192,252036.652,252044.10000002384,252052.323,254908.197,8,400,,,
trial,html.Screen,4_44_0,2023-05-02T14:54:39.152Z,,0,1,,2651.6030000119354,response,ISIC_3338629.JPG,,ISIC_4354896.JPG,ISIC_4354896.JPG,false,0,keypress(z),500,257559.80000001192,257559.80000001192,254900.092,254905.10000002384,254908.197,257564.189,8,400,45,,ISIC_3338629.JPG
break,html.Screen,4_44_1,2023-05-02T14:54:39.153Z,,0,,,NaN,,,,,,false,,,,257560.40000003576,257560.20000004768,,257559.90000003576,,257564.189,8,400,,,
break_continue,html.Screen,4_44_2,2023-05-02T14:54:39.153Z,,0,,,NaN,,,,,,false,,,,257560.70000004768,257560.60000002384,,257560.60000002384,,257564.189,8,400,,,
sequence,flow.Sequence,4_44,2023-05-02T14:54:39.153Z,,0,,,2652.4030000238563,completion,,,,,false,,,,257560.70000004768,257560.60000002384,254900.092,254905.10000002384,254908.197,257564.189,8,400,,,
trial,html.Screen,4_45_0,2023-05-02T14:54:42.190Z,,0,1,,3034.111000011908,response,ISIC_0026909.JPG,,ISIC_9436034.JPG,ISIC_9436034.JPG,false,0,keypress(z),500,260598.40000003576,260598.30000001192,257556.018,257560.80000001192,257564.189,260603.292,8,400,46,,ISIC_0026909.JPG
break,html.Screen,4_45_1,2023-05-02T14:54:42.191Z,,0,,,NaN,,,,,,false,,,,260598.80000001192,260598.60000002384,,260598.40000003576,,260603.292,8,400,,,
break_continue,html.Screen,4_45_2,2023-05-02T14:54:42.191Z,,0,,,NaN,,,,,,false,,,,260599.20000004768,260599.10000002384,,260598.90000003576,,260603.292,8,400,,,
sequence,flow.Sequence,4_45,2023-05-02T14:54:42.191Z,,0,,,3034.911000023829,completion,,,,,false,,,,260599.20000004768,260599.10000002384,257556.018,257560.80000001192,257564.189,260603.292,8,400,,,
trial,html.Screen,4_46_0,2023-05-02T14:54:44.864Z,,0,1,,2668.408000047697,response,ISIC_0012338.JPG,,ISIC_0034050.JPG,ISIC_0012338.JPG,false,1,keypress(m),500,263271.7000000477,263271.7000000477,260595.538,260599.30000001192,260603.292,263276.024,8,400,47,,ISIC_0034050.JPG
break,html.Screen,4_46_1,2023-05-02T14:54:44.864Z,,0,,,NaN,,,,,,false,,,,263272.2000000477,263272,,263271.8000000119,,263276.024,8,400,,,
break_continue,html.Screen,4_46_2,2023-05-02T14:54:44.865Z,,0,,,NaN,,,,,,false,,,,263272.40000003576,263272.40000003576,,263272.3000000119,,263276.024,8,400,,,
sequence,flow.Sequence,4_46,2023-05-02T14:54:44.865Z,,0,,,2669.108000035776,completion,,,,,false,,,,263272.5,263272.40000003576,260595.538,260599.30000001192,260603.292,263276.024,8,400,,,
trial,html.Screen,4_47_0,2023-05-02T14:54:48.091Z,,0,1,,3222.876000035787,response,ISIC_1687004.JPG,,ISIC_0001139.JPG,ISIC_0001139.JPG,false,0,keypress(z),500,266499.10000002384,266498.90000003576,263268.694,263272.5,263276.024,266506.906,8,400,48,,ISIC_1687004.JPG
break,html.Screen,4_47_1,2023-05-02T14:54:48.092Z,,0,,,NaN,,,,,,false,,,,266499.5,266499.2000000477,,266499.2000000477,,266506.906,8,400,,,
break_continue,html.Screen,4_47_2,2023-05-02T14:54:48.092Z,,0,,,NaN,,,,,,false,,,,266499.8000000119,266499.8000000119,,266499.7000000477,,266506.906,8,400,,,
sequence,flow.Sequence,4_47,2023-05-02T14:54:48.092Z,,0,,,3223.776000011945,completion,,,,,false,,,,266499.90000003576,266499.8000000119,263268.694,263272.5,263276.024,266506.906,8,400,,,
trial,html.Screen,4_48_0,2023-05-02T14:54:50.697Z,,0,1,,2597.5939999999828,response,ISIC_2546644.JPG,,ISIC_0015045.JPG,ISIC_2546644.JPG,false,1,keypress(m),500,269104.60000002384,269104.5,266498.685,266499.90000003576,266506.906,269113.149,8,400,49,,ISIC_0015045.JPG
break,html.Screen,4_48_1,2023-05-02T14:54:50.697Z,,0,,,NaN,,,,,,false,,,,269105.10000002384,269104.90000003576,,269104.7000000477,,269113.149,8,400,,,
break_continue,html.Screen,4_48_2,2023-05-02T14:54:50.697Z,,0,,,NaN,,,,,,false,,,,269105.40000003576,269105.40000003576,,269105.10000002384,,269113.149,8,400,,,
sequence,flow.Sequence,4_48,2023-05-02T14:54:50.698Z,,0,,,2598.4940000357456,completion,,,,,false,,,,269105.5,269105.40000003576,266498.685,266499.90000003576,266506.906,269113.149,8,400,,,
trial,html.Screen,4_49_0,2023-05-02T14:54:53.649Z,,0,1,,2943.951000023866,response,ISIC_1067390.JPG,,ISIC_0055924.JPG,ISIC_1067390.JPG,false,1,keypress(m),500,272057.2000000477,272057.10000002384,269104.859,269105.5,269113.149,272060.388,8,400,50,,ISIC_0055924.JPG
break,html.Screen,4_49_1,2023-05-02T14:54:58.641Z,,0,,,4996.064000000013,timeout,,,,,false,,,,277048.60000002384,277048.054,272052.604,272057.3000000119,272060.388,277056.452,8,400,,,
break_continue,html.Screen,4_49_2,2023-05-02T14:55:03.663Z,,0,,,5009.348000011931,response,,,,,false,continue,keypress(Space),,282071.10000002384,282065.8000000119,277048.054,277048.7000000477,277056.452,282077.018,8,400,,,
sequence,flow.Sequence,4_49,2023-05-02T14:55:03.663Z,,0,,,12952.651000011945,completion,,,,,false,,,,282071.10000002384,282065.8000000119,269104.859,269105.5,269113.149,282077.018,8,400,,,
trial,html.Screen,4_50_0,2023-05-02T14:55:06.503Z,,0,2,,2834.182000047702,response,ISIC_0061188.JPG,,ISIC_6020636.JPG,ISIC_6020636.JPG,false,0,keypress(z),500,284911.3000000119,284911.2000000477,282069.311,282071.2000000477,282077.018,284916.309,8,400,1,,ISIC_0061188.JPG
break,html.Screen,4_50_1,2023-05-02T14:55:06.504Z,,0,,,NaN,,,,,,false,,,,284911.8000000119,284911.60000002384,,284911.40000003576,,284916.309,8,400,,,
break_continue,html.Screen,4_50_2,2023-05-02T14:55:06.504Z,,0,,,NaN,,,,,,false,,,,284912,284912,,284911.90000003576,,284916.309,8,400,,,
sequence,flow.Sequence,4_50,2023-05-02T14:55:06.504Z,,0,,,2834.982000000018,completion,,,,,false,,,,284912.10000002384,284912,282069.311,282071.10000002384,282077.018,284916.309,8,400,,,
trial,html.Screen,4_51_0,2023-05-02T14:55:09.449Z,,0,2,,2940.0910000357544,response,ISIC_0027964.JPG,,ISIC_5580000.JPG,ISIC_5580000.JPG,false,0,keypress(z),500,287856.60000002384,287856.40000003576,284907.812,284912.10000002384,284916.309,287863.931,8,400,2,,ISIC_0027964.JPG
break,html.Screen,4_51_1,2023-05-02T14:55:09.449Z,,0,,,NaN,,,,,,false,,,,287857.10000002384,287856.8000000119,,287856.7000000477,,287863.931,8,400,,,
break_continue,html.Screen,4_51_2,2023-05-02T14:55:09.449Z,,0,,,NaN,,,,,,false,,,,287857.40000003576,287857.3000000119,,287857.2000000477,,287863.931,8,400,,,
sequence,flow.Sequence,4_51,2023-05-02T14:55:09.449Z,,0,,,2940.9910000119125,completion,,,,,false,,,,287857.5,287857.3000000119,284907.812,284912.10000002384,284916.309,287863.931,8,400,,,
trial,html.Screen,4_52_0,2023-05-02T14:55:12.187Z,,0,2,,2730.7690000477014,response,ISIC_0064240.JPG,,ISIC_0071481.JPG,ISIC_0071481.JPG,false,0,keypress(z),500,290594.8000000119,290594.7000000477,287855.666,287857.5,287863.931,290603.473,8,400,3,,ISIC_0064240.JPG
break,html.Screen,4_52_1,2023-05-02T14:55:12.187Z,,0,,,NaN,,,,,,false,,,,290595.40000003576,290595.10000002384,,290594.90000003576,,290603.473,8,400,,,
break_continue,html.Screen,4_52_2,2023-05-02T14:55:12.188Z,,0,,,NaN,,,,,,false,,,,290595.7000000477,290595.60000002384,,290595.40000003576,,290603.473,8,400,,,
sequence,flow.Sequence,4_52,2023-05-02T14:55:12.188Z,,0,,,2731.6690000238596,completion,,,,,false,,,,290595.7000000477,290595.60000002384,287855.666,287857.5,287863.931,290603.473,8,400,,,
trial,html.Screen,4_53_0,2023-05-02T14:55:15.048Z,,0,2,,2852.1270000238437,response,ISIC_0872145.JPG,,ISIC_4539674.JPG,ISIC_4539674.JPG,false,0,keypress(z),500,293455.7000000477,293455.60000002384,290594.953,290595.7000000477,290603.473,293459.176,8,400,4,,ISIC_0872145.JPG
break,html.Screen,4_53_1,2023-05-02T14:55:15.048Z,,0,,,NaN,,,,,,false,,,,293456.2000000477,293455.90000003576,,293455.8000000119,,293459.176,8,400,,,
break_continue,html.Screen,4_53_2,2023-05-02T14:55:15.048Z,,0,,,NaN,,,,,,false,,,,293456.5,293456.40000003576,,293456.3000000119,,293459.176,8,400,,,
sequence,flow.Sequence,4_53,2023-05-02T14:55:15.048Z,,0,,,2852.9270000357646,completion,,,,,false,,,,293456.60000002384,293456.40000003576,290594.953,290595.7000000477,290603.473,293459.176,8,400,,,
trial,html.Screen,4_54_0,2023-05-02T14:55:17.577Z,,0,2,,2525.8240000000224,response,ISIC_0029502.JPG,,ISIC_2658858.JPG,ISIC_0029502.JPG,false,1,keypress(m),500,295985.2000000477,295985,293450.938,293456.60000002384,293459.176,295990.439,8,400,5,,ISIC_2658858.JPG
break,html.Screen,4_54_1,2023-05-02T14:55:17.577Z,,0,,,NaN,,,,,,false,,,,295985.60000002384,295985.3000000119,,295985.2000000477,,295990.439,8,400,,,
break_continue,html.Screen,4_54_2,2023-05-02T14:55:17.578Z,,0,,,NaN,,,,,,false,,,,295986,295985.90000003576,,295985.8000000119,,295990.439,8,400,,,
sequence,flow.Sequence,4_54,2023-05-02T14:55:17.578Z,,0,,,2526.724000035785,completion,,,,,false,,,,295986,295985.90000003576,293450.938,293456.60000002384,293459.176,295990.439,8,400,,,
trial,html.Screen,4_55_0,2023-05-02T14:55:22.466Z,,0,2,,4883.161000023829,response,ISIC_0034166.JPG,,ISIC_0024296.JPG,ISIC_0024296.JPG,false,0,keypress(z),500,300873.7000000477,300873.60000002384,295982.239,295986,295990.439,300886.276,8,400,6,,ISIC_0034166.JPG
break,html.Screen,4_55_1,2023-05-02T14:55:22.466Z,,0,,,NaN,,,,,,false,,,,300874,300873.90000003576,,300873.8000000119,,300886.276,8,400,,,
break_continue,html.Screen,4_55_2,2023-05-02T14:55:22.466Z,,0,,,NaN,,,,,,false,,,,300874.10000002384,300874,,300874,,300886.276,8,400,,,
sequence,flow.Sequence,4_55,2023-05-02T14:55:22.466Z,,0,,,4883.560999999987,completion,,,,,false,,,,300874.2000000477,300874,295982.239,295986,295990.439,300886.276,8,400,,,
trial,html.Screen,4_56_0,2023-05-02T14:55:25.230Z,,0,2,,2751.8240000238293,response,ISIC_9024529.JPG,,ISIC_4015508.JPG,ISIC_4015508.JPG,false,0,keypress(z),500,303638.3000000119,303638.10000002384,300878.303,300874.3000000119,300886.276,303642.248,8,400,7,,ISIC_9024529.JPG
break,html.Screen,4_56_1,2023-05-02T14:55:25.231Z,,0,,,NaN,,,,,,false,,,,303638.8000000119,303638.5,,303638.40000003576,,303642.248,8,400,,,
break_continue,html.Screen,4_56_2,2023-05-02T14:55:25.231Z,,0,,,NaN,,,,,,false,,,,303639,303638.90000003576,,303638.90000003576,,303642.248,8,400,,,
sequence,flow.Sequence,4_56,2023-05-02T14:55:25.231Z,,0,,,2752.62400003575,completion,,,,,false,,,,303639.10000002384,303638.90000003576,300878.303,300874.3000000119,300886.276,303642.248,8,400,,,
trial,html.Screen,4_57_0,2023-05-02T14:55:28.326Z,,0,2,,3091.6520000357414,response,ISIC_0057963.JPG,,ISIC_3485482.JPG,ISIC_3485482.JPG,false,0,keypress(z),500,306734,306733.90000003576,303633.973,303639.2000000477,303642.248,306739.848,8,400,8,,ISIC_0057963.JPG
break,html.Screen,4_57_1,2023-05-02T14:55:28.326Z,,0,,,NaN,,,,,,false,,,,306734.40000003576,306734.2000000477,,306734,,306739.848,8,400,,,
break_continue,html.Screen,4_57_2,2023-05-02T14:55:28.327Z,,0,,,NaN,,,,,,false,,,,306734.7000000477,306734.60000002384,,306734.5,,306739.848,8,400,,,
sequence,flow.Sequence,4_57,2023-05-02T14:55:28.327Z,,0,,,3092.3520000238204,completion,,,,,false,,,,306734.8000000119,306734.60000002384,303633.973,303639.2000000477,303642.248,306739.848,8,400,,,
trial,html.Screen,4_58_0,2023-05-02T14:55:31.722Z,,0,2,,3390.2520000238437,response,ISIC_9675304.JPG,,ISIC_0413154.JPG,ISIC_9675304.JPG,false,1,keypress(m),500,310130.2000000477,310130.10000002384,306731.382,306734.8000000119,306739.848,310136.965,8,400,9,,ISIC_0413154.JPG
break,html.Screen,4_58_1,2023-05-02T14:55:31.723Z,,0,,,NaN,,,,,,false,,,,310130.7000000477,310130.40000003576,,310130.3000000119,,310136.965,8,400,,,
break_continue,html.Screen,4_58_2,2023-05-02T14:55:31.723Z,,0,,,NaN,,,,,,false,,,,310131,310130.90000003576,,310130.90000003576,,310136.965,8,400,,,
sequence,flow.Sequence,4_58,2023-05-02T14:55:31.723Z,,0,,,3391.0520000357646,completion,,,,,false,,,,310131.10000002384,310130.90000003576,306731.382,306734.8000000119,306739.848,310136.965,8,400,,,
trial,html.Screen,4_59_0,2023-05-02T14:55:34.503Z,,0,2,,2773.8350000118953,response,ISIC_7748144.JPG,,ISIC_4899386.JPG,ISIC_7748144.JPG,false,1,keypress(m),500,312910.8000000119,312910.8000000119,310128.567,310131.10000002384,310136.965,312917.889,8,400,10,,ISIC_4899386.JPG
break,html.Screen,4_59_1,2023-05-02T14:55:34.503Z,,0,,,NaN,,,,,,false,,,,312911.3000000119,312911,,312910.90000003576,,312917.889,8,400,,,
break_continue,html.Screen,4_59_2,2023-05-02T14:55:34.503Z,,0,,,NaN,,,,,,false,,,,312911.5,312911.40000003576,,312911.3000000119,,312917.889,8,400,,,
sequence,flow.Sequence,4_59,2023-05-02T14:55:34.503Z,,0,,,2774.435000035737,completion,,,,,false,,,,312911.5,312911.40000003576,310128.567,310131.10000002384,310136.965,312917.889,8,400,,,
trial,html.Screen,4_60_0,2023-05-02T14:55:40.236Z,,0,2,,5725.911000011896,response,ISIC_3319229.JPG,,ISIC_0033995.JPG,ISIC_0033995.JPG,false,0,keypress(z),500,318643.90000003576,318643.8000000119,312909.817,312911.60000002384,312917.889,318646.389,8,400,11,,ISIC_3319229.JPG
break,html.Screen,4_60_1,2023-05-02T14:55:40.236Z,,0,,,NaN,,,,,,false,,,,318644.5,318644.2000000477,,318644.10000002384,,318646.389,8,400,,,
break_continue,html.Screen,4_60_2,2023-05-02T14:55:40.237Z,,0,,,NaN,,,,,,false,,,,318644.7000000477,318644.60000002384,,318644.5,,318646.389,8,400,,,
sequence,flow.Sequence,4_60,2023-05-02T14:55:40.237Z,,0,,,5726.711000023817,completion,,,,,false,,,,318644.8000000119,318644.60000002384,312909.817,312911.60000002384,312917.889,318646.389,8,400,,,
trial,html.Screen,4_61_0,2023-05-02T14:55:43.230Z,,0,2,,2991.811000047659,response,ISIC_5610222.JPG,,ISIC_3444719.JPG,ISIC_5610222.JPG,false,1,keypress(m),500,321638.40000003576,321638.2000000477,318638.163,318644.8000000119,318646.389,321644.004,8,400,12,,ISIC_3444719.JPG
break,html.Screen,4_61_1,2023-05-02T14:55:43.231Z,,0,,,NaN,,,,,,false,,,,321638.90000003576,321638.60000002384,,321638.5,,321644.004,8,400,,,
break_continue,html.Screen,4_61_2,2023-05-02T14:55:43.231Z,,0,,,NaN,,,,,,false,,,,321639.10000002384,321639,,321638.90000003576,,321644.004,8,400,,,
sequence,flow.Sequence,4_61,2023-05-02T14:55:43.231Z,,0,,,2992.6109999999753,completion,,,,,false,,,,321639.2000000477,321639,318638.163,318644.8000000119,318646.389,321644.004,8,400,,,
trial,html.Screen,4_62_0,2023-05-02T14:55:45.856Z,,0,2,,2619.7960000119056,response,ISIC_0014545.JPG,,ISIC_0033415.JPG,ISIC_0014545.JPG,false,1,keypress(m),500,324263.8000000119,324263.8000000119,321635.597,321639.2000000477,321644.004,324266.74,8,400,13,,ISIC_0033415.JPG
break,html.Screen,4_62_1,2023-05-02T14:55:45.856Z,,0,,,NaN,,,,,,false,,,,324264.3000000119,324264.10000002384,,324263.90000003576,,324266.74,8,400,,,
break_continue,html.Screen,4_62_2,2023-05-02T14:55:45.856Z,,0,,,NaN,,,,,,false,,,,324264.5,324264.5,,324264.5,,324266.74,8,400,,,
sequence,flow.Sequence,4_62,2023-05-02T14:55:45.857Z,,0,,,2620.4959999999846,completion,,,,,false,,,,324264.60000002384,324264.5,321635.597,321639.2000000477,321644.004,324266.74,8,400,,,
trial,html.Screen,4_63_0,2023-05-02T14:55:50.174Z,,0,2,,4314.760000000009,response,ISIC_5821293.JPG,,ISIC_0055435.JPG,ISIC_0055435.JPG,false,0,keypress(z),500,328581.60000002384,328581.5,324258.309,324264.8000000119,324266.74,328588.163,8,400,14,,ISIC_5821293.JPG
break,html.Screen,4_63_1,2023-05-02T14:55:50.174Z,,0,,,NaN,,,,,,false,,,,328582.10000002384,328581.90000003576,,328581.7000000477,,328588.163,8,400,,,
break_continue,html.Screen,4_63_2,2023-05-02T14:55:50.174Z,,0,,,NaN,,,,,,false,,,,328582.40000003576,328582.2000000477,,328582.2000000477,,328588.163,8,400,,,
sequence,flow.Sequence,4_63,2023-05-02T14:55:50.174Z,,0,,,4315.460000047693,completion,,,,,false,,,,328582.5,328582.2000000477,324258.309,324264.7000000477,324266.74,328588.163,8,400,,,
trial,html.Screen,4_64_0,2023-05-02T14:55:52.997Z,,0,2,,2816.6370000119205,response,ISIC_0523125.JPG,,ISIC_8167374.JPG,ISIC_0523125.JPG,false,1,keypress(m),500,331404.90000003576,331404.8000000119,328579.798,328582.5,328588.163,331410.72,8,400,15,,ISIC_8167374.JPG
break,html.Screen,4_64_1,2023-05-02T14:55:52.997Z,,0,,,NaN,,,,,,false,,,,331405.10000002384,331405.10000002384,,331405,,331410.72,8,400,,,
break_continue,html.Screen,4_64_2,2023-05-02T14:55:52.997Z,,0,,,NaN,,,,,,false,,,,331405.2000000477,331405.2000000477,,331405.2000000477,,331410.72,8,400,,,
sequence,flow.Sequence,4_64,2023-05-02T14:55:52.997Z,,0,,,2817.0370000476833,completion,,,,,false,,,,331405.3000000119,331405.2000000477,328579.798,328582.5,328588.163,331410.72,8,400,,,
trial,html.Screen,4_65_0,2023-05-02T14:55:58.700Z,,0,2,,5696.88000002387,response,ISIC_4658487.JPG,,ISIC_5486725.JPG,ISIC_5486725.JPG,false,0,keypress(z),500,337107.7000000477,337107.60000002384,331402.481,331405.40000003576,331410.72,337114.357,8,400,16,,ISIC_4658487.JPG
break,html.Screen,4_65_1,2023-05-02T14:55:58.700Z,,0,,,NaN,,,,,,false,,,,337108.2000000477,337108,,337107.8000000119,,337114.357,8,400,,,
break_continue,html.Screen,4_65_2,2023-05-02T14:55:58.700Z,,0,,,NaN,,,,,,false,,,,337108.5,337108.40000003576,,337108.3000000119,,337114.357,8,400,,,
sequence,flow.Sequence,4_65,2023-05-02T14:55:58.700Z,,0,,,5697.680000035791,completion,,,,,false,,,,337108.5,337108.40000003576,331402.481,331405.3000000119,331410.72,337114.357,8,400,,,
trial,html.Screen,4_66_0,2023-05-02T14:56:01.791Z,,0,2,,3084.7430000238237,response,ISIC_0029732.JPG,,ISIC_0071132.JPG,ISIC_0029732.JPG,false,1,keypress(m),500,340199.3000000119,340199.10000002384,337106.28,337108.5,337114.357,340203.357,8,400,17,,ISIC_0071132.JPG
break,html.Screen,4_66_1,2023-05-02T14:56:01.792Z,,0,,,NaN,,,,,,false,,,,340199.7000000477,340199.5,,340199.40000003576,,340203.357,8,400,,,
break_continue,html.Screen,4_66_2,2023-05-02T14:56:01.792Z,,0,,,NaN,,,,,,false,,,,340200,340199.90000003576,,340199.90000003576,,340203.357,8,400,,,
sequence,flow.Sequence,4_66,2023-05-02T14:56:01.792Z,,0,,,3085.5430000357446,completion,,,,,false,,,,340200.10000002384,340199.90000003576,337106.28,337108.5,337114.357,340203.357,8,400,,,
trial,html.Screen,4_67_0,2023-05-02T14:56:04.813Z,,0,2,,3017.642999999982,response,ISIC_6606131.JPG,,ISIC_0301568.JPG,ISIC_6606131.JPG,false,1,keypress(m),500,343221.10000002384,343221,340195.171,340200.2000000477,340203.357,343225.884,8,400,18,,ISIC_0301568.JPG
break,html.Screen,4_67_1,2023-05-02T14:56:04.813Z,,0,,,NaN,,,,,,false,,,,343221.60000002384,343221.3000000119,,343221.2000000477,,343225.884,8,400,,,
break_continue,html.Screen,4_67_2,2023-05-02T14:56:04.814Z,,0,,,NaN,,,,,,false,,,,343221.8000000119,343221.7000000477,,343221.7000000477,,343225.884,8,400,,,
sequence,flow.Sequence,4_67,2023-05-02T14:56:04.814Z,,0,,,3018.3430000476656,completion,,,,,false,,,,343221.90000003576,343221.7000000477,340195.171,340200.10000002384,340203.357,343225.884,8,400,,,
trial,html.Screen,4_68_0,2023-05-02T14:56:07.363Z,,0,2,,2544.61599999998,response,ISIC_4130167.JPG,,ISIC_0010364.JPG,ISIC_4130167.JPG,false,1,keypress(m),500,345770.7000000477,345770.5,343217.441,343222,343225.884,345773.78,8,400,19,,ISIC_0010364.JPG
break,html.Screen,4_68_1,2023-05-02T14:56:07.363Z,,0,,,NaN,,,,,,false,,,,345771.10000002384,345770.90000003576,,345770.7000000477,,345773.78,8,400,,,
break_continue,html.Screen,4_68_2,2023-05-02T14:56:07.363Z,,0,,,NaN,,,,,,false,,,,345771.3000000119,345771.2000000477,,345771.10000002384,,345773.78,8,400,,,
sequence,flow.Sequence,4_68,2023-05-02T14:56:07.363Z,,0,,,2545.3160000476637,completion,,,,,false,,,,345771.40000003576,345771.2000000477,343217.441,343222,343225.884,345773.78,8,400,,,
trial,html.Screen,4_69_0,2023-05-02T14:56:09.791Z,,0,2,,2425.420000047656,response,ISIC_1226882.JPG,,ISIC_0027560.JPG,ISIC_1226882.JPG,false,1,keypress(m),500,348199.3000000119,348199.2000000477,345765.348,345771.40000003576,345773.78,348213.357,8,400,20,,ISIC_0027560.JPG
break,html.Screen,4_69_1,2023-05-02T14:56:09.792Z,,0,,,NaN,,,,,,false,,,,348199.60000002384,348199.5,,348199.40000003576,,348213.357,8,400,,,
break_continue,html.Screen,4_69_2,2023-05-02T14:56:09.792Z,,0,,,NaN,,,,,,false,,,,348199.8000000119,348199.8000000119,,348199.7000000477,,348213.357,8,400,,,
sequence,flow.Sequence,4_69,2023-05-02T14:56:09.792Z,,0,,,2426.020000011893,completion,,,,,false,,,,348199.8000000119,348199.8000000119,345765.348,345771.40000003576,345773.78,348213.357,8,400,,,
trial,html.Screen,4_70_0,2023-05-02T14:56:12.355Z,,0,2,,2549.2430000238237,response,ISIC_0760740.JPG,,ISIC_7271718.JPG,ISIC_0760740.JPG,false,1,keypress(m),500,350762.8000000119,350762.60000002384,348205.27,348199.90000003576,348213.357,350777.926,8,400,21,,ISIC_7271718.JPG
break,html.Screen,4_70_1,2023-05-02T14:56:12.355Z,,0,,,NaN,,,,,,false,,,,350763,350762.90000003576,,350762.8000000119,,350777.926,8,400,,,
break_continue,html.Screen,4_70_2,2023-05-02T14:56:12.355Z,,0,,,NaN,,,,,,false,,,,350763.10000002384,350763.10000002384,,350763.10000002384,,350777.926,8,400,,,
sequence,flow.Sequence,4_70,2023-05-02T14:56:12.355Z,,0,,,2549.7430000238237,completion,,,,,false,,,,350763.2000000477,350763.10000002384,348205.27,348199.90000003576,348213.357,350777.926,8,400,,,
trial,html.Screen,4_71_0,2023-05-02T14:56:17.443Z,,0,2,,5073.474000035785,response,ISIC_1444154.JPG,,ISIC_0025964.JPG,ISIC_1444154.JPG,false,1,keypress(m),500,355851.5,355851.40000003576,350769.777,350763.2000000477,350777.926,355856.962,8,400,22,,ISIC_0025964.JPG
break,html.Screen,4_71_1,2023-05-02T14:56:17.443Z,,0,,,NaN,,,,,,false,,,,355852,355851.7000000477,,355851.60000002384,,355856.962,8,400,,,
break_continue,html.Screen,4_71_2,2023-05-02T14:56:17.444Z,,0,,,NaN,,,,,,false,,,,355852.3000000119,355852.2000000477,,355852.10000002384,,355856.962,8,400,,,
sequence,flow.Sequence,4_71,2023-05-02T14:56:17.444Z,,0,,,5074.274000047706,completion,,,,,false,,,,355852.40000003576,355852.2000000477,350769.777,350763.2000000477,350777.926,355856.962,8,400,,,
trial,html.Screen,4_72_0,2023-05-02T14:56:20.329Z,,0,2,,2880.6380000238423,response,ISIC_0002041.JPG,,ISIC_8338755.JPG,ISIC_0002041.JPG,false,1,keypress(m),500,358737.7000000477,358737.60000002384,355848.82,355852.40000003576,355856.962,358746.323,8,400,23,,ISIC_8338755.JPG
break,html.Screen,4_72_1,2023-05-02T14:56:20.330Z,,0,,,NaN,,,,,,false,,,,358738.3000000119,358738,,358737.90000003576,,358746.323,8,400,,,
break_continue,html.Screen,4_72_2,2023-05-02T14:56:20.330Z,,0,,,NaN,,,,,,false,,,,358738.5,358738.5,,358738.40000003576,,358746.323,8,400,,,
sequence,flow.Sequence,4_72,2023-05-02T14:56:20.330Z,,0,,,2881.5380000000005,completion,,,,,false,,,,358738.7000000477,358738.5,355848.82,355852.40000003576,355856.962,358746.323,8,400,,,
trial,html.Screen,4_73_0,2023-05-02T14:56:22.822Z,,0,2,,2484.377000047709,response,ISIC_0025238.JPG,,ISIC_9798721.JPG,ISIC_9798721.JPG,false,0,keypress(z),500,361230.8000000119,361230.7000000477,358738.109,358738.7000000477,358746.323,361235.784,8,400,24,,ISIC_0025238.JPG
break,html.Screen,4_73_1,2023-05-02T14:56:22.823Z,,0,,,NaN,,,,,,false,,,,361231.3000000119,361231,,361230.90000003576,,361235.784,8,400,,,
break_continue,html.Screen,4_73_2,2023-05-02T14:56:22.823Z,,0,,,NaN,,,,,,false,,,,361231.7000000477,361231.60000002384,,361231.5,,361235.784,8,400,,,
sequence,flow.Sequence,4_73,2023-05-02T14:56:22.823Z,,0,,,2485.277000023867,completion,,,,,false,,,,361231.8000000119,361231.60000002384,358738.109,358738.7000000477,358746.323,361235.784,8,400,,,
trial,html.Screen,4_74_0,2023-05-02T14:56:26.727Z,,0,2,,3899.8160000238568,response,ISIC_0027145.JPG,,ISIC_0057192.JPG,ISIC_0027145.JPG,false,1,keypress(m),500,365135.7000000477,365135.60000002384,361227.727,361231.90000003576,361235.784,365140.838,8,400,25,,ISIC_0057192.JPG
break,html.Screen,4_74_1,2023-05-02T14:56:26.728Z,,0,,,NaN,,,,,,false,,,,365136.2000000477,365135.90000003576,,365135.8000000119,,365140.838,8,400,,,
break_continue,html.Screen,4_74_2,2023-05-02T14:56:26.728Z,,0,,,NaN,,,,,,false,,,,365136.40000003576,365136.40000003576,,365136.3000000119,,365140.838,8,400,,,
sequence,flow.Sequence,4_74,2023-05-02T14:56:26.728Z,,0,,,3900.6160000357777,completion,,,,,false,,,,365136.5,365136.40000003576,361227.727,361231.90000003576,361235.784,365140.838,8,400,,,
trial,html.Screen,4_75_0,2023-05-02T14:56:31.964Z,,0,2,,5231.862000047695,response,ISIC_0024226.JPG,,ISIC_4034644.JPG,ISIC_4034644.JPG,false,0,keypress(z),500,370372.8000000119,370372.7000000477,365132.751,365136.60000002384,365140.838,370378.155,8,400,26,,ISIC_0024226.JPG
break,html.Screen,4_75_1,2023-05-02T14:56:31.965Z,,0,,,NaN,,,,,,false,,,,370373.2000000477,370373.10000002384,,370372.90000003576,,370378.155,8,400,,,
break_continue,html.Screen,4_75_2,2023-05-02T14:56:31.965Z,,0,,,NaN,,,,,,false,,,,370373.7000000477,370373.60000002384,,370373.5,,370378.155,8,400,,,
sequence,flow.Sequence,4_75,2023-05-02T14:56:31.965Z,,0,,,5232.762000023853,completion,,,,,false,,,,370373.8000000119,370373.60000002384,365132.751,365136.60000002384,365140.838,370378.155,8,400,,,
trial,html.Screen,4_76_0,2023-05-02T14:56:34.621Z,,0,2,,2651.745000035735,response,ISIC_6434210.JPG,,ISIC_0060946.JPG,ISIC_6434210.JPG,false,1,keypress(m),500,373030,373029.90000003576,370370.013,370373.8000000119,370378.155,373034.294,8,400,27,,ISIC_0060946.JPG
break,html.Screen,4_76_1,2023-05-02T14:56:34.622Z,,0,,,NaN,,,,,,false,,,,373030.5,373030.3000000119,,373030.10000002384,,373034.294,8,400,,,
break_continue,html.Screen,4_76_2,2023-05-02T14:56:34.622Z,,0,,,NaN,,,,,,false,,,,373030.8000000119,373030.7000000477,,373030.7000000477,,373034.294,8,400,,,
sequence,flow.Sequence,4_76,2023-05-02T14:56:34.622Z,,0,,,2652.545000047656,completion,,,,,false,,,,373030.8000000119,373030.7000000477,370370.013,370373.8000000119,370378.155,373034.294,8,400,,,
trial,html.Screen,4_77_0,2023-05-02T14:56:37.133Z,,0,2,,2506.6060000357684,response,ISIC_0055265.JPG,,ISIC_3945916.JPG,ISIC_3945916.JPG,false,0,keypress(z),500,375541.10000002384,375540.90000003576,373026.003,373031,373034.294,375549.082,8,400,28,,ISIC_0055265.JPG
break,html.Screen,4_77_1,2023-05-02T14:56:37.133Z,,0,,,NaN,,,,,,false,,,,375541.40000003576,375541.3000000119,,375541.10000002384,,375549.082,8,400,,,
break_continue,html.Screen,4_77_2,2023-05-02T14:56:37.133Z,,0,,,NaN,,,,,,false,,,,375541.8000000119,375541.8000000119,,375541.7000000477,,375549.082,8,400,,,
sequence,flow.Sequence,4_77,2023-05-02T14:56:37.133Z,,0,,,2507.5060000119265,completion,,,,,false,,,,375541.90000003576,375541.8000000119,373026.003,373031,373034.294,375549.082,8,400,,,
trial,html.Screen,4_78_0,2023-05-02T14:56:40.388Z,,0,2,,3246.918000000005,response,ISIC_0068176.JPG,,ISIC_0033916.JPG,ISIC_0033916.JPG,false,0,keypress(z),500,378796.2000000477,378796,375540.756,375542,375549.082,378804.75,8,400,29,,ISIC_0068176.JPG
break,html.Screen,4_78_1,2023-05-02T14:56:40.388Z,,0,,,NaN,,,,,,false,,,,378796.60000002384,378796.40000003576,,378796.2000000477,,378804.75,8,400,,,
break_continue,html.Screen,4_78_2,2023-05-02T14:56:40.388Z,,0,,,NaN,,,,,,false,,,,378796.90000003576,378796.90000003576,,378796.8000000119,,378804.75,8,400,,,
sequence,flow.Sequence,4_78,2023-05-02T14:56:40.388Z,,0,,,3247.818000035768,completion,,,,,false,,,,378797,378796.90000003576,375540.756,375542,375549.082,378804.75,8,400,,,
trial,html.Screen,4_79_0,2023-05-02T14:56:43.745Z,,0,2,,3348.25,response,ISIC_1185006.JPG,,ISIC_0030694.JPG,ISIC_1185006.JPG,false,1,keypress(m),500,382153.10000002384,382153,378796.344,378797.10000002384,378804.75,382160.057,8,400,30,,ISIC_0030694.JPG
break,html.Screen,4_79_1,2023-05-02T14:56:43.745Z,,0,,,NaN,,,,,,false,,,,382153.7000000477,382153.40000003576,,382153.2000000477,,382160.057,8,400,,,
break_continue,html.Screen,4_79_2,2023-05-02T14:56:43.745Z,,0,,,NaN,,,,,,false,,,,382153.90000003576,382153.8000000119,,382153.7000000477,,382160.057,8,400,,,
sequence,flow.Sequence,4_79,2023-05-02T14:56:43.745Z,,0,,,3349.050000011921,completion,,,,,false,,,,382153.90000003576,382153.8000000119,378796.344,378797,378804.75,382160.057,8,400,,,
trial,html.Screen,4_80_0,2023-05-02T14:56:52.057Z,,0,2,,8305.443000000028,response,ISIC_0060403.JPG,,ISIC_2108849.JPG,ISIC_2108849.JPG,false,0,keypress(z),500,390465.60000002384,390465.5,382151.832,382154,382160.057,390469.705,8,400,31,,ISIC_0060403.JPG
break,html.Screen,4_80_1,2023-05-02T14:56:52.058Z,,0,,,NaN,,,,,,false,,,,390466.10000002384,390465.8000000119,,390465.7000000477,,390469.705,8,400,,,
break_continue,html.Screen,4_80_2,2023-05-02T14:56:52.058Z,,0,,,NaN,,,,,,false,,,,390466.3000000119,390466.3000000119,,390466.2000000477,,390469.705,8,400,,,
sequence,flow.Sequence,4_80,2023-05-02T14:56:52.058Z,,0,,,8306.24300001195,completion,,,,,false,,,,390466.5,390466.3000000119,382151.832,382154,382160.057,390469.705,8,400,,,
trial,html.Screen,4_81_0,2023-05-02T14:56:55.347Z,,0,2,,3285.3950000238256,response,ISIC_0009883.JPG,,ISIC_1831600.JPG,ISIC_0009883.JPG,false,1,keypress(m),500,393755.3000000119,393755.10000002384,390461.438,390466.5,390469.705,393758.613,8,400,32,,ISIC_1831600.JPG
break,html.Screen,4_81_1,2023-05-02T14:56:55.347Z,,0,,,NaN,,,,,,false,,,,393755.8000000119,393755.60000002384,,393755.40000003576,,393758.613,8,400,,,
break_continue,html.Screen,4_81_2,2023-05-02T14:56:55.347Z,,0,,,NaN,,,,,,false,,,,393756,393755.90000003576,,393755.90000003576,,393758.613,8,400,,,
sequence,flow.Sequence,4_81,2023-05-02T14:56:55.348Z,,0,,,3286.1950000357465,completion,,,,,false,,,,393756.10000002384,393755.90000003576,390461.438,390466.5,390469.705,393758.613,8,400,,,
trial,html.Screen,4_82_0,2023-05-02T14:56:58.186Z,,0,2,,2835.687000011909,response,ISIC_0011855.JPG,,ISIC_3926397.JPG,ISIC_3926397.JPG,false,0,keypress(z),500,396594.5,396594.3000000119,393750.326,393756.10000002384,393758.613,396597.957,8,400,33,,ISIC_0011855.JPG
break,html.Screen,4_82_1,2023-05-02T14:56:58.186Z,,0,,,NaN,,,,,,false,,,,396594.90000003576,396594.60000002384,,396594.5,,396597.957,8,400,,,
break_continue,html.Screen,4_82_2,2023-05-02T14:56:58.187Z,,0,,,NaN,,,,,,false,,,,396595.10000002384,396595.10000002384,,396595.10000002384,,396597.957,8,400,,,
sequence,flow.Sequence,4_82,2023-05-02T14:56:58.187Z,,0,,,2836.4870000238298,completion,,,,,false,,,,396595.2000000477,396595.10000002384,393750.326,393756.10000002384,393758.613,396597.957,8,400,,,
trial,html.Screen,4_83_0,2023-05-02T14:57:00.826Z,,0,2,,2635.943000035768,response,ISIC_0054963.JPG,,ISIC_9358630.JPG,ISIC_9358630.JPG,false,0,keypress(z),500,399234,399233.90000003576,396589.573,396595.2000000477,396597.957,399237.377,8,400,34,,ISIC_0054963.JPG
break,html.Screen,4_83_1,2023-05-02T14:57:00.826Z,,0,,,NaN,,,,,,false,,,,399234.60000002384,399234.3000000119,,399234.10000002384,,399237.377,8,400,,,
break_continue,html.Screen,4_83_2,2023-05-02T14:57:00.826Z,,0,,,NaN,,,,,,false,,,,399234.90000003576,399234.8000000119,,399234.7000000477,,399237.377,8,400,,,
sequence,flow.Sequence,4_83,2023-05-02T14:57:00.826Z,,0,,,2636.843000011926,completion,,,,,false,,,,399234.90000003576,399234.8000000119,396589.573,396595.2000000477,396597.957,399237.377,8,400,,,
trial,html.Screen,4_84_0,2023-05-02T14:57:03.474Z,,0,2,,2644.6230000000214,response,ISIC_1615485.JPG,,ISIC_0033911.JPG,ISIC_1615485.JPG,false,1,keypress(m),500,401882.10000002384,401882,399228.986,399235,399237.377,401885.184,8,400,35,,ISIC_0033911.JPG
break,html.Screen,4_84_1,2023-05-02T14:57:03.474Z,,0,,,NaN,,,,,,false,,,,401882.5,401882.40000003576,,401882.2000000477,,401885.184,8,400,,,
break_continue,html.Screen,4_84_2,2023-05-02T14:57:03.474Z,,0,,,NaN,,,,,,false,,,,401882.60000002384,401882.60000002384,,401882.5,,401885.184,8,400,,,
sequence,flow.Sequence,4_84,2023-05-02T14:57:03.474Z,,0,,,2645.2230000238633,completion,,,,,false,,,,401882.7000000477,401882.60000002384,399228.986,399235,399237.377,401885.184,8,400,,,
trial,html.Screen,4_85_0,2023-05-02T14:57:06.842Z,,0,2,,3365.1160000119125,response,ISIC_0058906.JPG,,ISIC_0522926.JPG,ISIC_0522926.JPG,false,0,keypress(z),500,405250.40000003576,405250.3000000119,401877.015,401882.7000000477,401885.184,405257.573,8,400,36,,ISIC_0058906.JPG
break,html.Screen,4_85_1,2023-05-02T14:57:06.842Z,,0,,,NaN,,,,,,false,,,,405250.8000000119,405250.60000002384,,405250.5,,405257.573,8,400,,,
break_continue,html.Screen,4_85_2,2023-05-02T14:57:06.843Z,,0,,,NaN,,,,,,false,,,,405251.2000000477,405251.10000002384,,405251,,405257.573,8,400,,,
sequence,flow.Sequence,4_85,2023-05-02T14:57:06.843Z,,0,,,3365.9160000238335,completion,,,,,false,,,,405251.2000000477,405251.10000002384,401877.015,401882.7000000477,401885.184,405257.573,8,400,,,
trial,html.Screen,4_86_0,2023-05-02T14:57:09.883Z,,0,2,,3033.527000023867,response,ISIC_9808863.JPG,,ISIC_2612661.JPG,ISIC_9808863.JPG,false,1,keypress(m),500,408291.3000000119,408291.10000002384,405249.261,405251.3000000119,405257.573,408296.587,8,400,37,,ISIC_2612661.JPG
break,html.Screen,4_86_1,2023-05-02T14:57:09.883Z,,0,,,NaN,,,,,,false,,,,408291.7000000477,408291.5,,408291.3000000119,,408296.587,8,400,,,
break_continue,html.Screen,4_86_2,2023-05-02T14:57:09.883Z,,0,,,NaN,,,,,,false,,,,408292,408291.90000003576,,408291.8000000119,,408296.587,8,400,,,
sequence,flow.Sequence,4_86,2023-05-02T14:57:09.884Z,,0,,,3034.327000035788,completion,,,,,false,,,,408292.10000002384,408291.90000003576,405249.261,405251.3000000119,405257.573,408296.587,8,400,,,
trial,html.Screen,4_87_0,2023-05-02T14:57:13.623Z,,0,2,,3734.613000047684,response,ISIC_0059350.JPG,,ISIC_1595658.JPG,ISIC_0059350.JPG,false,1,keypress(m),500,412031.3000000119,412031.2000000477,408288.105,408292.2000000477,408296.587,412035.008,8,400,38,,ISIC_1595658.JPG
break,html.Screen,4_87_1,2023-05-02T14:57:13.623Z,,0,,,NaN,,,,,,false,,,,412031.5,412031.5,,412031.3000000119,,412035.008,8,400,,,
break_continue,html.Screen,4_87_2,2023-05-02T14:57:13.623Z,,0,,,NaN,,,,,,false,,,,412031.90000003576,412031.8000000119,,412031.7000000477,,412035.008,8,400,,,
sequence,flow.Sequence,4_87,2023-05-02T14:57:13.623Z,,0,,,3735.2130000119214,completion,,,,,false,,,,412032,412031.8000000119,408288.105,408292.10000002384,408296.587,412035.008,8,400,,,
trial,html.Screen,4_88_0,2023-05-02T14:57:16.279Z,,0,2,,2652.192000047711,response,ISIC_0063551.JPG,,ISIC_1473522.JPG,ISIC_1473522.JPG,false,0,keypress(z),500,414687.40000003576,414687.2000000477,412026.67,412032,412035.008,414691.156,8,400,39,,ISIC_0063551.JPG
break,html.Screen,4_88_1,2023-05-02T14:57:16.279Z,,0,,,NaN,,,,,,false,,,,414687.90000003576,414687.7000000477,,414687.5,,414691.156,8,400,,,
break_continue,html.Screen,4_88_2,2023-05-02T14:57:16.280Z,,0,,,NaN,,,,,,false,,,,414688.2000000477,414688.10000002384,,414688.10000002384,,414691.156,8,400,,,
sequence,flow.Sequence,4_88,2023-05-02T14:57:16.280Z,,0,,,2653.0920000238693,completion,,,,,false,,,,414688.3000000119,414688.10000002384,412026.67,412032,412035.008,414691.156,8,400,,,
trial,html.Screen,4_89_0,2023-05-02T14:57:18.762Z,,0,2,,2479.3439999999828,response,ISIC_0011378.JPG,,ISIC_2876073.JPG,ISIC_2876073.JPG,false,0,keypress(z),500,417170.5,417170.5,414682.824,414688.3000000119,414691.156,417172.389,8,400,40,,ISIC_0011378.JPG
break,html.Screen,4_89_1,2023-05-02T14:57:18.763Z,,0,,,NaN,,,,,,false,,,,417171,417170.8000000119,,417170.7000000477,,417172.389,8,400,,,
break_continue,html.Screen,4_89_2,2023-05-02T14:57:18.763Z,,0,,,NaN,,,,,,false,,,,417171.40000003576,417171.3000000119,,417171.10000002384,,417172.389,8,400,,,
sequence,flow.Sequence,4_89,2023-05-02T14:57:18.763Z,,0,,,2480.1440000119037,completion,,,,,false,,,,417171.40000003576,417171.3000000119,414682.824,414688.3000000119,414691.156,417172.389,8,400,,,
trial,html.Screen,4_90_0,2023-05-02T14:57:22.370Z,,0,2,,3605.311000047659,response,ISIC_0028394.JPG,,ISIC_1738738.JPG,ISIC_0028394.JPG,false,1,keypress(m),500,420777.8000000119,420777.7000000477,417164.291,417171.40000003576,417172.389,420786.08,8,400,41,,ISIC_1738738.JPG
break,html.Screen,4_90_1,2023-05-02T14:57:22.370Z,,0,,,NaN,,,,,,false,,,,420778.2000000477,420778.10000002384,,420777.90000003576,,420786.08,8,400,,,
break_continue,html.Screen,4_90_2,2023-05-02T14:57:22.371Z,,0,,,NaN,,,,,,false,,,,420778.60000002384,420778.40000003576,,420778.40000003576,,420786.08,8,400,,,
sequence,flow.Sequence,4_90,2023-05-02T14:57:22.371Z,,0,,,3606.011000035738,completion,,,,,false,,,,420778.60000002384,420778.40000003576,417164.291,417171.40000003576,417172.389,420786.08,8,400,,,
trial,html.Screen,4_91_0,2023-05-02T14:57:25.579Z,,0,2,,3200.9199999999837,response,ISIC_1729351.JPG,,ISIC_7642591.JPG,ISIC_7642591.JPG,false,0,keypress(z),500,423987.10000002384,423987,420777.719,420778.7000000477,420786.08,423991.687,8,400,42,,ISIC_1729351.JPG
break,html.Screen,4_91_1,2023-05-02T14:57:25.580Z,,0,,,NaN,,,,,,false,,,,423987.7000000477,423987.40000003576,,423987.2000000477,,423991.687,8,400,,,
break_continue,html.Screen,4_91_2,2023-05-02T14:57:25.580Z,,0,,,NaN,,,,,,false,,,,423987.90000003576,423987.90000003576,,423987.8000000119,,423991.687,8,400,,,
sequence,flow.Sequence,4_91,2023-05-02T14:57:25.580Z,,0,,,3201.8200000357465,completion,,,,,false,,,,423988,423987.90000003576,420777.719,420778.7000000477,420786.08,423991.687,8,400,,,
trial,html.Screen,4_92_0,2023-05-02T14:57:28.332Z,,0,2,,2748.8130000000237,response,ISIC_0011140.JPG,,ISIC_0015041.JPG,ISIC_0011140.JPG,false,1,keypress(m),500,426740.60000002384,426740.5,423983.54,423988.10000002384,423991.687,426747.944,8,400,43,,ISIC_0015041.JPG
break,html.Screen,4_92_1,2023-05-02T14:57:28.333Z,,0,,,NaN,,,,,,false,,,,426741.10000002384,426740.90000003576,,426740.7000000477,,426747.944,8,400,,,
break_continue,html.Screen,4_92_2,2023-05-02T14:57:28.333Z,,0,,,NaN,,,,,,false,,,,426741.3000000119,426741.3000000119,,426741.3000000119,,426747.944,8,400,,,
sequence,flow.Sequence,4_92,2023-05-02T14:57:28.333Z,,0,,,2749.6130000119447,completion,,,,,false,,,,426741.5,426741.3000000119,423983.54,423988,423991.687,426747.944,8,400,,,
trial,html.Screen,4_93_0,2023-05-02T14:57:31.668Z,,0,2,,3327.756000047666,response,ISIC_7011122.JPG,,ISIC_0879097.JPG,ISIC_7011122.JPG,false,1,keypress(m),500,430075.8000000119,430075.7000000477,426739.37,426741.5,426747.944,430078.283,8,400,44,,ISIC_0879097.JPG
break,html.Screen,4_93_1,2023-05-02T14:57:31.668Z,,0,,,NaN,,,,,,false,,,,430076.3000000119,430076.10000002384,,430075.90000003576,,430078.283,8,400,,,
break_continue,html.Screen,4_93_2,2023-05-02T14:57:31.668Z,,0,,,NaN,,,,,,false,,,,430076.5,430076.5,,430076.5,,430078.283,8,400,,,
sequence,flow.Sequence,4_93,2023-05-02T14:57:31.669Z,,0,,,3328.5559999999823,completion,,,,,false,,,,430076.60000002384,430076.5,426739.37,426741.5,426747.944,430078.283,8,400,,,
trial,html.Screen,4_94_0,2023-05-02T14:57:34.779Z,,0,2,,3109.217000000004,response,ISIC_4559115.JPG,,ISIC_0062111.JPG,ISIC_4559115.JPG,false,1,keypress(m),500,433187.60000002384,433187.5,430070.006,430076.60000002384,430078.283,433192.326,8,400,45,,ISIC_0062111.JPG
break,html.Screen,4_94_1,2023-05-02T14:57:34.780Z,,0,,,NaN,,,,,,false,,,,433188.10000002384,433187.90000003576,,433187.60000002384,,433192.326,8,400,,,
break_continue,html.Screen,4_94_2,2023-05-02T14:57:34.780Z,,0,,,NaN,,,,,,false,,,,433188.3000000119,433188.3000000119,,433188.2000000477,,433192.326,8,400,,,
sequence,flow.Sequence,4_94,2023-05-02T14:57:34.780Z,,0,,,3110.017000011925,completion,,,,,false,,,,433188.5,433188.3000000119,430070.006,430076.60000002384,430078.283,433192.326,8,400,,,
trial,html.Screen,4_95_0,2023-05-02T14:57:37.882Z,,0,2,,3097.774000023841,response,ISIC_0056110.JPG,,ISIC_3031937.JPG,ISIC_3031937.JPG,false,0,keypress(z),500,436290.3000000119,436290.10000002384,433183.88,433188.5,433192.326,436298.232,8,400,46,,ISIC_0056110.JPG
break,html.Screen,4_95_1,2023-05-02T14:57:37.883Z,,0,,,NaN,,,,,,false,,,,436290.8000000119,436290.5,,436290.40000003576,,436298.232,8,400,,,
break_continue,html.Screen,4_95_2,2023-05-02T14:57:37.883Z,,0,,,NaN,,,,,,false,,,,436291,436290.90000003576,,436290.90000003576,,436298.232,8,400,,,
sequence,flow.Sequence,4_95,2023-05-02T14:57:37.883Z,,0,,,3098.574000035762,completion,,,,,false,,,,436291.10000002384,436290.90000003576,433183.88,433188.5,433192.326,436298.232,8,400,,,
trial,html.Screen,4_96_0,2023-05-02T14:57:43.122Z,,0,2,,5231.767999999982,response,ISIC_7266604.JPG,,ISIC_6899527.JPG,ISIC_6899527.JPG,false,0,keypress(z),500,441530.2000000477,441530,436289.711,436291.2000000477,436298.232,441535.371,8,400,47,,ISIC_7266604.JPG
break,html.Screen,4_96_1,2023-05-02T14:57:43.123Z,,0,,,NaN,,,,,,false,,,,441530.8000000119,441530.60000002384,,441530.3000000119,,441535.371,8,400,,,
break_continue,html.Screen,4_96_2,2023-05-02T14:57:43.123Z,,0,,,NaN,,,,,,false,,,,441531.10000002384,441531,,441530.90000003576,,441535.371,8,400,,,
sequence,flow.Sequence,4_96,2023-05-02T14:57:43.123Z,,0,,,5232.767999999982,completion,,,,,false,,,,441531.10000002384,441531,436289.711,436291.10000002384,436298.232,441535.371,8,400,,,
trial,html.Screen,4_97_0,2023-05-02T14:57:45.703Z,,0,2,,2575.4290000119363,response,ISIC_0032547.JPG,,ISIC_1781273.JPG,ISIC_1781273.JPG,false,0,keypress(z),500,444110.90000003576,444110.8000000119,441527.048,441531.2000000477,441535.371,444116.616,8,400,48,,ISIC_0032547.JPG
break,html.Screen,4_97_1,2023-05-02T14:57:45.703Z,,0,,,NaN,,,,,,false,,,,444111.3000000119,444111.10000002384,,444111,,444116.616,8,400,,,
break_continue,html.Screen,4_97_2,2023-05-02T14:57:45.704Z,,0,,,NaN,,,,,,false,,,,444111.7000000477,444111.5,,444111.40000003576,,444116.616,8,400,,,
sequence,flow.Sequence,4_97,2023-05-02T14:57:45.704Z,,0,,,2576.1290000000154,completion,,,,,false,,,,444111.7000000477,444111.5,441527.048,441531.2000000477,441535.371,444116.616,8,400,,,
trial,html.Screen,4_98_0,2023-05-02T14:57:49.346Z,,0,2,,3637.38400000002,response,ISIC_9829805.JPG,,ISIC_7109582.JPG,ISIC_9829805.JPG,false,1,keypress(m),500,447754.10000002384,447754,444108.279,444111.8000000119,444116.616,447775.225,8,400,49,,ISIC_7109582.JPG
break,html.Screen,4_98_1,2023-05-02T14:57:49.347Z,,0,,,NaN,,,,,,false,,,,447754.60000002384,447754.40000003576,,447754.2000000477,,447775.225,8,400,,,
break_continue,html.Screen,4_98_2,2023-05-02T14:57:49.347Z,,0,,,NaN,,,,,,false,,,,447754.8000000119,447754.8000000119,,447754.7000000477,,447775.225,8,400,,,
sequence,flow.Sequence,4_98,2023-05-02T14:57:49.347Z,,0,,,3638.184000011941,completion,,,,,false,,,,447754.90000003576,447754.8000000119,444108.279,444111.8000000119,444116.616,447775.225,8,400,,,
trial,html.Screen,4_99_0,2023-05-02T14:57:53.032Z,,0,2,,3664.375000023865,response,ISIC_0054364.JPG,,ISIC_5482805.JPG,ISIC_5482805.JPG,false,0,keypress(z),500,451439.8000000119,451439.60000002384,447746.954,447754.90000003576,447775.225,451443.867,8,400,50,,ISIC_0054364.JPG
break,html.Screen,4_99_1,2023-05-02T14:57:58.023Z,,0,,,4995.70199999999,timeout,,,,,false,,,,456431.5,456431.281,451435.514,451439.90000003576,451443.867,456439.569,8,400,,,
break_continue,html.Screen,4_99_2,2023-05-02T14:57:59.719Z,,0,,,1679.5310000238242,response,,,,,false,continue,keypress(Space),,458127.3000000119,458119.10000002384,456431.281,456431.60000002384,456439.569,458129.723,8,400,,,
sequence,flow.Sequence,4_99,2023-05-02T14:57:59.719Z,,0,,,10343.875000023865,completion,,,,,false,,,,458127.40000003576,458119.10000002384,447746.954,447754.90000003576,447775.225,458129.723,8,400,,,
trial,html.Screen,4_100_0,2023-05-02T14:58:02.466Z,,0,3,,2744.3770000238437,response,ISIC_0010140.JPG,,ISIC_7621389.JPG,ISIC_7621389.JPG,false,0,keypress(z),500,460874.2000000477,460874.10000002384,458121.428,458127.5,458129.723,460877.477,8,400,1,,ISIC_0010140.JPG
break,html.Screen,4_100_1,2023-05-02T14:58:02.467Z,,0,,,NaN,,,,,,false,,,,460874.60000002384,460874.40000003576,,460874.3000000119,,460877.477,8,400,,,
break_continue,html.Screen,4_100_2,2023-05-02T14:58:02.467Z,,0,,,NaN,,,,,,false,,,,460874.8000000119,460874.8000000119,,460874.8000000119,,460877.477,8,400,,,
sequence,flow.Sequence,4_100,2023-05-02T14:58:02.467Z,,0,,,2745.077000011923,completion,,,,,false,,,,460875,460874.8000000119,458121.428,458127.40000003576,458129.723,460877.477,8,400,,,
trial,html.Screen,4_101_0,2023-05-02T14:58:05.291Z,,0,3,,2821.8230000119074,response,ISIC_0000314.JPG,,ISIC_1067390.JPG,ISIC_1067390.JPG,false,0,keypress(z),500,463699.40000003576,463699.3000000119,460868.915,460875,460877.477,463708.592,8,400,2,,ISIC_0000314.JPG
break,html.Screen,4_101_1,2023-05-02T14:58:05.292Z,,0,,,NaN,,,,,,false,,,,463699.8000000119,463699.7000000477,,463699.5,,463708.592,8,400,,,
break_continue,html.Screen,4_101_2,2023-05-02T14:58:05.292Z,,0,,,NaN,,,,,,false,,,,463700.2000000477,463700.2000000477,,463700,,463708.592,8,400,,,
sequence,flow.Sequence,4_101,2023-05-02T14:58:05.292Z,,0,,,2822.72300004767,completion,,,,,false,,,,463700.3000000119,463700.2000000477,460868.915,460875,460877.477,463708.592,8,400,,,
trial,html.Screen,4_102_0,2023-05-02T14:58:08.401Z,,0,3,,3100.1080000476795,response,ISIC_0822238.JPG,,ISIC_0010788.JPG,ISIC_0822238.JPG,false,1,keypress(m),500,466808.90000003576,466808.7000000477,463691.754,463700.3000000119,463708.592,466814.189,8,400,3,,ISIC_0010788.JPG
break,html.Screen,4_102_1,2023-05-02T14:58:08.401Z,,0,,,NaN,,,,,,false,,,,466809.40000003576,466809.2000000477,,466809,,466814.189,8,400,,,
break_continue,html.Screen,4_102_2,2023-05-02T14:58:08.402Z,,0,,,NaN,,,,,,false,,,,466809.60000002384,466809.5,,466809.5,,466814.189,8,400,,,
sequence,flow.Sequence,4_102,2023-05-02T14:58:08.402Z,,0,,,3100.907999999996,completion,,,,,false,,,,466809.7000000477,466809.5,463691.754,463700.3000000119,463708.592,466814.189,8,400,,,
trial,html.Screen,4_103_0,2023-05-02T14:58:10.939Z,,0,3,,2533.111000011908,response,ISIC_0068895.JPG,,ISIC_0071966.JPG,ISIC_0071966.JPG,false,0,keypress(z),500,469347.3000000119,469347.3000000119,466805.933,466809.7000000477,466814.189,469353.953,8,400,4,,ISIC_0068895.JPG
break,html.Screen,4_103_1,2023-05-02T14:58:10.940Z,,0,,,NaN,,,,,,false,,,,469348,469347.7000000477,,469347.5,,469353.953,8,400,,,
break_continue,html.Screen,4_103_2,2023-05-02T14:58:10.940Z,,0,,,NaN,,,,,,false,,,,469348.2000000477,469348.10000002384,,469348.10000002384,,469353.953,8,400,,,
sequence,flow.Sequence,4_103,2023-05-02T14:58:10.940Z,,0,,,2533.911000023829,completion,,,,,false,,,,469348.3000000119,469348.10000002384,466805.933,466809.7000000477,466814.189,469353.953,8,400,,,
trial,html.Screen,4_104_0,2023-05-02T14:58:14.094Z,,0,3,,3147.8470000119414,response,ISIC_2769292.JPG,,ISIC_8791744.JPG,ISIC_8791744.JPG,false,0,keypress(z),500,472502,472501.8000000119,469345.494,469348.3000000119,469353.953,472509.423,8,400,5,,ISIC_2769292.JPG
break,html.Screen,4_104_1,2023-05-02T14:58:14.094Z,,0,,,NaN,,,,,,false,,,,472502.2000000477,472502.2000000477,,472502.10000002384,,472509.423,8,400,,,
break_continue,html.Screen,4_104_2,2023-05-02T14:58:14.095Z,,0,,,NaN,,,,,,false,,,,472502.60000002384,472502.40000003576,,472502.3000000119,,472509.423,8,400,,,
sequence,flow.Sequence,4_104,2023-05-02T14:58:14.095Z,,0,,,3148.4470000357833,completion,,,,,false,,,,472502.60000002384,472502.40000003576,469345.494,469348.3000000119,469353.953,472509.423,8,400,,,
trial,html.Screen,4_105_0,2023-05-02T14:58:16.679Z,,0,3,,2577.277000047674,response,ISIC_0064284.JPG,,ISIC_0001129.JPG,ISIC_0001129.JPG,false,0,keypress(z),500,475086.8000000119,475086.7000000477,472500.906,472502.8000000119,472509.423,475090.722,8,400,6,,ISIC_0064284.JPG
break,html.Screen,4_105_1,2023-05-02T14:58:16.679Z,,0,,,NaN,,,,,,false,,,,475087.3000000119,475087,,475087,,475090.722,8,400,,,
break_continue,html.Screen,4_105_2,2023-05-02T14:58:16.680Z,,0,,,NaN,,,,,,false,,,,475087.7000000477,475087.60000002384,,475087.5,,475090.722,8,400,,,
sequence,flow.Sequence,4_105,2023-05-02T14:58:16.680Z,,0,,,2578.177000023832,completion,,,,,false,,,,475087.7000000477,475087.60000002384,472500.906,472502.8000000119,472509.423,475090.722,8,400,,,
trial,html.Screen,4_106_0,2023-05-02T14:58:19.605Z,,0,3,,2922.478000047675,response,ISIC_0067577.JPG,,ISIC_0065823.JPG,ISIC_0067577.JPG,false,1,keypress(m),500,478013.3000000119,478013.2000000477,475082.317,475087.8000000119,475090.722,478021.688,8,400,7,,ISIC_0065823.JPG
break,html.Screen,4_106_1,2023-05-02T14:58:19.605Z,,0,,,NaN,,,,,,false,,,,478013.7000000477,478013.60000002384,,478013.40000003576,,478021.688,8,400,,,
break_continue,html.Screen,4_106_2,2023-05-02T14:58:19.606Z,,0,,,NaN,,,,,,false,,,,478014,478013.90000003576,,478013.8000000119,,478021.688,8,400,,,
sequence,flow.Sequence,4_106,2023-05-02T14:58:19.606Z,,0,,,2923.178000035754,completion,,,,,false,,,,478014.10000002384,478013.90000003576,475082.317,475087.7000000477,475090.722,478021.688,8,400,,,
trial,html.Screen,4_107_0,2023-05-02T14:58:22.226Z,,0,3,,2613.112000011897,response,ISIC_2192973.JPG,,ISIC_0010385.JPG,ISIC_2192973.JPG,false,1,keypress(m),500,480634.90000003576,480634.8000000119,478013.184,478014.10000002384,478021.688,480645.523,8,400,8,,ISIC_0010385.JPG
break,html.Screen,4_107_1,2023-05-02T14:58:22.227Z,,0,,,NaN,,,,,,false,,,,480635.3000000119,480635.10000002384,,480635,,480645.523,8,400,,,
break_continue,html.Screen,4_107_2,2023-05-02T14:58:22.227Z,,0,,,NaN,,,,,,false,,,,480635.60000002384,480635.5,,480635.5,,480645.523,8,400,,,
sequence,flow.Sequence,4_107,2023-05-02T14:58:22.227Z,,0,,,2613.8119999999763,completion,,,,,false,,,,480635.7000000477,480635.5,478013.184,478014.10000002384,478021.688,480645.523,8,400,,,
trial,html.Screen,4_108_0,2023-05-02T14:58:27.085Z,,0,3,,4847.877000035776,response,ISIC_0385633.JPG,,ISIC_4897852.JPG,ISIC_4897852.JPG,false,0,keypress(z),500,485493.5,485493.40000003576,480627.852,480635.7000000477,480645.523,485507.091,8,400,9,,ISIC_0385633.JPG
break,html.Screen,4_108_1,2023-05-02T14:58:27.085Z,,0,,,NaN,,,,,,false,,,,485493.8000000119,485493.7000000477,,485493.60000002384,,485507.091,8,400,,,
break_continue,html.Screen,4_108_2,2023-05-02T14:58:27.085Z,,0,,,NaN,,,,,,false,,,,485493.90000003576,485493.90000003576,,485493.8000000119,,485507.091,8,400,,,
sequence,flow.Sequence,4_108,2023-05-02T14:58:27.086Z,,0,,,4848.377000035776,completion,,,,,false,,,,485494,485493.90000003576,480627.852,480635.7000000477,480645.523,485507.091,8,400,,,
trial,html.Screen,4_109_0,2023-05-02T14:58:29.611Z,,0,3,,2512.609000047669,response,ISIC_0010671.JPG,,ISIC_2532039.JPG,ISIC_2532039.JPG,false,0,keypress(z),500,488019.90000003576,488019.7000000477,485498.819,485494,485507.091,488034.502,8,400,10,,ISIC_0010671.JPG
break,html.Screen,4_109_1,2023-05-02T14:58:29.612Z,,0,,,NaN,,,,,,false,,,,488020.3000000119,488020.2000000477,,488019.90000003576,,488034.502,8,400,,,
break_continue,html.Screen,4_109_2,2023-05-02T14:58:29.612Z,,0,,,NaN,,,,,,false,,,,488020.60000002384,488020.60000002384,,488020.40000003576,,488034.502,8,400,,,
sequence,flow.Sequence,4_109,2023-05-02T14:58:29.612Z,,0,,,2513.509000023827,completion,,,,,false,,,,488020.8000000119,488020.60000002384,485498.819,485494,485507.091,488034.502,8,400,,,
trial,html.Screen,4_110_0,2023-05-02T14:58:32.246Z,,0,3,,2619.4980000000214,response,ISIC_0011260.JPG,,ISIC_1850674.JPG,ISIC_1850674.JPG,false,0,keypress(z),500,490654.10000002384,490654,488013.068,488020.8000000119,488034.502,490660.899,8,400,11,,ISIC_0011260.JPG
break,html.Screen,4_110_1,2023-05-02T14:58:32.246Z,,0,,,NaN,,,,,,false,,,,490654.5,490654.40000003576,,490654.2000000477,,490660.899,8,400,,,
break_continue,html.Screen,4_110_2,2023-05-02T14:58:32.246Z,,0,,,NaN,,,,,,false,,,,490654.7000000477,490654.60000002384,,490654.5,,490660.899,8,400,,,
sequence,flow.Sequence,4_110,2023-05-02T14:58:32.246Z,,0,,,2620.0980000238633,completion,,,,,false,,,,490654.8000000119,490654.60000002384,488013.068,488020.8000000119,488034.502,490660.899,8,400,,,
trial,html.Screen,4_111_0,2023-05-02T14:58:34.852Z,,0,3,,2599.201000023866,response,ISIC_6381785.JPG,,ISIC_0060380.JPG,ISIC_6381785.JPG,false,1,keypress(m),500,493260.2000000477,493260.10000002384,490652.505,490654.8000000119,490660.899,493267.287,8,400,12,,ISIC_0060380.JPG
break,html.Screen,4_111_1,2023-05-02T14:58:34.852Z,,0,,,NaN,,,,,,false,,,,493260.60000002384,493260.3000000119,,493260.2000000477,,493267.287,8,400,,,
break_continue,html.Screen,4_111_2,2023-05-02T14:58:34.852Z,,0,,,NaN,,,,,,false,,,,493260.90000003576,493260.90000003576,,493260.8000000119,,493267.287,8,400,,,
sequence,flow.Sequence,4_111,2023-05-02T14:58:34.853Z,,0,,,2600.001000035787,completion,,,,,false,,,,493261,493260.90000003576,490652.505,490654.8000000119,490660.899,493267.287,8,400,,,
trial,html.Screen,4_112_0,2023-05-02T14:58:37.708Z,,0,3,,2849.5130000119098,response,ISIC_1251639.JPG,,ISIC_0070731.JPG,ISIC_0070731.JPG,false,0,keypress(z),500,496116.8000000119,496116.8000000119,493259.019,493261.10000002384,493267.287,496123.168,8,400,13,,ISIC_1251639.JPG
break,html.Screen,4_112_1,2023-05-02T14:58:37.709Z,,0,,,NaN,,,,,,false,,,,496117.2000000477,496117.10000002384,,496117,,496123.168,8,400,,,
break_continue,html.Screen,4_112_2,2023-05-02T14:58:37.709Z,,0,,,NaN,,,,,,false,,,,496117.7000000477,496117.5,,496117.40000003576,,496123.168,8,400,,,
sequence,flow.Sequence,4_112,2023-05-02T14:58:37.709Z,,0,,,2850.212999999989,completion,,,,,false,,,,496117.8000000119,496117.5,493259.019,493261,493267.287,496123.168,8,400,,,
trial,html.Screen,4_113_0,2023-05-02T14:58:40.416Z,,0,3,,2700.831999999995,response,ISIC_0071834.JPG,,ISIC_0012990.JPG,ISIC_0012990.JPG,false,0,keypress(z),500,498824.10000002384,498824,496114.664,496117.8000000119,496123.168,498829.051,8,400,14,,ISIC_0071834.JPG
break,html.Screen,4_113_1,2023-05-02T14:58:40.416Z,,0,,,NaN,,,,,,false,,,,498824.7000000477,498824.40000003576,,498824.2000000477,,498829.051,8,400,,,
break_continue,html.Screen,4_113_2,2023-05-02T14:58:40.416Z,,0,,,NaN,,,,,,false,,,,498824.90000003576,498824.8000000119,,498824.8000000119,,498829.051,8,400,,,
sequence,flow.Sequence,4_113,2023-05-02T14:58:40.416Z,,0,,,2701.632000011916,completion,,,,,false,,,,498825,498824.8000000119,496114.664,496117.8000000119,496123.168,498829.051,8,400,,,
trial,html.Screen,4_114_0,2023-05-02T14:58:43.487Z,,0,3,,3066.349000035785,response,ISIC_0026915.JPG,,ISIC_0004075.JPG,ISIC_0004075.JPG,false,0,keypress(z),500,501895.5,501895.40000003576,498820.725,498825.10000002384,498829.051,501901.492,8,400,15,,ISIC_0026915.JPG
break,html.Screen,4_114_1,2023-05-02T14:58:43.488Z,,0,,,NaN,,,,,,false,,,,501896,501895.7000000477,,501895.60000002384,,501901.492,8,400,,,
break_continue,html.Screen,4_114_2,2023-05-02T14:58:43.488Z,,0,,,NaN,,,,,,false,,,,501896.3000000119,501896.2000000477,,501896.2000000477,,501901.492,8,400,,,
sequence,flow.Sequence,4_114,2023-05-02T14:58:43.488Z,,0,,,3067.149000047706,completion,,,,,false,,,,501896.3000000119,501896.2000000477,498820.725,498825.10000002384,498829.051,501901.492,8,400,,,
trial,html.Screen,4_115_0,2023-05-02T14:58:46.582Z,,0,3,,3088.5079999999725,response,ISIC_7776719.JPG,,ISIC_9260499.JPG,ISIC_9260499.JPG,false,0,keypress(z),500,504990,504990,501893.047,501896.40000003576,501901.492,504998.987,8,400,16,,ISIC_7776719.JPG
break,html.Screen,4_115_1,2023-05-02T14:58:46.582Z,,0,,,NaN,,,,,,false,,,,504990.5,504990.3000000119,,504990.10000002384,,504998.987,8,400,,,
break_continue,html.Screen,4_115_2,2023-05-02T14:58:46.582Z,,0,,,NaN,,,,,,false,,,,504990.7000000477,504990.7000000477,,504990.7000000477,,504998.987,8,400,,,
sequence,flow.Sequence,4_115,2023-05-02T14:58:46.582Z,,0,,,3089.2080000476562,completion,,,,,false,,,,504990.8000000119,504990.7000000477,501893.047,501896.40000003576,501901.492,504998.987,8,400,,,
trial,html.Screen,4_116_0,2023-05-02T14:58:49.185Z,,0,3,,2594.613000023819,response,ISIC_0032543.JPG,,ISIC_4174983.JPG,ISIC_4174983.JPG,false,0,keypress(z),500,507593.8000000119,507593.60000002384,504982.48,504990.90000003576,504998.987,507596.758,8,400,17,,ISIC_0032543.JPG
break,html.Screen,4_116_1,2023-05-02T14:58:49.186Z,,0,,,NaN,,,,,,false,,,,507594.2000000477,507594.10000002384,,507593.90000003576,,507596.758,8,400,,,
break_continue,html.Screen,4_116_2,2023-05-02T14:58:49.186Z,,0,,,NaN,,,,,,false,,,,507594.40000003576,507594.40000003576,,507594.40000003576,,507596.758,8,400,,,
sequence,flow.Sequence,4_116,2023-05-02T14:58:49.186Z,,0,,,2595.41300003574,completion,,,,,false,,,,507594.5,507594.40000003576,504982.48,504990.90000003576,504998.987,507596.758,8,400,,,
trial,html.Screen,4_117_0,2023-05-02T14:58:51.925Z,,0,3,,2736.942000047711,response,ISIC_4735959.JPG,,ISIC_7799968.JPG,ISIC_7799968.JPG,false,0,keypress(z),500,510333.90000003576,510333.7000000477,507588.107,507594.5,507596.758,510336.135,8,400,18,,ISIC_4735959.JPG
break,html.Screen,4_117_1,2023-05-02T14:58:51.926Z,,0,,,NaN,,,,,,false,,,,510334.3000000119,510334.10000002384,,510334,,510336.135,8,400,,,
break_continue,html.Screen,4_117_2,2023-05-02T14:58:51.926Z,,0,,,NaN,,,,,,false,,,,510334.7000000477,510334.5,,510334.40000003576,,510336.135,8,400,,,
sequence,flow.Sequence,4_117,2023-05-02T14:58:51.926Z,,0,,,2737.7420000000275,completion,,,,,false,,,,510334.7000000477,510334.5,507588.107,507594.5,507596.758,510336.135,8,400,,,
trial,html.Screen,4_118_0,2023-05-02T14:58:54.512Z,,0,3,,2584.1650000119116,response,ISIC_7947847.JPG,,ISIC_7271718.JPG,ISIC_7947847.JPG,false,1,keypress(m),500,512920.40000003576,512920.3000000119,510328.023,510334.8000000119,510336.135,512925.577,8,400,19,,ISIC_7271718.JPG
break,html.Screen,4_118_1,2023-05-02T14:58:54.512Z,,0,,,NaN,,,,,,false,,,,512920.90000003576,512920.7000000477,,512920.5,,512925.577,8,400,,,
break_continue,html.Screen,4_118_2,2023-05-02T14:58:54.513Z,,0,,,NaN,,,,,,false,,,,512921.3000000119,512921.2000000477,,512921,,512925.577,8,400,,,
sequence,flow.Sequence,4_118,2023-05-02T14:58:54.513Z,,0,,,2585.0650000476744,completion,,,,,false,,,,512921.3000000119,512921.2000000477,510328.023,510334.7000000477,510336.135,512925.577,8,400,,,
trial,html.Screen,4_119_0,2023-05-02T14:58:57.084Z,,0,3,,2566.3230000357726,response,ISIC_4130167.JPG,,ISIC_8787152.JPG,ISIC_8787152.JPG,false,0,keypress(z),500,515492.10000002384,515491.90000003576,512917.456,512921.40000003576,512925.577,515498.604,8,400,20,,ISIC_4130167.JPG
break,html.Screen,4_119_1,2023-05-02T14:58:57.084Z,,0,,,NaN,,,,,,false,,,,515492.40000003576,515492.3000000119,,515492.10000002384,,515498.604,8,400,,,
break_continue,html.Screen,4_119_2,2023-05-02T14:58:57.084Z,,0,,,NaN,,,,,,false,,,,515492.8000000119,515492.7000000477,,515492.60000002384,,515498.604,8,400,,,
sequence,flow.Sequence,4_119,2023-05-02T14:58:57.084Z,,0,,,2567.1230000476935,completion,,,,,false,,,,515492.90000003576,515492.7000000477,512917.456,512921.3000000119,512925.577,515498.604,8,400,,,
trial,html.Screen,4_120_0,2023-05-02T14:58:59.524Z,,0,3,,2433.896000000008,response,ISIC_0000814.JPG,,ISIC_4814912.JPG,ISIC_0000814.JPG,false,1,keypress(m),500,517932.60000002384,517932.5,515490.273,515492.90000003576,515498.604,517938.193,8,400,21,,ISIC_4814912.JPG
break,html.Screen,4_120_1,2023-05-02T14:58:59.525Z,,0,,,NaN,,,,,,false,,,,517933.10000002384,517932.90000003576,,517932.8000000119,,517938.193,8,400,,,
break_continue,html.Screen,4_120_2,2023-05-02T14:58:59.525Z,,0,,,NaN,,,,,,false,,,,517933.3000000119,517933.2000000477,,517933.10000002384,,517938.193,8,400,,,
sequence,flow.Sequence,4_120,2023-05-02T14:58:59.525Z,,0,,,2434.5960000476916,completion,,,,,false,,,,517933.3000000119,517933.2000000477,515490.273,515492.90000003576,515498.604,517938.193,8,400,,,
trial,html.Screen,4_121_0,2023-05-02T14:59:02.181Z,,0,3,,2650.6070000118925,response,ISIC_8502341.JPG,,ISIC_3397174.JPG,ISIC_3397174.JPG,false,0,keypress(z),500,520588.90000003576,520588.8000000119,517929.978,517933.40000003576,517938.193,520594.188,8,400,22,,ISIC_8502341.JPG
break,html.Screen,4_121_1,2023-05-02T14:59:02.181Z,,0,,,NaN,,,,,,false,,,,520589.60000002384,520589.3000000119,,520589.10000002384,,520594.188,8,400,,,
break_continue,html.Screen,4_121_2,2023-05-02T14:59:02.181Z,,0,,,NaN,,,,,,false,,,,520589.90000003576,520589.8000000119,,520589.7000000477,,520594.188,8,400,,,
sequence,flow.Sequence,4_121,2023-05-02T14:59:02.181Z,,0,,,2651.6070000118925,completion,,,,,false,,,,520589.90000003576,520589.8000000119,517929.978,517933.40000003576,517938.193,520594.188,8,400,,,
trial,html.Screen,4_122_0,2023-05-02T14:59:04.634Z,,0,3,,2447.712000035739,response,ISIC_3124612.JPG,,ISIC_5755836.JPG,ISIC_3124612.JPG,false,1,keypress(m),500,523042,523041.90000003576,520586.038,520589.90000003576,520594.188,523050.564,8,400,23,,ISIC_5755836.JPG
break,html.Screen,4_122_1,2023-05-02T14:59:04.634Z,,0,,,NaN,,,,,,false,,,,523042.5,523042.3000000119,,523042.10000002384,,523050.564,8,400,,,
break_continue,html.Screen,4_122_2,2023-05-02T14:59:04.634Z,,0,,,NaN,,,,,,false,,,,523042.8000000119,523042.7000000477,,523042.60000002384,,523050.564,8,400,,,
sequence,flow.Sequence,4_122,2023-05-02T14:59:04.634Z,,0,,,2448.51200004766,completion,,,,,false,,,,523042.90000003576,523042.7000000477,520586.038,520589.90000003576,520594.188,523050.564,8,400,,,
trial,html.Screen,4_123_0,2023-05-02T14:59:07.136Z,,0,3,,2494.036000023829,response,ISIC_5338721.JPG,,ISIC_6778515.JPG,ISIC_6778515.JPG,false,0,keypress(z),500,525544.7000000477,525544.6000000238,523042.359,523042.90000003576,523050.564,525556.728,8,400,24,,ISIC_5338721.JPG
break,html.Screen,4_123_1,2023-05-02T14:59:07.137Z,,0,,,NaN,,,,,,false,,,,525545,525545,,525544.8000000119,,525556.728,8,400,,,
break_continue,html.Screen,4_123_2,2023-05-02T14:59:07.137Z,,0,,,NaN,,,,,,false,,,,525545.2000000477,525545.2000000477,,525545.1000000238,,525556.728,8,400,,,
sequence,flow.Sequence,4_123,2023-05-02T14:59:07.137Z,,0,,,2494.6360000476707,completion,,,,,false,,,,525545.3000000119,525545.2000000477,523042.359,523042.90000003576,523050.564,525556.728,8,400,,,
trial,html.Screen,4_124_0,2023-05-02T14:59:09.708Z,,0,3,,2559.572000011918,response,ISIC_0015015.JPG,,ISIC_6616542.JPG,ISIC_6616542.JPG,false,0,keypress(z),500,528116.4000000358,528116.3000000119,525548.765,525545.3000000119,525556.728,528121.275,8,400,25,,ISIC_0015015.JPG
break,html.Screen,4_124_1,2023-05-02T14:59:09.708Z,,0,,,NaN,,,,,,false,,,,528116.9000000358,528116.7000000477,,528116.6000000238,,528121.275,8,400,,,
break_continue,html.Screen,4_124_2,2023-05-02T14:59:09.709Z,,0,,,NaN,,,,,,false,,,,528117.2000000477,528117.2000000477,,528117.1000000238,,528121.275,8,400,,,
sequence,flow.Sequence,4_124,2023-05-02T14:59:09.709Z,,0,,,2560.472000047681,completion,,,,,false,,,,528117.3000000119,528117.2000000477,525548.765,525545.3000000119,525556.728,528121.275,8,400,,,
trial,html.Screen,4_125_0,2023-05-02T14:59:12.117Z,,0,3,,2404.6250000357395,response,ISIC_0025303.JPG,,ISIC_0026272.JPG,ISIC_0025303.JPG,false,1,keypress(m),500,530526,530525.9000000358,528113.09,528117.3000000119,528121.275,530535.971,8,400,26,,ISIC_0026272.JPG
