sender,sender_type,sender_id,timestamp,meta,,blockNo,condition,duration,ended_on,img_left,img_reveal,img_right,loser,practice,response,response_action,selection_duration,time_commit,time_end,time_render,time_run,time_show,time_switch,total_blocks,total_trials,trialNo,url,winner
informed_consent,html.Screen,0,2023-11-03T20:32:38.744Z,"{""labjs_version"":""20.2.4"",""labjs_build"":{""flavor"":""production"",""commit"":""f5b4a49f956347addd546a832a3327688c2c0fef""},""location"":""https://run.pavlovia.org/MurrayBennett/melanoma-2afc/?participant=67648&platform=sona"",""userAgent"":""Mozilla/5.0 (Windows NT 10.0; Win64; x64) AppleWebKit/537.36 (KHTML, like Gecko) Chrome/118.0.0.0 Safari/537.36"",""platform"":""Win32"",""language"":""en-US"",""locale"":""en-US"",""timeZone"":""America/Chicago"",""timezoneOffset"":300,""screen_width"":1280,""screen_height"":720,""scroll_width"":1280,""scroll_height"":595,""window_innerWidth"":1280,""window_innerHeight"":595,""devicePixelRatio"":1.5}",,,,6427.15099999404,response,,,,,,consent,click button,,14484.800000011921,14481.59999999404,8021.086,8034.700000017881,8054.449,14519.519,,,,"{""participant"":""67648"",""platform"":""sona""}",
Welcome,html.Screen,1,2023-11-03T20:33:30.843Z,,,,symmetry,52062.28100001192,response,,,,,,continue,click button,,66584.20000001788,66581.80000001192,14469.502,14485.300000011921,14519.519,66590.18,,,,,
trial,html.Screen,2_0_0,2023-11-03T20:33:35.415Z,,0,0,,4565.9199999940465,response,ISIC_0069348.JPG,,ISIC_6997061.JPG,ISIC_0069348.JPG,true,1,keypress(m),500,71156.40000000596,71156.09999999404,66573.495,66585.09999999404,66590.18,71172.32,1,6,1,,ISIC_6997061.JPG
sequence,flow.Sequence,2_0,2023-11-03T20:33:35.416Z,,0,,,4565.9199999940465,completion,,,,,true,,,,71156.90000000596,71156.09999999404,66573.495,66585,66590.18,71172.32,1,6,,,
trial,html.Screen,2_1_0,2023-11-03T20:33:39.995Z,,0,0,,4563.679999999993,response,ISIC_0009529.JPG,,ISIC_0057368.JPG,ISIC_0057368.JPG,true,0,keypress(z),500,75736.30000001192,75736,71156.857,71157.09999999404,71172.32,75760.359,1,6,2,,ISIC_0009529.JPG
sequence,flow.Sequence,2_1,2023-11-03T20:33:39.995Z,,0,,,4563.679999999993,completion,,,,,true,,,,75736.70000001788,75736,71156.857,71157,71172.32,75760.359,1,6,,,
trial,html.Screen,2_2_0,2023-11-03T20:33:45.089Z,,0,0,,5069.141000000003,response,ISIC_9758671.JPG,,ISIC_0064954.JPG,ISIC_9758671.JPG,true,1,keypress(m),500,80829.90000000596,80829.5,75721.181,75736.80000001192,75760.359,80836.596,1,6,3,,ISIC_0064954.JPG
sequence,flow.Sequence,2_2,2023-11-03T20:33:45.089Z,,0,,,5069.141000000003,completion,,,,,true,,,,80830.40000000596,80829.5,75721.181,75736.70000001788,75760.359,80836.596,1,6,,,
trial,html.Screen,2_3_0,2023-11-03T20:33:48.635Z,,0,0,,3539.1040000178764,response,ISIC_0000080.JPG,,ISIC_0005785.JPG,ISIC_0005785.JPG,true,0,keypress(z),500,84376.09999999404,84375.70000001788,80819.977,80830.90000000596,80836.596,84385.69,1,6,4,,ISIC_0000080.JPG
sequence,flow.Sequence,2_3,2023-11-03T20:33:48.635Z,,0,,,3539.1040000178764,completion,,,,,true,,,,84376.59999999404,84375.70000001788,80819.977,80830.80000001192,80836.596,84385.69,1,6,,,
trial,html.Screen,2_4_0,2023-11-03T20:33:51.493Z,,0,0,,2848.8099999999977,response,ISIC_5390060.JPG,,ISIC_7944028.JPG,ISIC_5390060.JPG,true,1,keypress(m),500,87234.70000001788,87234.5,84369.047,84376.90000000596,84385.69,87251.72,1,6,5,,ISIC_7944028.JPG
sequence,flow.Sequence,2_4,2023-11-03T20:33:51.494Z,,0,,,2848.8099999999977,completion,,,,,true,,,,87235.09999999404,87234.5,84369.047,84376.80000001192,84385.69,87251.72,1,6,,,
trial,html.Screen,2_5_0,2023-11-03T20:33:55.951Z,,0,0,,4440.379999994038,response,ISIC_0010188.JPG,,ISIC_0794216.JPG,ISIC_0010188.JPG,true,1,keypress(m),500,91692.40000000596,91692.09999999404,87219.388,87235.30000001192,87251.72,91700.581,1,6,6,,ISIC_0794216.JPG
sequence,flow.Sequence,2_5,2023-11-03T20:33:55.952Z,,0,,,4440.379999994038,completion,,,,,true,,,,91693,91692.09999999404,87219.388,87235.20000001788,87251.72,91700.581,1,6,,,
loop,flow.Loop,2,2023-11-03T20:33:55.952Z,,,,,25101.919999994047,completion,,,,,true,,,,91693.30000001192,91692.09999999404,66573.495,66584.80000001192,66590.18,91700.581,1,6,,,
exp_instructions,html.Screen,3,2023-11-03T20:34:01.875Z,,,,,5914.418999999994,response,,,,,,continue,keypress(Space),,97615.80000001192,97615,91683.977,91693.5,91700.581,97632.522,,,,,
trial,html.Screen,4_0_0,2023-11-03T20:34:07.533Z,,0,1,,5641.577999994042,response,ISIC_8479104.JPG,12,ISIC_0064979.JPG,ISIC_8479104.JPG,false,1,keypress(m),500,103274.30000001192,103274.09999999404,97616.325,97616.20000001788,97632.522,103281.102,8,400,1,,ISIC_0064979.JPG
break,html.Screen,4_0_1,2023-11-03T20:34:07.535Z,,0,,,NaN,,,,,,false,,,,103275.90000000596,103275.5,,103274.5,,103281.102,8,400,,,
break_continue,html.Screen,4_0_2,2023-11-03T20:34:07.536Z,,0,,,NaN,,,,,,false,,,,103276.80000001192,103276.59999999404,,103276.20000001788,,103281.102,8,400,,,
sequence,flow.Sequence,4_0,2023-11-03T20:34:07.536Z,,0,,,5644.077999994042,completion,,,,,false,,,,103276.90000000596,103276.59999999404,97616.325,97616.20000001788,97632.522,103281.102,8,400,,,
trial,html.Screen,4_1_0,2023-11-03T20:34:11.480Z,,0,1,,3939.5980000178824,response,ISIC_0025755.JPG,13,ISIC_0062709.JPG,ISIC_0062709.JPG,false,0,keypress(z),500,107221.09999999404,107220.70000001788,103264.435,103277.09999999404,103281.102,107230.272,8,400,2,,ISIC_0025755.JPG
break,html.Screen,4_1_1,2023-11-03T20:34:11.482Z,,0,,,NaN,,,,,,false,,,,107223.20000001788,107222.70000001788,,107221.5,,107230.272,8,400,,,
break_continue,html.Screen,4_1_2,2023-11-03T20:34:11.483Z,,0,,,NaN,,,,,,false,,,,107224.20000001788,107223.90000000596,,107223.5,,107230.272,8,400,,,
sequence,flow.Sequence,4_1,2023-11-03T20:34:11.483Z,,0,,,3942.7980000059615,completion,,,,,false,,,,107224.5,107223.90000000596,103264.435,103277.09999999404,103281.102,107230.272,8,400,,,
trial,html.Screen,4_2_0,2023-11-03T20:34:14.710Z,,0,1,,3220.6280000059633,response,ISIC_0027694.JPG,5,ISIC_0025343.JPG,ISIC_0027694.JPG,false,1,keypress(m),500,110451.20000001788,110450.90000000596,107213.561,107224.80000001192,107230.272,110462.688,8,400,3,,ISIC_0025343.JPG
break,html.Screen,4_2_1,2023-11-03T20:34:14.711Z,,0,,,NaN,,,,,,false,,,,110452.20000001788,110451.90000000596,,110451.30000001192,,110462.688,8,400,,,
break_continue,html.Screen,4_2_2,2023-11-03T20:34:14.711Z,,0,,,NaN,,,,,,false,,,,110452.59999999404,110452.5,,110452.30000001192,,110462.688,8,400,,,
sequence,flow.Sequence,4_2,2023-11-03T20:34:14.712Z,,0,,,3222.228000000003,completion,,,,,false,,,,110452.70000001788,110452.5,107213.561,107224.70000001788,107230.272,110462.688,8,400,,,
trial,html.Screen,4_3_0,2023-11-03T20:34:18.493Z,,0,1,,3771.3120000000054,response,ISIC_3418978.JPG,8,ISIC_3961101.JPG,ISIC_3418978.JPG,false,1,keypress(m),500,114234.20000001788,114234,110446.124,110452.90000000596,110462.688,114245.091,8,400,4,,ISIC_3961101.JPG
break,html.Screen,4_3_1,2023-11-03T20:34:18.494Z,,0,,,NaN,,,,,,false,,,,114235.30000001192,114235,,114234.40000000596,,114245.091,8,400,,,
break_continue,html.Screen,4_3_2,2023-11-03T20:34:18.495Z,,0,,,NaN,,,,,,false,,,,114235.80000001192,114235.70000001788,,114235.40000000596,,114245.091,8,400,,,
sequence,flow.Sequence,4_3,2023-11-03T20:34:18.495Z,,0,,,3773.0120000178867,completion,,,,,false,,,,114236,114235.70000001788,110446.124,110452.80000001192,110462.688,114245.091,8,400,,,
trial,html.Screen,4_4_0,2023-11-03T20:34:21.431Z,,0,1,,2927.008999994039,response,ISIC_9499787.JPG,8,ISIC_0031745.JPG,ISIC_0031745.JPG,false,0,keypress(z),500,117172.30000001192,117172.09999999404,114228.44,114236.20000001788,114245.091,117194.394,8,400,5,,ISIC_9499787.JPG
break,html.Screen,4_4_1,2023-11-03T20:34:21.432Z,,0,,,NaN,,,,,,false,,,,117173.40000000596,117173.20000001788,,117172.5,,117194.394,8,400,,,
break_continue,html.Screen,4_4_2,2023-11-03T20:34:21.433Z,,0,,,NaN,,,,,,false,,,,117173.80000001192,117173.70000001788,,117173.59999999404,,117194.394,8,400,,,
sequence,flow.Sequence,4_4,2023-11-03T20:34:21.433Z,,0,,,2928.609000017881,completion,,,,,false,,,,117174.09999999404,117173.70000001788,114228.44,114236.20000001788,114245.091,117194.394,8,400,,,
trial,html.Screen,4_5_0,2023-11-03T20:34:26.610Z,,0,1,,5156.106,response,ISIC_6548307.JPG,7,ISIC_0064180.JPG,ISIC_0064180.JPG,false,0,keypress(z),500,122350.70000001788,122350.5,117177.723,117174.20000001788,117194.394,122359.774,8,400,6,,ISIC_6548307.JPG
break,html.Screen,4_5_1,2023-11-03T20:34:26.611Z,,0,,,NaN,,,,,,false,,,,122351.70000001788,122351.5,,122350.90000000596,,122359.774,8,400,,,
break_continue,html.Screen,4_5_2,2023-11-03T20:34:26.612Z,,0,,,NaN,,,,,,false,,,,122352.09999999404,122352,,122351.80000001192,,122359.774,8,400,,,
sequence,flow.Sequence,4_5,2023-11-03T20:34:26.612Z,,0,,,5157.606,completion,,,,,false,,,,122352.30000001192,122352,117177.723,117174.20000001788,117194.394,122359.774,8,400,,,
trial,html.Screen,4_6_0,2023-11-03T20:34:29.720Z,,0,1,,3100.526000011916,response,ISIC_0746397.JPG,11,ISIC_0060937.JPG,ISIC_0746397.JPG,false,1,keypress(m),500,125460.5,125460.30000001192,122343.14,122352.5,122359.774,125475.632,8,400,7,,ISIC_0060937.JPG
break,html.Screen,4_6_1,2023-11-03T20:34:29.722Z,,0,,,NaN,,,,,,false,,,,125462,125461.59999999404,,125460.70000001788,,125475.632,8,400,,,
break_continue,html.Screen,4_6_2,2023-11-03T20:34:29.722Z,,0,,,NaN,,,,,,false,,,,125462.70000001788,125462.59999999404,,125462.20000001788,,125475.632,8,400,,,
sequence,flow.Sequence,4_6,2023-11-03T20:34:29.723Z,,0,,,3102.8259999940346,completion,,,,,false,,,,125463,125462.59999999404,122343.14,122352.40000000596,122359.774,125475.632,8,400,,,
trial,html.Screen,4_7_0,2023-11-03T20:34:35.809Z,,0,1,,6073.768000005963,response,ISIC_3909039.JPG,9,ISIC_0031726.JPG,ISIC_3909039.JPG,false,1,keypress(m),500,131549.59999999404,131549.40000000596,125459.004,125463.09999999404,125475.632,131557.496,8,400,8,,ISIC_0031726.JPG
break,html.Screen,4_7_1,2023-11-03T20:34:35.811Z,,0,,,NaN,,,,,,false,,,,131550.90000000596,131550.40000000596,,131549.80000001192,,131557.496,8,400,,,
break_continue,html.Screen,4_7_2,2023-11-03T20:34:35.811Z,,0,,,NaN,,,,,,false,,,,131551.5,131551.30000001192,,131551,,131557.496,8,400,,,
sequence,flow.Sequence,4_7,2023-11-03T20:34:35.811Z,,0,,,6075.668000011923,completion,,,,,false,,,,131551.70000001788,131551.30000001192,125459.004,125463.09999999404,125475.632,131557.496,8,400,,,
trial,html.Screen,4_8_0,2023-11-03T20:34:38.602Z,,0,1,,2784.804000011907,response,ISIC_0033336.JPG,7,ISIC_0914251.JPG,ISIC_0914251.JPG,false,0,keypress(z),500,134342.5,134342.30000001192,131540.895,131551.80000001192,131557.496,134356.788,8,400,9,,ISIC_0033336.JPG
break,html.Screen,4_8_1,2023-11-03T20:34:38.604Z,,0,,,NaN,,,,,,false,,,,134343.90000000596,134343.5,,134342.80000001192,,134356.788,8,400,,,
break_continue,html.Screen,4_8_2,2023-11-03T20:34:38.604Z,,0,,,NaN,,,,,,false,,,,134344.80000001192,134344.59999999404,,134344.20000001788,,134356.788,8,400,,,
sequence,flow.Sequence,4_8,2023-11-03T20:34:38.605Z,,0,,,2787.103999994026,completion,,,,,false,,,,134345,134344.59999999404,131540.895,131551.80000001192,131557.496,134356.788,8,400,,,
trial,html.Screen,4_9_0,2023-11-03T20:34:42.051Z,,0,1,,3434.5120000119205,response,ISIC_0028929.JPG,11,ISIC_0064877.JPG,ISIC_0028929.JPG,false,1,keypress(m),500,137791.59999999404,137791.30000001192,134340.226,134345.20000001788,134356.788,137806.096,8,400,10,,ISIC_0064877.JPG
break,html.Screen,4_9_1,2023-11-03T20:34:42.053Z,,0,,,NaN,,,,,,false,,,,137793.20000001788,137792.80000001192,,137791.80000001192,,137806.096,8,400,,,
break_continue,html.Screen,4_9_2,2023-11-03T20:34:42.054Z,,0,,,NaN,,,,,,false,,,,137793.90000000596,137793.70000001788,,137793.40000000596,,137806.096,8,400,,,
sequence,flow.Sequence,4_9,2023-11-03T20:34:42.054Z,,0,,,3436.912000017881,completion,,,,,false,,,,137794.09999999404,137793.70000001788,134340.226,134345.09999999404,134356.788,137806.096,8,400,,,
trial,html.Screen,4_10_0,2023-11-03T20:34:46.799Z,,0,1,,4732.40400000001,response,ISIC_1332766.JPG,11,ISIC_9876515.JPG,ISIC_9876515.JPG,false,0,keypress(z),500,142538.90000000596,142538.5,137789.436,137794.30000001192,137806.096,142554.862,8,400,11,,ISIC_1332766.JPG
break,html.Screen,4_10_1,2023-11-03T20:34:46.800Z,,0,,,NaN,,,,,,false,,,,142540.5,142540.20000001788,,142539.20000001788,,142554.862,8,400,,,
break_continue,html.Screen,4_10_2,2023-11-03T20:34:46.801Z,,0,,,NaN,,,,,,false,,,,142541.30000001192,142541.09999999404,,142540.80000001192,,142554.862,8,400,,,
sequence,flow.Sequence,4_10,2023-11-03T20:34:46.801Z,,0,,,4735.003999994049,completion,,,,,false,,,,142541.59999999404,142541.09999999404,137789.436,137794.20000001788,137806.096,142554.862,8,400,,,
trial,html.Screen,4_11_0,2023-11-03T20:34:51.482Z,,0,1,,4667.338000017888,response,ISIC_1757941.JPG,6,ISIC_0001596.JPG,ISIC_0001596.JPG,false,0,keypress(z),500,147222.40000000596,147222.20000001788,142538.3,142541.90000000596,142554.862,147237.12,8,400,12,,ISIC_1757941.JPG
break,html.Screen,4_11_1,2023-11-03T20:34:51.484Z,,0,,,NaN,,,,,,false,,,,147224.09999999404,147223.5,,147222.80000001192,,147237.12,8,400,,,
break_continue,html.Screen,4_11_2,2023-11-03T20:34:51.484Z,,0,,,NaN,,,,,,false,,,,147224.80000001192,147224.5,,147224.20000001788,,147237.12,8,400,,,
sequence,flow.Sequence,4_11,2023-11-03T20:34:51.485Z,,0,,,4669.638000000006,completion,,,,,false,,,,147224.90000000596,147224.5,142538.3,142541.70000001788,142554.862,147237.12,8,400,,,
trial,html.Screen,4_12_0,2023-11-03T20:34:54.741Z,,0,1,,3244.080000017886,response,ISIC_6635699.JPG,9,ISIC_0033419.JPG,ISIC_0033419.JPG,false,0,keypress(z),500,150481.5,150481.20000001788,147220.437,147225.09999999404,147237.12,150486.234,8,400,13,,ISIC_6635699.JPG
break,html.Screen,4_12_1,2023-11-03T20:34:54.743Z,,0,,,NaN,,,,,,false,,,,150482.80000001192,150482.5,,150481.70000001788,,150486.234,8,400,,,
break_continue,html.Screen,4_12_2,2023-11-03T20:34:54.743Z,,0,,,NaN,,,,,,false,,,,150483.30000001192,150483.20000001788,,150483,,150486.234,8,400,,,
sequence,flow.Sequence,4_12,2023-11-03T20:34:54.743Z,,0,,,3246.080000017886,completion,,,,,false,,,,150483.59999999404,150483.20000001788,147220.437,147225,147237.12,150486.234,8,400,,,
trial,html.Screen,4_13_0,2023-11-03T20:34:58.527Z,,0,1,,3780.566000011924,response,ISIC_2616719.JPG,8,ISIC_0069395.JPG,ISIC_0069395.JPG,false,0,keypress(z),500,154267.30000001192,154266.80000001192,150469.597,150483.70000001788,150486.234,154301.973,8,400,14,,ISIC_2616719.JPG
break,html.Screen,4_13_1,2023-11-03T20:34:58.530Z,,0,,,NaN,,,,,,false,,,,154270,154269.40000000596,,154267.90000000596,,154301.973,8,400,,,
break_continue,html.Screen,4_13_2,2023-11-03T20:34:58.531Z,,0,,,NaN,,,,,,false,,,,154271,154270.80000001192,,154270.40000000596,,154301.973,8,400,,,
sequence,flow.Sequence,4_13,2023-11-03T20:34:58.531Z,,0,,,3784.566000011924,completion,,,,,false,,,,154271.30000001192,154270.80000001192,150469.597,150483.70000001788,150486.234,154301.973,8,400,,,
trial,html.Screen,4_14_0,2023-11-03T20:35:01.961Z,,0,1,,3398.6269999940414,response,ISIC_0026619.JPG,10,ISIC_9694020.JPG,ISIC_9694020.JPG,false,0,keypress(z),500,157701.09999999404,157700.59999999404,154285.354,154271.80000001192,154301.973,157717.848,8,400,15,,ISIC_0026619.JPG
break,html.Screen,4_14_1,2023-11-03T20:35:01.963Z,,0,,,NaN,,,,,,false,,,,157703.59999999404,157703.09999999404,,157701.70000001788,,157717.848,8,400,,,
break_continue,html.Screen,4_14_2,2023-11-03T20:35:01.964Z,,0,,,NaN,,,,,,false,,,,157704.59999999404,157704.40000000596,,157703.90000000596,,157717.848,8,400,,,
sequence,flow.Sequence,4_14,2023-11-03T20:35:01.965Z,,0,,,3402.4270000059623,completion,,,,,false,,,,157705.09999999404,157704.40000000596,154285.354,154271.70000001788,154301.973,157717.848,8,400,,,
trial,html.Screen,4_15_0,2023-11-03T20:35:05.063Z,,0,1,,3084.8520000178833,response,ISIC_0014127.JPG,9,ISIC_0028528.JPG,ISIC_0028528.JPG,false,0,keypress(z),500,160803.30000001192,160802.70000001788,157701.196,157705.59999999404,157717.848,160817.06,8,400,16,,ISIC_0014127.JPG
break,html.Screen,4_15_1,2023-11-03T20:35:05.066Z,,0,,,NaN,,,,,,false,,,,160806,160805.40000000596,,160803.90000000596,,160817.06,8,400,,,
break_continue,html.Screen,4_15_2,2023-11-03T20:35:05.067Z,,0,,,NaN,,,,,,false,,,,160806.90000000596,160806.59999999404,,160806.30000001192,,160817.06,8,400,,,
sequence,flow.Sequence,4_15,2023-11-03T20:35:05.067Z,,0,,,3088.7519999940414,completion,,,,,false,,,,160807.40000000596,160806.59999999404,157701.196,157705.5,157717.848,160817.06,8,400,,,
trial,html.Screen,4_16_0,2023-11-03T20:35:08.950Z,,0,1,,3872.840000005963,response,ISIC_0060955.JPG,10,ISIC_3447331.JPG,ISIC_0060955.JPG,false,1,keypress(m),500,164690.09999999404,164689.90000000596,160800.401,160807.59999999404,160817.06,164699.318,8,400,17,,ISIC_3447331.JPG
break,html.Screen,4_16_1,2023-11-03T20:35:08.951Z,,0,,,NaN,,,,,,false,,,,164691,164690.80000001192,,164690.20000001788,,164699.318,8,400,,,
break_continue,html.Screen,4_16_2,2023-11-03T20:35:08.951Z,,0,,,NaN,,,,,,false,,,,164691.5,164691.40000000596,,164691.20000001788,,164699.318,8,400,,,
sequence,flow.Sequence,4_16,2023-11-03T20:35:08.951Z,,0,,,3874.340000005963,completion,,,,,false,,,,164691.70000001788,164691.40000000596,160800.401,160807.5,160817.06,164699.318,8,400,,,
trial,html.Screen,4_17_0,2023-11-03T20:35:14.113Z,,0,1,,5153.482000011922,response,ISIC_0068633.JPG,11,ISIC_0013473.JPG,ISIC_0013473.JPG,false,0,keypress(z),500,169852.90000000596,169852.80000001192,164682.745,164691.90000000596,164699.318,169864.865,8,400,18,,ISIC_0068633.JPG
break,html.Screen,4_17_1,2023-11-03T20:35:14.114Z,,0,,,NaN,,,,,,false,,,,169854,169853.80000001192,,169853.20000001788,,169864.865,8,400,,,
break_continue,html.Screen,4_17_2,2023-11-03T20:35:14.114Z,,0,,,NaN,,,,,,false,,,,169854.5,169854.40000000596,,169854.20000001788,,169864.865,8,400,,,
sequence,flow.Sequence,4_17,2023-11-03T20:35:14.114Z,,0,,,5155.082000005961,completion,,,,,false,,,,169854.70000001788,169854.40000000596,164682.745,164691.80000001192,164699.318,169864.865,8,400,,,
trial,html.Screen,4_18_0,2023-11-03T20:35:21.623Z,,0,1,,7498.43500001193,response,ISIC_0007749.JPG,12,ISIC_1342117.JPG,ISIC_0007749.JPG,false,1,keypress(m),500,177363.5,177363.30000001192,169848.189,169854.80000001192,169864.865,177379.577,8,400,19,,ISIC_1342117.JPG
break,html.Screen,4_18_1,2023-11-03T20:35:21.625Z,,0,,,NaN,,,,,,false,,,,177365.09999999404,177364.70000001788,,177363.80000001192,,177379.577,8,400,,,
break_continue,html.Screen,4_18_2,2023-11-03T20:35:21.626Z,,0,,,NaN,,,,,,false,,,,177366,177365.90000000596,,177365.30000001192,,177379.577,8,400,,,
sequence,flow.Sequence,4_18,2023-11-03T20:35:21.626Z,,0,,,7501.03500000597,completion,,,,,false,,,,177366.20000001788,177365.90000000596,169848.189,169854.80000001192,169864.865,177379.577,8,400,,,
trial,html.Screen,4_19_0,2023-11-03T20:35:27.571Z,,0,1,,5931.42300000001,response,ISIC_0010440.JPG,8,ISIC_0060656.JPG,ISIC_0010440.JPG,false,1,keypress(m),500,183311.59999999404,183311,177363.066,177366.40000000596,177379.577,183328.198,8,400,20,,ISIC_0060656.JPG
break,html.Screen,4_19_1,2023-11-03T20:35:27.574Z,,0,,,NaN,,,,,,false,,,,183314.40000000596,183313.80000001192,,183312,,183328.198,8,400,,,
break_continue,html.Screen,4_19_2,2023-11-03T20:35:27.579Z,,0,,,NaN,,,,,,false,,,,183319,183318.59999999404,,183317.80000001192,,183328.198,8,400,,,
sequence,flow.Sequence,4_19,2023-11-03T20:35:27.579Z,,0,,,5939.022999994049,completion,,,,,false,,,,183319.5,183318.59999999404,177363.066,177366.40000000596,177379.577,183328.198,8,400,,,
trial,html.Screen,4_20_0,2023-11-03T20:35:30.690Z,,0,1,,3101.9019999940356,response,ISIC_0014431.JPG,6,ISIC_0076742.JPG,ISIC_0076742.JPG,false,0,keypress(z),500,186430.40000000596,186430.09999999404,183311.672,183320,183328.198,186444.287,8,400,21,,ISIC_0014431.JPG
break,html.Screen,4_20_1,2023-11-03T20:35:30.691Z,,0,,,NaN,,,,,,false,,,,186431.59999999404,186431.40000000596,,186430.5,,186444.287,8,400,,,
break_continue,html.Screen,4_20_2,2023-11-03T20:35:30.692Z,,0,,,NaN,,,,,,false,,,,186432.09999999404,186432,,186431.80000001192,,186444.287,8,400,,,
sequence,flow.Sequence,4_20,2023-11-03T20:35:30.692Z,,0,,,3103.801999999996,completion,,,,,false,,,,186432.30000001192,186432,183311.672,183319.80000001192,183328.198,186444.287,8,400,,,
trial,html.Screen,4_21_0,2023-11-03T20:35:34.398Z,,0,1,,3693.712999999989,response,ISIC_8363485.JPG,10,ISIC_5126638.JPG,ISIC_8363485.JPG,false,1,keypress(m),500,190138.40000000596,190138,186427.404,186432.40000000596,186444.287,190143.191,8,400,22,,ISIC_5126638.JPG
break,html.Screen,4_21_1,2023-11-03T20:35:34.400Z,,0,,,NaN,,,,,,false,,,,190140.80000001192,190139.90000000596,,190138.70000001788,,190143.191,8,400,,,
break_continue,html.Screen,4_21_2,2023-11-03T20:35:34.402Z,,0,,,NaN,,,,,,false,,,,190142.40000000596,190141.90000000596,,190141.20000001788,,190143.191,8,400,,,
sequence,flow.Sequence,4_21,2023-11-03T20:35:34.402Z,,0,,,3697.6130000059493,completion,,,,,false,,,,190142.90000000596,190141.90000000596,186427.404,186432.30000001192,186444.287,190143.191,8,400,,,
trial,html.Screen,4_22_0,2023-11-03T20:35:41.624Z,,0,1,,7221.209000005969,response,ISIC_9232153.JPG,6,ISIC_5092834.JPG,ISIC_9232153.JPG,false,1,keypress(m),500,197364.70000001788,197364.40000000596,190126.773,190143.30000001192,190143.191,197374.886,8,400,23,,ISIC_5092834.JPG
break,html.Screen,4_22_1,2023-11-03T20:35:41.626Z,,0,,,NaN,,,,,,false,,,,197366.30000001192,197365.90000000596,,197364.90000000596,,197374.886,8,400,,,
break_continue,html.Screen,4_22_2,2023-11-03T20:35:41.627Z,,0,,,NaN,,,,,,false,,,,197367.09999999404,197366.80000001192,,197366.5,,197374.886,8,400,,,
sequence,flow.Sequence,4_22,2023-11-03T20:35:41.627Z,,0,,,7223.609000011929,completion,,,,,false,,,,197367.30000001192,197366.80000001192,190126.773,190143.20000001788,190143.191,197374.886,8,400,,,
trial,html.Screen,4_23_0,2023-11-03T20:35:45.666Z,,0,1,,4031.1140000000014,response,ISIC_8297563.JPG,11,ISIC_0054906.JPG,ISIC_0054906.JPG,false,0,keypress(z),500,201406.40000000596,201406,197358.098,197367.5,197374.886,201423.797,8,400,24,,ISIC_8297563.JPG
break,html.Screen,4_23_1,2023-11-03T20:35:45.669Z,,0,,,NaN,,,,,,false,,,,201409.30000001192,201408.40000000596,,201406.80000001192,,201423.797,8,400,,,
break_continue,html.Screen,4_23_2,2023-11-03T20:35:45.670Z,,0,,,NaN,,,,,,false,,,,201410.40000000596,201410.20000001788,,201409.70000001788,,201423.797,8,400,,,
sequence,flow.Sequence,4_23,2023-11-03T20:35:45.670Z,,0,,,4035.314000017883,completion,,,,,false,,,,201410.80000001192,201410.20000001788,197358.098,197367.5,197374.886,201423.797,8,400,,,
trial,html.Screen,4_24_0,2023-11-03T20:35:52.955Z,,0,1,,7271.203000000009,response,ISIC_7125023.JPG,10,ISIC_6441128.JPG,ISIC_6441128.JPG,false,0,keypress(z),500,208695.30000001192,208695,201407.079,201411,201423.797,208705.272,8,400,25,,ISIC_7125023.JPG
break,html.Screen,4_24_1,2023-11-03T20:35:52.957Z,,0,,,NaN,,,,,,false,,,,208697.30000001192,208696.80000001192,,208695.5,,208705.272,8,400,,,
break_continue,html.Screen,4_24_2,2023-11-03T20:35:52.958Z,,0,,,NaN,,,,,,false,,,,208698.20000001788,208698,,208697.59999999404,,208705.272,8,400,,,
sequence,flow.Sequence,4_24,2023-11-03T20:35:52.958Z,,0,,,7274.203000000009,completion,,,,,false,,,,208698.70000001788,208698,201407.079,201411,201423.797,208705.272,8,400,,,
trial,html.Screen,4_25_0,2023-11-03T20:36:00.486Z,,0,1,,7520.428000017884,response,ISIC_1711134.JPG,10,ISIC_0010971.JPG,ISIC_0010971.JPG,false,0,keypress(z),500,216225.90000000596,216225.70000001788,208688.847,208698.90000000596,208705.272,216236.744,8,400,26,,ISIC_1711134.JPG
break,html.Screen,4_25_1,2023-11-03T20:36:00.487Z,,0,,,NaN,,,,,,false,,,,216227.20000001788,216226.80000001192,,216226.09999999404,,216236.744,8,400,,,
break_continue,html.Screen,4_25_2,2023-11-03T20:36:00.487Z,,0,,,NaN,,,,,,false,,,,216227.59999999404,216227.5,,216227.30000001192,,216236.744,8,400,,,
sequence,flow.Sequence,4_25,2023-11-03T20:36:00.487Z,,0,,,7522.228000000003,completion,,,,,false,,,,216227.80000001192,216227.5,208688.847,208698.80000001192,208705.272,216236.744,8,400,,,
trial,html.Screen,4_26_0,2023-11-03T20:36:09.340Z,,0,1,,8843.355999994033,response,ISIC_9699426.JPG,10,ISIC_0068610.JPG,ISIC_0068610.JPG,false,0,keypress(z),500,225080.30000001192,225080.09999999404,216220.169,216228,216236.744,225084.574,8,400,27,,ISIC_9699426.JPG
break,html.Screen,4_26_1,2023-11-03T20:36:09.341Z,,0,,,NaN,,,,,,false,,,,225081.30000001192,225081.09999999404,,225080.5,,225084.574,8,400,,,
break_continue,html.Screen,4_26_2,2023-11-03T20:36:09.341Z,,0,,,NaN,,,,,,false,,,,225081.80000001192,225081.70000001788,,225081.5,,225084.574,8,400,,,
sequence,flow.Sequence,4_26,2023-11-03T20:36:09.342Z,,0,,,8844.956000017875,completion,,,,,false,,,,225081.90000000596,225081.70000001788,216220.169,216227.90000000596,216236.744,225084.574,8,400,,,
trial,html.Screen,4_27_0,2023-11-03T20:36:14.453Z,,0,1,,5108.726000011928,response,ISIC_7682938.JPG,5,ISIC_2383335.JPG,ISIC_7682938.JPG,false,1,keypress(m),500,230193.59999999404,230193.30000001192,225067.871,225082.09999999404,225084.574,230200.082,8,400,28,,ISIC_2383335.JPG
break,html.Screen,4_27_1,2023-11-03T20:36:14.455Z,,0,,,NaN,,,,,,false,,,,230195.59999999404,230195.20000001788,,230194,,230200.082,8,400,,,
break_continue,html.Screen,4_27_2,2023-11-03T20:36:14.456Z,,0,,,NaN,,,,,,false,,,,230196.5,230196.20000001788,,230195.90000000596,,230200.082,8,400,,,
sequence,flow.Sequence,4_27,2023-11-03T20:36:14.456Z,,0,,,5111.626000017888,completion,,,,,false,,,,230196.80000001192,230196.20000001788,225067.871,225082.09999999404,225084.574,230200.082,8,400,,,
trial,html.Screen,4_28_0,2023-11-03T20:36:19.260Z,,0,1,,4800.017999994045,response,ISIC_2482061.JPG,7,ISIC_0068525.JPG,ISIC_2482061.JPG,false,1,keypress(m),500,235000.59999999404,235000.09999999404,230183.611,230197.09999999404,230200.082,235032.175,8,400,29,,ISIC_0068525.JPG
break,html.Screen,4_28_1,2023-11-03T20:36:19.265Z,,0,,,NaN,,,,,,false,,,,235004.90000000596,235004.40000000596,,235003.5,,235032.175,8,400,,,
break_continue,html.Screen,4_28_2,2023-11-03T20:36:19.266Z,,0,,,NaN,,,,,,false,,,,235006,235005.59999999404,,235005.09999999404,,235032.175,8,400,,,
sequence,flow.Sequence,4_28,2023-11-03T20:36:19.266Z,,0,,,4805.517999994045,completion,,,,,false,,,,235006.5,235005.59999999404,230183.611,230197,230200.082,235032.175,8,400,,,
trial,html.Screen,4_29_0,2023-11-03T20:36:23.064Z,,0,1,,3771.725000005972,response,ISIC_0033681.JPG,11,ISIC_6626544.JPG,ISIC_6626544.JPG,false,0,keypress(z),500,238804.5,238803.90000000596,235015.57,235006.90000000596,235032.175,238814.625,8,400,30,,ISIC_0033681.JPG
break,html.Screen,4_29_1,2023-11-03T20:36:23.067Z,,0,,,NaN,,,,,,false,,,,238806.90000000596,238806.40000000596,,238805,,238814.625,8,400,,,
break_continue,html.Screen,4_29_2,2023-11-03T20:36:23.067Z,,0,,,NaN,,,,,,false,,,,238807.80000001192,238807.59999999404,,238807.20000001788,,238814.625,8,400,,,
sequence,flow.Sequence,4_29,2023-11-03T20:36:23.068Z,,0,,,3775.424999994051,completion,,,,,false,,,,238808.09999999404,238807.59999999404,235015.57,235006.90000000596,235032.175,238814.625,8,400,,,
trial,html.Screen,4_30_0,2023-11-03T20:36:26.326Z,,0,1,,3251.675000011921,response,ISIC_0028410.JPG,10,ISIC_0067412.JPG,ISIC_0028410.JPG,false,1,keypress(m),500,242066.80000001192,242066.30000001192,238798.001,238808.40000000596,238814.625,242080.468,8,400,31,,ISIC_0067412.JPG
break,html.Screen,4_30_1,2023-11-03T20:36:26.329Z,,0,,,NaN,,,,,,false,,,,242069.40000000596,242068.70000001788,,242067.30000001192,,242080.468,8,400,,,
break_continue,html.Screen,4_30_2,2023-11-03T20:36:26.330Z,,0,,,NaN,,,,,,false,,,,242070.40000000596,242070.20000001788,,242069.70000001788,,242080.468,8,400,,,
sequence,flow.Sequence,4_30,2023-11-03T20:36:26.330Z,,0,,,3255.5750000178814,completion,,,,,false,,,,242070.70000001788,242070.20000001788,238798.001,238808.30000001192,238814.625,242080.468,8,400,,,
trial,html.Screen,4_31_0,2023-11-03T20:36:31.428Z,,0,1,,5087.631999994046,response,ISIC_5247560.JPG,11,ISIC_0055287.JPG,ISIC_5247560.JPG,false,1,keypress(m),500,247168.59999999404,247168.09999999404,242063.787,242071,242080.468,247179.274,8,400,32,,ISIC_0055287.JPG
break,html.Screen,4_31_1,2023-11-03T20:36:31.431Z,,0,,,NaN,,,,,,false,,,,247170.90000000596,247170.40000000596,,247169.09999999404,,247179.274,8,400,,,
break_continue,html.Screen,4_31_2,2023-11-03T20:36:31.432Z,,0,,,NaN,,,,,,false,,,,247172.20000001788,247171.80000001192,,247171.30000001192,,247179.274,8,400,,,
sequence,flow.Sequence,4_31,2023-11-03T20:36:31.432Z,,0,,,5091.332000011927,completion,,,,,false,,,,247172.70000001788,247171.80000001192,242063.787,242071,242080.468,247179.274,8,400,,,
trial,html.Screen,4_32_0,2023-11-03T20:36:34.402Z,,0,1,,2962.526000011916,response,ISIC_0448195.JPG,5,ISIC_0021713.JPG,ISIC_0021713.JPG,false,0,keypress(z),500,250142.30000001192,250141.80000001192,247162.679,247173,247179.274,250145.197,8,400,33,,ISIC_0448195.JPG
break,html.Screen,4_32_1,2023-11-03T20:36:34.404Z,,0,,,NaN,,,,,,false,,,,250144.5,250143.90000000596,,250142.70000001788,,250145.197,8,400,,,
break_continue,html.Screen,4_32_2,2023-11-03T20:36:34.406Z,,0,,,NaN,,,,,,false,,,,250145.90000000596,250145.5,,250144.80000001192,,250145.197,8,400,,,
sequence,flow.Sequence,4_32,2023-11-03T20:36:34.406Z,,0,,,2966.225999999995,completion,,,,,false,,,,250146.40000000596,250145.5,247162.679,247172.90000000596,247179.274,250145.197,8,400,,,
trial,html.Screen,4_33_0,2023-11-03T20:36:38.354Z,,0,1,,3948.6030000119354,response,ISIC_7462953.JPG,9,ISIC_6916213.JPG,ISIC_7462953.JPG,false,1,keypress(m),500,254094.30000001192,254093.80000001192,250141.865,250146.90000000596,250145.197,254110.783,8,400,34,,ISIC_6916213.JPG
break,html.Screen,4_33_1,2023-11-03T20:36:38.356Z,,0,,,NaN,,,,,,false,,,,254096.59999999404,254096.09999999404,,254094.80000001192,,254110.783,8,400,,,
break_continue,html.Screen,4_33_2,2023-11-03T20:36:38.357Z,,0,,,NaN,,,,,,false,,,,254097.59999999404,254097.20000001788,,254096.80000001192,,254110.783,8,400,,,
sequence,flow.Sequence,4_33,2023-11-03T20:36:38.358Z,,0,,,3952.003000017896,completion,,,,,false,,,,254098,254097.20000001788,250141.865,250146.90000000596,250145.197,254110.783,8,400,,,
trial,html.Screen,4_34_0,2023-11-03T20:36:41.120Z,,0,1,,2749.4170000178856,response,ISIC_0062505.JPG,9,ISIC_0588855.JPG,ISIC_0588855.JPG,false,0,keypress(z),500,256860.5,256860.20000001788,254094.327,254098.5,254110.783,256876.963,8,400,35,,ISIC_0062505.JPG
break,html.Screen,4_34_1,2023-11-03T20:36:41.121Z,,0,,,NaN,,,,,,false,,,,256861.70000001788,256861.5,,256860.70000001788,,256876.963,8,400,,,
break_continue,html.Screen,4_34_2,2023-11-03T20:36:41.122Z,,0,,,NaN,,,,,,false,,,,256862.40000000596,256862.20000001788,,256861.90000000596,,256876.963,8,400,,,
sequence,flow.Sequence,4_34,2023-11-03T20:36:41.122Z,,0,,,2751.4170000178856,completion,,,,,false,,,,256862.5,256862.20000001788,254094.327,254098.30000001192,254110.783,256876.963,8,400,,,
trial,html.Screen,4_35_0,2023-11-03T20:36:43.804Z,,0,1,,2667.2370000178926,response,ISIC_0025001.JPG,11,ISIC_5813642.JPG,ISIC_5813642.JPG,false,0,keypress(z),500,259544.5,259544.20000001788,256860.171,256862.70000001788,256876.963,259559.525,8,400,36,,ISIC_0025001.JPG
break,html.Screen,4_35_1,2023-11-03T20:36:43.806Z,,0,,,NaN,,,,,,false,,,,259546,259545.59999999404,,259544.70000001788,,259559.525,8,400,,,
break_continue,html.Screen,4_35_2,2023-11-03T20:36:43.806Z,,0,,,NaN,,,,,,false,,,,259546.5,259546.40000000596,,259546.09999999404,,259559.525,8,400,,,
sequence,flow.Sequence,4_35,2023-11-03T20:36:43.806Z,,0,,,2669.4370000059716,completion,,,,,false,,,,259546.80000001192,259546.40000000596,256860.171,256862.70000001788,256876.963,259559.525,8,400,,,
trial,html.Screen,4_36_0,2023-11-03T20:36:50.051Z,,0,1,,6231.675000017887,response,ISIC_0010925.JPG,8,ISIC_6676776.JPG,ISIC_0010925.JPG,false,1,keypress(m),500,265791.59999999404,265791.2000000179,259542.953,259547.09999999404,259559.525,265807.897,8,400,37,,ISIC_6676776.JPG
break,html.Screen,4_36_1,2023-11-03T20:36:50.053Z,,0,,,NaN,,,,,,false,,,,265793.09999999404,265792.7000000179,,265791.90000000596,,265807.897,8,400,,,
break_continue,html.Screen,4_36_2,2023-11-03T20:36:50.054Z,,0,,,NaN,,,,,,false,,,,265794.09999999404,265793.90000000596,,265793.40000000596,,265807.897,8,400,,,
sequence,flow.Sequence,4_36,2023-11-03T20:36:50.054Z,,0,,,6234.375000005966,completion,,,,,false,,,,265794.3000000119,265793.90000000596,259542.953,259547.09999999404,259559.525,265807.897,8,400,,,
trial,html.Screen,4_37_0,2023-11-03T20:36:54.238Z,,0,1,,4170.202999994042,response,ISIC_0046615.JPG,11,ISIC_3314555.JPG,ISIC_0046615.JPG,false,1,keypress(m),500,269978.40000000596,269978.09999999404,265791.471,265794.5,265807.897,269990.363,8,400,38,,ISIC_3314555.JPG
break,html.Screen,4_37_1,2023-11-03T20:36:54.239Z,,0,,,NaN,,,,,,false,,,,269979.2000000179,269979.09999999404,,269978.5,,269990.363,8,400,,,
break_continue,html.Screen,4_37_2,2023-11-03T20:36:54.239Z,,0,,,NaN,,,,,,false,,,,269979.7000000179,269979.59999999404,,269979.40000000596,,269990.363,8,400,,,
sequence,flow.Sequence,4_37,2023-11-03T20:36:54.240Z,,0,,,4171.702999994042,completion,,,,,false,,,,269979.90000000596,269979.59999999404,265791.471,265794.40000000596,265807.897,269990.363,8,400,,,
trial,html.Screen,4_38_0,2023-11-03T20:36:57.126Z,,0,1,,2875.937000011909,response,ISIC_0003550.JPG,12,ISIC_6905623.JPG,ISIC_6905623.JPG,false,0,keypress(z),500,272866.7000000179,272866.3000000119,269973.71,269980,269990.363,272872.958,8,400,39,,ISIC_0003550.JPG
break,html.Screen,4_38_1,2023-11-03T20:36:57.128Z,,0,,,NaN,,,,,,false,,,,272868.40000000596,272868.09999999404,,272867,,272872.958,8,400,,,
break_continue,html.Screen,4_38_2,2023-11-03T20:36:57.129Z,,0,,,NaN,,,,,,false,,,,272869.3000000119,272869.09999999404,,272868.7000000179,,272872.958,8,400,,,
sequence,flow.Sequence,4_38,2023-11-03T20:36:57.129Z,,0,,,2878.7369999940274,completion,,,,,false,,,,272869.59999999404,272869.09999999404,269973.71,269979.90000000596,269990.363,272872.958,8,400,,,
trial,html.Screen,4_39_0,2023-11-03T20:36:59.843Z,,0,1,,2710.542000000016,response,ISIC_2619533.JPG,8,ISIC_0033125.JPG,ISIC_0033125.JPG,false,0,keypress(z),500,275583.8000000119,275583.5,272856.287,272869.90000000596,272872.958,275588.875,8,400,40,,ISIC_2619533.JPG
break,html.Screen,4_39_1,2023-11-03T20:36:59.845Z,,0,,,NaN,,,,,,false,,,,275585.09999999404,275584.8000000119,,275584.09999999404,,275588.875,8,400,,,
break_continue,html.Screen,4_39_2,2023-11-03T20:36:59.845Z,,0,,,NaN,,,,,,false,,,,275585.7000000179,275585.5,,275585.3000000119,,275588.875,8,400,,,
sequence,flow.Sequence,4_39,2023-11-03T20:36:59.846Z,,0,,,2712.542000000016,completion,,,,,false,,,,275586,275585.5,272856.287,272869.8000000119,272872.958,275588.875,8,400,,,
trial,html.Screen,4_40_0,2023-11-03T20:37:02.797Z,,0,1,,2947.625,response,ISIC_7570343.JPG,6,ISIC_4930632.JPG,ISIC_7570343.JPG,false,1,keypress(m),500,278537,278536.5,275572.314,275586.09999999404,275588.875,278571.57,8,400,41,,ISIC_4930632.JPG
break,html.Screen,4_40_1,2023-11-03T20:37:02.799Z,,0,,,NaN,,,,,,false,,,,278539.59999999404,278538.7000000179,,278537.3000000119,,278571.57,8,400,,,
break_continue,html.Screen,4_40_2,2023-11-03T20:37:02.801Z,,0,,,NaN,,,,,,false,,,,278541,278540.59999999404,,278539.90000000596,,278571.57,8,400,,,
sequence,flow.Sequence,4_40,2023-11-03T20:37:02.802Z,,0,,,2951.7249999940395,completion,,,,,false,,,,278541.90000000596,278540.59999999404,275572.314,275586,275588.875,278571.57,8,400,,,
trial,html.Screen,4_41_0,2023-11-03T20:37:06.314Z,,0,1,,3482.6300000178744,response,ISIC_4132082.JPG,7,ISIC_0031463.JPG,ISIC_0031463.JPG,false,0,keypress(z),500,282054.40000000596,282054.2000000179,278554.921,278542.3000000119,278571.57,282070.65,8,400,42,,ISIC_4132082.JPG
break,html.Screen,4_41_1,2023-11-03T20:37:06.315Z,,0,,,NaN,,,,,,false,,,,282055.8000000119,282055.5,,282054.7000000179,,282070.65,8,400,,,
break_continue,html.Screen,4_41_2,2023-11-03T20:37:06.316Z,,0,,,NaN,,,,,,false,,,,282056.40000000596,282056.2000000179,,282055.90000000596,,282070.65,8,400,,,
sequence,flow.Sequence,4_41,2023-11-03T20:37:06.316Z,,0,,,3484.6300000178744,completion,,,,,false,,,,282056.59999999404,282056.2000000179,278554.921,278542.09999999404,278571.57,282070.65,8,400,,,
trial,html.Screen,4_42_0,2023-11-03T20:37:09.653Z,,0,1,,3322.750000005937,response,ISIC_0011733.JPG,6,ISIC_3002956.JPG,ISIC_3002956.JPG,false,0,keypress(z),500,285393.7000000179,285393.40000000596,282053.968,282056.7000000179,282070.65,285403.146,8,400,43,,ISIC_0011733.JPG
break,html.Screen,4_42_1,2023-11-03T20:37:09.655Z,,0,,,NaN,,,,,,false,,,,285394.90000000596,285394.59999999404,,285393.90000000596,,285403.146,8,400,,,
break_continue,html.Screen,4_42_2,2023-11-03T20:37:09.655Z,,0,,,NaN,,,,,,false,,,,285395.40000000596,285395.3000000119,,285395,,285403.146,8,400,,,
sequence,flow.Sequence,4_42,2023-11-03T20:37:09.655Z,,0,,,3324.6500000118976,completion,,,,,false,,,,285395.59999999404,285395.3000000119,282053.968,282056.7000000179,282070.65,285403.146,8,400,,,
trial,html.Screen,4_43_0,2023-11-03T20:37:12.444Z,,0,1,,2780.654000011913,response,ISIC_0015045.JPG,9,ISIC_0028781.JPG,ISIC_0015045.JPG,false,1,keypress(m),500,288184,288183.8000000119,285386.553,285395.8000000119,285403.146,288208.482,8,400,44,,ISIC_0028781.JPG
break,html.Screen,4_43_1,2023-11-03T20:37:12.445Z,,0,,,NaN,,,,,,false,,,,288185.09999999404,288184.90000000596,,288184.3000000119,,288208.482,8,400,,,
break_continue,html.Screen,4_43_2,2023-11-03T20:37:12.445Z,,0,,,NaN,,,,,,false,,,,288185.5,288185.40000000596,,288185.3000000119,,288208.482,8,400,,,
sequence,flow.Sequence,4_43,2023-11-03T20:37:12.445Z,,0,,,2782.2540000059525,completion,,,,,false,,,,288185.7000000179,288185.40000000596,285386.553,285395.7000000179,285403.146,288208.482,8,400,,,
trial,html.Screen,4_44_0,2023-11-03T20:37:17.794Z,,0,1,,5325.617999994021,response,ISIC_6606131.JPG,12,ISIC_2067576.JPG,ISIC_2067576.JPG,false,0,keypress(z),500,293534.5,293534.09999999404,288169.253,288185.8000000119,288208.482,293551.17,8,400,45,,ISIC_6606131.JPG
break,html.Screen,4_44_1,2023-11-03T20:37:17.797Z,,0,,,NaN,,,,,,false,,,,293537.09999999404,293536.40000000596,,293535,,293551.17,8,400,,,
break_continue,html.Screen,4_44_2,2023-11-03T20:37:17.798Z,,0,,,NaN,,,,,,false,,,,293538.3000000119,293537.90000000596,,293537.40000000596,,293551.17,8,400,,,
sequence,flow.Sequence,4_44,2023-11-03T20:37:17.798Z,,0,,,5329.418000005942,completion,,,,,false,,,,293538.5,293537.90000000596,288169.253,288185.8000000119,288208.482,293551.17,8,400,,,
trial,html.Screen,4_45_0,2023-11-03T20:37:23.227Z,,0,1,,5415.730000005977,response,ISIC_0057155.JPG,7,ISIC_8617277.JPG,ISIC_8617277.JPG,false,0,keypress(z),500,298967.40000000596,298966.90000000596,293534.873,293538.8000000119,293551.17,298983.19,8,400,46,,ISIC_0057155.JPG
break,html.Screen,4_45_1,2023-11-03T20:37:23.230Z,,0,,,NaN,,,,,,false,,,,298969.90000000596,298969.3000000119,,298968,,298983.19,8,400,,,
break_continue,html.Screen,4_45_2,2023-11-03T20:37:23.231Z,,0,,,NaN,,,,,,false,,,,298971,298970.7000000179,,298970.2000000179,,298983.19,8,400,,,
sequence,flow.Sequence,4_45,2023-11-03T20:37:23.231Z,,0,,,5419.530000017898,completion,,,,,false,,,,298971.59999999404,298970.7000000179,293534.873,293538.7000000179,293551.17,298983.19,8,400,,,
trial,html.Screen,4_46_0,2023-11-03T20:37:33.300Z,,0,1,,10057.309999999998,response,ISIC_2384274.JPG,6,ISIC_9364740.JPG,ISIC_9364740.JPG,false,0,keypress(z),500,309040.7000000179,309040.5,298966.772,298971.90000000596,298983.19,309047.318,8,400,47,,ISIC_2384274.JPG
break,html.Screen,4_46_1,2023-11-03T20:37:33.302Z,,0,,,NaN,,,,,,false,,,,309041.90000000596,309041.59999999404,,309040.90000000596,,309047.318,8,400,,,
break_continue,html.Screen,4_46_2,2023-11-03T20:37:33.302Z,,0,,,NaN,,,,,,false,,,,309042.40000000596,309042.2000000179,,309042,,309047.318,8,400,,,
sequence,flow.Sequence,4_46,2023-11-03T20:37:33.302Z,,0,,,10059.010000017879,completion,,,,,false,,,,309042.59999999404,309042.2000000179,298966.772,298971.7000000179,298983.19,309047.318,8,400,,,
trial,html.Screen,4_47_0,2023-11-03T20:37:40.300Z,,0,1,,6992.382000017853,response,ISIC_7642591.JPG,8,ISIC_0028788.JPG,ISIC_0028788.JPG,false,0,keypress(z),500,316040,316039.7000000179,309030.721,309042.8000000119,309047.318,316045.704,8,400,48,,ISIC_7642591.JPG
break,html.Screen,4_47_1,2023-11-03T20:37:40.302Z,,0,,,NaN,,,,,,false,,,,316041.8000000119,316041.40000000596,,316040.40000000596,,316045.704,8,400,,,
break_continue,html.Screen,4_47_2,2023-11-03T20:37:40.302Z,,0,,,NaN,,,,,,false,,,,316042.59999999404,316042.40000000596,,316042.09999999404,,316045.704,8,400,,,
sequence,flow.Sequence,4_47,2023-11-03T20:37:40.303Z,,0,,,6995.082000005932,completion,,,,,false,,,,316042.90000000596,316042.40000000596,309030.721,309042.7000000179,309047.318,316045.704,8,400,,,
trial,html.Screen,4_48_0,2023-11-03T20:37:43.738Z,,0,1,,3431.8959999940125,response,ISIC_0011858.JPG,13,ISIC_1292607.JPG,ISIC_0011858.JPG,false,1,keypress(m),500,319478,319477.59999999404,316029.173,316043.2000000179,316045.704,319494.816,8,400,49,,ISIC_1292607.JPG
break,html.Screen,4_48_1,2023-11-03T20:37:43.741Z,,0,,,NaN,,,,,,false,,,,319480.8000000119,319480.09999999404,,319478.40000000596,,319494.816,8,400,,,
break_continue,html.Screen,4_48_2,2023-11-03T20:37:43.742Z,,0,,,NaN,,,,,,false,,,,319482.09999999404,319481.7000000179,,319481.2000000179,,319494.816,8,400,,,
sequence,flow.Sequence,4_48,2023-11-03T20:37:43.742Z,,0,,,3435.9960000178544,completion,,,,,false,,,,319482.40000000596,319481.7000000179,316029.173,316043.09999999404,316045.704,319494.816,8,400,,,
trial,html.Screen,4_49_0,2023-11-03T20:37:47.560Z,,0,1,,3805.38400001789,response,ISIC_7131973.JPG,9,ISIC_0013457.JPG,ISIC_7131973.JPG,false,1,keypress(m),500,323300.5,323300.2000000179,319478.097,319482.7000000179,319494.816,323310.485,8,400,50,,ISIC_0013457.JPG
break,html.Screen,4_49_1,2023-11-03T20:37:57.553Z,,0,,,9997.688000000024,timeout,,,,,false,,,,333292.8000000119,333291.469,323294.013,323301,323310.485,333308.173,8,400,,,
break_continue,html.Screen,4_49_2,2023-11-03T20:38:03.789Z,,0,,,6200.627000011911,response,,,,,false,continue,keypress(Space),,339529,339508.8000000119,333291.469,333293.09999999404,333308.173,339539.851,8,400,,,
sequence,flow.Sequence,4_49,2023-11-03T20:38:03.791Z,,0,,,20013.98400001193,completion,,,,,false,,,,339530.90000000596,339508.8000000119,319478.097,319482.59999999404,319494.816,339539.851,8,400,,,
trial,html.Screen,4_50_0,2023-11-03T20:38:07.561Z,,0,2,,3760.5490000059363,response,ISIC_0010208.JPG,9,ISIC_0061735.JPG,ISIC_0010208.JPG,false,1,keypress(m),500,343300.8000000119,343300.40000000596,339523.033,339531.09999999404,339539.851,343338.896,8,400,1,,ISIC_0061735.JPG
break,html.Screen,4_50_1,2023-11-03T20:38:07.562Z,,0,,,NaN,,,,,,false,,,,343302.5,343302.09999999404,,343301.2000000179,,343338.896,8,400,,,
break_continue,html.Screen,4_50_2,2023-11-03T20:38:07.563Z,,0,,,NaN,,,,,,false,,,,343303.5,343303.2000000179,,343302.90000000596,,343338.896,8,400,,,
sequence,flow.Sequence,4_50,2023-11-03T20:38:07.564Z,,0,,,3763.349000017857,completion,,,,,false,,,,343303.8000000119,343303.2000000179,339523.033,339531.09999999404,339539.851,343338.896,8,400,,,
trial,html.Screen,4_51_0,2023-11-03T20:38:10.710Z,,0,2,,3110.8040000178735,response,ISIC_0501108.JPG,11,ISIC_5755836.JPG,ISIC_0501108.JPG,false,1,keypress(m),500,346449.90000000596,346449.7000000179,343323.252,343304.09999999404,343338.896,346454.844,8,400,2,,ISIC_5755836.JPG
break,html.Screen,4_51_1,2023-11-03T20:38:10.711Z,,0,,,NaN,,,,,,false,,,,346451.2000000179,346450.90000000596,,346450.09999999404,,346454.844,8,400,,,
break_continue,html.Screen,4_51_2,2023-11-03T20:38:10.711Z,,0,,,NaN,,,,,,false,,,,346451.8000000119,346451.59999999404,,346451.40000000596,,346454.844,8,400,,,
sequence,flow.Sequence,4_51,2023-11-03T20:38:10.712Z,,0,,,3112.7039999940316,completion,,,,,false,,,,346452,346451.59999999404,343323.252,343304.09999999404,343338.896,346454.844,8,400,,,
trial,html.Screen,4_52_0,2023-11-03T20:38:14.124Z,,0,2,,3409.456000011938,response,ISIC_8680266.JPG,9,ISIC_0082704.JPG,ISIC_8680266.JPG,false,1,keypress(m),500,349864.5,349864.3000000119,346438.13,346452.09999999404,346454.844,349870.638,8,400,3,,ISIC_0082704.JPG
break,html.Screen,4_52_1,2023-11-03T20:38:14.126Z,,0,,,NaN,,,,,,false,,,,349865.90000000596,349865.59999999404,,349864.8000000119,,349870.638,8,400,,,
break_continue,html.Screen,4_52_2,2023-11-03T20:38:14.126Z,,0,,,NaN,,,,,,false,,,,349866.59999999404,349866.3000000119,,349866.09999999404,,349870.638,8,400,,,
sequence,flow.Sequence,4_52,2023-11-03T20:38:14.127Z,,0,,,3411.456000011938,completion,,,,,false,,,,349866.90000000596,349866.3000000119,346438.13,346452.09999999404,346454.844,349870.638,8,400,,,
trial,html.Screen,4_53_0,2023-11-03T20:38:16.967Z,,0,2,,2836.2620000059833,response,ISIC_5298216.JPG,13,ISIC_0069411.JPG,ISIC_0069411.JPG,false,0,keypress(z),500,352707.2000000179,352706.90000000596,349853.969,349867.09999999404,349870.638,352719.963,8,400,4,,ISIC_5298216.JPG
break,html.Screen,4_53_1,2023-11-03T20:38:16.968Z,,0,,,NaN,,,,,,false,,,,352708.40000000596,352708.09999999404,,352707.40000000596,,352719.963,8,400,,,
break_continue,html.Screen,4_53_2,2023-11-03T20:38:16.969Z,,0,,,NaN,,,,,,false,,,,352709.09999999404,352708.90000000596,,352708.59999999404,,352719.963,8,400,,,
sequence,flow.Sequence,4_53,2023-11-03T20:38:16.969Z,,0,,,2838.2620000059833,completion,,,,,false,,,,352709.3000000119,352708.90000000596,349853.969,349867,349870.638,352719.963,8,400,,,
trial,html.Screen,4_54_0,2023-11-03T20:38:19.618Z,,0,2,,2638.337000011932,response,ISIC_0028422.JPG,10,ISIC_0009984.JPG,ISIC_0009984.JPG,false,0,keypress(z),500,355358.5,355358.3000000119,352703.317,352709.59999999404,352719.963,355369.505,8,400,5,,ISIC_0028422.JPG
break,html.Screen,4_54_1,2023-11-03T20:38:19.619Z,,0,,,NaN,,,,,,false,,,,355359.5,355359.3000000119,,355358.7000000179,,355369.505,8,400,,,
break_continue,html.Screen,4_54_2,2023-11-03T20:38:19.620Z,,0,,,NaN,,,,,,false,,,,355359.90000000596,355359.8000000119,,355359.5,,355369.505,8,400,,,
sequence,flow.Sequence,4_54,2023-11-03T20:38:19.620Z,,0,,,2639.837000011932,completion,,,,,false,,,,355360,355359.8000000119,352703.317,352709.5,352719.963,355369.505,8,400,,,
trial,html.Screen,4_55_0,2023-11-03T20:38:22.183Z,,0,2,,2553.2950000119163,response,ISIC_0000377.JPG,11,ISIC_0028220.JPG,ISIC_0028220.JPG,false,0,keypress(z),500,357923.2000000179,357922.8000000119,355352.728,355360.2000000179,355369.505,357935.428,8,400,6,,ISIC_0000377.JPG
break,html.Screen,4_55_1,2023-11-03T20:38:22.185Z,,0,,,NaN,,,,,,false,,,,357924.8000000119,357924.40000000596,,357923.5,,357935.428,8,400,,,
break_continue,html.Screen,4_55_2,2023-11-03T20:38:22.185Z,,0,,,NaN,,,,,,false,,,,357925.5,357925.3000000119,,357925,,357935.428,8,400,,,
sequence,flow.Sequence,4_55,2023-11-03T20:38:22.186Z,,0,,,2555.7950000119163,completion,,,,,false,,,,357925.90000000596,357925.3000000119,355352.728,355360.2000000179,355369.505,357935.428,8,400,,,
trial,html.Screen,4_56_0,2023-11-03T20:38:25.235Z,,0,2,,3039.8720000119065,response,ISIC_0024246.JPG,12,ISIC_8174881.JPG,ISIC_0024246.JPG,false,1,keypress(m),500,360975.59999999404,360975.3000000119,357918.941,357926.09999999404,357935.428,360984.694,8,400,7,,ISIC_8174881.JPG
break,html.Screen,4_56_1,2023-11-03T20:38:25.236Z,,0,,,NaN,,,,,,false,,,,360976.7000000179,360976.5,,360975.7000000179,,360984.694,8,400,,,
break_continue,html.Screen,4_56_2,2023-11-03T20:38:25.237Z,,0,,,NaN,,,,,,false,,,,360977.3000000119,360977.09999999404,,360976.90000000596,,360984.694,8,400,,,
sequence,flow.Sequence,4_56,2023-11-03T20:38:25.237Z,,0,,,3041.671999994025,completion,,,,,false,,,,360977.5,360977.09999999404,357918.941,357926.09999999404,357935.428,360984.694,8,400,,,
trial,html.Screen,4_57_0,2023-11-03T20:38:27.531Z,,0,2,,2285.6060000119032,response,ISIC_8278688.JPG,6,ISIC_8865595.JPG,ISIC_8278688.JPG,false,1,keypress(m),500,363270.90000000596,363270.3000000119,360967.944,360977.59999999404,360984.694,363284.105,8,400,8,,ISIC_8865595.JPG
break,html.Screen,4_57_1,2023-11-03T20:38:27.533Z,,0,,,NaN,,,,,,false,,,,363273.40000000596,363272.90000000596,,363271.40000000596,,363284.105,8,400,,,
break_continue,html.Screen,4_57_2,2023-11-03T20:38:27.534Z,,0,,,NaN,,,,,,false,,,,363274.3000000119,363274.09999999404,,363273.59999999404,,363284.105,8,400,,,
sequence,flow.Sequence,4_57,2023-11-03T20:38:27.534Z,,0,,,2289.405999994022,completion,,,,,false,,,,363274.7000000179,363274.09999999404,360967.944,360977.59999999404,360984.694,363284.105,8,400,,,
trial,html.Screen,4_58_0,2023-11-03T20:38:29.878Z,,0,2,,2333.8950000000186,response,ISIC_2519121.JPG,11,ISIC_2307760.JPG,ISIC_2307760.JPG,false,0,keypress(z),500,365618.40000000596,365618,363267.476,363274.90000000596,363284.105,365633.401,8,400,9,,ISIC_2519121.JPG
break,html.Screen,4_58_1,2023-11-03T20:38:29.879Z,,0,,,NaN,,,,,,false,,,,365619.7000000179,365619.5,,365618.59999999404,,365633.401,8,400,,,
break_continue,html.Screen,4_58_2,2023-11-03T20:38:29.880Z,,0,,,NaN,,,,,,false,,,,365620.3000000119,365620.09999999404,,365619.90000000596,,365633.401,8,400,,,
sequence,flow.Sequence,4_58,2023-11-03T20:38:29.880Z,,0,,,2335.994999994058,completion,,,,,false,,,,365620.5,365620.09999999404,363267.476,363274.8000000119,363284.105,365633.401,8,400,,,
trial,html.Screen,4_59_0,2023-11-03T20:38:32.173Z,,0,2,,2278.799000017869,response,ISIC_4936662.JPG,10,ISIC_0199116.JPG,ISIC_4936662.JPG,false,1,keypress(m),500,367912.8000000119,367912.2000000179,365616.796,365620.7000000179,365633.401,367932.924,8,400,10,,ISIC_0199116.JPG
break,html.Screen,4_59_1,2023-11-03T20:38:32.174Z,,0,,,NaN,,,,,,false,,,,367914.59999999404,367914.2000000179,,367913.2000000179,,367932.924,8,400,,,
break_continue,html.Screen,4_59_2,2023-11-03T20:38:32.175Z,,0,,,NaN,,,,,,false,,,,367915.59999999404,367915.3000000119,,367914.90000000596,,367932.924,8,400,,,
sequence,flow.Sequence,4_59,2023-11-03T20:38:32.176Z,,0,,,2281.8990000119084,completion,,,,,false,,,,367915.90000000596,367915.3000000119,365616.796,365620.7000000179,365633.401,367932.924,8,400,,,
trial,html.Screen,4_60_0,2023-11-03T20:38:34.631Z,,0,2,,2437.876000011922,response,ISIC_1644520.JPG,10,ISIC_7901891.JPG,ISIC_1644520.JPG,false,1,keypress(m),500,370371.09999999404,370370.8000000119,367916.293,367916.2000000179,367932.924,370382.317,8,400,11,,ISIC_7901891.JPG
break,html.Screen,4_60_1,2023-11-03T20:38:34.633Z,,0,,,NaN,,,,,,false,,,,370372.90000000596,370372.40000000596,,370371.59999999404,,370382.317,8,400,,,
break_continue,html.Screen,4_60_2,2023-11-03T20:38:34.633Z,,0,,,NaN,,,,,,false,,,,370373.59999999404,370373.40000000596,,370373.09999999404,,370382.317,8,400,,,
sequence,flow.Sequence,4_60,2023-11-03T20:38:34.634Z,,0,,,2440.4760000059614,completion,,,,,false,,,,370373.8000000119,370373.40000000596,367916.293,367916.2000000179,367932.924,370382.317,8,400,,,
trial,html.Screen,4_61_0,2023-11-03T20:38:37.358Z,,0,2,,2715.48300001194,response,ISIC_0024410.JPG,12,ISIC_7242542.JPG,ISIC_0024410.JPG,false,1,keypress(m),500,373098.3000000119,373097.8000000119,370365.636,370374,370382.317,373114.973,8,400,12,,ISIC_7242542.JPG
break,html.Screen,4_61_1,2023-11-03T20:38:37.360Z,,0,,,NaN,,,,,,false,,,,373100.5,373100,,373098.7000000179,,373114.973,8,400,,,
break_continue,html.Screen,4_61_2,2023-11-03T20:38:37.361Z,,0,,,NaN,,,,,,false,,,,373101.5,373101.3000000119,,373100.8000000119,,373114.973,8,400,,,
sequence,flow.Sequence,4_61,2023-11-03T20:38:37.362Z,,0,,,2718.98300001194,completion,,,,,false,,,,373101.8000000119,373101.3000000119,370365.636,370374,370382.317,373114.973,8,400,,,
trial,html.Screen,4_62_0,2023-11-03T20:38:39.800Z,,0,2,,2424.9270000059623,response,ISIC_0054025.JPG,13,ISIC_0032425.JPG,ISIC_0032425.JPG,false,0,keypress(z),500,375540.2000000179,375539.90000000596,373098.391,373102.2000000179,373114.973,375564.379,8,400,13,,ISIC_0054025.JPG
break,html.Screen,4_62_1,2023-11-03T20:38:39.801Z,,0,,,NaN,,,,,,false,,,,375541,375540.8000000119,,375540.3000000119,,375564.379,8,400,,,
break_continue,html.Screen,4_62_2,2023-11-03T20:38:39.801Z,,0,,,NaN,,,,,,false,,,,375541.5,375541.3000000119,,375541.09999999404,,375564.379,8,400,,,
sequence,flow.Sequence,4_62,2023-11-03T20:38:39.801Z,,0,,,2426.327000011923,completion,,,,,false,,,,375541.59999999404,375541.3000000119,373098.391,373102.09999999404,373114.973,375564.379,8,400,,,
trial,html.Screen,4_63_0,2023-11-03T20:38:42.607Z,,0,2,,2782.9210000119056,response,ISIC_5290521.JPG,6,ISIC_0482585.JPG,ISIC_0482585.JPG,false,0,keypress(z),500,378347.5,378347.3000000119,375547.893,375541.8000000119,375564.379,378363.761,8,400,14,,ISIC_5290521.JPG
break,html.Screen,4_63_1,2023-11-03T20:38:42.609Z,,0,,,NaN,,,,,,false,,,,378349.5,378349,,378347.90000000596,,378363.761,8,400,,,
break_continue,html.Screen,4_63_2,2023-11-03T20:38:42.610Z,,0,,,NaN,,,,,,false,,,,378350.3000000119,378350,,378349.59999999404,,378363.761,8,400,,,
sequence,flow.Sequence,4_63,2023-11-03T20:38:42.610Z,,0,,,2785.6209999999846,completion,,,,,false,,,,378350.5,378350,375547.893,375541.7000000179,375564.379,378363.761,8,400,,,
trial,html.Screen,4_64_0,2023-11-03T20:38:46.140Z,,0,2,,3516.338999994041,response,ISIC_4022621.JPG,10,ISIC_3686329.JPG,ISIC_4022621.JPG,false,1,keypress(m),500,381880.40000000596,381880.09999999404,378347.107,378350.7000000179,378363.761,381896.22,8,400,15,,ISIC_3686329.JPG
break,html.Screen,4_64_1,2023-11-03T20:38:46.142Z,,0,,,NaN,,,,,,false,,,,381881.8000000119,381881.5,,381880.7000000179,,381896.22,8,400,,,
break_continue,html.Screen,4_64_2,2023-11-03T20:38:46.142Z,,0,,,NaN,,,,,,false,,,,381882.5,381882.40000000596,,381882.09999999404,,381896.22,8,400,,,
sequence,flow.Sequence,4_64,2023-11-03T20:38:46.142Z,,0,,,3518.639000005962,completion,,,,,false,,,,381882.8000000119,381882.40000000596,378347.107,378350.59999999404,378363.761,381896.22,8,400,,,
trial,html.Screen,4_65_0,2023-11-03T20:38:49.105Z,,0,2,,2949.1800000059884,response,ISIC_9125409.JPG,6,ISIC_0027043.JPG,ISIC_9125409.JPG,false,1,keypress(m),500,384845.8000000119,384845.40000000596,381879.525,381882.90000000596,381896.22,384862.041,8,400,16,,ISIC_0027043.JPG
break,html.Screen,4_65_1,2023-11-03T20:38:49.107Z,,0,,,NaN,,,,,,false,,,,384847.2000000179,384846.8000000119,,384846,,384862.041,8,400,,,
break_continue,html.Screen,4_65_2,2023-11-03T20:38:49.107Z,,0,,,NaN,,,,,,false,,,,384847.7000000179,384847.59999999404,,384847.3000000119,,384862.041,8,400,,,
sequence,flow.Sequence,4_65,2023-11-03T20:38:49.108Z,,0,,,2951.3799999940675,completion,,,,,false,,,,384847.90000000596,384847.59999999404,381879.525,381882.90000000596,381896.22,384862.041,8,400,,,
trial,html.Screen,4_66_0,2023-11-03T20:38:51.878Z,,0,2,,2755.4589999999735,response,ISIC_0014288.JPG,9,ISIC_1083681.JPG,ISIC_0014288.JPG,false,1,keypress(m),500,387617.90000000596,387617.5,384845.489,384848.09999999404,384862.041,387628.132,8,400,17,,ISIC_1083681.JPG
break,html.Screen,4_66_1,2023-11-03T20:38:51.880Z,,0,,,NaN,,,,,,false,,,,387620.59999999404,387619.90000000596,,387618.2000000179,,387628.132,8,400,,,
break_continue,html.Screen,4_66_2,2023-11-03T20:38:51.881Z,,0,,,NaN,,,,,,false,,,,387621.5,387621.3000000119,,387620.90000000596,,387628.132,8,400,,,
sequence,flow.Sequence,4_66,2023-11-03T20:38:51.882Z,,0,,,2759.2590000118944,completion,,,,,false,,,,387621.90000000596,387621.3000000119,384845.489,384848,384862.041,387628.132,8,400,,,
trial,html.Screen,4_67_0,2023-11-03T20:38:54.515Z,,0,2,,2626.8680000000168,response,ISIC_3230874.JPG,6,ISIC_2173158.JPG,ISIC_3230874.JPG,false,1,keypress(m),500,390255.3000000119,390255,387611.737,387622.09999999404,387628.132,390260.829,8,400,18,,ISIC_2173158.JPG
break,html.Screen,4_67_1,2023-11-03T20:38:54.517Z,,0,,,NaN,,,,,,false,,,,390257.3000000119,390256.59999999404,,390255.59999999404,,390260.829,8,400,,,
break_continue,html.Screen,4_67_2,2023-11-03T20:38:54.518Z,,0,,,NaN,,,,,,false,,,,390258.3000000119,390258,,390257.59999999404,,390260.829,8,400,,,
sequence,flow.Sequence,4_67,2023-11-03T20:38:54.519Z,,0,,,2629.8680000000168,completion,,,,,false,,,,390258.8000000119,390258,387611.737,387622.09999999404,387628.132,390260.829,8,400,,,
trial,html.Screen,4_68_0,2023-11-03T20:38:57.219Z,,0,2,,2697.7709999940125,response,ISIC_3743283.JPG,7,ISIC_0072429.JPG,ISIC_3743283.JPG,false,1,keypress(m),500,392959,392958.59999999404,390244.306,390259.2000000179,390260.829,392976.793,8,400,19,,ISIC_0072429.JPG
break,html.Screen,4_68_1,2023-11-03T20:38:57.221Z,,0,,,NaN,,,,,,false,,,,392961.3000000119,392960.8000000119,,392959.3000000119,,392976.793,8,400,,,
break_continue,html.Screen,4_68_2,2023-11-03T20:38:57.222Z,,0,,,NaN,,,,,,false,,,,392962.3000000119,392962,,392961.59999999404,,392976.793,8,400,,,
sequence,flow.Sequence,4_68,2023-11-03T20:38:57.222Z,,0,,,2701.170999999973,completion,,,,,false,,,,392962.59999999404,392962,390244.306,390259.09999999404,390260.829,392976.793,8,400,,,
trial,html.Screen,4_69_0,2023-11-03T20:38:59.998Z,,0,2,,2761.507000011916,response,ISIC_3651451.JPG,5,ISIC_7533983.JPG,ISIC_7533983.JPG,false,0,keypress(z),500,395738.59999999404,395738.3000000119,392960.127,392962.8000000119,392976.793,395742.814,8,400,20,,ISIC_3651451.JPG
break,html.Screen,4_69_1,2023-11-03T20:39:00.000Z,,0,,,NaN,,,,,,false,,,,395740.5,395740,,395739.09999999404,,395742.814,8,400,,,
break_continue,html.Screen,4_69_2,2023-11-03T20:39:00.001Z,,0,,,NaN,,,,,,false,,,,395741.3000000119,395741,,395740.7000000179,,395742.814,8,400,,,
sequence,flow.Sequence,4_69,2023-11-03T20:39:00.001Z,,0,,,2764.206999999995,completion,,,,,false,,,,395741.59999999404,395741,392960.127,392962.8000000119,392976.793,395742.814,8,400,,,
trial,html.Screen,4_70_0,2023-11-03T20:39:02.748Z,,0,2,,2744.7859999940265,response,ISIC_0561634.JPG,10,ISIC_0024565.JPG,ISIC_0561634.JPG,false,1,keypress(m),500,398487.8000000119,398487.59999999404,395726.078,395741.90000000596,395742.814,398492.118,8,400,21,,ISIC_0024565.JPG
break,html.Screen,4_70_1,2023-11-03T20:39:02.748Z,,0,,,NaN,,,,,,false,,,,398488.7000000179,398488.5,,398488,,398492.118,8,400,,,
break_continue,html.Screen,4_70_2,2023-11-03T20:39:02.749Z,,0,,,NaN,,,,,,false,,,,398489.09999999404,398489,,398488.8000000119,,398492.118,8,400,,,
sequence,flow.Sequence,4_70,2023-11-03T20:39:02.749Z,,0,,,2746.185999999987,completion,,,,,false,,,,398489.2000000179,398489,395726.078,395741.8000000119,395742.814,398492.118,8,400,,,
trial,html.Screen,4_71_0,2023-11-03T20:39:14.233Z,,0,2,,11513.800999999978,timeout,ISIC_2668481.JPG,7,ISIC_7528996.JPG,,false,,,500,409973.5,409973.3000000119,398475.602,398489.40000000596,398492.118,410005.919,8,400,22,,
break,html.Screen,4_71_1,2023-11-03T20:39:14.234Z,,0,,,NaN,,,,,,false,,,,409974.7000000179,409974.40000000596,,409973.7000000179,,410005.919,8,400,,,
break_continue,html.Screen,4_71_2,2023-11-03T20:39:14.235Z,,0,,,NaN,,,,,,false,,,,409975.3000000119,409975.09999999404,,409974.90000000596,,410005.919,8,400,,,
sequence,flow.Sequence,4_71,2023-11-03T20:39:14.235Z,,0,,,11482.981999994023,completion,,,,,false,,,,409975.5,409975.09999999404,398475.602,398489.40000000596,398492.118,410005.919,8,400,,,
trial,html.Screen,4_72_0,2023-11-03T20:39:17.793Z,,0,2,,3527.0810000000056,response,ISIC_1640823.JPG,12,ISIC_7555812.JPG,ISIC_1640823.JPG,false,1,keypress(m),500,413533.59999999404,413533,409989.321,409975.59999999404,410005.919,413538.414,8,400,23,,ISIC_7555812.JPG
break,html.Screen,4_72_1,2023-11-03T20:39:17.795Z,,0,,,NaN,,,,,,false,,,,413535.8000000119,413535.40000000596,,413534.2000000179,,413538.414,8,400,,,
break_continue,html.Screen,4_72_2,2023-11-03T20:39:17.796Z,,0,,,NaN,,,,,,false,,,,413536.59999999404,413536.3000000119,,413536,,413538.414,8,400,,,
sequence,flow.Sequence,4_72,2023-11-03T20:39:17.797Z,,0,,,3530.3810000119265,completion,,,,,false,,,,413536.8000000119,413536.3000000119,409989.321,409975.59999999404,410005.919,413538.414,8,400,,,
trial,html.Screen,4_73_0,2023-11-03T20:39:20.586Z,,0,2,,2787.0860000000102,response,ISIC_0015631.JPG,8,ISIC_0059257.JPG,ISIC_0015631.JPG,false,1,keypress(m),500,416325.8000000119,416325.5,413521.896,413537.09999999404,413538.414,416337.825,8,400,24,,ISIC_0059257.JPG
break,html.Screen,4_73_1,2023-11-03T20:39:20.587Z,,0,,,NaN,,,,,,false,,,,416327.7000000179,416327.2000000179,,416326.09999999404,,416337.825,8,400,,,
break_continue,html.Screen,4_73_2,2023-11-03T20:39:20.588Z,,0,,,NaN,,,,,,false,,,,416328.5,416328.3000000119,,416327.90000000596,,416337.825,8,400,,,
sequence,flow.Sequence,4_73,2023-11-03T20:39:20.588Z,,0,,,2789.886000011931,completion,,,,,false,,,,416328.8000000119,416328.3000000119,413521.896,413537,413538.414,416337.825,8,400,,,
trial,html.Screen,4_74_0,2023-11-03T20:39:23.157Z,,0,2,,2559.274999994028,response,ISIC_5982769.JPG,9,ISIC_7107030.JPG,ISIC_5982769.JPG,false,1,keypress(m),500,418897.59999999404,418897.09999999404,416321.187,416329,416337.825,418903.916,8,400,25,,ISIC_7107030.JPG
break,html.Screen,4_74_1,2023-11-03T20:39:23.159Z,,0,,,NaN,,,,,,false,,,,418899.59999999404,418899,,418897.90000000596,,418903.916,8,400,,,
break_continue,html.Screen,4_74_2,2023-11-03T20:39:23.161Z,,0,,,NaN,,,,,,false,,,,418900.8000000119,418900.40000000596,,418900,,418903.916,8,400,,,
sequence,flow.Sequence,4_74,2023-11-03T20:39:23.161Z,,0,,,2562.575000005949,completion,,,,,false,,,,418901.2000000179,418900.40000000596,416321.187,416328.90000000596,416337.825,418903.916,8,400,,,
trial,html.Screen,4_75_0,2023-11-03T20:39:25.904Z,,0,2,,2740.3840000118944,response,ISIC_3671963.JPG,13,ISIC_1894133.JPG,ISIC_3671963.JPG,false,1,keypress(m),500,421644.59999999404,421644.3000000119,418887.24,418901.59999999404,418903.916,421653.006,8,400,26,,ISIC_1894133.JPG
break,html.Screen,4_75_1,2023-11-03T20:39:25.906Z,,0,,,NaN,,,,,,false,,,,421646.2000000179,421645.8000000119,,421644.90000000596,,421653.006,8,400,,,
break_continue,html.Screen,4_75_2,2023-11-03T20:39:25.906Z,,0,,,NaN,,,,,,false,,,,421646.8000000119,421646.7000000179,,421646.5,,421653.006,8,400,,,
sequence,flow.Sequence,4_75,2023-11-03T20:39:25.907Z,,0,,,2742.784000017855,completion,,,,,false,,,,421647.09999999404,421646.7000000179,418887.24,418901.5,418903.916,421653.006,8,400,,,
trial,html.Screen,4_76_0,2023-11-03T20:39:28.570Z,,0,2,,2656.994000000006,response,ISIC_0679494.JPG,10,ISIC_5913155.JPG,ISIC_5913155.JPG,false,0,keypress(z),500,424310.3000000119,424310,421636.524,421647.3000000119,421653.006,424319.031,8,400,27,,ISIC_0679494.JPG
break,html.Screen,4_76_1,2023-11-03T20:39:28.571Z,,0,,,NaN,,,,,,false,,,,424311.5,424311.2000000179,,424310.5,,424319.031,8,400,,,
break_continue,html.Screen,4_76_2,2023-11-03T20:39:28.572Z,,0,,,NaN,,,,,,false,,,,424312,424311.8000000119,,424311.59999999404,,424319.031,8,400,,,
sequence,flow.Sequence,4_76,2023-11-03T20:39:28.572Z,,0,,,2658.794000011927,completion,,,,,false,,,,424312.2000000179,424311.8000000119,421636.524,421647.2000000179,421653.006,424319.031,8,400,,,
trial,html.Screen,4_77_0,2023-11-03T20:39:31.183Z,,0,2,,2604.2690000119037,response,ISIC_5081382.JPG,13,ISIC_7167479.JPG,ISIC_7167479.JPG,false,0,keypress(z),500,426923.8000000119,426923.3000000119,424302.425,424312.40000000596,424319.031,426935.213,8,400,28,,ISIC_5081382.JPG
break,html.Screen,4_77_1,2023-11-03T20:39:31.186Z,,0,,,NaN,,,,,,false,,,,426926.2000000179,426925.59999999404,,426924.3000000119,,426935.213,8,400,,,
break_continue,html.Screen,4_77_2,2023-11-03T20:39:31.187Z,,0,,,NaN,,,,,,false,,,,426927.3000000119,426927,,426926.5,,426935.213,8,400,,,
sequence,flow.Sequence,4_77,2023-11-03T20:39:31.187Z,,0,,,2607.9689999999828,completion,,,,,false,,,,426927.8000000119,426927,424302.425,424312.3000000119,424319.031,426935.213,8,400,,,
trial,html.Screen,4_78_0,2023-11-03T20:39:33.851Z,,0,2,,2655.4870000178926,response,ISIC_0008774.JPG,8,ISIC_0004789.JPG,ISIC_0008774.JPG,false,1,keypress(m),500,429591.09999999404,429590.7000000179,426918.559,426928.2000000179,426935.213,429601.109,8,400,29,,ISIC_0004789.JPG
break,html.Screen,4_78_1,2023-11-03T20:39:33.852Z,,0,,,NaN,,,,,,false,,,,429592.7000000179,429592.3000000119,,429591.3000000119,,429601.109,8,400,,,
break_continue,html.Screen,4_78_2,2023-11-03T20:39:33.853Z,,0,,,NaN,,,,,,false,,,,429593.5,429593.3000000119,,429593,,429601.109,8,400,,,
sequence,flow.Sequence,4_78,2023-11-03T20:39:33.853Z,,0,,,2658.087000011932,completion,,,,,false,,,,429593.8000000119,429593.3000000119,426918.559,426928.09999999404,426935.213,429601.109,8,400,,,
trial,html.Screen,4_79_0,2023-11-03T20:39:36.804Z,,0,2,,2942.5910000178847,response,ISIC_4459125.JPG,7,ISIC_4894802.JPG,ISIC_4459125.JPG,false,1,keypress(m),500,432543.90000000596,432543.7000000179,429584.722,429593.90000000596,429601.109,432550.369,8,400,30,,ISIC_4894802.JPG
break,html.Screen,4_79_1,2023-11-03T20:39:36.805Z,,0,,,NaN,,,,,,false,,,,432545,432544.7000000179,,432544.2000000179,,432550.369,8,400,,,
break_continue,html.Screen,4_79_2,2023-11-03T20:39:36.805Z,,0,,,NaN,,,,,,false,,,,432545.59999999404,432545.40000000596,,432545.3000000119,,432550.369,8,400,,,
sequence,flow.Sequence,4_79,2023-11-03T20:39:36.805Z,,0,,,2944.2910000059637,completion,,,,,false,,,,432545.8000000119,432545.40000000596,429584.722,429593.8000000119,429601.109,432550.369,8,400,,,
trial,html.Screen,4_80_0,2023-11-03T20:39:39.913Z,,0,2,,3103.0310000059544,response,ISIC_0014598.JPG,10,ISIC_1608524.JPG,ISIC_0014598.JPG,false,1,keypress(m),500,435653.8000000119,435653.40000000596,432533.767,432546.09999999404,432550.369,435666.547,8,400,31,,ISIC_1608524.JPG
break,html.Screen,4_80_1,2023-11-03T20:39:39.914Z,,0,,,NaN,,,,,,false,,,,435654.7000000179,435654.5,,435653.90000000596,,435666.547,8,400,,,
break_continue,html.Screen,4_80_2,2023-11-03T20:39:39.915Z,,0,,,NaN,,,,,,false,,,,435655.09999999404,435655,,435654.8000000119,,435666.547,8,400,,,
sequence,flow.Sequence,4_80,2023-11-03T20:39:39.915Z,,0,,,3104.630999999994,completion,,,,,false,,,,435655.3000000119,435655,432533.767,432546,432550.369,435666.547,8,400,,,
trial,html.Screen,4_81_0,2023-11-03T20:39:42.850Z,,0,2,,2923.552999994019,response,ISIC_0033245.JPG,6,ISIC_8462364.JPG,ISIC_0033245.JPG,false,1,keypress(m),500,438590.59999999404,438590.09999999404,435649.999,435655.5,435666.547,438598.976,8,400,32,,ISIC_8462364.JPG
break,html.Screen,4_81_1,2023-11-03T20:39:42.853Z,,0,,,NaN,,,,,,false,,,,438593,438592.2000000179,,438591,,438598.976,8,400,,,
break_continue,html.Screen,4_81_2,2023-11-03T20:39:42.854Z,,0,,,NaN,,,,,,false,,,,438594.3000000119,438593.90000000596,,438593.40000000596,,438598.976,8,400,,,
sequence,flow.Sequence,4_81,2023-11-03T20:39:42.854Z,,0,,,2927.35300000594,completion,,,,,false,,,,438594.90000000596,438593.90000000596,435649.999,435655.40000000596,435666.547,438598.976,8,400,,,
trial,html.Screen,4_82_0,2023-11-03T20:39:45.652Z,,0,2,,2793.4240000059363,response,ISIC_8029613.JPG,5,ISIC_0061265.JPG,ISIC_0061265.JPG,false,0,keypress(z),500,441392.8000000119,441392.40000000596,438582.52,438595.3000000119,438598.976,441398.321,8,400,33,,ISIC_8029613.JPG
break,html.Screen,4_82_1,2023-11-03T20:39:45.655Z,,0,,,NaN,,,,,,false,,,,441395.3000000119,441394.5,,441393.09999999404,,441398.321,8,400,,,
break_continue,html.Screen,4_82_2,2023-11-03T20:39:45.656Z,,0,,,NaN,,,,,,false,,,,441396.7000000179,441396.3000000119,,441395.59999999404,,441398.321,8,400,,,
sequence,flow.Sequence,4_82,2023-11-03T20:39:45.657Z,,0,,,2797.3240000118967,completion,,,,,false,,,,441397.3000000119,441396.3000000119,438582.52,438595.2000000179,438598.976,441398.321,8,400,,,
trial,html.Screen,4_83_0,2023-11-03T20:39:48.652Z,,0,2,,2994.1790000000037,response,ISIC_8909957.JPG,8,ISIC_0420777.JPG,ISIC_8909957.JPG,false,1,keypress(m),500,444392.7000000179,444392.5,441381.742,441397.7000000179,441398.321,444397.446,8,400,34,,ISIC_0420777.JPG
break,html.Screen,4_83_1,2023-11-03T20:39:48.653Z,,0,,,NaN,,,,,,false,,,,444393.7000000179,444393.40000000596,,444392.90000000596,,444397.446,8,400,,,
break_continue,html.Screen,4_83_2,2023-11-03T20:39:48.654Z,,0,,,NaN,,,,,,false,,,,444394,444393.90000000596,,444393.7000000179,,444397.446,8,400,,,
sequence,flow.Sequence,4_83,2023-11-03T20:39:48.654Z,,0,,,2995.579000005964,completion,,,,,false,,,,444394.2000000179,444393.90000000596,441381.742,441397.5,441398.321,444397.446,8,400,,,
trial,html.Screen,4_84_0,2023-11-03T20:39:53.171Z,,0,2,,4513.354000011925,response,ISIC_8481979.JPG,10,ISIC_9801917.JPG,ISIC_8481979.JPG,false,1,keypress(m),500,448911.2000000179,448910.8000000119,444380.777,444394.3000000119,444397.446,448935.179,8,400,35,,ISIC_9801917.JPG
break,html.Screen,4_84_1,2023-11-03T20:39:53.173Z,,0,,,NaN,,,,,,false,,,,448913.8000000119,448913.09999999404,,448911.59999999404,,448935.179,8,400,,,
break_continue,html.Screen,4_84_2,2023-11-03T20:39:53.174Z,,0,,,NaN,,,,,,false,,,,448914.8000000119,448914.5,,448914,,448935.179,8,400,,,
sequence,flow.Sequence,4_84,2023-11-03T20:39:53.175Z,,0,,,4517.054000000004,completion,,,,,false,,,,448915.2000000179,448914.5,444380.777,444394.3000000119,444397.446,448935.179,8,400,,,
trial,html.Screen,4_85_0,2023-11-03T20:39:56.962Z,,0,2,,3766.920999994036,response,ISIC_0072441.JPG,8,ISIC_0031406.JPG,ISIC_0072441.JPG,false,1,keypress(m),500,452702.40000000596,452702.09999999404,448896.745,448915.3000000119,448935.179,452712.097,8,400,36,,ISIC_0031406.JPG
break,html.Screen,4_85_1,2023-11-03T20:39:56.964Z,,0,,,NaN,,,,,,false,,,,452704,452703.59999999404,,452702.59999999404,,452712.097,8,400,,,
break_continue,html.Screen,4_85_2,2023-11-03T20:39:56.964Z,,0,,,NaN,,,,,,false,,,,452704.7000000179,452704.40000000596,,452704.2000000179,,452712.097,8,400,,,
sequence,flow.Sequence,4_85,2023-11-03T20:39:56.965Z,,0,,,3769.2210000059567,completion,,,,,false,,,,452704.90000000596,452704.40000000596,448896.745,448915.3000000119,448935.179,452712.097,8,400,,,
trial,html.Screen,4_86_0,2023-11-03T20:39:59.823Z,,0,2,,2850.5029999940307,response,ISIC_0033392.JPG,8,ISIC_0054284.JPG,ISIC_0033392.JPG,false,1,keypress(m),500,455562.90000000596,455562.59999999404,452695.529,452705.2000000179,452712.097,455578.11,8,400,37,,ISIC_0054284.JPG
break,html.Screen,4_86_1,2023-11-03T20:39:59.824Z,,0,,,NaN,,,,,,false,,,,455564.59999999404,455564.09999999404,,455563.2000000179,,455578.11,8,400,,,
break_continue,html.Screen,4_86_2,2023-11-03T20:39:59.825Z,,0,,,NaN,,,,,,false,,,,455565.5,455565.09999999404,,455564.7000000179,,455578.11,8,400,,,
sequence,flow.Sequence,4_86,2023-11-03T20:39:59.826Z,,0,,,2853.0029999940307,completion,,,,,false,,,,455566,455565.09999999404,452695.529,452705.09999999404,452712.097,455578.11,8,400,,,
trial,html.Screen,4_87_0,2023-11-03T20:40:03.143Z,,0,2,,3304.4899999940535,response,ISIC_0054892.JPG,9,ISIC_6256797.JPG,ISIC_0054892.JPG,false,1,keypress(m),500,458883,458882.59999999404,455561.433,455566.2000000179,455578.11,458910.66,8,400,38,,ISIC_6256797.JPG
break,html.Screen,4_87_1,2023-11-03T20:40:03.144Z,,0,,,NaN,,,,,,false,,,,458884.40000000596,458884.09999999404,,458883.2000000179,,458910.66,8,400,,,
break_continue,html.Screen,4_87_2,2023-11-03T20:40:03.145Z,,0,,,NaN,,,,,,false,,,,458885.3000000119,458885,,458884.7000000179,,458910.66,8,400,,,
sequence,flow.Sequence,4_87,2023-11-03T20:40:03.145Z,,0,,,3306.890000000014,completion,,,,,false,,,,458885.59999999404,458885,455561.433,455566.09999999404,455578.11,458910.66,8,400,,,
trial,html.Screen,4_88_0,2023-11-03T20:40:07.423Z,,0,2,,4252.6400000119465,response,ISIC_5281908.JPG,6,ISIC_3809998.JPG,ISIC_5281908.JPG,false,1,keypress(m),500,463163.8000000119,463163.3000000119,458894.001,458885.8000000119,458910.66,463176.252,8,400,39,,ISIC_3809998.JPG
break,html.Screen,4_88_1,2023-11-03T20:40:07.425Z,,0,,,NaN,,,,,,false,,,,463165.5,463165,,463164.09999999404,,463176.252,8,400,,,
break_continue,html.Screen,4_88_2,2023-11-03T20:40:07.426Z,,0,,,NaN,,,,,,false,,,,463166.3000000119,463166.09999999404,,463165.8000000119,,463176.252,8,400,,,
sequence,flow.Sequence,4_88,2023-11-03T20:40:07.426Z,,0,,,4255.439999994065,completion,,,,,false,,,,463166.59999999404,463166.09999999404,458894.001,458885.7000000179,458910.66,463176.252,8,400,,,
trial,html.Screen,4_89_0,2023-11-03T20:40:10.998Z,,0,2,,3562.148000005982,response,ISIC_0025987.JPG,11,ISIC_0066798.JPG,ISIC_0025987.JPG,false,1,keypress(m),500,466738.90000000596,466738.40000000596,463159.603,463166.8000000119,463176.252,466742.06,8,400,40,,ISIC_0066798.JPG
break,html.Screen,4_89_1,2023-11-03T20:40:11.000Z,,0,,,NaN,,,,,,false,,,,466740.90000000596,466740.40000000596,,466739.40000000596,,466742.06,8,400,,,
break_continue,html.Screen,4_89_2,2023-11-03T20:40:11.001Z,,0,,,NaN,,,,,,false,,,,466741.90000000596,466741.59999999404,,466741.2000000179,,466742.06,8,400,,,
sequence,flow.Sequence,4_89,2023-11-03T20:40:11.002Z,,0,,,3565.347999994061,completion,,,,,false,,,,466742.5,466741.59999999404,463159.603,463166.8000000119,463176.252,466742.06,8,400,,,
trial,html.Screen,4_90_0,2023-11-03T20:40:14.241Z,,0,2,,3239.539999994042,response,ISIC_0034156.JPG,8,ISIC_0060585.JPG,ISIC_0034156.JPG,false,1,keypress(m),500,469981.90000000596,469981.59999999404,466725.409,466742.8000000119,466742.06,469991.263,8,400,41,,ISIC_0060585.JPG
break,html.Screen,4_90_1,2023-11-03T20:40:14.243Z,,0,,,NaN,,,,,,false,,,,469983.7000000179,469983.3000000119,,469982.3000000119,,469991.263,8,400,,,
break_continue,html.Screen,4_90_2,2023-11-03T20:40:14.244Z,,0,,,NaN,,,,,,false,,,,469984.5,469984.2000000179,,469983.90000000596,,469991.263,8,400,,,
sequence,flow.Sequence,4_90,2023-11-03T20:40:14.244Z,,0,,,3242.1400000178837,completion,,,,,false,,,,469984.90000000596,469984.2000000179,466725.409,466742.7000000179,466742.06,469991.263,8,400,,,
trial,html.Screen,4_91_0,2023-11-03T20:40:19.167Z,,0,2,,4915.336999994062,response,ISIC_8484660.JPG,5,ISIC_4957216.JPG,ISIC_4957216.JPG,false,0,keypress(z),500,474907,474906.59999999404,469974.666,469985.09999999404,469991.263,474923.377,8,400,42,,ISIC_8484660.JPG
break,html.Screen,4_91_1,2023-11-03T20:40:19.169Z,,0,,,NaN,,,,,,false,,,,474909.09999999404,474908.40000000596,,474907.3000000119,,474923.377,8,400,,,
break_continue,html.Screen,4_91_2,2023-11-03T20:40:19.170Z,,0,,,NaN,,,,,,false,,,,474910.09999999404,474909.8000000119,,474909.40000000596,,474923.377,8,400,,,
sequence,flow.Sequence,4_91,2023-11-03T20:40:19.170Z,,0,,,4918.537000011944,completion,,,,,false,,,,474910.40000000596,474909.8000000119,469974.666,469985,469991.263,474923.377,8,400,,,
trial,html.Screen,4_92_0,2023-11-03T20:40:21.980Z,,0,2,,2797.1230000000214,response,ISIC_0024853.JPG,11,ISIC_3716686.JPG,ISIC_0024853.JPG,false,1,keypress(m),500,477720.8000000119,477720.5,474906.825,474910.7000000179,474923.377,477722.662,8,400,43,,ISIC_3716686.JPG
break,html.Screen,4_92_1,2023-11-03T20:40:21.981Z,,0,,,NaN,,,,,,false,,,,477721.7000000179,477721.59999999404,,477720.90000000596,,477722.662,8,400,,,
break_continue,html.Screen,4_92_2,2023-11-03T20:40:21.982Z,,0,,,NaN,,,,,,false,,,,477722.2000000179,477722,,477721.90000000596,,477722.662,8,400,,,
sequence,flow.Sequence,4_92,2023-11-03T20:40:21.982Z,,0,,,2798.6230000000214,completion,,,,,false,,,,477722.3000000119,477722,474906.825,474910.59999999404,474923.377,477722.662,8,400,,,
trial,html.Screen,4_93_0,2023-11-03T20:40:24.632Z,,0,2,,2649.53800001787,response,ISIC_7508320.JPG,6,ISIC_0033344.JPG,ISIC_0033344.JPG,false,0,keypress(z),500,480372.90000000596,480372.2000000179,477706.018,477722.5,477722.662,480388.765,8,400,44,,ISIC_7508320.JPG
break,html.Screen,4_93_1,2023-11-03T20:40:24.634Z,,0,,,NaN,,,,,,false,,,,480374.7000000179,480374.09999999404,,480373.2000000179,,480388.765,8,400,,,
break_continue,html.Screen,4_93_2,2023-11-03T20:40:24.635Z,,0,,,NaN,,,,,,false,,,,480375.5,480375.3000000119,,480374.90000000596,,480388.765,8,400,,,
sequence,flow.Sequence,4_93,2023-11-03T20:40:24.635Z,,0,,,2652.6380000119098,completion,,,,,false,,,,480375.8000000119,480375.3000000119,477706.018,477722.40000000596,477722.662,480388.765,8,400,,,
trial,html.Screen,4_94_0,2023-11-03T20:40:27.573Z,,0,2,,2924.535000011907,response,ISIC_0024227.JPG,12,ISIC_4243283.JPG,ISIC_0024227.JPG,false,1,keypress(m),500,483313.5,483313.3000000119,480371.989,480376,480388.765,483321.372,8,400,45,,ISIC_4243283.JPG
break,html.Screen,4_94_1,2023-11-03T20:40:27.574Z,,0,,,NaN,,,,,,false,,,,483314.5,483314.2000000179,,483313.7000000179,,483321.372,8,400,,,
break_continue,html.Screen,4_94_2,2023-11-03T20:40:27.574Z,,0,,,NaN,,,,,,false,,,,483314.90000000596,483314.7000000179,,483314.59999999404,,483321.372,8,400,,,
sequence,flow.Sequence,4_94,2023-11-03T20:40:27.575Z,,0,,,2925.9350000178674,completion,,,,,false,,,,483315.09999999404,483314.7000000179,480371.989,480376,480388.765,483321.372,8,400,,,
trial,html.Screen,4_95_0,2023-11-03T20:40:30.207Z,,0,2,,2626.2279999940656,response,ISIC_0034049.JPG,5,ISIC_0069274.JPG,ISIC_0069274.JPG,false,0,keypress(z),500,485947.7000000179,485947.59999999404,483304.724,483315.2000000179,483321.372,485953.953,8,400,46,,ISIC_0034049.JPG
break,html.Screen,4_95_1,2023-11-03T20:40:30.208Z,,0,,,NaN,,,,,,false,,,,485948.5,485948.40000000596,,485947.90000000596,,485953.953,8,400,,,
break_continue,html.Screen,4_95_2,2023-11-03T20:40:30.209Z,,0,,,NaN,,,,,,false,,,,485949.09999999404,485949,,485948.8000000119,,485953.953,8,400,,,
sequence,flow.Sequence,4_95,2023-11-03T20:40:30.209Z,,0,,,2627.628000000026,completion,,,,,false,,,,485949.3000000119,485949,483304.724,483315.09999999404,483321.372,485953.953,8,400,,,
trial,html.Screen,4_96_0,2023-11-03T20:40:32.919Z,,0,2,,2704.5470000000205,response,ISIC_0029963.JPG,10,ISIC_0058836.JPG,ISIC_0058836.JPG,false,0,keypress(z),500,488659.09999999404,488658.5,485937.26,485949.5,485953.953,488670.036,8,400,47,,ISIC_0029963.JPG
break,html.Screen,4_96_1,2023-11-03T20:40:32.921Z,,0,,,NaN,,,,,,false,,,,488661.8000000119,488661,,488659.59999999404,,488670.036,8,400,,,
break_continue,html.Screen,4_96_2,2023-11-03T20:40:32.923Z,,0,,,NaN,,,,,,false,,,,488663,488662.7000000179,,488662.09999999404,,488670.036,8,400,,,
sequence,flow.Sequence,4_96,2023-11-03T20:40:32.923Z,,0,,,2708.747000017902,completion,,,,,false,,,,488663.59999999404,488662.7000000179,485937.26,485949.40000000596,485953.953,488670.036,8,400,,,
trial,html.Screen,4_97_0,2023-11-03T20:40:35.845Z,,0,2,,2915.1640000178595,response,ISIC_0070412.JPG,6,ISIC_0010510.JPG,ISIC_0070412.JPG,false,1,keypress(m),500,491585.59999999404,491585.2000000179,488653.41,488664,488670.036,491602.642,8,400,48,,ISIC_0010510.JPG
break,html.Screen,4_97_1,2023-11-03T20:40:35.847Z,,0,,,NaN,,,,,,false,,,,491587.8000000119,491587.3000000119,,491586,,491602.642,8,400,,,
break_continue,html.Screen,4_97_2,2023-11-03T20:40:35.848Z,,0,,,NaN,,,,,,false,,,,491588.7000000179,491588.5,,491588,,491602.642,8,400,,,
sequence,flow.Sequence,4_97,2023-11-03T20:40:35.849Z,,0,,,2918.463999999978,completion,,,,,false,,,,491589.09999999404,491588.5,488653.41,488663.90000000596,488670.036,491602.642,8,400,,,
trial,html.Screen,4_98_0,2023-11-03T20:40:38.637Z,,0,2,,2774.558000017889,response,ISIC_0012653.JPG,12,ISIC_6915759.JPG,ISIC_6915759.JPG,false,0,keypress(z),500,494377.5,494377.2000000179,491586.084,491589.5,491602.642,494385.334,8,400,49,,ISIC_0012653.JPG
break,html.Screen,4_98_1,2023-11-03T20:40:38.642Z,,0,,,NaN,,,,,,false,,,,494382.59999999404,494379.5,,494378.2000000179,,494385.334,8,400,,,
break_continue,html.Screen,4_98_2,2023-11-03T20:40:38.643Z,,0,,,NaN,,,,,,false,,,,494383.59999999404,494383.2000000179,,494382.8000000119,,494385.334,8,400,,,
sequence,flow.Sequence,4_98,2023-11-03T20:40:38.643Z,,0,,,2780.558000017889,completion,,,,,false,,,,494383.90000000596,494383.2000000179,491586.084,491589.3000000119,491602.642,494385.334,8,400,,,
trial,html.Screen,4_99_0,2023-11-03T20:40:42.094Z,,0,2,,3448.765999994066,response,ISIC_0027282.JPG,7,ISIC_9876004.JPG,ISIC_0027282.JPG,false,1,keypress(m),500,497834.40000000596,497834.09999999404,494368.606,494384.2000000179,494385.334,497851.064,8,400,50,,ISIC_9876004.JPG
break,html.Screen,4_99_1,2023-11-03T20:40:52.093Z,,0,,,9997.708999999973,timeout,,,,,false,,,,507833,507832.024,497834.419,497834.7000000179,497851.064,507848.773,8,400,,,
break_continue,html.Screen,4_99_2,2023-11-03T20:41:31.287Z,,0,,,39153.22700000001,response,,,,,false,continue,keypress(Space),,547027.7000000179,547002,507832.024,507833.3000000119,507848.773,547038.99,8,400,,,
sequence,flow.Sequence,4_99,2023-11-03T20:41:31.287Z,,0,,,52616.66600000003,completion,,,,,false,,,,547027.900000006,547002,494368.606,494384.2000000179,494385.334,547038.99,8,400,,,
trial,html.Screen,4_100_0,2023-11-03T20:41:35.849Z,,0,3,,4550.91000000597,response,ISIC_5595054.JPG,5,ISIC_0064660.JPG,ISIC_0064660.JPG,false,0,keypress(z),500,551590.2000000179,551589.900000006,547022.182,547028.099999994,547038.99,551604.764,8,400,1,,ISIC_5595054.JPG
break,html.Screen,4_100_1,2023-11-03T20:41:35.851Z,,0,,,NaN,,,,,,false,,,,551592.099999994,551591.7000000179,,551590.599999994,,551604.764,8,400,,,
break_continue,html.Screen,4_100_2,2023-11-03T20:41:35.852Z,,0,,,NaN,,,,,,false,,,,551593,551592.8000000119,,551592.400000006,,551604.764,8,400,,,
sequence,flow.Sequence,4_100,2023-11-03T20:41:35.853Z,,0,,,4553.81000001193,completion,,,,,false,,,,551593.5,551592.8000000119,547022.182,547028,547038.99,551604.764,8,400,,,
trial,html.Screen,4_101_0,2023-11-03T20:41:38.832Z,,0,3,,2967.2360000000335,response,ISIC_0025020.JPG,7,ISIC_8626909.JPG,ISIC_0025020.JPG,false,1,keypress(m),500,554572.5,554572,551587.845,551593.8000000119,551604.764,554587.425,8,400,2,,ISIC_8626909.JPG
break,html.Screen,4_101_1,2023-11-03T20:41:38.835Z,,0,,,NaN,,,,,,false,,,,554575.5,554574.599999994,,554573.2000000179,,554587.425,8,400,,,
break_continue,html.Screen,4_101_2,2023-11-03T20:41:38.836Z,,0,,,NaN,,,,,,false,,,,554576.5,554576.2000000179,,554575.8000000119,,554587.425,8,400,,,
sequence,flow.Sequence,4_101,2023-11-03T20:41:38.836Z,,0,,,2971.436000017915,completion,,,,,false,,,,554577.099999994,554576.2000000179,551587.845,551593.7000000179,551604.764,554587.425,8,400,,,
trial,html.Screen,4_102_0,2023-11-03T20:41:41.848Z,,0,3,,3001.3750000118744,response,ISIC_0026552.JPG,6,ISIC_8769415.JPG,ISIC_0026552.JPG,false,1,keypress(m),500,557589.3000000119,557588.8000000119,554570.555,554577.400000006,554587.425,557603.133,8,400,3,,ISIC_8769415.JPG
break,html.Screen,4_102_1,2023-11-03T20:41:41.852Z,,0,,,NaN,,,,,,false,,,,557592.599999994,557591.7000000179,,557589.7000000179,,557603.133,8,400,,,
break_continue,html.Screen,4_102_2,2023-11-03T20:41:41.854Z,,0,,,NaN,,,,,,false,,,,557594.599999994,557594.099999994,,557593.099999994,,557603.133,8,400,,,
sequence,flow.Sequence,4_102,2023-11-03T20:41:41.854Z,,0,,,3006.674999993993,completion,,,,,false,,,,557595.099999994,557594.099999994,554570.555,554577.3000000119,554587.425,557603.133,8,400,,,
trial,html.Screen,4_103_0,2023-11-03T20:41:44.499Z,,0,3,,2636.0670000178507,response,ISIC_4482610.JPG,5,ISIC_9613570.JPG,ISIC_4482610.JPG,false,1,keypress(m),500,560239.7000000179,560239.2000000179,557586.512,557595.5,557603.133,560252.552,8,400,4,,ISIC_9613570.JPG
break,html.Screen,4_103_1,2023-11-03T20:41:44.502Z,,0,,,NaN,,,,,,false,,,,560242.900000006,560242.099999994,,560240.2000000179,,560252.552,8,400,,,
break_continue,html.Screen,4_103_2,2023-11-03T20:41:44.503Z,,0,,,NaN,,,,,,false,,,,560244,560243.7000000179,,560243.2000000179,,560252.552,8,400,,,
sequence,flow.Sequence,4_103,2023-11-03T20:41:44.503Z,,0,,,2640.5670000178507,completion,,,,,false,,,,560244.400000006,560243.7000000179,557586.512,557595.400000006,557603.133,560252.552,8,400,,,
trial,html.Screen,4_104_0,2023-11-03T20:41:47.613Z,,0,3,,3100.6480000178562,response,ISIC_3654454.JPG,6,ISIC_4597707.JPG,ISIC_3654454.JPG,false,1,keypress(m),500,563353.7000000179,563353.2000000179,560235.819,560244.7000000179,560252.552,563368.349,8,400,5,,ISIC_4597707.JPG
break,html.Screen,4_104_1,2023-11-03T20:41:47.615Z,,0,,,NaN,,,,,,false,,,,563356.3000000119,563355.7000000179,,563354.3000000119,,563368.349,8,400,,,
break_continue,html.Screen,4_104_2,2023-11-03T20:41:47.616Z,,0,,,NaN,,,,,,false,,,,563357.400000006,563357.2000000179,,563356.7000000179,,563368.349,8,400,,,
sequence,flow.Sequence,4_104,2023-11-03T20:41:47.617Z,,0,,,3104.6480000178562,completion,,,,,false,,,,563357.900000006,563357.2000000179,560235.819,560244.599999994,560252.552,563368.349,8,400,,,
trial,html.Screen,4_105_0,2023-11-03T20:41:50.485Z,,0,3,,2857.551000005915,response,ISIC_1328488.JPG,5,ISIC_7208412.JPG,ISIC_1328488.JPG,false,1,keypress(m),500,566226.3000000119,566225.900000006,563351.732,563358.3000000119,563368.349,566234.392,8,400,6,,ISIC_7208412.JPG
break,html.Screen,4_105_1,2023-11-03T20:41:50.487Z,,0,,,NaN,,,,,,false,,,,566228.2000000179,566227.7000000179,,566226.7000000179,,566234.392,8,400,,,
break_continue,html.Screen,4_105_2,2023-11-03T20:41:50.488Z,,0,,,NaN,,,,,,false,,,,566229.099999994,566228.8000000119,,566228.5,,566234.392,8,400,,,
sequence,flow.Sequence,4_105,2023-11-03T20:41:50.488Z,,0,,,2860.4510000118753,completion,,,,,false,,,,566229.3000000119,566228.8000000119,563351.732,563358.099999994,563368.349,566234.392,8,400,,,
trial,html.Screen,4_106_0,2023-11-03T20:41:53.020Z,,0,3,,2525.808000017889,response,ISIC_1519891.JPG,5,ISIC_7287303.JPG,ISIC_7287303.JPG,false,0,keypress(z),500,568760.599999994,568760.2000000179,566217.596,566229.599999994,566234.392,568767.067,8,400,7,,ISIC_1519891.JPG
break,html.Screen,4_106_1,2023-11-03T20:41:53.021Z,,0,,,NaN,,,,,,false,,,,568762.2000000179,568761.7000000179,,568760.900000006,,568767.067,8,400,,,
break_continue,html.Screen,4_106_2,2023-11-03T20:41:53.022Z,,0,,,NaN,,,,,,false,,,,568763.099999994,568762.900000006,,568762.400000006,,568767.067,8,400,,,
sequence,flow.Sequence,4_106,2023-11-03T20:41:53.022Z,,0,,,2528.508000005968,completion,,,,,false,,,,568763.5,568762.900000006,566217.596,566229.599999994,566234.392,568767.067,8,400,,,
trial,html.Screen,4_107_0,2023-11-03T20:41:55.811Z,,0,3,,2783.932999999961,response,ISIC_3819893.JPG,6,ISIC_0024313.JPG,ISIC_3819893.JPG,false,1,keypress(m),500,571551.8000000119,571551,568750.321,568763.7000000179,568767.067,571566.353,8,400,8,,ISIC_0024313.JPG
break,html.Screen,4_107_1,2023-11-03T20:41:55.813Z,,0,,,NaN,,,,,,false,,,,571554.099999994,571553.5,,571552.3000000119,,571566.353,8,400,,,
break_continue,html.Screen,4_107_2,2023-11-03T20:41:55.814Z,,0,,,NaN,,,,,,false,,,,571555.3000000119,571554.900000006,,571554.5,,571566.353,8,400,,,
sequence,flow.Sequence,4_107,2023-11-03T20:41:55.815Z,,0,,,2787.8330000059213,completion,,,,,false,,,,571555.900000006,571554.900000006,568750.321,568763.599999994,568767.067,571566.353,8,400,,,
trial,html.Screen,4_108_0,2023-11-03T20:41:58.283Z,,0,3,,2456.947000011918,response,ISIC_8694181.JPG,5,ISIC_2162728.JPG,ISIC_2162728.JPG,false,0,keypress(z),500,574023.599999994,574023.3000000119,571549.696,571556.400000006,571566.353,574032.385,8,400,9,,ISIC_8694181.JPG
break,html.Screen,4_108_1,2023-11-03T20:41:58.285Z,,0,,,NaN,,,,,,false,,,,574025.7000000179,574025.2000000179,,574024.099999994,,574032.385,8,400,,,
break_continue,html.Screen,4_108_2,2023-11-03T20:41:58.286Z,,0,,,NaN,,,,,,false,,,,574026.599999994,574026.400000006,,574026,,574032.385,8,400,,,
sequence,flow.Sequence,4_108,2023-11-03T20:41:58.286Z,,0,,,2460.0470000059577,completion,,,,,false,,,,574027,574026.400000006,571549.696,571556.2000000179,571566.353,574032.385,8,400,,,
trial,html.Screen,4_109_0,2023-11-03T20:42:00.769Z,,0,3,,2477.71499999403,response,ISIC_0011728.JPG,5,ISIC_0015443.JPG,ISIC_0011728.JPG,false,1,keypress(m),500,576510.400000006,576510.099999994,574015.761,574027.3000000119,574032.385,576515.119,8,400,10,,ISIC_0015443.JPG
break,html.Screen,4_109_1,2023-11-03T20:42:00.771Z,,0,,,NaN,,,,,,false,,,,576512.3000000119,576511.8000000119,,576510.599999994,,576515.119,8,400,,,
break_continue,html.Screen,4_109_2,2023-11-03T20:42:00.772Z,,0,,,NaN,,,,,,false,,,,576513.099999994,576512.900000006,,576512.5,,576515.119,8,400,,,
sequence,flow.Sequence,4_109,2023-11-03T20:42:00.773Z,,0,,,2480.515000005951,completion,,,,,false,,,,576513.599999994,576512.900000006,574015.761,574027.2000000179,574032.385,576515.119,8,400,,,
trial,html.Screen,4_110_0,2023-11-03T20:42:03.432Z,,0,3,,2657.0810000179335,response,ISIC_0000487.JPG,6,ISIC_0260290.JPG,ISIC_0000487.JPG,false,1,keypress(m),500,579172.5,579172.2000000179,576498.548,576513.8000000119,576515.119,579181.217,8,400,11,,ISIC_0260290.JPG
break,html.Screen,4_110_1,2023-11-03T20:42:03.434Z,,0,,,NaN,,,,,,false,,,,579174.599999994,579174,,579172.8000000119,,579181.217,8,400,,,
break_continue,html.Screen,4_110_2,2023-11-03T20:42:03.435Z,,0,,,NaN,,,,,,false,,,,579175.900000006,579175.400000006,,579174.900000006,,579181.217,8,400,,,
sequence,flow.Sequence,4_110,2023-11-03T20:42:03.435Z,,0,,,2660.2810000060126,completion,,,,,false,,,,579176.5,579175.400000006,576498.548,576513.7000000179,576515.119,579181.217,8,400,,,
trial,html.Screen,4_111_0,2023-11-03T20:42:06.112Z,,0,3,,2670.8829999940936,response,ISIC_2928274.JPG,5,ISIC_0027102.JPG,ISIC_0027102.JPG,false,0,keypress(z),500,581852.7000000179,581852.099999994,579164.504,579176.900000006,579181.217,581863.811,8,400,12,,ISIC_2928274.JPG
break,html.Screen,4_111_1,2023-11-03T20:42:06.115Z,,0,,,NaN,,,,,,false,,,,581855.900000006,581854.900000006,,581853.2000000179,,581863.811,8,400,,,
break_continue,html.Screen,4_111_2,2023-11-03T20:42:06.116Z,,0,,,NaN,,,,,,false,,,,581857.2000000179,581856.7000000179,,581856.2000000179,,581863.811,8,400,,,
sequence,flow.Sequence,4_111,2023-11-03T20:42:06.117Z,,0,,,2675.4830000179354,completion,,,,,false,,,,581857.599999994,581856.7000000179,579164.504,579176.7000000179,579181.217,581863.811,8,400,,,
trial,html.Screen,4_112_0,2023-11-03T20:42:09.143Z,,0,3,,3019.989000011934,response,ISIC_8040024.JPG,7,ISIC_0072418.JPG,ISIC_0072418.JPG,false,0,keypress(z),500,584884.2000000179,584883.8000000119,581847.133,581857.8000000119,581863.811,584896.353,8,400,13,,ISIC_8040024.JPG
break,html.Screen,4_112_1,2023-11-03T20:42:09.144Z,,0,,,NaN,,,,,,false,,,,584885.3000000119,584885.099999994,,584884.400000006,,584896.353,8,400,,,
break_continue,html.Screen,4_112_2,2023-11-03T20:42:09.145Z,,0,,,NaN,,,,,,false,,,,584885.7000000179,584885.599999994,,584885.5,,584896.353,8,400,,,
sequence,flow.Sequence,4_112,2023-11-03T20:42:09.145Z,,0,,,3021.7889999940526,completion,,,,,false,,,,584885.900000006,584885.599999994,581847.133,581857.7000000179,581863.811,584896.353,8,400,,,
trial,html.Screen,4_113_0,2023-11-03T20:42:11.627Z,,0,3,,2471.447000011918,response,ISIC_0033424.JPG,5,ISIC_0062524.JPG,ISIC_0062524.JPG,false,0,keypress(z),500,587368.2000000179,587367.8000000119,584879.696,584886,584896.353,587379.177,8,400,14,,ISIC_0033424.JPG
break,html.Screen,4_113_1,2023-11-03T20:42:11.630Z,,0,,,NaN,,,,,,false,,,,587370.599999994,587369.7000000179,,587368.599999994,,587379.177,8,400,,,
break_continue,html.Screen,4_113_2,2023-11-03T20:42:11.631Z,,0,,,NaN,,,,,,false,,,,587371.7000000179,587371.400000006,,587370.900000006,,587379.177,8,400,,,
sequence,flow.Sequence,4_113,2023-11-03T20:42:11.631Z,,0,,,2475.0470000059577,completion,,,,,false,,,,587372.2000000179,587371.400000006,584879.696,584886,584896.353,587379.177,8,400,,,
trial,html.Screen,4_114_0,2023-11-03T20:42:15.011Z,,0,3,,3372.123000011896,response,ISIC_0232101.JPG,6,ISIC_0032590.JPG,ISIC_0232101.JPG,false,1,keypress(m),500,590751.7000000179,590751.3000000119,587362.457,587372.599999994,587379.177,590761.699,8,400,15,,ISIC_0032590.JPG
break,html.Screen,4_114_1,2023-11-03T20:42:15.013Z,,0,,,NaN,,,,,,false,,,,590754.099999994,590753.5,,590752.099999994,,590761.699,8,400,,,
break_continue,html.Screen,4_114_2,2023-11-03T20:42:15.014Z,,0,,,NaN,,,,,,false,,,,590755.3000000119,590755.099999994,,590754.5,,590761.699,8,400,,,
sequence,flow.Sequence,4_114,2023-11-03T20:42:15.015Z,,0,,,3375.9229999940144,completion,,,,,false,,,,590755.900000006,590755.099999994,587362.457,587372.5,587379.177,590761.699,8,400,,,
trial,html.Screen,4_115_0,2023-11-03T20:42:17.979Z,,0,3,,2958.3009999999776,response,ISIC_0061509.JPG,6,ISIC_0011700.JPG,ISIC_0061509.JPG,false,1,keypress(m),500,593720.400000006,593720,590744.982,590756.2000000179,590761.699,593727.634,8,400,16,,ISIC_0011700.JPG
break,html.Screen,4_115_1,2023-11-03T20:42:17.981Z,,0,,,NaN,,,,,,false,,,,593722.2000000179,593721.7000000179,,593720.7000000179,,593727.634,8,400,,,
break_continue,html.Screen,4_115_2,2023-11-03T20:42:17.982Z,,0,,,NaN,,,,,,false,,,,593723.099999994,593722.8000000119,,593722.5,,593727.634,8,400,,,
sequence,flow.Sequence,4_115,2023-11-03T20:42:17.982Z,,0,,,2961.1010000118986,completion,,,,,false,,,,593723.400000006,593722.8000000119,590744.982,590756.2000000179,590761.699,593727.634,8,400,,,
trial,html.Screen,4_116_0,2023-11-03T20:42:20.481Z,,0,3,,2494.366000000038,response,ISIC_0054651.JPG,6,ISIC_5116614.JPG,ISIC_5116614.JPG,false,0,keypress(z),500,596222.3000000119,596222,593710.881,593723.7000000179,593727.634,596227.031,8,400,17,,ISIC_0054651.JPG
break,html.Screen,4_116_1,2023-11-03T20:42:20.484Z,,0,,,NaN,,,,,,false,,,,596224.599999994,596223.900000006,,596222.8000000119,,596227.031,8,400,,,
break_continue,html.Screen,4_116_2,2023-11-03T20:42:20.485Z,,0,,,NaN,,,,,,false,,,,596225.599999994,596225.3000000119,,596225,,596227.031,8,400,,,
sequence,flow.Sequence,4_116,2023-11-03T20:42:20.485Z,,0,,,2497.666000011959,completion,,,,,false,,,,596226.2000000179,596225.3000000119,593710.881,593723.599999994,593727.634,596227.031,8,400,,,
trial,html.Screen,4_117_0,2023-11-03T20:42:22.954Z,,0,3,,2467.1690000179224,response,ISIC_7840728.JPG,5,ISIC_0059884.JPG,ISIC_7840728.JPG,false,1,keypress(m),500,598694.7000000179,598694.2000000179,596210.318,596226.5,596227.031,598709.644,8,400,18,,ISIC_0059884.JPG
break,html.Screen,4_117_1,2023-11-03T20:42:22.956Z,,0,,,NaN,,,,,,false,,,,598696.5,598696,,598695,,598709.644,8,400,,,
break_continue,html.Screen,4_117_2,2023-11-03T20:42:22.957Z,,0,,,NaN,,,,,,false,,,,598697.599999994,598697.3000000119,,598696.8000000119,,598709.644,8,400,,,
sequence,flow.Sequence,4_117,2023-11-03T20:42:22.957Z,,0,,,2470.269000011962,completion,,,,,false,,,,598698,598697.3000000119,596210.318,596226.400000006,596227.031,598709.644,8,400,,,
trial,html.Screen,4_118_0,2023-11-03T20:42:25.505Z,,0,3,,2535.9559999940684,response,ISIC_8956001.JPG,5,ISIC_0065535.JPG,ISIC_0065535.JPG,false,0,keypress(z),500,601246.099999994,601245.599999994,598692.994,598698.3000000119,598709.644,601259.064,8,400,19,,ISIC_8956001.JPG
break,html.Screen,4_118_1,2023-11-03T20:42:25.507Z,,0,,,NaN,,,,,,false,,,,601248.3000000119,601247.8000000119,,601246.5,,601259.064,8,400,,,
break_continue,html.Screen,4_118_2,2023-11-03T20:42:25.509Z,,0,,,NaN,,,,,,false,,,,601249.5,601248.900000006,,601248.5,,601259.064,8,400,,,
sequence,flow.Sequence,4_118,2023-11-03T20:42:25.509Z,,0,,,2539.2560000059893,completion,,,,,false,,,,601250,601248.900000006,598692.994,598698.2000000179,598709.644,601259.064,8,400,,,
trial,html.Screen,4_119_0,2023-11-03T20:42:27.833Z,,0,3,,2314.0359999940265,response,ISIC_0033479.JPG,6,ISIC_6548307.JPG,ISIC_0033479.JPG,false,1,keypress(m),500,603573.400000006,603573.099999994,601242.454,601250.3000000119,601259.064,603575.084,8,400,20,,ISIC_6548307.JPG
break,html.Screen,4_119_1,2023-11-03T20:42:27.834Z,,0,,,NaN,,,,,,false,,,,603574.3000000119,603574.099999994,,603573.599999994,,603575.084,8,400,,,
break_continue,html.Screen,4_119_2,2023-11-03T20:42:27.834Z,,0,,,NaN,,,,,,false,,,,603574.900000006,603574.7000000179,,603574.400000006,,603575.084,8,400,,,
sequence,flow.Sequence,4_119,2023-11-03T20:42:27.835Z,,0,,,2315.6360000178684,completion,,,,,false,,,,603575.3000000119,603574.7000000179,601242.454,601250.2000000179,601259.064,603575.084,8,400,,,
trial,html.Screen,4_120_0,2023-11-03T20:42:30.110Z,,0,3,,2274.6160000178497,response,ISIC_0026089.JPG,5,ISIC_0026780.JPG,ISIC_0026089.JPG,false,1,keypress(m),500,605850,605849.7000000179,603560.16,603575.5,603575.084,605857.839,8,400,21,,ISIC_0026780.JPG
break,html.Screen,4_120_1,2023-11-03T20:42:30.111Z,,0,,,NaN,,,,,,false,,,,605851,605850.8000000119,,605850.2000000179,,605857.839,8,400,,,
break_continue,html.Screen,4_120_2,2023-11-03T20:42:30.111Z,,0,,,NaN,,,,,,false,,,,605851.5,605851.400000006,,605851.099999994,,605857.839,8,400,,,
sequence,flow.Sequence,4_120,2023-11-03T20:42:30.111Z,,0,,,2276.316000005929,completion,,,,,false,,,,605851.599999994,605851.400000006,603560.16,603575.400000006,603575.084,605857.839,8,400,,,
trial,html.Screen,4_121_0,2023-11-03T20:42:32.498Z,,0,3,,2380.561000005924,response,ISIC_3673080.JPG,7,ISIC_0024806.JPG,ISIC_0024806.JPG,false,0,keypress(z),500,608238.7000000179,608238.400000006,605842.252,605851.900000006,605857.839,608240.723,8,400,22,,ISIC_3673080.JPG
break,html.Screen,4_121_1,2023-11-03T20:42:32.500Z,,0,,,NaN,,,,,,false,,,,608240.5,608240.099999994,,608239,,608240.723,8,400,,,
break_continue,html.Screen,4_121_2,2023-11-03T20:42:32.502Z,,0,,,NaN,,,,,,false,,,,608242,608241.599999994,,608241.099999994,,608240.723,8,400,,,
sequence,flow.Sequence,4_121,2023-11-03T20:42:32.502Z,,0,,,2383.760999994003,completion,,,,,false,,,,608242.599999994,608241.599999994,605842.252,605851.900000006,605857.839,608240.723,8,400,,,
trial,html.Screen,4_122_0,2023-11-03T20:42:34.986Z,,0,3,,2485.277000000002,response,ISIC_5240648.JPG,5,ISIC_0009868.JPG,ISIC_5240648.JPG,false,1,keypress(m),500,610726.400000006,610726,608224.768,608243,608240.723,610740.124,8,400,23,,ISIC_0009868.JPG
break,html.Screen,4_122_1,2023-11-03T20:42:34.989Z,,0,,,NaN,,,,,,false,,,,610729,610728.3000000119,,610727.099999994,,610740.124,8,400,,,
break_continue,html.Screen,4_122_2,2023-11-03T20:42:34.990Z,,0,,,NaN,,,,,,false,,,,610730.3000000119,610729.8000000119,,610729.3000000119,,610740.124,8,400,,,
sequence,flow.Sequence,4_122,2023-11-03T20:42:34.990Z,,0,,,2489.077000011923,completion,,,,,false,,,,610730.7000000179,610729.8000000119,608224.768,608242.8000000119,608240.723,610740.124,8,400,,,
trial,html.Screen,4_123_0,2023-11-03T20:42:37.379Z,,0,3,,2379.276000006008,response,ISIC_8627293.JPG,5,ISIC_9161341.JPG,ISIC_9161341.JPG,false,0,keypress(z),500,613119.599999994,613119.400000006,610723.537,610730.8000000119,610740.124,613122.782,8,400,24,,ISIC_8627293.JPG
break,html.Screen,4_123_1,2023-11-03T20:42:37.380Z,,0,,,NaN,,,,,,false,,,,613120.599999994,613120.400000006,,613119.8000000119,,613122.782,8,400,,,
break_continue,html.Screen,4_123_2,2023-11-03T20:42:37.381Z,,0,,,NaN,,,,,,false,,,,613121.2000000179,613121.099999994,,613120.8000000119,,613122.782,8,400,,,
sequence,flow.Sequence,4_123,2023-11-03T20:42:37.381Z,,0,,,2380.975999994087,completion,,,,,false,,,,613121.5,613121.099999994,610723.537,610730.8000000119,610740.124,613122.782,8,400,,,
trial,html.Screen,4_124_0,2023-11-03T20:42:39.960Z,,0,3,,2576.918000017875,response,ISIC_0069698.JPG,5,ISIC_0026506.JPG,ISIC_0026506.JPG,false,0,keypress(z),500,615700.099999994,615699.7000000179,613107.241,613121.7000000179,613122.782,615705.561,8,400,25,,ISIC_0069698.JPG
break,html.Screen,4_124_1,2023-11-03T20:42:39.961Z,,0,,,NaN,,,,,,false,,,,615701.3000000119,615701,,615700.3000000119,,615705.561,8,400,,,
break_continue,html.Screen,4_124_2,2023-11-03T20:42:39.961Z,,0,,,NaN,,,,,,false,,,,615701.900000006,615701.7000000179,,615701.400000006,,615705.561,8,400,,,
sequence,flow.Sequence,4_124,2023-11-03T20:42:39.962Z,,0,,,2578.918000017875,completion,,,,,false,,,,615702.2000000179,615701.7000000179,613107.241,613121.599999994,613122.782,615705.561,8,400,,,
trial,html.Screen,4_125_0,2023-11-03T20:42:42.588Z,,0,3,,2622.6390000178944,response,ISIC_7296463.JPG,5,ISIC_0025127.JPG,ISIC_7296463.JPG,false,1,keypress(m),500,618328.599999994,618328.2000000179,615688.996,615702.3000000119,615705.561,618338.211,8,400,26,,ISIC_0025127.JPG
break,html.Screen,4_125_1,2023-11-03T20:42:42.590Z,,0,,,NaN,,,,,,false,,,,618330.7000000179,618330.099999994,,618329,,618338.211,8,400,,,
break_continue,html.Screen,4_125_2,2023-11-03T20:42:42.591Z,,0,,,NaN,,,,,,false,,,,618331.599999994,618331.3000000119,,618331,,618338.211,8,400,,,
