sender,sender_type,sender_id,timestamp,meta,,blockNo,condition,duration,ended_on,img_left,img_reveal,img_right,loser,practice,response,response_action,selection_duration,time_commit,time_end,time_render,time_run,time_show,time_switch,total_blocks,total_trials,trialNo,url,winner
informed_consent,html.Screen,0,2023-09-13T14:51:43.057Z,"{""labjs_version"":""20.2.4"",""labjs_build"":{""flavor"":""production"",""commit"":""f5b4a49f956347addd546a832a3327688c2c0fef""},""location"":""https://run.pavlovia.org/MurrayBennett/melanoma-2afc/?participant=67329&platform=sona"",""userAgent"":""Mozilla/5.0 (Macintosh; Intel Mac OS X 10_15_7) AppleWebKit/605.1.15 (KHTML, like Gecko) Version/16.3 Safari/605.1.15"",""platform"":""MacIntel"",""language"":""en-US"",""locale"":""en-US"",""timeZone"":""America/Chicago"",""timezoneOffset"":300,""screen_width"":1440,""screen_height"":900,""scroll_width"":1440,""scroll_height"":772,""window_innerWidth"":1440,""window_innerHeight"":820,""devicePixelRatio"":2}",,,,3688,response,,,,,,consent,click button,,6053,5964,2276,2268.0000000000005,2331,6084,,,,"{""participant"":""67329"",""platform"":""sona""}",
Welcome,html.Screen,1,2023-09-13T14:51:45.441Z,,,,irregular,2360,response,,,,,,continue,click button,,8437,8429,6069,6053,6084,8463,,,,,
trial,html.Screen,2_0_0,2023-09-13T14:51:53.246Z,,0,0,,7794,response,ISIC_4679428.JPG,,ISIC_0061792.JPG,ISIC_4679428.JPG,true,1,keypress(m),500,16241,16241,8447,8437,8463,16285,1,6,1,,ISIC_0061792.JPG
sequence,flow.Sequence,2_0,2023-09-13T14:51:53.246Z,,0,,,7778,completion,,,,,true,,,,16242,16241,8447,8437,8463,16285,1,6,,,
trial,html.Screen,2_1_0,2023-09-13T14:51:59.960Z,,0,0,,6687.000000000004,response,ISIC_0776486.JPG,,ISIC_5199497.JPG,ISIC_5199497.JPG,true,0,keypress(z),500,22956,22955.000000000004,16268,16242,16285,22985,1,6,2,,ISIC_0776486.JPG
sequence,flow.Sequence,2_1,2023-09-13T14:51:59.960Z,,0,,,6670.000000000004,completion,,,,,true,,,,22956,22955.000000000004,16268,16242,16285,22985,1,6,,,
trial,html.Screen,2_2_0,2023-09-13T14:52:07.237Z,,0,0,,7264,response,ISIC_2556187.JPG,,ISIC_8575776.JPG,ISIC_8575776.JPG,true,0,keypress(z),500,30233,30233,22969,22956,22985,30273,1,6,3,,ISIC_2556187.JPG
sequence,flow.Sequence,2_2,2023-09-13T14:52:07.238Z,,0,,,7248,completion,,,,,true,,,,30233,30233,22969,22956,22985,30273,1,6,,,
trial,html.Screen,2_3_0,2023-09-13T14:52:11.607Z,,0,0,,4347,response,ISIC_8141769.JPG,,ISIC_9238366.JPG,ISIC_9238366.JPG,true,0,keypress(z),500,34603,34603,30256,30234,30273,34639,1,6,4,,ISIC_8141769.JPG
sequence,flow.Sequence,2_3,2023-09-13T14:52:11.607Z,,0,,,4330,completion,,,,,true,,,,34603,34603,30256,30234,30273,34639,1,6,,,
trial,html.Screen,2_4_0,2023-09-13T14:52:15.392Z,,0,0,,3765,response,ISIC_9959593.JPG,,ISIC_8949026.JPG,ISIC_8949026.JPG,true,0,keypress(z),500,38388,38387,34622,34603,34639,38420,1,6,5,,ISIC_9959593.JPG
sequence,flow.Sequence,2_4,2023-09-13T14:52:15.392Z,,0,,,3748,completion,,,,,true,,,,38388,38387,34622,34603,34639,38420,1,6,,,
trial,html.Screen,2_5_0,2023-09-13T14:52:19.603Z,,0,0,,4195.000000000007,response,ISIC_0460240.JPG,,ISIC_0010479.JPG,ISIC_0460240.JPG,true,1,keypress(m),500,42599.00000000001,42599.00000000001,38404,38388,38420,42633,1,6,6,,ISIC_0010479.JPG
sequence,flow.Sequence,2_5,2023-09-13T14:52:19.604Z,,0,,,4179.000000000007,completion,,,,,true,,,,42600,42599.00000000001,38404,38388,38420,42633,1,6,,,
loop,flow.Loop,2,2023-09-13T14:52:19.604Z,,,,,34136.00000000001,completion,,,,,true,,,,42600,42599.00000000001,8447,8437,8463,42633,1,6,,,
exp_instructions,html.Screen,3,2023-09-13T14:52:26.052Z,,,,,6422,response,,,,,,continue,keypress(Space),,49048,49039,42617,42600,42633,49091,,,,,
trial,html.Screen,4_0_0,2023-09-13T14:52:29.077Z,,0,1,,2999,response,ISIC_0015041.JPG,1,ISIC_0031425.JPG,ISIC_0031425.JPG,false,0,keypress(z),500,52073,52073,49074,49048,49091,52110,8,400,1,,ISIC_0015041.JPG
break,html.Screen,4_0_1,2023-09-13T14:52:29.078Z,,0,,,NaN,,,,,,false,,,,52074,52074,,52073,,52110,8,400,,,
break_continue,html.Screen,4_0_2,2023-09-13T14:52:29.078Z,,0,,,NaN,,,,,,false,,,,52074,52074,,52074,,52110,8,400,,,
sequence,flow.Sequence,4_0,2023-09-13T14:52:29.078Z,,0,,,2983,completion,,,,,false,,,,52074,52074,49074,49048,49091,52110,8,400,,,
trial,html.Screen,4_1_0,2023-09-13T14:52:32.129Z,,0,1,,3032,response,ISIC_0067808.JPG,10,ISIC_0029910.JPG,ISIC_0029910.JPG,false,0,keypress(z),500,55125,55125,52093,52074,52110,55157,8,400,2,,ISIC_0067808.JPG
break,html.Screen,4_1_1,2023-09-13T14:52:32.130Z,,0,,,NaN,,,,,,false,,,,55126,55126,,55126,,55157,8,400,,,
break_continue,html.Screen,4_1_2,2023-09-13T14:52:32.130Z,,0,,,NaN,,,,,,false,,,,55126,55126,,55126,,55157,8,400,,,
sequence,flow.Sequence,4_1,2023-09-13T14:52:32.130Z,,0,,,3016,completion,,,,,false,,,,55127,55126,52093,52074,52110,55157,8,400,,,
trial,html.Screen,4_2_0,2023-09-13T14:52:35.337Z,,0,1,,3191,response,ISIC_7939816.JPG,12,ISIC_0025413.JPG,ISIC_7939816.JPG,false,1,keypress(m),500,58333,58333,55142,55127,55157,58371,8,400,3,,ISIC_0025413.JPG
break,html.Screen,4_2_1,2023-09-13T14:52:35.338Z,,0,,,NaN,,,,,,false,,,,58334,58334,,58334,,58371,8,400,,,
break_continue,html.Screen,4_2_2,2023-09-13T14:52:35.338Z,,0,,,NaN,,,,,,false,,,,58334,58334,,58334,,58371,8,400,,,
sequence,flow.Sequence,4_2,2023-09-13T14:52:35.338Z,,0,,,3177,completion,,,,,false,,,,58335,58334,55142,55127,55157,58371,8,400,,,
trial,html.Screen,4_3_0,2023-09-13T14:52:38.783Z,,0,1,,3425,response,ISIC_0032892.JPG,10,ISIC_0069192.JPG,ISIC_0032892.JPG,false,1,keypress(m),500,61779,61779,58354,58335,58371,61819,8,400,4,,ISIC_0069192.JPG
break,html.Screen,4_3_1,2023-09-13T14:52:38.784Z,,0,,,NaN,,,,,,false,,,,61780,61780,,61779,,61819,8,400,,,
break_continue,html.Screen,4_3_2,2023-09-13T14:52:38.784Z,,0,,,NaN,,,,,,false,,,,61780,61780,,61780,,61819,8,400,,,
sequence,flow.Sequence,4_3,2023-09-13T14:52:38.784Z,,0,,,3409,completion,,,,,false,,,,61780,61780,58354,58335,58371,61819,8,400,,,
trial,html.Screen,4_4_0,2023-09-13T14:52:42.281Z,,0,1,,3475,response,ISIC_0058513.JPG,12,ISIC_0024496.JPG,ISIC_0024496.JPG,false,0,keypress(z),500,65278.00000000001,65277,61802,61781,61819,65300,8,400,5,,ISIC_0058513.JPG
break,html.Screen,4_4_1,2023-09-13T14:52:42.282Z,,0,,,NaN,,,,,,false,,,,65279,65278.00000000001,,65278.00000000001,,65300,8,400,,,
break_continue,html.Screen,4_4_2,2023-09-13T14:52:42.283Z,,0,,,NaN,,,,,,false,,,,65279,65279,,65279,,65300,8,400,,,
sequence,flow.Sequence,4_4,2023-09-13T14:52:42.283Z,,0,,,3460,completion,,,,,false,,,,65279,65279,61802,61781,61819,65300,8,400,,,
trial,html.Screen,4_5_0,2023-09-13T14:52:45.172Z,,0,1,,2883,response,ISIC_8694181.JPG,7,ISIC_5550263.JPG,ISIC_5550263.JPG,false,0,keypress(z),500,68168,68166,65283,65279,65300,68197,8,400,6,,ISIC_8694181.JPG
break,html.Screen,4_5_1,2023-09-13T14:52:45.172Z,,0,,,NaN,,,,,,false,,,,68168,68168,,68168,,68197,8,400,,,
break_continue,html.Screen,4_5_2,2023-09-13T14:52:45.172Z,,0,,,NaN,,,,,,false,,,,68169,68169,,68169,,68197,8,400,,,
sequence,flow.Sequence,4_5,2023-09-13T14:52:45.173Z,,0,,,2869,completion,,,,,false,,,,68169,68169,65283,65279,65300,68197,8,400,,,
trial,html.Screen,4_6_0,2023-09-13T14:52:48.299Z,,0,1,,3113,response,ISIC_0024781.JPG,8,ISIC_0046458.JPG,ISIC_0046458.JPG,false,0,keypress(z),500,71295,71294,68181,68169,68197,71328,8,400,7,,ISIC_0024781.JPG
break,html.Screen,4_6_1,2023-09-13T14:52:48.299Z,,0,,,NaN,,,,,,false,,,,71296,71295,,71295,,71328,8,400,,,
break_continue,html.Screen,4_6_2,2023-09-13T14:52:48.300Z,,0,,,NaN,,,,,,false,,,,71296,71296,,71296,,71328,8,400,,,
sequence,flow.Sequence,4_6,2023-09-13T14:52:48.300Z,,0,,,3099,completion,,,,,false,,,,71296,71296,68181,68169,68197,71328,8,400,,,
trial,html.Screen,4_7_0,2023-09-13T14:52:51.726Z,,0,1,,3410.0000000000146,response,ISIC_3730327.JPG,6,ISIC_0029007.JPG,ISIC_3730327.JPG,false,1,keypress(m),500,74722.00000000001,74722.00000000001,71312,71296,71328,74759,8,400,8,,ISIC_0029007.JPG
break,html.Screen,4_7_1,2023-09-13T14:52:51.727Z,,0,,,NaN,,,,,,false,,,,74723,74723,,74723,,74759,8,400,,,
break_continue,html.Screen,4_7_2,2023-09-13T14:52:51.727Z,,0,,,NaN,,,,,,false,,,,74724,74723,,74723,,74759,8,400,,,
sequence,flow.Sequence,4_7,2023-09-13T14:52:51.727Z,,0,,,3395,completion,,,,,false,,,,74724,74723,71312,71296,71328,74759,8,400,,,
trial,html.Screen,4_8_0,2023-09-13T14:52:54.910Z,,0,1,,3164,response,ISIC_3059367.JPG,9,ISIC_0024808.JPG,ISIC_3059367.JPG,false,1,keypress(m),500,77907,77906,74742,74724,74759,77940,8,400,9,,ISIC_0024808.JPG
break,html.Screen,4_8_1,2023-09-13T14:52:54.911Z,,0,,,NaN,,,,,,false,,,,77907,77907,,77907,,77940,8,400,,,
break_continue,html.Screen,4_8_2,2023-09-13T14:52:54.911Z,,0,,,NaN,,,,,,false,,,,77908,77908,,77907,,77940,8,400,,,
sequence,flow.Sequence,4_8,2023-09-13T14:52:54.911Z,,0,,,3149,completion,,,,,false,,,,77908,77908,74742,74724,74759,77940,8,400,,,
trial,html.Screen,4_9_0,2023-09-13T14:52:57.889Z,,0,1,,2962,response,ISIC_0071132.JPG,12,ISIC_5281908.JPG,ISIC_0071132.JPG,false,1,keypress(m),500,80885,80885,77923,77908,77940,80920,8,400,10,,ISIC_5281908.JPG
break,html.Screen,4_9_1,2023-09-13T14:52:57.890Z,,0,,,NaN,,,,,,false,,,,80886,80886,,80885,,80920,8,400,,,
break_continue,html.Screen,4_9_2,2023-09-13T14:52:57.890Z,,0,,,NaN,,,,,,false,,,,80886,80886,,80886,,80920,8,400,,,
sequence,flow.Sequence,4_9,2023-09-13T14:52:57.890Z,,0,,,2946,completion,,,,,false,,,,80886,80886,77923,77908,77940,80920,8,400,,,
trial,html.Screen,4_10_0,2023-09-13T14:53:00.924Z,,0,1,,3016,response,ISIC_0030156.JPG,10,ISIC_7939816.JPG,ISIC_7939816.JPG,false,0,keypress(z),500,83920,83920,80904,80886,80920,83952,8,400,11,,ISIC_0030156.JPG
break,html.Screen,4_10_1,2023-09-13T14:53:00.924Z,,0,,,NaN,,,,,,false,,,,83921,83920,,83920,,83952,8,400,,,
break_continue,html.Screen,4_10_2,2023-09-13T14:53:00.925Z,,0,,,NaN,,,,,,false,,,,83921,83921,,83921,,83952,8,400,,,
sequence,flow.Sequence,4_10,2023-09-13T14:53:00.925Z,,0,,,3001,completion,,,,,false,,,,83921,83921,80904,80886,80920,83952,8,400,,,
trial,html.Screen,4_11_0,2023-09-13T14:53:03.985Z,,0,1,,3046.0000000000146,response,ISIC_0428383.JPG,4,ISIC_0024513.JPG,ISIC_0428383.JPG,false,1,keypress(m),500,86981.00000000001,86981.00000000001,83935,83921,83952,87015,8,400,12,,ISIC_0024513.JPG
break,html.Screen,4_11_1,2023-09-13T14:53:03.985Z,,0,,,NaN,,,,,,false,,,,86982,86982,,86981.00000000001,,87015,8,400,,,
break_continue,html.Screen,4_11_2,2023-09-13T14:53:03.986Z,,0,,,NaN,,,,,,false,,,,86982,86982,,86982,,87015,8,400,,,
sequence,flow.Sequence,4_11,2023-09-13T14:53:03.986Z,,0,,,3030,completion,,,,,false,,,,86982,86982,83935,83921,83952,87015,8,400,,,
trial,html.Screen,4_12_0,2023-09-13T14:53:06.867Z,,0,1,,2864,response,ISIC_0000159.JPG,8,ISIC_7147713.JPG,ISIC_7147713.JPG,false,0,keypress(z),500,89863,89863,86999,86982,87015,89896,8,400,13,,ISIC_0000159.JPG
break,html.Screen,4_12_1,2023-09-13T14:53:06.868Z,,0,,,NaN,,,,,,false,,,,89864,89864,,89863,,89896,8,400,,,
break_continue,html.Screen,4_12_2,2023-09-13T14:53:06.868Z,,0,,,NaN,,,,,,false,,,,89864,89864,,89864,,89896,8,400,,,
sequence,flow.Sequence,4_12,2023-09-13T14:53:06.868Z,,0,,,2849,completion,,,,,false,,,,89864,89864,86999,86982,87015,89896,8,400,,,
trial,html.Screen,4_13_0,2023-09-13T14:53:09.888Z,,0,1,,3005,response,ISIC_8685259.JPG,5,ISIC_0357043.JPG,ISIC_0357043.JPG,false,0,keypress(z),500,92884,92884,89879,89864,89896,92925,8,400,14,,ISIC_8685259.JPG
break,html.Screen,4_13_1,2023-09-13T14:53:09.889Z,,0,,,NaN,,,,,,false,,,,92885,92885,,92885,,92925,8,400,,,
break_continue,html.Screen,4_13_2,2023-09-13T14:53:09.889Z,,0,,,NaN,,,,,,false,,,,92885,92885,,92885,,92925,8,400,,,
sequence,flow.Sequence,4_13,2023-09-13T14:53:09.889Z,,0,,,2989,completion,,,,,false,,,,92885,92885,89879,89864,89896,92925,8,400,,,
trial,html.Screen,4_14_0,2023-09-13T14:53:12.744Z,,0,1,,2831.0000000000146,response,ISIC_3016754.JPG,11,ISIC_0032165.JPG,ISIC_0032165.JPG,false,0,keypress(z),500,95740.00000000001,95740.00000000001,92909,92886,92925,95773,8,400,15,,ISIC_3016754.JPG
break,html.Screen,4_14_1,2023-09-13T14:53:12.744Z,,0,,,NaN,,,,,,false,,,,95741,95741,,95740.00000000001,,95773,8,400,,,
break_continue,html.Screen,4_14_2,2023-09-13T14:53:12.745Z,,0,,,NaN,,,,,,false,,,,95741,95741,,95741,,95773,8,400,,,
sequence,flow.Sequence,4_14,2023-09-13T14:53:12.745Z,,0,,,2816,completion,,,,,false,,,,95742,95741,92909,92886,92925,95773,8,400,,,
trial,html.Screen,4_15_0,2023-09-13T14:53:15.986Z,,0,1,,3227,response,ISIC_4116224.JPG,5,ISIC_3295750.JPG,ISIC_3295750.JPG,false,0,keypress(z),500,98983,98983,95756,95742,95773,99019,8,400,16,,ISIC_4116224.JPG
break,html.Screen,4_15_1,2023-09-13T14:53:15.987Z,,0,,,NaN,,,,,,false,,,,98984.00000000001,98983,,98983,,99019,8,400,,,
break_continue,html.Screen,4_15_2,2023-09-13T14:53:15.987Z,,0,,,NaN,,,,,,false,,,,98984.00000000001,98984.00000000001,,98984.00000000001,,99019,8,400,,,
sequence,flow.Sequence,4_15,2023-09-13T14:53:15.988Z,,0,,,3211.0000000000146,completion,,,,,false,,,,98984.00000000001,98984.00000000001,95756,95742,95773,99019,8,400,,,
trial,html.Screen,4_16_0,2023-09-13T14:53:19.004Z,,0,1,,2998,response,ISIC_6052860.JPG,9,ISIC_0026780.JPG,ISIC_6052860.JPG,false,1,keypress(m),500,102001,102000,99002,98984.00000000001,99019,102032,8,400,17,,ISIC_0026780.JPG
break,html.Screen,4_16_1,2023-09-13T14:53:19.005Z,,0,,,NaN,,,,,,false,,,,102001,102001,,102001,,102032,8,400,,,
break_continue,html.Screen,4_16_2,2023-09-13T14:53:19.005Z,,0,,,NaN,,,,,,false,,,,102002,102002,,102002,,102032,8,400,,,
sequence,flow.Sequence,4_16,2023-09-13T14:53:19.005Z,,0,,,2983,completion,,,,,false,,,,102002,102002,99002,98984.00000000001,99019,102032,8,400,,,
trial,html.Screen,4_17_0,2023-09-13T14:53:21.884Z,,0,1,,2865,response,ISIC_6942437.JPG,3,ISIC_0000553.JPG,ISIC_6942437.JPG,false,1,keypress(m),500,104880,104880,102015,102002,102032,104911,8,400,18,,ISIC_0000553.JPG
break,html.Screen,4_17_1,2023-09-13T14:53:21.884Z,,0,,,NaN,,,,,,false,,,,104881,104880,,104880,,104911,8,400,,,
break_continue,html.Screen,4_17_2,2023-09-13T14:53:21.884Z,,0,,,NaN,,,,,,false,,,,104881,104881,,104881,,104911,8,400,,,
sequence,flow.Sequence,4_17,2023-09-13T14:53:21.885Z,,0,,,2849,completion,,,,,false,,,,104881,104881,102015,102002,102032,104911,8,400,,,
trial,html.Screen,4_18_0,2023-09-13T14:53:24.675Z,,0,1,,2776,response,ISIC_0485417.JPG,16,ISIC_0056089.JPG,ISIC_0485417.JPG,false,1,keypress(m),500,107671,107671,104895,104881,104911,107711,8,400,19,,ISIC_0056089.JPG
break,html.Screen,4_18_1,2023-09-13T14:53:24.675Z,,0,,,NaN,,,,,,false,,,,107672,107672,,107671,,107711,8,400,,,
break_continue,html.Screen,4_18_2,2023-09-13T14:53:24.676Z,,0,,,NaN,,,,,,false,,,,107672,107672,,107672,,107711,8,400,,,
sequence,flow.Sequence,4_18,2023-09-13T14:53:24.676Z,,0,,,2761,completion,,,,,false,,,,107672,107672,104895,104881,104911,107711,8,400,,,
trial,html.Screen,4_19_0,2023-09-13T14:53:27.813Z,,0,1,,3116,response,ISIC_0071367.JPG,13,ISIC_0024323.JPG,ISIC_0071367.JPG,false,1,keypress(m),500,110810,110810,107694,107673,107711,110840,8,400,20,,ISIC_0024323.JPG
break,html.Screen,4_19_1,2023-09-13T14:53:27.814Z,,0,,,NaN,,,,,,false,,,,110810,110810,,110810,,110840,8,400,,,
break_continue,html.Screen,4_19_2,2023-09-13T14:53:27.814Z,,0,,,NaN,,,,,,false,,,,110811,110811,,110811,,110840,8,400,,,
sequence,flow.Sequence,4_19,2023-09-13T14:53:27.814Z,,0,,,3100,completion,,,,,false,,,,110811,110811,107694,107672,107711,110840,8,400,,,
trial,html.Screen,4_20_0,2023-09-13T14:53:30.502Z,,0,1,,2676.0000000000146,response,ISIC_8901784.JPG,3,ISIC_0024808.JPG,ISIC_8901784.JPG,false,1,keypress(m),500,113499.00000000001,113499.00000000001,110823,110811,110840,113538,8,400,21,,ISIC_0024808.JPG
break,html.Screen,4_20_1,2023-09-13T14:53:30.503Z,,0,,,NaN,,,,,,false,,,,113500,113500,,113499.00000000001,,113538,8,400,,,
break_continue,html.Screen,4_20_2,2023-09-13T14:53:30.503Z,,0,,,NaN,,,,,,false,,,,113500,113500,,113500,,113538,8,400,,,
sequence,flow.Sequence,4_20,2023-09-13T14:53:30.504Z,,0,,,2660,completion,,,,,false,,,,113500,113500,110823,110811,110840,113538,8,400,,,
trial,html.Screen,4_21_0,2023-09-13T14:53:33.229Z,,0,1,,2703.0000000000146,response,ISIC_0056793.JPG,10,ISIC_0015631.JPG,ISIC_0015631.JPG,false,0,keypress(z),500,116226,116225.00000000001,113522,113500,113538,116268,8,400,22,,ISIC_0056793.JPG
break,html.Screen,4_21_1,2023-09-13T14:53:33.230Z,,0,,,NaN,,,,,,false,,,,116226,116226,,116226,,116268,8,400,,,
break_continue,html.Screen,4_21_2,2023-09-13T14:53:33.230Z,,0,,,NaN,,,,,,false,,,,116227,116227,,116227,,116268,8,400,,,
sequence,flow.Sequence,4_21,2023-09-13T14:53:33.230Z,,0,,,2689,completion,,,,,false,,,,116227,116227,113522,113500,113538,116268,8,400,,,
trial,html.Screen,4_22_0,2023-09-13T14:53:36.754Z,,0,1,,3500,response,ISIC_4023381.JPG,13,ISIC_1929937.JPG,ISIC_1929937.JPG,false,0,keypress(z),500,119751,119751,116251,116227,116268,119783,8,400,23,,ISIC_4023381.JPG
break,html.Screen,4_22_1,2023-09-13T14:53:36.755Z,,0,,,NaN,,,,,,false,,,,119752.00000000001,119751,,119751,,119783,8,400,,,
break_continue,html.Screen,4_22_2,2023-09-13T14:53:36.755Z,,0,,,NaN,,,,,,false,,,,119752.00000000001,119752.00000000001,,119752.00000000001,,119783,8,400,,,
sequence,flow.Sequence,4_22,2023-09-13T14:53:36.755Z,,0,,,3484.0000000000146,completion,,,,,false,,,,119752.00000000001,119752.00000000001,116251,116227,116268,119783,8,400,,,
trial,html.Screen,4_23_0,2023-09-13T14:53:39.879Z,,0,1,,3110,response,ISIC_3012778.JPG,7,ISIC_0032494.JPG,ISIC_0032494.JPG,false,0,keypress(z),500,122876,122876,119766,119752.00000000001,119783,122913,8,400,24,,ISIC_3012778.JPG
break,html.Screen,4_23_1,2023-09-13T14:53:39.880Z,,0,,,NaN,,,,,,false,,,,122877.00000000001,122876,,122876,,122913,8,400,,,
break_continue,html.Screen,4_23_2,2023-09-13T14:53:39.880Z,,0,,,NaN,,,,,,false,,,,122877.00000000001,122877.00000000001,,122877.00000000001,,122913,8,400,,,
sequence,flow.Sequence,4_23,2023-09-13T14:53:39.880Z,,0,,,3094.0000000000146,completion,,,,,false,,,,122877.00000000001,122877.00000000001,119766,119752.00000000001,119783,122913,8,400,,,
trial,html.Screen,4_24_0,2023-09-13T14:53:43.261Z,,0,1,,3362,response,ISIC_9828053.JPG,9,ISIC_2778131.JPG,ISIC_9828053.JPG,false,1,keypress(m),500,126258,126257,122895,122877.00000000001,122913,126276,8,400,25,,ISIC_2778131.JPG
break,html.Screen,4_24_1,2023-09-13T14:53:43.261Z,,0,,,NaN,,,,,,false,,,,126258,126258,,126258,,126276,8,400,,,
break_continue,html.Screen,4_24_2,2023-09-13T14:53:43.262Z,,0,,,NaN,,,,,,false,,,,126258,126258,,126258,,126276,8,400,,,
sequence,flow.Sequence,4_24,2023-09-13T14:53:43.262Z,,0,,,3345,completion,,,,,false,,,,126258,126258,122895,122877.00000000001,122913,126276,8,400,,,
trial,html.Screen,4_25_0,2023-09-13T14:53:46.348Z,,0,1,,3085,response,ISIC_0011641.JPG,10,ISIC_0026791.JPG,ISIC_0011641.JPG,false,1,keypress(m),500,129345,129345,126260,126258,126276,129374,8,400,26,,ISIC_0026791.JPG
break,html.Screen,4_25_1,2023-09-13T14:53:46.349Z,,0,,,NaN,,,,,,false,,,,129346,129345,,129345,,129374,8,400,,,
break_continue,html.Screen,4_25_2,2023-09-13T14:53:46.349Z,,0,,,NaN,,,,,,false,,,,129346,129346,,129346,,129374,8,400,,,
sequence,flow.Sequence,4_25,2023-09-13T14:53:46.349Z,,0,,,3070,completion,,,,,false,,,,129346,129346,126260,126258,126276,129374,8,400,,,
trial,html.Screen,4_26_0,2023-09-13T14:53:49.711Z,,0,1,,3352,response,ISIC_0501108.JPG,2,ISIC_5323725.JPG,ISIC_5323725.JPG,false,0,keypress(z),500,132708,132708,129356,129346,129374,132737,8,400,27,,ISIC_0501108.JPG
break,html.Screen,4_26_1,2023-09-13T14:53:49.712Z,,0,,,NaN,,,,,,false,,,,132709,132708,,132708,,132737,8,400,,,
break_continue,html.Screen,4_26_2,2023-09-13T14:53:49.712Z,,0,,,NaN,,,,,,false,,,,132709,132709,,132709,,132737,8,400,,,
sequence,flow.Sequence,4_26,2023-09-13T14:53:49.712Z,,0,,,3335,completion,,,,,false,,,,132709,132709,129356,129346,129374,132737,8,400,,,
trial,html.Screen,4_27_0,2023-09-13T14:53:52.745Z,,0,1,,3022,response,ISIC_1352841.JPG,6,ISIC_0066476.JPG,ISIC_1352841.JPG,false,1,keypress(m),500,135742,135742,132720,132709,132737,135784,8,400,28,,ISIC_0066476.JPG
break,html.Screen,4_27_1,2023-09-13T14:53:52.746Z,,0,,,NaN,,,,,,false,,,,135743,135743,,135742,,135784,8,400,,,
break_continue,html.Screen,4_27_2,2023-09-13T14:53:52.746Z,,0,,,NaN,,,,,,false,,,,135743,135743,,135743,,135784,8,400,,,
sequence,flow.Sequence,4_27,2023-09-13T14:53:52.746Z,,0,,,3006,completion,,,,,false,,,,135743,135743,132720,132709,132737,135784,8,400,,,
trial,html.Screen,4_28_0,2023-09-13T14:53:55.522Z,,0,1,,2752,response,ISIC_0034074.JPG,6,ISIC_4566439.JPG,ISIC_4566439.JPG,false,0,keypress(z),500,138518,138518,135766,135743,135784,138548,8,400,29,,ISIC_0034074.JPG
break,html.Screen,4_28_1,2023-09-13T14:53:55.522Z,,0,,,NaN,,,,,,false,,,,138519,138519,,138519,,138548,8,400,,,
break_continue,html.Screen,4_28_2,2023-09-13T14:53:55.522Z,,0,,,NaN,,,,,,false,,,,138519,138519,,138519,,138548,8,400,,,
sequence,flow.Sequence,4_28,2023-09-13T14:53:55.523Z,,0,,,2735,completion,,,,,false,,,,138519,138519,135766,135743,135784,138548,8,400,,,
trial,html.Screen,4_29_0,2023-09-13T14:53:58.937Z,,0,1,,3403,response,ISIC_3288342.JPG,13,ISIC_8562820.JPG,ISIC_3288342.JPG,false,1,keypress(m),500,141934,141934,138531,138520,138548,141961,8,400,30,,ISIC_8562820.JPG
break,html.Screen,4_29_1,2023-09-13T14:53:58.938Z,,0,,,NaN,,,,,,false,,,,141935,141935,,141934,,141961,8,400,,,
break_continue,html.Screen,4_29_2,2023-09-13T14:53:58.938Z,,0,,,NaN,,,,,,false,,,,141935,141935,,141935,,141961,8,400,,,
sequence,flow.Sequence,4_29,2023-09-13T14:53:58.938Z,,0,,,3387,completion,,,,,false,,,,141935,141935,138531,138519,138548,141961,8,400,,,
trial,html.Screen,4_30_0,2023-09-13T14:54:01.793Z,,0,1,,2845,response,ISIC_0007884.JPG,10,ISIC_0055289.JPG,ISIC_0055289.JPG,false,0,keypress(z),500,144790,144790,141945,141935,141961,144825,8,400,31,,ISIC_0007884.JPG
break,html.Screen,4_30_1,2023-09-13T14:54:01.794Z,,0,,,NaN,,,,,,false,,,,144791,144791,,144791,,144825,8,400,,,
break_continue,html.Screen,4_30_2,2023-09-13T14:54:01.794Z,,0,,,NaN,,,,,,false,,,,144791,144791,,144791,,144825,8,400,,,
sequence,flow.Sequence,4_30,2023-09-13T14:54:01.794Z,,0,,,2830,completion,,,,,false,,,,144791,144791,141945,141935,141961,144825,8,400,,,
trial,html.Screen,4_31_0,2023-09-13T14:54:05.307Z,,0,1,,3495,response,ISIC_0010089.JPG,7,ISIC_0000349.JPG,ISIC_0010089.JPG,false,1,keypress(m),500,148304,148304,144809,144791,144825,148340,8,400,32,,ISIC_0000349.JPG
break,html.Screen,4_31_1,2023-09-13T14:54:05.308Z,,0,,,NaN,,,,,,false,,,,148305,148305,,148305,,148340,8,400,,,
break_continue,html.Screen,4_31_2,2023-09-13T14:54:05.308Z,,0,,,NaN,,,,,,false,,,,148305,148305,,148305,,148340,8,400,,,
sequence,flow.Sequence,4_31,2023-09-13T14:54:05.309Z,,0,,,3480,completion,,,,,false,,,,148306,148305,144809,144791,144825,148340,8,400,,,
trial,html.Screen,4_32_0,2023-09-13T14:54:10.018Z,,0,1,,4691.000000000029,response,ISIC_0274382.JPG,8,ISIC_4438786.JPG,ISIC_4438786.JPG,false,0,keypress(z),500,153015.00000000003,153015.00000000003,148324,148306,148340,153054,8,400,33,,ISIC_0274382.JPG
break,html.Screen,4_32_1,2023-09-13T14:54:10.019Z,,0,,,NaN,,,,,,false,,,,153016,153016,,153016,,153054,8,400,,,
break_continue,html.Screen,4_32_2,2023-09-13T14:54:10.019Z,,0,,,NaN,,,,,,false,,,,153016,153016,,153016,,153054,8,400,,,
sequence,flow.Sequence,4_32,2023-09-13T14:54:10.019Z,,0,,,4676,completion,,,,,false,,,,153017,153016,148324,148306,148340,153054,8,400,,,
trial,html.Screen,4_33_0,2023-09-13T14:54:12.859Z,,0,1,,2820,response,ISIC_0031829.JPG,8,ISIC_0027666.JPG,ISIC_0027666.JPG,false,0,keypress(z),500,155856,155856,153036,153017,153054,155885,8,400,34,,ISIC_0031829.JPG
break,html.Screen,4_33_1,2023-09-13T14:54:12.859Z,,0,,,NaN,,,,,,false,,,,155857,155856,,155856,,155885,8,400,,,
break_continue,html.Screen,4_33_2,2023-09-13T14:54:12.860Z,,0,,,NaN,,,,,,false,,,,155857,155857,,155857,,155885,8,400,,,
sequence,flow.Sequence,4_33,2023-09-13T14:54:12.860Z,,0,,,2803,completion,,,,,false,,,,155857,155857,153036,153017,153054,155885,8,400,,,
trial,html.Screen,4_34_0,2023-09-13T14:54:16.620Z,,0,1,,3749,response,ISIC_7180418.JPG,16,ISIC_0061320.JPG,ISIC_0061320.JPG,false,0,keypress(z),500,159617,159617,155868,155857,155885,159648,8,400,35,,ISIC_7180418.JPG
break,html.Screen,4_34_1,2023-09-13T14:54:16.621Z,,0,,,NaN,,,,,,false,,,,159618,159618,,159617,,159648,8,400,,,
break_continue,html.Screen,4_34_2,2023-09-13T14:54:16.621Z,,0,,,NaN,,,,,,false,,,,159618,159618,,159618,,159648,8,400,,,
sequence,flow.Sequence,4_34,2023-09-13T14:54:16.621Z,,0,,,3733,completion,,,,,false,,,,159618,159618,155868,155857,155885,159648,8,400,,,
trial,html.Screen,4_35_0,2023-09-13T14:54:19.504Z,,0,1,,2869,response,ISIC_1838876.JPG,7,ISIC_0033479.JPG,ISIC_1838876.JPG,false,1,keypress(m),500,162501,162501,159632,159618,159648,162529,8,400,36,,ISIC_0033479.JPG
break,html.Screen,4_35_1,2023-09-13T14:54:19.504Z,,0,,,NaN,,,,,,false,,,,162501,162501,,162501,,162529,8,400,,,
break_continue,html.Screen,4_35_2,2023-09-13T14:54:19.505Z,,0,,,NaN,,,,,,false,,,,162502,162502,,162502,,162529,8,400,,,
sequence,flow.Sequence,4_35,2023-09-13T14:54:19.505Z,,0,,,2854,completion,,,,,false,,,,162502,162502,159632,159618,159648,162529,8,400,,,
trial,html.Screen,4_36_0,2023-09-13T14:54:22.376Z,,0,1,,2861,response,ISIC_9125543.JPG,13,ISIC_0067485.JPG,ISIC_0067485.JPG,false,0,keypress(z),500,165374,165373,162512,162502,162529,165410,8,400,37,,ISIC_9125543.JPG
break,html.Screen,4_36_1,2023-09-13T14:54:22.377Z,,0,,,NaN,,,,,,false,,,,165374,165374,,165374,,165410,8,400,,,
break_continue,html.Screen,4_36_2,2023-09-13T14:54:22.377Z,,0,,,NaN,,,,,,false,,,,165374,165374,,165374,,165410,8,400,,,
sequence,flow.Sequence,4_36,2023-09-13T14:54:22.377Z,,0,,,2845,completion,,,,,false,,,,165375,165374,162512,162502,162529,165410,8,400,,,
trial,html.Screen,4_37_0,2023-09-13T14:54:25.680Z,,0,1,,3284,response,ISIC_0056119.JPG,10,ISIC_0064080.JPG,ISIC_0064080.JPG,false,0,keypress(z),500,168677,168677,165393,165375,165410,168707,8,400,38,,ISIC_0056119.JPG
break,html.Screen,4_37_1,2023-09-13T14:54:25.680Z,,0,,,NaN,,,,,,false,,,,168678,168677,,168677,,168707,8,400,,,
break_continue,html.Screen,4_37_2,2023-09-13T14:54:25.681Z,,0,,,NaN,,,,,,false,,,,168678,168678,,168678,,168707,8,400,,,
sequence,flow.Sequence,4_37,2023-09-13T14:54:25.681Z,,0,,,3268,completion,,,,,false,,,,168678,168678,165393,165375,165410,168707,8,400,,,
trial,html.Screen,4_38_0,2023-09-13T14:54:28.656Z,,0,1,,2962,response,ISIC_9815788.JPG,2,ISIC_0567814.JPG,ISIC_9815788.JPG,false,1,keypress(m),500,171654,171653,168691,168678,168707,171687,8,400,39,,ISIC_0567814.JPG
break,html.Screen,4_38_1,2023-09-13T14:54:28.657Z,,0,,,NaN,,,,,,false,,,,171654,171654,,171654,,171687,8,400,,,
break_continue,html.Screen,4_38_2,2023-09-13T14:54:28.657Z,,0,,,NaN,,,,,,false,,,,171654,171654,,171654,,171687,8,400,,,
sequence,flow.Sequence,4_38,2023-09-13T14:54:28.657Z,,0,,,2947,completion,,,,,false,,,,171655,171654,168691,168678,168707,171687,8,400,,,
trial,html.Screen,4_39_0,2023-09-13T14:54:31.547Z,,0,1,,2874,response,ISIC_1985569.JPG,5,ISIC_1009042.JPG,ISIC_1009042.JPG,false,0,keypress(z),500,174544,174544,171670,171655,171687,174584,8,400,40,,ISIC_1985569.JPG
break,html.Screen,4_39_1,2023-09-13T14:54:31.548Z,,0,,,NaN,,,,,,false,,,,174545.00000000003,174545.00000000003,,174544,,174584,8,400,,,
break_continue,html.Screen,4_39_2,2023-09-13T14:54:31.548Z,,0,,,NaN,,,,,,false,,,,174545.00000000003,174545.00000000003,,174545.00000000003,,174584,8,400,,,
sequence,flow.Sequence,4_39,2023-09-13T14:54:31.548Z,,0,,,2858.000000000029,completion,,,,,false,,,,174545.00000000003,174545.00000000003,171670,171655,171687,174584,8,400,,,
trial,html.Screen,4_40_0,2023-09-13T14:54:34.459Z,,0,1,,2888.000000000029,response,ISIC_0070679.JPG,6,ISIC_0011797.JPG,ISIC_0070679.JPG,false,1,keypress(m),500,177456.00000000003,177456.00000000003,174568,174545.00000000003,174584,177499,8,400,41,,ISIC_0011797.JPG
break,html.Screen,4_40_1,2023-09-13T14:54:34.460Z,,0,,,NaN,,,,,,false,,,,177457,177457,,177456.00000000003,,177499,8,400,,,
break_continue,html.Screen,4_40_2,2023-09-13T14:54:34.460Z,,0,,,NaN,,,,,,false,,,,177457,177457,,177457,,177499,8,400,,,
sequence,flow.Sequence,4_40,2023-09-13T14:54:34.460Z,,0,,,2873,completion,,,,,false,,,,177457,177457,174568,174545.00000000003,174584,177499,8,400,,,
trial,html.Screen,4_41_0,2023-09-13T14:54:37.326Z,,0,1,,2842,response,ISIC_0058177.JPG,16,ISIC_0024367.JPG,ISIC_0024367.JPG,false,0,keypress(z),500,180323,180323,177481,177457,177499,180363,8,400,42,,ISIC_0058177.JPG
break,html.Screen,4_41_1,2023-09-13T14:54:37.326Z,,0,,,NaN,,,,,,false,,,,180323,180323,,180323,,180363,8,400,,,
break_continue,html.Screen,4_41_2,2023-09-13T14:54:37.326Z,,0,,,NaN,,,,,,false,,,,180324,180324,,180323,,180363,8,400,,,
sequence,flow.Sequence,4_41,2023-09-13T14:54:37.326Z,,0,,,2825,completion,,,,,false,,,,180324,180324,177481,177457,177499,180363,8,400,,,
trial,html.Screen,4_42_0,2023-09-13T14:54:40.068Z,,0,1,,2718,response,ISIC_0483289.JPG,12,ISIC_0031546.JPG,ISIC_0031546.JPG,false,0,keypress(z),500,183065,183065,180347,180324,180363,183093,8,400,43,,ISIC_0483289.JPG
break,html.Screen,4_42_1,2023-09-13T14:54:40.069Z,,0,,,NaN,,,,,,false,,,,183066,183066,,183065,,183093,8,400,,,
break_continue,html.Screen,4_42_2,2023-09-13T14:54:40.069Z,,0,,,NaN,,,,,,false,,,,183066,183066,,183066,,183093,8,400,,,
sequence,flow.Sequence,4_42,2023-09-13T14:54:40.069Z,,0,,,2703,completion,,,,,false,,,,183066,183066,180347,180324,180363,183093,8,400,,,
trial,html.Screen,4_43_0,2023-09-13T14:54:42.792Z,,0,1,,2712.000000000029,response,ISIC_0025512.JPG,10,ISIC_0056092.JPG,ISIC_0056092.JPG,false,0,keypress(z),500,185789.00000000003,185789.00000000003,183077,183066,183093,185823,8,400,44,,ISIC_0025512.JPG
break,html.Screen,4_43_1,2023-09-13T14:54:42.793Z,,0,,,NaN,,,,,,false,,,,185790,185790,,185789.00000000003,,185823,8,400,,,
break_continue,html.Screen,4_43_2,2023-09-13T14:54:42.793Z,,0,,,NaN,,,,,,false,,,,185790,185790,,185790,,185823,8,400,,,
sequence,flow.Sequence,4_43,2023-09-13T14:54:42.793Z,,0,,,2697,completion,,,,,false,,,,185790,185790,183077,183066,183093,185823,8,400,,,
trial,html.Screen,4_44_0,2023-09-13T14:54:46.004Z,,0,1,,3194,response,ISIC_0687593.JPG,11,ISIC_5671175.JPG,ISIC_0687593.JPG,false,1,keypress(m),500,189002,189001,185807,185790,185823,189037,8,400,45,,ISIC_5671175.JPG
break,html.Screen,4_44_1,2023-09-13T14:54:46.005Z,,0,,,NaN,,,,,,false,,,,189002,189002,,189002,,189037,8,400,,,
break_continue,html.Screen,4_44_2,2023-09-13T14:54:46.005Z,,0,,,NaN,,,,,,false,,,,189003,189002,,189002,,189037,8,400,,,
sequence,flow.Sequence,4_44,2023-09-13T14:54:46.005Z,,0,,,3179,completion,,,,,false,,,,189003,189002,185807,185790,185823,189037,8,400,,,
trial,html.Screen,4_45_0,2023-09-13T14:54:48.966Z,,0,1,,2943,response,ISIC_6780901.JPG,8,ISIC_8724944.JPG,ISIC_6780901.JPG,false,1,keypress(m),500,191964,191964,189021,189003,189037,192002,8,400,46,,ISIC_8724944.JPG
break,html.Screen,4_45_1,2023-09-13T14:54:48.967Z,,0,,,NaN,,,,,,false,,,,191965,191964,,191964,,192002,8,400,,,
break_continue,html.Screen,4_45_2,2023-09-13T14:54:48.967Z,,0,,,NaN,,,,,,false,,,,191965,191965,,191965,,192002,8,400,,,
sequence,flow.Sequence,4_45,2023-09-13T14:54:48.967Z,,0,,,2928,completion,,,,,false,,,,191965,191965,189021,189003,189037,192002,8,400,,,
trial,html.Screen,4_46_0,2023-09-13T14:54:52.503Z,,0,1,,3515,response,ISIC_9300579.JPG,11,ISIC_0001832.JPG,ISIC_0001832.JPG,false,0,keypress(z),500,195501,195501,191986,191965,192002,195533,8,400,47,,ISIC_9300579.JPG
break,html.Screen,4_46_1,2023-09-13T14:54:52.504Z,,0,,,NaN,,,,,,false,,,,195501,195501,,195501,,195533,8,400,,,
break_continue,html.Screen,4_46_2,2023-09-13T14:54:52.504Z,,0,,,NaN,,,,,,false,,,,195501,195501,,195501,,195533,8,400,,,
sequence,flow.Sequence,4_46,2023-09-13T14:54:52.504Z,,0,,,3499,completion,,,,,false,,,,195501,195501,191986,191965,192002,195533,8,400,,,
trial,html.Screen,4_47_0,2023-09-13T14:54:55.249Z,,0,1,,2730,response,ISIC_1177505.JPG,6,ISIC_9465061.JPG,ISIC_1177505.JPG,false,1,keypress(m),500,198246,198246,195516,195501,195533,198280,8,400,48,,ISIC_9465061.JPG
break,html.Screen,4_47_1,2023-09-13T14:54:55.249Z,,0,,,NaN,,,,,,false,,,,198246,198246,,198246,,198280,8,400,,,
break_continue,html.Screen,4_47_2,2023-09-13T14:54:55.249Z,,0,,,NaN,,,,,,false,,,,198247,198247,,198247,,198280,8,400,,,
sequence,flow.Sequence,4_47,2023-09-13T14:54:55.249Z,,0,,,2714,completion,,,,,false,,,,198247,198247,195516,195501,195533,198280,8,400,,,
trial,html.Screen,4_48_0,2023-09-13T14:54:58.058Z,,0,1,,2791,response,ISIC_4945233.JPG,6,ISIC_0033569.JPG,ISIC_4945233.JPG,false,1,keypress(m),500,201056,201055,198264,198247,198280,201095,8,400,49,,ISIC_0033569.JPG
break,html.Screen,4_48_1,2023-09-13T14:54:58.059Z,,0,,,NaN,,,,,,false,,,,201056,201056,,201056,,201095,8,400,,,
break_continue,html.Screen,4_48_2,2023-09-13T14:54:58.059Z,,0,,,NaN,,,,,,false,,,,201056,201056,,201056,,201095,8,400,,,
sequence,flow.Sequence,4_48,2023-09-13T14:54:58.059Z,,0,,,2776,completion,,,,,false,,,,201057.00000000003,201056,198264,198247,198280,201095,8,400,,,
trial,html.Screen,4_49_0,2023-09-13T14:55:00.954Z,,0,1,,2874,response,ISIC_1772828.JPG,11,ISIC_9851899.JPG,ISIC_9851899.JPG,false,0,keypress(z),500,203952,203951,201077,201057.00000000003,201095,203993,8,400,50,,ISIC_1772828.JPG
break,html.Screen,4_49_1,2023-09-13T14:55:10.984Z,,0,,,10005,timeout,,,,,false,,,,213981,213981,203978,203952,203993,213998,8,400,,,
break_continue,html.Screen,4_49_2,2023-09-13T14:55:12.128Z,,0,,,1137,response,,,,,false,continue,keypress(Space),,215125,215118,213981,213981,213998,215165,8,400,,,
sequence,flow.Sequence,4_49,2023-09-13T14:55:12.128Z,,0,,,14023,completion,,,,,false,,,,215126,215118,201077,201057.00000000003,201095,215165,8,400,,,
trial,html.Screen,4_50_0,2023-09-13T14:55:15.665Z,,0,2,,3513,response,ISIC_9590080.JPG,15,ISIC_6208762.JPG,ISIC_6208762.JPG,false,0,keypress(z),500,218662,218662,215149,215126,215165,218698,8,400,1,,ISIC_9590080.JPG
break,html.Screen,4_50_1,2023-09-13T14:55:15.665Z,,0,,,NaN,,,,,,false,,,,218663,218663,,218662,,218698,8,400,,,
break_continue,html.Screen,4_50_2,2023-09-13T14:55:15.665Z,,0,,,NaN,,,,,,false,,,,218663,218663,,218663,,218698,8,400,,,
sequence,flow.Sequence,4_50,2023-09-13T14:55:15.665Z,,0,,,3498,completion,,,,,false,,,,218663,218663,215149,215126,215165,218698,8,400,,,
trial,html.Screen,4_51_0,2023-09-13T14:55:18.559Z,,0,2,,2875,response,ISIC_5434229.JPG,10,ISIC_0014132.JPG,ISIC_5434229.JPG,false,1,keypress(m),500,221556,221556,218681,218663,218698,221596,8,400,2,,ISIC_0014132.JPG
break,html.Screen,4_51_1,2023-09-13T14:55:18.559Z,,0,,,NaN,,,,,,false,,,,221557.00000000003,221557.00000000003,,221556,,221596,8,400,,,
break_continue,html.Screen,4_51_2,2023-09-13T14:55:18.559Z,,0,,,NaN,,,,,,false,,,,221557.00000000003,221557.00000000003,,221557.00000000003,,221596,8,400,,,
sequence,flow.Sequence,4_51,2023-09-13T14:55:18.560Z,,0,,,2859.000000000029,completion,,,,,false,,,,221557.00000000003,221557.00000000003,218681,218663,218698,221596,8,400,,,
trial,html.Screen,4_52_0,2023-09-13T14:55:21.211Z,,0,2,,2629,response,ISIC_4980656.JPG,10,ISIC_0027951.JPG,ISIC_0027951.JPG,false,0,keypress(z),500,224209,224208,221579,221557.00000000003,221596,224242,8,400,3,,ISIC_4980656.JPG
break,html.Screen,4_52_1,2023-09-13T14:55:21.212Z,,0,,,NaN,,,,,,false,,,,224209,224209,,224209,,224242,8,400,,,
break_continue,html.Screen,4_52_2,2023-09-13T14:55:21.212Z,,0,,,NaN,,,,,,false,,,,224210,224210,,224209,,224242,8,400,,,
sequence,flow.Sequence,4_52,2023-09-13T14:55:21.212Z,,0,,,2614,completion,,,,,false,,,,224210,224210,221579,221557.00000000003,221596,224242,8,400,,,
trial,html.Screen,4_53_0,2023-09-13T14:55:23.884Z,,0,2,,2656,response,ISIC_2647643.JPG,12,ISIC_0029684.JPG,ISIC_0029684.JPG,false,0,keypress(z),500,226882,226882,224226,224210,224242,226922,8,400,4,,ISIC_2647643.JPG
break,html.Screen,4_53_1,2023-09-13T14:55:23.884Z,,0,,,NaN,,,,,,false,,,,226882,226882,,226882,,226922,8,400,,,
break_continue,html.Screen,4_53_2,2023-09-13T14:55:23.885Z,,0,,,NaN,,,,,,false,,,,226883,226882,,226882,,226922,8,400,,,
sequence,flow.Sequence,4_53,2023-09-13T14:55:23.885Z,,0,,,2640,completion,,,,,false,,,,226883,226882,224226,224210,224242,226922,8,400,,,
trial,html.Screen,4_54_0,2023-09-13T14:55:26.721Z,,0,2,,2813,response,ISIC_6344073.JPG,13,ISIC_4312841.JPG,ISIC_6344073.JPG,false,1,keypress(m),500,229719,229719,226906,226883,226922,229753,8,400,5,,ISIC_4312841.JPG
break,html.Screen,4_54_1,2023-09-13T14:55:26.722Z,,0,,,NaN,,,,,,false,,,,229720,229719,,229719,,229753,8,400,,,
break_continue,html.Screen,4_54_2,2023-09-13T14:55:26.722Z,,0,,,NaN,,,,,,false,,,,229720,229720,,229720,,229753,8,400,,,
sequence,flow.Sequence,4_54,2023-09-13T14:55:26.722Z,,0,,,2798,completion,,,,,false,,,,229720,229720,226906,226883,226922,229753,8,400,,,
trial,html.Screen,4_55_0,2023-09-13T14:55:30.310Z,,0,2,,3572,response,ISIC_0027214.JPG,1,ISIC_2918117.JPG,ISIC_0027214.JPG,false,1,keypress(m),500,233308,233308,229736,229720,229753,233350,8,400,6,,ISIC_2918117.JPG
break,html.Screen,4_55_1,2023-09-13T14:55:30.311Z,,0,,,NaN,,,,,,false,,,,233309,233309,,233308,,233350,8,400,,,
break_continue,html.Screen,4_55_2,2023-09-13T14:55:30.311Z,,0,,,NaN,,,,,,false,,,,233309,233309,,233309,,233350,8,400,,,
sequence,flow.Sequence,4_55,2023-09-13T14:55:30.311Z,,0,,,3556,completion,,,,,false,,,,233309,233309,229736,229720,229753,233350,8,400,,,
trial,html.Screen,4_56_0,2023-09-13T14:55:33.142Z,,0,2,,2806.000000000029,response,ISIC_6541615.JPG,13,ISIC_0027152.JPG,ISIC_6541615.JPG,false,1,keypress(m),500,236140.00000000003,236140.00000000003,233334,233309,233350,236181,8,400,7,,ISIC_0027152.JPG
break,html.Screen,4_56_1,2023-09-13T14:55:33.143Z,,0,,,NaN,,,,,,false,,,,236141,236141,,236140.00000000003,,236181,8,400,,,
break_continue,html.Screen,4_56_2,2023-09-13T14:55:33.143Z,,0,,,NaN,,,,,,false,,,,236141,236141,,236141,,236181,8,400,,,
sequence,flow.Sequence,4_56,2023-09-13T14:55:33.143Z,,0,,,2791,completion,,,,,false,,,,236141,236141,233334,233309,233350,236181,8,400,,,
trial,html.Screen,4_57_0,2023-09-13T14:55:35.881Z,,0,2,,2715.000000000029,response,ISIC_1351604.JPG,6,ISIC_0504730.JPG,ISIC_0504730.JPG,false,0,keypress(z),500,238879.00000000003,238879.00000000003,236164,236141,236181,238911,8,400,8,,ISIC_1351604.JPG
break,html.Screen,4_57_1,2023-09-13T14:55:35.882Z,,0,,,NaN,,,,,,false,,,,238880,238879.00000000003,,238879.00000000003,,238911,8,400,,,
break_continue,html.Screen,4_57_2,2023-09-13T14:55:35.882Z,,0,,,NaN,,,,,,false,,,,238880,238880,,238880,,238911,8,400,,,
sequence,flow.Sequence,4_57,2023-09-13T14:55:35.882Z,,0,,,2699,completion,,,,,false,,,,238880,238880,236164,236141,236181,238911,8,400,,,
trial,html.Screen,4_58_0,2023-09-13T14:55:38.670Z,,0,2,,2773,response,ISIC_4938638.JPG,4,ISIC_0011057.JPG,ISIC_0011057.JPG,false,0,keypress(z),500,241668,241668,238895,238880,238911,241699,8,400,9,,ISIC_4938638.JPG
break,html.Screen,4_58_1,2023-09-13T14:55:38.671Z,,0,,,NaN,,,,,,false,,,,241669,241668,,241668,,241699,8,400,,,
break_continue,html.Screen,4_58_2,2023-09-13T14:55:38.671Z,,0,,,NaN,,,,,,false,,,,241669,241669,,241669,,241699,8,400,,,
sequence,flow.Sequence,4_58,2023-09-13T14:55:38.671Z,,0,,,2758,completion,,,,,false,,,,241669,241669,238895,238880,238911,241699,8,400,,,
trial,html.Screen,4_59_0,2023-09-13T14:55:41.953Z,,0,2,,3269.000000000029,response,ISIC_7226381.JPG,8,ISIC_2454898.JPG,ISIC_2454898.JPG,false,0,keypress(z),500,244951,244950.00000000003,241681,241669,241699,244985,8,400,10,,ISIC_7226381.JPG
break,html.Screen,4_59_1,2023-09-13T14:55:41.953Z,,0,,,NaN,,,,,,false,,,,244951,244951,,244951,,244985,8,400,,,
break_continue,html.Screen,4_59_2,2023-09-13T14:55:41.953Z,,0,,,NaN,,,,,,false,,,,244951,244951,,244951,,244985,8,400,,,
sequence,flow.Sequence,4_59,2023-09-13T14:55:41.954Z,,0,,,3252,completion,,,,,false,,,,244951,244951,241681,241669,241699,244985,8,400,,,
trial,html.Screen,4_60_0,2023-09-13T14:55:45.538Z,,0,2,,3566,response,ISIC_2212473.JPG,8,ISIC_5170766.JPG,ISIC_5170766.JPG,false,0,keypress(z),500,248536,248536,244970,244952,244985,248574,8,400,11,,ISIC_2212473.JPG
break,html.Screen,4_60_1,2023-09-13T14:55:45.539Z,,0,,,NaN,,,,,,false,,,,248537,248537,,248537,,248574,8,400,,,
break_continue,html.Screen,4_60_2,2023-09-13T14:55:45.539Z,,0,,,NaN,,,,,,false,,,,248537,248537,,248537,,248574,8,400,,,
sequence,flow.Sequence,4_60,2023-09-13T14:55:45.540Z,,0,,,3552,completion,,,,,false,,,,248538,248537,244970,244952,244985,248574,8,400,,,
trial,html.Screen,4_61_0,2023-09-13T14:55:48.215Z,,0,2,,2657,response,ISIC_4007322.JPG,11,ISIC_0000384.JPG,ISIC_0000384.JPG,false,0,keypress(z),500,251213,251213,248556,248538,248574,251254,8,400,12,,ISIC_4007322.JPG
break,html.Screen,4_61_1,2023-09-13T14:55:48.216Z,,0,,,NaN,,,,,,false,,,,251214,251214,,251214,,251254,8,400,,,
break_continue,html.Screen,4_61_2,2023-09-13T14:55:48.216Z,,0,,,NaN,,,,,,false,,,,251214,251214,,251214,,251254,8,400,,,
sequence,flow.Sequence,4_61,2023-09-13T14:55:48.216Z,,0,,,2640,completion,,,,,false,,,,251214,251214,248556,248538,248574,251254,8,400,,,
trial,html.Screen,4_62_0,2023-09-13T14:55:51.220Z,,0,2,,2980.000000000029,response,ISIC_0008393.JPG,10,ISIC_8127578.JPG,ISIC_0008393.JPG,false,1,keypress(m),500,254218.00000000003,254218.00000000003,251238,251214,251254,254252,8,400,13,,ISIC_8127578.JPG
break,html.Screen,4_62_1,2023-09-13T14:55:51.221Z,,0,,,NaN,,,,,,false,,,,254219,254219,,254218.00000000003,,254252,8,400,,,
break_continue,html.Screen,4_62_2,2023-09-13T14:55:51.221Z,,0,,,NaN,,,,,,false,,,,254219,254219,,254219,,254252,8,400,,,
sequence,flow.Sequence,4_62,2023-09-13T14:55:51.221Z,,0,,,2965,completion,,,,,false,,,,254219,254219,251238,251214,251254,254252,8,400,,,
trial,html.Screen,4_63_0,2023-09-13T14:55:54.479Z,,0,2,,3241.000000000029,response,ISIC_0003550.JPG,6,ISIC_9562442.JPG,ISIC_0003550.JPG,false,1,keypress(m),500,257477.00000000003,257477.00000000003,254236,254219,254252,257516,8,400,14,,ISIC_9562442.JPG
break,html.Screen,4_63_1,2023-09-13T14:55:54.479Z,,0,,,NaN,,,,,,false,,,,257478,257477.00000000003,,257477.00000000003,,257516,8,400,,,
break_continue,html.Screen,4_63_2,2023-09-13T14:55:54.480Z,,0,,,NaN,,,,,,false,,,,257478,257478,,257478,,257516,8,400,,,
sequence,flow.Sequence,4_63,2023-09-13T14:55:54.480Z,,0,,,3226,completion,,,,,false,,,,257478,257478,254236,254219,254252,257516,8,400,,,
trial,html.Screen,4_64_0,2023-09-13T14:55:57.553Z,,0,2,,3052,response,ISIC_2562668.JPG,7,ISIC_0058998.JPG,ISIC_0058998.JPG,false,0,keypress(z),500,260552.00000000003,260551,257499,257478,257516,260579,8,400,15,,ISIC_2562668.JPG
break,html.Screen,4_64_1,2023-09-13T14:55:57.554Z,,0,,,NaN,,,,,,false,,,,260552.00000000003,260552.00000000003,,260552.00000000003,,260579,8,400,,,
break_continue,html.Screen,4_64_2,2023-09-13T14:55:57.554Z,,0,,,NaN,,,,,,false,,,,260552.00000000003,260552.00000000003,,260552.00000000003,,260579,8,400,,,
sequence,flow.Sequence,4_64,2023-09-13T14:55:57.554Z,,0,,,3036.000000000029,completion,,,,,false,,,,260553,260552.00000000003,257499,257478,257516,260579,8,400,,,
trial,html.Screen,4_65_0,2023-09-13T14:56:00.413Z,,0,2,,2848,response,ISIC_0065469.JPG,6,ISIC_5422432.JPG,ISIC_5422432.JPG,false,0,keypress(z),500,263411,263411,260563,260553,260579,263443,8,400,16,,ISIC_0065469.JPG
break,html.Screen,4_65_1,2023-09-13T14:56:00.414Z,,0,,,NaN,,,,,,false,,,,263412,263412,,263412,,263443,8,400,,,
break_continue,html.Screen,4_65_2,2023-09-13T14:56:00.414Z,,0,,,NaN,,,,,,false,,,,263413,263412,,263412,,263443,8,400,,,
sequence,flow.Sequence,4_65,2023-09-13T14:56:00.414Z,,0,,,2833,completion,,,,,false,,,,263413,263412,260563,260553,260579,263443,8,400,,,
trial,html.Screen,4_66_0,2023-09-13T14:56:03.256Z,,0,2,,2827,response,ISIC_0062713.JPG,12,ISIC_0072335.JPG,ISIC_0072335.JPG,false,0,keypress(z),500,266254,266254,263427,263413,263443,266290,8,400,17,,ISIC_0062713.JPG
break,html.Screen,4_66_1,2023-09-13T14:56:03.256Z,,0,,,NaN,,,,,,false,,,,266255,266254,,266254,,266290,8,400,,,
break_continue,html.Screen,4_66_2,2023-09-13T14:56:03.257Z,,0,,,NaN,,,,,,false,,,,266255,266255,,266255,,266290,8,400,,,
sequence,flow.Sequence,4_66,2023-09-13T14:56:03.257Z,,0,,,2812,completion,,,,,false,,,,266255,266255,263427,263413,263443,266290,8,400,,,
trial,html.Screen,4_67_0,2023-09-13T14:56:05.912Z,,0,2,,2637,response,ISIC_6982386.JPG,9,ISIC_5961092.JPG,ISIC_5961092.JPG,false,0,keypress(z),500,268910,268910,266273,266255,266290,268938,8,400,18,,ISIC_6982386.JPG
break,html.Screen,4_67_1,2023-09-13T14:56:05.912Z,,0,,,NaN,,,,,,false,,,,268911,268910,,268910,,268938,8,400,,,
break_continue,html.Screen,4_67_2,2023-09-13T14:56:05.913Z,,0,,,NaN,,,,,,false,,,,268911,268911,,268911,,268938,8,400,,,
sequence,flow.Sequence,4_67,2023-09-13T14:56:05.913Z,,0,,,2621,completion,,,,,false,,,,268911,268911,266273,266255,266290,268938,8,400,,,
trial,html.Screen,4_68_0,2023-09-13T14:56:08.698Z,,0,2,,2775,response,ISIC_2465895.JPG,12,ISIC_3736075.JPG,ISIC_2465895.JPG,false,1,keypress(m),500,271697,271696,268921,268911,268938,271736,8,400,19,,ISIC_3736075.JPG
break,html.Screen,4_68_1,2023-09-13T14:56:08.699Z,,0,,,NaN,,,,,,false,,,,271697,271697,,271697,,271736,8,400,,,
break_continue,html.Screen,4_68_2,2023-09-13T14:56:08.699Z,,0,,,NaN,,,,,,false,,,,271697,271697,,271697,,271736,8,400,,,
sequence,flow.Sequence,4_68,2023-09-13T14:56:08.699Z,,0,,,2759,completion,,,,,false,,,,271698,271697,268921,268911,268938,271736,8,400,,,
trial,html.Screen,4_69_0,2023-09-13T14:56:11.824Z,,0,2,,3104,response,ISIC_1499915.JPG,11,ISIC_7632525.JPG,ISIC_7632525.JPG,false,0,keypress(z),500,274822,274822,271718,271698,271736,274857,8,400,20,,ISIC_1499915.JPG
break,html.Screen,4_69_1,2023-09-13T14:56:11.825Z,,0,,,NaN,,,,,,false,,,,274823,274823,,274823,,274857,8,400,,,
break_continue,html.Screen,4_69_2,2023-09-13T14:56:11.825Z,,0,,,NaN,,,,,,false,,,,274823,274823,,274823,,274857,8,400,,,
sequence,flow.Sequence,4_69,2023-09-13T14:56:11.825Z,,0,,,3087,completion,,,,,false,,,,274823,274823,271718,271698,271736,274857,8,400,,,
trial,html.Screen,4_70_0,2023-09-13T14:56:14.628Z,,0,2,,2785.000000000058,response,ISIC_0046526.JPG,8,ISIC_0032656.JPG,ISIC_0032656.JPG,false,0,keypress(z),500,277627,277626.00000000006,274841,274824,274857,277654,8,400,21,,ISIC_0046526.JPG
break,html.Screen,4_70_1,2023-09-13T14:56:14.629Z,,0,,,NaN,,,,,,false,,,,277627,277627,,277627,,277654,8,400,,,
break_continue,html.Screen,4_70_2,2023-09-13T14:56:14.629Z,,0,,,NaN,,,,,,false,,,,277628,277628,,277627,,277654,8,400,,,
sequence,flow.Sequence,4_70,2023-09-13T14:56:14.629Z,,0,,,2771,completion,,,,,false,,,,277628,277628,274841,274824,274857,277654,8,400,,,
trial,html.Screen,4_71_0,2023-09-13T14:56:17.812Z,,0,2,,3173,response,ISIC_7515794.JPG,14,ISIC_0028998.JPG,ISIC_7515794.JPG,false,1,keypress(m),500,280811,280810,277637,277628,277654,280851,8,400,22,,ISIC_0028998.JPG
break,html.Screen,4_71_1,2023-09-13T14:56:17.813Z,,0,,,NaN,,,,,,false,,,,280811,280811,,280811,,280851,8,400,,,
break_continue,html.Screen,4_71_2,2023-09-13T14:56:17.813Z,,0,,,NaN,,,,,,false,,,,280812,280811,,280811,,280851,8,400,,,
sequence,flow.Sequence,4_71,2023-09-13T14:56:17.813Z,,0,,,3157,completion,,,,,false,,,,280812,280811,277637,277628,277654,280851,8,400,,,
trial,html.Screen,4_72_0,2023-09-13T14:56:21.166Z,,0,2,,3329,response,ISIC_2167209.JPG,12,ISIC_5360921.JPG,ISIC_2167209.JPG,false,1,keypress(m),500,284164,284164,280835,280812,280851,284198,8,400,23,,ISIC_5360921.JPG
break,html.Screen,4_72_1,2023-09-13T14:56:21.166Z,,0,,,NaN,,,,,,false,,,,284165,284165,,284164,,284198,8,400,,,
break_continue,html.Screen,4_72_2,2023-09-13T14:56:21.167Z,,0,,,NaN,,,,,,false,,,,284165,284165,,284165,,284198,8,400,,,
sequence,flow.Sequence,4_72,2023-09-13T14:56:21.167Z,,0,,,3314,completion,,,,,false,,,,284165,284165,280835,280812,280851,284198,8,400,,,
trial,html.Screen,4_73_0,2023-09-13T14:56:24.817Z,,0,2,,3633,response,ISIC_5706192.JPG,5,ISIC_1897507.JPG,ISIC_1897507.JPG,false,0,keypress(z),500,287815,287815,284182,284165,284198,287845,8,400,24,,ISIC_5706192.JPG
break,html.Screen,4_73_1,2023-09-13T14:56:24.817Z,,0,,,NaN,,,,,,false,,,,287816.00000000006,287816.00000000006,,287815,,287845,8,400,,,
break_continue,html.Screen,4_73_2,2023-09-13T14:56:24.818Z,,0,,,NaN,,,,,,false,,,,287816.00000000006,287816.00000000006,,287816.00000000006,,287845,8,400,,,
sequence,flow.Sequence,4_73,2023-09-13T14:56:24.818Z,,0,,,3618.000000000058,completion,,,,,false,,,,287816.00000000006,287816.00000000006,284182,284165,284198,287845,8,400,,,
trial,html.Screen,4_74_0,2023-09-13T14:56:28.015Z,,0,2,,3184.000000000058,response,ISIC_9203914.JPG,11,ISIC_7789452.JPG,ISIC_9203914.JPG,false,1,keypress(m),500,291013.00000000006,291013.00000000006,287829,287816.00000000006,287845,291043,8,400,25,,ISIC_7789452.JPG
break,html.Screen,4_74_1,2023-09-13T14:56:28.016Z,,0,,,NaN,,,,,,false,,,,291014,291014,,291014,,291043,8,400,,,
break_continue,html.Screen,4_74_2,2023-09-13T14:56:28.016Z,,0,,,NaN,,,,,,false,,,,291015,291014,,291014,,291043,8,400,,,
sequence,flow.Sequence,4_74,2023-09-13T14:56:28.016Z,,0,,,3169,completion,,,,,false,,,,291015,291014,287829,287816.00000000006,287845,291043,8,400,,,
trial,html.Screen,4_75_0,2023-09-13T14:56:31.268Z,,0,2,,3241,response,ISIC_0011507.JPG,9,ISIC_2225927.JPG,ISIC_2225927.JPG,false,0,keypress(z),500,294267,294267,291026,291015,291043,294289,8,400,26,,ISIC_0011507.JPG
break,html.Screen,4_75_1,2023-09-13T14:56:31.269Z,,0,,,NaN,,,,,,false,,,,294267,294267,,294267,,294289,8,400,,,
break_continue,html.Screen,4_75_2,2023-09-13T14:56:31.269Z,,0,,,NaN,,,,,,false,,,,294267,294267,,294267,,294289,8,400,,,
sequence,flow.Sequence,4_75,2023-09-13T14:56:31.269Z,,0,,,3224,completion,,,,,false,,,,294268,294267,291026,291015,291043,294289,8,400,,,
trial,html.Screen,4_76_0,2023-09-13T14:56:34.204Z,,0,2,,2930,response,ISIC_2153686.JPG,14,ISIC_0062401.JPG,ISIC_2153686.JPG,false,1,keypress(m),500,297202,297202,294272,294268,294289,297237,8,400,27,,ISIC_0062401.JPG
break,html.Screen,4_76_1,2023-09-13T14:56:34.204Z,,0,,,NaN,,,,,,false,,,,297203.00000000006,297203.00000000006,,297202,,297237,8,400,,,
break_continue,html.Screen,4_76_2,2023-09-13T14:56:34.204Z,,0,,,NaN,,,,,,false,,,,297203.00000000006,297203.00000000006,,297203.00000000006,,297237,8,400,,,
sequence,flow.Sequence,4_76,2023-09-13T14:56:34.205Z,,0,,,2914.000000000058,completion,,,,,false,,,,297203.00000000006,297203.00000000006,294272,294268,294289,297237,8,400,,,
trial,html.Screen,4_77_0,2023-09-13T14:56:37.656Z,,0,2,,3433,response,ISIC_8108099.JPG,5,ISIC_5518595.JPG,ISIC_5518595.JPG,false,0,keypress(z),500,300655.00000000006,300654,297221,297203.00000000006,297237,300684,8,400,28,,ISIC_8108099.JPG
break,html.Screen,4_77_1,2023-09-13T14:56:37.657Z,,0,,,NaN,,,,,,false,,,,300655.00000000006,300655.00000000006,,300655.00000000006,,300684,8,400,,,
break_continue,html.Screen,4_77_2,2023-09-13T14:56:37.657Z,,0,,,NaN,,,,,,false,,,,300655.00000000006,300655.00000000006,,300655.00000000006,,300684,8,400,,,
sequence,flow.Sequence,4_77,2023-09-13T14:56:37.657Z,,0,,,3418.000000000058,completion,,,,,false,,,,300655.00000000006,300655.00000000006,297221,297203.00000000006,297237,300684,8,400,,,
trial,html.Screen,4_78_0,2023-09-13T14:56:41.420Z,,0,2,,3751,response,ISIC_6357263.JPG,3,ISIC_6777714.JPG,ISIC_6777714.JPG,false,0,keypress(z),500,304418,304418,300667,300656,300684,304448,8,400,29,,ISIC_6357263.JPG
break,html.Screen,4_78_1,2023-09-13T14:56:41.420Z,,0,,,NaN,,,,,,false,,,,304419,304419,,304419,,304448,8,400,,,
break_continue,html.Screen,4_78_2,2023-09-13T14:56:41.421Z,,0,,,NaN,,,,,,false,,,,304419,304419,,304419,,304448,8,400,,,
sequence,flow.Sequence,4_78,2023-09-13T14:56:41.421Z,,0,,,3735,completion,,,,,false,,,,304419,304419,300667,300655.00000000006,300684,304448,8,400,,,
trial,html.Screen,4_79_0,2023-09-13T14:56:44.644Z,,0,2,,3211,response,ISIC_6382207.JPG,8,ISIC_2245325.JPG,ISIC_2245325.JPG,false,0,keypress(z),500,307643,307642,304431,304419,304448,307678,8,400,30,,ISIC_6382207.JPG
break,html.Screen,4_79_1,2023-09-13T14:56:44.645Z,,0,,,NaN,,,,,,false,,,,307643,307643,,307643,,307678,8,400,,,
break_continue,html.Screen,4_79_2,2023-09-13T14:56:44.645Z,,0,,,NaN,,,,,,false,,,,307643,307643,,307643,,307678,8,400,,,
sequence,flow.Sequence,4_79,2023-09-13T14:56:44.645Z,,0,,,3195,completion,,,,,false,,,,307644,307643,304431,304419,304448,307678,8,400,,,
trial,html.Screen,4_80_0,2023-09-13T14:56:47.606Z,,0,2,,2943,response,ISIC_0069504.JPG,9,ISIC_2454898.JPG,ISIC_2454898.JPG,false,0,keypress(z),500,310604,310604,307661,307644,307678,310626,8,400,31,,ISIC_0069504.JPG
break,html.Screen,4_80_1,2023-09-13T14:56:47.606Z,,0,,,NaN,,,,,,false,,,,310605,310605,,310605,,310626,8,400,,,
break_continue,html.Screen,4_80_2,2023-09-13T14:56:47.606Z,,0,,,NaN,,,,,,false,,,,310605,310605,,310605,,310626,8,400,,,
sequence,flow.Sequence,4_80,2023-09-13T14:56:47.607Z,,0,,,2927,completion,,,,,false,,,,310605,310605,307661,307644,307678,310626,8,400,,,
trial,html.Screen,4_81_0,2023-09-13T14:56:50.342Z,,0,2,,2731.000000000058,response,ISIC_2244564.JPG,6,ISIC_9989936.JPG,ISIC_9989936.JPG,false,0,keypress(z),500,313340.00000000006,313340.00000000006,310609,310605,310626,313373,8,400,32,,ISIC_2244564.JPG
break,html.Screen,4_81_1,2023-09-13T14:56:50.342Z,,0,,,NaN,,,,,,false,,,,313341,313341,,313341,,313373,8,400,,,
break_continue,html.Screen,4_81_2,2023-09-13T14:56:50.343Z,,0,,,NaN,,,,,,false,,,,313341,313341,,313341,,313373,8,400,,,
sequence,flow.Sequence,4_81,2023-09-13T14:56:50.343Z,,0,,,2715,completion,,,,,false,,,,313341,313341,310609,310605,310626,313373,8,400,,,
trial,html.Screen,4_82_0,2023-09-13T14:56:53.726Z,,0,2,,3368,response,ISIC_0010825.JPG,6,ISIC_0024298.JPG,ISIC_0010825.JPG,false,1,keypress(m),500,316725,316725,313357,313342,313373,316754,8,400,33,,ISIC_0024298.JPG
break,html.Screen,4_82_1,2023-09-13T14:56:53.727Z,,0,,,NaN,,,,,,false,,,,316725,316725,,316725,,316754,8,400,,,
break_continue,html.Screen,4_82_2,2023-09-13T14:56:53.727Z,,0,,,NaN,,,,,,false,,,,316726,316726,,316725,,316754,8,400,,,
sequence,flow.Sequence,4_82,2023-09-13T14:56:53.727Z,,0,,,3353,completion,,,,,false,,,,316726,316726,313357,313342,313373,316754,8,400,,,
trial,html.Screen,4_83_0,2023-09-13T14:56:56.474Z,,0,2,,2736,response,ISIC_6734679.JPG,9,ISIC_5755836.JPG,ISIC_5755836.JPG,false,0,keypress(z),500,319473,319473,316737,316726,316754,319501,8,400,34,,ISIC_6734679.JPG
break,html.Screen,4_83_1,2023-09-13T14:56:56.475Z,,0,,,NaN,,,,,,false,,,,319474,319474,,319473,,319501,8,400,,,
break_continue,html.Screen,4_83_2,2023-09-13T14:56:56.475Z,,0,,,NaN,,,,,,false,,,,319474,319474,,319474,,319501,8,400,,,
sequence,flow.Sequence,4_83,2023-09-13T14:56:56.476Z,,0,,,2720,completion,,,,,false,,,,319474,319474,316737,316726,316754,319501,8,400,,,
trial,html.Screen,4_84_0,2023-09-13T14:56:59.494Z,,0,2,,3008,response,ISIC_0006328.JPG,10,ISIC_0004015.JPG,ISIC_0004015.JPG,false,0,keypress(z),500,322493,322493,319485,319474,319501,322532,8,400,35,,ISIC_0006328.JPG
break,html.Screen,4_84_1,2023-09-13T14:56:59.495Z,,0,,,NaN,,,,,,false,,,,322493,322493,,322493,,322532,8,400,,,
break_continue,html.Screen,4_84_2,2023-09-13T14:56:59.495Z,,0,,,NaN,,,,,,false,,,,322494,322493,,322493,,322532,8,400,,,
sequence,flow.Sequence,4_84,2023-09-13T14:56:59.495Z,,0,,,2992,completion,,,,,false,,,,322494,322493,319485,319474,319501,322532,8,400,,,
trial,html.Screen,4_85_0,2023-09-13T14:57:03.589Z,,0,2,,4072,response,ISIC_0013953.JPG,10,ISIC_7342636.JPG,ISIC_0013953.JPG,false,1,keypress(m),500,326587,326587,322515,322494,322532,326613,8,400,36,,ISIC_7342636.JPG
break,html.Screen,4_85_1,2023-09-13T14:57:03.589Z,,0,,,NaN,,,,,,false,,,,326588,326588,,326588,,326613,8,400,,,
break_continue,html.Screen,4_85_2,2023-09-13T14:57:03.590Z,,0,,,NaN,,,,,,false,,,,326588,326588,,326588,,326613,8,400,,,
sequence,flow.Sequence,4_85,2023-09-13T14:57:03.590Z,,0,,,4056,completion,,,,,false,,,,326588,326588,322515,322494,322532,326613,8,400,,,
trial,html.Screen,4_86_0,2023-09-13T14:57:06.377Z,,0,2,,2779.000000000058,response,ISIC_3764173.JPG,5,ISIC_0008447.JPG,ISIC_0008447.JPG,false,0,keypress(z),500,329376.00000000006,329376.00000000006,326597,326589,326613,329394,8,400,37,,ISIC_3764173.JPG
break,html.Screen,4_86_1,2023-09-13T14:57:06.378Z,,0,,,NaN,,,,,,false,,,,329377,329377,,329376.00000000006,,329394,8,400,,,
break_continue,html.Screen,4_86_2,2023-09-13T14:57:06.378Z,,0,,,NaN,,,,,,false,,,,329377,329377,,329377,,329394,8,400,,,
sequence,flow.Sequence,4_86,2023-09-13T14:57:06.378Z,,0,,,2764,completion,,,,,false,,,,329377,329377,326597,326589,326613,329394,8,400,,,
trial,html.Screen,4_87_0,2023-09-13T14:57:09.102Z,,0,2,,2721,response,ISIC_5679004.JPG,13,ISIC_0011349.JPG,ISIC_5679004.JPG,false,1,keypress(m),500,332101,332100,329379,329377,329394,332142,8,400,38,,ISIC_0011349.JPG
break,html.Screen,4_87_1,2023-09-13T14:57:09.102Z,,0,,,NaN,,,,,,false,,,,332101,332101,,332101,,332142,8,400,,,
break_continue,html.Screen,4_87_2,2023-09-13T14:57:09.103Z,,0,,,NaN,,,,,,false,,,,332101,332101,,332101,,332142,8,400,,,
sequence,flow.Sequence,4_87,2023-09-13T14:57:09.103Z,,0,,,2707,completion,,,,,false,,,,332102.00000000006,332101,329379,329377,329394,332142,8,400,,,
trial,html.Screen,4_88_0,2023-09-13T14:57:12.248Z,,0,2,,3120,response,ISIC_0015226.JPG,12,ISIC_1809444.JPG,ISIC_0015226.JPG,false,1,keypress(m),500,335247,335246,332126,332102.00000000006,332142,335289,8,400,39,,ISIC_1809444.JPG
break,html.Screen,4_88_1,2023-09-13T14:57:12.248Z,,0,,,NaN,,,,,,false,,,,335247,335247,,335247,,335289,8,400,,,
break_continue,html.Screen,4_88_2,2023-09-13T14:57:12.249Z,,0,,,NaN,,,,,,false,,,,335247,335247,,335247,,335289,8,400,,,
sequence,flow.Sequence,4_88,2023-09-13T14:57:12.249Z,,0,,,3105,completion,,,,,false,,,,335248,335247,332126,332102.00000000006,332142,335289,8,400,,,
trial,html.Screen,4_89_0,2023-09-13T14:57:15.701Z,,0,2,,3428,response,ISIC_0068000.JPG,11,ISIC_5082596.JPG,ISIC_0068000.JPG,false,1,keypress(m),500,338700,338700,335272,335248,335289,338737,8,400,40,,ISIC_5082596.JPG
break,html.Screen,4_89_1,2023-09-13T14:57:15.702Z,,0,,,NaN,,,,,,false,,,,338701,338701,,338700,,338737,8,400,,,
break_continue,html.Screen,4_89_2,2023-09-13T14:57:15.702Z,,0,,,NaN,,,,,,false,,,,338701,338701,,338701,,338737,8,400,,,
sequence,flow.Sequence,4_89,2023-09-13T14:57:15.702Z,,0,,,3412,completion,,,,,false,,,,338701,338701,335272,335248,335289,338737,8,400,,,
trial,html.Screen,4_90_0,2023-09-13T14:57:18.512Z,,0,2,,2790,response,ISIC_0262770.JPG,10,ISIC_0006517.JPG,ISIC_0006517.JPG,false,0,keypress(z),500,341511,341510,338720,338701,338737,341551,8,400,41,,ISIC_0262770.JPG
break,html.Screen,4_90_1,2023-09-13T14:57:18.512Z,,0,,,NaN,,,,,,false,,,,341511,341511,,341511,,341551,8,400,,,
break_continue,html.Screen,4_90_2,2023-09-13T14:57:18.512Z,,0,,,NaN,,,,,,false,,,,341511,341511,,341511,,341551,8,400,,,
sequence,flow.Sequence,4_90,2023-09-13T14:57:18.513Z,,0,,,2774,completion,,,,,false,,,,341511,341511,338720,338701,338737,341551,8,400,,,
trial,html.Screen,4_91_0,2023-09-13T14:57:21.299Z,,0,2,,2762,response,ISIC_6006795.JPG,8,ISIC_0032861.JPG,ISIC_6006795.JPG,false,1,keypress(m),500,344298,344297,341535,341512,341551,344332,8,400,42,,ISIC_0032861.JPG
break,html.Screen,4_91_1,2023-09-13T14:57:21.299Z,,0,,,NaN,,,,,,false,,,,344298,344298,,344298,,344332,8,400,,,
break_continue,html.Screen,4_91_2,2023-09-13T14:57:21.299Z,,0,,,NaN,,,,,,false,,,,344298,344298,,344298,,344332,8,400,,,
sequence,flow.Sequence,4_91,2023-09-13T14:57:21.299Z,,0,,,2747,completion,,,,,false,,,,344298,344298,341535,341511,341551,344332,8,400,,,
trial,html.Screen,4_92_0,2023-09-13T14:57:24.696Z,,0,2,,3378,response,ISIC_6348638.JPG,8,ISIC_8664315.JPG,ISIC_8664315.JPG,false,0,keypress(z),500,347695,347694,344316,344299.00000000006,344332,347723,8,400,43,,ISIC_6348638.JPG
break,html.Screen,4_92_1,2023-09-13T14:57:24.696Z,,0,,,NaN,,,,,,false,,,,347695,347695,,347695,,347723,8,400,,,
break_continue,html.Screen,4_92_2,2023-09-13T14:57:24.696Z,,0,,,NaN,,,,,,false,,,,347695,347695,,347695,,347723,8,400,,,
sequence,flow.Sequence,4_92,2023-09-13T14:57:24.696Z,,0,,,3363,completion,,,,,false,,,,347695,347695,344316,344298,344332,347723,8,400,,,
trial,html.Screen,4_93_0,2023-09-13T14:57:27.418Z,,0,2,,2712.000000000058,response,ISIC_6052702.JPG,2,ISIC_0000180.JPG,ISIC_6052702.JPG,false,1,keypress(m),500,350417.00000000006,350417.00000000006,347705,347695,347723,350454,8,400,44,,ISIC_0000180.JPG
break,html.Screen,4_93_1,2023-09-13T14:57:27.419Z,,0,,,NaN,,,,,,false,,,,350418,350418,,350418,,350454,8,400,,,
break_continue,html.Screen,4_93_2,2023-09-13T14:57:27.419Z,,0,,,NaN,,,,,,false,,,,350418,350418,,350418,,350454,8,400,,,
sequence,flow.Sequence,4_93,2023-09-13T14:57:27.419Z,,0,,,2695,completion,,,,,false,,,,350418,350418,347705,347695,347723,350454,8,400,,,
trial,html.Screen,4_94_0,2023-09-13T14:57:30.461Z,,0,2,,3023,response,ISIC_0033902.JPG,0,ISIC_0192490.JPG,ISIC_0192490.JPG,false,0,keypress(z),500,353460,353460,350437,350418,350454,353502,8,400,45,,ISIC_0033902.JPG
break,html.Screen,4_94_1,2023-09-13T14:57:30.461Z,,0,,,NaN,,,,,,false,,,,353461,353460,,353460,,353502,8,400,,,
break_continue,html.Screen,4_94_2,2023-09-13T14:57:30.462Z,,0,,,NaN,,,,,,false,,,,353461,353461,,353461,,353502,8,400,,,
sequence,flow.Sequence,4_94,2023-09-13T14:57:30.462Z,,0,,,3007,completion,,,,,false,,,,353461,353461,350437,350418,350454,353502,8,400,,,
trial,html.Screen,4_95_0,2023-09-13T14:57:33.222Z,,0,2,,2736,response,ISIC_8671662.JPG,9,ISIC_6452498.JPG,ISIC_8671662.JPG,false,1,keypress(m),500,356221,356221,353485,353461,353502,356249,8,400,46,,ISIC_6452498.JPG
break,html.Screen,4_95_1,2023-09-13T14:57:33.223Z,,0,,,NaN,,,,,,false,,,,356222,356222,,356222,,356249,8,400,,,
break_continue,html.Screen,4_95_2,2023-09-13T14:57:33.223Z,,0,,,NaN,,,,,,false,,,,356222,356222,,356222,,356249,8,400,,,
sequence,flow.Sequence,4_95,2023-09-13T14:57:33.223Z,,0,,,2720,completion,,,,,false,,,,356222,356222,353485,353461,353502,356249,8,400,,,
trial,html.Screen,4_96_0,2023-09-13T14:57:35.965Z,,0,2,,2731,response,ISIC_0010240.JPG,14,ISIC_0000029.JPG,ISIC_0010240.JPG,false,1,keypress(m),500,358964,358964,356233,356223,356249,358996,8,400,47,,ISIC_0000029.JPG
break,html.Screen,4_96_1,2023-09-13T14:57:35.965Z,,0,,,NaN,,,,,,false,,,,358964,358964,,358964,,358996,8,400,,,
break_continue,html.Screen,4_96_2,2023-09-13T14:57:35.966Z,,0,,,NaN,,,,,,false,,,,358965.00000000006,358965.00000000006,,358965.00000000006,,358996,8,400,,,
sequence,flow.Sequence,4_96,2023-09-13T14:57:35.966Z,,0,,,2716.000000000058,completion,,,,,false,,,,358965.00000000006,358965.00000000006,356233,356222,356249,358996,8,400,,,
trial,html.Screen,4_97_0,2023-09-13T14:57:39.159Z,,0,2,,3178,response,ISIC_7630208.JPG,3,ISIC_2449919.JPG,ISIC_2449919.JPG,false,0,keypress(z),500,362158,362158,358980,358965.00000000006,358996,362193,8,400,48,,ISIC_7630208.JPG
break,html.Screen,4_97_1,2023-09-13T14:57:39.160Z,,0,,,NaN,,,,,,false,,,,362159,362159,,362158,,362193,8,400,,,
break_continue,html.Screen,4_97_2,2023-09-13T14:57:39.160Z,,0,,,NaN,,,,,,false,,,,362159,362159,,362159,,362193,8,400,,,
sequence,flow.Sequence,4_97,2023-09-13T14:57:39.160Z,,0,,,3163,completion,,,,,false,,,,362159,362159,358980,358965.00000000006,358996,362193,8,400,,,
trial,html.Screen,4_98_0,2023-09-13T14:57:43.379Z,,0,2,,4201,response,ISIC_0027641.JPG,5,ISIC_0030769.JPG,ISIC_0030769.JPG,false,0,keypress(z),500,366379,366378,362177,362159,362193,366406,8,400,49,,ISIC_0027641.JPG
break,html.Screen,4_98_1,2023-09-13T14:57:43.380Z,,0,,,NaN,,,,,,false,,,,366379,366379,,366379,,366406,8,400,,,
break_continue,html.Screen,4_98_2,2023-09-13T14:57:43.380Z,,0,,,NaN,,,,,,false,,,,366380,366380,,366379,,366406,8,400,,,
sequence,flow.Sequence,4_98,2023-09-13T14:57:43.380Z,,0,,,4187,completion,,,,,false,,,,366380,366380,362177,362159,362193,366406,8,400,,,
trial,html.Screen,4_99_0,2023-09-13T14:57:46.901Z,,0,2,,3510.000000000058,response,ISIC_0013565.JPG,10,ISIC_0005261.JPG,ISIC_0005261.JPG,false,0,keypress(z),500,369900.00000000006,369900.00000000006,366390,366380,366406,369935,8,400,50,,ISIC_0013565.JPG
break,html.Screen,4_99_1,2023-09-13T14:57:56.925Z,,0,,,10006,timeout,,,,,false,,,,379924.00000000006,379924,369920,369900.00000000006,369935,379941,8,400,,,
break_continue,html.Screen,4_99_2,2023-09-13T15:31:40.154Z,,0,,,412967,response,,,,,false,continue,keypress(Space),,792906.0000000001,792891,379924,379924.00000000006,379941,792940,8,400,,,
sequence,flow.Sequence,4_99,2023-09-13T15:31:40.154Z,,0,,,426485,completion,,,,,false,,,,792906.0000000001,792891,366390,366380,366406,792940,8,400,,,
trial,html.Screen,4_100_0,2023-09-13T15:31:44.336Z,,0,3,,4164,response,ISIC_2395624.JPG,9,ISIC_5910975.JPG,ISIC_2395624.JPG,false,1,keypress(m),500,797088,797088,792924,792906.0000000001,792940,797118,8,400,1,,ISIC_5910975.JPG
break,html.Screen,4_100_1,2023-09-13T15:31:44.337Z,,0,,,NaN,,,,,,false,,,,797089,797089,,797088,,797118,8,400,,,
break_continue,html.Screen,4_100_2,2023-09-13T15:31:44.337Z,,0,,,NaN,,,,,,false,,,,797089,797089,,797089,,797118,8,400,,,
sequence,flow.Sequence,4_100,2023-09-13T15:31:44.337Z,,0,,,4149,completion,,,,,false,,,,797089,797089,792924,792906.0000000001,792940,797118,8,400,,,
trial,html.Screen,4_101_0,2023-09-13T15:31:47.465Z,,0,3,,3116,response,ISIC_2059085.JPG,6,ISIC_7999342.JPG,ISIC_7999342.JPG,false,0,keypress(z),500,800217,800216,797100,797089,797118,800249,8,400,2,,ISIC_2059085.JPG
break,html.Screen,4_101_1,2023-09-13T15:31:47.465Z,,0,,,NaN,,,,,,false,,,,800217,800217,,800217,,800249,8,400,,,
break_continue,html.Screen,4_101_2,2023-09-13T15:31:47.465Z,,0,,,NaN,,,,,,false,,,,800218,800217,,800217,,800249,8,400,,,
sequence,flow.Sequence,4_101,2023-09-13T15:31:47.466Z,,0,,,3099,completion,,,,,false,,,,800218,800217,797100,797089,797118,800249,8,400,,,
trial,html.Screen,4_102_0,2023-09-13T15:31:51.140Z,,0,3,,3660,response,ISIC_0031835.JPG,3,ISIC_5300774.JPG,ISIC_0031835.JPG,false,1,keypress(m),500,803892,803892,800232,800218,800249,803930,8,400,3,,ISIC_5300774.JPG
break,html.Screen,4_102_1,2023-09-13T15:31:51.141Z,,0,,,NaN,,,,,,false,,,,803893,803892,,803892,,803930,8,400,,,
break_continue,html.Screen,4_102_2,2023-09-13T15:31:51.141Z,,0,,,NaN,,,,,,false,,,,803893,803893,,803893,,803930,8,400,,,
sequence,flow.Sequence,4_102,2023-09-13T15:31:51.141Z,,0,,,3644,completion,,,,,false,,,,803893,803893,800232,800218,800249,803930,8,400,,,
trial,html.Screen,4_103_0,2023-09-13T15:31:54.337Z,,0,3,,3175,response,ISIC_2175855.JPG,14,ISIC_8634334.JPG,ISIC_2175855.JPG,false,1,keypress(m),500,807089,807088,803913,803893,803930,807110,8,400,4,,ISIC_8634334.JPG
break,html.Screen,4_103_1,2023-09-13T15:31:54.337Z,,0,,,NaN,,,,,,false,,,,807089,807089,,807089,,807110,8,400,,,
break_continue,html.Screen,4_103_2,2023-09-13T15:31:54.338Z,,0,,,NaN,,,,,,false,,,,807090,807089,,807089,,807110,8,400,,,
sequence,flow.Sequence,4_103,2023-09-13T15:31:54.338Z,,0,,,3159,completion,,,,,false,,,,807090,807089,803913,803893,803930,807110,8,400,,,
trial,html.Screen,4_104_0,2023-09-13T15:31:57.979Z,,0,3,,3637,response,ISIC_0032134.JPG,13,ISIC_0069167.JPG,ISIC_0069167.JPG,false,0,keypress(z),500,810731,810731,807094,807090,807110,810775,8,400,5,,ISIC_0032134.JPG
break,html.Screen,4_104_1,2023-09-13T15:31:57.980Z,,0,,,NaN,,,,,,false,,,,810732,810732,,810731,,810775,8,400,,,
break_continue,html.Screen,4_104_2,2023-09-13T15:31:57.980Z,,0,,,NaN,,,,,,false,,,,810732,810732,,810732,,810775,8,400,,,
sequence,flow.Sequence,4_104,2023-09-13T15:31:57.980Z,,0,,,3622,completion,,,,,false,,,,810732,810732,807094,807090,807110,810775,8,400,,,
trial,html.Screen,4_105_0,2023-09-13T15:32:01.863Z,,0,3,,3856,response,ISIC_8513112.JPG,13,ISIC_4378189.JPG,ISIC_8513112.JPG,false,1,keypress(m),500,814615,814614,810758,810732,810775,814654,8,400,6,,ISIC_4378189.JPG
break,html.Screen,4_105_1,2023-09-13T15:32:01.863Z,,0,,,NaN,,,,,,false,,,,814615,814615,,814615,,814654,8,400,,,
break_continue,html.Screen,4_105_2,2023-09-13T15:32:01.864Z,,0,,,NaN,,,,,,false,,,,814615,814615,,814615,,814654,8,400,,,
sequence,flow.Sequence,4_105,2023-09-13T15:32:01.864Z,,0,,,3840,completion,,,,,false,,,,814616,814615,810758,810732,810775,814654,8,400,,,
trial,html.Screen,4_106_0,2023-09-13T15:32:04.849Z,,0,3,,2964,response,ISIC_0062525.JPG,2,ISIC_0011947.JPG,ISIC_0062525.JPG,false,1,keypress(m),500,817601,817601,814637,814616,814654,817628,8,400,7,,ISIC_0011947.JPG
break,html.Screen,4_106_1,2023-09-13T15:32:04.850Z,,0,,,NaN,,,,,,false,,,,817602,817602,,817601,,817628,8,400,,,
break_continue,html.Screen,4_106_2,2023-09-13T15:32:04.850Z,,0,,,NaN,,,,,,false,,,,817602,817602,,817602,,817628,8,400,,,
sequence,flow.Sequence,4_106,2023-09-13T15:32:04.850Z,,0,,,2948,completion,,,,,false,,,,817602,817602,814637,814616,814654,817628,8,400,,,
trial,html.Screen,4_107_0,2023-09-13T15:32:07.853Z,,0,3,,2993,response,ISIC_0032596.JPG,2,ISIC_0066379.JPG,ISIC_0066379.JPG,false,0,keypress(z),500,820605,820605,817612,817602,817628,820627,8,400,8,,ISIC_0032596.JPG
break,html.Screen,4_107_1,2023-09-13T15:32:07.854Z,,0,,,NaN,,,,,,false,,,,820606,820605,,820605,,820627,8,400,,,
break_continue,html.Screen,4_107_2,2023-09-13T15:32:07.854Z,,0,,,NaN,,,,,,false,,,,820606,820606,,820606,,820627,8,400,,,
sequence,flow.Sequence,4_107,2023-09-13T15:32:07.854Z,,0,,,2978,completion,,,,,false,,,,820606,820606,817612,817602,817628,820627,8,400,,,
trial,html.Screen,4_108_0,2023-09-13T15:32:10.929Z,,0,3,,3072,response,ISIC_2266011.JPG,12,ISIC_0070888.JPG,ISIC_2266011.JPG,false,1,keypress(m),500,823681,823681,820609,820606,820627,823723,8,400,9,,ISIC_0070888.JPG
break,html.Screen,4_108_1,2023-09-13T15:32:10.930Z,,0,,,NaN,,,,,,false,,,,823681,823681,,823681,,823723,8,400,,,
break_continue,html.Screen,4_108_2,2023-09-13T15:32:10.930Z,,0,,,NaN,,,,,,false,,,,823682,823682,,823681,,823723,8,400,,,
sequence,flow.Sequence,4_108,2023-09-13T15:32:10.930Z,,0,,,3055,completion,,,,,false,,,,823682,823682,820609,820606,820627,823723,8,400,,,
trial,html.Screen,4_109_0,2023-09-13T15:32:14.084Z,,0,3,,3127,response,ISIC_8368872.JPG,10,ISIC_0024737.JPG,ISIC_8368872.JPG,false,1,keypress(m),500,826836,826835,823708,823682,823723,826870,8,400,10,,ISIC_0024737.JPG
break,html.Screen,4_109_1,2023-09-13T15:32:14.084Z,,0,,,NaN,,,,,,false,,,,826836,826836,,826836,,826870,8,400,,,
break_continue,html.Screen,4_109_2,2023-09-13T15:32:14.085Z,,0,,,NaN,,,,,,false,,,,826837,826836,,826836,,826870,8,400,,,
sequence,flow.Sequence,4_109,2023-09-13T15:32:14.085Z,,0,,,3113,completion,,,,,false,,,,826837,826836,823708,823682,823723,826870,8,400,,,
trial,html.Screen,4_110_0,2023-09-13T15:32:17.138Z,,0,3,,3035,response,ISIC_3147084.JPG,10,ISIC_0010791.JPG,ISIC_0010791.JPG,false,0,keypress(z),500,829890,829890,826855,826837,826870,829918,8,400,11,,ISIC_3147084.JPG
break,html.Screen,4_110_1,2023-09-13T15:32:17.139Z,,0,,,NaN,,,,,,false,,,,829891,829891,,829890,,829918,8,400,,,
break_continue,html.Screen,4_110_2,2023-09-13T15:32:17.139Z,,0,,,NaN,,,,,,false,,,,829891,829891,,829891,,829918,8,400,,,
sequence,flow.Sequence,4_110,2023-09-13T15:32:17.139Z,,0,,,3021,completion,,,,,false,,,,829891,829891,826855,826837,826870,829918,8,400,,,
trial,html.Screen,4_111_0,2023-09-13T15:32:20.353Z,,0,3,,3203,response,ISIC_0011532.JPG,10,ISIC_3059367.JPG,ISIC_3059367.JPG,false,0,keypress(z),500,833105,833105,829902,829891,829918,833133,8,400,12,,ISIC_0011532.JPG
break,html.Screen,4_111_1,2023-09-13T15:32:20.354Z,,0,,,NaN,,,,,,false,,,,833105,833105,,833105,,833133,8,400,,,
break_continue,html.Screen,4_111_2,2023-09-13T15:32:20.354Z,,0,,,NaN,,,,,,false,,,,833106,833106,,833106,,833133,8,400,,,
sequence,flow.Sequence,4_111,2023-09-13T15:32:20.354Z,,0,,,3188,completion,,,,,false,,,,833106,833106,829902,829891,829918,833133,8,400,,,
trial,html.Screen,4_112_0,2023-09-13T15:32:23.372Z,,0,3,,3007,response,ISIC_0024232.JPG,13,ISIC_0025841.JPG,ISIC_0024232.JPG,false,1,keypress(m),500,836124,836123,833116,833106,833133,836163,8,400,13,,ISIC_0025841.JPG
break,html.Screen,4_112_1,2023-09-13T15:32:23.372Z,,0,,,NaN,,,,,,false,,,,836124,836124,,836124,,836163,8,400,,,
break_continue,html.Screen,4_112_2,2023-09-13T15:32:23.373Z,,0,,,NaN,,,,,,false,,,,836124,836124,,836124,,836163,8,400,,,
sequence,flow.Sequence,4_112,2023-09-13T15:32:23.373Z,,0,,,2991,completion,,,,,false,,,,836125,836124,833116,833106,833133,836163,8,400,,,
trial,html.Screen,4_113_0,2023-09-13T15:32:26.680Z,,0,3,,3285,response,ISIC_0024865.JPG,14,ISIC_8822331.JPG,ISIC_8822331.JPG,false,0,keypress(z),500,839432,839431,836146,836125,836163,839461,8,400,14,,ISIC_0024865.JPG
break,html.Screen,4_113_1,2023-09-13T15:32:26.680Z,,0,,,NaN,,,,,,false,,,,839432,839432,,839432,,839461,8,400,,,
break_continue,html.Screen,4_113_2,2023-09-13T15:32:26.681Z,,0,,,NaN,,,,,,false,,,,839433,839432,,839432,,839461,8,400,,,
sequence,flow.Sequence,4_113,2023-09-13T15:32:26.681Z,,0,,,3269,completion,,,,,false,,,,839433,839432,836146,836125,836163,839461,8,400,,,
trial,html.Screen,4_114_0,2023-09-13T15:32:30.516Z,,0,3,,3823,response,ISIC_0034059.JPG,1,ISIC_4372519.JPG,ISIC_4372519.JPG,false,0,keypress(z),500,843268,843268,839445,839433,839461,843291,8,400,15,,ISIC_0034059.JPG
break,html.Screen,4_114_1,2023-09-13T15:32:30.517Z,,0,,,NaN,,,,,,false,,,,843269,843268,,843268,,843291,8,400,,,
break_continue,html.Screen,4_114_2,2023-09-13T15:32:30.517Z,,0,,,NaN,,,,,,false,,,,843269,843269,,843269,,843291,8,400,,,
sequence,flow.Sequence,4_114,2023-09-13T15:32:30.517Z,,0,,,3808,completion,,,,,false,,,,843269,843269,839445,839433,839461,843291,8,400,,,
trial,html.Screen,4_115_0,2023-09-13T15:32:33.366Z,,0,3,,2843,response,ISIC_1906141.JPG,14,ISIC_0024792.JPG,ISIC_1906141.JPG,false,1,keypress(m),500,846118,846118,843275,843269,843291,846138,8,400,16,,ISIC_0024792.JPG
break,html.Screen,4_115_1,2023-09-13T15:32:33.367Z,,0,,,NaN,,,,,,false,,,,846119,846118,,846118,,846138,8,400,,,
break_continue,html.Screen,4_115_2,2023-09-13T15:32:33.367Z,,0,,,NaN,,,,,,false,,,,846119,846119,,846119,,846138,8,400,,,
sequence,flow.Sequence,4_115,2023-09-13T15:32:33.367Z,,0,,,2828,completion,,,,,false,,,,846119,846119,843275,843269,843291,846138,8,400,,,
trial,html.Screen,4_116_0,2023-09-13T15:32:36.184Z,,0,3,,2813.0000000001164,response,ISIC_0067873.JPG,3,ISIC_0031221.JPG,ISIC_0031221.JPG,false,0,keypress(z),500,848936,848935.0000000001,846122,846119,846138,848970,8,400,17,,ISIC_0067873.JPG
break,html.Screen,4_116_1,2023-09-13T15:32:36.184Z,,0,,,NaN,,,,,,false,,,,848936,848936,,848936,,848970,8,400,,,
break_continue,html.Screen,4_116_2,2023-09-13T15:32:36.185Z,,0,,,NaN,,,,,,false,,,,848937,848936,,848936,,848970,8,400,,,
sequence,flow.Sequence,4_116,2023-09-13T15:32:36.185Z,,0,,,2798,completion,,,,,false,,,,848937,848936,846122,846119,846138,848970,8,400,,,
trial,html.Screen,4_117_0,2023-09-13T15:32:38.942Z,,0,3,,2740.0000000001164,response,ISIC_5404908.JPG,7,ISIC_0028484.JPG,ISIC_0028484.JPG,false,0,keypress(z),500,851694.0000000001,851694.0000000001,848954,848937,848970,851734,8,400,18,,ISIC_5404908.JPG
break,html.Screen,4_117_1,2023-09-13T15:32:38.942Z,,0,,,NaN,,,,,,false,,,,851694.0000000001,851694.0000000001,,851694.0000000001,,851734,8,400,,,
break_continue,html.Screen,4_117_2,2023-09-13T15:32:38.943Z,,0,,,NaN,,,,,,false,,,,851695,851694.0000000001,,851694.0000000001,,851734,8,400,,,
sequence,flow.Sequence,4_117,2023-09-13T15:32:38.943Z,,0,,,2724.0000000001164,completion,,,,,false,,,,851695,851694.0000000001,848954,848937,848970,851734,8,400,,,
trial,html.Screen,4_118_0,2023-09-13T15:32:41.758Z,,0,3,,2793,response,ISIC_4957315.JPG,0,ISIC_0067695.JPG,ISIC_4957315.JPG,false,1,keypress(m),500,854510,854509,851716,851695,851734,854549,8,400,19,,ISIC_0067695.JPG
break,html.Screen,4_118_1,2023-09-13T15:32:41.758Z,,0,,,NaN,,,,,,false,,,,854510,854510,,854510,,854549,8,400,,,
break_continue,html.Screen,4_118_2,2023-09-13T15:32:41.758Z,,0,,,NaN,,,,,,false,,,,854510,854510,,854510,,854549,8,400,,,
sequence,flow.Sequence,4_118,2023-09-13T15:32:41.759Z,,0,,,2776,completion,,,,,false,,,,854511,854510,851716,851695,851734,854549,8,400,,,
trial,html.Screen,4_119_0,2023-09-13T15:32:44.478Z,,0,3,,2697,response,ISIC_0062497.JPG,12,ISIC_9613570.JPG,ISIC_9613570.JPG,false,0,keypress(z),500,857230,857229,854532,854511,854549,857263,8,400,20,,ISIC_0062497.JPG
break,html.Screen,4_119_1,2023-09-13T15:32:44.478Z,,0,,,NaN,,,,,,false,,,,857230,857230,,857230,,857263,8,400,,,
break_continue,html.Screen,4_119_2,2023-09-13T15:32:44.478Z,,0,,,NaN,,,,,,false,,,,857230,857230,,857230,,857263,8,400,,,
sequence,flow.Sequence,4_119,2023-09-13T15:32:44.478Z,,0,,,2681,completion,,,,,false,,,,857231,857230,854532,854511,854549,857263,8,400,,,
trial,html.Screen,4_120_0,2023-09-13T15:32:47.198Z,,0,3,,2703.0000000001164,response,ISIC_3025889.JPG,14,ISIC_0061265.JPG,ISIC_3025889.JPG,false,1,keypress(m),500,859950,859949.0000000001,857246,857231,857263,859992,8,400,21,,ISIC_0061265.JPG
break,html.Screen,4_120_1,2023-09-13T15:32:47.198Z,,0,,,NaN,,,,,,false,,,,859950,859950,,859950,,859992,8,400,,,
break_continue,html.Screen,4_120_2,2023-09-13T15:32:47.198Z,,0,,,NaN,,,,,,false,,,,859950,859950,,859950,,859992,8,400,,,
sequence,flow.Sequence,4_120,2023-09-13T15:32:47.198Z,,0,,,2687,completion,,,,,false,,,,859950,859950,857246,857231,857263,859992,8,400,,,
trial,html.Screen,4_121_0,2023-09-13T15:32:50.344Z,,0,3,,3120,response,ISIC_9743052.JPG,16,ISIC_0305800.JPG,ISIC_0305800.JPG,false,0,keypress(z),500,863096,863096,859976,859950,859992,863123,8,400,22,,ISIC_9743052.JPG
break,html.Screen,4_121_1,2023-09-13T15:32:50.344Z,,0,,,NaN,,,,,,false,,,,863096,863096,,863096,,863123,8,400,,,
break_continue,html.Screen,4_121_2,2023-09-13T15:32:50.345Z,,0,,,NaN,,,,,,false,,,,863097,863097,,863097,,863123,8,400,,,
sequence,flow.Sequence,4_121,2023-09-13T15:32:50.345Z,,0,,,3105,completion,,,,,false,,,,863097,863097,859976,859950,859992,863123,8,400,,,
trial,html.Screen,4_122_0,2023-09-13T15:32:53.008Z,,0,3,,2654,response,ISIC_0348633.JPG,3,ISIC_5974838.JPG,ISIC_0348633.JPG,false,1,keypress(m),500,865760,865760,863106,863097,863123,865787,8,400,23,,ISIC_5974838.JPG
break,html.Screen,4_122_1,2023-09-13T15:32:53.009Z,,0,,,NaN,,,,,,false,,,,865761,865761,,865760,,865787,8,400,,,
break_continue,html.Screen,4_122_2,2023-09-13T15:32:53.009Z,,0,,,NaN,,,,,,false,,,,865761,865761,,865761,,865787,8,400,,,
sequence,flow.Sequence,4_122,2023-09-13T15:32:53.009Z,,0,,,2638,completion,,,,,false,,,,865761,865761,863106,863097,863123,865787,8,400,,,
trial,html.Screen,4_123_0,2023-09-13T15:32:55.773Z,,0,3,,2754,response,ISIC_6507492.JPG,0,ISIC_6761269.JPG,ISIC_6761269.JPG,false,0,keypress(z),500,868525,868525,865771,865761,865787,868568,8,400,24,,ISIC_6507492.JPG
break,html.Screen,4_123_1,2023-09-13T15:32:55.774Z,,0,,,NaN,,,,,,false,,,,868526.0000000001,868526.0000000001,,868526.0000000001,,868568,8,400,,,
break_continue,html.Screen,4_123_2,2023-09-13T15:32:55.774Z,,0,,,NaN,,,,,,false,,,,868526.0000000001,868526.0000000001,,868526.0000000001,,868568,8,400,,,
sequence,flow.Sequence,4_123,2023-09-13T15:32:55.774Z,,0,,,2739.0000000001164,completion,,,,,false,,,,868526.0000000001,868526.0000000001,865771,865761,865787,868568,8,400,,,
trial,html.Screen,4_124_0,2023-09-13T15:32:58.592Z,,0,3,,2792,response,ISIC_6020636.JPG,13,ISIC_0034268.JPG,ISIC_6020636.JPG,false,1,keypress(m),500,871344,871344,868552,868526.0000000001,868568,871383,8,400,25,,ISIC_0034268.JPG
break,html.Screen,4_124_1,2023-09-13T15:32:58.593Z,,0,,,NaN,,,,,,false,,,,871345,871345,,871344,,871383,8,400,,,
break_continue,html.Screen,4_124_2,2023-09-13T15:32:58.595Z,,0,,,NaN,,,,,,false,,,,871347,871347,,871347,,871383,8,400,,,
sequence,flow.Sequence,4_124,2023-09-13T15:32:58.595Z,,0,,,2779,completion,,,,,false,,,,871347,871347,868552,868526.0000000001,868568,871383,8,400,,,
trial,html.Screen,4_125_0,2023-09-13T15:33:01.665Z,,0,3,,3051,response,ISIC_0056655.JPG,11,ISIC_0068015.JPG,ISIC_0068015.JPG,false,0,keypress(z),500,874417,874417,871366,871348.0000000001,871383,874447,8,400,26,,ISIC_0056655.JPG
break,html.Screen,4_125_1,2023-09-13T15:33:01.666Z,,0,,,NaN,,,,,,false,,,,874418,874418,,874417,,874447,8,400,,,
break_continue,html.Screen,4_125_2,2023-09-13T15:33:01.666Z,,0,,,NaN,,,,,,false,,,,874418,874418,,874418,,874447,8,400,,,
sequence,flow.Sequence,4_125,2023-09-13T15:33:01.666Z,,0,,,3035,completion,,,,,false,,,,874418,874418,871366,871348.0000000001,871383,874447,8,400,,,
trial,html.Screen,4_126_0,2023-09-13T15:33:04.700Z,,0,3,,3020,response,ISIC_0026239.JPG,12,ISIC_0069830.JPG,ISIC_0069830.JPG,false,0,keypress(z),500,877452,877450,874430,874418,874447,877495,8,400,27,,ISIC_0026239.JPG
break,html.Screen,4_126_1,2023-09-13T15:33:04.700Z,,0,,,NaN,,,,,,false,,,,877452,877452,,877452,,877495,8,400,,,
break_continue,html.Screen,4_126_2,2023-09-13T15:33:04.700Z,,0,,,NaN,,,,,,false,,,,877452,877452,,877452,,877495,8,400,,,
sequence,flow.Sequence,4_126,2023-09-13T15:33:04.700Z,,0,,,3005,completion,,,,,false,,,,877453,877452,874430,874418,874447,877495,8,400,,,
trial,html.Screen,4_127_0,2023-09-13T15:33:07.842Z,,0,3,,3117,response,ISIC_0060032.JPG,13,ISIC_0014543.JPG,ISIC_0014543.JPG,false,0,keypress(z),500,880595,880594,877477,877453,877495,880626,8,400,28,,ISIC_0060032.JPG
break,html.Screen,4_127_1,2023-09-13T15:33:07.843Z,,0,,,NaN,,,,,,false,,,,880595,880595,,880595,,880626,8,400,,,
break_continue,html.Screen,4_127_2,2023-09-13T15:33:07.843Z,,0,,,NaN,,,,,,false,,,,880595,880595,,880595,,880626,8,400,,,
sequence,flow.Sequence,4_127,2023-09-13T15:33:07.843Z,,0,,,3100,completion,,,,,false,,,,880595,880595,877477,877453,877495,880626,8,400,,,
trial,html.Screen,4_128_0,2023-09-13T15:33:11.096Z,,0,3,,3239.0000000001164,response,ISIC_0069667.JPG,7,ISIC_0009298.JPG,ISIC_0009298.JPG,false,0,keypress(z),500,883848.0000000001,883848.0000000001,880609,880595,880626,883890,8,400,29,,ISIC_0069667.JPG
break,html.Screen,4_128_1,2023-09-13T15:33:11.096Z,,0,,,NaN,,,,,,false,,,,883848.0000000001,883848.0000000001,,883848.0000000001,,883890,8,400,,,
break_continue,html.Screen,4_128_2,2023-09-13T15:33:11.097Z,,0,,,NaN,,,,,,false,,,,883849,883849,,883849,,883890,8,400,,,
sequence,flow.Sequence,4_128,2023-09-13T15:33:11.097Z,,0,,,3223,completion,,,,,false,,,,883849,883849,880609,880595,880626,883890,8,400,,,
trial,html.Screen,4_129_0,2023-09-13T15:33:14.367Z,,0,3,,3246,response,ISIC_1072321.JPG,11,ISIC_2225927.JPG,ISIC_1072321.JPG,false,1,keypress(m),500,887120,887119,883873,883849,883890,887154,8,400,30,,ISIC_2225927.JPG
break,html.Screen,4_129_1,2023-09-13T15:33:14.368Z,,0,,,NaN,,,,,,false,,,,887120,887120,,887120,,887154,8,400,,,
break_continue,html.Screen,4_129_2,2023-09-13T15:33:14.368Z,,0,,,NaN,,,,,,false,,,,887121,887120,,887120,,887154,8,400,,,
sequence,flow.Sequence,4_129,2023-09-13T15:33:14.368Z,,0,,,3230,completion,,,,,false,,,,887121,887120,883873,883849,883890,887154,8,400,,,
trial,html.Screen,4_130_0,2023-09-13T15:33:17.136Z,,0,3,,2749,response,ISIC_0011717.JPG,0,ISIC_9024529.JPG,ISIC_9024529.JPG,false,0,keypress(z),500,889888,889888,887139,887121,887154,889919,8,400,31,,ISIC_0011717.JPG
break,html.Screen,4_130_1,2023-09-13T15:33:17.137Z,,0,,,NaN,,,,,,false,,,,889889,889889,,889888,,889919,8,400,,,
break_continue,html.Screen,4_130_2,2023-09-13T15:33:17.137Z,,0,,,NaN,,,,,,false,,,,889889,889889,,889889,,889919,8,400,,,
sequence,flow.Sequence,4_130,2023-09-13T15:33:17.137Z,,0,,,2735,completion,,,,,false,,,,889889,889889,887139,887121,887154,889919,8,400,,,
trial,html.Screen,4_131_0,2023-09-13T15:33:19.896Z,,0,3,,2746,response,ISIC_9154716.JPG,5,ISIC_0010883.JPG,ISIC_9154716.JPG,false,1,keypress(m),500,892649,892648,889902,889889,889919,892682,8,400,32,,ISIC_0010883.JPG
break,html.Screen,4_131_1,2023-09-13T15:33:19.897Z,,0,,,NaN,,,,,,false,,,,892649,892649,,892649,,892682,8,400,,,
break_continue,html.Screen,4_131_2,2023-09-13T15:33:19.897Z,,0,,,NaN,,,,,,false,,,,892649,892649,,892649,,892682,8,400,,,
sequence,flow.Sequence,4_131,2023-09-13T15:33:19.897Z,,0,,,2730,completion,,,,,false,,,,892649,892649,889902,889889,889919,892682,8,400,,,
trial,html.Screen,4_132_0,2023-09-13T15:33:23.271Z,,0,3,,3356,response,ISIC_2424673.JPG,4,ISIC_7501061.JPG,ISIC_2424673.JPG,false,1,keypress(m),500,896023,896023,892667,892649,892682,896064,8,400,33,,ISIC_7501061.JPG
break,html.Screen,4_132_1,2023-09-13T15:33:23.271Z,,0,,,NaN,,,,,,false,,,,896024,896024,,896023,,896064,8,400,,,
break_continue,html.Screen,4_132_2,2023-09-13T15:33:23.272Z,,0,,,NaN,,,,,,false,,,,896024,896024,,896024,,896064,8,400,,,
sequence,flow.Sequence,4_132,2023-09-13T15:33:23.272Z,,0,,,3342,completion,,,,,false,,,,896024,896024,892667,892649,892682,896064,8,400,,,
trial,html.Screen,4_133_0,2023-09-13T15:33:26.754Z,,0,3,,3460,response,ISIC_0032269.JPG,12,ISIC_0029995.JPG,ISIC_0032269.JPG,false,1,keypress(m),500,899506,899506,896046,896024,896064,899543,8,400,34,,ISIC_0029995.JPG
break,html.Screen,4_133_1,2023-09-13T15:33:26.754Z,,0,,,NaN,,,,,,false,,,,899507.0000000001,899507.0000000001,,899506,,899543,8,400,,,
break_continue,html.Screen,4_133_2,2023-09-13T15:33:26.755Z,,0,,,NaN,,,,,,false,,,,899507.0000000001,899507.0000000001,,899507.0000000001,,899543,8,400,,,
sequence,flow.Sequence,4_133,2023-09-13T15:33:26.755Z,,0,,,3443.0000000001164,completion,,,,,false,,,,899507.0000000001,899507.0000000001,896046,896024,896064,899543,8,400,,,
trial,html.Screen,4_134_0,2023-09-13T15:33:29.428Z,,0,3,,2653.0000000001164,response,ISIC_0059891.JPG,8,ISIC_4393521.JPG,ISIC_4393521.JPG,false,0,keypress(z),500,902180.0000000001,902180.0000000001,899527,899507.0000000001,899543,902209,8,400,35,,ISIC_0059891.JPG
break,html.Screen,4_134_1,2023-09-13T15:33:29.428Z,,0,,,NaN,,,,,,false,,,,902181,902181,,902180.0000000001,,902209,8,400,,,
break_continue,html.Screen,4_134_2,2023-09-13T15:33:29.429Z,,0,,,NaN,,,,,,false,,,,902181,902181,,902181,,902209,8,400,,,
sequence,flow.Sequence,4_134,2023-09-13T15:33:29.429Z,,0,,,2638,completion,,,,,false,,,,902181,902181,899527,899507.0000000001,899543,902209,8,400,,,
trial,html.Screen,4_135_0,2023-09-13T15:33:32.254Z,,0,3,,2815,response,ISIC_5039396.JPG,12,ISIC_6754835.JPG,ISIC_6754835.JPG,false,0,keypress(z),500,905006,905006,902191,902181,902209,905039,8,400,36,,ISIC_5039396.JPG
break,html.Screen,4_135_1,2023-09-13T15:33:32.254Z,,0,,,NaN,,,,,,false,,,,905007.0000000001,905007.0000000001,,905006,,905039,8,400,,,
break_continue,html.Screen,4_135_2,2023-09-13T15:33:32.255Z,,0,,,NaN,,,,,,false,,,,905007.0000000001,905007.0000000001,,905007.0000000001,,905039,8,400,,,
sequence,flow.Sequence,4_135,2023-09-13T15:33:32.255Z,,0,,,2798.0000000001164,completion,,,,,false,,,,905007.0000000001,905007.0000000001,902191,902181,902209,905039,8,400,,,
trial,html.Screen,4_136_0,2023-09-13T15:33:35.191Z,,0,3,,2921,response,ISIC_0254447.JPG,1,ISIC_0027069.JPG,ISIC_0254447.JPG,false,1,keypress(m),500,907944.0000000001,907943,905022,905007.0000000001,905039,907986,8,400,37,,ISIC_0027069.JPG
break,html.Screen,4_136_1,2023-09-13T15:33:35.192Z,,0,,,NaN,,,,,,false,,,,907944.0000000001,907944.0000000001,,907944.0000000001,,907986,8,400,,,
break_continue,html.Screen,4_136_2,2023-09-13T15:33:35.192Z,,0,,,NaN,,,,,,false,,,,907945,907945,,907944.0000000001,,907986,8,400,,,
sequence,flow.Sequence,4_136,2023-09-13T15:33:35.192Z,,0,,,2906,completion,,,,,false,,,,907945,907945,905022,905007.0000000001,905039,907986,8,400,,,
trial,html.Screen,4_137_0,2023-09-13T15:33:37.917Z,,0,3,,2700.0000000001164,response,ISIC_7035368.JPG,12,ISIC_0003910.JPG,ISIC_0003910.JPG,false,0,keypress(z),500,910670.0000000001,910670.0000000001,907970,907945,907986,910701,8,400,38,,ISIC_7035368.JPG
break,html.Screen,4_137_1,2023-09-13T15:33:37.918Z,,0,,,NaN,,,,,,false,,,,910671,910670.0000000001,,910670.0000000001,,910701,8,400,,,
break_continue,html.Screen,4_137_2,2023-09-13T15:33:37.918Z,,0,,,NaN,,,,,,false,,,,910671,910671,,910671,,910701,8,400,,,
sequence,flow.Sequence,4_137,2023-09-13T15:33:37.918Z,,0,,,2685,completion,,,,,false,,,,910671,910671,907970,907945,907986,910701,8,400,,,
trial,html.Screen,4_138_0,2023-09-13T15:33:40.953Z,,0,3,,3020,response,ISIC_0193456.JPG,5,ISIC_7335659.JPG,ISIC_7335659.JPG,false,0,keypress(z),500,913706,913705,910685,910671,910701,913748,8,400,39,,ISIC_0193456.JPG
break,html.Screen,4_138_1,2023-09-13T15:33:40.954Z,,0,,,NaN,,,,,,false,,,,913706,913706,,913706,,913748,8,400,,,
break_continue,html.Screen,4_138_2,2023-09-13T15:33:40.954Z,,0,,,NaN,,,,,,false,,,,913706,913706,,913706,,913748,8,400,,,
sequence,flow.Sequence,4_138,2023-09-13T15:33:40.954Z,,0,,,3005,completion,,,,,false,,,,913707,913706,910685,910671,910701,913748,8,400,,,
trial,html.Screen,4_139_0,2023-09-13T15:33:43.772Z,,0,3,,2792,response,ISIC_0054906.JPG,12,ISIC_0033377.JPG,ISIC_0033377.JPG,false,0,keypress(z),500,916524,916524,913732,913707,913748,916564,8,400,40,,ISIC_0054906.JPG
break,html.Screen,4_139_1,2023-09-13T15:33:43.772Z,,0,,,NaN,,,,,,false,,,,916525,916525,,916524,,916564,8,400,,,
break_continue,html.Screen,4_139_2,2023-09-13T15:33:43.773Z,,0,,,NaN,,,,,,false,,,,916525,916525,,916525,,916564,8,400,,,
sequence,flow.Sequence,4_139,2023-09-13T15:33:43.773Z,,0,,,2777,completion,,,,,false,,,,916525,916525,913732,913707,913748,916564,8,400,,,
trial,html.Screen,4_140_0,2023-09-13T15:33:47.028Z,,0,3,,3233,response,ISIC_1195689.JPG,12,ISIC_0056326.JPG,ISIC_1195689.JPG,false,1,keypress(m),500,919780,919780,916547,916525,916564,919811,8,400,41,,ISIC_0056326.JPG
break,html.Screen,4_140_1,2023-09-13T15:33:47.028Z,,0,,,NaN,,,,,,false,,,,919781.0000000001,919781.0000000001,,919780,,919811,8,400,,,
break_continue,html.Screen,4_140_2,2023-09-13T15:33:47.029Z,,0,,,NaN,,,,,,false,,,,919781.0000000001,919781.0000000001,,919781.0000000001,,919811,8,400,,,
sequence,flow.Sequence,4_140,2023-09-13T15:33:47.029Z,,0,,,3217.0000000001164,completion,,,,,false,,,,919781.0000000001,919781.0000000001,916547,916525,916564,919811,8,400,,,
trial,html.Screen,4_141_0,2023-09-13T15:33:49.976Z,,0,3,,2935,response,ISIC_0066992.JPG,4,ISIC_1522266.JPG,ISIC_1522266.JPG,false,0,keypress(z),500,922729,922729,919794,919781.0000000001,919811,922759,8,400,42,,ISIC_0066992.JPG
break,html.Screen,4_141_1,2023-09-13T15:33:49.977Z,,0,,,NaN,,,,,,false,,,,922730,922729,,922729,,922759,8,400,,,
break_continue,html.Screen,4_141_2,2023-09-13T15:33:49.978Z,,0,,,NaN,,,,,,false,,,,922730,922730,,922730,,922759,8,400,,,
sequence,flow.Sequence,4_141,2023-09-13T15:33:49.978Z,,0,,,2919,completion,,,,,false,,,,922730,922730,919794,919781.0000000001,919811,922759,8,400,,,
trial,html.Screen,4_142_0,2023-09-13T15:33:53.102Z,,0,3,,3112,response,ISIC_0005264.JPG,9,ISIC_2394780.JPG,ISIC_0005264.JPG,false,1,keypress(m),500,925855,925855,922743,922730,922759,925889,8,400,43,,ISIC_2394780.JPG
break,html.Screen,4_142_1,2023-09-13T15:33:53.103Z,,0,,,NaN,,,,,,false,,,,925855,925855,,925855,,925889,8,400,,,
break_continue,html.Screen,4_142_2,2023-09-13T15:33:53.103Z,,0,,,NaN,,,,,,false,,,,925856,925856,,925856,,925889,8,400,,,
sequence,flow.Sequence,4_142,2023-09-13T15:33:53.103Z,,0,,,3097,completion,,,,,false,,,,925856,925856,922743,922730,922759,925889,8,400,,,
trial,html.Screen,4_143_0,2023-09-13T15:33:55.993Z,,0,3,,2871,response,ISIC_0443835.JPG,4,ISIC_2161819.JPG,ISIC_2161819.JPG,false,0,keypress(z),500,928745,928745,925874,925856,925889,928788,8,400,44,,ISIC_0443835.JPG
break,html.Screen,4_143_1,2023-09-13T15:33:55.993Z,,0,,,NaN,,,,,,false,,,,928746,928746,,928745,,928788,8,400,,,
break_continue,html.Screen,4_143_2,2023-09-13T15:33:55.994Z,,0,,,NaN,,,,,,false,,,,928746,928746,,928746,,928788,8,400,,,
sequence,flow.Sequence,4_143,2023-09-13T15:33:55.994Z,,0,,,2857,completion,,,,,false,,,,928746,928746,925874,925856,925889,928788,8,400,,,
trial,html.Screen,4_144_0,2023-09-13T15:33:59.099Z,,0,3,,3080,response,ISIC_2126084.JPG,8,ISIC_0025544.JPG,ISIC_0025544.JPG,false,0,keypress(z),500,931852,931852,928772,928746,928788,931886,8,400,45,,ISIC_2126084.JPG
break,html.Screen,4_144_1,2023-09-13T15:33:59.100Z,,0,,,NaN,,,,,,false,,,,931853.0000000001,931852,,931852,,931886,8,400,,,
break_continue,html.Screen,4_144_2,2023-09-13T15:33:59.100Z,,0,,,NaN,,,,,,false,,,,931853.0000000001,931853.0000000001,,931853.0000000001,,931886,8,400,,,
sequence,flow.Sequence,4_144,2023-09-13T15:33:59.100Z,,0,,,3065.0000000001164,completion,,,,,false,,,,931853.0000000001,931853.0000000001,928772,928746,928788,931886,8,400,,,
trial,html.Screen,4_145_0,2023-09-13T15:34:01.802Z,,0,3,,2684,response,ISIC_0011196.JPG,4,ISIC_3368468.JPG,ISIC_3368468.JPG,false,0,keypress(z),500,934554,934554,931870,931853.0000000001,931886,934584,8,400,46,,ISIC_0011196.JPG
break,html.Screen,4_145_1,2023-09-13T15:34:01.802Z,,0,,,NaN,,,,,,false,,,,934555.0000000001,934555.0000000001,,934554,,934584,8,400,,,
break_continue,html.Screen,4_145_2,2023-09-13T15:34:01.802Z,,0,,,NaN,,,,,,false,,,,934555.0000000001,934555.0000000001,,934555.0000000001,,934584,8,400,,,
sequence,flow.Sequence,4_145,2023-09-13T15:34:01.803Z,,0,,,2669.0000000001164,completion,,,,,false,,,,934555.0000000001,934555.0000000001,931870,931853.0000000001,931886,934584,8,400,,,
trial,html.Screen,4_146_0,2023-09-13T15:34:04.994Z,,0,3,,3179,response,ISIC_0027596.JPG,3,ISIC_1793624.JPG,ISIC_0027596.JPG,false,1,keypress(m),500,937746,937746,934567,934555.0000000001,934584,937782,8,400,47,,ISIC_1793624.JPG
break,html.Screen,4_146_1,2023-09-13T15:34:04.995Z,,0,,,NaN,,,,,,false,,,,937747.0000000001,937747.0000000001,,937747.0000000001,,937782,8,400,,,
break_continue,html.Screen,4_146_2,2023-09-13T15:34:04.995Z,,0,,,NaN,,,,,,false,,,,937747.0000000001,937747.0000000001,,937747.0000000001,,937782,8,400,,,
sequence,flow.Sequence,4_146,2023-09-13T15:34:04.995Z,,0,,,3163.0000000001164,completion,,,,,false,,,,937748,937747.0000000001,934567,934555.0000000001,934584,937782,8,400,,,
trial,html.Screen,4_147_0,2023-09-13T15:34:08.024Z,,0,3,,3011,response,ISIC_0025965.JPG,10,ISIC_9819223.JPG,ISIC_9819223.JPG,false,0,keypress(z),500,940777,940777,937766,937748,937782,940814,8,400,48,,ISIC_0025965.JPG
break,html.Screen,4_147_1,2023-09-13T15:34:08.025Z,,0,,,NaN,,,,,,false,,,,940777,940777,,940777,,940814,8,400,,,
break_continue,html.Screen,4_147_2,2023-09-13T15:34:08.025Z,,0,,,NaN,,,,,,false,,,,940778,940778,,940777,,940814,8,400,,,
sequence,flow.Sequence,4_147,2023-09-13T15:34:08.025Z,,0,,,2996,completion,,,,,false,,,,940778,940778,937766,937748,937782,940814,8,400,,,
trial,html.Screen,4_148_0,2023-09-13T15:34:12.415Z,,0,3,,4371,response,ISIC_5931552.JPG,11,ISIC_0054312.JPG,ISIC_5931552.JPG,false,1,keypress(m),500,945167,945167,940796,940778,940814,945195,8,400,49,,ISIC_0054312.JPG
break,html.Screen,4_148_1,2023-09-13T15:34:12.415Z,,0,,,NaN,,,,,,false,,,,945168,945168,,945168,,945195,8,400,,,
break_continue,html.Screen,4_148_2,2023-09-13T15:34:12.416Z,,0,,,NaN,,,,,,false,,,,945168,945168,,945168,,945195,8,400,,,
sequence,flow.Sequence,4_148,2023-09-13T15:34:12.416Z,,0,,,4354,completion,,,,,false,,,,945168,945168,940796,940778,940814,945195,8,400,,,
trial,html.Screen,4_149_0,2023-09-13T15:34:15.251Z,,0,3,,2825,response,ISIC_0026531.JPG,12,ISIC_8843901.JPG,ISIC_8843901.JPG,false,0,keypress(z),500,948004,948003,945178,945169,945195,948024,8,400,50,,ISIC_0026531.JPG
break,html.Screen,4_149_1,2023-09-13T15:34:25.259Z,,0,,,10005,timeout,,,,,false,,,,958011,958011,948009,948004,948024,958029,8,400,,,
break_continue,html.Screen,4_149_2,2023-09-13T15:34:26.410Z,,0,,,1143,response,,,,,false,continue,keypress(Space),,959163,959154,958011,958012,958029,959195,8,400,,,
sequence,flow.Sequence,4_149,2023-09-13T15:34:26.410Z,,0,,,13959,completion,,,,,false,,,,959163,959154,945178,945169,945195,959195,8,400,,,
trial,html.Screen,4_150_0,2023-09-13T15:34:29.856Z,,0,4,,3429.0000000001164,response,ISIC_0032982.JPG,15,ISIC_0000300.JPG,ISIC_0032982.JPG,false,1,keypress(m),500,962609,962608.0000000001,959179,959163,959195,962638,8,400,1,,ISIC_0000300.JPG
break,html.Screen,4_150_1,2023-09-13T15:34:29.856Z,,0,,,NaN,,,,,,false,,,,962609,962609,,962609,,962638,8,400,,,
break_continue,html.Screen,4_150_2,2023-09-13T15:34:29.857Z,,0,,,NaN,,,,,,false,,,,962609,962609,,962609,,962638,8,400,,,
sequence,flow.Sequence,4_150,2023-09-13T15:34:29.857Z,,0,,,3414,completion,,,,,false,,,,962609,962609,959179,959163,959195,962638,8,400,,,
trial,html.Screen,4_151_0,2023-09-13T15:34:32.554Z,,0,4,,2686,response,ISIC_1899683.JPG,13,ISIC_0033546.JPG,ISIC_1899683.JPG,false,1,keypress(m),500,965306,965306,962620,962610,962638,965334,8,400,2,,ISIC_0033546.JPG
break,html.Screen,4_151_1,2023-09-13T15:34:32.554Z,,0,,,NaN,,,,,,false,,,,965307,965307,,965307,,965334,8,400,,,
break_continue,html.Screen,4_151_2,2023-09-13T15:34:32.555Z,,0,,,NaN,,,,,,false,,,,965307,965307,,965307,,965334,8,400,,,
sequence,flow.Sequence,4_151,2023-09-13T15:34:32.555Z,,0,,,2669,completion,,,,,false,,,,965307,965307,962620,962610,962638,965334,8,400,,,
trial,html.Screen,4_152_0,2023-09-13T15:34:35.283Z,,0,4,,2718,response,ISIC_0000459.JPG,12,ISIC_0026141.JPG,ISIC_0026141.JPG,false,0,keypress(z),500,968036,968036,965318,965308,965334,968064,8,400,3,,ISIC_0000459.JPG
break,html.Screen,4_152_1,2023-09-13T15:34:35.284Z,,0,,,NaN,,,,,,false,,,,968037,968037,,968036,,968064,8,400,,,
break_continue,html.Screen,4_152_2,2023-09-13T15:34:35.284Z,,0,,,NaN,,,,,,false,,,,968037,968037,,968037,,968064,8,400,,,
sequence,flow.Sequence,4_152,2023-09-13T15:34:35.284Z,,0,,,2703,completion,,,,,false,,,,968037,968037,965318,965308,965334,968064,8,400,,,
trial,html.Screen,4_153_0,2023-09-13T15:34:38.844Z,,0,4,,3549,response,ISIC_5239607.JPG,0,ISIC_0026344.JPG,ISIC_0026344.JPG,false,0,keypress(z),500,971597,971597,968048,968037,968064,971629,8,400,4,,ISIC_5239607.JPG
break,html.Screen,4_153_1,2023-09-13T15:34:38.844Z,,0,,,NaN,,,,,,false,,,,971597,971597,,971597,,971629,8,400,,,
break_continue,html.Screen,4_153_2,2023-09-13T15:34:38.845Z,,0,,,NaN,,,,,,false,,,,971598.0000000001,971597,,971597,,971629,8,400,,,
sequence,flow.Sequence,4_153,2023-09-13T15:34:38.845Z,,0,,,3533,completion,,,,,false,,,,971598.0000000001,971597,968048,968037,968064,971629,8,400,,,
trial,html.Screen,4_154_0,2023-09-13T15:34:43.353Z,,0,4,,4495,response,ISIC_1515947.JPG,14,ISIC_9605122.JPG,ISIC_1515947.JPG,false,1,keypress(m),500,976106,976106,971611,971598.0000000001,971629,976142,8,400,5,,ISIC_9605122.JPG
break,html.Screen,4_154_1,2023-09-13T15:34:43.354Z,,0,,,NaN,,,,,,false,,,,976107,976107,,976106,,976142,8,400,,,
break_continue,html.Screen,4_154_2,2023-09-13T15:34:43.354Z,,0,,,NaN,,,,,,false,,,,976107,976107,,976107,,976142,8,400,,,
sequence,flow.Sequence,4_154,2023-09-13T15:34:43.355Z,,0,,,4478,completion,,,,,false,,,,976107,976107,971611,971598.0000000001,971629,976142,8,400,,,
trial,html.Screen,4_155_0,2023-09-13T15:34:46.583Z,,0,4,,3210,response,ISIC_9626241.JPG,1,ISIC_0064563.JPG,ISIC_9626241.JPG,false,1,keypress(m),500,979336,979336,976126,976108.0000000001,976142,979373,8,400,6,,ISIC_0064563.JPG
break,html.Screen,4_155_1,2023-09-13T15:34:46.584Z,,0,,,NaN,,,,,,false,,,,979336,979336,,979336,,979373,8,400,,,
break_continue,html.Screen,4_155_2,2023-09-13T15:34:46.584Z,,0,,,NaN,,,,,,false,,,,979337,979337,,979337,,979373,8,400,,,
sequence,flow.Sequence,4_155,2023-09-13T15:34:46.584Z,,0,,,3195,completion,,,,,false,,,,979337,979337,976126,976107,976142,979373,8,400,,,
trial,html.Screen,4_156_0,2023-09-13T15:34:49.526Z,,0,4,,2924,response,ISIC_5044438.JPG,3,ISIC_0061183.JPG,ISIC_5044438.JPG,false,1,keypress(m),500,982279,982279,979355,979337,979373,982320,8,400,7,,ISIC_0061183.JPG
break,html.Screen,4_156_1,2023-09-13T15:34:49.527Z,,0,,,NaN,,,,,,false,,,,982280,982280,,982279,,982320,8,400,,,
break_continue,html.Screen,4_156_2,2023-09-13T15:34:49.527Z,,0,,,NaN,,,,,,false,,,,982280,982280,,982280,,982320,8,400,,,
sequence,flow.Sequence,4_156,2023-09-13T15:34:49.527Z,,0,,,2907,completion,,,,,false,,,,982280,982280,979355,979337,979373,982320,8,400,,,
trial,html.Screen,4_157_0,2023-09-13T15:34:52.477Z,,0,4,,2925,response,ISIC_0027247.JPG,2,ISIC_0070747.JPG,ISIC_0027247.JPG,false,1,keypress(m),500,985230,985229,982304,982280,982320,985267,8,400,8,,ISIC_0070747.JPG
break,html.Screen,4_157_1,2023-09-13T15:34:52.477Z,,0,,,NaN,,,,,,false,,,,985230,985230,,985230,,985267,8,400,,,
break_continue,html.Screen,4_157_2,2023-09-13T15:34:52.478Z,,0,,,NaN,,,,,,false,,,,985231,985231,,985230,,985267,8,400,,,
sequence,flow.Sequence,4_157,2023-09-13T15:34:52.478Z,,0,,,2911,completion,,,,,false,,,,985231,985231,982304,982280,982320,985267,8,400,,,
