sender,sender_type,sender_id,timestamp,meta,,blockNo,condition,duration,ended_on,img_left,img_reveal,img_right,loser,practice,response,response_action,selection_duration,time_commit,time_end,time_render,time_run,time_show,time_switch,total_blocks,total_trials,trialNo,url,winner
informed_consent,html.Screen,0,2023-11-01T01:32:35.995Z,"{""labjs_version"":""20.2.4"",""labjs_build"":{""flavor"":""production"",""commit"":""f5b4a49f956347addd546a832a3327688c2c0fef""},""location"":""https://run.pavlovia.org/MurrayBennett/melanoma-2afc/?participant=65731&platform=sona"",""userAgent"":""Mozilla/5.0 (Windows NT 10.0; Win64; x64) AppleWebKit/537.36 (KHTML, like Gecko) Chrome/118.0.0.0 Safari/537.36"",""platform"":""Win32"",""language"":""en-US"",""locale"":""en-US"",""timeZone"":""America/Chicago"",""timezoneOffset"":300,""screen_width"":1366,""screen_height"":768,""scroll_width"":1366,""scroll_height"":559,""window_innerWidth"":1366,""window_innerHeight"":607,""devicePixelRatio"":1}",,,,8515.206999964237,response,,,,,,consent,click button,,11100.399999976158,11098.599999964237,1933.452,2569.599999964237,2583.393,11149.672,,,,"{""participant"":""65731"",""platform"":""sona""}",
Welcome,html.Screen,1,2023-11-01T01:33:15.153Z,,,,asymmetry,39107.62800001192,response,,,,,,continue,click button,,50258.30000001192,50257.30000001192,11083.009,11100.699999988079,11149.672,50264.528,,,,,
trial,html.Screen,2_0_0,2023-11-01T01:33:24.035Z,,0,0,,8876.071999964239,response,ISIC_6997061.JPG,,ISIC_0069348.JPG,ISIC_6997061.JPG,true,1,keypress(m),500,59140.89999997616,59140.59999996424,50247.99,50258.69999998808,50264.528,59147.502,1,6,1,,ISIC_0069348.JPG
sequence,flow.Sequence,2_0,2023-11-01T01:33:24.036Z,,0,,,8876.071999964239,completion,,,,,true,,,,59141.09999996424,59140.59999996424,50247.99,50258.59999996424,50264.528,59147.502,1,6,,,
trial,html.Screen,2_1_0,2023-11-01T01:33:28.326Z,,0,0,,4283.998,response,ISIC_0057368.JPG,,ISIC_0009529.JPG,ISIC_0009529.JPG,true,0,keypress(z),500,63431.69999998808,63431.5,59130.797,59141.19999998808,59147.502,63447.314,1,6,2,,ISIC_0057368.JPG
sequence,flow.Sequence,2_1,2023-11-01T01:33:28.326Z,,0,,,4283.998,completion,,,,,true,,,,63431.89999997616,63431.5,59130.797,59141.19999998808,59147.502,63447.314,1,6,,,
trial,html.Screen,2_2_0,2023-11-01T01:33:32.937Z,,0,0,,4595.285999964239,response,ISIC_0064954.JPG,,ISIC_9758671.JPG,ISIC_0064954.JPG,true,1,keypress(m),500,68042.80000001192,68042.59999996424,63430.59,63432,63447.314,68047.084,1,6,3,,ISIC_9758671.JPG
sequence,flow.Sequence,2_2,2023-11-01T01:33:32.937Z,,0,,,4595.285999964239,completion,,,,,true,,,,68043,68042.59999996424,63430.59,63432,63447.314,68047.084,1,6,,,
trial,html.Screen,2_3_0,2023-11-01T01:33:36.764Z,,0,0,,3822.5159999642347,response,ISIC_0000080.JPG,,ISIC_0005785.JPG,ISIC_0000080.JPG,true,1,keypress(m),500,71869.80000001192,71869.59999996424,68030.359,68043,68047.084,71880.246,1,6,4,,ISIC_0005785.JPG
sequence,flow.Sequence,2_3,2023-11-01T01:33:36.765Z,,0,,,3822.5159999642347,completion,,,,,true,,,,71870.19999998808,71869.59999996424,68030.359,68043,68047.084,71880.246,1,6,,,
trial,html.Screen,2_4_0,2023-11-01T01:33:40.079Z,,0,0,,3303.754000000001,response,ISIC_7944028.JPG,,ISIC_5390060.JPG,ISIC_7944028.JPG,true,1,keypress(m),500,75184.30000001192,75184,71863.529,71870.39999997616,71880.246,75196.732,1,6,5,,ISIC_5390060.JPG
sequence,flow.Sequence,2_4,2023-11-01T01:33:40.079Z,,0,,,3303.754000000001,completion,,,,,true,,,,75184.59999996424,75184,71863.529,71870.30000001192,71880.246,75196.732,1,6,,,
trial,html.Screen,2_5_0,2023-11-01T01:33:43.073Z,,0,0,,2981.8679999642336,response,ISIC_0010188.JPG,,ISIC_0794216.JPG,ISIC_0794216.JPG,true,0,keypress(z),500,78178.80000001192,78178.59999996424,75180.033,75184.69999998808,75196.732,78197.557,1,6,6,,ISIC_0010188.JPG
sequence,flow.Sequence,2_5,2023-11-01T01:33:43.073Z,,0,,,2981.8679999642336,completion,,,,,true,,,,78179,78178.59999996424,75180.033,75184.69999998808,75196.732,78197.557,1,6,,,
loop,flow.Loop,2,2023-11-01T01:33:43.074Z,,,,,27914.07199996424,completion,,,,,true,,,,78179.19999998808,78178.59999996424,50247.99,50258.59999996424,50264.528,78197.557,1,6,,,
exp_instructions,html.Screen,3,2023-11-01T01:34:08.591Z,,,,,25497.74300001192,response,,,,,,continue,keypress(Space),,103696.19999998808,103695.30000001192,78163.238,78179.30000001192,78197.557,103712.408,,,,,
trial,html.Screen,4_0_0,2023-11-01T01:34:12.004Z,,0,1,,3396.592000000004,response,ISIC_8036175.JPG,5,ISIC_8338755.JPG,ISIC_8338755.JPG,false,0,keypress(z),500,107109.19999998808,107109,103694.352,103696.39999997616,103712.408,107111.959,8,400,1,,ISIC_8036175.JPG
break,html.Screen,4_0_1,2023-11-01T01:34:12.006Z,,0,,,NaN,,,,,,false,,,,107110.89999997616,107110.39999997616,,107109.59999996424,,107111.959,8,400,,,
break_continue,html.Screen,4_0_2,2023-11-01T01:34:12.006Z,,0,,,NaN,,,,,,false,,,,107111.5,107111.30000001192,,107111.09999996424,,107111.959,8,400,,,
sequence,flow.Sequence,4_0,2023-11-01T01:34:12.007Z,,0,,,3398.892000011925,completion,,,,,false,,,,107111.80000001192,107111.30000001192,103694.352,103696.39999997616,103712.408,107111.959,8,400,,,
trial,html.Screen,4_1_0,2023-11-01T01:34:15.466Z,,0,1,,3459.1409999642347,response,ISIC_9194220.JPG,6,ISIC_0058376.JPG,ISIC_0058376.JPG,false,0,keypress(z),500,110571.30000001192,110571.09999996424,107095.329,107111.89999997616,107111.959,110578.429,8,400,2,,ISIC_9194220.JPG
break,html.Screen,4_1_1,2023-11-01T01:34:15.467Z,,0,,,NaN,,,,,,false,,,,110572,110571.69999998808,,110571.39999997616,,110578.429,8,400,,,
break_continue,html.Screen,4_1_2,2023-11-01T01:34:15.467Z,,0,,,NaN,,,,,,false,,,,110572.09999996424,110572.09999996424,,110572.09999996424,,110578.429,8,400,,,
sequence,flow.Sequence,4_1,2023-11-01T01:34:15.467Z,,0,,,3460.1409999642347,completion,,,,,false,,,,110572.30000001192,110572.09999996424,107095.329,107111.89999997616,107111.959,110578.429,8,400,,,
trial,html.Screen,4_2_0,2023-11-01T01:34:18.349Z,,0,1,,2875.7709999880753,response,ISIC_2286175.JPG,5,ISIC_2050638.JPG,ISIC_2286175.JPG,false,1,keypress(m),500,113454.5,113454.19999998808,110561.791,110572.30000001192,110578.429,113461.619,8,400,3,,ISIC_2050638.JPG
break,html.Screen,4_2_1,2023-11-01T01:34:18.351Z,,0,,,NaN,,,,,,false,,,,113455.69999998808,113455.19999998808,,113454.69999998808,,113461.619,8,400,,,
break_continue,html.Screen,4_2_2,2023-11-01T01:34:18.351Z,,0,,,NaN,,,,,,false,,,,113456.19999998808,113456,,113455.89999997616,,113461.619,8,400,,,
sequence,flow.Sequence,4_2,2023-11-01T01:34:18.351Z,,0,,,2877.5709999999963,completion,,,,,false,,,,113456.5,113456,110561.791,110572.30000001192,110578.429,113461.619,8,400,,,
trial,html.Screen,4_3_0,2023-11-01T01:34:21.634Z,,0,1,,3277.580999988073,response,ISIC_8733345.JPG,5,ISIC_0683389.JPG,ISIC_0683389.JPG,false,0,keypress(z),500,116739.39999997616,116739.19999998808,113445.462,113456.59999996424,113461.619,116744.871,8,400,4,,ISIC_8733345.JPG
break,html.Screen,4_3_1,2023-11-01T01:34:21.635Z,,0,,,NaN,,,,,,false,,,,116740.5,116740.09999996424,,116739.59999996424,,116744.871,8,400,,,
break_continue,html.Screen,4_3_2,2023-11-01T01:34:21.636Z,,0,,,NaN,,,,,,false,,,,116741.30000001192,116741,,116740.80000001192,,116744.871,8,400,,,
sequence,flow.Sequence,4_3,2023-11-01T01:34:21.636Z,,0,,,3279.380999999994,completion,,,,,false,,,,116741.59999996424,116741,113445.462,113456.5,113461.619,116744.871,8,400,,,
trial,html.Screen,4_4_0,2023-11-01T01:34:24.488Z,,0,1,,2847.9290000119217,response,ISIC_3289651.JPG,5,ISIC_0031386.JPG,ISIC_3289651.JPG,false,1,keypress(m),500,119593,119592.80000001192,116728.662,116741.80000001192,116744.871,119611.88,8,400,5,,ISIC_0031386.JPG
break,html.Screen,4_4_1,2023-11-01T01:34:24.489Z,,0,,,NaN,,,,,,false,,,,119594.19999998808,119593.80000001192,,119593.39999997616,,119611.88,8,400,,,
break_continue,html.Screen,4_4_2,2023-11-01T01:34:24.490Z,,0,,,NaN,,,,,,false,,,,119594.80000001192,119594.59999996424,,119594.39999997616,,119611.88,8,400,,,
sequence,flow.Sequence,4_4,2023-11-01T01:34:24.490Z,,0,,,2849.728999964238,completion,,,,,false,,,,119594.89999997616,119594.59999996424,116728.662,116741.80000001192,116744.871,119611.88,8,400,,,
trial,html.Screen,4_5_0,2023-11-01T01:34:29.052Z,,0,1,,4545.219999964233,response,ISIC_0027101.JPG,5,ISIC_0046416.JPG,ISIC_0046416.JPG,false,0,keypress(z),500,124157.39999997616,124157.09999996424,119578.543,119595.19999998808,119611.88,124161.186,8,400,6,,ISIC_0027101.JPG
break,html.Screen,4_5_1,2023-11-01T01:34:29.053Z,,0,,,NaN,,,,,,false,,,,124158.59999996424,124158.09999996424,,124157.59999996424,,124161.186,8,400,,,
break_continue,html.Screen,4_5_2,2023-11-01T01:34:29.054Z,,0,,,NaN,,,,,,false,,,,124159,124158.89999997616,,124158.80000001192,,124161.186,8,400,,,
sequence,flow.Sequence,4_5,2023-11-01T01:34:29.054Z,,0,,,4547.0199999761535,completion,,,,,false,,,,124159.30000001192,124158.89999997616,119578.543,119595,119611.88,124161.186,8,400,,,
trial,html.Screen,4_6_0,2023-11-01T01:34:32.273Z,,0,1,,3216.2139999761566,response,ISIC_2954564.JPG,6,ISIC_9521776.JPG,ISIC_9521776.JPG,false,0,keypress(z),500,127377.69999998808,127377.39999997616,124144.884,124159.5,124161.186,127394.687,8,400,7,,ISIC_2954564.JPG
break,html.Screen,4_6_1,2023-11-01T01:34:32.274Z,,0,,,NaN,,,,,,false,,,,127378.80000001192,127378.30000001192,,127377.89999997616,,127394.687,8,400,,,
break_continue,html.Screen,4_6_2,2023-11-01T01:34:32.274Z,,0,,,NaN,,,,,,false,,,,127379.30000001192,127379.19999998808,,127378.89999997616,,127394.687,8,400,,,
sequence,flow.Sequence,4_6,2023-11-01T01:34:32.274Z,,0,,,3218.0139999880776,completion,,,,,false,,,,127379.5,127379.19999998808,124144.884,124159.39999997616,124161.186,127394.687,8,400,,,
trial,html.Screen,4_7_0,2023-11-01T01:34:36.694Z,,0,1,,4403.812999999995,response,ISIC_1944650.JPG,6,ISIC_0031293.JPG,ISIC_0031293.JPG,false,0,keypress(z),500,131798.80000001192,131798.5,127378.159,127379.69999998808,127394.687,131810.784,8,400,8,,ISIC_1944650.JPG
break,html.Screen,4_7_1,2023-11-01T01:34:36.694Z,,0,,,NaN,,,,,,false,,,,131799.5,131799.30000001192,,131799,,131810.784,8,400,,,
break_continue,html.Screen,4_7_2,2023-11-01T01:34:36.695Z,,0,,,NaN,,,,,,false,,,,131799.89999997616,131799.80000001192,,131799.69999998808,,131810.784,8,400,,,
sequence,flow.Sequence,4_7,2023-11-01T01:34:36.695Z,,0,,,4405.113000011916,completion,,,,,false,,,,131800,131799.80000001192,127378.159,127379.59999996424,127394.687,131810.784,8,400,,,
trial,html.Screen,4_8_0,2023-11-01T01:34:39.849Z,,0,1,,3143.315999964223,response,ISIC_4589609.JPG,5,ISIC_0028086.JPG,ISIC_4589609.JPG,false,1,keypress(m),500,134954.30000001192,134954.09999996424,131794.104,131800.30000001192,131810.784,134960.796,8,400,9,,ISIC_0028086.JPG
break,html.Screen,4_8_1,2023-11-01T01:34:39.850Z,,0,,,NaN,,,,,,false,,,,134954.89999997616,134954.69999998808,,134954.39999997616,,134960.796,8,400,,,
break_continue,html.Screen,4_8_2,2023-11-01T01:34:39.850Z,,0,,,NaN,,,,,,false,,,,134955.19999998808,134955.09999996424,,134955.09999996424,,134960.796,8,400,,,
sequence,flow.Sequence,4_8,2023-11-01T01:34:39.850Z,,0,,,3144.315999964223,completion,,,,,false,,,,134955.30000001192,134955.09999996424,131794.104,131800.19999998808,131810.784,134960.796,8,400,,,
trial,html.Screen,4_9_0,2023-11-01T01:34:43.405Z,,0,1,,3548.203999999998,response,ISIC_9418196.JPG,5,ISIC_2384274.JPG,ISIC_2384274.JPG,false,0,keypress(z),500,138509.89999997616,138509,134943.962,134955.39999997616,134960.796,138527.207,8,400,10,,ISIC_9418196.JPG
break,html.Screen,4_9_1,2023-11-01T01:34:43.407Z,,0,,,NaN,,,,,,false,,,,138512.19999998808,138511.59999996424,,138510.5,,138527.207,8,400,,,
break_continue,html.Screen,4_9_2,2023-11-01T01:34:43.408Z,,0,,,NaN,,,,,,false,,,,138513.39999997616,138513.09999996424,,138512.59999996424,,138527.207,8,400,,,
sequence,flow.Sequence,4_9,2023-11-01T01:34:43.409Z,,0,,,3552.303999964235,completion,,,,,false,,,,138514,138513.09999996424,134943.962,134955.30000001192,134960.796,138527.207,8,400,,,
trial,html.Screen,4_10_0,2023-11-01T01:34:48.790Z,,0,1,,5367.293000000005,response,ISIC_9694867.JPG,6,ISIC_0068576.JPG,ISIC_0068576.JPG,false,0,keypress(z),500,143894.69999998808,143894.5,138510.464,138514.39999997616,138527.207,143910.226,8,400,11,,ISIC_9694867.JPG
break,html.Screen,4_10_1,2023-11-01T01:34:48.790Z,,0,,,NaN,,,,,,false,,,,143895.39999997616,143895.19999998808,,143894.89999997616,,143910.226,8,400,,,
break_continue,html.Screen,4_10_2,2023-11-01T01:34:48.791Z,,0,,,NaN,,,,,,false,,,,143895.69999998808,143895.59999996424,,143895.5,,143910.226,8,400,,,
sequence,flow.Sequence,4_10,2023-11-01T01:34:48.791Z,,0,,,5368.392999964242,completion,,,,,false,,,,143895.89999997616,143895.59999996424,138510.464,138514.30000001192,138527.207,143910.226,8,400,,,
trial,html.Screen,4_11_0,2023-11-01T01:34:52.090Z,,0,1,,3284.274000000005,response,ISIC_0063151.JPG,6,ISIC_0011086.JPG,ISIC_0063151.JPG,false,1,keypress(m),500,147194.69999998808,147194.5,143893.531,143896,143910.226,147210.075,8,400,12,,ISIC_0011086.JPG
break,html.Screen,4_11_1,2023-11-01T01:34:52.090Z,,0,,,NaN,,,,,,false,,,,147195.5,147195.19999998808,,147194.89999997616,,147210.075,8,400,,,
break_continue,html.Screen,4_11_2,2023-11-01T01:34:52.091Z,,0,,,NaN,,,,,,false,,,,147195.80000001192,147195.69999998808,,147195.5,,147210.075,8,400,,,
sequence,flow.Sequence,4_11,2023-11-01T01:34:52.091Z,,0,,,3285.473999988084,completion,,,,,false,,,,147196,147195.69999998808,143893.531,143896,143910.226,147210.075,8,400,,,
trial,html.Screen,4_12_0,2023-11-01T01:34:56.206Z,,0,1,,4100.624999988067,response,ISIC_8006094.JPG,5,ISIC_1152559.JPG,ISIC_8006094.JPG,false,1,keypress(m),500,151310.80000001192,151310.69999998808,147193.382,147196.09999996424,147210.075,151326.558,8,400,13,,ISIC_1152559.JPG
break,html.Screen,4_12_1,2023-11-01T01:34:56.207Z,,0,,,NaN,,,,,,false,,,,151311.59999996424,151311.30000001192,,151311.09999996424,,151326.558,8,400,,,
break_continue,html.Screen,4_12_2,2023-11-01T01:34:56.207Z,,0,,,NaN,,,,,,false,,,,151312,151311.89999997616,,151311.69999998808,,151326.558,8,400,,,
sequence,flow.Sequence,4_12,2023-11-01T01:34:56.207Z,,0,,,4101.8249999761465,completion,,,,,false,,,,151312.19999998808,151311.89999997616,147193.382,147196.09999996424,147210.075,151326.558,8,400,,,
trial,html.Screen,4_13_0,2023-11-01T01:35:01.617Z,,0,1,,5395.641999988089,response,ISIC_0011810.JPG,6,ISIC_0054748.JPG,ISIC_0011810.JPG,false,1,keypress(m),500,156722.30000001192,156722.19999998808,151309.877,151312.30000001192,151326.558,156726.299,8,400,14,,ISIC_0054748.JPG
break,html.Screen,4_13_1,2023-11-01T01:35:01.618Z,,0,,,NaN,,,,,,false,,,,156723,156722.69999998808,,156722.39999997616,,156726.299,8,400,,,
break_continue,html.Screen,4_13_2,2023-11-01T01:35:01.618Z,,0,,,NaN,,,,,,false,,,,156723.39999997616,156723.30000001192,,156723.09999996424,,156726.299,8,400,,,
sequence,flow.Sequence,4_13,2023-11-01T01:35:01.618Z,,0,,,5396.742000011931,completion,,,,,false,,,,156723.59999996424,156723.30000001192,151309.877,151312.30000001192,151326.558,156726.299,8,400,,,
trial,html.Screen,4_14_0,2023-11-01T01:35:04.901Z,,0,1,,3279.600999976159,response,ISIC_4323070.JPG,5,ISIC_0060660.JPG,ISIC_4323070.JPG,false,1,keypress(m),500,160006,160005.89999997616,156709.642,156723.69999998808,156726.299,160009.49,8,400,15,,ISIC_0060660.JPG
break,html.Screen,4_14_1,2023-11-01T01:35:04.901Z,,0,,,NaN,,,,,,false,,,,160006.59999996424,160006.39999997616,,160006.19999998808,,160009.49,8,400,,,
break_continue,html.Screen,4_14_2,2023-11-01T01:35:04.902Z,,0,,,NaN,,,,,,false,,,,160006.89999997616,160006.80000001192,,160006.69999998808,,160009.49,8,400,,,
sequence,flow.Sequence,4_14,2023-11-01T01:35:04.902Z,,0,,,3280.501000011922,completion,,,,,false,,,,160007.09999996424,160006.80000001192,156709.642,156723.69999998808,156726.299,160009.49,8,400,,,
trial,html.Screen,4_15_0,2023-11-01T01:35:09.351Z,,0,1,,4446.4099999761675,response,ISIC_0014288.JPG,6,ISIC_0000151.JPG,ISIC_0014288.JPG,false,1,keypress(m),500,164456.09999996424,164455.89999997616,159992.942,160007.09999996424,160009.49,164459.27,8,400,16,,ISIC_0000151.JPG
break,html.Screen,4_15_1,2023-11-01T01:35:09.352Z,,0,,,NaN,,,,,,false,,,,164456.80000001192,164456.5,,164456.30000001192,,164459.27,8,400,,,
break_continue,html.Screen,4_15_2,2023-11-01T01:35:09.352Z,,0,,,NaN,,,,,,false,,,,164457.09999996424,164457,,164456.80000001192,,164459.27,8,400,,,
sequence,flow.Sequence,4_15,2023-11-01T01:35:09.352Z,,0,,,4447.510000000009,completion,,,,,false,,,,164457.30000001192,164457,159992.942,160007.09999996424,160009.49,164459.27,8,400,,,
trial,html.Screen,4_16_0,2023-11-01T01:35:13.018Z,,0,1,,3663.7300000000105,response,ISIC_0015443.JPG,5,ISIC_2252958.JPG,ISIC_0015443.JPG,false,1,keypress(m),500,168123.39999997616,168123,164443.001,164457.39999997616,164459.27,168125.9,8,400,17,,ISIC_2252958.JPG
break,html.Screen,4_16_1,2023-11-01T01:35:13.020Z,,0,,,NaN,,,,,,false,,,,168125.19999998808,168124.39999997616,,168123.69999998808,,168125.9,8,400,,,
break_continue,html.Screen,4_16_2,2023-11-01T01:35:13.021Z,,0,,,NaN,,,,,,false,,,,168126.59999996424,168126.09999996424,,168125.59999996424,,168125.9,8,400,,,
sequence,flow.Sequence,4_16,2023-11-01T01:35:13.022Z,,0,,,3666.8299999642477,completion,,,,,false,,,,168127.19999998808,168126.09999996424,164443.001,164457.30000001192,164459.27,168125.9,8,400,,,
trial,html.Screen,4_17_0,2023-11-01T01:35:17.697Z,,0,1,,4675.999999976164,response,ISIC_0003539.JPG,6,ISIC_1860707.JPG,ISIC_0003539.JPG,false,1,keypress(m),500,172802.30000001192,172801.89999997616,168109.197,168127.80000001192,168125.9,172809.008,8,400,18,,ISIC_1860707.JPG
break,html.Screen,4_17_1,2023-11-01T01:35:17.699Z,,0,,,NaN,,,,,,false,,,,172804,172803.30000001192,,172802.69999998808,,172809.008,8,400,,,
break_continue,html.Screen,4_17_2,2023-11-01T01:35:17.700Z,,0,,,NaN,,,,,,false,,,,172804.80000001192,172804.59999996424,,172804.30000001192,,172809.008,8,400,,,
sequence,flow.Sequence,4_17,2023-11-01T01:35:17.700Z,,0,,,4678.699999964243,completion,,,,,false,,,,172805.09999996424,172804.59999996424,168109.197,168127.5,168125.9,172809.008,8,400,,,
trial,html.Screen,4_18_0,2023-11-01T01:35:20.775Z,,0,1,,3071.0919999642356,response,ISIC_0033068.JPG,6,ISIC_0011448.JPG,ISIC_0011448.JPG,false,0,keypress(z),500,175880.59999996424,175880.09999996424,172792.345,172805.5,172809.008,175892.148,8,400,19,,ISIC_0033068.JPG
break,html.Screen,4_18_1,2023-11-01T01:35:20.777Z,,0,,,NaN,,,,,,false,,,,175882.19999998808,175881.59999996424,,175881,,175892.148,8,400,,,
break_continue,html.Screen,4_18_2,2023-11-01T01:35:20.778Z,,0,,,NaN,,,,,,false,,,,175883.09999996424,175882.80000001192,,175882.5,,175892.148,8,400,,,
sequence,flow.Sequence,4_18,2023-11-01T01:35:20.778Z,,0,,,3073.7920000119193,completion,,,,,false,,,,175883.39999997616,175882.80000001192,172792.345,172805.39999997616,172809.008,175892.148,8,400,,,
trial,html.Screen,4_19_0,2023-11-01T01:35:25.039Z,,0,1,,4251.251999976172,response,ISIC_2642742.JPG,4,ISIC_6268546.JPG,ISIC_6268546.JPG,false,0,keypress(z),500,180143.80000001192,180143.39999997616,175876.004,175883.69999998808,175892.148,180159.02,8,400,20,,ISIC_2642742.JPG
break,html.Screen,4_19_1,2023-11-01T01:35:25.040Z,,0,,,NaN,,,,,,false,,,,180145.39999997616,180144.69999998808,,180144.09999996424,,180159.02,8,400,,,
break_continue,html.Screen,4_19_2,2023-11-01T01:35:25.041Z,,0,,,NaN,,,,,,false,,,,180146.39999997616,180146,,180145.69999998808,,180159.02,8,400,,,
sequence,flow.Sequence,4_19,2023-11-01T01:35:25.042Z,,0,,,4253.8520000000135,completion,,,,,false,,,,180146.89999997616,180146,175876.004,175883.59999996424,175892.148,180159.02,8,400,,,
trial,html.Screen,4_20_0,2023-11-01T01:35:28.949Z,,0,1,,3894.4800000000105,response,ISIC_9741917.JPG,5,ISIC_9096302.JPG,ISIC_9741917.JPG,false,1,keypress(m),500,184053.59999996424,184053.5,180142.047,180147.5,180159.02,184058.37,8,400,21,,ISIC_9096302.JPG
break,html.Screen,4_20_1,2023-11-01T01:35:28.949Z,,0,,,NaN,,,,,,false,,,,184054.5,184054.09999996424,,184053.80000001192,,184058.37,8,400,,,
break_continue,html.Screen,4_20_2,2023-11-01T01:35:28.950Z,,0,,,NaN,,,,,,false,,,,184054.80000001192,184054.69999998808,,184054.59999996424,,184058.37,8,400,,,
sequence,flow.Sequence,4_20,2023-11-01T01:35:28.950Z,,0,,,3895.6799999880895,completion,,,,,false,,,,184055,184054.69999998808,180142.047,180147.30000001192,180159.02,184058.37,8,400,,,
trial,html.Screen,4_21_0,2023-11-01T01:35:32.184Z,,0,1,,3230.4300000119256,response,ISIC_0053540.JPG,5,ISIC_6414435.JPG,ISIC_6414435.JPG,false,0,keypress(z),500,187288.89999997616,187288.80000001192,184041.893,184055.09999996424,184058.37,187291.554,8,400,22,,ISIC_0053540.JPG
break,html.Screen,4_21_1,2023-11-01T01:35:32.184Z,,0,,,NaN,,,,,,false,,,,187289.39999997616,187289.19999998808,,187289,,187291.554,8,400,,,
break_continue,html.Screen,4_21_2,2023-11-01T01:35:32.185Z,,0,,,NaN,,,,,,false,,,,187289.89999997616,187289.69999998808,,187289.59999996424,,187291.554,8,400,,,
sequence,flow.Sequence,4_21,2023-11-01T01:35:32.185Z,,0,,,3231.3299999880837,completion,,,,,false,,,,187290.09999996424,187289.69999998808,184041.893,184055,184058.37,187291.554,8,400,,,
trial,html.Screen,4_22_0,2023-11-01T01:35:36.539Z,,0,1,,4352.246000011917,response,ISIC_2844539.JPG,4,ISIC_8035608.JPG,ISIC_2844539.JPG,false,1,keypress(m),500,191644,191643.80000001192,187274.935,187290.19999998808,187291.554,191658.214,8,400,23,,ISIC_8035608.JPG
break,html.Screen,4_22_1,2023-11-01T01:35:36.540Z,,0,,,NaN,,,,,,false,,,,191645.09999996424,191644.80000001192,,191644.30000001192,,191658.214,8,400,,,
break_continue,html.Screen,4_22_2,2023-11-01T01:35:36.540Z,,0,,,NaN,,,,,,false,,,,191645.5,191645.30000001192,,191645.30000001192,,191658.214,8,400,,,
sequence,flow.Sequence,4_22,2023-11-01T01:35:36.541Z,,0,,,4353.746000011917,completion,,,,,false,,,,191645.69999998808,191645.30000001192,187274.935,187290.19999998808,187291.554,191658.214,8,400,,,
trial,html.Screen,4_23_0,2023-11-01T01:35:39.905Z,,0,1,,3351.0860000119137,response,ISIC_0027935.JPG,5,ISIC_0064279.JPG,ISIC_0027935.JPG,false,1,keypress(m),500,195009.69999998808,195009.30000001192,191641.334,191645.89999997616,191658.214,195024.783,8,400,24,,ISIC_0064279.JPG
break,html.Screen,4_23_1,2023-11-01T01:35:39.906Z,,0,,,NaN,,,,,,false,,,,195011.59999996424,195010.89999997616,,195010.30000001192,,195024.783,8,400,,,
break_continue,html.Screen,4_23_2,2023-11-01T01:35:39.907Z,,0,,,NaN,,,,,,false,,,,195012.5,195012.19999998808,,195011.89999997616,,195024.783,8,400,,,
sequence,flow.Sequence,4_23,2023-11-01T01:35:39.908Z,,0,,,3353.985999988072,completion,,,,,false,,,,195012.89999997616,195012.19999998808,191641.334,191645.89999997616,191658.214,195024.783,8,400,,,
trial,html.Screen,4_24_0,2023-11-01T01:35:43.464Z,,0,1,,3543.717000000004,response,ISIC_3869533.JPG,6,ISIC_0033063.JPG,ISIC_3869533.JPG,false,1,keypress(m),500,198568.89999997616,198568.5,195008.011,195013.30000001192,195024.783,198574.471,8,400,25,,ISIC_0033063.JPG
break,html.Screen,4_24_1,2023-11-01T01:35:43.465Z,,0,,,NaN,,,,,,false,,,,198570.59999996424,198569.89999997616,,198569.30000001192,,198574.471,8,400,,,
break_continue,html.Screen,4_24_2,2023-11-01T01:35:43.466Z,,0,,,NaN,,,,,,false,,,,198571.30000001192,198571.09999996424,,198570.80000001192,,198574.471,8,400,,,
sequence,flow.Sequence,4_24,2023-11-01T01:35:43.467Z,,0,,,3546.3169999642414,completion,,,,,false,,,,198571.59999996424,198571.09999996424,195008.011,195013.30000001192,195024.783,198574.471,8,400,,,
trial,html.Screen,4_25_0,2023-11-01T01:35:47.198Z,,0,1,,3728.7289999880886,response,ISIC_6529073.JPG,4,ISIC_0072828.JPG,ISIC_6529073.JPG,false,1,keypress(m),500,202303.5,202303.19999998808,198558.27,198571.89999997616,198574.471,202307.543,8,400,26,,ISIC_0072828.JPG
break,html.Screen,4_25_1,2023-11-01T01:35:47.199Z,,0,,,NaN,,,,,,false,,,,202304.39999997616,202304,,202303.69999998808,,202307.543,8,400,,,
break_continue,html.Screen,4_25_2,2023-11-01T01:35:47.200Z,,0,,,NaN,,,,,,false,,,,202304.80000001192,202304.69999998808,,202304.59999996424,,202307.543,8,400,,,
sequence,flow.Sequence,4_25,2023-11-01T01:35:47.200Z,,0,,,3730.2289999880886,completion,,,,,false,,,,202304.89999997616,202304.69999998808,198558.27,198571.80000001192,198574.471,202307.543,8,400,,,
trial,html.Screen,4_26_0,2023-11-01T01:35:50.146Z,,0,1,,2943.056999964232,response,ISIC_7295035.JPG,6,ISIC_3716504.JPG,ISIC_7295035.JPG,false,1,keypress(m),500,205250.80000001192,205250.59999996424,202290.918,202305,202307.543,205257.408,8,400,27,,ISIC_3716504.JPG
break,html.Screen,4_26_1,2023-11-01T01:35:50.146Z,,0,,,NaN,,,,,,false,,,,205251.30000001192,205251.09999996424,,205250.89999997616,,205257.408,8,400,,,
break_continue,html.Screen,4_26_2,2023-11-01T01:35:50.147Z,,0,,,NaN,,,,,,false,,,,205251.69999998808,205251.59999996424,,205251.5,,205257.408,8,400,,,
sequence,flow.Sequence,4_26,2023-11-01T01:35:50.147Z,,0,,,2944.056999964232,completion,,,,,false,,,,205251.89999997616,205251.59999996424,202290.918,202305,202307.543,205257.408,8,400,,,
trial,html.Screen,4_27_0,2023-11-01T01:35:53.829Z,,0,1,,3676.6919999642414,response,ISIC_5204408.JPG,6,ISIC_0029170.JPG,ISIC_5204408.JPG,false,1,keypress(m),500,208934.30000001192,208934.09999996424,205240.924,205252.09999996424,205257.408,208940.582,8,400,28,,ISIC_0029170.JPG
break,html.Screen,4_27_1,2023-11-01T01:35:53.830Z,,0,,,NaN,,,,,,false,,,,208935.19999998808,208934.89999997616,,208934.5,,208940.582,8,400,,,
break_continue,html.Screen,4_27_2,2023-11-01T01:35:53.831Z,,0,,,NaN,,,,,,false,,,,208935.59999996424,208935.59999996424,,208935.39999997616,,208940.582,8,400,,,
sequence,flow.Sequence,4_27,2023-11-01T01:35:53.831Z,,0,,,3678.1919999642414,completion,,,,,false,,,,208935.80000001192,208935.59999996424,205240.924,205252,205257.408,208940.582,8,400,,,
trial,html.Screen,4_28_0,2023-11-01T01:35:56.777Z,,0,1,,2941.3179999761633,response,ISIC_0065421.JPG,5,ISIC_0060978.JPG,ISIC_0060978.JPG,false,0,keypress(z),500,211882.19999998808,211881.89999997616,208923.907,208936.80000001192,208940.582,211890.588,8,400,29,,ISIC_0065421.JPG
break,html.Screen,4_28_1,2023-11-01T01:35:56.778Z,,0,,,NaN,,,,,,false,,,,211883.30000001192,211882.80000001192,,211882.5,,211890.588,8,400,,,
break_continue,html.Screen,4_28_2,2023-11-01T01:35:56.779Z,,0,,,NaN,,,,,,false,,,,211883.80000001192,211883.59999996424,,211883.5,,211890.588,8,400,,,
sequence,flow.Sequence,4_28,2023-11-01T01:35:56.779Z,,0,,,2943.0179999642423,completion,,,,,false,,,,211884,211883.59999996424,208923.907,208936.80000001192,208940.582,211890.588,8,400,,,
trial,html.Screen,4_29_0,2023-11-01T01:36:00.286Z,,0,1,,3499.712000011932,response,ISIC_9406275.JPG,5,ISIC_0006331.JPG,ISIC_9406275.JPG,false,1,keypress(m),500,215390.69999998808,215390.30000001192,211873.918,211884.19999998808,211890.588,215406.934,8,400,30,,ISIC_0006331.JPG
break,html.Screen,4_29_1,2023-11-01T01:36:00.287Z,,0,,,NaN,,,,,,false,,,,215392.59999996424,215391.89999997616,,215391.19999998808,,215406.934,8,400,,,
break_continue,html.Screen,4_29_2,2023-11-01T01:36:00.288Z,,0,,,NaN,,,,,,false,,,,215393.59999996424,215393.30000001192,,215393,,215406.934,8,400,,,
sequence,flow.Sequence,4_29,2023-11-01T01:36:00.289Z,,0,,,3502.712000011932,completion,,,,,false,,,,215393.89999997616,215393.30000001192,211873.918,211884.09999996424,211890.588,215406.934,8,400,,,
trial,html.Screen,4_30_0,2023-11-01T01:36:04.900Z,,0,1,,4597.665999964229,response,ISIC_9126992.JPG,5,ISIC_2916677.JPG,ISIC_2916677.JPG,false,0,keypress(z),500,220005,220004.59999996424,215390.352,215394.39999997616,215406.934,220024.851,8,400,31,,ISIC_9126992.JPG
break,html.Screen,4_30_1,2023-11-01T01:36:04.902Z,,0,,,NaN,,,,,,false,,,,220006.59999996424,220005.89999997616,,220005.39999997616,,220024.851,8,400,,,
break_continue,html.Screen,4_30_2,2023-11-01T01:36:04.902Z,,0,,,NaN,,,,,,false,,,,220007.39999997616,220007.19999998808,,220007,,220024.851,8,400,,,
sequence,flow.Sequence,4_30,2023-11-01T01:36:04.903Z,,0,,,4600.265999988071,completion,,,,,false,,,,220007.89999997616,220007.19999998808,215390.352,215394.30000001192,215406.934,220024.851,8,400,,,
trial,html.Screen,4_31_0,2023-11-01T01:36:09.754Z,,0,1,,4833.848999988084,response,ISIC_4189981.JPG,6,ISIC_1774797.JPG,ISIC_4189981.JPG,false,1,keypress(m),500,224858.89999997616,224858.69999998808,219990.233,220008.19999998808,220024.851,224873.135,8,400,32,,ISIC_1774797.JPG
break,html.Screen,4_31_1,2023-11-01T01:36:09.754Z,,0,,,NaN,,,,,,false,,,,224859.39999997616,224859.30000001192,,224859,,224873.135,8,400,,,
break_continue,html.Screen,4_31_2,2023-11-01T01:36:09.755Z,,0,,,NaN,,,,,,false,,,,224859.80000001192,224859.80000001192,,224859.59999996424,,224873.135,8,400,,,
sequence,flow.Sequence,4_31,2023-11-01T01:36:09.755Z,,0,,,4834.949000011926,completion,,,,,false,,,,224859.89999997616,224859.80000001192,219990.233,220008.09999996424,220024.851,224873.135,8,400,,,
trial,html.Screen,4_32_0,2023-11-01T01:36:13.405Z,,0,1,,3636.264999976149,response,ISIC_1334438.JPG,5,ISIC_4529092.JPG,ISIC_4529092.JPG,false,0,keypress(z),500,228509.80000001192,228509.39999997616,224856.553,224860,224873.135,228523.058,8,400,33,,ISIC_1334438.JPG
break,html.Screen,4_32_1,2023-11-01T01:36:13.408Z,,0,,,NaN,,,,,,false,,,,228512.80000001192,228510.5,,228510,,228523.058,8,400,,,
break_continue,html.Screen,4_32_2,2023-11-01T01:36:13.409Z,,0,,,NaN,,,,,,false,,,,228513.69999998808,228513.5,,228513.19999998808,,228523.058,8,400,,,
sequence,flow.Sequence,4_32,2023-11-01T01:36:13.409Z,,0,,,3640.3649999999907,completion,,,,,false,,,,228514,228513.5,224856.553,224859.89999997616,224873.135,228523.058,8,400,,,
trial,html.Screen,4_33_0,2023-11-01T01:36:16.804Z,,0,1,,3385.742000011931,response,ISIC_0033332.JPG,6,ISIC_0064761.JPG,ISIC_0033332.JPG,false,1,keypress(m),500,231909,231908.80000001192,228506.322,228514.30000001192,228523.058,231922.888,8,400,34,,ISIC_0064761.JPG
break,html.Screen,4_33_1,2023-11-01T01:36:16.804Z,,0,,,NaN,,,,,,false,,,,231909.69999998808,231909.30000001192,,231909.09999996424,,231922.888,8,400,,,
break_continue,html.Screen,4_33_2,2023-11-01T01:36:16.805Z,,0,,,NaN,,,,,,false,,,,231909.89999997616,231909.89999997616,,231909.80000001192,,231922.888,8,400,,,
sequence,flow.Sequence,4_33,2023-11-01T01:36:16.805Z,,0,,,3386.841999976168,completion,,,,,false,,,,231910.09999996424,231909.89999997616,228506.322,228514.19999998808,228523.058,231922.888,8,400,,,
trial,html.Screen,4_34_0,2023-11-01T01:36:21.495Z,,0,1,,4677.211999964231,response,ISIC_0029881.JPG,5,ISIC_0030610.JPG,ISIC_0030610.JPG,false,0,keypress(z),500,236600.30000001192,236600.09999996424,231906.677,231910.30000001192,231922.888,236606.001,8,400,35,,ISIC_0029881.JPG
break,html.Screen,4_34_1,2023-11-01T01:36:21.496Z,,0,,,NaN,,,,,,false,,,,236600.89999997616,236600.59999996424,,236600.39999997616,,236606.001,8,400,,,
break_continue,html.Screen,4_34_2,2023-11-01T01:36:21.496Z,,0,,,NaN,,,,,,false,,,,236601.19999998808,236601.09999996424,,236601,,236606.001,8,400,,,
sequence,flow.Sequence,4_34,2023-11-01T01:36:21.496Z,,0,,,4678.211999964231,completion,,,,,false,,,,236601.39999997616,236601.09999996424,231906.677,231910.19999998808,231922.888,236606.001,8,400,,,
trial,html.Screen,4_35_0,2023-11-01T01:36:26.394Z,,0,1,,4893.19899998809,response,ISIC_0055404.JPG,6,ISIC_1793624.JPG,ISIC_1793624.JPG,false,0,keypress(z),500,241499.39999997616,241499.19999998808,236589.507,236601.39999997616,236606.001,241505.755,8,400,36,,ISIC_0055404.JPG
break,html.Screen,4_35_1,2023-11-01T01:36:26.395Z,,0,,,NaN,,,,,,false,,,,241500.09999996424,241499.80000001192,,241499.5,,241505.755,8,400,,,
break_continue,html.Screen,4_35_2,2023-11-01T01:36:26.395Z,,0,,,NaN,,,,,,false,,,,241500.5,241500.39999997616,,241500.19999998808,,241505.755,8,400,,,
sequence,flow.Sequence,4_35,2023-11-01T01:36:26.395Z,,0,,,4894.398999976169,completion,,,,,false,,,,241500.5,241500.39999997616,236589.507,236601.39999997616,236606.001,241505.755,8,400,,,
trial,html.Screen,4_36_0,2023-11-01T01:36:30.510Z,,0,1,,4109.045000011916,response,ISIC_0647224.JPG,5,ISIC_0029815.JPG,ISIC_0647224.JPG,false,1,keypress(m),500,245615.09999996424,245614.80000001192,241489.091,241500.59999996424,241505.755,245622.243,8,400,37,,ISIC_0029815.JPG
break,html.Screen,4_36_1,2023-11-01T01:36:30.511Z,,0,,,NaN,,,,,,false,,,,245616.30000001192,245615.80000001192,,245615.39999997616,,245622.243,8,400,,,
break_continue,html.Screen,4_36_2,2023-11-01T01:36:30.512Z,,0,,,NaN,,,,,,false,,,,245616.80000001192,245616.69999998808,,245616.5,,245622.243,8,400,,,
sequence,flow.Sequence,4_36,2023-11-01T01:36:30.512Z,,0,,,4110.944999988074,completion,,,,,false,,,,245617,245616.69999998808,241489.091,241500.59999996424,241505.755,245622.243,8,400,,,
trial,html.Screen,4_37_0,2023-11-01T01:36:34.130Z,,0,1,,3612.9569999880914,response,ISIC_0031926.JPG,4,ISIC_9163466.JPG,ISIC_0031926.JPG,false,1,keypress(m),500,249235.5,249235.19999998808,245605.544,245617.19999998808,245622.243,249238.707,8,400,38,,ISIC_9163466.JPG
break,html.Screen,4_37_1,2023-11-01T01:36:34.131Z,,0,,,NaN,,,,,,false,,,,249236.09999996424,249235.89999997616,,249235.59999996424,,249238.707,8,400,,,
break_continue,html.Screen,4_37_2,2023-11-01T01:36:34.131Z,,0,,,NaN,,,,,,false,,,,249236.59999996424,249236.39999997616,,249236.30000001192,,249238.707,8,400,,,
sequence,flow.Sequence,4_37,2023-11-01T01:36:34.132Z,,0,,,3614.1569999761705,completion,,,,,false,,,,249236.80000001192,249236.39999997616,245605.544,245617.09999996424,245622.243,249238.707,8,400,,,
trial,html.Screen,4_38_0,2023-11-01T01:36:37.814Z,,0,1,,3679.593000011926,response,ISIC_4646815.JPG,6,ISIC_6463417.JPG,ISIC_4646815.JPG,false,1,keypress(m),500,252918.69999998808,252918.30000001192,249222.089,249236.89999997616,249238.707,252921.981,8,400,39,,ISIC_6463417.JPG
break,html.Screen,4_38_1,2023-11-01T01:36:37.815Z,,0,,,NaN,,,,,,false,,,,252920.30000001192,252919.69999998808,,252919.09999996424,,252921.981,8,400,,,
break_continue,html.Screen,4_38_2,2023-11-01T01:36:37.816Z,,0,,,NaN,,,,,,false,,,,252921.09999996424,252920.80000001192,,252920.59999996424,,252921.981,8,400,,,
sequence,flow.Sequence,4_38,2023-11-01T01:36:37.816Z,,0,,,3682.093000011926,completion,,,,,false,,,,252921.59999996424,252920.80000001192,249222.089,249236.80000001192,249238.707,252921.981,8,400,,,
trial,html.Screen,4_39_0,2023-11-01T01:36:41.515Z,,0,1,,3698.4189999761584,response,ISIC_0070679.JPG,5,ISIC_4884803.JPG,ISIC_0070679.JPG,false,1,keypress(m),500,256620.5,256620.39999997616,252905.292,252921.89999997616,252921.981,256639.169,8,400,40,,ISIC_4884803.JPG
break,html.Screen,4_39_1,2023-11-01T01:36:41.516Z,,0,,,NaN,,,,,,false,,,,256621,256620.89999997616,,256620.59999996424,,256639.169,8,400,,,
break_continue,html.Screen,4_39_2,2023-11-01T01:36:41.516Z,,0,,,NaN,,,,,,false,,,,256621.30000001192,256621.19999998808,,256621.09999996424,,256639.169,8,400,,,
sequence,flow.Sequence,4_39,2023-11-01T01:36:41.516Z,,0,,,3699.2189999880793,completion,,,,,false,,,,256621.39999997616,256621.19999998808,252905.292,252921.89999997616,252921.981,256639.169,8,400,,,
trial,html.Screen,4_40_0,2023-11-01T01:36:45.487Z,,0,1,,3952.3310000000056,response,ISIC_4533833.JPG,4,ISIC_1831600.JPG,ISIC_1831600.JPG,false,0,keypress(z),500,260592,260591.5,256605.605,256621.5,256639.169,260604.889,8,400,41,,ISIC_4533833.JPG
break,html.Screen,4_40_1,2023-11-01T01:36:45.489Z,,0,,,NaN,,,,,,false,,,,260593.69999998808,260593.09999996424,,260592.39999997616,,260604.889,8,400,,,
break_continue,html.Screen,4_40_2,2023-11-01T01:36:45.490Z,,0,,,NaN,,,,,,false,,,,260594.80000001192,260594.5,,260594.19999998808,,260604.889,8,400,,,
sequence,flow.Sequence,4_40,2023-11-01T01:36:45.490Z,,0,,,3955.3310000000056,completion,,,,,false,,,,260595.09999996424,260594.5,256605.605,256621.5,256639.169,260604.889,8,400,,,
trial,html.Screen,4_41_0,2023-11-01T01:36:49.013Z,,0,1,,3512.9110000119254,response,ISIC_9152603.JPG,6,ISIC_7844825.JPG,ISIC_7844825.JPG,false,0,keypress(z),500,264117.89999997616,264117.8000000119,260588.189,260595.30000001192,260604.889,264121.353,8,400,42,,ISIC_9152603.JPG
break,html.Screen,4_41_1,2023-11-01T01:36:49.013Z,,0,,,NaN,,,,,,false,,,,264118.59999996424,264118.39999997616,,264118.09999996424,,264121.353,8,400,,,
break_continue,html.Screen,4_41_2,2023-11-01T01:36:49.014Z,,0,,,NaN,,,,,,false,,,,264118.89999997616,264118.8000000119,,264118.6999999881,,264121.353,8,400,,,
sequence,flow.Sequence,4_41,2023-11-01T01:36:49.014Z,,0,,,3513.9110000119254,completion,,,,,false,,,,264119.09999996424,264118.8000000119,260588.189,260595.19999998808,260604.889,264121.353,8,400,,,
trial,html.Screen,4_42_0,2023-11-01T01:36:53.273Z,,0,1,,4256.447000011918,response,ISIC_0651353.JPG,5,ISIC_0033344.JPG,ISIC_0651353.JPG,false,1,keypress(m),500,268378,268377.8000000119,264104.829,264119.3000000119,264121.353,268387.876,8,400,43,,ISIC_0033344.JPG
break,html.Screen,4_42_1,2023-11-01T01:36:53.274Z,,0,,,NaN,,,,,,false,,,,268378.6999999881,268378.3000000119,,268378.1999999881,,268387.876,8,400,,,
break_continue,html.Screen,4_42_2,2023-11-01T01:36:53.274Z,,0,,,NaN,,,,,,false,,,,268379.09999996424,268378.89999997616,,268378.89999997616,,268387.876,8,400,,,
sequence,flow.Sequence,4_42,2023-11-01T01:36:53.274Z,,0,,,4257.546999976155,completion,,,,,false,,,,268379.1999999881,268378.89999997616,264104.829,264119.3000000119,264121.353,268387.876,8,400,,,
trial,html.Screen,4_43_0,2023-11-01T01:36:58.780Z,,0,1,,5496.82399998809,response,ISIC_0029874.JPG,5,ISIC_0026309.JPG,ISIC_0029874.JPG,false,1,keypress(m),500,273884.89999997616,273884.6999999881,268371.233,268379.3000000119,268387.876,273887.578,8,400,44,,ISIC_0026309.JPG
break,html.Screen,4_43_1,2023-11-01T01:36:58.780Z,,0,,,NaN,,,,,,false,,,,273885.5,273885.3000000119,,273885.09999996424,,273887.578,8,400,,,
break_continue,html.Screen,4_43_2,2023-11-01T01:36:58.781Z,,0,,,NaN,,,,,,false,,,,273885.89999997616,273885.8000000119,,273885.6999999881,,273887.578,8,400,,,
sequence,flow.Sequence,4_43,2023-11-01T01:36:58.781Z,,0,,,5497.924000011932,completion,,,,,false,,,,273886.1999999881,273885.8000000119,268371.233,268379.3000000119,268387.876,273887.578,8,400,,,
trial,html.Screen,4_44_0,2023-11-01T01:37:02.960Z,,0,1,,4177.222000011941,response,ISIC_0214186.JPG,4,ISIC_7533983.JPG,ISIC_0214186.JPG,false,1,keypress(m),500,278065.09999996424,278064.8000000119,273870.922,273886.3000000119,273887.578,278070.724,8,400,45,,ISIC_7533983.JPG
break,html.Screen,4_44_1,2023-11-01T01:37:02.961Z,,0,,,NaN,,,,,,false,,,,278066,278065.8000000119,,278065.3000000119,,278070.724,8,400,,,
break_continue,html.Screen,4_44_2,2023-11-01T01:37:02.961Z,,0,,,NaN,,,,,,false,,,,278066.39999997616,278066.1999999881,,278066,,278070.724,8,400,,,
sequence,flow.Sequence,4_44,2023-11-01T01:37:02.961Z,,0,,,4178.6219999881,completion,,,,,false,,,,278066.5,278066.1999999881,273870.922,273886.3000000119,273887.578,278070.724,8,400,,,
trial,html.Screen,4_45_0,2023-11-01T01:37:08.996Z,,0,1,,6029.87599996425,response,ISIC_0976232.JPG,6,ISIC_0024840.JPG,ISIC_0976232.JPG,false,1,keypress(m),500,284100.89999997616,284100.59999996424,278054.592,278066.59999996424,278070.724,284103.822,8,400,46,,ISIC_0024840.JPG
break,html.Screen,4_45_1,2023-11-01T01:37:08.997Z,,0,,,NaN,,,,,,false,,,,284102.5,284101.89999997616,,284101.39999997616,,284103.822,8,400,,,
break_continue,html.Screen,4_45_2,2023-11-01T01:37:08.998Z,,0,,,NaN,,,,,,false,,,,284103.09999996424,284102.8000000119,,284102.6999999881,,284103.822,8,400,,,
sequence,flow.Sequence,4_45,2023-11-01T01:37:08.998Z,,0,,,6032.0760000119335,completion,,,,,false,,,,284103.3000000119,284102.8000000119,278054.592,278066.5,278070.724,284103.822,8,400,,,
trial,html.Screen,4_46_0,2023-11-01T01:37:12.538Z,,0,1,,3538.9780000119354,response,ISIC_4332885.JPG,5,ISIC_4814912.JPG,ISIC_4814912.JPG,false,0,keypress(z),500,287643.09999996424,287642.8000000119,284087.32,284103.5,284103.822,287653.653,8,400,47,,ISIC_4332885.JPG
break,html.Screen,4_46_1,2023-11-01T01:37:12.539Z,,0,,,NaN,,,,,,false,,,,287644.5,287644,,287643.5,,287653.653,8,400,,,
break_continue,html.Screen,4_46_2,2023-11-01T01:37:12.540Z,,0,,,NaN,,,,,,false,,,,287645.09999996424,287644.89999997616,,287644.6999999881,,287653.653,8,400,,,
sequence,flow.Sequence,4_46,2023-11-01T01:37:12.540Z,,0,,,3541.0779999761726,completion,,,,,false,,,,287645.3000000119,287644.89999997616,284087.32,284103.5,284103.822,287653.653,8,400,,,
trial,html.Screen,4_47_0,2023-11-01T01:37:17.231Z,,0,1,,4681.746999976167,response,ISIC_8140072.JPG,6,ISIC_0010527.JPG,ISIC_8140072.JPG,false,1,keypress(m),500,292335.89999997616,292335.39999997616,287637.281,287645.5,287653.653,292370.627,8,400,48,,ISIC_0010527.JPG
break,html.Screen,4_47_1,2023-11-01T01:37:17.233Z,,0,,,NaN,,,,,,false,,,,292337.8000000119,292337.1999999881,,292336.5,,292370.627,8,400,,,
break_continue,html.Screen,4_47_2,2023-11-01T01:37:17.233Z,,0,,,NaN,,,,,,false,,,,292338.39999997616,292338.1999999881,,292337.89999997616,,292370.627,8,400,,,
sequence,flow.Sequence,4_47,2023-11-01T01:37:17.234Z,,0,,,4684.546999988088,completion,,,,,false,,,,292338.8000000119,292338.1999999881,287637.281,287645.39999997616,287653.653,292370.627,8,400,,,
trial,html.Screen,4_48_0,2023-11-01T01:37:22.565Z,,0,1,,5299.173000011942,response,ISIC_6668197.JPG,5,ISIC_0062367.JPG,ISIC_0062367.JPG,false,0,keypress(z),500,297670.39999997616,297669.8000000119,292353.97,292338.89999997616,292370.627,297703.308,8,400,49,,ISIC_6668197.JPG
break,html.Screen,4_48_1,2023-11-01T01:37:22.566Z,,0,,,NaN,,,,,,false,,,,297671.59999996424,297671.3000000119,,297670.6999999881,,297703.308,8,400,,,
break_continue,html.Screen,4_48_2,2023-11-01T01:37:22.567Z,,0,,,NaN,,,,,,false,,,,297672.3000000119,297672,,297671.8000000119,,297703.308,8,400,,,
sequence,flow.Sequence,4_48,2023-11-01T01:37:22.567Z,,0,,,5301.373000000021,completion,,,,,false,,,,297672.5,297672,292353.97,292338.8000000119,292370.627,297703.308,8,400,,,
trial,html.Screen,4_49_0,2023-11-01T01:37:27.019Z,,0,1,,4420.89199998806,response,ISIC_8041078.JPG,5,ISIC_0013499.JPG,ISIC_8041078.JPG,false,1,keypress(m),500,302124.5,302124.1999999881,297687.007,297672.8000000119,297703.308,302136.674,8,400,50,,ISIC_0013499.JPG
break,html.Screen,4_49_1,2023-11-01T01:37:37.015Z,,0,,,9999.262999999977,timeout,,,,,false,,,,312119.89999997616,312119.288,302120.096,302124.8000000119,302136.674,312135.937,8,400,,,
break_continue,html.Screen,4_49_2,2023-11-01T01:37:41.469Z,,0,,,4417.462999976182,response,,,,,false,continue,keypress(Space),,316574.5,316553.39999997616,312119.288,312120.09999996424,312135.937,316585.623,8,400,,,
sequence,flow.Sequence,4_49,2023-11-01T01:37:41.470Z,,0,,,18850.09199997614,completion,,,,,false,,,,316575,316553.39999997616,297687.007,297672.6999999881,297703.308,316585.623,8,400,,,
trial,html.Screen,4_50_0,2023-11-01T01:37:45.857Z,,0,2,,4376.6770000118995,response,ISIC_0057531.JPG,6,ISIC_7070020.JPG,ISIC_7070020.JPG,false,0,keypress(z),500,320962.5,320962.3000000119,316568.715,316575.1999999881,316585.623,320968.789,8,400,1,,ISIC_0057531.JPG
break,html.Screen,4_50_1,2023-11-01T01:37:45.858Z,,0,,,NaN,,,,,,false,,,,320963.59999996424,320963.1999999881,,320962.8000000119,,320968.789,8,400,,,
break_continue,html.Screen,4_50_2,2023-11-01T01:37:45.859Z,,0,,,NaN,,,,,,false,,,,320964.09999996424,320964,,320963.8000000119,,320968.789,8,400,,,
sequence,flow.Sequence,4_50,2023-11-01T01:37:45.859Z,,0,,,4378.376999999979,completion,,,,,false,,,,320964.39999997616,320964,316568.715,316575.09999996424,316585.623,320968.789,8,400,,,
trial,html.Screen,4_51_0,2023-11-01T01:37:49.061Z,,0,2,,3197.6109999761684,response,ISIC_0072576.JPG,6,ISIC_0027263.JPG,ISIC_0072576.JPG,false,1,keypress(m),500,324166.59999996424,324166.39999997616,320952.449,320964.59999996424,320968.789,324168.639,8,400,2,,ISIC_0027263.JPG
break,html.Screen,4_51_1,2023-11-01T01:37:49.063Z,,0,,,NaN,,,,,,false,,,,324167.6999999881,324167.3000000119,,324166.89999997616,,324168.639,8,400,,,
break_continue,html.Screen,4_51_2,2023-11-01T01:37:49.063Z,,0,,,NaN,,,,,,false,,,,324168.1999999881,324168,,324167.89999997616,,324168.639,8,400,,,
sequence,flow.Sequence,4_51,2023-11-01T01:37:49.063Z,,0,,,3199.2110000000102,completion,,,,,false,,,,324168.5,324168,320952.449,320964.5,320968.789,324168.639,8,400,,,
trial,html.Screen,4_52_0,2023-11-01T01:37:52.554Z,,0,2,,3490.0609999880544,response,ISIC_0016080.JPG,6,ISIC_2852805.JPG,ISIC_0016080.JPG,false,1,keypress(m),500,327659,327658.6999999881,324152.164,324168.5,324168.639,327668.605,8,400,3,,ISIC_2852805.JPG
break,html.Screen,4_52_1,2023-11-01T01:37:52.555Z,,0,,,NaN,,,,,,false,,,,327660.09999996424,327659.8000000119,,327659.3000000119,,327668.605,8,400,,,
break_continue,html.Screen,4_52_2,2023-11-01T01:37:52.555Z,,0,,,NaN,,,,,,false,,,,327660.6999999881,327660.5,,327660.3000000119,,327668.605,8,400,,,
sequence,flow.Sequence,4_52,2023-11-01T01:37:52.556Z,,0,,,3491.8609999999753,completion,,,,,false,,,,327660.89999997616,327660.5,324152.164,324168.5,324168.639,327668.605,8,400,,,
trial,html.Screen,4_53_0,2023-11-01T01:37:56.846Z,,0,2,,4282.19500001194,response,ISIC_0013652.JPG,4,ISIC_0066001.JPG,ISIC_0066001.JPG,false,0,keypress(z),500,331951.1999999881,331950.8000000119,327652.068,327661.09999996424,327668.605,331968.668,8,400,4,,ISIC_0013652.JPG
break,html.Screen,4_53_1,2023-11-01T01:37:56.847Z,,0,,,NaN,,,,,,false,,,,331952.5,331951.89999997616,,331951.59999996424,,331968.668,8,400,,,
break_continue,html.Screen,4_53_2,2023-11-01T01:37:56.848Z,,0,,,NaN,,,,,,false,,,,331953,331952.8000000119,,331952.6999999881,,331968.668,8,400,,,
sequence,flow.Sequence,4_53,2023-11-01T01:37:56.848Z,,0,,,4284.19500001194,completion,,,,,false,,,,331953.1999999881,331952.8000000119,327652.068,327661,327668.605,331968.668,8,400,,,
trial,html.Screen,4_54_0,2023-11-01T01:38:01.347Z,,0,2,,4483.632000011916,response,ISIC_0053810.JPG,5,ISIC_9228573.JPG,ISIC_9228573.JPG,false,0,keypress(z),500,336452.59999996424,336452.3000000119,331951.627,331953.39999997616,331968.668,336468.384,8,400,5,,ISIC_0053810.JPG
break,html.Screen,4_54_1,2023-11-01T01:38:01.349Z,,0,,,NaN,,,,,,false,,,,336453.8000000119,336453.3000000119,,336452.89999997616,,336468.384,8,400,,,
break_continue,html.Screen,4_54_2,2023-11-01T01:38:01.349Z,,0,,,NaN,,,,,,false,,,,336454.3000000119,336454.09999996424,,336454,,336468.384,8,400,,,
sequence,flow.Sequence,4_54,2023-11-01T01:38:01.349Z,,0,,,4485.431999964232,completion,,,,,false,,,,336454.59999996424,336454.09999996424,331951.627,331953.39999997616,331968.668,336468.384,8,400,,,
trial,html.Screen,4_55_0,2023-11-01T01:38:05.000Z,,0,2,,3636.515999976138,response,ISIC_0063061.JPG,6,ISIC_0011404.JPG,ISIC_0063061.JPG,false,1,keypress(m),500,340105.09999996424,340104.89999997616,336451.875,336454.6999999881,336468.384,340118.377,8,400,6,,ISIC_0011404.JPG
break,html.Screen,4_55_1,2023-11-01T01:38:05.001Z,,0,,,NaN,,,,,,false,,,,340106.1999999881,340105.8000000119,,340105.3000000119,,340118.377,8,400,,,
break_continue,html.Screen,4_55_2,2023-11-01T01:38:05.002Z,,0,,,NaN,,,,,,false,,,,340106.89999997616,340106.6999999881,,340106.5,,340118.377,8,400,,,
sequence,flow.Sequence,4_55,2023-11-01T01:38:05.002Z,,0,,,3638.315999988059,completion,,,,,false,,,,340107.3000000119,340106.6999999881,336451.875,336454.6999999881,336468.384,340118.377,8,400,,,
trial,html.Screen,4_56_0,2023-11-01T01:38:08.253Z,,0,2,,3239.5229999761796,response,ISIC_3922580.JPG,5,ISIC_0059257.JPG,ISIC_0059257.JPG,false,0,keypress(z),500,343358.09999996424,343357.89999997616,340101.696,340107.6999999881,340118.377,343368.005,8,400,7,,ISIC_3922580.JPG
break,html.Screen,4_56_1,2023-11-01T01:38:08.254Z,,0,,,NaN,,,,,,false,,,,343359.39999997616,343358.8000000119,,343358.39999997616,,343368.005,8,400,,,
break_continue,html.Screen,4_56_2,2023-11-01T01:38:08.255Z,,0,,,NaN,,,,,,false,,,,343359.89999997616,343359.59999996424,,343359.59999996424,,343368.005,8,400,,,
sequence,flow.Sequence,4_56,2023-11-01T01:38:08.255Z,,0,,,3241.2229999642586,completion,,,,,false,,,,343360,343359.59999996424,340101.696,340107.59999996424,340118.377,343368.005,8,400,,,
trial,html.Screen,4_57_0,2023-11-01T01:38:11.905Z,,0,2,,3641.8949999761535,response,ISIC_9799596.JPG,4,ISIC_4699066.JPG,ISIC_4699066.JPG,false,0,keypress(z),500,347010.1999999881,347009.89999997616,343351.337,343360.1999999881,343368.005,347017.609,8,400,8,,ISIC_9799596.JPG
break,html.Screen,4_57_1,2023-11-01T01:38:11.906Z,,0,,,NaN,,,,,,false,,,,347011.39999997616,347010.89999997616,,347010.5,,347017.609,8,400,,,
break_continue,html.Screen,4_57_2,2023-11-01T01:38:11.907Z,,0,,,NaN,,,,,,false,,,,347011.89999997616,347011.6999999881,,347011.5,,347017.609,8,400,,,
sequence,flow.Sequence,4_57,2023-11-01T01:38:11.907Z,,0,,,3643.6949999880744,completion,,,,,false,,,,347012.1999999881,347011.6999999881,343351.337,343360.09999996424,343368.005,347017.609,8,400,,,
trial,html.Screen,4_58_0,2023-11-01T01:38:15.782Z,,0,2,,3868.9909999642405,response,ISIC_0024779.JPG,5,ISIC_0207268.JPG,ISIC_0207268.JPG,false,0,keypress(z),500,350886.8000000119,350886.59999996424,347000.989,347012.3000000119,347017.609,350901.147,8,400,9,,ISIC_0024779.JPG
break,html.Screen,4_58_1,2023-11-01T01:38:15.783Z,,0,,,NaN,,,,,,false,,,,350888,350887.59999996424,,350887.09999996424,,350901.147,8,400,,,
break_continue,html.Screen,4_58_2,2023-11-01T01:38:15.783Z,,0,,,NaN,,,,,,false,,,,350888.39999997616,350888.3000000119,,350888.09999996424,,350901.147,8,400,,,
sequence,flow.Sequence,4_58,2023-11-01T01:38:15.783Z,,0,,,3870.691000011924,completion,,,,,false,,,,350888.59999996424,350888.3000000119,347000.989,347012.1999999881,347017.609,350901.147,8,400,,,
trial,html.Screen,4_59_0,2023-11-01T01:38:18.954Z,,0,2,,3157.552999988082,response,ISIC_2430937.JPG,5,ISIC_0055759.JPG,ISIC_0055759.JPG,false,0,keypress(z),500,354059,354058.6999999881,350884.546,350888.8000000119,350901.147,354067.285,8,400,10,,ISIC_2430937.JPG
break,html.Screen,4_59_1,2023-11-01T01:38:18.955Z,,0,,,NaN,,,,,,false,,,,354060.1999999881,354059.6999999881,,354059.1999999881,,354067.285,8,400,,,
break_continue,html.Screen,4_59_2,2023-11-01T01:38:18.956Z,,0,,,NaN,,,,,,false,,,,354060.6999999881,354060.5,,354060.3000000119,,354067.285,8,400,,,
sequence,flow.Sequence,4_59,2023-11-01T01:38:18.956Z,,0,,,3159.353000000003,completion,,,,,false,,,,354061.09999996424,354060.5,350884.546,350888.8000000119,350901.147,354067.285,8,400,,,
trial,html.Screen,4_60_0,2023-11-01T01:38:22.862Z,,0,2,,3899.9149999881047,response,ISIC_8853902.JPG,5,ISIC_5651106.JPG,ISIC_5651106.JPG,false,0,keypress(z),500,357967.5,357967.1999999881,354051.06,354061.1999999881,354067.285,357983.979,8,400,11,,ISIC_8853902.JPG
break,html.Screen,4_60_1,2023-11-01T01:38:22.863Z,,0,,,NaN,,,,,,false,,,,357968.5,357968.09999996424,,357967.8000000119,,357983.979,8,400,,,
break_continue,html.Screen,4_60_2,2023-11-01T01:38:22.864Z,,0,,,NaN,,,,,,false,,,,357969,357968.89999997616,,357968.6999999881,,357983.979,8,400,,,
sequence,flow.Sequence,4_60,2023-11-01T01:38:22.864Z,,0,,,3901.6149999761838,completion,,,,,false,,,,357969.1999999881,357968.89999997616,354051.06,354061.09999996424,354067.285,357983.979,8,400,,,
trial,html.Screen,4_61_0,2023-11-01T01:38:26.547Z,,0,2,,3668.321000011929,response,ISIC_7075474.JPG,5,ISIC_2126084.JPG,ISIC_7075474.JPG,false,1,keypress(m),500,361652.59999996424,361652.3000000119,357967.283,357969.39999997616,357983.979,361666.979,8,400,12,,ISIC_2126084.JPG
break,html.Screen,4_61_1,2023-11-01T01:38:26.549Z,,0,,,NaN,,,,,,false,,,,361653.6999999881,361653.3000000119,,361652.89999997616,,361666.979,8,400,,,
break_continue,html.Screen,4_61_2,2023-11-01T01:38:26.549Z,,0,,,NaN,,,,,,false,,,,361654.39999997616,361654.1999999881,,361653.89999997616,,361666.979,8,400,,,
sequence,flow.Sequence,4_61,2023-11-01T01:38:26.549Z,,0,,,3670.220999988087,completion,,,,,false,,,,361654.59999996424,361654.1999999881,357967.283,357969.39999997616,357983.979,361666.979,8,400,,,
trial,html.Screen,4_62_0,2023-11-01T01:38:33.128Z,,0,2,,6566.021000000008,response,ISIC_0068239.JPG,5,ISIC_2975167.JPG,ISIC_0068239.JPG,false,1,keypress(m),500,368233.3000000119,368233,361650.698,361654.8000000119,361666.979,368250.274,8,400,13,,ISIC_2975167.JPG
break,html.Screen,4_62_1,2023-11-01T01:38:33.129Z,,0,,,NaN,,,,,,false,,,,368234.5,368234.09999996424,,368233.59999996424,,368250.274,8,400,,,
break_continue,html.Screen,4_62_2,2023-11-01T01:38:33.130Z,,0,,,NaN,,,,,,false,,,,368235,368234.89999997616,,368234.6999999881,,368250.274,8,400,,,
sequence,flow.Sequence,4_62,2023-11-01T01:38:33.130Z,,0,,,6567.920999976166,completion,,,,,false,,,,368235.3000000119,368234.89999997616,361650.698,361654.6999999881,361666.979,368250.274,8,400,,,
trial,html.Screen,4_63_0,2023-11-01T01:38:37.756Z,,0,2,,4611.026000011945,response,ISIC_0502582.JPG,5,ISIC_8008242.JPG,ISIC_8008242.JPG,false,0,keypress(z),500,372861.59999996424,372861.3000000119,368233.752,368235.5,368250.274,372866.422,8,400,14,,ISIC_0502582.JPG
break,html.Screen,4_63_1,2023-11-01T01:38:37.757Z,,0,,,NaN,,,,,,false,,,,372862.5,372862.1999999881,,372861.8000000119,,372866.422,8,400,,,
break_continue,html.Screen,4_63_2,2023-11-01T01:38:37.758Z,,0,,,NaN,,,,,,false,,,,372863.1999999881,372863,,372862.89999997616,,372866.422,8,400,,,
sequence,flow.Sequence,4_63,2023-11-01T01:38:37.758Z,,0,,,4612.726000000024,completion,,,,,false,,,,372863.5,372863,368233.752,368235.39999997616,368250.274,372866.422,8,400,,,
trial,html.Screen,4_64_0,2023-11-01T01:38:41.841Z,,0,2,,4079.2779999880586,response,ISIC_0053540.JPG,6,ISIC_4247149.JPG,ISIC_4247149.JPG,false,0,keypress(z),500,376946.09999996424,376945.6999999881,372849.891,372863.6999999881,372866.422,376949.537,8,400,15,,ISIC_0053540.JPG
break,html.Screen,4_64_1,2023-11-01T01:38:41.842Z,,0,,,NaN,,,,,,false,,,,376947.1999999881,376946.6999999881,,376946.3000000119,,376949.537,8,400,,,
break_continue,html.Screen,4_64_2,2023-11-01T01:38:41.843Z,,0,,,NaN,,,,,,false,,,,376947.6999999881,376947.5,,376947.39999997616,,376949.537,8,400,,,
sequence,flow.Sequence,4_64,2023-11-01T01:38:41.843Z,,0,,,4081.0779999999795,completion,,,,,false,,,,376947.89999997616,376947.5,372849.891,372863.59999996424,372866.422,376949.537,8,400,,,
trial,html.Screen,4_65_0,2023-11-01T01:38:44.901Z,,0,2,,3056.562999964226,response,ISIC_9987485.JPG,5,ISIC_0033512.JPG,ISIC_9987485.JPG,false,1,keypress(m),500,380006.39999997616,380006.09999996424,376933.268,376948.09999996424,376949.537,380016.134,8,400,16,,ISIC_0033512.JPG
break,html.Screen,4_65_1,2023-11-01T01:38:44.902Z,,0,,,NaN,,,,,,false,,,,380007.5,380007,,380006.59999996424,,380016.134,8,400,,,
break_continue,html.Screen,4_65_2,2023-11-01T01:38:44.903Z,,0,,,NaN,,,,,,false,,,,380008.09999996424,380008,,380007.6999999881,,380016.134,8,400,,,
sequence,flow.Sequence,4_65,2023-11-01T01:38:44.903Z,,0,,,3058.462999999989,completion,,,,,false,,,,380008.3000000119,380008,376933.268,376948.09999996424,376949.537,380016.134,8,400,,,
trial,html.Screen,4_66_0,2023-11-01T01:38:49.418Z,,0,2,,4506.666000011901,response,ISIC_0031482.JPG,5,ISIC_3212781.JPG,ISIC_0031482.JPG,false,1,keypress(m),500,384523.09999996424,384522.8000000119,379999.806,380008.5,380016.134,384532.601,8,400,17,,ISIC_3212781.JPG
break,html.Screen,4_66_1,2023-11-01T01:38:49.419Z,,0,,,NaN,,,,,,false,,,,384524.39999997616,384523.89999997616,,384523.39999997616,,384532.601,8,400,,,
break_continue,html.Screen,4_66_2,2023-11-01T01:38:49.420Z,,0,,,NaN,,,,,,false,,,,384524.8000000119,384524.59999996424,,384524.5,,384532.601,8,400,,,
sequence,flow.Sequence,4_66,2023-11-01T01:38:49.420Z,,0,,,4508.465999964217,completion,,,,,false,,,,384525,384524.59999996424,379999.806,380008.39999997616,380016.134,384532.601,8,400,,,
trial,html.Screen,4_67_0,2023-11-01T01:38:55.822Z,,0,2,,6393.898999999976,response,ISIC_7035368.JPG,5,ISIC_0027327.JPG,ISIC_7035368.JPG,false,1,keypress(m),500,390926.6999999881,390926.5,384516.314,384525.09999996424,384532.601,390932.231,8,400,18,,ISIC_0027327.JPG
break,html.Screen,4_67_1,2023-11-01T01:38:55.823Z,,0,,,NaN,,,,,,false,,,,390928,390927.39999997616,,390927,,390932.231,8,400,,,
break_continue,html.Screen,4_67_2,2023-11-01T01:38:55.823Z,,0,,,NaN,,,,,,false,,,,390928.59999996424,390928.5,,390928.3000000119,,390932.231,8,400,,,
sequence,flow.Sequence,4_67,2023-11-01T01:38:55.824Z,,0,,,6395.898999999976,completion,,,,,false,,,,390928.89999997616,390928.5,384516.314,384525.09999996424,384532.601,390932.231,8,400,,,
trial,html.Screen,4_68_0,2023-11-01T01:38:59.202Z,,0,2,,3374.46899998805,response,ISIC_6673506.JPG,5,ISIC_7394897.JPG,ISIC_7394897.JPG,false,0,keypress(z),500,394307.1999999881,394306.6999999881,390916.027,390929.09999996424,390932.231,394315.411,8,400,19,,ISIC_6673506.JPG
break,html.Screen,4_68_1,2023-11-01T01:38:59.203Z,,0,,,NaN,,,,,,false,,,,394308.59999996424,394308,,394307.5,,394315.411,8,400,,,
break_continue,html.Screen,4_68_2,2023-11-01T01:38:59.204Z,,0,,,NaN,,,,,,false,,,,394309.3000000119,394309.09999996424,,394308.8000000119,,394315.411,8,400,,,
sequence,flow.Sequence,4_68,2023-11-01T01:38:59.204Z,,0,,,3376.8689999642083,completion,,,,,false,,,,394309.5,394309.09999996424,390916.027,390929,390932.231,394315.411,8,400,,,
trial,html.Screen,4_69_0,2023-11-01T01:39:02.344Z,,0,2,,3132.889000011899,response,ISIC_8478591.JPG,6,ISIC_0011493.JPG,ISIC_8478591.JPG,false,1,keypress(m),500,397448.8000000119,397448.3000000119,394298.702,394309.8000000119,394315.411,397465.591,8,400,20,,ISIC_0011493.JPG
break,html.Screen,4_69_1,2023-11-01T01:39:02.345Z,,0,,,NaN,,,,,,false,,,,397450,397449.39999997616,,397449,,397465.591,8,400,,,
break_continue,html.Screen,4_69_2,2023-11-01T01:39:02.345Z,,0,,,NaN,,,,,,false,,,,397450.39999997616,397450.39999997616,,397450.09999996424,,397465.591,8,400,,,
sequence,flow.Sequence,4_69,2023-11-01T01:39:02.346Z,,0,,,3134.9889999761363,completion,,,,,false,,,,397450.6999999881,397450.39999997616,394298.702,394309.6999999881,394315.411,397465.591,8,400,,,
trial,html.Screen,4_70_0,2023-11-01T01:39:06.252Z,,0,2,,3891.709000011906,response,ISIC_7981097.JPG,6,ISIC_0072976.JPG,ISIC_7981097.JPG,false,1,keypress(m),500,401357.59999996424,401357.3000000119,397448.988,397450.89999997616,397465.591,401365.131,8,400,21,,ISIC_0072976.JPG
break,html.Screen,4_70_1,2023-11-01T01:39:06.254Z,,0,,,NaN,,,,,,false,,,,401358.89999997616,401358.3000000119,,401357.89999997616,,401365.131,8,400,,,
break_continue,html.Screen,4_70_2,2023-11-01T01:39:06.254Z,,0,,,NaN,,,,,,false,,,,401359.39999997616,401359.3000000119,,401359.09999996424,,401365.131,8,400,,,
sequence,flow.Sequence,4_70,2023-11-01T01:39:06.254Z,,0,,,3893.709000011906,completion,,,,,false,,,,401359.6999999881,401359.3000000119,397448.988,397450.89999997616,397465.591,401365.131,8,400,,,
trial,html.Screen,4_71_0,2023-11-01T01:39:10.322Z,,0,2,,4061.869000000006,response,ISIC_6824842.JPG,5,ISIC_5835765.JPG,ISIC_6824842.JPG,false,1,keypress(m),500,405427.3000000119,405427,401348.862,401359.89999997616,401365.131,405431.59,8,400,22,,ISIC_5835765.JPG
break,html.Screen,4_71_1,2023-11-01T01:39:10.323Z,,0,,,NaN,,,,,,false,,,,405428.6999999881,405428.09999996424,,405427.6999999881,,405431.59,8,400,,,
break_continue,html.Screen,4_71_2,2023-11-01T01:39:10.324Z,,0,,,NaN,,,,,,false,,,,405429.1999999881,405429,,405428.89999997616,,405431.59,8,400,,,
sequence,flow.Sequence,4_71,2023-11-01T01:39:10.324Z,,0,,,4063.869000000006,completion,,,,,false,,,,405429.39999997616,405429,401348.862,401359.8000000119,401365.131,405431.59,8,400,,,
trial,html.Screen,4_72_0,2023-11-01T01:39:16.422Z,,0,2,,6095.710000011895,response,ISIC_0034192.JPG,5,ISIC_0054673.JPG,ISIC_0054673.JPG,false,0,keypress(z),500,411527.59999996424,411527.3000000119,405415.216,405429.59999996424,405431.59,411531.283,8,400,23,,ISIC_0034192.JPG
break,html.Screen,4_72_1,2023-11-01T01:39:16.424Z,,0,,,NaN,,,,,,false,,,,411528.8000000119,411528.39999997616,,411527.89999997616,,411531.283,8,400,,,
break_continue,html.Screen,4_72_2,2023-11-01T01:39:16.424Z,,0,,,NaN,,,,,,false,,,,411529.39999997616,411529.1999999881,,411529.09999996424,,411531.283,8,400,,,
sequence,flow.Sequence,4_72,2023-11-01T01:39:16.424Z,,0,,,6097.6099999880535,completion,,,,,false,,,,411529.59999996424,411529.1999999881,405415.216,405429.5,405431.59,411531.283,8,400,,,
trial,html.Screen,4_73_0,2023-11-01T01:39:19.788Z,,0,2,,3361.217000000004,response,ISIC_0032543.JPG,5,ISIC_0008816.JPG,ISIC_0032543.JPG,false,1,keypress(m),500,414892.6999999881,414892.5,411515.038,411529.8000000119,411531.283,414897.814,8,400,24,,ISIC_0008816.JPG
break,html.Screen,4_73_1,2023-11-01T01:39:19.789Z,,0,,,NaN,,,,,,false,,,,414893.89999997616,414893.3000000119,,414893,,414897.814,8,400,,,
break_continue,html.Screen,4_73_2,2023-11-01T01:39:19.789Z,,0,,,NaN,,,,,,false,,,,414894.39999997616,414894.3000000119,,414894.09999996424,,414897.814,8,400,,,
sequence,flow.Sequence,4_73,2023-11-01T01:39:19.790Z,,0,,,3363.017000011925,completion,,,,,false,,,,414894.6999999881,414894.3000000119,411515.038,411529.6999999881,411531.283,414897.814,8,400,,,
trial,html.Screen,4_74_0,2023-11-01T01:39:24.304Z,,0,2,,4511.185999999987,response,ISIC_8051628.JPG,6,ISIC_2136533.JPG,ISIC_8051628.JPG,false,1,keypress(m),500,419409.1999999881,419409,414881.399,414894.89999997616,414897.814,419414.246,8,400,25,,ISIC_2136533.JPG
break,html.Screen,4_74_1,2023-11-01T01:39:24.305Z,,0,,,NaN,,,,,,false,,,,419410.3000000119,419409.8000000119,,419409.5,,419414.246,8,400,,,
break_continue,html.Screen,4_74_2,2023-11-01T01:39:24.305Z,,0,,,NaN,,,,,,false,,,,419410.6999999881,419410.59999996424,,419410.39999997616,,419414.246,8,400,,,
sequence,flow.Sequence,4_74,2023-11-01T01:39:24.306Z,,0,,,4512.785999964224,completion,,,,,false,,,,419410.89999997616,419410.59999996424,414881.399,414894.8000000119,414897.814,419414.246,8,400,,,
trial,html.Screen,4_75_0,2023-11-01T01:39:28.324Z,,0,2,,4014.4539999880944,response,ISIC_0029214.JPG,4,ISIC_0010304.JPG,ISIC_0029214.JPG,false,1,keypress(m),500,423429,423428.6999999881,419398.014,419411,419414.246,423447.801,8,400,26,,ISIC_0010304.JPG
break,html.Screen,4_75_1,2023-11-01T01:39:28.325Z,,0,,,NaN,,,,,,false,,,,423430.09999996424,423429.59999996424,,423429.1999999881,,423447.801,8,400,,,
break_continue,html.Screen,4_75_2,2023-11-01T01:39:28.325Z,,0,,,NaN,,,,,,false,,,,423430.59999996424,423430.39999997616,,423430.1999999881,,423447.801,8,400,,,
sequence,flow.Sequence,4_75,2023-11-01T01:39:28.326Z,,0,,,4016.1539999761735,completion,,,,,false,,,,423430.8000000119,423430.39999997616,419398.014,419411,419414.246,423447.801,8,400,,,
trial,html.Screen,4_76_0,2023-11-01T01:39:32.536Z,,0,2,,4193.699000000022,response,ISIC_8452205.JPG,6,ISIC_6255494.JPG,ISIC_6255494.JPG,false,0,keypress(z),500,427641.6999999881,427641.5,423414.113,423430.89999997616,423447.801,427647.197,8,400,27,,ISIC_8452205.JPG
break,html.Screen,4_76_1,2023-11-01T01:39:32.538Z,,0,,,NaN,,,,,,false,,,,427642.8000000119,427642.3000000119,,427641.89999997616,,427647.197,8,400,,,
break_continue,html.Screen,4_76_2,2023-11-01T01:39:32.538Z,,0,,,NaN,,,,,,false,,,,427643.3000000119,427643.09999996424,,427642.89999997616,,427647.197,8,400,,,
sequence,flow.Sequence,4_76,2023-11-01T01:39:32.538Z,,0,,,4195.29899996426,completion,,,,,false,,,,427643.5,427643.09999996424,423414.113,423430.89999997616,423447.801,427647.197,8,400,,,
trial,html.Screen,4_77_0,2023-11-01T01:39:37.950Z,,0,2,,5407.303000000014,response,ISIC_0026264.JPG,5,ISIC_4226395.JPG,ISIC_4226395.JPG,false,0,keypress(z),500,433054.8000000119,433054.5,427630.647,427643.8000000119,427647.197,433063.584,8,400,28,,ISIC_0026264.JPG
break,html.Screen,4_77_1,2023-11-01T01:39:37.951Z,,0,,,NaN,,,,,,false,,,,433055.8000000119,433055.39999997616,,433055,,433063.584,8,400,,,
break_continue,html.Screen,4_77_2,2023-11-01T01:39:37.951Z,,0,,,NaN,,,,,,false,,,,433056.3000000119,433056.09999996424,,433055.89999997616,,433063.584,8,400,,,
sequence,flow.Sequence,4_77,2023-11-01T01:39:37.951Z,,0,,,5408.902999964252,completion,,,,,false,,,,433056.39999997616,433056.09999996424,427630.647,427643.6999999881,427647.197,433063.584,8,400,,,
trial,html.Screen,4_78_0,2023-11-01T01:39:43.953Z,,0,2,,5994.515999964264,response,ISIC_2215276.JPG,5,ISIC_0055136.JPG,ISIC_2215276.JPG,false,1,keypress(m),500,439058.39999997616,439058.09999996424,433047.446,433056.59999996424,433063.584,439063.346,8,400,29,,ISIC_0055136.JPG
break,html.Screen,4_78_1,2023-11-01T01:39:43.954Z,,0,,,NaN,,,,,,false,,,,439059.5,439059,,439058.59999996424,,439063.346,8,400,,,
break_continue,html.Screen,4_78_2,2023-11-01T01:39:43.955Z,,0,,,NaN,,,,,,false,,,,439060,439059.8000000119,,439059.59999996424,,439063.346,8,400,,,
sequence,flow.Sequence,4_78,2023-11-01T01:39:43.955Z,,0,,,5996.2160000119475,completion,,,,,false,,,,439060.1999999881,439059.8000000119,433047.446,433056.59999996424,433063.584,439063.346,8,400,,,
trial,html.Screen,4_79_0,2023-11-01T01:39:47.639Z,,0,2,,3680.1539999999804,response,ISIC_0025235.JPG,6,ISIC_6676647.JPG,ISIC_0025235.JPG,false,1,keypress(m),500,442743.8000000119,442743.5,439046.907,439060.39999997616,439063.346,442746.513,8,400,30,,ISIC_6676647.JPG
break,html.Screen,4_79_1,2023-11-01T01:39:47.640Z,,0,,,NaN,,,,,,false,,,,442745.09999996424,442744.59999996424,,442744,,442746.513,8,400,,,
break_continue,html.Screen,4_79_2,2023-11-01T01:39:47.640Z,,0,,,NaN,,,,,,false,,,,442745.5,442745.39999997616,,442745.1999999881,,442746.513,8,400,,,
sequence,flow.Sequence,4_79,2023-11-01T01:39:47.641Z,,0,,,3682.0539999761386,completion,,,,,false,,,,442745.6999999881,442745.39999997616,439046.907,439060.3000000119,439063.346,442746.513,8,400,,,
trial,html.Screen,4_80_0,2023-11-01T01:39:53.531Z,,0,2,,5889.287000011944,response,ISIC_9947369.JPG,5,ISIC_0065477.JPG,ISIC_9947369.JPG,false,1,keypress(m),500,448636.09999996424,448635.8000000119,442730.091,442745.89999997616,442746.513,448646.286,8,400,31,,ISIC_0065477.JPG
break,html.Screen,4_80_1,2023-11-01T01:39:53.532Z,,0,,,NaN,,,,,,false,,,,448637.1999999881,448636.8000000119,,448636.3000000119,,448646.286,8,400,,,
break_continue,html.Screen,4_80_2,2023-11-01T01:39:53.533Z,,0,,,NaN,,,,,,false,,,,448637.8000000119,448637.59999996424,,448637.5,,448646.286,8,400,,,
sequence,flow.Sequence,4_80,2023-11-01T01:39:53.533Z,,0,,,5891.08699996426,completion,,,,,false,,,,448638,448637.59999996424,442730.091,442745.89999997616,442746.513,448646.286,8,400,,,
trial,html.Screen,4_81_0,2023-11-01T01:39:57.184Z,,0,2,,3642.213999999978,response,ISIC_9095975.JPG,5,ISIC_0032204.JPG,ISIC_0032204.JPG,false,0,keypress(z),500,452288.89999997616,452288.5,448630.082,448638.09999996424,448646.286,452296.049,8,400,32,,ISIC_9095975.JPG
break,html.Screen,4_81_1,2023-11-01T01:39:57.185Z,,0,,,NaN,,,,,,false,,,,452290,452289.5,,452289.09999996424,,452296.049,8,400,,,
break_continue,html.Screen,4_81_2,2023-11-01T01:39:57.185Z,,0,,,NaN,,,,,,false,,,,452290.5,452290.3000000119,,452290.1999999881,,452296.049,8,400,,,
sequence,flow.Sequence,4_81,2023-11-01T01:39:57.186Z,,0,,,3644.014000011899,completion,,,,,false,,,,452290.8000000119,452290.3000000119,448630.082,448638.09999996424,448646.286,452296.049,8,400,,,
trial,html.Screen,4_82_0,2023-11-01T01:40:02.933Z,,0,2,,5741.550999964238,response,ISIC_2096695.JPG,6,ISIC_0059440.JPG,ISIC_0059440.JPG,false,0,keypress(z),500,458037.89999997616,458037.59999996424,452279.858,452291,452296.049,458045.771,8,400,33,,ISIC_2096695.JPG
break,html.Screen,4_82_1,2023-11-01T01:40:02.934Z,,0,,,NaN,,,,,,false,,,,458039,458038.59999996424,,458038.1999999881,,458045.771,8,400,,,
break_continue,html.Screen,4_82_2,2023-11-01T01:40:02.934Z,,0,,,NaN,,,,,,false,,,,458039.5,458039.39999997616,,458039.1999999881,,458045.771,8,400,,,
sequence,flow.Sequence,4_82,2023-11-01T01:40:02.935Z,,0,,,5743.350999976159,completion,,,,,false,,,,458039.6999999881,458039.39999997616,452279.858,452290.89999997616,452296.049,458045.771,8,400,,,
trial,html.Screen,4_83_0,2023-11-01T01:40:06.713Z,,0,2,,3772.529000011913,response,ISIC_0070253.JPG,5,ISIC_6967143.JPG,ISIC_6967143.JPG,false,0,keypress(z),500,461818.5,461818.3000000119,458029.574,458039.89999997616,458045.771,461829.325,8,400,34,,ISIC_0070253.JPG
break,html.Screen,4_83_1,2023-11-01T01:40:06.715Z,,0,,,NaN,,,,,,false,,,,461819.6999999881,461819.1999999881,,461818.8000000119,,461829.325,8,400,,,
break_continue,html.Screen,4_83_2,2023-11-01T01:40:06.715Z,,0,,,NaN,,,,,,false,,,,461820.1999999881,461820,,461819.89999997616,,461829.325,8,400,,,
sequence,flow.Sequence,4_83,2023-11-01T01:40:06.715Z,,0,,,3774.228999999992,completion,,,,,false,,,,461820.5,461820,458029.574,458039.8000000119,458045.771,461829.325,8,400,,,
trial,html.Screen,4_84_0,2023-11-01T01:40:11.997Z,,0,2,,5272.874999988067,response,ISIC_5971591.JPG,5,ISIC_7095615.JPG,ISIC_7095615.JPG,false,0,keypress(z),500,467102.5,467102.1999999881,461812.744,461820.59999996424,461829.325,467112.061,8,400,35,,ISIC_5971591.JPG
break,html.Screen,4_84_1,2023-11-01T01:40:11.999Z,,0,,,NaN,,,,,,false,,,,467103.8000000119,467103.3000000119,,467103,,467112.061,8,400,,,
break_continue,html.Screen,4_84_2,2023-11-01T01:40:11.999Z,,0,,,NaN,,,,,,false,,,,467104.39999997616,467104.09999996424,,467104,,467112.061,8,400,,,
sequence,flow.Sequence,4_84,2023-11-01T01:40:11.999Z,,0,,,5274.774999964226,completion,,,,,false,,,,467104.59999996424,467104.09999996424,461812.744,461820.59999996424,461829.325,467112.061,8,400,,,
trial,html.Screen,4_85_0,2023-11-01T01:40:17.474Z,,0,2,,5467.239000011934,response,ISIC_9482842.JPG,5,ISIC_1515947.JPG,ISIC_1515947.JPG,false,0,keypress(z),500,472579.59999996424,472579.3000000119,467095.869,467104.8000000119,467112.061,472595.38,8,400,36,,ISIC_9482842.JPG
break,html.Screen,4_85_1,2023-11-01T01:40:17.476Z,,0,,,NaN,,,,,,false,,,,472580.6999999881,472580.3000000119,,472579.8000000119,,472595.38,8,400,,,
break_continue,html.Screen,4_85_2,2023-11-01T01:40:17.476Z,,0,,,NaN,,,,,,false,,,,472581.1999999881,472581.09999996424,,472580.89999997616,,472595.38,8,400,,,
sequence,flow.Sequence,4_85,2023-11-01T01:40:17.476Z,,0,,,5469.03899996425,completion,,,,,false,,,,472581.39999997616,472581.09999996424,467095.869,467104.6999999881,467112.061,472595.38,8,400,,,
trial,html.Screen,4_86_0,2023-11-01T01:40:21.623Z,,0,2,,4132.619999999995,response,ISIC_3222447.JPG,5,ISIC_0033805.JPG,ISIC_0033805.JPG,false,0,keypress(z),500,476728.3000000119,476728,472578.742,472581.59999996424,472595.38,476745.123,8,400,37,,ISIC_3222447.JPG
break,html.Screen,4_86_1,2023-11-01T01:40:21.624Z,,0,,,NaN,,,,,,false,,,,476729.5,476729,,476728.6999999881,,476745.123,8,400,,,
break_continue,html.Screen,4_86_2,2023-11-01T01:40:21.625Z,,0,,,NaN,,,,,,false,,,,476730.09999996424,476729.8000000119,,476729.6999999881,,476745.123,8,400,,,
sequence,flow.Sequence,4_86,2023-11-01T01:40:21.625Z,,0,,,4134.420000011916,completion,,,,,false,,,,476730.39999997616,476729.8000000119,472578.742,472581.59999996424,472595.38,476745.123,8,400,,,
trial,html.Screen,4_87_0,2023-11-01T01:40:26.604Z,,0,2,,4963.576999988058,response,ISIC_0014975.JPG,6,ISIC_0616491.JPG,ISIC_0616491.JPG,false,0,keypress(z),500,481709,481708.6999999881,476728.502,476730.59999996424,476745.123,481711.382,8,400,38,,ISIC_0014975.JPG
break,html.Screen,4_87_1,2023-11-01T01:40:26.605Z,,0,,,NaN,,,,,,false,,,,481710,481709.59999996424,,481709.1999999881,,481711.382,8,400,,,
break_continue,html.Screen,4_87_2,2023-11-01T01:40:26.605Z,,0,,,NaN,,,,,,false,,,,481710.5,481710.3000000119,,481710.1999999881,,481711.382,8,400,,,
sequence,flow.Sequence,4_87,2023-11-01T01:40:26.605Z,,0,,,4965.1770000118995,completion,,,,,false,,,,481710.59999996424,481710.3000000119,476728.502,476730.39999997616,476745.123,481711.382,8,400,,,
trial,html.Screen,4_88_0,2023-11-01T01:40:33.567Z,,0,2,,6960.817999988096,response,ISIC_6126620.JPG,5,ISIC_0055251.JPG,ISIC_6126620.JPG,false,1,keypress(m),500,488672.39999997616,488672.1999999881,481694.753,481710.8000000119,481711.382,488677.733,8,400,39,,ISIC_0055251.JPG
break,html.Screen,4_88_1,2023-11-01T01:40:33.568Z,,0,,,NaN,,,,,,false,,,,488673.5,488673.09999996424,,488672.6999999881,,488677.733,8,400,,,
break_continue,html.Screen,4_88_2,2023-11-01T01:40:33.569Z,,0,,,NaN,,,,,,false,,,,488674,488673.8000000119,,488673.6999999881,,488677.733,8,400,,,
sequence,flow.Sequence,4_88,2023-11-01T01:40:33.569Z,,0,,,6962.418000011938,completion,,,,,false,,,,488674.3000000119,488673.8000000119,481694.753,481710.6999999881,481711.382,488677.733,8,400,,,
trial,html.Screen,4_89_0,2023-11-01T01:40:39.043Z,,0,2,,5470.0670000119135,response,ISIC_0024398.JPG,5,ISIC_0034046.JPG,ISIC_0024398.JPG,false,1,keypress(m),500,494148,494147.8000000119,488661.217,488674.39999997616,488677.733,494161.285,8,400,40,,ISIC_0034046.JPG
break,html.Screen,4_89_1,2023-11-01T01:40:39.044Z,,0,,,NaN,,,,,,false,,,,494149.09999996424,494148.59999996424,,494148.3000000119,,494161.285,8,400,,,
break_continue,html.Screen,4_89_2,2023-11-01T01:40:39.044Z,,0,,,NaN,,,,,,false,,,,494149.59999996424,494149.39999997616,,494149.3000000119,,494161.285,8,400,,,
sequence,flow.Sequence,4_89,2023-11-01T01:40:39.045Z,,0,,,5471.666999976151,completion,,,,,false,,,,494149.8000000119,494149.39999997616,488661.217,488674.39999997616,488677.733,494161.285,8,400,,,
trial,html.Screen,4_90_0,2023-11-01T01:40:42.662Z,,0,2,,3606.1149999761838,response,ISIC_5039895.JPG,6,ISIC_4535099.JPG,ISIC_5039895.JPG,false,1,keypress(m),500,497767.59999996424,497767.39999997616,494144.597,494149.89999997616,494161.285,497777.496,8,400,41,,ISIC_4535099.JPG
break,html.Screen,4_90_1,2023-11-01T01:40:42.664Z,,0,,,NaN,,,,,,false,,,,497768.6999999881,497768.3000000119,,497767.8000000119,,497777.496,8,400,,,
break_continue,html.Screen,4_90_2,2023-11-01T01:40:42.664Z,,0,,,NaN,,,,,,false,,,,497769.09999996424,497769,,497768.89999997616,,497777.496,8,400,,,
sequence,flow.Sequence,4_90,2023-11-01T01:40:42.664Z,,0,,,3607.7150000000256,completion,,,,,false,,,,497769.3000000119,497769,494144.597,494149.8000000119,494161.285,497777.496,8,400,,,
trial,html.Screen,4_91_0,2023-11-01T01:40:48.218Z,,0,2,,5545.203999988094,response,ISIC_0033654.JPG,5,ISIC_3994656.JPG,ISIC_3994656.JPG,false,0,keypress(z),500,503323.09999996424,503322.6999999881,497760.655,497769.39999997616,497777.496,503327.066,8,400,42,,ISIC_0033654.JPG
break,html.Screen,4_91_1,2023-11-01T01:40:48.219Z,,0,,,NaN,,,,,,false,,,,503324.3000000119,503323.6999999881,,503323.3000000119,,503327.066,8,400,,,
break_continue,html.Screen,4_91_2,2023-11-01T01:40:48.220Z,,0,,,NaN,,,,,,false,,,,503324.8000000119,503324.59999996424,,503324.39999997616,,503327.066,8,400,,,
sequence,flow.Sequence,4_91,2023-11-01T01:40:48.220Z,,0,,,5547.103999964253,completion,,,,,false,,,,503325.09999996424,503324.59999996424,497760.655,497769.39999997616,497777.496,503327.066,8,400,,,
trial,html.Screen,4_92_0,2023-11-01T01:40:53.006Z,,0,2,,4783.934000000008,response,ISIC_0905367.JPG,5,ISIC_5934948.JPG,ISIC_5934948.JPG,false,0,keypress(z),500,508111.3000000119,508111,503310.738,503325.3000000119,503327.066,508126.888,8,400,43,,ISIC_0905367.JPG
break,html.Screen,4_92_1,2023-11-01T01:40:53.007Z,,0,,,NaN,,,,,,false,,,,508112.59999996424,508112,,508111.6999999881,,508126.888,8,400,,,
break_continue,html.Screen,4_92_2,2023-11-01T01:40:53.008Z,,0,,,NaN,,,,,,false,,,,508113.1999999881,508113,,508112.8000000119,,508126.888,8,400,,,
sequence,flow.Sequence,4_92,2023-11-01T01:40:53.008Z,,0,,,4785.934000000008,completion,,,,,false,,,,508113.39999997616,508113,503310.738,503325.3000000119,503327.066,508126.888,8,400,,,
trial,html.Screen,4_93_0,2023-11-01T01:40:57.699Z,,0,2,,4677.112000000023,response,ISIC_0013580.JPG,5,ISIC_4974868.JPG,ISIC_4974868.JPG,false,0,keypress(z),500,512804.1999999881,512804,508110.565,508113.5,508126.888,512809.925,8,400,44,,ISIC_0013580.JPG
break,html.Screen,4_93_1,2023-11-01T01:40:57.700Z,,0,,,NaN,,,,,,false,,,,512805.1999999881,512804.8000000119,,512804.39999997616,,512809.925,8,400,,,
break_continue,html.Screen,4_93_2,2023-11-01T01:40:57.700Z,,0,,,NaN,,,,,,false,,,,512805.59999996424,512805.5,,512805.3000000119,,512809.925,8,400,,,
sequence,flow.Sequence,4_93,2023-11-01T01:40:57.701Z,,0,,,4678.612000000023,completion,,,,,false,,,,512805.8000000119,512805.5,508110.565,508113.5,508126.888,512809.925,8,400,,,
trial,html.Screen,4_94_0,2023-11-01T01:41:01.510Z,,0,2,,3805.3750000119326,response,ISIC_0063046.JPG,6,ISIC_6966001.JPG,ISIC_6966001.JPG,false,0,keypress(z),500,516615.6999999881,516615.3000000119,512793.747,512805.89999997616,512809.925,516626.6,8,400,45,,ISIC_0063046.JPG
break,html.Screen,4_94_1,2023-11-01T01:41:01.512Z,,0,,,NaN,,,,,,false,,,,516617,516616.3000000119,,516615.89999997616,,516626.6,8,400,,,
break_continue,html.Screen,4_94_2,2023-11-01T01:41:01.512Z,,0,,,NaN,,,,,,false,,,,516617.39999997616,516617.3000000119,,516617.09999996424,,516626.6,8,400,,,
sequence,flow.Sequence,4_94,2023-11-01T01:41:01.513Z,,0,,,3807.3750000119326,completion,,,,,false,,,,516617.6999999881,516617.3000000119,512793.747,512805.89999997616,512809.925,516626.6,8,400,,,
trial,html.Screen,4_95_0,2023-11-01T01:41:06.683Z,,0,2,,5161.4999999642605,response,ISIC_0055783.JPG,5,ISIC_5932383.JPG,ISIC_0055783.JPG,false,1,keypress(m),500,521788.39999997616,521788.09999996424,516610.201,516617.89999997616,516626.6,521792.887,8,400,46,,ISIC_5932383.JPG
break,html.Screen,4_95_1,2023-11-01T01:41:06.684Z,,0,,,NaN,,,,,,false,,,,521789.5,521789.09999996424,,521788.6999999881,,521792.887,8,400,,,
break_continue,html.Screen,4_95_2,2023-11-01T01:41:06.685Z,,0,,,NaN,,,,,,false,,,,521790.1999999881,521790,,521789.8000000119,,521792.887,8,400,,,
sequence,flow.Sequence,4_95,2023-11-01T01:41:06.685Z,,0,,,5163.400000000023,completion,,,,,false,,,,521790.39999997616,521790,516610.201,516617.89999997616,516626.6,521792.887,8,400,,,
trial,html.Screen,4_96_0,2023-11-01T01:41:12.879Z,,0,2,,6191.01299997617,response,ISIC_4702522.JPG,5,ISIC_0033641.JPG,ISIC_0033641.JPG,false,0,keypress(z),500,527984.1999999881,527983.8999999762,521776.571,521790.59999996424,521792.887,527992.568,8,400,47,,ISIC_4702522.JPG
break,html.Screen,4_96_1,2023-11-01T01:41:12.880Z,,0,,,NaN,,,,,,false,,,,527985.6999999881,527985.1999999881,,527984.6999999881,,527992.568,8,400,,,
break_continue,html.Screen,4_96_2,2023-11-01T01:41:12.881Z,,0,,,NaN,,,,,,false,,,,527986.3000000119,527986.0999999642,,527985.8999999762,,527992.568,8,400,,,
sequence,flow.Sequence,4_96,2023-11-01T01:41:12.881Z,,0,,,6193.212999964249,completion,,,,,false,,,,527986.5999999642,527986.0999999642,521776.571,521790.5,521792.887,527992.568,8,400,,,
trial,html.Screen,4_97_0,2023-11-01T01:41:18.148Z,,0,2,,5260.031999964267,response,ISIC_3541663.JPG,5,ISIC_0966527.JPG,ISIC_3541663.JPG,false,1,keypress(m),500,533253,533252.5999999642,527976.377,527987,527992.568,533259.012,8,400,48,,ISIC_0966527.JPG
break,html.Screen,4_97_1,2023-11-01T01:41:18.149Z,,0,,,NaN,,,,,,false,,,,533254.3000000119,533253.8000000119,,533253.3000000119,,533259.012,8,400,,,
break_continue,html.Screen,4_97_2,2023-11-01T01:41:18.150Z,,0,,,NaN,,,,,,false,,,,533254.8999999762,533254.6999999881,,533254.5999999642,,533259.012,8,400,,,
sequence,flow.Sequence,4_97,2023-11-01T01:41:18.150Z,,0,,,5262.131999988109,completion,,,,,false,,,,533255.0999999642,533254.6999999881,527976.377,527986.8000000119,527992.568,533259.012,8,400,,,
trial,html.Screen,4_98_0,2023-11-01T01:41:21.577Z,,0,2,,3422.687999988091,response,ISIC_8712559.JPG,5,ISIC_0027576.JPG,ISIC_8712559.JPG,false,1,keypress(m),500,536682.0999999642,536681.6999999881,533242.785,533255.3999999762,533259.012,536692.47,8,400,49,,ISIC_0027576.JPG
break,html.Screen,4_98_1,2023-11-01T01:41:21.578Z,,0,,,NaN,,,,,,false,,,,536683.3999999762,536682.8999999762,,536682.5,,536692.47,8,400,,,
break_continue,html.Screen,4_98_2,2023-11-01T01:41:21.579Z,,0,,,NaN,,,,,,false,,,,536683.8999999762,536683.6999999881,,536683.3999999762,,536692.47,8,400,,,
sequence,flow.Sequence,4_98,2023-11-01T01:41:21.579Z,,0,,,3424.687999988091,completion,,,,,false,,,,536684.1999999881,536683.6999999881,533242.785,533255.1999999881,533259.012,536692.47,8,400,,,
trial,html.Screen,4_99_0,2023-11-01T01:41:26.750Z,,0,2,,5162.330000011949,response,ISIC_0066328.JPG,5,ISIC_0026516.JPG,ISIC_0066328.JPG,false,1,keypress(m),500,541855.3000000119,541854.8000000119,536675.985,536684.3999999762,536692.47,541858.598,8,400,50,,ISIC_0026516.JPG
break,html.Screen,4_99_1,2023-11-01T01:41:36.738Z,,0,,,9999.65300000005,timeout,,,,,false,,,,551843.3999999762,551842.063,541841.945,541855.6999999881,541858.598,551858.251,8,400,,,
break_continue,html.Screen,4_99_2,2023-11-01T01:43:01.742Z,,0,,,84955.94899998803,response,,,,,false,continue,keypress(Space),,636847.3000000119,636814.1999999881,551842.063,551843.6999999881,551858.251,636854.218,8,400,,,
sequence,flow.Sequence,4_99,2023-11-01T01:43:01.742Z,,0,,,100121.7299999881,completion,,,,,false,,,,636847.3999999762,636814.1999999881,536675.985,536684.3000000119,536692.47,636854.218,8,400,,,
trial,html.Screen,4_100_0,2023-11-01T01:43:06.257Z,,0,3,,4507.981999988086,response,ISIC_0028606.JPG,5,ISIC_9826778.JPG,ISIC_9826778.JPG,false,0,keypress(z),500,641362.3000000119,641362.1999999881,636835.614,636847.5999999642,636854.218,641370.629,8,400,1,,ISIC_0028606.JPG
break,html.Screen,4_100_1,2023-11-01T01:43:06.258Z,,0,,,NaN,,,,,,false,,,,641362.8999999762,641362.6999999881,,641362.5,,641370.629,8,400,,,
break_continue,html.Screen,4_100_2,2023-11-01T01:43:06.258Z,,0,,,NaN,,,,,,false,,,,641363.0999999642,641363,,641363,,641370.629,8,400,,,
sequence,flow.Sequence,4_100,2023-11-01T01:43:06.258Z,,0,,,4508.7820000000065,completion,,,,,false,,,,641363.1999999881,641363,636835.614,636847.5,636854.218,641370.629,8,400,,,
trial,html.Screen,4_101_0,2023-11-01T01:43:10.404Z,,0,3,,4138.371000000043,response,ISIC_0004564.JPG,5,ISIC_1856556.JPG,ISIC_0004564.JPG,false,1,keypress(m),500,645509.3000000119,645509,641353.962,641363.3000000119,641370.629,645520.457,8,400,2,,ISIC_1856556.JPG
break,html.Screen,4_101_1,2023-11-01T01:43:10.405Z,,0,,,NaN,,,,,,false,,,,645509.8999999762,645509.6999999881,,645509.3999999762,,645520.457,8,400,,,
break_continue,html.Screen,4_101_2,2023-11-01T01:43:10.405Z,,0,,,NaN,,,,,,false,,,,645510.3999999762,645510.1999999881,,645510.0999999642,,645520.457,8,400,,,
sequence,flow.Sequence,4_101,2023-11-01T01:43:10.406Z,,0,,,4139.570999988122,completion,,,,,false,,,,645510.6999999881,645510.1999999881,641353.962,641363.3000000119,641370.629,645520.457,8,400,,,
trial,html.Screen,4_102_0,2023-11-01T01:43:13.848Z,,0,3,,3432.843000011868,response,ISIC_5699175.JPG,6,ISIC_0034039.JPG,ISIC_0034039.JPG,false,0,keypress(z),500,648953.5,648953.3000000119,645503.764,645510.8000000119,645520.457,648970.323,8,400,3,,ISIC_5699175.JPG
break,html.Screen,4_102_1,2023-11-01T01:43:13.850Z,,0,,,NaN,,,,,,false,,,,648954.8999999762,648954,,648953.6999999881,,648970.323,8,400,,,
break_continue,html.Screen,4_102_2,2023-11-01T01:43:13.850Z,,0,,,NaN,,,,,,false,,,,648955.3999999762,648955.1999999881,,648955.0999999642,,648970.323,8,400,,,
sequence,flow.Sequence,4_102,2023-11-01T01:43:13.850Z,,0,,,3434.742999988026,completion,,,,,false,,,,648955.3999999762,648955.1999999881,645503.764,645510.6999999881,645520.457,648970.323,8,400,,,
trial,html.Screen,4_103_0,2023-11-01T01:43:16.941Z,,0,3,,3075.177000000025,response,ISIC_7277310.JPG,5,ISIC_0012067.JPG,ISIC_7277310.JPG,false,1,keypress(m),500,652045.8000000119,652045.5,648953.599,648955.5,648970.323,652053.477,8,400,4,,ISIC_0012067.JPG
break,html.Screen,4_103_1,2023-11-01T01:43:16.941Z,,0,,,NaN,,,,,,false,,,,652046.3999999762,652046.0999999642,,652045.8999999762,,652053.477,8,400,,,
break_continue,html.Screen,4_103_2,2023-11-01T01:43:16.942Z,,0,,,NaN,,,,,,false,,,,652046.8000000119,652046.5999999642,,652046.5,,652053.477,8,400,,,
sequence,flow.Sequence,4_103,2023-11-01T01:43:16.942Z,,0,,,3076.2769999642624,completion,,,,,false,,,,652046.8999999762,652046.5999999642,648953.599,648955.5,648970.323,652053.477,8,400,,,
trial,html.Screen,4_104_0,2023-11-01T01:43:19.952Z,,0,3,,3003.8230000119656,response,ISIC_0522926.JPG,5,ISIC_0010306.JPG,ISIC_0010306.JPG,false,0,keypress(z),500,655057.5,655057.3000000119,652036.848,652047.0999999642,652053.477,655070.084,8,400,5,,ISIC_0522926.JPG
break,html.Screen,4_104_1,2023-11-01T01:43:19.953Z,,0,,,NaN,,,,,,false,,,,655058.1999999881,655057.8000000119,,655057.5999999642,,655070.084,8,400,,,
break_continue,html.Screen,4_104_2,2023-11-01T01:43:19.953Z,,0,,,NaN,,,,,,false,,,,655058.5,655058.3999999762,,655058.3000000119,,655070.084,8,400,,,
sequence,flow.Sequence,4_104,2023-11-01T01:43:19.954Z,,0,,,3004.922999976203,completion,,,,,false,,,,655058.5999999642,655058.3999999762,652036.848,652047,652053.477,655070.084,8,400,,,
trial,html.Screen,4_105_0,2023-11-01T01:43:23.507Z,,0,3,,3541.9159999999683,response,ISIC_2884038.JPG,4,ISIC_0002184.JPG,ISIC_0002184.JPG,false,0,keypress(z),500,658612.0999999642,658612,655053.355,655058.6999999881,655070.084,658620.295,8,400,6,,ISIC_2884038.JPG
break,html.Screen,4_105_1,2023-11-01T01:43:23.508Z,,0,,,NaN,,,,,,false,,,,658612.6999999881,658612.3999999762,,658612.1999999881,,658620.295,8,400,,,
break_continue,html.Screen,4_105_2,2023-11-01T01:43:23.508Z,,0,,,NaN,,,,,,false,,,,658612.8999999762,658612.8999999762,,658612.6999999881,,658620.295,8,400,,,
sequence,flow.Sequence,4_105,2023-11-01T01:43:23.508Z,,0,,,3542.8159999761265,completion,,,,,false,,,,658613.0999999642,658612.8999999762,655053.355,655058.6999999881,655070.084,658620.295,8,400,,,
trial,html.Screen,4_106_0,2023-11-01T01:43:28.007Z,,0,3,,4491.204999999958,response,ISIC_6400232.JPG,5,ISIC_0010664.JPG,ISIC_0010664.JPG,false,0,keypress(z),500,663111.6999999881,663111.5,658603.18,658613.0999999642,658620.295,663119.644,8,400,7,,ISIC_6400232.JPG
break,html.Screen,4_106_1,2023-11-01T01:43:28.007Z,,0,,,NaN,,,,,,false,,,,663112.3000000119,663112,,663111.8999999762,,663119.644,8,400,,,
break_continue,html.Screen,4_106_2,2023-11-01T01:43:28.008Z,,0,,,NaN,,,,,,false,,,,663112.5999999642,663112.5,,663112.3999999762,,663119.644,8,400,,,
sequence,flow.Sequence,4_106,2023-11-01T01:43:28.008Z,,0,,,4492.204999999958,completion,,,,,false,,,,663112.6999999881,663112.5,658603.18,658613.0999999642,658620.295,663119.644,8,400,,,
trial,html.Screen,4_107_0,2023-11-01T01:43:31.099Z,,0,3,,3084.255999976187,response,ISIC_0059569.JPG,5,ISIC_0033117.JPG,ISIC_0033117.JPG,false,0,keypress(z),500,666204.0999999642,666203.8999999762,663102.977,663112.8999999762,663119.644,666219.535,8,400,8,,ISIC_0059569.JPG
break,html.Screen,4_107_1,2023-11-01T01:43:31.100Z,,0,,,NaN,,,,,,false,,,,666204.6999999881,666204.5,,666204.3000000119,,666219.535,8,400,,,
break_continue,html.Screen,4_107_2,2023-11-01T01:43:31.100Z,,0,,,NaN,,,,,,false,,,,666205.0999999642,666205,,666204.8000000119,,666219.535,8,400,,,
sequence,flow.Sequence,4_107,2023-11-01T01:43:31.100Z,,0,,,3085.356000000029,completion,,,,,false,,,,666205.1999999881,666205,663102.977,663112.8999999762,663119.644,666219.535,8,400,,,
trial,html.Screen,4_108_0,2023-11-01T01:43:35.246Z,,0,3,,4131.064999964205,response,ISIC_0644590.JPG,5,ISIC_0001120.JPG,ISIC_0644590.JPG,false,1,keypress(m),500,670350.6999999881,670350.5999999642,666203.375,666205.3000000119,666219.535,670352.699,8,400,9,,ISIC_0001120.JPG
break,html.Screen,4_108_1,2023-11-01T01:43:35.246Z,,0,,,NaN,,,,,,false,,,,670351.5,670351.0999999642,,670350.8999999762,,670352.699,8,400,,,
break_continue,html.Screen,4_108_2,2023-11-01T01:43:35.247Z,,0,,,NaN,,,,,,false,,,,670351.8000000119,670351.6999999881,,670351.5999999642,,670352.699,8,400,,,
sequence,flow.Sequence,4_108,2023-11-01T01:43:35.247Z,,0,,,4132.1649999880465,completion,,,,,false,,,,670351.8999999762,670351.6999999881,666203.375,666205.3000000119,666219.535,670352.699,8,400,,,
trial,html.Screen,4_109_0,2023-11-01T01:43:38.737Z,,0,3,,3489.5009999880567,response,ISIC_0032265.JPG,5,ISIC_0033616.JPG,ISIC_0032265.JPG,false,1,keypress(m),500,673842.3000000119,673842.1999999881,670335.984,670351.8999999762,670352.699,673852.581,8,400,10,,ISIC_0033616.JPG
break,html.Screen,4_109_1,2023-11-01T01:43:38.738Z,,0,,,NaN,,,,,,false,,,,673842.8999999762,673842.5999999642,,673842.5,,673852.581,8,400,,,
break_continue,html.Screen,4_109_2,2023-11-01T01:43:38.738Z,,0,,,NaN,,,,,,false,,,,673843.0999999642,673843,,673843,,673852.581,8,400,,,
sequence,flow.Sequence,4_109,2023-11-01T01:43:38.738Z,,0,,,3490.3009999999776,completion,,,,,false,,,,673843.3000000119,673843,670335.984,670351.8999999762,670352.699,673852.581,8,400,,,
trial,html.Screen,4_110_0,2023-11-01T01:43:42.148Z,,0,3,,3400.5189999642316,response,ISIC_2987630.JPG,5,ISIC_0011247.JPG,ISIC_2987630.JPG,false,1,keypress(m),500,677253.3000000119,677253.0999999642,673835.813,673843.3000000119,673852.581,677269.299,8,400,11,,ISIC_0011247.JPG
break,html.Screen,4_110_1,2023-11-01T01:43:42.149Z,,0,,,NaN,,,,,,false,,,,677253.6999999881,677253.5,,677253.3999999762,,677269.299,8,400,,,
break_continue,html.Screen,4_110_2,2023-11-01T01:43:42.149Z,,0,,,NaN,,,,,,false,,,,677254.0999999642,677254,,677253.8000000119,,677269.299,8,400,,,
sequence,flow.Sequence,4_110,2023-11-01T01:43:42.149Z,,0,,,3401.4189999999944,completion,,,,,false,,,,677254.3000000119,677254,673835.813,673843.3000000119,673852.581,677269.299,8,400,,,
trial,html.Screen,4_111_0,2023-11-01T01:43:45.688Z,,0,3,,3523.001000011922,response,ISIC_0031104.JPG,6,ISIC_5952650.JPG,ISIC_5952650.JPG,false,0,keypress(z),500,680792.6999999881,680792.3000000119,677252.389,677254.3000000119,677269.299,680802.196,8,400,12,,ISIC_0031104.JPG
break,html.Screen,4_111_1,2023-11-01T01:43:45.689Z,,0,,,NaN,,,,,,false,,,,680794,680793.3999999762,,680792.8999999762,,680802.196,8,400,,,
break_continue,html.Screen,4_111_2,2023-11-01T01:43:45.690Z,,0,,,NaN,,,,,,false,,,,680794.5999999642,680794.3999999762,,680794.1999999881,,680802.196,8,400,,,
sequence,flow.Sequence,4_111,2023-11-01T01:43:45.690Z,,0,,,3525.100999976159,completion,,,,,false,,,,680794.8999999762,680794.3999999762,677252.389,677254.3000000119,677269.299,680802.196,8,400,,,
trial,html.Screen,4_112_0,2023-11-01T01:43:48.700Z,,0,3,,3003.1040000119247,response,ISIC_0026207.JPG,5,ISIC_0065013.JPG,ISIC_0026207.JPG,false,1,keypress(m),500,683805.5999999642,683805.3000000119,680786.025,680795.0999999642,680802.196,683835.634,8,400,13,,ISIC_0065013.JPG
break,html.Screen,4_112_1,2023-11-01T01:43:48.701Z,,0,,,NaN,,,,,,false,,,,683806.5,683806.1999999881,,683805.8000000119,,683835.634,8,400,,,
break_continue,html.Screen,4_112_2,2023-11-01T01:43:48.702Z,,0,,,NaN,,,,,,false,,,,683806.8999999762,683806.6999999881,,683806.5999999642,,683835.634,8,400,,,
sequence,flow.Sequence,4_112,2023-11-01T01:43:48.702Z,,0,,,3004.503999988083,completion,,,,,false,,,,683807.1999999881,683806.6999999881,680786.025,680795.0999999642,680802.196,683835.634,8,400,,,
trial,html.Screen,4_113_0,2023-11-01T01:43:53.041Z,,0,3,,4309.965999964275,response,ISIC_0068447.JPG,5,ISIC_6265473.JPG,ISIC_0068447.JPG,false,1,keypress(m),500,688145.8999999762,688145.5999999642,683818.979,683807.3000000119,683835.634,688151.878,8,400,14,,ISIC_6265473.JPG
break,html.Screen,4_113_1,2023-11-01T01:43:53.042Z,,0,,,NaN,,,,,,false,,,,688147,688146.5,,688146.0999999642,,688151.878,8,400,,,
break_continue,html.Screen,4_113_2,2023-11-01T01:43:53.042Z,,0,,,NaN,,,,,,false,,,,688147.5,688147.3000000119,,688147.0999999642,,688151.878,8,400,,,
sequence,flow.Sequence,4_113,2023-11-01T01:43:53.043Z,,0,,,4311.666000011959,completion,,,,,false,,,,688147.8000000119,688147.3000000119,683818.979,683807.3000000119,683835.634,688151.878,8,400,,,
trial,html.Screen,4_114_0,2023-11-01T01:43:56.181Z,,0,3,,3133.721999964211,response,ISIC_9572152.JPG,4,ISIC_0073119.JPG,ISIC_0073119.JPG,false,0,keypress(z),500,691285.8999999762,691285.5999999642,688135.661,688147.8999999762,688151.878,691301.737,8,400,15,,ISIC_9572152.JPG
break,html.Screen,4_114_1,2023-11-01T01:43:56.182Z,,0,,,NaN,,,,,,false,,,,691287,691286.5999999642,,691286.1999999881,,691301.737,8,400,,,
break_continue,html.Screen,4_114_2,2023-11-01T01:43:56.182Z,,0,,,NaN,,,,,,false,,,,691287.5999999642,691287.3999999762,,691287.3000000119,,691301.737,8,400,,,
sequence,flow.Sequence,4_114,2023-11-01T01:43:56.183Z,,0,,,3135.521999976132,completion,,,,,false,,,,691287.6999999881,691287.3999999762,688135.661,688147.8000000119,688151.878,691301.737,8,400,,,
trial,html.Screen,4_115_0,2023-11-01T01:44:00.617Z,,0,3,,4419.6629999761935,response,ISIC_6269414.JPG,5,ISIC_0069351.JPG,ISIC_6269414.JPG,false,1,keypress(m),500,695721.5999999642,695721.3999999762,691285.516,691287.8999999762,691301.737,695735.136,8,400,16,,ISIC_0069351.JPG
break,html.Screen,4_115_1,2023-11-01T01:44:00.618Z,,0,,,NaN,,,,,,false,,,,695722.8000000119,695722.3000000119,,695721.8999999762,,695735.136,8,400,,,
break_continue,html.Screen,4_115_2,2023-11-01T01:44:00.618Z,,0,,,NaN,,,,,,false,,,,695723.1999999881,695723.0999999642,,695722.8999999762,,695735.136,8,400,,,
sequence,flow.Sequence,4_115,2023-11-01T01:44:00.618Z,,0,,,4421.362999964273,completion,,,,,false,,,,695723.5,695723.0999999642,691285.516,691287.8999999762,691301.737,695735.136,8,400,,,
trial,html.Screen,4_116_0,2023-11-01T01:44:06.221Z,,0,3,,5590.363999999943,response,ISIC_9210255.JPG,5,ISIC_0000301.JPG,ISIC_0000301.JPG,false,0,keypress(z),500,701325.8000000119,701325.5,695718.525,695723.5999999642,695735.136,701351.269,8,400,17,,ISIC_9210255.JPG
break,html.Screen,4_116_1,2023-11-01T01:44:06.222Z,,0,,,NaN,,,,,,false,,,,701327.0999999642,701326.5,,701326.0999999642,,701351.269,8,400,,,
break_continue,html.Screen,4_116_2,2023-11-01T01:44:06.223Z,,0,,,NaN,,,,,,false,,,,701327.8000000119,701327.5,,701327.3000000119,,701351.269,8,400,,,
sequence,flow.Sequence,4_116,2023-11-01T01:44:06.223Z,,0,,,5592.363999999943,completion,,,,,false,,,,701328.1999999881,701327.5,695718.525,695723.5999999642,695735.136,701351.269,8,400,,,
trial,html.Screen,4_117_0,2023-11-01T01:44:11.554Z,,0,3,,5307.830999964266,response,ISIC_6390738.JPG,5,ISIC_1612350.JPG,ISIC_1612350.JPG,false,0,keypress(z),500,706659.3999999762,706659.0999999642,701334.825,701328.5,701351.269,706667.664,8,400,18,,ISIC_6390738.JPG
break,html.Screen,4_117_1,2023-11-01T01:44:11.555Z,,0,,,NaN,,,,,,false,,,,706660.5,706660.0999999642,,706659.5999999642,,706667.664,8,400,,,
break_continue,html.Screen,4_117_2,2023-11-01T01:44:11.556Z,,0,,,NaN,,,,,,false,,,,706661,706660.6999999881,,706660.6999999881,,706667.664,8,400,,,
sequence,flow.Sequence,4_117,2023-11-01T01:44:11.556Z,,0,,,5309.430999988108,completion,,,,,false,,,,706661.1999999881,706660.6999999881,701334.825,701328.3999999762,701351.269,706667.664,8,400,,,
trial,html.Screen,4_118_0,2023-11-01T01:44:16.134Z,,0,3,,4571.535999988089,response,ISIC_0026879.JPG,5,ISIC_3842916.JPG,ISIC_0026879.JPG,false,1,keypress(m),500,711239.3000000119,711239.1999999881,706651.176,706661.3000000119,706667.664,711267.951,8,400,19,,ISIC_3842916.JPG
break,html.Screen,4_118_1,2023-11-01T01:44:16.135Z,,0,,,NaN,,,,,,false,,,,711240,711239.8999999762,,711239.5999999642,,711267.951,8,400,,,
break_continue,html.Screen,4_118_2,2023-11-01T01:44:16.135Z,,0,,,NaN,,,,,,false,,,,711240.3999999762,711240.3000000119,,711240.1999999881,,711267.951,8,400,,,
sequence,flow.Sequence,4_118,2023-11-01T01:44:16.135Z,,0,,,4572.636000011931,completion,,,,,false,,,,711240.5999999642,711240.3000000119,706651.176,706661.1999999881,706667.664,711267.951,8,400,,,
trial,html.Screen,4_119_0,2023-11-01T01:44:20.122Z,,0,3,,3958.6489999642363,response,ISIC_0072175.JPG,5,ISIC_0683389.JPG,ISIC_0683389.JPG,false,0,keypress(z),500,715226.8000000119,715226.5999999642,711251.344,711240.6999999881,711267.951,715233.957,8,400,20,,ISIC_0072175.JPG
break,html.Screen,4_119_1,2023-11-01T01:44:20.123Z,,0,,,NaN,,,,,,false,,,,715228,715227.5,,715227.0999999642,,715233.957,8,400,,,
break_continue,html.Screen,4_119_2,2023-11-01T01:44:20.123Z,,0,,,NaN,,,,,,false,,,,715228.5,715228.3000000119,,715228.0999999642,,715233.957,8,400,,,
sequence,flow.Sequence,4_119,2023-11-01T01:44:20.123Z,,0,,,3960.34900001192,completion,,,,,false,,,,715228.5999999642,715228.3000000119,711251.344,711240.6999999881,711267.951,715233.957,8,400,,,
trial,html.Screen,4_120_0,2023-11-01T01:44:24.461Z,,0,3,,4332.442999976105,response,ISIC_0025523.JPG,6,ISIC_5961092.JPG,ISIC_0025523.JPG,false,1,keypress(m),500,719566.6999999881,719566.3999999762,715217.421,715228.8000000119,715233.957,719583.815,8,400,21,,ISIC_5961092.JPG
break,html.Screen,4_120_1,2023-11-01T01:44:24.463Z,,0,,,NaN,,,,,,false,,,,719567.8000000119,719567.3999999762,,719567,,719583.815,8,400,,,
break_continue,html.Screen,4_120_2,2023-11-01T01:44:24.463Z,,0,,,NaN,,,,,,false,,,,719568.1999999881,719568.0999999642,,719568,,719583.815,8,400,,,
sequence,flow.Sequence,4_120,2023-11-01T01:44:24.463Z,,0,,,4334.142999964184,completion,,,,,false,,,,719568.5,719568.0999999642,715217.421,715228.6999999881,715233.957,719583.815,8,400,,,
trial,html.Screen,4_121_0,2023-11-01T01:44:28.674Z,,0,3,,4194.985000011977,response,ISIC_4980079.JPG,5,ISIC_6507792.JPG,ISIC_4980079.JPG,false,1,keypress(m),500,723779,723778.8000000119,719567.273,719568.8000000119,719583.815,723783.548,8,400,22,,ISIC_6507792.JPG
break,html.Screen,4_121_1,2023-11-01T01:44:28.675Z,,0,,,NaN,,,,,,false,,,,723780.1999999881,723779.6999999881,,723779.3000000119,,723783.548,8,400,,,
break_continue,html.Screen,4_121_2,2023-11-01T01:44:28.676Z,,0,,,NaN,,,,,,false,,,,723780.6999999881,723780.5999999642,,723780.3000000119,,723783.548,8,400,,,
sequence,flow.Sequence,4_121,2023-11-01T01:44:28.676Z,,0,,,4196.784999964293,completion,,,,,false,,,,723781,723780.5999999642,719567.273,719568.6999999881,719583.815,723783.548,8,400,,,
trial,html.Screen,4_122_0,2023-11-01T01:44:34.038Z,,0,3,,5359.252000011969,response,ISIC_2668481.JPG,5,ISIC_0015264.JPG,ISIC_2668481.JPG,false,1,keypress(m),500,729143.5999999642,729142.8000000119,723767.265,723781.0999999642,723783.548,729150.03,8,400,23,,ISIC_0015264.JPG
break,html.Screen,4_122_1,2023-11-01T01:44:34.040Z,,0,,,NaN,,,,,,false,,,,729145.3000000119,729144.6999999881,,729144.0999999642,,729150.03,8,400,,,
break_continue,html.Screen,4_122_2,2023-11-01T01:44:34.041Z,,0,,,NaN,,,,,,false,,,,729146.0999999642,729145.8000000119,,729145.5999999642,,729150.03,8,400,,,
sequence,flow.Sequence,4_122,2023-11-01T01:44:34.041Z,,0,,,5362.252000011969,completion,,,,,false,,,,729146.3999999762,729145.8000000119,723767.265,723781,723783.548,729150.03,8,400,,,
trial,html.Screen,4_123_0,2023-11-01T01:44:39.516Z,,0,3,,5470.770000011893,response,ISIC_0057164.JPG,5,ISIC_0032687.JPG,ISIC_0057164.JPG,false,1,keypress(m),500,734621.0999999642,734620.8000000119,729133.775,729146.5999999642,729150.03,734633.125,8,400,24,,ISIC_0032687.JPG
break,html.Screen,4_123_1,2023-11-01T01:44:39.518Z,,0,,,NaN,,,,,,false,,,,734623.3000000119,734621.8000000119,,734621.3999999762,,734633.125,8,400,,,
break_continue,html.Screen,4_123_2,2023-11-01T01:44:39.519Z,,0,,,NaN,,,,,,false,,,,734624.1999999881,734624,,734623.8000000119,,734633.125,8,400,,,
sequence,flow.Sequence,4_123,2023-11-01T01:44:39.519Z,,0,,,5473.969999999972,completion,,,,,false,,,,734624.5,734624,729133.775,729146.5999999642,729150.03,734633.125,8,400,,,
trial,html.Screen,4_124_0,2023-11-01T01:44:43.683Z,,0,3,,4154.675000011921,response,ISIC_5721677.JPG,6,ISIC_0010380.JPG,ISIC_5721677.JPG,false,1,keypress(m),500,738788.0999999642,738787.8000000119,734616.914,734624.6999999881,734633.125,738799.704,8,400,25,,ISIC_0010380.JPG
break,html.Screen,4_124_1,2023-11-01T01:44:43.684Z,,0,,,NaN,,,,,,false,,,,738789.3999999762,738788.8000000119,,738788.3999999762,,738799.704,8,400,,,
break_continue,html.Screen,4_124_2,2023-11-01T01:44:43.685Z,,0,,,NaN,,,,,,false,,,,738790.0999999642,738789.6999999881,,738789.5,,738799.704,8,400,,,
sequence,flow.Sequence,4_124,2023-11-01T01:44:43.685Z,,0,,,4156.574999988079,completion,,,,,false,,,,738790.5,738789.6999999881,734616.914,734624.5999999642,734633.125,738799.704,8,400,,,
trial,html.Screen,4_125_0,2023-11-01T01:44:47.800Z,,0,3,,4105.495999988052,response,ISIC_0030718.JPG,6,ISIC_1004416.JPG,ISIC_0030718.JPG,false,1,keypress(m),500,742905.5999999642,742905.1999999881,738783.298,738790.5999999642,738799.704,742916.131,8,400,26,,ISIC_1004416.JPG
break,html.Screen,4_125_1,2023-11-01T01:44:47.802Z,,0,,,NaN,,,,,,false,,,,742906.8000000119,742906.0999999642,,742905.8000000119,,742916.131,8,400,,,
