sender,sender_type,sender_id,timestamp,meta,,blockNo,condition,duration,ended_on,img_left,img_reveal,img_right,loser,practice,response,response_action,selection_duration,time_commit,time_end,time_render,time_run,time_show,time_switch,total_blocks,total_trials,trialNo,url,winner
informed_consent,html.Screen,0,2023-05-01T21:49:57.441Z,"{""labjs_version"":""20.2.4"",""labjs_build"":{""flavor"":""production"",""commit"":""f5b4a49f956347addd546a832a3327688c2c0fef""},""location"":""https://run.pavlovia.org/MurrayBennett/melanoma-2afc/?participant=64631"",""userAgent"":""Mozilla/5.0 (Windows NT 10.0; Win64; x64) AppleWebKit/537.36 (KHTML, like Gecko) Chrome/112.0.0.0 Safari/537.36"",""platform"":""Win32"",""language"":""en-US"",""locale"":""en-US"",""timeZone"":""America/Chicago"",""timezoneOffset"":300,""screen_width"":1922,""screen_height"":969,""scroll_width"":1920,""scroll_height"":917,""window_innerWidth"":1920,""window_innerHeight"":965,""devicePixelRatio"":1}",,,,4127,response,,,,,,consent,click button,,5943,5942,1641,1813,1815,5946,,,,"{""participant"":""64631""}",
Welcome,html.Screen,1,2023-05-01T21:50:45.913Z,,,,regular,48469,response,,,,,,continue,click button,,54415,54415,5939,5943,5946,54429,,,,,
trial,html.Screen,2_0_0,2023-05-01T21:50:53.194Z,,0,0,,7267,response,ISIC_0061792.JPG,,ISIC_4679428.JPG,ISIC_4679428.JPG,true,0,keypress(z),500,61697,61696,54409,54415,54429,61699,1,6,1,,ISIC_0061792.JPG
sequence,flow.Sequence,2_0,2023-05-01T21:50:53.194Z,,0,,,7267,completion,,,,,true,,,,61697,61696,54409,54415,54429,61699,1,6,,,
trial,html.Screen,2_1_0,2023-05-01T21:51:01.222Z,,0,0,,8026,response,ISIC_0776486.JPG,,ISIC_5199497.JPG,ISIC_5199497.JPG,true,0,keypress(z),500,69725,69725,61692,61697,61699,69725,1,6,2,,ISIC_0776486.JPG
sequence,flow.Sequence,2_1,2023-05-01T21:51:01.222Z,,0,,,8026,completion,,,,,true,,,,69725,69725,61692,61697,61699,69725,1,6,,,
trial,html.Screen,2_2_0,2023-05-01T21:51:08.628Z,,0,0,,7405,response,ISIC_2556187.JPG,,ISIC_8575776.JPG,ISIC_2556187.JPG,true,1,keypress(m),500,77130,77130,69718,69725,69725,77133,1,6,3,,ISIC_8575776.JPG
sequence,flow.Sequence,2_2,2023-05-01T21:51:08.628Z,,0,,,7405,completion,,,,,true,,,,77131,77130,69718,69725,69725,77133,1,6,,,
trial,html.Screen,2_3_0,2023-05-01T21:51:12.151Z,,0,0,,3520,response,ISIC_8141769.JPG,,ISIC_9238366.JPG,ISIC_9238366.JPG,true,0,keypress(z),500,80653,80653,77126,77131,77133,80654,1,6,4,,ISIC_8141769.JPG
sequence,flow.Sequence,2_3,2023-05-01T21:51:12.151Z,,0,,,3520,completion,,,,,true,,,,80653,80653,77126,77131,77133,80654,1,6,,,
trial,html.Screen,2_4_0,2023-05-01T21:51:16.711Z,,0,0,,4559,response,ISIC_8949026.JPG,,ISIC_9959593.JPG,ISIC_9959593.JPG,true,0,keypress(z),500,85214,85213,80653,80653,80654,85215,1,6,5,,ISIC_8949026.JPG
sequence,flow.Sequence,2_4,2023-05-01T21:51:16.711Z,,0,,,4559,completion,,,,,true,,,,85214,85213,80653,80653,80654,85215,1,6,,,
trial,html.Screen,2_5_0,2023-05-01T21:51:23.948Z,,0,0,,7235,response,ISIC_0010479.JPG,,ISIC_0460240.JPG,ISIC_0010479.JPG,true,1,keypress(m),500,92450,92450,85208,85214,85215,92457,1,6,6,,ISIC_0460240.JPG
sequence,flow.Sequence,2_5,2023-05-01T21:51:23.948Z,,0,,,7235,completion,,,,,true,,,,92451,92450,85208,85214,85215,92457,1,6,,,
loop,flow.Loop,2,2023-05-01T21:51:23.948Z,,,,,38021,completion,,,,,true,,,,92451,92450,54409,54415,54429,92457,1,6,,,
exp_instructions,html.Screen,3,2023-05-01T21:51:30.048Z,,,,,6094,response,,,,,,continue,keypress(Space),,98551,98551,92450,92451,92457,98553,,,,,
trial,html.Screen,4_0_0,2023-05-01T21:51:33.901Z,,0,1,,3850,response,ISIC_0001101.JPG,,ISIC_0014765.JPG,ISIC_0014765.JPG,false,0,keypress(z),500,102403,102403,98545,98551,98553,102406,8,400,1,,ISIC_0001101.JPG
break,html.Screen,4_0_1,2023-05-01T21:51:33.901Z,,0,,,NaN,,,,,,false,,,,102403,102403,,102403,,102406,8,400,,,
break_continue,html.Screen,4_0_2,2023-05-01T21:51:33.902Z,,0,,,NaN,,,,,,false,,,,102404,102404,,102403,,102406,8,400,,,
sequence,flow.Sequence,4_0,2023-05-01T21:51:33.902Z,,0,,,3851,completion,,,,,false,,,,102404,102404,98545,98551,98553,102406,8,400,,,
trial,html.Screen,4_1_0,2023-05-01T21:51:41.776Z,,0,1,,7872,response,ISIC_8248922.JPG,,ISIC_4519298.JPG,ISIC_8248922.JPG,false,1,keypress(m),500,110278,110278,102399,102404,102406,110280,8,400,2,,ISIC_4519298.JPG
break,html.Screen,4_1_1,2023-05-01T21:51:41.777Z,,0,,,NaN,,,,,,false,,,,110279,110278,,110278,,110280,8,400,,,
break_continue,html.Screen,4_1_2,2023-05-01T21:51:41.777Z,,0,,,NaN,,,,,,false,,,,110279,110279,,110279,,110280,8,400,,,
sequence,flow.Sequence,4_1,2023-05-01T21:51:41.777Z,,0,,,7873,completion,,,,,false,,,,110279,110279,102399,102404,102406,110280,8,400,,,
trial,html.Screen,4_2_0,2023-05-01T21:51:45.045Z,,0,1,,3267,response,ISIC_0027537.JPG,,ISIC_5449076.JPG,ISIC_0027537.JPG,false,1,keypress(m),500,113547,113547,110273,110279,110280,113550,8,400,3,,ISIC_5449076.JPG
break,html.Screen,4_2_1,2023-05-01T21:51:45.045Z,,0,,,NaN,,,,,,false,,,,113548,113548,,113547,,113550,8,400,,,
break_continue,html.Screen,4_2_2,2023-05-01T21:51:45.045Z,,0,,,NaN,,,,,,false,,,,113548,113548,,113548,,113550,8,400,,,
sequence,flow.Sequence,4_2,2023-05-01T21:51:45.046Z,,0,,,3268,completion,,,,,false,,,,113548,113548,110273,110279,110280,113550,8,400,,,
trial,html.Screen,4_3_0,2023-05-01T21:51:48.394Z,,0,1,,3346,response,ISIC_0025155.JPG,,ISIC_3058627.JPG,ISIC_0025155.JPG,false,1,keypress(m),500,116896,116896,113543,113548,113550,116897,8,400,4,,ISIC_3058627.JPG
break,html.Screen,4_3_1,2023-05-01T21:51:48.394Z,,0,,,NaN,,,,,,false,,,,116896,116896,,116896,,116897,8,400,,,
break_continue,html.Screen,4_3_2,2023-05-01T21:51:48.394Z,,0,,,NaN,,,,,,false,,,,116896,116896,,116896,,116897,8,400,,,
sequence,flow.Sequence,4_3,2023-05-01T21:51:48.394Z,,0,,,3346,completion,,,,,false,,,,116896,116896,113543,113548,113550,116897,8,400,,,
trial,html.Screen,4_4_0,2023-05-01T21:51:51.446Z,,0,1,,3051,response,ISIC_4197990.JPG,,ISIC_0058016.JPG,ISIC_0058016.JPG,false,0,keypress(z),500,119948,119948,116890,116896,116897,119952,8,400,5,,ISIC_4197990.JPG
break,html.Screen,4_4_1,2023-05-01T21:51:51.446Z,,0,,,NaN,,,,,,false,,,,119949,119949,,119948,,119952,8,400,,,
break_continue,html.Screen,4_4_2,2023-05-01T21:51:51.446Z,,0,,,NaN,,,,,,false,,,,119949,119949,,119949,,119952,8,400,,,
sequence,flow.Sequence,4_4,2023-05-01T21:51:51.446Z,,0,,,3052,completion,,,,,false,,,,119949,119949,116890,116896,116897,119952,8,400,,,
trial,html.Screen,4_5_0,2023-05-01T21:51:54.462Z,,0,1,,3012,response,ISIC_8943855.JPG,,ISIC_8181142.JPG,ISIC_8943855.JPG,false,1,keypress(m),500,122964,122964,119944,119949,119952,122965,8,400,6,,ISIC_8181142.JPG
break,html.Screen,4_5_1,2023-05-01T21:51:54.463Z,,0,,,NaN,,,,,,false,,,,122965,122965,,122964,,122965,8,400,,,
break_continue,html.Screen,4_5_2,2023-05-01T21:51:54.463Z,,0,,,NaN,,,,,,false,,,,122965,122965,,122965,,122965,8,400,,,
sequence,flow.Sequence,4_5,2023-05-01T21:51:54.463Z,,0,,,3013,completion,,,,,false,,,,122965,122965,119944,119949,119952,122965,8,400,,,
trial,html.Screen,4_6_0,2023-05-01T21:51:57.377Z,,0,1,,2913,response,ISIC_0027076.JPG,,ISIC_7696538.JPG,ISIC_7696538.JPG,false,0,keypress(z),500,125878,125878,122958,122965,122965,125881,8,400,7,,ISIC_0027076.JPG
break,html.Screen,4_6_1,2023-05-01T21:51:57.377Z,,0,,,NaN,,,,,,false,,,,125878,125878,,125878,,125881,8,400,,,
break_continue,html.Screen,4_6_2,2023-05-01T21:51:57.377Z,,0,,,NaN,,,,,,false,,,,125878,125878,,125878,,125881,8,400,,,
sequence,flow.Sequence,4_6,2023-05-01T21:51:57.377Z,,0,,,2913,completion,,,,,false,,,,125878,125878,122958,122965,122965,125881,8,400,,,
trial,html.Screen,4_7_0,2023-05-01T21:52:02.927Z,,0,1,,5548,response,ISIC_0002622.JPG,,ISIC_0053725.JPG,ISIC_0053725.JPG,false,0,keypress(z),500,131429,131429,125874,125879,125881,131429,8,400,8,,ISIC_0002622.JPG
break,html.Screen,4_7_1,2023-05-01T21:52:02.927Z,,0,,,NaN,,,,,,false,,,,131429,131429,,131429,,131429,8,400,,,
break_continue,html.Screen,4_7_2,2023-05-01T21:52:02.927Z,,0,,,NaN,,,,,,false,,,,131429,131429,,131429,,131429,8,400,,,
sequence,flow.Sequence,4_7,2023-05-01T21:52:02.927Z,,0,,,5548,completion,,,,,false,,,,131429,131429,125874,125879,125881,131429,8,400,,,
trial,html.Screen,4_8_0,2023-05-01T21:52:06.014Z,,0,1,,3087,response,ISIC_0030597.JPG,,ISIC_0057406.JPG,ISIC_0057406.JPG,false,0,keypress(z),500,134516,134516,131422,131429,131429,134518,8,400,9,,ISIC_0030597.JPG
break,html.Screen,4_8_1,2023-05-01T21:52:06.014Z,,0,,,NaN,,,,,,false,,,,134516,134516,,134516,,134518,8,400,,,
break_continue,html.Screen,4_8_2,2023-05-01T21:52:06.014Z,,0,,,NaN,,,,,,false,,,,134517,134516,,134516,,134518,8,400,,,
sequence,flow.Sequence,4_8,2023-05-01T21:52:06.015Z,,0,,,3087,completion,,,,,false,,,,134517,134516,131422,131429,131429,134518,8,400,,,
trial,html.Screen,4_9_0,2023-05-01T21:52:10.861Z,,0,1,,4845,response,ISIC_0061418.JPG,,ISIC_0066378.JPG,ISIC_0066378.JPG,false,0,keypress(z),500,139363,139363,134511,134517,134518,139371,8,400,10,,ISIC_0061418.JPG
break,html.Screen,4_9_1,2023-05-01T21:52:10.862Z,,0,,,NaN,,,,,,false,,,,139363,139363,,139363,,139371,8,400,,,
break_continue,html.Screen,4_9_2,2023-05-01T21:52:10.862Z,,0,,,NaN,,,,,,false,,,,139363,139363,,139363,,139371,8,400,,,
sequence,flow.Sequence,4_9,2023-05-01T21:52:10.862Z,,0,,,4845,completion,,,,,false,,,,139363,139363,134511,134517,134518,139371,8,400,,,
trial,html.Screen,4_10_0,2023-05-01T21:52:16.475Z,,0,1,,5605,response,ISIC_0010546.JPG,,ISIC_0032190.JPG,ISIC_0032190.JPG,false,0,keypress(z),500,144977,144976,139364,139363,139371,144981,8,400,11,,ISIC_0010546.JPG
break,html.Screen,4_10_1,2023-05-01T21:52:16.476Z,,0,,,NaN,,,,,,false,,,,144977,144977,,144977,,144981,8,400,,,
break_continue,html.Screen,4_10_2,2023-05-01T21:52:16.476Z,,0,,,NaN,,,,,,false,,,,144977,144977,,144977,,144981,8,400,,,
sequence,flow.Sequence,4_10,2023-05-01T21:52:16.476Z,,0,,,5606,completion,,,,,false,,,,144977,144977,139364,139363,139371,144981,8,400,,,
trial,html.Screen,4_11_0,2023-05-01T21:52:19.246Z,,0,1,,2766,response,ISIC_0067893.JPG,,ISIC_0033518.JPG,ISIC_0033518.JPG,false,0,keypress(z),500,147747,147747,144974,144977,144981,147752,8,400,12,,ISIC_0067893.JPG
break,html.Screen,4_11_1,2023-05-01T21:52:19.247Z,,0,,,NaN,,,,,,false,,,,147748,147747,,147747,,147752,8,400,,,
break_continue,html.Screen,4_11_2,2023-05-01T21:52:19.247Z,,0,,,NaN,,,,,,false,,,,147748,147748,,147748,,147752,8,400,,,
sequence,flow.Sequence,4_11,2023-05-01T21:52:19.247Z,,0,,,2767,completion,,,,,false,,,,147748,147748,144974,144977,144981,147752,8,400,,,
trial,html.Screen,4_12_0,2023-05-01T21:52:26.736Z,,0,1,,7486,response,ISIC_1605945.JPG,,ISIC_0056534.JPG,ISIC_0056534.JPG,false,0,keypress(z),500,155238,155238,147745,147748,147752,155243,8,400,13,,ISIC_1605945.JPG
break,html.Screen,4_12_1,2023-05-01T21:52:26.737Z,,0,,,NaN,,,,,,false,,,,155238,155238,,155238,,155243,8,400,,,
break_continue,html.Screen,4_12_2,2023-05-01T21:52:26.737Z,,0,,,NaN,,,,,,false,,,,155239,155239,,155238,,155243,8,400,,,
sequence,flow.Sequence,4_12,2023-05-01T21:52:26.737Z,,0,,,7487,completion,,,,,false,,,,155239,155239,147745,147748,147752,155243,8,400,,,
trial,html.Screen,4_13_0,2023-05-01T21:52:31.564Z,,0,1,,4823,response,ISIC_6227397.JPG,,ISIC_7801289.JPG,ISIC_6227397.JPG,false,1,keypress(m),500,160066,160066,155236,155240,155243,160069,8,400,14,,ISIC_7801289.JPG
break,html.Screen,4_13_1,2023-05-01T21:52:31.564Z,,0,,,NaN,,,,,,false,,,,160066,160066,,160066,,160069,8,400,,,
break_continue,html.Screen,4_13_2,2023-05-01T21:52:31.564Z,,0,,,NaN,,,,,,false,,,,160066,160066,,160066,,160069,8,400,,,
sequence,flow.Sequence,4_13,2023-05-01T21:52:31.564Z,,0,,,4823,completion,,,,,false,,,,160066,160066,155236,155239,155243,160069,8,400,,,
trial,html.Screen,4_14_0,2023-05-01T21:52:34.631Z,,0,1,,3064,response,ISIC_0013565.JPG,,ISIC_9161898.JPG,ISIC_0013565.JPG,false,1,keypress(m),500,163133,163133,160062,160066,160069,163138,8,400,15,,ISIC_9161898.JPG
break,html.Screen,4_14_1,2023-05-01T21:52:34.631Z,,0,,,NaN,,,,,,false,,,,163133,163133,,163133,,163138,8,400,,,
break_continue,html.Screen,4_14_2,2023-05-01T21:52:34.631Z,,0,,,NaN,,,,,,false,,,,163133,163133,,163133,,163138,8,400,,,
sequence,flow.Sequence,4_14,2023-05-01T21:52:34.631Z,,0,,,3064,completion,,,,,false,,,,163133,163133,160062,160066,160069,163138,8,400,,,
trial,html.Screen,4_15_0,2023-05-01T21:52:37.442Z,,0,1,,2806,response,ISIC_0032287.JPG,,ISIC_0012840.JPG,ISIC_0012840.JPG,false,0,keypress(z),500,165944,165944,163131,163133,163138,165950,8,400,16,,ISIC_0032287.JPG
break,html.Screen,4_15_1,2023-05-01T21:52:37.443Z,,0,,,NaN,,,,,,false,,,,165945,165944,,165944,,165950,8,400,,,
break_continue,html.Screen,4_15_2,2023-05-01T21:52:37.443Z,,0,,,NaN,,,,,,false,,,,165945,165945,,165945,,165950,8,400,,,
sequence,flow.Sequence,4_15,2023-05-01T21:52:37.443Z,,0,,,2807,completion,,,,,false,,,,165945,165945,163131,163133,163138,165950,8,400,,,
trial,html.Screen,4_16_0,2023-05-01T21:52:41.678Z,,0,1,,4229,response,ISIC_0027804.JPG,,ISIC_0025544.JPG,ISIC_0027804.JPG,false,1,keypress(m),500,170179,170179,165943,165945,165950,170185,8,400,17,,ISIC_0025544.JPG
break,html.Screen,4_16_1,2023-05-01T21:52:41.678Z,,0,,,NaN,,,,,,false,,,,170180,170180,,170179,,170185,8,400,,,
break_continue,html.Screen,4_16_2,2023-05-01T21:52:41.678Z,,0,,,NaN,,,,,,false,,,,170180,170180,,170180,,170185,8,400,,,
sequence,flow.Sequence,4_16,2023-05-01T21:52:41.678Z,,0,,,4230,completion,,,,,false,,,,170180,170180,165943,165945,165950,170185,8,400,,,
trial,html.Screen,4_17_0,2023-05-01T21:52:45.139Z,,0,1,,3455,response,ISIC_0027067.JPG,,ISIC_0032140.JPG,ISIC_0027067.JPG,false,1,keypress(m),500,173640,173640,170178,170180,170185,173643,8,400,18,,ISIC_0032140.JPG
break,html.Screen,4_17_1,2023-05-01T21:52:45.139Z,,0,,,NaN,,,,,,false,,,,173640,173640,,173640,,173643,8,400,,,
break_continue,html.Screen,4_17_2,2023-05-01T21:52:45.139Z,,0,,,NaN,,,,,,false,,,,173640,173640,,173640,,173643,8,400,,,
sequence,flow.Sequence,4_17,2023-05-01T21:52:45.139Z,,0,,,3455,completion,,,,,false,,,,173641,173640,170178,170180,170185,173643,8,400,,,
trial,html.Screen,4_18_0,2023-05-01T21:52:48.707Z,,0,1,,3566,response,ISIC_0025409.JPG,,ISIC_0011862.JPG,ISIC_0011862.JPG,false,0,keypress(z),500,177209,177209,173636,173641,173643,177211,8,400,19,,ISIC_0025409.JPG
break,html.Screen,4_18_1,2023-05-01T21:52:48.708Z,,0,,,NaN,,,,,,false,,,,177209,177209,,177209,,177211,8,400,,,
break_continue,html.Screen,4_18_2,2023-05-01T21:52:48.708Z,,0,,,NaN,,,,,,false,,,,177209,177209,,177209,,177211,8,400,,,
sequence,flow.Sequence,4_18,2023-05-01T21:52:48.708Z,,0,,,3566,completion,,,,,false,,,,177209,177209,173636,173641,173643,177211,8,400,,,
trial,html.Screen,4_19_0,2023-05-01T21:52:52.083Z,,0,1,,3374,response,ISIC_0014189.JPG,,ISIC_6507412.JPG,ISIC_0014189.JPG,false,1,keypress(m),500,180585,180585,177204,177209,177211,180586,8,400,20,,ISIC_6507412.JPG
break,html.Screen,4_19_1,2023-05-01T21:52:52.083Z,,0,,,NaN,,,,,,false,,,,180585,180585,,180585,,180586,8,400,,,
break_continue,html.Screen,4_19_2,2023-05-01T21:52:52.084Z,,0,,,NaN,,,,,,false,,,,180586,180586,,180586,,180586,8,400,,,
sequence,flow.Sequence,4_19,2023-05-01T21:52:52.084Z,,0,,,3375,completion,,,,,false,,,,180586,180586,177204,177209,177211,180586,8,400,,,
trial,html.Screen,4_20_0,2023-05-01T21:52:55.413Z,,0,1,,3329,response,ISIC_1081430.JPG,,ISIC_6946260.JPG,ISIC_6946260.JPG,false,0,keypress(z),500,183915,183915,180579,180586,180586,183918,8,400,21,,ISIC_1081430.JPG
break,html.Screen,4_20_1,2023-05-01T21:52:55.413Z,,0,,,NaN,,,,,,false,,,,183916,183916,,183915,,183918,8,400,,,
break_continue,html.Screen,4_20_2,2023-05-01T21:52:55.413Z,,0,,,NaN,,,,,,false,,,,183916,183916,,183916,,183918,8,400,,,
sequence,flow.Sequence,4_20,2023-05-01T21:52:55.413Z,,0,,,3330,completion,,,,,false,,,,183916,183916,180579,180586,180586,183918,8,400,,,
trial,html.Screen,4_21_0,2023-05-01T21:52:58.334Z,,0,1,,2918,response,ISIC_4856536.JPG,,ISIC_0001602.JPG,ISIC_4856536.JPG,false,1,keypress(m),500,186837,186836,183911,183916,183918,186841,8,400,22,,ISIC_0001602.JPG
break,html.Screen,4_21_1,2023-05-01T21:52:58.335Z,,0,,,NaN,,,,,,false,,,,186837,186837,,186837,,186841,8,400,,,
break_continue,html.Screen,4_21_2,2023-05-01T21:52:58.335Z,,0,,,NaN,,,,,,false,,,,186837,186837,,186837,,186841,8,400,,,
sequence,flow.Sequence,4_21,2023-05-01T21:52:58.335Z,,0,,,2919,completion,,,,,false,,,,186837,186837,183911,183916,183918,186841,8,400,,,
trial,html.Screen,4_22_0,2023-05-01T21:53:01.075Z,,0,1,,2736,response,ISIC_0068895.JPG,,ISIC_2769292.JPG,ISIC_0068895.JPG,false,1,keypress(m),500,189577,189577,186835,186837,186841,189584,8,400,23,,ISIC_2769292.JPG
break,html.Screen,4_22_1,2023-05-01T21:53:01.075Z,,0,,,NaN,,,,,,false,,,,189578,189578,,189577,,189584,8,400,,,
break_continue,html.Screen,4_22_2,2023-05-01T21:53:01.076Z,,0,,,NaN,,,,,,false,,,,189579,189579,,189578,,189584,8,400,,,
sequence,flow.Sequence,4_22,2023-05-01T21:53:01.076Z,,0,,,2738,completion,,,,,false,,,,189579,189579,186835,186837,186841,189584,8,400,,,
trial,html.Screen,4_23_0,2023-05-01T21:53:06.455Z,,0,1,,5373,response,ISIC_0029170.JPG,,ISIC_0026781.JPG,ISIC_0026781.JPG,false,0,keypress(z),500,194958,194957,189577,189579,189584,194958,8,400,24,,ISIC_0029170.JPG
break,html.Screen,4_23_1,2023-05-01T21:53:06.455Z,,0,,,NaN,,,,,,false,,,,194958,194958,,194958,,194958,8,400,,,
break_continue,html.Screen,4_23_2,2023-05-01T21:53:06.455Z,,0,,,NaN,,,,,,false,,,,194958,194958,,194958,,194958,8,400,,,
sequence,flow.Sequence,4_23,2023-05-01T21:53:06.455Z,,0,,,5374,completion,,,,,false,,,,194958,194958,189577,189579,189584,194958,8,400,,,
trial,html.Screen,4_24_0,2023-05-01T21:53:09.250Z,,0,1,,2794,response,ISIC_0030194.JPG,,ISIC_0072021.JPG,ISIC_0030194.JPG,false,1,keypress(m),500,197752,197752,194951,194958,194958,197756,8,400,25,,ISIC_0072021.JPG
break,html.Screen,4_24_1,2023-05-01T21:53:09.250Z,,0,,,NaN,,,,,,false,,,,197753,197752,,197752,,197756,8,400,,,
break_continue,html.Screen,4_24_2,2023-05-01T21:53:09.250Z,,0,,,NaN,,,,,,false,,,,197753,197753,,197753,,197756,8,400,,,
sequence,flow.Sequence,4_24,2023-05-01T21:53:09.250Z,,0,,,2795,completion,,,,,false,,,,197753,197753,194951,194958,194958,197756,8,400,,,
trial,html.Screen,4_25_0,2023-05-01T21:53:12.007Z,,0,1,,2753,response,ISIC_8510848.JPG,,ISIC_9525136.JPG,ISIC_8510848.JPG,false,1,keypress(m),500,200509,200509,197749,197753,197756,200512,8,400,26,,ISIC_9525136.JPG
break,html.Screen,4_25_1,2023-05-01T21:53:12.007Z,,0,,,NaN,,,,,,false,,,,200509,200509,,200509,,200512,8,400,,,
break_continue,html.Screen,4_25_2,2023-05-01T21:53:12.007Z,,0,,,NaN,,,,,,false,,,,200510,200510,,200510,,200512,8,400,,,
sequence,flow.Sequence,4_25,2023-05-01T21:53:12.008Z,,0,,,2754,completion,,,,,false,,,,200510,200510,197749,197753,197756,200512,8,400,,,
trial,html.Screen,4_26_0,2023-05-01T21:53:16.805Z,,0,1,,4795,response,ISIC_0025006.JPG,,ISIC_0962121.JPG,ISIC_0962121.JPG,false,0,keypress(z),500,205307,205307,200506,200510,200512,205310,8,400,27,,ISIC_0025006.JPG
break,html.Screen,4_26_1,2023-05-01T21:53:16.805Z,,0,,,NaN,,,,,,false,,,,205307,205307,,205307,,205310,8,400,,,
break_continue,html.Screen,4_26_2,2023-05-01T21:53:16.805Z,,0,,,NaN,,,,,,false,,,,205307,205307,,205307,,205310,8,400,,,
sequence,flow.Sequence,4_26,2023-05-01T21:53:16.805Z,,0,,,4795,completion,,,,,false,,,,205307,205307,200506,200510,200512,205310,8,400,,,
trial,html.Screen,4_27_0,2023-05-01T21:53:19.413Z,,0,1,,2606,response,ISIC_3463156.JPG,,ISIC_0536321.JPG,ISIC_3463156.JPG,false,1,keypress(m),500,207916,207916,205303,205307,205310,207921,8,400,28,,ISIC_0536321.JPG
break,html.Screen,4_27_1,2023-05-01T21:53:19.414Z,,0,,,NaN,,,,,,false,,,,207917,207916,,207916,,207921,8,400,,,
break_continue,html.Screen,4_27_2,2023-05-01T21:53:19.414Z,,0,,,NaN,,,,,,false,,,,207917,207917,,207917,,207921,8,400,,,
sequence,flow.Sequence,4_27,2023-05-01T21:53:19.414Z,,0,,,2607,completion,,,,,false,,,,207917,207917,205303,205307,205310,207921,8,400,,,
trial,html.Screen,4_28_0,2023-05-01T21:53:22.381Z,,0,1,,2963,response,ISIC_3389704.JPG,,ISIC_1687004.JPG,ISIC_3389704.JPG,false,1,keypress(m),500,210884,210884,207913,207917,207921,210885,8,400,29,,ISIC_1687004.JPG
break,html.Screen,4_28_1,2023-05-01T21:53:22.381Z,,0,,,NaN,,,,,,false,,,,210884,210884,,210884,,210885,8,400,,,
break_continue,html.Screen,4_28_2,2023-05-01T21:53:22.381Z,,0,,,NaN,,,,,,false,,,,210884,210884,,210884,,210885,8,400,,,
sequence,flow.Sequence,4_28,2023-05-01T21:53:22.381Z,,0,,,2963,completion,,,,,false,,,,210884,210884,207913,207917,207921,210885,8,400,,,
trial,html.Screen,4_29_0,2023-05-01T21:53:24.866Z,,0,1,,2483,response,ISIC_2454898.JPG,,ISIC_3664380.JPG,ISIC_3664380.JPG,false,0,keypress(z),500,213368,213368,210878,210884,210885,213371,8,400,30,,ISIC_2454898.JPG
break,html.Screen,4_29_1,2023-05-01T21:53:24.866Z,,0,,,NaN,,,,,,false,,,,213369,213368,,213368,,213371,8,400,,,
break_continue,html.Screen,4_29_2,2023-05-01T21:53:24.866Z,,0,,,NaN,,,,,,false,,,,213369,213369,,213369,,213371,8,400,,,
sequence,flow.Sequence,4_29,2023-05-01T21:53:24.866Z,,0,,,2484,completion,,,,,false,,,,213369,213369,210878,210884,210885,213371,8,400,,,
trial,html.Screen,4_30_0,2023-05-01T21:53:28.841Z,,0,1,,3972,response,ISIC_8617277.JPG,,ISIC_7870290.JPG,ISIC_7870290.JPG,false,0,keypress(z),500,217344,217343,213364,213369,213371,217349,8,400,31,,ISIC_8617277.JPG
break,html.Screen,4_30_1,2023-05-01T21:53:28.841Z,,0,,,NaN,,,,,,false,,,,217344,217344,,217344,,217349,8,400,,,
break_continue,html.Screen,4_30_2,2023-05-01T21:53:28.841Z,,0,,,NaN,,,,,,false,,,,217344,217344,,217344,,217349,8,400,,,
sequence,flow.Sequence,4_30,2023-05-01T21:53:28.841Z,,0,,,3973,completion,,,,,false,,,,217344,217344,213364,213369,213371,217349,8,400,,,
trial,html.Screen,4_31_0,2023-05-01T21:53:33.933Z,,0,1,,5087,response,ISIC_0806138.JPG,,ISIC_3767325.JPG,ISIC_3767325.JPG,false,0,keypress(z),500,222436,222436,217342,217344,217349,222439,8,400,32,,ISIC_0806138.JPG
break,html.Screen,4_31_1,2023-05-01T21:53:33.933Z,,0,,,NaN,,,,,,false,,,,222436,222436,,222436,,222439,8,400,,,
break_continue,html.Screen,4_31_2,2023-05-01T21:53:33.933Z,,0,,,NaN,,,,,,false,,,,222436,222436,,222436,,222439,8,400,,,
sequence,flow.Sequence,4_31,2023-05-01T21:53:33.933Z,,0,,,5087,completion,,,,,false,,,,222436,222436,217342,217344,217349,222439,8,400,,,
trial,html.Screen,4_32_0,2023-05-01T21:53:36.786Z,,0,1,,2849,response,ISIC_7492530.JPG,,ISIC_6446779.JPG,ISIC_6446779.JPG,false,0,keypress(z),500,225288,225288,222432,222436,222439,225292,8,400,33,,ISIC_7492530.JPG
break,html.Screen,4_32_1,2023-05-01T21:53:36.786Z,,0,,,NaN,,,,,,false,,,,225288,225288,,225288,,225292,8,400,,,
break_continue,html.Screen,4_32_2,2023-05-01T21:53:36.786Z,,0,,,NaN,,,,,,false,,,,225289,225289,,225288,,225292,8,400,,,
sequence,flow.Sequence,4_32,2023-05-01T21:53:36.786Z,,0,,,2850,completion,,,,,false,,,,225289,225289,222432,222436,222439,225292,8,400,,,
trial,html.Screen,4_33_0,2023-05-01T21:53:43.671Z,,0,1,,6882,response,ISIC_6588853.JPG,,ISIC_0011924.JPG,ISIC_0011924.JPG,false,0,keypress(z),500,232174,232174,225285,225289,225292,232180,8,400,34,,ISIC_6588853.JPG
break,html.Screen,4_33_1,2023-05-01T21:53:43.672Z,,0,,,NaN,,,,,,false,,,,232175,232175,,232174,,232180,8,400,,,
break_continue,html.Screen,4_33_2,2023-05-01T21:53:43.672Z,,0,,,NaN,,,,,,false,,,,232175,232175,,232175,,232180,8,400,,,
sequence,flow.Sequence,4_33,2023-05-01T21:53:43.672Z,,0,,,6883,completion,,,,,false,,,,232175,232175,225285,225289,225292,232180,8,400,,,
trial,html.Screen,4_34_0,2023-05-01T21:53:46.713Z,,0,1,,3035,response,ISIC_3106058.JPG,,ISIC_8181142.JPG,ISIC_3106058.JPG,false,1,keypress(m),500,235215,235215,232173,232175,232180,235221,8,400,35,,ISIC_8181142.JPG
break,html.Screen,4_34_1,2023-05-01T21:53:46.714Z,,0,,,NaN,,,,,,false,,,,235216,235216,,235215,,235221,8,400,,,
break_continue,html.Screen,4_34_2,2023-05-01T21:53:46.714Z,,0,,,NaN,,,,,,false,,,,235216,235216,,235216,,235221,8,400,,,
sequence,flow.Sequence,4_34,2023-05-01T21:53:46.714Z,,0,,,3036,completion,,,,,false,,,,235216,235216,232173,232175,232180,235221,8,400,,,
trial,html.Screen,4_35_0,2023-05-01T21:53:52.988Z,,0,1,,6269,response,ISIC_9270367.JPG,,ISIC_0012037.JPG,ISIC_9270367.JPG,false,1,keypress(m),500,241490,241490,235214,235216,235221,241498,8,400,36,,ISIC_0012037.JPG
break,html.Screen,4_35_1,2023-05-01T21:53:52.988Z,,0,,,NaN,,,,,,false,,,,241490,241490,,241490,,241498,8,400,,,
break_continue,html.Screen,4_35_2,2023-05-01T21:53:52.988Z,,0,,,NaN,,,,,,false,,,,241490,241490,,241490,,241498,8,400,,,
sequence,flow.Sequence,4_35,2023-05-01T21:53:52.988Z,,0,,,6269,completion,,,,,false,,,,241490,241490,235214,235216,235221,241498,8,400,,,
trial,html.Screen,4_36_0,2023-05-01T21:53:56.181Z,,0,1,,3186,response,ISIC_0058198.JPG,,ISIC_8790198.JPG,ISIC_0058198.JPG,false,1,keypress(m),500,244684,244684,241491,241490,241498,244684,8,400,37,,ISIC_8790198.JPG
break,html.Screen,4_36_1,2023-05-01T21:53:56.181Z,,0,,,NaN,,,,,,false,,,,244684,244684,,244684,,244684,8,400,,,
break_continue,html.Screen,4_36_2,2023-05-01T21:53:56.181Z,,0,,,NaN,,,,,,false,,,,244684,244684,,244684,,244684,8,400,,,
sequence,flow.Sequence,4_36,2023-05-01T21:53:56.181Z,,0,,,3186,completion,,,,,false,,,,244684,244684,241491,241490,241498,244684,8,400,,,
trial,html.Screen,4_37_0,2023-05-01T21:53:59.350Z,,0,1,,3169,response,ISIC_6038490.JPG,,ISIC_0060937.JPG,ISIC_6038490.JPG,false,1,keypress(m),500,247853,247853,244677,244684,244684,247857,8,400,38,,ISIC_0060937.JPG
break,html.Screen,4_37_1,2023-05-01T21:53:59.350Z,,0,,,NaN,,,,,,false,,,,247853,247853,,247853,,247857,8,400,,,
break_continue,html.Screen,4_37_2,2023-05-01T21:53:59.350Z,,0,,,NaN,,,,,,false,,,,247853,247853,,247853,,247857,8,400,,,
sequence,flow.Sequence,4_37,2023-05-01T21:53:59.350Z,,0,,,3169,completion,,,,,false,,,,247853,247853,244677,244684,244684,247857,8,400,,,
trial,html.Screen,4_38_0,2023-05-01T21:54:03.900Z,,0,1,,4545,response,ISIC_0897526.JPG,,ISIC_3335505.JPG,ISIC_0897526.JPG,false,1,keypress(m),500,252402,252402,247850,247853,247857,252405,8,400,39,,ISIC_3335505.JPG
break,html.Screen,4_38_1,2023-05-01T21:54:03.900Z,,0,,,NaN,,,,,,false,,,,252402,252402,,252402,,252405,8,400,,,
break_continue,html.Screen,4_38_2,2023-05-01T21:54:03.900Z,,0,,,NaN,,,,,,false,,,,252402,252402,,252402,,252405,8,400,,,
sequence,flow.Sequence,4_38,2023-05-01T21:54:03.900Z,,0,,,4545,completion,,,,,false,,,,252402,252402,247850,247853,247857,252405,8,400,,,
trial,html.Screen,4_39_0,2023-05-01T21:54:07.930Z,,0,1,,4027,response,ISIC_0032939.JPG,,ISIC_0430837.JPG,ISIC_0032939.JPG,false,1,keypress(m),500,256432,256432,252398,252402,252405,256439,8,400,40,,ISIC_0430837.JPG
break,html.Screen,4_39_1,2023-05-01T21:54:07.931Z,,0,,,NaN,,,,,,false,,,,256433,256433,,256432,,256439,8,400,,,
break_continue,html.Screen,4_39_2,2023-05-01T21:54:07.931Z,,0,,,NaN,,,,,,false,,,,256433,256433,,256433,,256439,8,400,,,
sequence,flow.Sequence,4_39,2023-05-01T21:54:07.931Z,,0,,,4028,completion,,,,,false,,,,256433,256433,252398,252402,252405,256439,8,400,,,
trial,html.Screen,4_40_0,2023-05-01T21:54:10.619Z,,0,1,,2683,response,ISIC_3700351.JPG,,ISIC_0032671.JPG,ISIC_0032671.JPG,false,0,keypress(z),500,259122,259122,256432,256433,256439,259126,8,400,41,,ISIC_3700351.JPG
break,html.Screen,4_40_1,2023-05-01T21:54:10.619Z,,0,,,NaN,,,,,,false,,,,259122,259122,,259122,,259126,8,400,,,
break_continue,html.Screen,4_40_2,2023-05-01T21:54:10.619Z,,0,,,NaN,,,,,,false,,,,259122,259122,,259122,,259126,8,400,,,
sequence,flow.Sequence,4_40,2023-05-01T21:54:10.619Z,,0,,,2683,completion,,,,,false,,,,259122,259122,256432,256433,256439,259126,8,400,,,
trial,html.Screen,4_41_0,2023-05-01T21:54:13.629Z,,0,1,,3005,response,ISIC_8708106.JPG,,ISIC_0060397.JPG,ISIC_0060397.JPG,false,0,keypress(z),500,262131,262131,259119,259122,259126,262132,8,400,42,,ISIC_8708106.JPG
break,html.Screen,4_41_1,2023-05-01T21:54:13.629Z,,0,,,NaN,,,,,,false,,,,262131,262131,,262131,,262132,8,400,,,
break_continue,html.Screen,4_41_2,2023-05-01T21:54:13.629Z,,0,,,NaN,,,,,,false,,,,262131,262131,,262131,,262132,8,400,,,
sequence,flow.Sequence,4_41,2023-05-01T21:54:13.629Z,,0,,,3005,completion,,,,,false,,,,262131,262131,259119,259122,259126,262132,8,400,,,
trial,html.Screen,4_42_0,2023-05-01T21:54:16.903Z,,0,1,,3273,response,ISIC_0071733.JPG,,ISIC_2153686.JPG,ISIC_0071733.JPG,false,1,keypress(m),500,265405,265405,262125,262131,262132,265410,8,400,43,,ISIC_2153686.JPG
break,html.Screen,4_42_1,2023-05-01T21:54:16.903Z,,0,,,NaN,,,,,,false,,,,265405,265405,,265405,,265410,8,400,,,
break_continue,html.Screen,4_42_2,2023-05-01T21:54:16.903Z,,0,,,NaN,,,,,,false,,,,265405,265405,,265405,,265410,8,400,,,
sequence,flow.Sequence,4_42,2023-05-01T21:54:16.903Z,,0,,,3273,completion,,,,,false,,,,265405,265405,262125,262131,262132,265410,8,400,,,
trial,html.Screen,4_43_0,2023-05-01T21:54:19.467Z,,0,1,,2560,response,ISIC_6755132.JPG,,ISIC_5932383.JPG,ISIC_5932383.JPG,false,0,keypress(z),500,267970,267970,265403,265406,265410,267972,8,400,44,,ISIC_6755132.JPG
break,html.Screen,4_43_1,2023-05-01T21:54:19.468Z,,0,,,NaN,,,,,,false,,,,267971,267971,,267970,,267972,8,400,,,
break_continue,html.Screen,4_43_2,2023-05-01T21:54:19.468Z,,0,,,NaN,,,,,,false,,,,267971,267971,,267971,,267972,8,400,,,
sequence,flow.Sequence,4_43,2023-05-01T21:54:19.468Z,,0,,,2561,completion,,,,,false,,,,267971,267971,265403,265406,265410,267972,8,400,,,
trial,html.Screen,4_44_0,2023-05-01T21:54:22.340Z,,0,1,,2870,response,ISIC_2616719.JPG,,ISIC_0024759.JPG,ISIC_0024759.JPG,false,0,keypress(z),500,270842,270842,267965,267971,267972,270846,8,400,45,,ISIC_2616719.JPG
break,html.Screen,4_44_1,2023-05-01T21:54:22.340Z,,0,,,NaN,,,,,,false,,,,270843,270843,,270843,,270846,8,400,,,
break_continue,html.Screen,4_44_2,2023-05-01T21:54:22.340Z,,0,,,NaN,,,,,,false,,,,270843,270843,,270843,,270846,8,400,,,
sequence,flow.Sequence,4_44,2023-05-01T21:54:22.340Z,,0,,,2871,completion,,,,,false,,,,270843,270843,267965,267971,267972,270846,8,400,,,
trial,html.Screen,4_45_0,2023-05-01T21:54:25.729Z,,0,1,,3385,response,ISIC_0054391.JPG,,ISIC_0026009.JPG,ISIC_0054391.JPG,false,1,keypress(m),500,274231,274231,270839,270843,270846,274234,8,400,46,,ISIC_0026009.JPG
break,html.Screen,4_45_1,2023-05-01T21:54:25.729Z,,0,,,NaN,,,,,,false,,,,274232,274232,,274231,,274234,8,400,,,
break_continue,html.Screen,4_45_2,2023-05-01T21:54:25.729Z,,0,,,NaN,,,,,,false,,,,274232,274232,,274232,,274234,8,400,,,
sequence,flow.Sequence,4_45,2023-05-01T21:54:25.729Z,,0,,,3386,completion,,,,,false,,,,274232,274232,270839,270843,270846,274234,8,400,,,
trial,html.Screen,4_46_0,2023-05-01T21:54:29.092Z,,0,1,,3360,response,ISIC_6801988.JPG,,ISIC_2294790.JPG,ISIC_2294790.JPG,false,0,keypress(z),500,277594,277594,274227,274232,274234,277595,8,400,47,,ISIC_6801988.JPG
break,html.Screen,4_46_1,2023-05-01T21:54:29.092Z,,0,,,NaN,,,,,,false,,,,277595,277594,,277594,,277595,8,400,,,
break_continue,html.Screen,4_46_2,2023-05-01T21:54:29.092Z,,0,,,NaN,,,,,,false,,,,277595,277595,,277595,,277595,8,400,,,
sequence,flow.Sequence,4_46,2023-05-01T21:54:29.092Z,,0,,,3361,completion,,,,,false,,,,277595,277595,274227,274232,274234,277595,8,400,,,
trial,html.Screen,4_47_0,2023-05-01T21:54:31.682Z,,0,1,,2589,response,ISIC_0027673.JPG,,ISIC_1368336.JPG,ISIC_0027673.JPG,false,1,keypress(m),500,280184,280184,277588,277595,277595,280191,8,400,48,,ISIC_1368336.JPG
break,html.Screen,4_47_1,2023-05-01T21:54:31.682Z,,0,,,NaN,,,,,,false,,,,280185,280185,,280185,,280191,8,400,,,
break_continue,html.Screen,4_47_2,2023-05-01T21:54:31.682Z,,0,,,NaN,,,,,,false,,,,280185,280185,,280185,,280191,8,400,,,
sequence,flow.Sequence,4_47,2023-05-01T21:54:31.682Z,,0,,,2590,completion,,,,,false,,,,280185,280185,277588,277595,277595,280191,8,400,,,
trial,html.Screen,4_48_0,2023-05-01T21:54:35.152Z,,0,1,,3464,response,ISIC_0231745.JPG,,ISIC_1078854.JPG,ISIC_1078854.JPG,false,0,keypress(z),500,283655,283655,280184,280185,280191,283656,8,400,49,,ISIC_0231745.JPG
break,html.Screen,4_48_1,2023-05-01T21:54:35.153Z,,0,,,NaN,,,,,,false,,,,283655,283655,,283655,,283656,8,400,,,
break_continue,html.Screen,4_48_2,2023-05-01T21:54:35.153Z,,0,,,NaN,,,,,,false,,,,283655,283655,,283655,,283656,8,400,,,
sequence,flow.Sequence,4_48,2023-05-01T21:54:35.153Z,,0,,,3464,completion,,,,,false,,,,283655,283655,280184,280185,280191,283656,8,400,,,
trial,html.Screen,4_49_0,2023-05-01T21:54:38.078Z,,0,1,,2925,response,ISIC_0026089.JPG,,ISIC_5110133.JPG,ISIC_0026089.JPG,false,1,keypress(m),500,286581,286581,283649,283655,283656,286586,8,400,50,,ISIC_5110133.JPG
break,html.Screen,4_49_1,2023-05-01T21:54:43.076Z,,0,,,4999,timeout,,,,,false,,,,291579,291578,286579,286581,286586,291585,8,400,,,
break_continue,html.Screen,4_49_2,2023-05-01T21:54:43.604Z,,0,,,520,response,,,,,false,continue,keypress(Space),,292107,292105,291578,291579,291585,292113,8,400,,,
sequence,flow.Sequence,4_49,2023-05-01T21:54:43.604Z,,0,,,8449,completion,,,,,false,,,,292107,292105,283649,283655,283656,292113,8,400,,,
trial,html.Screen,4_50_0,2023-05-01T21:54:46.214Z,,0,2,,2603,response,ISIC_5507066.JPG,,ISIC_2142639.JPG,ISIC_5507066.JPG,false,1,keypress(m),500,294716,294716,292100,292107,292113,294723,8,400,1,,ISIC_2142639.JPG
break,html.Screen,4_50_1,2023-05-01T21:54:46.214Z,,0,,,NaN,,,,,,false,,,,294716,294716,,294716,,294723,8,400,,,
break_continue,html.Screen,4_50_2,2023-05-01T21:54:46.214Z,,0,,,NaN,,,,,,false,,,,294716,294716,,294716,,294723,8,400,,,
sequence,flow.Sequence,4_50,2023-05-01T21:54:46.214Z,,0,,,2603,completion,,,,,false,,,,294716,294716,292100,292107,292113,294723,8,400,,,
trial,html.Screen,4_51_0,2023-05-01T21:54:51.200Z,,0,2,,4979,response,ISIC_9334956.JPG,,ISIC_0057898.JPG,ISIC_0057898.JPG,false,0,keypress(z),500,299702,299702,294716,294716,294723,299708,8,400,2,,ISIC_9334956.JPG
break,html.Screen,4_51_1,2023-05-01T21:54:51.200Z,,0,,,NaN,,,,,,false,,,,299702,299702,,299702,,299708,8,400,,,
break_continue,html.Screen,4_51_2,2023-05-01T21:54:51.200Z,,0,,,NaN,,,,,,false,,,,299702,299702,,299702,,299708,8,400,,,
sequence,flow.Sequence,4_51,2023-05-01T21:54:51.200Z,,0,,,4979,completion,,,,,false,,,,299702,299702,294716,294716,294723,299708,8,400,,,
trial,html.Screen,4_52_0,2023-05-01T21:54:54.197Z,,0,2,,2991,response,ISIC_0033692.JPG,,ISIC_9239632.JPG,ISIC_0033692.JPG,false,1,keypress(m),500,302699,302699,299702,299702,299708,302701,8,400,3,,ISIC_9239632.JPG
break,html.Screen,4_52_1,2023-05-01T21:54:54.197Z,,0,,,NaN,,,,,,false,,,,302699,302699,,302699,,302701,8,400,,,
break_continue,html.Screen,4_52_2,2023-05-01T21:54:54.197Z,,0,,,NaN,,,,,,false,,,,302700,302699,,302699,,302701,8,400,,,
sequence,flow.Sequence,4_52,2023-05-01T21:54:54.197Z,,0,,,2991,completion,,,,,false,,,,302700,302699,299702,299702,299708,302701,8,400,,,
trial,html.Screen,4_53_0,2023-05-01T21:54:56.785Z,,0,2,,2587,response,ISIC_6931712.JPG,,ISIC_0014133.JPG,ISIC_0014133.JPG,false,0,keypress(z),500,305288,305288,302694,302700,302701,305291,8,400,4,,ISIC_6931712.JPG
break,html.Screen,4_53_1,2023-05-01T21:54:56.786Z,,0,,,NaN,,,,,,false,,,,305288,305288,,305288,,305291,8,400,,,
break_continue,html.Screen,4_53_2,2023-05-01T21:54:56.786Z,,0,,,NaN,,,,,,false,,,,305288,305288,,305288,,305291,8,400,,,
sequence,flow.Sequence,4_53,2023-05-01T21:54:56.786Z,,0,,,2587,completion,,,,,false,,,,305288,305288,302694,302700,302701,305291,8,400,,,
trial,html.Screen,4_54_0,2023-05-01T21:54:59.290Z,,0,2,,2501,response,ISIC_4525317.JPG,,ISIC_8348712.JPG,ISIC_4525317.JPG,false,1,keypress(m),500,307792,307792,305284,305288,305291,307797,8,400,5,,ISIC_8348712.JPG
break,html.Screen,4_54_1,2023-05-01T21:54:59.290Z,,0,,,NaN,,,,,,false,,,,307793,307793,,307792,,307797,8,400,,,
break_continue,html.Screen,4_54_2,2023-05-01T21:54:59.291Z,,0,,,NaN,,,,,,false,,,,307793,307793,,307793,,307797,8,400,,,
sequence,flow.Sequence,4_54,2023-05-01T21:54:59.291Z,,0,,,2502,completion,,,,,false,,,,307793,307793,305284,305288,305291,307797,8,400,,,
trial,html.Screen,4_55_0,2023-05-01T21:55:02.390Z,,0,2,,3095,response,ISIC_0014558.JPG,,ISIC_0174983.JPG,ISIC_0014558.JPG,false,1,keypress(m),500,310893,310892,307790,307793,307797,310894,8,400,6,,ISIC_0174983.JPG
break,html.Screen,4_55_1,2023-05-01T21:55:02.390Z,,0,,,NaN,,,,,,false,,,,310893,310893,,310893,,310894,8,400,,,
break_continue,html.Screen,4_55_2,2023-05-01T21:55:02.391Z,,0,,,NaN,,,,,,false,,,,310893,310893,,310893,,310894,8,400,,,
sequence,flow.Sequence,4_55,2023-05-01T21:55:02.391Z,,0,,,3096,completion,,,,,false,,,,310893,310893,307790,307793,307797,310894,8,400,,,
trial,html.Screen,4_56_0,2023-05-01T21:55:06.107Z,,0,2,,3715,response,ISIC_0054350.JPG,,ISIC_0033710.JPG,ISIC_0033710.JPG,false,0,keypress(z),500,314610,314609,310887,310893,310894,314615,8,400,7,,ISIC_0054350.JPG
break,html.Screen,4_56_1,2023-05-01T21:55:06.107Z,,0,,,NaN,,,,,,false,,,,314610,314610,,314610,,314615,8,400,,,
break_continue,html.Screen,4_56_2,2023-05-01T21:55:06.107Z,,0,,,NaN,,,,,,false,,,,314610,314610,,314610,,314615,8,400,,,
sequence,flow.Sequence,4_56,2023-05-01T21:55:06.107Z,,0,,,3716,completion,,,,,false,,,,314610,314610,310887,310893,310894,314615,8,400,,,
trial,html.Screen,4_57_0,2023-05-01T21:55:08.572Z,,0,2,,2460,response,ISIC_0005360.JPG,,ISIC_3738751.JPG,ISIC_3738751.JPG,false,0,keypress(z),500,317075,317075,314608,314610,314615,317080,8,400,8,,ISIC_0005360.JPG
break,html.Screen,4_57_1,2023-05-01T21:55:08.573Z,,0,,,NaN,,,,,,false,,,,317075,317075,,317075,,317080,8,400,,,
break_continue,html.Screen,4_57_2,2023-05-01T21:55:08.573Z,,0,,,NaN,,,,,,false,,,,317075,317075,,317075,,317080,8,400,,,
sequence,flow.Sequence,4_57,2023-05-01T21:55:08.573Z,,0,,,2460,completion,,,,,false,,,,317075,317075,314608,314610,314615,317080,8,400,,,
trial,html.Screen,4_58_0,2023-05-01T21:55:14.735Z,,0,2,,6157,response,ISIC_9354965.JPG,,ISIC_0054671.JPG,ISIC_9354965.JPG,false,1,keypress(m),500,323237,323237,317073,317075,317080,323239,8,400,9,,ISIC_0054671.JPG
break,html.Screen,4_58_1,2023-05-01T21:55:14.735Z,,0,,,NaN,,,,,,false,,,,323237,323237,,323237,,323239,8,400,,,
break_continue,html.Screen,4_58_2,2023-05-01T21:55:14.735Z,,0,,,NaN,,,,,,false,,,,323237,323237,,323237,,323239,8,400,,,
sequence,flow.Sequence,4_58,2023-05-01T21:55:14.735Z,,0,,,6157,completion,,,,,false,,,,323238,323237,317073,317075,317080,323239,8,400,,,
trial,html.Screen,4_59_0,2023-05-01T21:55:17.389Z,,0,2,,2652,response,ISIC_4777536.JPG,,ISIC_0057420.JPG,ISIC_0057420.JPG,false,0,keypress(z),500,325891,325891,323232,323238,323239,325898,8,400,10,,ISIC_4777536.JPG
break,html.Screen,4_59_1,2023-05-01T21:55:17.389Z,,0,,,NaN,,,,,,false,,,,325892,325892,,325891,,325898,8,400,,,
break_continue,html.Screen,4_59_2,2023-05-01T21:55:17.390Z,,0,,,NaN,,,,,,false,,,,325892,325892,,325892,,325898,8,400,,,
sequence,flow.Sequence,4_59,2023-05-01T21:55:17.390Z,,0,,,2653,completion,,,,,false,,,,325892,325892,323232,323238,323239,325898,8,400,,,
trial,html.Screen,4_60_0,2023-05-01T21:55:20.103Z,,0,2,,2708,response,ISIC_0012048.JPG,,ISIC_0030254.JPG,ISIC_0012048.JPG,false,1,keypress(m),500,328606,328606,325891,325893,325898,328606,8,400,11,,ISIC_0030254.JPG
break,html.Screen,4_60_1,2023-05-01T21:55:20.103Z,,0,,,NaN,,,,,,false,,,,328606,328606,,328606,,328606,8,400,,,
break_continue,html.Screen,4_60_2,2023-05-01T21:55:20.103Z,,0,,,NaN,,,,,,false,,,,328606,328606,,328606,,328606,8,400,,,
sequence,flow.Sequence,4_60,2023-05-01T21:55:20.103Z,,0,,,2708,completion,,,,,false,,,,328606,328606,325891,325893,325898,328606,8,400,,,
trial,html.Screen,4_61_0,2023-05-01T21:55:22.846Z,,0,2,,2742,response,ISIC_5486460.JPG,,ISIC_0010231.JPG,ISIC_0010231.JPG,false,0,keypress(z),500,331348,331348,328599,328606,328606,331355,8,400,12,,ISIC_5486460.JPG
break,html.Screen,4_61_1,2023-05-01T21:55:22.846Z,,0,,,NaN,,,,,,false,,,,331349,331349,,331348,,331355,8,400,,,
break_continue,html.Screen,4_61_2,2023-05-01T21:55:22.846Z,,0,,,NaN,,,,,,false,,,,331349,331349,,331349,,331355,8,400,,,
sequence,flow.Sequence,4_61,2023-05-01T21:55:22.846Z,,0,,,2743,completion,,,,,false,,,,331349,331349,328599,328606,328606,331355,8,400,,,
trial,html.Screen,4_62_0,2023-05-01T21:55:27.031Z,,0,2,,4179,response,ISIC_6687927.JPG,,ISIC_9424787.JPG,ISIC_9424787.JPG,false,0,keypress(z),500,335534,335534,331348,331349,331355,335535,8,400,13,,ISIC_6687927.JPG
break,html.Screen,4_62_1,2023-05-01T21:55:27.031Z,,0,,,NaN,,,,,,false,,,,335534,335534,,335534,,335535,8,400,,,
break_continue,html.Screen,4_62_2,2023-05-01T21:55:27.031Z,,0,,,NaN,,,,,,false,,,,335534,335534,,335534,,335535,8,400,,,
sequence,flow.Sequence,4_62,2023-05-01T21:55:27.031Z,,0,,,4179,completion,,,,,false,,,,335534,335534,331348,331349,331355,335535,8,400,,,
trial,html.Screen,4_63_0,2023-05-01T21:55:29.505Z,,0,2,,2471,response,ISIC_8955135.JPG,,ISIC_0034022.JPG,ISIC_0034022.JPG,false,0,keypress(z),500,338007,338006,335528,335534,335535,338014,8,400,14,,ISIC_8955135.JPG
break,html.Screen,4_63_1,2023-05-01T21:55:29.505Z,,0,,,NaN,,,,,,false,,,,338007,338007,,338007,,338014,8,400,,,
break_continue,html.Screen,4_63_2,2023-05-01T21:55:29.505Z,,0,,,NaN,,,,,,false,,,,338007,338007,,338007,,338014,8,400,,,
sequence,flow.Sequence,4_63,2023-05-01T21:55:29.505Z,,0,,,2472,completion,,,,,false,,,,338007,338007,335528,335534,335535,338014,8,400,,,
trial,html.Screen,4_64_0,2023-05-01T21:55:32.167Z,,0,2,,2655,response,ISIC_0033534.JPG,,ISIC_4570724.JPG,ISIC_0033534.JPG,false,1,keypress(m),500,340669,340669,338007,338007,338014,340673,8,400,15,,ISIC_4570724.JPG
break,html.Screen,4_64_1,2023-05-01T21:55:32.167Z,,0,,,NaN,,,,,,false,,,,340670,340670,,340669,,340673,8,400,,,
break_continue,html.Screen,4_64_2,2023-05-01T21:55:32.168Z,,0,,,NaN,,,,,,false,,,,340670,340670,,340670,,340673,8,400,,,
sequence,flow.Sequence,4_64,2023-05-01T21:55:32.168Z,,0,,,2656,completion,,,,,false,,,,340670,340670,338007,338007,338014,340673,8,400,,,
trial,html.Screen,4_65_0,2023-05-01T21:55:39.853Z,,0,2,,7682,response,ISIC_0032036.JPG,,ISIC_7462746.JPG,ISIC_7462746.JPG,false,0,keypress(z),500,348355,348355,340666,340670,340673,348359,8,400,16,,ISIC_0032036.JPG
break,html.Screen,4_65_1,2023-05-01T21:55:39.853Z,,0,,,NaN,,,,,,false,,,,348356,348356,,348356,,348359,8,400,,,
break_continue,html.Screen,4_65_2,2023-05-01T21:55:39.853Z,,0,,,NaN,,,,,,false,,,,348356,348356,,348356,,348359,8,400,,,
sequence,flow.Sequence,4_65,2023-05-01T21:55:39.853Z,,0,,,7683,completion,,,,,false,,,,348356,348356,340666,340670,340673,348359,8,400,,,
trial,html.Screen,4_66_0,2023-05-01T21:55:42.536Z,,0,2,,2680,response,ISIC_0033171.JPG,,ISIC_8348712.JPG,ISIC_0033171.JPG,false,1,keypress(m),500,351039,351039,348352,348356,348359,351039,8,400,17,,ISIC_8348712.JPG
break,html.Screen,4_66_1,2023-05-01T21:55:42.536Z,,0,,,NaN,,,,,,false,,,,351039,351039,,351039,,351039,8,400,,,
break_continue,html.Screen,4_66_2,2023-05-01T21:55:42.536Z,,0,,,NaN,,,,,,false,,,,351039,351039,,351039,,351039,8,400,,,
sequence,flow.Sequence,4_66,2023-05-01T21:55:42.536Z,,0,,,2680,completion,,,,,false,,,,351039,351039,348352,348356,348359,351039,8,400,,,
trial,html.Screen,4_67_0,2023-05-01T21:55:45.789Z,,0,2,,3252,response,ISIC_0082704.JPG,,ISIC_1868816.JPG,ISIC_0082704.JPG,false,1,keypress(m),500,354291,354291,351039,351039,351039,354295,8,400,18,,ISIC_1868816.JPG
break,html.Screen,4_67_1,2023-05-01T21:55:45.789Z,,0,,,NaN,,,,,,false,,,,354291,354291,,354291,,354295,8,400,,,
break_continue,html.Screen,4_67_2,2023-05-01T21:55:45.789Z,,0,,,NaN,,,,,,false,,,,354291,354291,,354291,,354295,8,400,,,
sequence,flow.Sequence,4_67,2023-05-01T21:55:45.789Z,,0,,,3252,completion,,,,,false,,,,354291,354291,351039,351039,351039,354295,8,400,,,
trial,html.Screen,4_68_0,2023-05-01T21:55:48.704Z,,0,2,,2911,response,ISIC_2502558.JPG,,ISIC_1144024.JPG,ISIC_2502558.JPG,false,1,keypress(m),500,357206,357206,354288,354291,354295,357211,8,400,19,,ISIC_1144024.JPG
break,html.Screen,4_68_1,2023-05-01T21:55:48.705Z,,0,,,NaN,,,,,,false,,,,357207,357207,,357206,,357211,8,400,,,
break_continue,html.Screen,4_68_2,2023-05-01T21:55:48.705Z,,0,,,NaN,,,,,,false,,,,357207,357207,,357207,,357211,8,400,,,
sequence,flow.Sequence,4_68,2023-05-01T21:55:48.705Z,,0,,,2912,completion,,,,,false,,,,357207,357207,354288,354291,354295,357211,8,400,,,
trial,html.Screen,4_69_0,2023-05-01T21:55:52.017Z,,0,2,,3308,response,ISIC_7511557.JPG,,ISIC_0073086.JPG,ISIC_0073086.JPG,false,0,keypress(z),500,360519,360519,357204,357208,357211,360523,8,400,20,,ISIC_7511557.JPG
break,html.Screen,4_69_1,2023-05-01T21:55:52.018Z,,0,,,NaN,,,,,,false,,,,360520,360520,,360519,,360523,8,400,,,
break_continue,html.Screen,4_69_2,2023-05-01T21:55:52.018Z,,0,,,NaN,,,,,,false,,,,360520,360520,,360520,,360523,8,400,,,
sequence,flow.Sequence,4_69,2023-05-01T21:55:52.018Z,,0,,,3309,completion,,,,,false,,,,360520,360520,357204,357207,357211,360523,8,400,,,
trial,html.Screen,4_70_0,2023-05-01T21:55:55.314Z,,0,2,,3293,response,ISIC_0005854.JPG,,ISIC_8579575.JPG,ISIC_8579575.JPG,false,0,keypress(z),500,363816,363816,360516,360520,360523,363821,8,400,21,,ISIC_0005854.JPG
break,html.Screen,4_70_1,2023-05-01T21:55:55.314Z,,0,,,NaN,,,,,,false,,,,363816,363816,,363816,,363821,8,400,,,
break_continue,html.Screen,4_70_2,2023-05-01T21:55:55.314Z,,0,,,NaN,,,,,,false,,,,363816,363816,,363816,,363821,8,400,,,
sequence,flow.Sequence,4_70,2023-05-01T21:55:55.314Z,,0,,,3293,completion,,,,,false,,,,363816,363816,360516,360520,360523,363821,8,400,,,
trial,html.Screen,4_71_0,2023-05-01T21:55:59.435Z,,0,2,,4115,response,ISIC_0007619.JPG,,ISIC_9121369.JPG,ISIC_9121369.JPG,false,0,keypress(z),500,367936,367936,363814,363816,363821,367938,8,400,22,,ISIC_0007619.JPG
break,html.Screen,4_71_1,2023-05-01T21:55:59.435Z,,0,,,NaN,,,,,,false,,,,367937,367937,,367937,,367938,8,400,,,
break_continue,html.Screen,4_71_2,2023-05-01T21:55:59.435Z,,0,,,NaN,,,,,,false,,,,367937,367937,,367937,,367938,8,400,,,
sequence,flow.Sequence,4_71,2023-05-01T21:55:59.435Z,,0,,,4116,completion,,,,,false,,,,367937,367937,363814,363816,363821,367938,8,400,,,
trial,html.Screen,4_72_0,2023-05-01T21:56:02.588Z,,0,2,,3152,response,ISIC_0002258.JPG,,ISIC_0047031.JPG,ISIC_0047031.JPG,false,0,keypress(z),500,371090,371090,367931,367937,367938,371090,8,400,23,,ISIC_0002258.JPG
break,html.Screen,4_72_1,2023-05-01T21:56:02.589Z,,0,,,NaN,,,,,,false,,,,371090,371090,,371090,,371090,8,400,,,
break_continue,html.Screen,4_72_2,2023-05-01T21:56:02.589Z,,0,,,NaN,,,,,,false,,,,371090,371090,,371090,,371090,8,400,,,
sequence,flow.Sequence,4_72,2023-05-01T21:56:02.589Z,,0,,,3152,completion,,,,,false,,,,371091,371090,367931,367937,367938,371090,8,400,,,
trial,html.Screen,4_73_0,2023-05-01T21:56:07.721Z,,0,2,,5133,response,ISIC_7244604.JPG,,ISIC_0011700.JPG,ISIC_0011700.JPG,false,0,keypress(z),500,376223,376223,371084,371091,371090,376228,8,400,24,,ISIC_7244604.JPG
break,html.Screen,4_73_1,2023-05-01T21:56:07.721Z,,0,,,NaN,,,,,,false,,,,376223,376223,,376223,,376228,8,400,,,
break_continue,html.Screen,4_73_2,2023-05-01T21:56:07.722Z,,0,,,NaN,,,,,,false,,,,376223,376223,,376223,,376228,8,400,,,
sequence,flow.Sequence,4_73,2023-05-01T21:56:07.722Z,,0,,,5133,completion,,,,,false,,,,376223,376223,371084,371091,371090,376228,8,400,,,
trial,html.Screen,4_74_0,2023-05-01T21:56:10.626Z,,0,2,,2900,response,ISIC_8792007.JPG,,ISIC_0069395.JPG,ISIC_0069395.JPG,false,0,keypress(z),500,379128,379128,376221,376223,376228,379131,8,400,25,,ISIC_8792007.JPG
break,html.Screen,4_74_1,2023-05-01T21:56:10.626Z,,0,,,NaN,,,,,,false,,,,379129,379129,,379128,,379131,8,400,,,
break_continue,html.Screen,4_74_2,2023-05-01T21:56:10.627Z,,0,,,NaN,,,,,,false,,,,379129,379129,,379129,,379131,8,400,,,
sequence,flow.Sequence,4_74,2023-05-01T21:56:10.627Z,,0,,,2901,completion,,,,,false,,,,379129,379129,376221,376223,376228,379131,8,400,,,
trial,html.Screen,4_75_0,2023-05-01T21:56:13.636Z,,0,2,,3007,response,ISIC_9718067.JPG,,ISIC_3685955.JPG,ISIC_9718067.JPG,false,1,keypress(m),500,382138,382138,379124,379129,379131,382144,8,400,26,,ISIC_3685955.JPG
break,html.Screen,4_75_1,2023-05-01T21:56:13.637Z,,0,,,NaN,,,,,,false,,,,382138,382138,,382138,,382144,8,400,,,
break_continue,html.Screen,4_75_2,2023-05-01T21:56:13.637Z,,0,,,NaN,,,,,,false,,,,382138,382138,,382138,,382144,8,400,,,
sequence,flow.Sequence,4_75,2023-05-01T21:56:13.637Z,,0,,,3007,completion,,,,,false,,,,382138,382138,379124,379129,379131,382144,8,400,,,
trial,html.Screen,4_76_0,2023-05-01T21:56:17.155Z,,0,2,,3513,response,ISIC_8659639.JPG,,ISIC_8007849.JPG,ISIC_8659639.JPG,false,1,keypress(m),500,385657,385657,382137,382139,382144,385657,8,400,27,,ISIC_8007849.JPG
break,html.Screen,4_76_1,2023-05-01T21:56:17.156Z,,0,,,NaN,,,,,,false,,,,385657,385657,,385657,,385657,8,400,,,
break_continue,html.Screen,4_76_2,2023-05-01T21:56:17.156Z,,0,,,NaN,,,,,,false,,,,385658,385658,,385658,,385657,8,400,,,
sequence,flow.Sequence,4_76,2023-05-01T21:56:17.156Z,,0,,,3514,completion,,,,,false,,,,385658,385658,382137,382139,382144,385657,8,400,,,
trial,html.Screen,4_77_0,2023-05-01T21:56:19.860Z,,0,2,,2705,response,ISIC_0016050.JPG,,ISIC_0000173.JPG,ISIC_0000173.JPG,false,0,keypress(z),500,388362,388362,385657,385658,385657,388365,8,400,28,,ISIC_0016050.JPG
break,html.Screen,4_77_1,2023-05-01T21:56:19.860Z,,0,,,NaN,,,,,,false,,,,388362,388362,,388362,,388365,8,400,,,
break_continue,html.Screen,4_77_2,2023-05-01T21:56:19.860Z,,0,,,NaN,,,,,,false,,,,388362,388362,,388362,,388365,8,400,,,
sequence,flow.Sequence,4_77,2023-05-01T21:56:19.860Z,,0,,,2705,completion,,,,,false,,,,388362,388362,385657,385658,385657,388365,8,400,,,
trial,html.Screen,4_78_0,2023-05-01T21:56:23.438Z,,0,2,,3574,response,ISIC_8150108.JPG,,ISIC_3234816.JPG,ISIC_8150108.JPG,false,1,keypress(m),500,391939,391939,388358,388362,388365,391941,8,400,29,,ISIC_3234816.JPG
break,html.Screen,4_78_1,2023-05-01T21:56:23.438Z,,0,,,NaN,,,,,,false,,,,391940,391940,,391939,,391941,8,400,,,
break_continue,html.Screen,4_78_2,2023-05-01T21:56:23.438Z,,0,,,NaN,,,,,,false,,,,391940,391940,,391940,,391941,8,400,,,
sequence,flow.Sequence,4_78,2023-05-01T21:56:23.438Z,,0,,,3575,completion,,,,,false,,,,391940,391940,388358,388362,388365,391941,8,400,,,
trial,html.Screen,4_79_0,2023-05-01T21:56:26.349Z,,0,2,,2909,response,ISIC_0027170.JPG,,ISIC_3888713.JPG,ISIC_0027170.JPG,false,1,keypress(m),500,394850,394850,391938,391940,391941,394857,8,400,30,,ISIC_3888713.JPG
break,html.Screen,4_79_1,2023-05-01T21:56:26.349Z,,0,,,NaN,,,,,,false,,,,394851,394851,,394850,,394857,8,400,,,
break_continue,html.Screen,4_79_2,2023-05-01T21:56:26.349Z,,0,,,NaN,,,,,,false,,,,394851,394851,,394851,,394857,8,400,,,
sequence,flow.Sequence,4_79,2023-05-01T21:56:26.349Z,,0,,,2910,completion,,,,,false,,,,394851,394851,391938,391940,391941,394857,8,400,,,
trial,html.Screen,4_80_0,2023-05-01T21:56:29.619Z,,0,2,,3264,response,ISIC_8887039.JPG,,ISIC_0070651.JPG,ISIC_8887039.JPG,false,1,keypress(m),500,398121,398121,394846,394851,394857,398127,8,400,31,,ISIC_0070651.JPG
break,html.Screen,4_80_1,2023-05-01T21:56:29.620Z,,0,,,NaN,,,,,,false,,,,398121,398121,,398121,,398127,8,400,,,
break_continue,html.Screen,4_80_2,2023-05-01T21:56:29.620Z,,0,,,NaN,,,,,,false,,,,398122,398121,,398121,,398127,8,400,,,
sequence,flow.Sequence,4_80,2023-05-01T21:56:29.620Z,,0,,,3264,completion,,,,,false,,,,398122,398121,394846,394851,394857,398127,8,400,,,
trial,html.Screen,4_81_0,2023-05-01T21:56:32.867Z,,0,2,,3242,response,ISIC_0011305.JPG,,ISIC_0054748.JPG,ISIC_0054748.JPG,false,0,keypress(z),500,401369,401369,398116,398122,398127,401369,8,400,32,,ISIC_0011305.JPG
break,html.Screen,4_81_1,2023-05-01T21:56:32.868Z,,0,,,NaN,,,,,,false,,,,401369,401369,,401369,,401369,8,400,,,
break_continue,html.Screen,4_81_2,2023-05-01T21:56:32.868Z,,0,,,NaN,,,,,,false,,,,401369,401369,,401369,,401369,8,400,,,
sequence,flow.Sequence,4_81,2023-05-01T21:56:32.868Z,,0,,,3242,completion,,,,,false,,,,401369,401369,398116,398122,398127,401369,8,400,,,
trial,html.Screen,4_82_0,2023-05-01T21:56:36.947Z,,0,2,,4080,response,ISIC_0024624.JPG,,ISIC_0071050.JPG,ISIC_0071050.JPG,false,0,keypress(z),500,405449,405449,401362,401369,401369,405452,8,400,33,,ISIC_0024624.JPG
break,html.Screen,4_82_1,2023-05-01T21:56:36.947Z,,0,,,NaN,,,,,,false,,,,405449,405449,,405449,,405452,8,400,,,
break_continue,html.Screen,4_82_2,2023-05-01T21:56:36.947Z,,0,,,NaN,,,,,,false,,,,405449,405449,,405449,,405452,8,400,,,
sequence,flow.Sequence,4_82,2023-05-01T21:56:36.947Z,,0,,,4080,completion,,,,,false,,,,405449,405449,401362,401369,401369,405452,8,400,,,
trial,html.Screen,4_83_0,2023-05-01T21:56:40.048Z,,0,2,,3098,response,ISIC_0029433.JPG,,ISIC_5791954.JPG,ISIC_0029433.JPG,false,1,keypress(m),500,408550,408550,405447,405449,405452,408555,8,400,34,,ISIC_5791954.JPG
break,html.Screen,4_83_1,2023-05-01T21:56:40.048Z,,0,,,NaN,,,,,,false,,,,408550,408550,,408550,,408555,8,400,,,
break_continue,html.Screen,4_83_2,2023-05-01T21:56:40.048Z,,0,,,NaN,,,,,,false,,,,408550,408550,,408550,,408555,8,400,,,
sequence,flow.Sequence,4_83,2023-05-01T21:56:40.049Z,,0,,,3098,completion,,,,,false,,,,408550,408550,405447,405449,405452,408555,8,400,,,
trial,html.Screen,4_84_0,2023-05-01T21:56:46.886Z,,0,2,,6833,response,ISIC_9048840.JPG,,ISIC_0012064.JPG,ISIC_9048840.JPG,false,1,keypress(m),500,415388,415388,408549,408550,408555,415394,8,400,35,,ISIC_0012064.JPG
break,html.Screen,4_84_1,2023-05-01T21:56:46.886Z,,0,,,NaN,,,,,,false,,,,415388,415388,,415388,,415394,8,400,,,
break_continue,html.Screen,4_84_2,2023-05-01T21:56:46.887Z,,0,,,NaN,,,,,,false,,,,415388,415388,,415388,,415394,8,400,,,
sequence,flow.Sequence,4_84,2023-05-01T21:56:46.887Z,,0,,,6833,completion,,,,,false,,,,415388,415388,408549,408550,408555,415394,8,400,,,
trial,html.Screen,4_85_0,2023-05-01T21:56:49.881Z,,0,2,,2989,response,ISIC_7761711.JPG,,ISIC_0026652.JPG,ISIC_7761711.JPG,false,1,keypress(m),500,418383,418383,415388,415388,415394,418387,8,400,36,,ISIC_0026652.JPG
break,html.Screen,4_85_1,2023-05-01T21:56:49.882Z,,0,,,NaN,,,,,,false,,,,418384,418384,,418383,,418387,8,400,,,
break_continue,html.Screen,4_85_2,2023-05-01T21:56:49.882Z,,0,,,NaN,,,,,,false,,,,418384,418384,,418384,,418387,8,400,,,
sequence,flow.Sequence,4_85,2023-05-01T21:56:49.882Z,,0,,,2990,completion,,,,,false,,,,418384,418384,415388,415388,415394,418387,8,400,,,
trial,html.Screen,4_86_0,2023-05-01T21:56:52.533Z,,0,2,,2647,response,ISIC_3689759.JPG,,ISIC_9441572.JPG,ISIC_9441572.JPG,false,0,keypress(z),500,421035,421034,418380,418384,418387,421039,8,400,37,,ISIC_3689759.JPG
break,html.Screen,4_86_1,2023-05-01T21:56:52.533Z,,0,,,NaN,,,,,,false,,,,421036,421035,,421035,,421039,8,400,,,
break_continue,html.Screen,4_86_2,2023-05-01T21:56:52.533Z,,0,,,NaN,,,,,,false,,,,421036,421036,,421036,,421039,8,400,,,
sequence,flow.Sequence,4_86,2023-05-01T21:56:52.533Z,,0,,,2649,completion,,,,,false,,,,421036,421036,418380,418384,418387,421039,8,400,,,
trial,html.Screen,4_87_0,2023-05-01T21:56:55.128Z,,0,2,,2592,response,ISIC_7062293.JPG,,ISIC_0066053.JPG,ISIC_0066053.JPG,false,0,keypress(z),500,423631,423631,421030,421036,421039,423636,8,400,38,,ISIC_7062293.JPG
break,html.Screen,4_87_1,2023-05-01T21:56:55.129Z,,0,,,NaN,,,,,,false,,,,423631,423631,,423631,,423636,8,400,,,
break_continue,html.Screen,4_87_2,2023-05-01T21:56:55.129Z,,0,,,NaN,,,,,,false,,,,423631,423631,,423631,,423636,8,400,,,
sequence,flow.Sequence,4_87,2023-05-01T21:56:55.129Z,,0,,,2592,completion,,,,,false,,,,423631,423631,421030,421036,421039,423636,8,400,,,
trial,html.Screen,4_88_0,2023-05-01T21:56:58.045Z,,0,2,,2911,response,ISIC_3686329.JPG,,ISIC_0062407.JPG,ISIC_0062407.JPG,false,0,keypress(z),500,426547,426547,423629,423631,423636,426552,8,400,39,,ISIC_3686329.JPG
break,html.Screen,4_88_1,2023-05-01T21:56:58.045Z,,0,,,NaN,,,,,,false,,,,426547,426547,,426547,,426552,8,400,,,
break_continue,html.Screen,4_88_2,2023-05-01T21:56:58.045Z,,0,,,NaN,,,,,,false,,,,426548,426548,,426548,,426552,8,400,,,
sequence,flow.Sequence,4_88,2023-05-01T21:56:58.045Z,,0,,,2912,completion,,,,,false,,,,426548,426548,423629,423631,423636,426552,8,400,,,
trial,html.Screen,4_89_0,2023-05-01T21:57:03.784Z,,0,2,,5735,response,ISIC_0009913.JPG,,ISIC_6777714.JPG,ISIC_0009913.JPG,false,1,keypress(m),500,432287,432287,426544,426548,426552,432287,8,400,40,,ISIC_6777714.JPG
break,html.Screen,4_89_1,2023-05-01T21:57:03.784Z,,0,,,NaN,,,,,,false,,,,432287,432287,,432287,,432287,8,400,,,
break_continue,html.Screen,4_89_2,2023-05-01T21:57:03.784Z,,0,,,NaN,,,,,,false,,,,432287,432287,,432287,,432287,8,400,,,
sequence,flow.Sequence,4_89,2023-05-01T21:57:03.785Z,,0,,,5735,completion,,,,,false,,,,432287,432287,426544,426548,426552,432287,8,400,,,
trial,html.Screen,4_90_0,2023-05-01T21:57:06.532Z,,0,2,,2747,response,ISIC_0033607.JPG,,ISIC_0013639.JPG,ISIC_0033607.JPG,false,1,keypress(m),500,435035,435034,432286,432287,432287,435037,8,400,41,,ISIC_0013639.JPG
break,html.Screen,4_90_1,2023-05-01T21:57:06.532Z,,0,,,NaN,,,,,,false,,,,435035,435035,,435035,,435037,8,400,,,
break_continue,html.Screen,4_90_2,2023-05-01T21:57:06.532Z,,0,,,NaN,,,,,,false,,,,435035,435035,,435035,,435037,8,400,,,
sequence,flow.Sequence,4_90,2023-05-01T21:57:06.532Z,,0,,,2748,completion,,,,,false,,,,435035,435035,432286,432287,432287,435037,8,400,,,
trial,html.Screen,4_91_0,2023-05-01T21:57:09.124Z,,0,2,,2590,response,ISIC_9228729.JPG,,ISIC_4645995.JPG,ISIC_4645995.JPG,false,0,keypress(z),500,437627,437627,435029,435035,435037,437633,8,400,42,,ISIC_9228729.JPG
break,html.Screen,4_91_1,2023-05-01T21:57:09.125Z,,0,,,NaN,,,,,,false,,,,437628,437627,,437627,,437633,8,400,,,
break_continue,html.Screen,4_91_2,2023-05-01T21:57:09.125Z,,0,,,NaN,,,,,,false,,,,437628,437628,,437628,,437633,8,400,,,
sequence,flow.Sequence,4_91,2023-05-01T21:57:09.125Z,,0,,,2591,completion,,,,,false,,,,437628,437628,435029,435035,435037,437633,8,400,,,
trial,html.Screen,4_92_0,2023-05-01T21:57:12.131Z,,0,2,,3000,response,ISIC_0030969.JPG,,ISIC_0064033.JPG,ISIC_0064033.JPG,false,0,keypress(z),500,440633,440633,437627,437628,437633,440640,8,400,43,,ISIC_0030969.JPG
break,html.Screen,4_92_1,2023-05-01T21:57:12.131Z,,0,,,NaN,,,,,,false,,,,440634,440634,,440633,,440640,8,400,,,
break_continue,html.Screen,4_92_2,2023-05-01T21:57:12.131Z,,0,,,NaN,,,,,,false,,,,440634,440634,,440634,,440640,8,400,,,
sequence,flow.Sequence,4_92,2023-05-01T21:57:12.131Z,,0,,,3001,completion,,,,,false,,,,440634,440634,437627,437628,437633,440640,8,400,,,
trial,html.Screen,4_93_0,2023-05-01T21:57:14.845Z,,0,2,,2707,response,ISIC_5029636.JPG,,ISIC_0031325.JPG,ISIC_0031325.JPG,false,0,keypress(z),500,443347,443347,440632,440634,440640,443347,8,400,44,,ISIC_5029636.JPG
break,html.Screen,4_93_1,2023-05-01T21:57:14.845Z,,0,,,NaN,,,,,,false,,,,443348,443348,,443348,,443347,8,400,,,
break_continue,html.Screen,4_93_2,2023-05-01T21:57:14.845Z,,0,,,NaN,,,,,,false,,,,443348,443348,,443348,,443347,8,400,,,
sequence,flow.Sequence,4_93,2023-05-01T21:57:14.845Z,,0,,,2708,completion,,,,,false,,,,443348,443348,440632,440634,440640,443347,8,400,,,
trial,html.Screen,4_94_0,2023-05-01T21:57:17.506Z,,0,2,,2661,response,ISIC_0000240.JPG,,ISIC_2177748.JPG,ISIC_0000240.JPG,false,1,keypress(m),500,446008,446008,443340,443348,443347,446014,8,400,45,,ISIC_2177748.JPG
break,html.Screen,4_94_1,2023-05-01T21:57:17.506Z,,0,,,NaN,,,,,,false,,,,446009,446009,,446008,,446014,8,400,,,
break_continue,html.Screen,4_94_2,2023-05-01T21:57:17.507Z,,0,,,NaN,,,,,,false,,,,446009,446009,,446009,,446014,8,400,,,
sequence,flow.Sequence,4_94,2023-05-01T21:57:17.507Z,,0,,,2662,completion,,,,,false,,,,446009,446009,443340,443348,443347,446014,8,400,,,
trial,html.Screen,4_95_0,2023-05-01T21:57:20.506Z,,0,2,,2994,response,ISIC_0032540.JPG,,ISIC_8649055.JPG,ISIC_0032540.JPG,false,1,keypress(m),500,449008,449008,446006,446009,446014,449013,8,400,46,,ISIC_8649055.JPG
break,html.Screen,4_95_1,2023-05-01T21:57:20.506Z,,0,,,NaN,,,,,,false,,,,449008,449008,,449008,,449013,8,400,,,
break_continue,html.Screen,4_95_2,2023-05-01T21:57:20.506Z,,0,,,NaN,,,,,,false,,,,449008,449008,,449008,,449013,8,400,,,
sequence,flow.Sequence,4_95,2023-05-01T21:57:20.506Z,,0,,,2994,completion,,,,,false,,,,449008,449008,446006,446009,446014,449013,8,400,,,
trial,html.Screen,4_96_0,2023-05-01T21:57:26.263Z,,0,2,,5752,response,ISIC_0016161.JPG,,ISIC_0046597.JPG,ISIC_0016161.JPG,false,1,keypress(m),500,454765,454765,449006,449008,449013,454769,8,400,47,,ISIC_0046597.JPG
break,html.Screen,4_96_1,2023-05-01T21:57:26.263Z,,0,,,NaN,,,,,,false,,,,454766,454766,,454766,,454769,8,400,,,
break_continue,html.Screen,4_96_2,2023-05-01T21:57:26.264Z,,0,,,NaN,,,,,,false,,,,454766,454766,,454766,,454769,8,400,,,
sequence,flow.Sequence,4_96,2023-05-01T21:57:26.264Z,,0,,,5753,completion,,,,,false,,,,454766,454766,449006,449008,449013,454769,8,400,,,
trial,html.Screen,4_97_0,2023-05-01T21:57:29.534Z,,0,2,,3268,response,ISIC_0034207.JPG,,ISIC_4495099.JPG,ISIC_4495099.JPG,false,0,keypress(z),500,458037,458037,454762,454766,454769,458039,8,400,48,,ISIC_0034207.JPG
break,html.Screen,4_97_1,2023-05-01T21:57:29.534Z,,0,,,NaN,,,,,,false,,,,458037,458037,,458037,,458039,8,400,,,
break_continue,html.Screen,4_97_2,2023-05-01T21:57:29.534Z,,0,,,NaN,,,,,,false,,,,458037,458037,,458037,,458039,8,400,,,
sequence,flow.Sequence,4_97,2023-05-01T21:57:29.534Z,,0,,,3268,completion,,,,,false,,,,458037,458037,454762,454766,454769,458039,8,400,,,
trial,html.Screen,4_98_0,2023-05-01T21:57:32.055Z,,0,2,,2519,response,ISIC_0026198.JPG,,ISIC_8398000.JPG,ISIC_8398000.JPG,false,0,keypress(z),500,460558,460558,458032,458037,458039,460559,8,400,49,,ISIC_0026198.JPG
break,html.Screen,4_98_1,2023-05-01T21:57:32.056Z,,0,,,NaN,,,,,,false,,,,460559,460559,,460558,,460559,8,400,,,
break_continue,html.Screen,4_98_2,2023-05-01T21:57:32.056Z,,0,,,NaN,,,,,,false,,,,460559,460559,,460559,,460559,8,400,,,
sequence,flow.Sequence,4_98,2023-05-01T21:57:32.056Z,,0,,,2520,completion,,,,,false,,,,460559,460559,458032,458037,458039,460559,8,400,,,
trial,html.Screen,4_99_0,2023-05-01T21:57:34.654Z,,0,2,,2598,response,ISIC_3495113.JPG,,ISIC_1508215.JPG,ISIC_3495113.JPG,false,1,keypress(m),500,463157,463157,460552,460559,460559,463163,8,400,50,,ISIC_1508215.JPG
break,html.Screen,4_99_1,2023-05-01T21:57:39.653Z,,0,,,4999,timeout,,,,,false,,,,468156,468155,463156,463157,463163,468162,8,400,,,
break_continue,html.Screen,4_99_2,2023-05-01T21:57:52.636Z,,0,,,12972,response,,,,,false,continue,keypress(Space),,481139,481134,468155,468156,468162,481142,8,400,,,
sequence,flow.Sequence,4_99,2023-05-01T21:57:52.636Z,,0,,,20575,completion,,,,,false,,,,481139,481134,460552,460559,460559,481142,8,400,,,
trial,html.Screen,4_100_0,2023-05-01T21:57:55.964Z,,0,3,,3325,response,ISIC_0014480.JPG,,ISIC_0032823.JPG,ISIC_0032823.JPG,false,0,keypress(z),500,484467,484467,481135,481139,481142,484468,8,400,1,,ISIC_0014480.JPG
break,html.Screen,4_100_1,2023-05-01T21:57:55.965Z,,0,,,NaN,,,,,,false,,,,484467,484467,,484467,,484468,8,400,,,
break_continue,html.Screen,4_100_2,2023-05-01T21:57:55.965Z,,0,,,NaN,,,,,,false,,,,484467,484467,,484467,,484468,8,400,,,
sequence,flow.Sequence,4_100,2023-05-01T21:57:55.965Z,,0,,,3325,completion,,,,,false,,,,484467,484467,481135,481139,481142,484468,8,400,,,
trial,html.Screen,4_101_0,2023-05-01T21:57:58.593Z,,0,3,,2628,response,ISIC_4263521.JPG,,ISIC_4223155.JPG,ISIC_4263521.JPG,false,1,keypress(m),500,487096,487096,484461,484467,484468,487099,8,400,2,,ISIC_4223155.JPG
break,html.Screen,4_101_1,2023-05-01T21:57:58.594Z,,0,,,NaN,,,,,,false,,,,487096,487096,,487096,,487099,8,400,,,
break_continue,html.Screen,4_101_2,2023-05-01T21:57:58.594Z,,0,,,NaN,,,,,,false,,,,487097,487097,,487097,,487099,8,400,,,
sequence,flow.Sequence,4_101,2023-05-01T21:57:58.594Z,,0,,,2629,completion,,,,,false,,,,487097,487097,484461,484467,484468,487099,8,400,,,
trial,html.Screen,4_102_0,2023-05-01T21:58:01.563Z,,0,3,,2967,response,ISIC_3556039.JPG,,ISIC_0025658.JPG,ISIC_0025658.JPG,false,0,keypress(z),500,490066,490066,487092,487097,487099,490071,8,400,3,,ISIC_3556039.JPG
break,html.Screen,4_102_1,2023-05-01T21:58:01.564Z,,0,,,NaN,,,,,,false,,,,490066,490066,,490066,,490071,8,400,,,
break_continue,html.Screen,4_102_2,2023-05-01T21:58:01.564Z,,0,,,NaN,,,,,,false,,,,490066,490066,,490066,,490071,8,400,,,
sequence,flow.Sequence,4_102,2023-05-01T21:58:01.564Z,,0,,,2967,completion,,,,,false,,,,490066,490066,487092,487097,487099,490071,8,400,,,
trial,html.Screen,4_103_0,2023-05-01T21:58:04.064Z,,0,3,,2496,response,ISIC_0072174.JPG,,ISIC_1708591.JPG,ISIC_0072174.JPG,false,1,keypress(m),500,492567,492567,490064,490066,490071,492570,8,400,4,,ISIC_1708591.JPG
break,html.Screen,4_103_1,2023-05-01T21:58:04.065Z,,0,,,NaN,,,,,,false,,,,492567,492567,,492567,,492570,8,400,,,
break_continue,html.Screen,4_103_2,2023-05-01T21:58:04.065Z,,0,,,NaN,,,,,,false,,,,492567,492567,,492567,,492570,8,400,,,
sequence,flow.Sequence,4_103,2023-05-01T21:58:04.065Z,,0,,,2496,completion,,,,,false,,,,492567,492567,490064,490066,490071,492570,8,400,,,
trial,html.Screen,4_104_0,2023-05-01T21:58:07.111Z,,0,3,,3043,response,ISIC_5022895.JPG,,ISIC_0011305.JPG,ISIC_0011305.JPG,false,0,keypress(z),500,495614,495613,492563,492567,492570,495618,8,400,5,,ISIC_5022895.JPG
break,html.Screen,4_104_1,2023-05-01T21:58:07.111Z,,0,,,NaN,,,,,,false,,,,495614,495614,,495614,,495618,8,400,,,
break_continue,html.Screen,4_104_2,2023-05-01T21:58:07.111Z,,0,,,NaN,,,,,,false,,,,495614,495614,,495614,,495618,8,400,,,
sequence,flow.Sequence,4_104,2023-05-01T21:58:07.111Z,,0,,,3044,completion,,,,,false,,,,495614,495614,492563,492567,492570,495618,8,400,,,
trial,html.Screen,4_105_0,2023-05-01T21:58:09.705Z,,0,3,,2590,response,ISIC_9751013.JPG,,ISIC_0005377.JPG,ISIC_9751013.JPG,false,1,keypress(m),500,498208,498208,495611,495614,495618,498208,8,400,6,,ISIC_0005377.JPG
break,html.Screen,4_105_1,2023-05-01T21:58:09.705Z,,0,,,NaN,,,,,,false,,,,498208,498208,,498208,,498208,8,400,,,
break_continue,html.Screen,4_105_2,2023-05-01T21:58:09.705Z,,0,,,NaN,,,,,,false,,,,498208,498208,,498208,,498208,8,400,,,
sequence,flow.Sequence,4_105,2023-05-01T21:58:09.705Z,,0,,,2590,completion,,,,,false,,,,498208,498208,495611,495614,495618,498208,8,400,,,
trial,html.Screen,4_106_0,2023-05-01T21:58:14.513Z,,0,3,,4808,response,ISIC_1923467.JPG,,ISIC_0032162.JPG,ISIC_0032162.JPG,false,0,keypress(z),500,503016,503016,498201,498208,498208,503020,8,400,7,,ISIC_1923467.JPG
break,html.Screen,4_106_1,2023-05-01T21:58:14.513Z,,0,,,NaN,,,,,,false,,,,503016,503016,,503016,,503020,8,400,,,
break_continue,html.Screen,4_106_2,2023-05-01T21:58:14.514Z,,0,,,NaN,,,,,,false,,,,503016,503016,,503016,,503020,8,400,,,
sequence,flow.Sequence,4_106,2023-05-01T21:58:14.514Z,,0,,,4808,completion,,,,,false,,,,503016,503016,498201,498208,498208,503020,8,400,,,
trial,html.Screen,4_107_0,2023-05-01T21:58:17.023Z,,0,3,,2505,response,ISIC_6793603.JPG,,ISIC_5247508.JPG,ISIC_5247508.JPG,false,0,keypress(z),500,505525,505525,503013,503016,503020,505526,8,400,8,,ISIC_6793603.JPG
break,html.Screen,4_107_1,2023-05-01T21:58:17.023Z,,0,,,NaN,,,,,,false,,,,505525,505525,,505525,,505526,8,400,,,
break_continue,html.Screen,4_107_2,2023-05-01T21:58:17.023Z,,0,,,NaN,,,,,,false,,,,505526,505525,,505525,,505526,8,400,,,
sequence,flow.Sequence,4_107,2023-05-01T21:58:17.023Z,,0,,,2505,completion,,,,,false,,,,505526,505525,503013,503016,503020,505526,8,400,,,
trial,html.Screen,4_108_0,2023-05-01T21:58:20.171Z,,0,3,,3147,response,ISIC_0067227.JPG,,ISIC_8521610.JPG,ISIC_0067227.JPG,false,1,keypress(m),500,508673,508673,505519,505526,505526,508678,8,400,9,,ISIC_8521610.JPG
break,html.Screen,4_108_1,2023-05-01T21:58:20.171Z,,0,,,NaN,,,,,,false,,,,508674,508674,,508673,,508678,8,400,,,
break_continue,html.Screen,4_108_2,2023-05-01T21:58:20.172Z,,0,,,NaN,,,,,,false,,,,508674,508674,,508674,,508678,8,400,,,
sequence,flow.Sequence,4_108,2023-05-01T21:58:20.172Z,,0,,,3148,completion,,,,,false,,,,508674,508674,505519,505526,505526,508678,8,400,,,
trial,html.Screen,4_109_0,2023-05-01T21:58:25.667Z,,0,3,,5491,response,ISIC_0069743.JPG,,ISIC_0028477.JPG,ISIC_0069743.JPG,false,1,keypress(m),500,514169,514169,508671,508674,508678,514170,8,400,10,,ISIC_0028477.JPG
break,html.Screen,4_109_1,2023-05-01T21:58:25.667Z,,0,,,NaN,,,,,,false,,,,514170,514170,,514169,,514170,8,400,,,
break_continue,html.Screen,4_109_2,2023-05-01T21:58:25.667Z,,0,,,NaN,,,,,,false,,,,514170,514170,,514170,,514170,8,400,,,
sequence,flow.Sequence,4_109,2023-05-01T21:58:25.667Z,,0,,,5492,completion,,,,,false,,,,514170,514170,508671,508674,508678,514170,8,400,,,
trial,html.Screen,4_110_0,2023-05-01T21:58:28.361Z,,0,3,,2694,response,ISIC_8901371.JPG,,ISIC_0067614.JPG,ISIC_0067614.JPG,false,0,keypress(z),500,516864,516864,514163,514170,514170,516864,8,400,11,,ISIC_8901371.JPG
break,html.Screen,4_110_1,2023-05-01T21:58:28.361Z,,0,,,NaN,,,,,,false,,,,516864,516864,,516864,,516864,8,400,,,
break_continue,html.Screen,4_110_2,2023-05-01T21:58:28.361Z,,0,,,NaN,,,,,,false,,,,516864,516864,,516864,,516864,8,400,,,
sequence,flow.Sequence,4_110,2023-05-01T21:58:28.361Z,,0,,,2694,completion,,,,,false,,,,516864,516864,514163,514170,514170,516864,8,400,,,
trial,html.Screen,4_111_0,2023-05-01T21:58:31.046Z,,0,3,,2685,response,ISIC_1960468.JPG,,ISIC_0034193.JPG,ISIC_0034193.JPG,false,0,keypress(z),500,519549,519549,516857,516864,516864,519551,8,400,12,,ISIC_1960468.JPG
break,html.Screen,4_111_1,2023-05-01T21:58:31.047Z,,0,,,NaN,,,,,,false,,,,519549,519549,,519549,,519551,8,400,,,
break_continue,html.Screen,4_111_2,2023-05-01T21:58:31.047Z,,0,,,NaN,,,,,,false,,,,519549,519549,,519549,,519551,8,400,,,
sequence,flow.Sequence,4_111,2023-05-01T21:58:31.047Z,,0,,,2685,completion,,,,,false,,,,519549,519549,516857,516864,516864,519551,8,400,,,
trial,html.Screen,4_112_0,2023-05-01T21:58:34.621Z,,0,3,,3572,response,ISIC_0397464.JPG,,ISIC_5732487.JPG,ISIC_0397464.JPG,false,1,keypress(m),500,523123,523123,519544,519549,519551,523127,8,400,13,,ISIC_5732487.JPG
break,html.Screen,4_112_1,2023-05-01T21:58:34.622Z,,0,,,NaN,,,,,,false,,,,523124,523124,,523124,,523127,8,400,,,
break_continue,html.Screen,4_112_2,2023-05-01T21:58:34.622Z,,0,,,NaN,,,,,,false,,,,523124,523124,,523124,,523127,8,400,,,
sequence,flow.Sequence,4_112,2023-05-01T21:58:34.622Z,,0,,,3573,completion,,,,,false,,,,523124,523124,519544,519549,519551,523127,8,400,,,
trial,html.Screen,4_113_0,2023-05-01T21:58:37.134Z,,0,3,,2510,response,ISIC_4154293.JPG,,ISIC_9445196.JPG,ISIC_4154293.JPG,false,1,keypress(m),500,525637,525637,523120,523124,523127,525640,8,400,14,,ISIC_9445196.JPG
break,html.Screen,4_113_1,2023-05-01T21:58:37.135Z,,0,,,NaN,,,,,,false,,,,525637,525637,,525637,,525640,8,400,,,
break_continue,html.Screen,4_113_2,2023-05-01T21:58:37.135Z,,0,,,NaN,,,,,,false,,,,525638,525638,,525637,,525640,8,400,,,
sequence,flow.Sequence,4_113,2023-05-01T21:58:37.135Z,,0,,,2511,completion,,,,,false,,,,525638,525638,523120,523124,523127,525640,8,400,,,
trial,html.Screen,4_114_0,2023-05-01T21:58:40.197Z,,0,3,,3059,response,ISIC_4548995.JPG,,ISIC_3844404.JPG,ISIC_3844404.JPG,false,0,keypress(z),500,528699,528699,525633,525638,525640,528702,8,400,15,,ISIC_4548995.JPG
break,html.Screen,4_114_1,2023-05-01T21:58:40.197Z,,0,,,NaN,,,,,,false,,,,528699,528699,,528699,,528702,8,400,,,
break_continue,html.Screen,4_114_2,2023-05-01T21:58:40.197Z,,0,,,NaN,,,,,,false,,,,528699,528699,,528699,,528702,8,400,,,
sequence,flow.Sequence,4_114,2023-05-01T21:58:40.197Z,,0,,,3059,completion,,,,,false,,,,528699,528699,525633,525638,525640,528702,8,400,,,
trial,html.Screen,4_115_0,2023-05-01T21:58:44.792Z,,0,3,,4592,response,ISIC_9291926.JPG,,ISIC_0030501.JPG,ISIC_0030501.JPG,false,0,keypress(z),500,533294,533294,528695,528700,528702,533298,8,400,16,,ISIC_9291926.JPG
break,html.Screen,4_115_1,2023-05-01T21:58:44.792Z,,0,,,NaN,,,,,,false,,,,533295,533295,,533295,,533298,8,400,,,
break_continue,html.Screen,4_115_2,2023-05-01T21:58:44.792Z,,0,,,NaN,,,,,,false,,,,533295,533295,,533295,,533298,8,400,,,
sequence,flow.Sequence,4_115,2023-05-01T21:58:44.792Z,,0,,,4593,completion,,,,,false,,,,533295,533295,528695,528700,528702,533298,8,400,,,
trial,html.Screen,4_116_0,2023-05-01T21:58:47.587Z,,0,3,,2792,response,ISIC_2377039.JPG,,ISIC_4894929.JPG,ISIC_2377039.JPG,false,1,keypress(m),500,536090,536090,533291,533295,533298,536097,8,400,17,,ISIC_4894929.JPG
break,html.Screen,4_116_1,2023-05-01T21:58:47.588Z,,0,,,NaN,,,,,,false,,,,536090,536090,,536090,,536097,8,400,,,
break_continue,html.Screen,4_116_2,2023-05-01T21:58:47.588Z,,0,,,NaN,,,,,,false,,,,536090,536090,,536090,,536097,8,400,,,
sequence,flow.Sequence,4_116,2023-05-01T21:58:47.588Z,,0,,,2792,completion,,,,,false,,,,536090,536090,533291,533295,533298,536097,8,400,,,
trial,html.Screen,4_117_0,2023-05-01T21:58:50.344Z,,0,3,,2749,response,ISIC_1568268.JPG,,ISIC_5044438.JPG,ISIC_5044438.JPG,false,0,keypress(z),500,538846,538846,536090,536090,536097,538853,8,400,18,,ISIC_1568268.JPG
break,html.Screen,4_117_1,2023-05-01T21:58:50.344Z,,0,,,NaN,,,,,,false,,,,538847,538846,,538846,,538853,8,400,,,
break_continue,html.Screen,4_117_2,2023-05-01T21:58:50.344Z,,0,,,NaN,,,,,,false,,,,538847,538847,,538847,,538853,8,400,,,
sequence,flow.Sequence,4_117,2023-05-01T21:58:50.344Z,,0,,,2750,completion,,,,,false,,,,538847,538847,536090,536090,536097,538853,8,400,,,
trial,html.Screen,4_118_0,2023-05-01T21:58:52.892Z,,0,3,,2541,response,ISIC_0000303.JPG,,ISIC_0033916.JPG,ISIC_0000303.JPG,false,1,keypress(m),500,541394,541394,538846,538847,538853,541401,8,400,19,,ISIC_0033916.JPG
break,html.Screen,4_118_1,2023-05-01T21:58:52.892Z,,0,,,NaN,,,,,,false,,,,541395,541395,,541395,,541401,8,400,,,
break_continue,html.Screen,4_118_2,2023-05-01T21:58:52.893Z,,0,,,NaN,,,,,,false,,,,541395,541395,,541395,,541401,8,400,,,
sequence,flow.Sequence,4_118,2023-05-01T21:58:52.893Z,,0,,,2542,completion,,,,,false,,,,541395,541395,538846,538847,538853,541401,8,400,,,
trial,html.Screen,4_119_0,2023-05-01T21:58:55.392Z,,0,3,,2493,response,ISIC_8628207.JPG,,ISIC_5231145.JPG,ISIC_5231145.JPG,false,0,keypress(z),500,543894,543894,541394,541395,541401,543901,8,400,20,,ISIC_8628207.JPG
break,html.Screen,4_119_1,2023-05-01T21:58:55.393Z,,0,,,NaN,,,,,,false,,,,543895,543895,,543894,,543901,8,400,,,
break_continue,html.Screen,4_119_2,2023-05-01T21:58:55.393Z,,0,,,NaN,,,,,,false,,,,543895,543895,,543895,,543901,8,400,,,
sequence,flow.Sequence,4_119,2023-05-01T21:58:55.393Z,,0,,,2494,completion,,,,,false,,,,543895,543895,541394,541395,541401,543901,8,400,,,
trial,html.Screen,4_120_0,2023-05-01T21:58:57.852Z,,0,3,,2453,response,ISIC_0014082.JPG,,ISIC_3653492.JPG,ISIC_0014082.JPG,false,1,keypress(m),500,546354,546354,543894,543895,543901,546365,8,400,21,,ISIC_3653492.JPG
break,html.Screen,4_120_1,2023-05-01T21:58:57.853Z,,0,,,NaN,,,,,,false,,,,546355,546355,,546355,,546365,8,400,,,
break_continue,html.Screen,4_120_2,2023-05-01T21:58:57.853Z,,0,,,NaN,,,,,,false,,,,546355,546355,,546355,,546365,8,400,,,
sequence,flow.Sequence,4_120,2023-05-01T21:58:57.853Z,,0,,,2454,completion,,,,,false,,,,546355,546355,543894,543895,543901,546365,8,400,,,
trial,html.Screen,4_121_0,2023-05-01T21:59:00.329Z,,0,3,,2465,response,ISIC_0071678.JPG,,ISIC_0011753.JPG,ISIC_0011753.JPG,false,0,keypress(z),500,548830,548830,546358,546355,546365,548837,8,400,22,,ISIC_0071678.JPG
break,html.Screen,4_121_1,2023-05-01T21:59:00.329Z,,0,,,NaN,,,,,,false,,,,548831,548831,,548830,,548837,8,400,,,
break_continue,html.Screen,4_121_2,2023-05-01T21:59:00.329Z,,0,,,NaN,,,,,,false,,,,548831,548831,,548831,,548837,8,400,,,
sequence,flow.Sequence,4_121,2023-05-01T21:59:00.329Z,,0,,,2466,completion,,,,,false,,,,548831,548831,546358,546355,546365,548837,8,400,,,
trial,html.Screen,4_122_0,2023-05-01T21:59:03.315Z,,0,3,,2980,response,ISIC_3305055.JPG,,ISIC_6430210.JPG,ISIC_3305055.JPG,false,1,keypress(m),500,551817,551817,548830,548831,548837,551823,8,400,23,,ISIC_6430210.JPG
break,html.Screen,4_122_1,2023-05-01T21:59:03.315Z,,0,,,NaN,,,,,,false,,,,551818,551818,,551817,,551823,8,400,,,
break_continue,html.Screen,4_122_2,2023-05-01T21:59:03.315Z,,0,,,NaN,,,,,,false,,,,551818,551818,,551818,,551823,8,400,,,
sequence,flow.Sequence,4_122,2023-05-01T21:59:03.316Z,,0,,,2981,completion,,,,,false,,,,551818,551818,548830,548831,548837,551823,8,400,,,
trial,html.Screen,4_123_0,2023-05-01T21:59:06.121Z,,0,3,,2799,response,ISIC_6299036.JPG,,ISIC_3566243.JPG,ISIC_3566243.JPG,false,0,keypress(z),500,554622,554622,551816,551818,551823,554628,8,400,24,,ISIC_6299036.JPG
break,html.Screen,4_123_1,2023-05-01T21:59:06.121Z,,0,,,NaN,,,,,,false,,,,554623,554623,,554623,,554628,8,400,,,
break_continue,html.Screen,4_123_2,2023-05-01T21:59:06.121Z,,0,,,NaN,,,,,,false,,,,554623,554623,,554623,,554628,8,400,,,
sequence,flow.Sequence,4_123,2023-05-01T21:59:06.121Z,,0,,,2800,completion,,,,,false,,,,554624,554623,551816,551818,551823,554628,8,400,,,
trial,html.Screen,4_124_0,2023-05-01T21:59:11.720Z,,0,3,,5593,response,ISIC_0070666.JPG,,ISIC_4692454.JPG,ISIC_4692454.JPG,false,0,keypress(z),500,560221,560221,554620,554624,554628,560224,8,400,25,,ISIC_0070666.JPG
break,html.Screen,4_124_1,2023-05-01T21:59:11.720Z,,0,,,NaN,,,,,,false,,,,560222,560221,,560221,,560224,8,400,,,
break_continue,html.Screen,4_124_2,2023-05-01T21:59:11.720Z,,0,,,NaN,,,,,,false,,,,560222,560222,,560222,,560224,8,400,,,
sequence,flow.Sequence,4_124,2023-05-01T21:59:11.720Z,,0,,,5594,completion,,,,,false,,,,560222,560222,554620,554624,554628,560224,8,400,,,
trial,html.Screen,4_125_0,2023-05-01T21:59:14.228Z,,0,3,,2506,response,ISIC_4732684.JPG,,ISIC_7724764.JPG,ISIC_4732684.JPG,false,1,keypress(m),500,562730,562730,560217,560222,560224,562730,8,400,26,,ISIC_7724764.JPG
break,html.Screen,4_125_1,2023-05-01T21:59:14.228Z,,0,,,NaN,,,,,,false,,,,562731,562731,,562730,,562730,8,400,,,
break_continue,html.Screen,4_125_2,2023-05-01T21:59:14.229Z,,0,,,NaN,,,,,,false,,,,562731,562731,,562731,,562730,8,400,,,
sequence,flow.Sequence,4_125,2023-05-01T21:59:14.229Z,,0,,,2507,completion,,,,,false,,,,562731,562731,560217,560222,560224,562730,8,400,,,
trial,html.Screen,4_126_0,2023-05-01T21:59:18.782Z,,0,3,,4554,response,ISIC_0014092.JPG,,ISIC_0068152.JPG,ISIC_0068152.JPG,false,0,keypress(z),500,567284,567284,562730,562731,562730,567285,8,400,27,,ISIC_0014092.JPG
break,html.Screen,4_126_1,2023-05-01T21:59:18.782Z,,0,,,NaN,,,,,,false,,,,567284,567284,,567284,,567285,8,400,,,
break_continue,html.Screen,4_126_2,2023-05-01T21:59:18.782Z,,0,,,NaN,,,,,,false,,,,567285,567285,,567284,,567285,8,400,,,
sequence,flow.Sequence,4_126,2023-05-01T21:59:18.782Z,,0,,,4555,completion,,,,,false,,,,567285,567285,562730,562731,562730,567285,8,400,,,
trial,html.Screen,4_127_0,2023-05-01T21:59:21.785Z,,0,3,,3002,response,ISIC_5897799.JPG,,ISIC_1615485.JPG,ISIC_5897799.JPG,false,1,keypress(m),500,570287,570287,567278,567285,567285,570291,8,400,28,,ISIC_1615485.JPG
break,html.Screen,4_127_1,2023-05-01T21:59:21.785Z,,0,,,NaN,,,,,,false,,,,570287,570287,,570287,,570291,8,400,,,
break_continue,html.Screen,4_127_2,2023-05-01T21:59:21.785Z,,0,,,NaN,,,,,,false,,,,570287,570287,,570287,,570291,8,400,,,
sequence,flow.Sequence,4_127,2023-05-01T21:59:21.785Z,,0,,,3002,completion,,,,,false,,,,570287,570287,567278,567285,567285,570291,8,400,,,
trial,html.Screen,4_128_0,2023-05-01T21:59:24.304Z,,0,3,,2515,response,ISIC_3475660.JPG,,ISIC_0029078.JPG,ISIC_0029078.JPG,false,0,keypress(z),500,572806,572806,570284,570287,570291,572812,8,400,29,,ISIC_3475660.JPG
break,html.Screen,4_128_1,2023-05-01T21:59:24.304Z,,0,,,NaN,,,,,,false,,,,572806,572806,,572806,,572812,8,400,,,
break_continue,html.Screen,4_128_2,2023-05-01T21:59:24.304Z,,0,,,NaN,,,,,,false,,,,572806,572806,,572806,,572812,8,400,,,
sequence,flow.Sequence,4_128,2023-05-01T21:59:24.304Z,,0,,,2515,completion,,,,,false,,,,572806,572806,570284,570287,570291,572812,8,400,,,
trial,html.Screen,4_129_0,2023-05-01T21:59:26.949Z,,0,3,,2638,response,ISIC_5116614.JPG,,ISIC_0070581.JPG,ISIC_0070581.JPG,false,0,keypress(z),500,575451,575450,572805,572806,572812,575457,8,400,30,,ISIC_5116614.JPG
break,html.Screen,4_129_1,2023-05-01T21:59:26.949Z,,0,,,NaN,,,,,,false,,,,575451,575451,,575451,,575457,8,400,,,
break_continue,html.Screen,4_129_2,2023-05-01T21:59:26.949Z,,0,,,NaN,,,,,,false,,,,575451,575451,,575451,,575457,8,400,,,
sequence,flow.Sequence,4_129,2023-05-01T21:59:26.949Z,,0,,,2639,completion,,,,,false,,,,575451,575451,572805,572806,572812,575457,8,400,,,
trial,html.Screen,4_130_0,2023-05-01T21:59:30.558Z,,0,3,,3603,response,ISIC_3898738.JPG,,ISIC_0033713.JPG,ISIC_0033713.JPG,false,0,keypress(z),500,579061,579060,575450,575451,575457,579067,8,400,31,,ISIC_3898738.JPG
break,html.Screen,4_130_1,2023-05-01T21:59:30.559Z,,0,,,NaN,,,,,,false,,,,579061,579061,,579061,,579067,8,400,,,
break_continue,html.Screen,4_130_2,2023-05-01T21:59:30.559Z,,0,,,NaN,,,,,,false,,,,579061,579061,,579061,,579067,8,400,,,
sequence,flow.Sequence,4_130,2023-05-01T21:59:30.559Z,,0,,,3604,completion,,,,,false,,,,579061,579061,575450,575451,575457,579067,8,400,,,
trial,html.Screen,4_131_0,2023-05-01T21:59:33.179Z,,0,3,,2614,response,ISIC_0070447.JPG,,ISIC_7271745.JPG,ISIC_0070447.JPG,false,1,keypress(m),500,581681,581681,579060,579061,579067,581685,8,400,32,,ISIC_7271745.JPG
break,html.Screen,4_131_1,2023-05-01T21:59:33.180Z,,0,,,NaN,,,,,,false,,,,581682,581682,,581681,,581685,8,400,,,
break_continue,html.Screen,4_131_2,2023-05-01T21:59:33.180Z,,0,,,NaN,,,,,,false,,,,581682,581682,,581682,,581685,8,400,,,
sequence,flow.Sequence,4_131,2023-05-01T21:59:33.180Z,,0,,,2615,completion,,,,,false,,,,581682,581682,579060,579061,579067,581685,8,400,,,
trial,html.Screen,4_132_0,2023-05-01T21:59:35.735Z,,0,3,,2552,response,ISIC_0021271.JPG,,ISIC_6269543.JPG,ISIC_0021271.JPG,false,1,keypress(m),500,584238,584237,581678,581682,581685,584240,8,400,33,,ISIC_6269543.JPG
break,html.Screen,4_132_1,2023-05-01T21:59:35.736Z,,0,,,NaN,,,,,,false,,,,584238,584238,,584238,,584240,8,400,,,
break_continue,html.Screen,4_132_2,2023-05-01T21:59:35.736Z,,0,,,NaN,,,,,,false,,,,584238,584238,,584238,,584240,8,400,,,
sequence,flow.Sequence,4_132,2023-05-01T21:59:35.736Z,,0,,,2553,completion,,,,,false,,,,584238,584238,581678,581682,581685,584240,8,400,,,
trial,html.Screen,4_133_0,2023-05-01T21:59:38.234Z,,0,3,,2496,response,ISIC_0055820.JPG,,ISIC_0026627.JPG,ISIC_0055820.JPG,false,1,keypress(m),500,586736,586736,584233,584238,584240,586740,8,400,34,,ISIC_0026627.JPG
break,html.Screen,4_133_1,2023-05-01T21:59:38.235Z,,0,,,NaN,,,,,,false,,,,586736,586736,,586736,,586740,8,400,,,
break_continue,html.Screen,4_133_2,2023-05-01T21:59:38.235Z,,0,,,NaN,,,,,,false,,,,586736,586736,,586736,,586740,8,400,,,
sequence,flow.Sequence,4_133,2023-05-01T21:59:38.235Z,,0,,,2496,completion,,,,,false,,,,586736,586736,584233,584238,584240,586740,8,400,,,
trial,html.Screen,4_134_0,2023-05-01T21:59:40.639Z,,0,3,,2401,response,ISIC_0025996.JPG,,ISIC_3556980.JPG,ISIC_0025996.JPG,false,1,keypress(m),500,589141,589141,586733,586736,586740,589149,8,400,35,,ISIC_3556980.JPG
break,html.Screen,4_134_1,2023-05-01T21:59:40.639Z,,0,,,NaN,,,,,,false,,,,589141,589141,,589141,,589149,8,400,,,
break_continue,html.Screen,4_134_2,2023-05-01T21:59:40.640Z,,0,,,NaN,,,,,,false,,,,589141,589141,,589141,,589149,8,400,,,
sequence,flow.Sequence,4_134,2023-05-01T21:59:40.640Z,,0,,,2401,completion,,,,,false,,,,589141,589141,586733,586736,586740,589149,8,400,,,
trial,html.Screen,4_135_0,2023-05-01T21:59:44.026Z,,0,3,,3379,response,ISIC_7761711.JPG,,ISIC_0055054.JPG,ISIC_0055054.JPG,false,0,keypress(z),500,592528,592528,589142,589141,589149,592530,8,400,36,,ISIC_7761711.JPG
break,html.Screen,4_135_1,2023-05-01T21:59:44.026Z,,0,,,NaN,,,,,,false,,,,592529,592528,,592528,,592530,8,400,,,
break_continue,html.Screen,4_135_2,2023-05-01T21:59:44.026Z,,0,,,NaN,,,,,,false,,,,592529,592529,,592529,,592530,8,400,,,
sequence,flow.Sequence,4_135,2023-05-01T21:59:44.026Z,,0,,,3380,completion,,,,,false,,,,592529,592529,589142,589141,589149,592530,8,400,,,
trial,html.Screen,4_136_0,2023-05-01T21:59:46.548Z,,0,3,,2520,response,ISIC_9709101.JPG,,ISIC_0032112.JPG,ISIC_0032112.JPG,false,0,keypress(z),500,595050,595050,592523,592529,592530,595057,8,400,37,,ISIC_9709101.JPG
break,html.Screen,4_136_1,2023-05-01T21:59:46.549Z,,0,,,NaN,,,,,,false,,,,595050,595050,,595050,,595057,8,400,,,
break_continue,html.Screen,4_136_2,2023-05-01T21:59:46.549Z,,0,,,NaN,,,,,,false,,,,595051,595051,,595050,,595057,8,400,,,
sequence,flow.Sequence,4_136,2023-05-01T21:59:46.549Z,,0,,,2521,completion,,,,,false,,,,595051,595051,592523,592529,592530,595057,8,400,,,
trial,html.Screen,4_137_0,2023-05-01T21:59:49.206Z,,0,3,,2650,response,ISIC_0024351.JPG,,ISIC_5747942.JPG,ISIC_0024351.JPG,false,1,keypress(m),500,597708,597707,595051,595051,595057,597710,8,400,38,,ISIC_5747942.JPG
break,html.Screen,4_137_1,2023-05-01T21:59:49.206Z,,0,,,NaN,,,,,,false,,,,597708,597708,,597708,,597710,8,400,,,
break_continue,html.Screen,4_137_2,2023-05-01T21:59:49.206Z,,0,,,NaN,,,,,,false,,,,597708,597708,,597708,,597710,8,400,,,
sequence,flow.Sequence,4_137,2023-05-01T21:59:49.207Z,,0,,,2651,completion,,,,,false,,,,597708,597708,595051,595051,595057,597710,8,400,,,
trial,html.Screen,4_138_0,2023-05-01T21:59:51.641Z,,0,3,,2433,response,ISIC_3792196.JPG,,ISIC_0032873.JPG,ISIC_0032873.JPG,false,0,keypress(z),500,600143,600143,597703,597708,597710,600147,8,400,39,,ISIC_3792196.JPG
break,html.Screen,4_138_1,2023-05-01T21:59:51.642Z,,0,,,NaN,,,,,,false,,,,600143,600143,,600143,,600147,8,400,,,
break_continue,html.Screen,4_138_2,2023-05-01T21:59:51.642Z,,0,,,NaN,,,,,,false,,,,600143,600143,,600143,,600147,8,400,,,
sequence,flow.Sequence,4_138,2023-05-01T21:59:51.642Z,,0,,,2433,completion,,,,,false,,,,600144,600143,597703,597708,597710,600147,8,400,,,
trial,html.Screen,4_139_0,2023-05-01T21:59:54.339Z,,0,3,,2694,response,ISIC_0010503.JPG,,ISIC_4882389.JPG,ISIC_0010503.JPG,false,1,keypress(m),500,602841,602841,600140,600144,600147,602848,8,400,40,,ISIC_4882389.JPG
break,html.Screen,4_139_1,2023-05-01T21:59:54.339Z,,0,,,NaN,,,,,,false,,,,602841,602841,,602841,,602848,8,400,,,
break_continue,html.Screen,4_139_2,2023-05-01T21:59:54.339Z,,0,,,NaN,,,,,,false,,,,602841,602841,,602841,,602848,8,400,,,
sequence,flow.Sequence,4_139,2023-05-01T21:59:54.339Z,,0,,,2694,completion,,,,,false,,,,602841,602841,600140,600144,600147,602848,8,400,,,
trial,html.Screen,4_140_0,2023-05-01T21:59:57.320Z,,0,3,,2973,response,ISIC_7212271.JPG,,ISIC_0029898.JPG,ISIC_0029898.JPG,false,0,keypress(z),500,605821,605821,602841,602841,602848,605826,8,400,41,,ISIC_7212271.JPG
break,html.Screen,4_140_1,2023-05-01T21:59:57.320Z,,0,,,NaN,,,,,,false,,,,605822,605822,,605821,,605826,8,400,,,
break_continue,html.Screen,4_140_2,2023-05-01T21:59:57.320Z,,0,,,NaN,,,,,,false,,,,605822,605822,,605822,,605826,8,400,,,
sequence,flow.Sequence,4_140,2023-05-01T21:59:57.320Z,,0,,,2974,completion,,,,,false,,,,605822,605822,602841,602841,602848,605826,8,400,,,
trial,html.Screen,4_141_0,2023-05-01T22:00:00.056Z,,0,3,,2732,response,ISIC_0024513.JPG,,ISIC_3898738.JPG,ISIC_0024513.JPG,false,1,keypress(m),500,608558,608558,605819,605822,605826,608562,8,400,42,,ISIC_3898738.JPG
break,html.Screen,4_141_1,2023-05-01T22:00:00.056Z,,0,,,NaN,,,,,,false,,,,608559,608559,,608558,,608562,8,400,,,
break_continue,html.Screen,4_141_2,2023-05-01T22:00:00.057Z,,0,,,NaN,,,,,,false,,,,608559,608559,,608559,,608562,8,400,,,
sequence,flow.Sequence,4_141,2023-05-01T22:00:00.057Z,,0,,,2733,completion,,,,,false,,,,608559,608559,605819,605822,605826,608562,8,400,,,
trial,html.Screen,4_142_0,2023-05-01T22:00:03.305Z,,0,3,,3245,response,ISIC_4136832.JPG,,ISIC_6023504.JPG,ISIC_6023504.JPG,false,0,keypress(z),500,611807,611807,608555,608559,608562,611811,8,400,43,,ISIC_4136832.JPG
break,html.Screen,4_142_1,2023-05-01T22:00:03.305Z,,0,,,NaN,,,,,,false,,,,611808,611807,,611807,,611811,8,400,,,
break_continue,html.Screen,4_142_2,2023-05-01T22:00:03.306Z,,0,,,NaN,,,,,,false,,,,611808,611808,,611808,,611811,8,400,,,
sequence,flow.Sequence,4_142,2023-05-01T22:00:03.306Z,,0,,,3246,completion,,,,,false,,,,611808,611808,608555,608559,608562,611811,8,400,,,
trial,html.Screen,4_143_0,2023-05-01T22:00:08.173Z,,0,3,,4864,response,ISIC_8436666.JPG,,ISIC_8366864.JPG,ISIC_8436666.JPG,false,1,keypress(m),500,616676,616675,611804,611808,611811,616685,8,400,44,,ISIC_8366864.JPG
break,html.Screen,4_143_1,2023-05-01T22:00:08.174Z,,0,,,NaN,,,,,,false,,,,616676,616676,,616676,,616685,8,400,,,
break_continue,html.Screen,4_143_2,2023-05-01T22:00:08.174Z,,0,,,NaN,,,,,,false,,,,616676,616676,,616676,,616685,8,400,,,
sequence,flow.Sequence,4_143,2023-05-01T22:00:08.174Z,,0,,,4865,completion,,,,,false,,,,616676,616676,611804,611808,611811,616685,8,400,,,
trial,html.Screen,4_144_0,2023-05-01T22:00:11.212Z,,0,3,,3029,response,ISIC_9142919.JPG,,ISIC_0004099.JPG,ISIC_9142919.JPG,false,1,keypress(m),500,619714,619714,616678,616676,616685,619719,8,400,45,,ISIC_0004099.JPG
break,html.Screen,4_144_1,2023-05-01T22:00:11.212Z,,0,,,NaN,,,,,,false,,,,619714,619714,,619714,,619719,8,400,,,
break_continue,html.Screen,4_144_2,2023-05-01T22:00:11.212Z,,0,,,NaN,,,,,,false,,,,619714,619714,,619714,,619719,8,400,,,
sequence,flow.Sequence,4_144,2023-05-01T22:00:11.212Z,,0,,,3029,completion,,,,,false,,,,619714,619714,616678,616676,616685,619719,8,400,,,
trial,html.Screen,4_145_0,2023-05-01T22:00:13.732Z,,0,3,,2515,response,ISIC_0030969.JPG,,ISIC_3685955.JPG,ISIC_0030969.JPG,false,1,keypress(m),500,622234,622234,619712,619714,619719,622240,8,400,46,,ISIC_3685955.JPG
break,html.Screen,4_145_1,2023-05-01T22:00:13.733Z,,0,,,NaN,,,,,,false,,,,622235,622235,,622234,,622240,8,400,,,
break_continue,html.Screen,4_145_2,2023-05-01T22:00:13.733Z,,0,,,NaN,,,,,,false,,,,622235,622235,,622235,,622240,8,400,,,
sequence,flow.Sequence,4_145,2023-05-01T22:00:13.733Z,,0,,,2516,completion,,,,,false,,,,622235,622235,619712,619714,619719,622240,8,400,,,
trial,html.Screen,4_146_0,2023-05-01T22:00:16.302Z,,0,3,,2563,response,ISIC_0046405.JPG,,ISIC_2141003.JPG,ISIC_0046405.JPG,false,1,keypress(m),500,624803,624803,622233,622235,622240,624809,8,400,47,,ISIC_2141003.JPG
break,html.Screen,4_146_1,2023-05-01T22:00:16.302Z,,0,,,NaN,,,,,,false,,,,624804,624804,,624804,,624809,8,400,,,
break_continue,html.Screen,4_146_2,2023-05-01T22:00:16.302Z,,0,,,NaN,,,,,,false,,,,624804,624804,,624804,,624809,8,400,,,
sequence,flow.Sequence,4_146,2023-05-01T22:00:16.302Z,,0,,,2564,completion,,,,,false,,,,624804,624804,622233,622235,622240,624809,8,400,,,
trial,html.Screen,4_147_0,2023-05-01T22:00:18.998Z,,0,3,,2691,response,ISIC_0033925.JPG,,ISIC_2679689.JPG,ISIC_0033925.JPG,false,1,keypress(m),500,627500,627500,624802,624804,624809,627502,8,400,48,,ISIC_2679689.JPG
break,html.Screen,4_147_1,2023-05-01T22:00:18.998Z,,0,,,NaN,,,,,,false,,,,627500,627500,,627500,,627502,8,400,,,
break_continue,html.Screen,4_147_2,2023-05-01T22:00:18.998Z,,0,,,NaN,,,,,,false,,,,627500,627500,,627500,,627502,8,400,,,
sequence,flow.Sequence,4_147,2023-05-01T22:00:18.999Z,,0,,,2691,completion,,,,,false,,,,627500,627500,624802,624804,624809,627502,8,400,,,
trial,html.Screen,4_148_0,2023-05-01T22:00:21.885Z,,0,3,,2885,response,ISIC_0068215.JPG,,ISIC_9631669.JPG,ISIC_0068215.JPG,false,1,keypress(m),500,630387,630387,627495,627500,627502,630391,8,400,49,,ISIC_9631669.JPG
break,html.Screen,4_148_1,2023-05-01T22:00:21.885Z,,0,,,NaN,,,,,,false,,,,630387,630387,,630387,,630391,8,400,,,
break_continue,html.Screen,4_148_2,2023-05-01T22:00:21.885Z,,0,,,NaN,,,,,,false,,,,630387,630387,,630387,,630391,8,400,,,
sequence,flow.Sequence,4_148,2023-05-01T22:00:21.886Z,,0,,,2885,completion,,,,,false,,,,630387,630387,627495,627500,627502,630391,8,400,,,
trial,html.Screen,4_149_0,2023-05-01T22:00:25.160Z,,0,3,,3271,response,ISIC_0058909.JPG,,ISIC_4579262.JPG,ISIC_0058909.JPG,false,1,keypress(m),500,633662,633662,630384,630387,630391,633668,8,400,50,,ISIC_4579262.JPG
break,html.Screen,4_149_1,2023-05-01T22:00:30.159Z,,0,,,4999,timeout,,,,,false,,,,638661,638660,633661,633662,633668,638667,8,400,,,
break_continue,html.Screen,4_149_2,2023-05-01T22:00:30.479Z,,0,,,308,response,,,,,false,continue,keypress(Space),,638981,638975,638660,638661,638667,638986,8,400,,,
sequence,flow.Sequence,4_149,2023-05-01T22:00:30.479Z,,0,,,8584,completion,,,,,false,,,,638981,638975,630384,630387,630391,638986,8,400,,,
trial,html.Screen,4_150_0,2023-05-01T22:00:33.060Z,,0,4,,2575,response,ISIC_8814398.JPG,,ISIC_0031363.JPG,ISIC_8814398.JPG,false,1,keypress(m),500,641561,641561,638981,638981,638986,641562,8,400,1,,ISIC_0031363.JPG
break,html.Screen,4_150_1,2023-05-01T22:00:33.060Z,,0,,,NaN,,,,,,false,,,,641562,641561,,641561,,641562,8,400,,,
break_continue,html.Screen,4_150_2,2023-05-01T22:00:33.060Z,,0,,,NaN,,,,,,false,,,,641562,641562,,641562,,641562,8,400,,,
sequence,flow.Sequence,4_150,2023-05-01T22:00:33.060Z,,0,,,2576,completion,,,,,false,,,,641562,641562,638981,638981,638986,641562,8,400,,,
trial,html.Screen,4_151_0,2023-05-01T22:00:35.917Z,,0,4,,2856,response,ISIC_5357288.JPG,,ISIC_0071771.JPG,ISIC_0071771.JPG,false,0,keypress(z),500,644418,644418,641559,641562,641562,644423,8,400,2,,ISIC_5357288.JPG
break,html.Screen,4_151_1,2023-05-01T22:00:35.917Z,,0,,,NaN,,,,,,false,,,,644419,644419,,644418,,644423,8,400,,,
break_continue,html.Screen,4_151_2,2023-05-01T22:00:35.917Z,,0,,,NaN,,,,,,false,,,,644419,644419,,644419,,644423,8,400,,,
sequence,flow.Sequence,4_151,2023-05-01T22:00:35.917Z,,0,,,2857,completion,,,,,false,,,,644419,644419,641559,641562,641562,644423,8,400,,,
trial,html.Screen,4_152_0,2023-05-01T22:00:38.850Z,,0,4,,2929,response,ISIC_0003703.JPG,,ISIC_8527737.JPG,ISIC_8527737.JPG,false,0,keypress(z),500,647352,647352,644412,644419,644423,647353,8,400,3,,ISIC_0003703.JPG
break,html.Screen,4_152_1,2023-05-01T22:00:38.850Z,,0,,,NaN,,,,,,false,,,,647352,647352,,647352,,647353,8,400,,,
break_continue,html.Screen,4_152_2,2023-05-01T22:00:38.850Z,,0,,,NaN,,,,,,false,,,,647352,647352,,647352,,647353,8,400,,,
sequence,flow.Sequence,4_152,2023-05-01T22:00:38.850Z,,0,,,2929,completion,,,,,false,,,,647352,647352,644412,644419,644423,647353,8,400,,,
trial,html.Screen,4_153_0,2023-05-01T22:00:41.291Z,,0,4,,2440,response,ISIC_0028422.JPG,,ISIC_5736292.JPG,ISIC_0028422.JPG,false,1,keypress(m),500,649793,649793,647350,647352,647353,649797,8,400,4,,ISIC_5736292.JPG
break,html.Screen,4_153_1,2023-05-01T22:00:41.291Z,,0,,,NaN,,,,,,false,,,,649793,649793,,649793,,649797,8,400,,,
break_continue,html.Screen,4_153_2,2023-05-01T22:00:41.291Z,,0,,,NaN,,,,,,false,,,,649793,649793,,649793,,649797,8,400,,,
sequence,flow.Sequence,4_153,2023-05-01T22:00:41.291Z,,0,,,2440,completion,,,,,false,,,,649794,649793,647350,647352,647353,649797,8,400,,,
trial,html.Screen,4_154_0,2023-05-01T22:00:43.760Z,,0,4,,2465,response,ISIC_8244535.JPG,,ISIC_9014036.JPG,ISIC_8244535.JPG,false,1,keypress(m),500,652262,652262,649789,649794,649797,652268,8,400,5,,ISIC_9014036.JPG
break,html.Screen,4_154_1,2023-05-01T22:00:43.760Z,,0,,,NaN,,,,,,false,,,,652262,652262,,652262,,652268,8,400,,,
break_continue,html.Screen,4_154_2,2023-05-01T22:00:43.761Z,,0,,,NaN,,,,,,false,,,,652262,652262,,652262,,652268,8,400,,,
sequence,flow.Sequence,4_154,2023-05-01T22:00:43.761Z,,0,,,2465,completion,,,,,false,,,,652262,652262,649789,649794,649797,652268,8,400,,,
trial,html.Screen,4_155_0,2023-05-01T22:00:46.620Z,,0,4,,2854,response,ISIC_0016085.JPG,,ISIC_1672821.JPG,ISIC_1672821.JPG,false,0,keypress(z),500,655122,655122,652262,652262,652268,655122,8,400,6,,ISIC_0016085.JPG
break,html.Screen,4_155_1,2023-05-01T22:00:46.620Z,,0,,,NaN,,,,,,false,,,,655122,655122,,655122,,655122,8,400,,,
break_continue,html.Screen,4_155_2,2023-05-01T22:00:46.620Z,,0,,,NaN,,,,,,false,,,,655122,655122,,655122,,655122,8,400,,,
sequence,flow.Sequence,4_155,2023-05-01T22:00:46.620Z,,0,,,2854,completion,,,,,false,,,,655122,655122,652262,652262,652268,655122,8,400,,,
trial,html.Screen,4_156_0,2023-05-01T22:00:49.270Z,,0,4,,2649,response,ISIC_0013084.JPG,,ISIC_0057015.JPG,ISIC_0057015.JPG,false,0,keypress(z),500,657772,657771,655122,655122,655122,657774,8,400,7,,ISIC_0013084.JPG
break,html.Screen,4_156_1,2023-05-01T22:00:49.270Z,,0,,,NaN,,,,,,false,,,,657772,657772,,657772,,657774,8,400,,,
break_continue,html.Screen,4_156_2,2023-05-01T22:00:49.270Z,,0,,,NaN,,,,,,false,,,,657772,657772,,657772,,657774,8,400,,,
sequence,flow.Sequence,4_156,2023-05-01T22:00:49.270Z,,0,,,2650,completion,,,,,false,,,,657772,657772,655122,655122,655122,657774,8,400,,,
trial,html.Screen,4_157_0,2023-05-01T22:00:51.745Z,,0,4,,2473,response,ISIC_0055265.JPG,,ISIC_0031325.JPG,ISIC_0055265.JPG,false,1,keypress(m),500,660247,660247,657770,657772,657774,660253,8,400,8,,ISIC_0031325.JPG
break,html.Screen,4_157_1,2023-05-01T22:00:51.745Z,,0,,,NaN,,,,,,false,,,,660247,660247,,660247,,660253,8,400,,,
break_continue,html.Screen,4_157_2,2023-05-01T22:00:51.745Z,,0,,,NaN,,,,,,false,,,,660247,660247,,660247,,660253,8,400,,,
sequence,flow.Sequence,4_157,2023-05-01T22:00:51.745Z,,0,,,2473,completion,,,,,false,,,,660247,660247,657770,657772,657774,660253,8,400,,,
trial,html.Screen,4_158_0,2023-05-01T22:00:54.456Z,,0,4,,2705,response,ISIC_0027033.JPG,,ISIC_0033226.JPG,ISIC_0033226.JPG,false,0,keypress(z),500,662958,662958,660246,660247,660253,662961,8,400,9,,ISIC_0027033.JPG
break,html.Screen,4_158_1,2023-05-01T22:00:54.456Z,,0,,,NaN,,,,,,false,,,,662958,662958,,662958,,662961,8,400,,,
break_continue,html.Screen,4_158_2,2023-05-01T22:00:54.456Z,,0,,,NaN,,,,,,false,,,,662959,662958,,662958,,662961,8,400,,,
sequence,flow.Sequence,4_158,2023-05-01T22:00:54.456Z,,0,,,2705,completion,,,,,false,,,,662959,662958,660246,660247,660253,662961,8,400,,,
trial,html.Screen,4_159_0,2023-05-01T22:00:56.883Z,,0,4,,2424,response,ISIC_3006279.JPG,,ISIC_5807608.JPG,ISIC_3006279.JPG,false,1,keypress(m),500,665385,665385,662957,662959,662961,665391,8,400,10,,ISIC_5807608.JPG
break,html.Screen,4_159_1,2023-05-01T22:00:56.883Z,,0,,,NaN,,,,,,false,,,,665385,665385,,665385,,665391,8,400,,,
break_continue,html.Screen,4_159_2,2023-05-01T22:00:56.883Z,,0,,,NaN,,,,,,false,,,,665385,665385,,665385,,665391,8,400,,,
sequence,flow.Sequence,4_159,2023-05-01T22:00:56.883Z,,0,,,2424,completion,,,,,false,,,,665385,665385,662957,662959,662961,665391,8,400,,,
trial,html.Screen,4_160_0,2023-05-01T22:00:59.318Z,,0,4,,2428,response,ISIC_0009924.JPG,,ISIC_2426937.JPG,ISIC_0009924.JPG,false,1,keypress(m),500,667820,667819,665379,665385,665391,667828,8,400,11,,ISIC_2426937.JPG
break,html.Screen,4_160_1,2023-05-01T22:00:59.318Z,,0,,,NaN,,,,,,false,,,,667820,667820,,667820,,667828,8,400,,,
break_continue,html.Screen,4_160_2,2023-05-01T22:00:59.318Z,,0,,,NaN,,,,,,false,,,,667820,667820,,667820,,667828,8,400,,,
sequence,flow.Sequence,4_160,2023-05-01T22:00:59.318Z,,0,,,2429,completion,,,,,false,,,,667820,667820,665379,665385,665391,667828,8,400,,,
trial,html.Screen,4_161_0,2023-05-01T22:01:01.727Z,,0,4,,2401,response,ISIC_3936223.JPG,,ISIC_2133938.JPG,ISIC_3936223.JPG,false,1,keypress(m),500,670229,670229,667821,667820,667828,670237,8,400,12,,ISIC_2133938.JPG
break,html.Screen,4_161_1,2023-05-01T22:01:01.727Z,,0,,,NaN,,,,,,false,,,,670229,670229,,670229,,670237,8,400,,,
break_continue,html.Screen,4_161_2,2023-05-01T22:01:01.727Z,,0,,,NaN,,,,,,false,,,,670229,670229,,670229,,670237,8,400,,,
sequence,flow.Sequence,4_161,2023-05-01T22:01:01.727Z,,0,,,2401,completion,,,,,false,,,,670229,670229,667821,667820,667828,670237,8,400,,,
trial,html.Screen,4_162_0,2023-05-01T22:01:04.237Z,,0,4,,2502,response,ISIC_5974838.JPG,,ISIC_8504479.JPG,ISIC_5974838.JPG,false,1,keypress(m),500,672739,672739,670230,670229,670237,672751,8,400,13,,ISIC_8504479.JPG
break,html.Screen,4_162_1,2023-05-01T22:01:04.238Z,,0,,,NaN,,,,,,false,,,,672740,672740,,672739,,672751,8,400,,,
break_continue,html.Screen,4_162_2,2023-05-01T22:01:04.238Z,,0,,,NaN,,,,,,false,,,,672740,672740,,672740,,672751,8,400,,,
sequence,flow.Sequence,4_162,2023-05-01T22:01:04.238Z,,0,,,2503,completion,,,,,false,,,,672740,672740,670230,670229,670237,672751,8,400,,,
trial,html.Screen,4_163_0,2023-05-01T22:01:06.723Z,,0,4,,2474,response,ISIC_3123711.JPG,,ISIC_0033405.JPG,ISIC_0033405.JPG,false,0,keypress(z),500,675225,675225,672744,672740,672751,675236,8,400,14,,ISIC_3123711.JPG
break,html.Screen,4_163_1,2023-05-01T22:01:06.723Z,,0,,,NaN,,,,,,false,,,,675225,675225,,675225,,675236,8,400,,,
break_continue,html.Screen,4_163_2,2023-05-01T22:01:06.723Z,,0,,,NaN,,,,,,false,,,,675225,675225,,675225,,675236,8,400,,,
sequence,flow.Sequence,4_163,2023-05-01T22:01:06.723Z,,0,,,2474,completion,,,,,false,,,,675225,675225,672744,672740,672751,675236,8,400,,,
