sender,sender_type,sender_id,timestamp,meta,,blockNo,condition,duration,ended_on,img_left,img_reveal,img_right,loser,practice,response,response_action,selection_duration,time_commit,time_end,time_render,time_run,time_show,time_switch,total_blocks,total_trials,trialNo,url,winner
informed_consent,html.Screen,0,2023-10-31T17:44:46.161Z,"{""labjs_version"":""20.2.4"",""labjs_build"":{""flavor"":""production"",""commit"":""f5b4a49f956347addd546a832a3327688c2c0fef""},""location"":""https://run.pavlovia.org/MurrayBennett/melanoma-2afc/?participant=67606&platform=sona"",""userAgent"":""Mozilla/5.0 (X11; CrOS x86_64 14541.0.0) AppleWebKit/537.36 (KHTML, like Gecko) Chrome/116.0.0.0 Safari/537.36"",""platform"":""Linux x86_64"",""language"":""en-US"",""locale"":""en-US"",""timeZone"":""America/Chicago"",""timezoneOffset"":300,""screen_width"":1300,""screen_height"":730,""scroll_width"":1300,""scroll_height"":558,""window_innerWidth"":1300,""window_innerHeight"":606,""devicePixelRatio"":1.0507692098617554}",,,,4498.837000000012,response,,,,,,consent,click button,,18586.800000000017,18578.20000000001,9184.189,13912.200000000012,14079.363,18624.876,,,,"{""participant"":""67606"",""platform"":""sona""}",
Welcome,html.Screen,1,2023-10-31T17:44:48.098Z,,,,regular,1894.4240000000173,response,,,,,,continue,click button,,20523.800000000017,20519.300000000017,18574.926,18587.20000000001,18624.876,20539.646,,,,,
trial,html.Screen,2_0_0,2023-10-31T17:44:55.193Z,,0,0,,7078.853999999999,response,ISIC_4679428.JPG,,ISIC_0061792.JPG,ISIC_4679428.JPG,true,1,keypress(m),500,27618.900000000023,27618.5,20522.996,20524.100000000006,20539.646,27632.671,1,6,1,,ISIC_0061792.JPG
sequence,flow.Sequence,2_0,2023-10-31T17:44:55.194Z,,0,,,7078.853999999999,completion,,,,,true,,,,27619.600000000006,27618.5,20522.996,20524,20539.646,27632.671,1,6,,,
trial,html.Screen,2_1_0,2023-10-31T17:45:02.204Z,,0,0,,6996.429000000007,response,ISIC_0776486.JPG,,ISIC_5199497.JPG,ISIC_5199497.JPG,true,0,keypress(z),500,34629.40000000002,34629.100000000006,27616.021,27619.800000000017,27632.671,34642.423,1,6,2,,ISIC_0776486.JPG
sequence,flow.Sequence,2_1,2023-10-31T17:45:02.204Z,,0,,,6996.429000000007,completion,,,,,true,,,,34629.80000000002,34629.100000000006,27616.021,27619.800000000017,27632.671,34642.423,1,6,,,
trial,html.Screen,2_2_0,2023-10-31T17:45:05.711Z,,0,0,,3493.5769999999975,response,ISIC_2556187.JPG,,ISIC_8575776.JPG,ISIC_2556187.JPG,true,1,keypress(m),500,38136.40000000002,38136,34625.773,34630.40000000002,34642.423,38155.633,1,6,3,,ISIC_8575776.JPG
sequence,flow.Sequence,2_2,2023-10-31T17:45:05.711Z,,0,,,3493.5769999999975,completion,,,,,true,,,,38136.90000000002,38136,34625.773,34630.20000000001,34642.423,38155.633,1,6,,,
trial,html.Screen,2_3_0,2023-10-31T17:45:08.825Z,,0,0,,3094.8669999999984,response,ISIC_9238366.JPG,,ISIC_8141769.JPG,ISIC_9238366.JPG,true,1,keypress(m),500,41250.80000000002,41250.5,38138.975,38137.30000000002,38155.633,41269.23,1,6,4,,ISIC_8141769.JPG
sequence,flow.Sequence,2_3,2023-10-31T17:45:08.826Z,,0,,,3094.8669999999984,completion,,,,,true,,,,41251.5,41250.5,38138.975,38137.100000000006,38155.633,41269.23,1,6,,,
trial,html.Screen,2_4_0,2023-10-31T17:45:11.981Z,,0,0,,3136.769999999997,response,ISIC_8949026.JPG,,ISIC_9959593.JPG,ISIC_8949026.JPG,true,1,keypress(m),500,44406.5,44406,41252.572,41251.80000000002,41269.23,44416.121,1,6,5,,ISIC_9959593.JPG
sequence,flow.Sequence,2_4,2023-10-31T17:45:11.981Z,,0,,,3136.769999999997,completion,,,,,true,,,,44406.90000000002,44406,41252.572,41251.80000000002,41269.23,44416.121,1,6,,,
trial,html.Screen,2_5_0,2023-10-31T17:45:16.559Z,,0,0,,4568.279000000024,response,ISIC_0460240.JPG,,ISIC_0010479.JPG,ISIC_0010479.JPG,true,0,keypress(z),500,48984.90000000002,48984.40000000002,44399.471,44407.20000000001,44416.121,48994.941,1,6,6,,ISIC_0460240.JPG
sequence,flow.Sequence,2_5,2023-10-31T17:45:16.560Z,,0,,,4568.279000000024,completion,,,,,true,,,,48985.40000000002,48984.40000000002,44399.471,44407.100000000035,44416.121,48994.941,1,6,,,
loop,flow.Loop,2,2023-10-31T17:45:16.560Z,,,,,28444.754000000023,completion,,,,,true,,,,48985.70000000001,48984.40000000002,20522.996,20524,20539.646,48994.941,1,6,,,
exp_instructions,html.Screen,3,2023-10-31T17:45:26.700Z,,,,,10127.259000000013,response,,,,,,continue,keypress(Space),,59125.20000000001,59122.20000000001,48978.291,48985.79999999999,48994.941,59134.799,,,,,
trial,html.Screen,4_0_0,2023-10-31T17:45:30.624Z,,0,1,,3914.801000000036,response,ISIC_0030501.JPG,5,ISIC_0024313.JPG,ISIC_0030501.JPG,false,1,keypress(m),500,63049.90000000002,63049.600000000035,59118.149,59125.5,59134.799,63064.407,8,400,1,,ISIC_0024313.JPG
break,html.Screen,4_0_1,2023-10-31T17:45:30.626Z,,0,,,NaN,,,,,,false,,,,63051.600000000035,63051,,63050.100000000035,,63064.407,8,400,,,
break_continue,html.Screen,4_0_2,2023-10-31T17:45:30.627Z,,0,,,NaN,,,,,,false,,,,63052.90000000002,63052.5,,63051.90000000002,,63064.407,8,400,,,
sequence,flow.Sequence,4_0,2023-10-31T17:45:30.628Z,,0,,,3917.701000000001,completion,,,,,false,,,,63053.29999999999,63052.5,59118.149,59125.5,59134.799,63064.407,8,400,,,
trial,html.Screen,4_1_0,2023-10-31T17:45:36.215Z,,0,1,,5575.993000000024,response,ISIC_0065943.JPG,5,ISIC_3147084.JPG,ISIC_0065943.JPG,false,1,keypress(m),500,68640.70000000001,68640.40000000002,63047.757,63053.600000000035,63064.407,68642.242,8,400,2,,ISIC_3147084.JPG
break,html.Screen,4_1_1,2023-10-31T17:45:36.220Z,,0,,,NaN,,,,,,false,,,,68645.70000000001,68645.29999999999,,68640.90000000002,,68642.242,8,400,,,
break_continue,html.Screen,4_1_2,2023-10-31T17:45:36.221Z,,0,,,NaN,,,,,,false,,,,68646.40000000002,68646.10000000003,,68645.90000000002,,68642.242,8,400,,,
sequence,flow.Sequence,4_1,2023-10-31T17:45:36.221Z,,0,,,5581.693000000036,completion,,,,,false,,,,68646.70000000001,68646.10000000003,63047.757,63053.5,63064.407,68642.242,8,400,,,
trial,html.Screen,4_2_0,2023-10-31T17:45:40.431Z,,0,1,,4214.158000000025,response,ISIC_0062298.JPG,5,ISIC_3971712.JPG,ISIC_3971712.JPG,false,0,keypress(z),500,72856.70000000001,72856.40000000002,68625.592,68646.90000000002,68642.242,72871.407,8,400,3,,ISIC_0062298.JPG
break,html.Screen,4_2_1,2023-10-31T17:45:40.432Z,,0,,,NaN,,,,,,false,,,,72858,72857.5,,72856.90000000002,,72871.407,8,400,,,
break_continue,html.Screen,4_2_2,2023-10-31T17:45:40.433Z,,0,,,NaN,,,,,,false,,,,72858.70000000001,72858.40000000002,,72858.20000000001,,72871.407,8,400,,,
sequence,flow.Sequence,4_2,2023-10-31T17:45:40.434Z,,0,,,4216.158000000025,completion,,,,,false,,,,72859,72858.40000000002,68625.592,68646.79999999999,68642.242,72871.407,8,400,,,
trial,html.Screen,4_3_0,2023-10-31T17:45:44.185Z,,0,1,,3738.9930000000168,response,ISIC_1784613.JPG,4,ISIC_0011030.JPG,ISIC_1784613.JPG,false,1,keypress(m),500,76610.70000000001,76610.40000000002,72854.757,72859.29999999999,72871.407,76617.714,8,400,4,,ISIC_0011030.JPG
break,html.Screen,4_3_1,2023-10-31T17:45:44.188Z,,0,,,NaN,,,,,,false,,,,76613.29999999999,76612.70000000001,,76610.90000000002,,76617.714,8,400,,,
break_continue,html.Screen,4_3_2,2023-10-31T17:45:44.189Z,,0,,,NaN,,,,,,false,,,,76614.29999999999,76614.10000000003,,76613.70000000001,,76617.714,8,400,,,
sequence,flow.Sequence,4_3,2023-10-31T17:45:44.189Z,,0,,,3742.6930000000284,completion,,,,,false,,,,76614.60000000003,76614.10000000003,72854.757,72859.20000000001,72871.407,76617.714,8,400,,,
trial,html.Screen,4_4_0,2023-10-31T17:45:50.313Z,,0,1,,6120.686000000016,response,ISIC_4468549.JPG,5,ISIC_0057155.JPG,ISIC_0057155.JPG,false,0,keypress(z),500,82738.70000000001,82738.40000000002,76601.064,76614.90000000002,76617.714,82761.658,8,400,5,,ISIC_4468549.JPG
break,html.Screen,4_4_1,2023-10-31T17:45:50.314Z,,0,,,NaN,,,,,,false,,,,82739.90000000002,82739.60000000003,,82739,,82761.658,8,400,,,
break_continue,html.Screen,4_4_2,2023-10-31T17:45:50.315Z,,0,,,NaN,,,,,,false,,,,82740.70000000001,82740.5,,82740.29999999999,,82761.658,8,400,,,
sequence,flow.Sequence,4_4,2023-10-31T17:45:50.315Z,,0,,,6122.785999999993,completion,,,,,false,,,,82740.90000000002,82740.5,76601.064,76614.90000000002,76617.714,82761.658,8,400,,,
trial,html.Screen,4_5_0,2023-10-31T17:45:53.182Z,,0,1,,2845.342000000004,response,ISIC_1453146.JPG,4,ISIC_0059041.JPG,ISIC_1453146.JPG,false,1,keypress(m),500,85607.29999999999,85607,82745.008,82741,82761.658,85608.852,8,400,6,,ISIC_0059041.JPG
break,html.Screen,4_5_1,2023-10-31T17:45:53.183Z,,0,,,NaN,,,,,,false,,,,85608.29999999999,85608,,85607.5,,85608.852,8,400,,,
break_continue,html.Screen,4_5_2,2023-10-31T17:45:53.184Z,,0,,,NaN,,,,,,false,,,,85609.10000000003,85608.79999999999,,85608.5,,85608.852,8,400,,,
sequence,flow.Sequence,4_5,2023-10-31T17:45:53.184Z,,0,,,2847.1419999999925,completion,,,,,false,,,,85609.70000000001,85608.79999999999,82745.008,82741,82761.658,85608.852,8,400,,,
trial,html.Screen,4_6_0,2023-10-31T17:45:57.267Z,,0,1,,4082.8480000000127,response,ISIC_6668197.JPG,5,ISIC_0031844.JPG,ISIC_6668197.JPG,false,1,keypress(m),500,89692,89691.70000000001,85592.202,85609.90000000002,85608.852,89704.815,8,400,7,,ISIC_0031844.JPG
break,html.Screen,4_6_1,2023-10-31T17:45:57.268Z,,0,,,NaN,,,,,,false,,,,89693.29999999999,89692.90000000002,,89692.20000000001,,89704.815,8,400,,,
break_continue,html.Screen,4_6_2,2023-10-31T17:45:57.269Z,,0,,,NaN,,,,,,false,,,,89694.5,89694.29999999999,,89693.40000000002,,89704.815,8,400,,,
sequence,flow.Sequence,4_6,2023-10-31T17:45:57.269Z,,0,,,4085.4479999999894,completion,,,,,false,,,,89694.70000000001,89694.29999999999,85592.202,85609.79999999999,85608.852,89704.815,8,400,,,
trial,html.Screen,4_7_0,2023-10-31T17:46:00.105Z,,0,1,,2825.085000000021,response,ISIC_8321148.JPG,5,ISIC_7900295.JPG,ISIC_8321148.JPG,false,1,keypress(m),500,92530.20000000001,92529.90000000002,89688.165,89694.90000000002,89704.815,92535.358,8,400,8,,ISIC_7900295.JPG
break,html.Screen,4_7_1,2023-10-31T17:46:00.106Z,,0,,,NaN,,,,,,false,,,,92531.70000000001,92531.10000000003,,92530.40000000002,,92535.358,8,400,,,
break_continue,html.Screen,4_7_2,2023-10-31T17:46:00.107Z,,0,,,NaN,,,,,,false,,,,92532.29999999999,92532.10000000003,,92531.90000000002,,92535.358,8,400,,,
sequence,flow.Sequence,4_7,2023-10-31T17:46:00.107Z,,0,,,2827.2850000000326,completion,,,,,false,,,,92532.5,92532.10000000003,89688.165,89694.79999999999,89704.815,92535.358,8,400,,,
trial,html.Screen,4_8_0,2023-10-31T17:46:06.366Z,,0,1,,6255.4419999999955,response,ISIC_2126035.JPG,4,ISIC_5952650.JPG,ISIC_5952650.JPG,false,0,keypress(z),500,98791,98790.79999999999,92518.708,92532.70000000001,92535.358,98795.854,8,400,9,,ISIC_2126035.JPG
break,html.Screen,4_8_1,2023-10-31T17:46:06.367Z,,0,,,NaN,,,,,,false,,,,98792.60000000003,98792.20000000001,,98791.29999999999,,98795.854,8,400,,,
break_continue,html.Screen,4_8_2,2023-10-31T17:46:06.368Z,,0,,,NaN,,,,,,false,,,,98793.29999999999,98793,,98792.79999999999,,98795.854,8,400,,,
sequence,flow.Sequence,4_8,2023-10-31T17:46:06.368Z,,0,,,6257.642000000007,completion,,,,,false,,,,98793.60000000003,98793,92518.708,92532.60000000003,92535.358,98795.854,8,400,,,
trial,html.Screen,4_9_0,2023-10-31T17:46:09.305Z,,0,1,,2934.6459999999934,response,ISIC_0065480.JPG,5,ISIC_1729223.JPG,ISIC_0065480.JPG,false,1,keypress(m),500,101730.70000000001,101730.5,98779.204,98793.70000000001,98795.854,101742.949,8,400,10,,ISIC_1729223.JPG
break,html.Screen,4_9_1,2023-10-31T17:46:09.306Z,,0,,,NaN,,,,,,false,,,,101731.90000000002,101731.60000000003,,101730.90000000002,,101742.949,8,400,,,
break_continue,html.Screen,4_9_2,2023-10-31T17:46:09.307Z,,0,,,NaN,,,,,,false,,,,101732.90000000002,101732.40000000002,,101732.10000000003,,101742.949,8,400,,,
sequence,flow.Sequence,4_9,2023-10-31T17:46:09.308Z,,0,,,2936.5460000000166,completion,,,,,false,,,,101733.29999999999,101732.40000000002,98779.204,98793.60000000003,98795.854,101742.949,8,400,,,
trial,html.Screen,4_10_0,2023-10-31T17:46:13.151Z,,0,1,,3832.6510000000417,response,ISIC_0054151.JPG,5,ISIC_6860222.JPG,ISIC_0054151.JPG,false,1,keypress(m),500,105576,105575.60000000003,101726.299,101733.5,101742.949,105589.158,8,400,11,,ISIC_6860222.JPG
break,html.Screen,4_10_1,2023-10-31T17:46:13.152Z,,0,,,NaN,,,,,,false,,,,105577.29999999999,105576.90000000002,,105576.20000000001,,105589.158,8,400,,,
break_continue,html.Screen,4_10_2,2023-10-31T17:46:13.156Z,,0,,,NaN,,,,,,false,,,,105581.79999999999,105580.20000000001,,105577.5,,105589.158,8,400,,,
sequence,flow.Sequence,4_10,2023-10-31T17:46:13.157Z,,0,,,3837.2510000000184,completion,,,,,false,,,,105582,105580.20000000001,101726.299,101733.40000000002,101742.949,105589.158,8,400,,,
trial,html.Screen,4_11_0,2023-10-31T17:46:16.233Z,,0,1,,3068.6419999999925,response,ISIC_5771106.JPG,6,ISIC_1578253.JPG,ISIC_1578253.JPG,false,0,keypress(z),500,108658,108657.79999999999,105572.508,105582.20000000001,105589.158,108686.113,8,400,12,,ISIC_5771106.JPG
break,html.Screen,4_11_1,2023-10-31T17:46:16.234Z,,0,,,NaN,,,,,,false,,,,108659.5,108658.90000000002,,108658.29999999999,,108686.113,8,400,,,
break_continue,html.Screen,4_11_2,2023-10-31T17:46:16.235Z,,0,,,NaN,,,,,,false,,,,108660.40000000002,108660.10000000003,,108659.90000000002,,108686.113,8,400,,,
sequence,flow.Sequence,4_11,2023-10-31T17:46:16.235Z,,0,,,3070.942000000039,completion,,,,,false,,,,108660.79999999999,108660.10000000003,105572.508,105582.10000000003,105589.158,108686.113,8,400,,,
trial,html.Screen,4_12_0,2023-10-31T17:46:19.249Z,,0,1,,2988.3870000000024,response,ISIC_8310944.JPG,5,ISIC_0000459.JPG,ISIC_0000459.JPG,false,0,keypress(z),500,111674.70000000001,111674.5,108669.455,108661,108686.113,111699.801,8,400,13,,ISIC_8310944.JPG
break,html.Screen,4_12_1,2023-10-31T17:46:19.250Z,,0,,,NaN,,,,,,false,,,,111675.79999999999,111675.5,,111675,,111699.801,8,400,,,
break_continue,html.Screen,4_12_2,2023-10-31T17:46:19.251Z,,0,,,NaN,,,,,,false,,,,111676.60000000003,111676.40000000002,,111676,,111699.801,8,400,,,
sequence,flow.Sequence,4_12,2023-10-31T17:46:19.251Z,,0,,,2990.2870000000257,completion,,,,,false,,,,111676.79999999999,111676.40000000002,108669.455,108660.90000000002,108686.113,111699.801,8,400,,,
trial,html.Screen,4_13_0,2023-10-31T17:46:22.774Z,,0,1,,3499.0990000000165,response,ISIC_2054066.JPG,5,ISIC_0032782.JPG,ISIC_0032782.JPG,false,0,keypress(z),500,115199.20000000001,115198.90000000002,111683.151,111677.29999999999,111699.801,115213.013,8,400,14,,ISIC_2054066.JPG
break,html.Screen,4_13_1,2023-10-31T17:46:22.775Z,,0,,,NaN,,,,,,false,,,,115200.10000000003,115199.79999999999,,115199.29999999999,,115213.013,8,400,,,
break_continue,html.Screen,4_13_2,2023-10-31T17:46:22.775Z,,0,,,NaN,,,,,,false,,,,115200.70000000001,115200.5,,115200.29999999999,,115213.013,8,400,,,
sequence,flow.Sequence,4_13,2023-10-31T17:46:22.776Z,,0,,,3500.6989999999932,completion,,,,,false,,,,115201.10000000003,115200.5,111683.151,111677,111699.801,115213.013,8,400,,,
trial,html.Screen,4_14_0,2023-10-31T17:46:25.937Z,,0,1,,3149.387000000017,response,ISIC_2266857.JPG,4,ISIC_3485482.JPG,ISIC_3485482.JPG,false,0,keypress(z),500,118362.70000000001,118362.40000000002,115196.355,115201.20000000001,115213.013,118376.561,8,400,15,,ISIC_2266857.JPG
break,html.Screen,4_14_1,2023-10-31T17:46:25.938Z,,0,,,NaN,,,,,,false,,,,118363.79999999999,118363.60000000003,,118362.90000000002,,118376.561,8,400,,,
break_continue,html.Screen,4_14_2,2023-10-31T17:46:25.939Z,,0,,,NaN,,,,,,false,,,,118364.5,118364.29999999999,,118364,,118376.561,8,400,,,
sequence,flow.Sequence,4_14,2023-10-31T17:46:25.939Z,,0,,,3151.286999999982,completion,,,,,false,,,,118364.79999999999,118364.29999999999,115196.355,115201.10000000003,115213.013,118376.561,8,400,,,
trial,html.Screen,4_15_0,2023-10-31T17:46:29.089Z,,0,1,,3137.9389999999985,response,ISIC_0871853.JPG,5,ISIC_0024294.JPG,ISIC_0024294.JPG,false,0,keypress(z),500,121514.90000000002,121514.5,118359.904,118364.90000000002,118376.561,121523.452,8,400,16,,ISIC_0871853.JPG
break,html.Screen,4_15_1,2023-10-31T17:46:29.091Z,,0,,,NaN,,,,,,false,,,,121516.70000000001,121515.79999999999,,121515.20000000001,,121523.452,8,400,,,
break_continue,html.Screen,4_15_2,2023-10-31T17:46:29.092Z,,0,,,NaN,,,,,,false,,,,121517.5,121517.20000000001,,121517,,121523.452,8,400,,,
sequence,flow.Sequence,4_15,2023-10-31T17:46:29.092Z,,0,,,3140.63900000001,completion,,,,,false,,,,121517.70000000001,121517.20000000001,118359.904,118364.79999999999,118376.561,121523.452,8,400,,,
trial,html.Screen,4_16_0,2023-10-31T17:46:31.703Z,,0,1,,2604.748000000007,response,ISIC_1654318.JPG,5,ISIC_0033275.JPG,ISIC_1654318.JPG,false,1,keypress(m),500,124128.60000000003,124128.20000000001,121506.802,121517.90000000002,121523.452,124137.549,8,400,17,,ISIC_0033275.JPG
break,html.Screen,4_16_1,2023-10-31T17:46:31.704Z,,0,,,NaN,,,,,,false,,,,124129.5,124129.29999999999,,124128.79999999999,,124137.549,8,400,,,
break_continue,html.Screen,4_16_2,2023-10-31T17:46:31.705Z,,0,,,NaN,,,,,,false,,,,124130.10000000003,124129.90000000002,,124129.70000000001,,124137.549,8,400,,,
sequence,flow.Sequence,4_16,2023-10-31T17:46:31.705Z,,0,,,2606.4480000000185,completion,,,,,false,,,,124130.90000000002,124129.90000000002,121506.802,121517.79999999999,121523.452,124137.549,8,400,,,
trial,html.Screen,4_17_0,2023-10-31T17:46:35.819Z,,0,1,,4106.851000000024,response,ISIC_0063225.JPG,5,ISIC_3586669.JPG,ISIC_0063225.JPG,false,1,keypress(m),500,128244.70000000001,128244.40000000002,124120.899,124131.10000000003,124137.549,128266.805,8,400,18,,ISIC_3586669.JPG
break,html.Screen,4_17_1,2023-10-31T17:46:35.820Z,,0,,,NaN,,,,,,false,,,,128245.70000000001,128245.40000000002,,128244.90000000002,,128266.805,8,400,,,
break_continue,html.Screen,4_17_2,2023-10-31T17:46:35.821Z,,0,,,NaN,,,,,,false,,,,128246.29999999999,128246,,128245.79999999999,,128266.805,8,400,,,
sequence,flow.Sequence,4_17,2023-10-31T17:46:35.821Z,,0,,,4108.451000000001,completion,,,,,false,,,,128246.5,128246,124120.899,124131,124137.549,128266.805,8,400,,,
trial,html.Screen,4_18_0,2023-10-31T17:46:38.921Z,,0,1,,3079.695000000007,response,ISIC_0568867.JPG,5,ISIC_0014349.JPG,ISIC_0014349.JPG,false,0,keypress(z),500,131346.8,131346.5,128250.155,128246.70000000001,128266.805,131363.753,8,400,19,,ISIC_0568867.JPG
break,html.Screen,4_18_1,2023-10-31T17:46:38.923Z,,0,,,NaN,,,,,,false,,,,131348,131347.7,,131347,,131363.753,8,400,,,
break_continue,html.Screen,4_18_2,2023-10-31T17:46:38.923Z,,0,,,NaN,,,,,,false,,,,131348.8,131348.5,,131348.3,,131363.753,8,400,,,
sequence,flow.Sequence,4_18,2023-10-31T17:46:38.924Z,,0,,,3081.695000000007,completion,,,,,false,,,,131349.10000000003,131348.5,128250.155,128246.60000000003,128266.805,131363.753,8,400,,,
trial,html.Screen,4_19_0,2023-10-31T17:46:43.470Z,,0,1,,4531.247000000003,response,ISIC_9881460.JPG,4,ISIC_9776851.JPG,ISIC_9881460.JPG,false,1,keypress(m),500,135895.3,135895,131347.103,131349.40000000002,131363.753,135909.272,8,400,20,,ISIC_9776851.JPG
break,html.Screen,4_19_1,2023-10-31T17:46:43.471Z,,0,,,NaN,,,,,,false,,,,135896.7,135896.3,,135895.60000000003,,135909.272,8,400,,,
break_continue,html.Screen,4_19_2,2023-10-31T17:46:43.472Z,,0,,,NaN,,,,,,false,,,,135897.40000000002,135897.10000000003,,135896.90000000002,,135909.272,8,400,,,
sequence,flow.Sequence,4_19,2023-10-31T17:46:43.472Z,,0,,,4533.347000000038,completion,,,,,false,,,,135897.7,135897.10000000003,131347.103,131349.40000000002,131363.753,135909.272,8,400,,,
trial,html.Screen,4_20_0,2023-10-31T17:46:46.138Z,,0,1,,2653.527999999991,response,ISIC_5988539.JPG,4,ISIC_1251811.JPG,ISIC_5988539.JPG,false,1,keypress(m),500,138563.2,138562.8,135892.622,135897.90000000002,135909.272,138573.313,8,400,21,,ISIC_1251811.JPG
break,html.Screen,4_20_1,2023-10-31T17:46:46.140Z,,0,,,NaN,,,,,,false,,,,138565.10000000003,138564.8,,138563.5,,138573.313,8,400,,,
break_continue,html.Screen,4_20_2,2023-10-31T17:46:46.141Z,,0,,,NaN,,,,,,false,,,,138566.8,138566,,138565.40000000002,,138573.313,8,400,,,
sequence,flow.Sequence,4_20,2023-10-31T17:46:46.142Z,,0,,,2656.728000000003,completion,,,,,false,,,,138567.3,138566,135892.622,135897.90000000002,135909.272,138573.313,8,400,,,
trial,html.Screen,4_21_0,2023-10-31T17:46:50.065Z,,0,1,,3916.6870000000054,response,ISIC_1334038.JPG,5,ISIC_0015071.JPG,ISIC_0015071.JPG,false,0,keypress(z),500,142490.40000000002,142490,138556.663,138567.60000000003,138573.313,142502.773,8,400,22,,ISIC_1334038.JPG
break,html.Screen,4_21_1,2023-10-31T17:46:50.066Z,,0,,,NaN,,,,,,false,,,,142491.60000000003,142491.2,,142490.60000000003,,142502.773,8,400,,,
break_continue,html.Screen,4_21_2,2023-10-31T17:46:50.072Z,,0,,,NaN,,,,,,false,,,,142497.40000000002,142492.10000000003,,142491.8,,142502.773,8,400,,,
sequence,flow.Sequence,4_21,2023-10-31T17:46:50.072Z,,0,,,3918.7870000000403,completion,,,,,false,,,,142497.90000000002,142492.10000000003,138556.663,138567.5,138573.313,142502.773,8,400,,,
trial,html.Screen,4_22_0,2023-10-31T17:46:53.681Z,,0,1,,3603.7270000000135,response,ISIC_0627979.JPG,4,ISIC_9511265.JPG,ISIC_0627979.JPG,false,1,keypress(m),500,146106.8,146106.5,142486.123,142498.10000000003,142502.773,146115.879,8,400,23,,ISIC_9511265.JPG
break,html.Screen,4_22_1,2023-10-31T17:46:53.683Z,,0,,,NaN,,,,,,false,,,,146108.10000000003,146107.7,,146107.2,,146115.879,8,400,,,
break_continue,html.Screen,4_22_2,2023-10-31T17:46:53.683Z,,0,,,NaN,,,,,,false,,,,146108.7,146108.5,,146108.3,,146115.879,8,400,,,
sequence,flow.Sequence,4_22,2023-10-31T17:46:53.684Z,,0,,,3605.7270000000135,completion,,,,,false,,,,146109.3,146108.5,142486.123,142498,142502.773,146115.879,8,400,,,
trial,html.Screen,4_23_0,2023-10-31T17:46:56.561Z,,0,1,,2870.6210000000137,response,ISIC_0030106.JPG,5,ISIC_0061705.JPG,ISIC_0030106.JPG,false,1,keypress(m),500,148986.8,148986.5,146099.229,146109.5,146115.879,148996.373,8,400,24,,ISIC_0061705.JPG
break,html.Screen,4_23_1,2023-10-31T17:46:56.563Z,,0,,,NaN,,,,,,false,,,,148988,148987.7,,148987,,148996.373,8,400,,,
break_continue,html.Screen,4_23_2,2023-10-31T17:46:56.563Z,,0,,,NaN,,,,,,false,,,,148988.90000000002,148988.5,,148988.2,,148996.373,8,400,,,
sequence,flow.Sequence,4_23,2023-10-31T17:46:56.564Z,,0,,,2872.6210000000137,completion,,,,,false,,,,148989.2,148988.5,146099.229,146109.3,146115.879,148996.373,8,400,,,
trial,html.Screen,4_24_0,2023-10-31T17:47:00.593Z,,0,1,,4022.027000000031,response,ISIC_0032721.JPG,4,ISIC_7013005.JPG,ISIC_0032721.JPG,false,1,keypress(m),500,153018.8,153018.40000000002,148979.723,148989.40000000002,148996.373,153025.737,8,400,25,,ISIC_7013005.JPG
break,html.Screen,4_24_1,2023-10-31T17:47:00.595Z,,0,,,NaN,,,,,,false,,,,153020.10000000003,153019.90000000002,,153019.10000000003,,153025.737,8,400,,,
break_continue,html.Screen,4_24_2,2023-10-31T17:47:00.597Z,,0,,,NaN,,,,,,false,,,,153022.60000000003,153022.2,,153022,,153025.737,8,400,,,
sequence,flow.Sequence,4_24,2023-10-31T17:47:00.597Z,,0,,,4025.8270000000193,completion,,,,,false,,,,153022.8,153022.2,148979.723,148989.40000000002,148996.373,153025.737,8,400,,,
trial,html.Screen,4_25_0,2023-10-31T17:47:03.767Z,,0,1,,3166.863000000041,response,ISIC_0315631.JPG,5,ISIC_0027101.JPG,ISIC_0027101.JPG,false,0,keypress(z),500,156192.8,156192.60000000003,153009.087,153023.10000000003,153025.737,156205.933,8,400,26,,ISIC_0315631.JPG
break,html.Screen,4_25_1,2023-10-31T17:47:03.768Z,,0,,,NaN,,,,,,false,,,,156193.90000000002,156193.60000000003,,156193,,156205.933,8,400,,,
break_continue,html.Screen,4_25_2,2023-10-31T17:47:03.769Z,,0,,,NaN,,,,,,false,,,,156194.7,156194.40000000002,,156194.10000000003,,156205.933,8,400,,,
sequence,flow.Sequence,4_25,2023-10-31T17:47:03.770Z,,0,,,3168.6630000000296,completion,,,,,false,,,,156195,156194.40000000002,153009.087,153023,153025.737,156205.933,8,400,,,
trial,html.Screen,4_26_0,2023-10-31T17:47:06.697Z,,0,1,,2916.56700000001,response,ISIC_9822801.JPG,5,ISIC_0331124.JPG,ISIC_0331124.JPG,false,0,keypress(z),500,159123,159122.5,156189.283,156195.90000000002,156205.933,159136.378,8,400,27,,ISIC_9822801.JPG
break,html.Screen,4_26_1,2023-10-31T17:47:06.699Z,,0,,,NaN,,,,,,false,,,,159124.10000000003,159123.90000000002,,159123.2,,159136.378,8,400,,,
break_continue,html.Screen,4_26_2,2023-10-31T17:47:06.699Z,,0,,,NaN,,,,,,false,,,,159124.8,159124.7,,159124.40000000002,,159136.378,8,400,,,
sequence,flow.Sequence,4_26,2023-10-31T17:47:06.700Z,,0,,,2918.7670000000217,completion,,,,,false,,,,159125.90000000002,159124.7,156189.283,156195.8,156205.933,159136.378,8,400,,,
trial,html.Screen,4_27_0,2023-10-31T17:47:09.755Z,,0,1,,3042.122000000003,response,ISIC_0345607.JPG,4,ISIC_3452564.JPG,ISIC_0345607.JPG,false,1,keypress(m),500,162180,162178.5,159119.728,159126.10000000003,159136.378,162183.375,8,400,28,,ISIC_3452564.JPG
break,html.Screen,4_27_1,2023-10-31T17:47:09.759Z,,0,,,NaN,,,,,,false,,,,162184.5,162181.90000000002,,162180.3,,162183.375,8,400,,,
break_continue,html.Screen,4_27_2,2023-10-31T17:47:09.760Z,,0,,,NaN,,,,,,false,,,,162185.60000000003,162185.3,,162184.7,,162183.375,8,400,,,
sequence,flow.Sequence,4_27,2023-10-31T17:47:09.760Z,,0,,,3048.9219999999914,completion,,,,,false,,,,162185.8,162185.3,159119.728,159126.10000000003,159136.378,162183.375,8,400,,,
trial,html.Screen,4_28_0,2023-10-31T17:47:13.060Z,,0,1,,3301.9249999999884,response,ISIC_5826878.JPG,5,ISIC_0065351.JPG,ISIC_5826878.JPG,false,1,keypress(m),500,165485.60000000003,165485.3,162166.725,162186.10000000003,162183.375,165496.776,8,400,29,,ISIC_0065351.JPG
break,html.Screen,4_28_1,2023-10-31T17:47:13.061Z,,0,,,NaN,,,,,,false,,,,165486.8,165486.40000000002,,165485.8,,165496.776,8,400,,,
break_continue,html.Screen,4_28_2,2023-10-31T17:47:13.063Z,,0,,,NaN,,,,,,false,,,,165488,165487.2,,165487,,165496.776,8,400,,,
sequence,flow.Sequence,4_28,2023-10-31T17:47:13.063Z,,0,,,3303.8250000000116,completion,,,,,false,,,,165488.3,165487.2,162166.725,162185.90000000002,162183.375,165496.776,8,400,,,
trial,html.Screen,4_29_0,2023-10-31T17:47:17.425Z,,0,1,,4353.723999999987,response,ISIC_0029316.JPG,4,ISIC_6993129.JPG,ISIC_0029316.JPG,false,1,keypress(m),500,169850.8,169850.5,165480.126,165488.5,165496.776,169859.142,8,400,30,,ISIC_6993129.JPG
break,html.Screen,4_29_1,2023-10-31T17:47:17.426Z,,0,,,NaN,,,,,,false,,,,169852,169851.60000000003,,169851.10000000003,,169859.142,8,400,,,
break_continue,html.Screen,4_29_2,2023-10-31T17:47:17.427Z,,0,,,NaN,,,,,,false,,,,169852.8,169852.5,,169852.2,,169859.142,8,400,,,
sequence,flow.Sequence,4_29,2023-10-31T17:47:17.428Z,,0,,,4355.723999999987,completion,,,,,false,,,,169853.3,169852.5,165480.126,165488.5,165496.776,169859.142,8,400,,,
trial,html.Screen,4_30_0,2023-10-31T17:47:20.497Z,,0,1,,3063.3580000000075,response,ISIC_6590303.JPG,4,ISIC_0030957.JPG,ISIC_0030957.JPG,false,0,keypress(z),500,172922.7,172922.5,169842.492,169853.5,169859.142,172939.447,8,400,31,,ISIC_6590303.JPG
break,html.Screen,4_30_1,2023-10-31T17:47:20.499Z,,0,,,NaN,,,,,,false,,,,172924.40000000002,172923.90000000002,,172923,,172939.447,8,400,,,
break_continue,html.Screen,4_30_2,2023-10-31T17:47:20.500Z,,0,,,NaN,,,,,,false,,,,172925.3,172924.90000000002,,172924.60000000003,,172939.447,8,400,,,
sequence,flow.Sequence,4_30,2023-10-31T17:47:20.500Z,,0,,,3065.7580000000307,completion,,,,,false,,,,172925.7,172924.90000000002,169842.492,169853.5,169859.142,172939.447,8,400,,,
trial,html.Screen,4_31_0,2023-10-31T17:47:23.849Z,,0,1,,3334.9530000000377,response,ISIC_5641619.JPG,5,ISIC_9141065.JPG,ISIC_5641619.JPG,false,1,keypress(m),500,176274.7,176274.40000000002,172922.79,172926,172939.447,176286.141,8,400,32,,ISIC_9141065.JPG
break,html.Screen,4_31_1,2023-10-31T17:47:23.850Z,,0,,,NaN,,,,,,false,,,,176275.8,176275.5,,176275,,176286.141,8,400,,,
break_continue,html.Screen,4_31_2,2023-10-31T17:47:23.852Z,,0,,,NaN,,,,,,false,,,,176277.7,176277.3,,176276,,176286.141,8,400,,,
sequence,flow.Sequence,4_31,2023-10-31T17:47:23.853Z,,0,,,3337.853000000003,completion,,,,,false,,,,176278.2,176277.3,172922.79,172925.90000000002,172939.447,176286.141,8,400,,,
trial,html.Screen,4_32_0,2023-10-31T17:47:27.615Z,,0,1,,3753.8589999999967,response,ISIC_0072377.JPG,4,ISIC_0031397.JPG,ISIC_0031397.JPG,false,0,keypress(z),500,180040.40000000002,180040,176269.491,176278.5,176286.141,180049.099,8,400,33,,ISIC_0072377.JPG
break,html.Screen,4_32_1,2023-10-31T17:47:27.616Z,,0,,,NaN,,,,,,false,,,,180041.60000000003,180041.3,,180040.60000000003,,180049.099,8,400,,,
break_continue,html.Screen,4_32_2,2023-10-31T17:47:27.617Z,,0,,,NaN,,,,,,false,,,,180042.2,180042.10000000003,,180041.90000000002,,180049.099,8,400,,,
sequence,flow.Sequence,4_32,2023-10-31T17:47:27.617Z,,0,,,3755.9590000000317,completion,,,,,false,,,,180042.8,180042.10000000003,176269.491,176278.40000000002,176286.141,180049.099,8,400,,,
trial,html.Screen,4_33_0,2023-10-31T17:47:30.633Z,,0,1,,3009.4010000000126,response,ISIC_6761269.JPG,4,ISIC_0897248.JPG,ISIC_6761269.JPG,false,1,keypress(m),500,183058.8,183058.5,180032.449,180043.10000000003,180049.099,183062.795,8,400,34,,ISIC_0897248.JPG
break,html.Screen,4_33_1,2023-10-31T17:47:30.635Z,,0,,,NaN,,,,,,false,,,,183060.60000000003,183060.10000000003,,183059.10000000003,,183062.795,8,400,,,
break_continue,html.Screen,4_33_2,2023-10-31T17:47:30.636Z,,0,,,NaN,,,,,,false,,,,183061.5,183061.10000000003,,183060.8,,183062.795,8,400,,,
sequence,flow.Sequence,4_33,2023-10-31T17:47:30.637Z,,0,,,3012.0010000000475,completion,,,,,false,,,,183062,183061.10000000003,180032.449,180043.10000000003,180049.099,183062.795,8,400,,,
trial,html.Screen,4_34_0,2023-10-31T17:47:35.936Z,,0,1,,5298.1050000000105,response,ISIC_3826102.JPG,5,ISIC_0061562.JPG,ISIC_0061562.JPG,false,0,keypress(z),500,188361.2,188360.90000000002,183046.145,183062.3,183062.795,188374.226,8,400,35,,ISIC_3826102.JPG
break,html.Screen,4_34_1,2023-10-31T17:47:35.937Z,,0,,,NaN,,,,,,false,,,,188362.7,188362,,188361.5,,188374.226,8,400,,,
break_continue,html.Screen,4_34_2,2023-10-31T17:47:35.939Z,,0,,,NaN,,,,,,false,,,,188364.10000000003,188363.8,,188362.90000000002,,188374.226,8,400,,,
sequence,flow.Sequence,4_34,2023-10-31T17:47:35.939Z,,0,,,5301.004999999976,completion,,,,,false,,,,188364.40000000002,188363.8,183046.145,183062.2,183062.795,188374.226,8,400,,,
trial,html.Screen,4_35_0,2023-10-31T17:47:39.258Z,,0,1,,3308.9740000000165,response,ISIC_9303849.JPG,5,ISIC_0010011.JPG,ISIC_9303849.JPG,false,1,keypress(m),500,191683.5,191683.2,188357.576,188364.7,188374.226,191687.627,8,400,36,,ISIC_0010011.JPG
break,html.Screen,4_35_1,2023-10-31T17:47:39.260Z,,0,,,NaN,,,,,,false,,,,191685.40000000002,191685,,191684.10000000003,,191687.627,8,400,,,
break_continue,html.Screen,4_35_2,2023-10-31T17:47:39.263Z,,0,,,NaN,,,,,,false,,,,191688.60000000003,191688.3,,191685.7,,191687.627,8,400,,,
sequence,flow.Sequence,4_35,2023-10-31T17:47:39.264Z,,0,,,3314.0739999999932,completion,,,,,false,,,,191689,191688.3,188357.576,188364.60000000003,188374.226,191687.627,8,400,,,
trial,html.Screen,4_36_0,2023-10-31T17:47:42.697Z,,0,1,,3434.8729999999923,response,ISIC_0054767.JPG,4,ISIC_4396553.JPG,ISIC_0054767.JPG,false,1,keypress(m),500,195122.90000000002,195122.5,191670.977,191689.3,191687.627,195134.23,8,400,37,,ISIC_4396553.JPG
break,html.Screen,4_36_1,2023-10-31T17:47:42.699Z,,0,,,NaN,,,,,,false,,,,195124.5,195123.90000000002,,195123.3,,195134.23,8,400,,,
break_continue,html.Screen,4_36_2,2023-10-31T17:47:42.700Z,,0,,,NaN,,,,,,false,,,,195125.40000000002,195125,,195124.7,,195134.23,8,400,,,
sequence,flow.Sequence,4_36,2023-10-31T17:47:42.700Z,,0,,,3437.3729999999923,completion,,,,,false,,,,195125.7,195125,191670.977,191689.10000000003,191687.627,195134.23,8,400,,,
trial,html.Screen,4_37_0,2023-10-31T17:47:46.127Z,,0,1,,3417.470000000001,response,ISIC_9332795.JPG,4,ISIC_1217314.JPG,ISIC_9332795.JPG,false,1,keypress(m),500,198552.10000000003,198551.7,195117.58,195126,195134.23,198564.182,8,400,38,,ISIC_1217314.JPG
break,html.Screen,4_37_1,2023-10-31T17:47:46.128Z,,0,,,NaN,,,,,,false,,,,198553.3,198553,,198552.3,,198564.182,8,400,,,
break_continue,html.Screen,4_37_2,2023-10-31T17:47:46.128Z,,0,,,NaN,,,,,,false,,,,198553.8,198553.7,,198553.5,,198564.182,8,400,,,
sequence,flow.Sequence,4_37,2023-10-31T17:47:46.129Z,,0,,,3419.470000000001,completion,,,,,false,,,,198554.10000000003,198553.7,195117.58,195125.90000000002,195134.23,198564.182,8,400,,,
trial,html.Screen,4_38_0,2023-10-31T17:47:48.722Z,,0,1,,2583.2180000000226,response,ISIC_7137773.JPG,4,ISIC_5482426.JPG,ISIC_5482426.JPG,false,0,keypress(z),500,201147.8,201147.40000000002,198547.532,198554.3,198564.182,201161.629,8,400,39,,ISIC_7137773.JPG
break,html.Screen,4_38_1,2023-10-31T17:47:48.723Z,,0,,,NaN,,,,,,false,,,,201148.90000000002,201148.5,,201148.10000000003,,201161.629,8,400,,,
break_continue,html.Screen,4_38_2,2023-10-31T17:47:48.724Z,,0,,,NaN,,,,,,false,,,,201149.60000000003,201149.40000000002,,201149.10000000003,,201161.629,8,400,,,
sequence,flow.Sequence,4_38,2023-10-31T17:47:48.724Z,,0,,,2585.2180000000226,completion,,,,,false,,,,201150,201149.40000000002,198547.532,198554.2,198564.182,201161.629,8,400,,,
trial,html.Screen,4_39_0,2023-10-31T17:47:51.569Z,,0,1,,2832.8710000000137,response,ISIC_0014931.JPG,4,ISIC_0000141.JPG,ISIC_0014931.JPG,false,1,keypress(m),500,203994.8,203994.5,201144.972,201150.10000000003,201161.629,204008.823,8,400,40,,ISIC_0000141.JPG
break,html.Screen,4_39_1,2023-10-31T17:47:51.571Z,,0,,,NaN,,,,,,false,,,,203996.10000000003,203995.60000000003,,203995,,204008.823,8,400,,,
break_continue,html.Screen,4_39_2,2023-10-31T17:47:51.571Z,,0,,,NaN,,,,,,false,,,,203996.8,203996.60000000003,,203996.3,,204008.823,8,400,,,
sequence,flow.Sequence,4_39,2023-10-31T17:47:51.572Z,,0,,,2834.9710000000487,completion,,,,,false,,,,203997.10000000003,203996.60000000003,201144.972,201150.10000000003,201161.629,204008.823,8,400,,,
trial,html.Screen,4_40_0,2023-10-31T17:47:55.097Z,,0,1,,3513.676999999996,response,ISIC_3361955.JPG,5,ISIC_0059925.JPG,ISIC_3361955.JPG,false,1,keypress(m),500,207522.90000000002,207522.5,203992.166,203997.90000000002,204008.823,207538.67,8,400,41,,ISIC_0059925.JPG
break,html.Screen,4_40_1,2023-10-31T17:47:55.099Z,,0,,,NaN,,,,,,false,,,,207524.3,207523.90000000002,,207523.3,,207538.67,8,400,,,
break_continue,html.Screen,4_40_2,2023-10-31T17:47:55.100Z,,0,,,NaN,,,,,,false,,,,207525.2,207524.8,,207524.5,,207538.67,8,400,,,
sequence,flow.Sequence,4_40,2023-10-31T17:47:55.100Z,,0,,,3515.9769999999844,completion,,,,,false,,,,207525.5,207524.8,203992.166,203997.7,204008.823,207538.67,8,400,,,
trial,html.Screen,4_41_0,2023-10-31T17:47:57.920Z,,0,1,,2806.930000000022,response,ISIC_6831108.JPG,4,ISIC_9685480.JPG,ISIC_6831108.JPG,false,1,keypress(m),500,210345.90000000002,210345.60000000003,207522.02,207525.8,207538.67,210352.562,8,400,42,,ISIC_9685480.JPG
break,html.Screen,4_41_1,2023-10-31T17:47:57.922Z,,0,,,NaN,,,,,,false,,,,210347.10000000003,210346.8,,210346.10000000003,,210352.562,8,400,,,
break_continue,html.Screen,4_41_2,2023-10-31T17:47:57.922Z,,0,,,NaN,,,,,,false,,,,210347.7,210347.5,,210347.3,,210352.562,8,400,,,
sequence,flow.Sequence,4_41,2023-10-31T17:47:57.922Z,,0,,,2808.829999999987,completion,,,,,false,,,,210348,210347.5,207522.02,207525.8,207538.67,210352.562,8,400,,,
trial,html.Screen,4_42_0,2023-10-31T17:48:01.461Z,,0,1,,3533.1380000000063,response,ISIC_4958006.JPG,4,ISIC_8087949.JPG,ISIC_8087949.JPG,false,0,keypress(z),500,213886,213885.7,210335.912,210348.2,210352.562,213915.725,8,400,43,,ISIC_4958006.JPG
break,html.Screen,4_42_1,2023-10-31T17:48:01.462Z,,0,,,NaN,,,,,,false,,,,213887.10000000003,213886.7,,213886.2,,213915.725,8,400,,,
break_continue,html.Screen,4_42_2,2023-10-31T17:48:01.462Z,,0,,,NaN,,,,,,false,,,,213887.8,213887.60000000003,,213887.3,,213915.725,8,400,,,
sequence,flow.Sequence,4_42,2023-10-31T17:48:01.463Z,,0,,,3535.0380000000296,completion,,,,,false,,,,213888.10000000003,213887.60000000003,210335.912,210348.10000000003,210352.562,213915.725,8,400,,,
trial,html.Screen,4_43_0,2023-10-31T17:48:04.169Z,,0,1,,2678.0749999999825,response,ISIC_3967213.JPG,4,ISIC_8967786.JPG,ISIC_3967213.JPG,false,1,keypress(m),500,216594.10000000003,216593.8,213899.067,213888.40000000002,213915.725,216613.066,8,400,44,,ISIC_8967786.JPG
break,html.Screen,4_43_1,2023-10-31T17:48:04.170Z,,0,,,NaN,,,,,,false,,,,216595.60000000003,216595.3,,216594.60000000003,,216613.066,8,400,,,
break_continue,html.Screen,4_43_2,2023-10-31T17:48:04.171Z,,0,,,NaN,,,,,,false,,,,216596.2,216596,,216595.7,,216613.066,8,400,,,
sequence,flow.Sequence,4_43,2023-10-31T17:48:04.171Z,,0,,,2680.274999999994,completion,,,,,false,,,,216596.40000000002,216596,213899.067,213888.3,213915.725,216613.066,8,400,,,
trial,html.Screen,4_44_0,2023-10-31T17:48:06.910Z,,0,1,,2722.0340000000433,response,ISIC_0028477.JPG,4,ISIC_0027081.JPG,ISIC_0027081.JPG,false,0,keypress(z),500,219335.3,219335.10000000003,216596.408,216596.60000000003,216613.066,219343.701,8,400,45,,ISIC_0028477.JPG
break,html.Screen,4_44_1,2023-10-31T17:48:06.911Z,,0,,,NaN,,,,,,false,,,,219336.40000000002,219336.10000000003,,219335.60000000003,,219343.701,8,400,,,
break_continue,html.Screen,4_44_2,2023-10-31T17:48:06.912Z,,0,,,NaN,,,,,,false,,,,219337.10000000003,219336.8,,219336.60000000003,,219343.701,8,400,,,
sequence,flow.Sequence,4_44,2023-10-31T17:48:06.912Z,,0,,,2723.7339999999967,completion,,,,,false,,,,219337.3,219336.8,216596.408,216596.60000000003,216613.066,219343.701,8,400,,,
trial,html.Screen,4_45_0,2023-10-31T17:48:09.913Z,,0,1,,2994.6990000000224,response,ISIC_4684860.JPG,4,ISIC_1630301.JPG,ISIC_1630301.JPG,false,0,keypress(z),500,222338.90000000002,222338.40000000002,219327.051,219337.5,219343.701,222340.746,8,400,46,,ISIC_4684860.JPG
break,html.Screen,4_45_1,2023-10-31T17:48:09.915Z,,0,,,NaN,,,,,,false,,,,222340.5,222340,,222339.2,,222340.746,8,400,,,
break_continue,html.Screen,4_45_2,2023-10-31T17:48:09.916Z,,0,,,NaN,,,,,,false,,,,222341.60000000003,222341.3,,222340.7,,222340.746,8,400,,,
sequence,flow.Sequence,4_45,2023-10-31T17:48:09.916Z,,0,,,2997.5989999999874,completion,,,,,false,,,,222341.90000000002,222341.3,219327.051,219337.40000000002,219343.701,222340.746,8,400,,,
trial,html.Screen,4_46_0,2023-10-31T17:48:16.191Z,,0,1,,6275.354000000021,response,ISIC_8011058.JPG,4,ISIC_0054885.JPG,ISIC_0054885.JPG,false,0,keypress(z),500,228616.40000000002,228616.10000000003,222324.096,222342.2,222340.746,228634.543,8,400,47,,ISIC_8011058.JPG
break,html.Screen,4_46_1,2023-10-31T17:48:16.193Z,,0,,,NaN,,,,,,false,,,,228618,228617.40000000002,,228616.8,,228634.543,8,400,,,
break_continue,html.Screen,4_46_2,2023-10-31T17:48:16.194Z,,0,,,NaN,,,,,,false,,,,228619.2,228618.90000000002,,228618.7,,228634.543,8,400,,,
sequence,flow.Sequence,4_46,2023-10-31T17:48:16.194Z,,0,,,6278.15400000001,completion,,,,,false,,,,228619.90000000002,228618.90000000002,222324.096,222342.10000000003,222340.746,228634.543,8,400,,,
trial,html.Screen,4_47_0,2023-10-31T17:48:20.596Z,,0,1,,4386.857000000018,response,ISIC_6023518.JPG,5,ISIC_0063852.JPG,ISIC_0063852.JPG,false,0,keypress(z),500,233021.8,233021.40000000002,228617.893,228620.10000000003,228634.543,233030.21,8,400,48,,ISIC_6023518.JPG
break,html.Screen,4_47_1,2023-10-31T17:48:20.598Z,,0,,,NaN,,,,,,false,,,,233023,233022.7,,233022.2,,233030.21,8,400,,,
break_continue,html.Screen,4_47_2,2023-10-31T17:48:20.599Z,,0,,,NaN,,,,,,false,,,,233024.2,233023.90000000002,,233023.7,,233030.21,8,400,,,
sequence,flow.Sequence,4_47,2023-10-31T17:48:20.599Z,,0,,,4389.357000000018,completion,,,,,false,,,,233024.60000000003,233023.90000000002,228617.893,228620,228634.543,233030.21,8,400,,,
trial,html.Screen,4_48_0,2023-10-31T17:48:23.545Z,,0,1,,2939.99000000002,response,ISIC_0070752.JPG,5,ISIC_5614446.JPG,ISIC_5614446.JPG,false,0,keypress(z),500,235970.5,235970.2,233013.56,233024.8,233030.21,235977.305,8,400,49,,ISIC_0070752.JPG
break,html.Screen,4_48_1,2023-10-31T17:48:23.546Z,,0,,,NaN,,,,,,false,,,,235971.7,235971.40000000002,,235970.7,,235977.305,8,400,,,
break_continue,html.Screen,4_48_2,2023-10-31T17:48:23.547Z,,0,,,NaN,,,,,,false,,,,235972.3,235972,,235971.90000000002,,235977.305,8,400,,,
sequence,flow.Sequence,4_48,2023-10-31T17:48:23.547Z,,0,,,2941.790000000008,completion,,,,,false,,,,235972.5,235972,233013.56,233024.7,233030.21,235977.305,8,400,,,
trial,html.Screen,4_49_0,2023-10-31T17:48:26.733Z,,0,1,,3180.795000000042,response,ISIC_0068215.JPG,4,ISIC_6330529.JPG,ISIC_0068215.JPG,false,1,keypress(m),500,239158.40000000002,239158.10000000003,235960.655,235972.7,235977.305,239174.153,8,400,50,,ISIC_6330529.JPG
break,html.Screen,4_49_1,2023-10-31T17:48:36.740Z,,0,,,10006.812000000005,timeout,,,,,false,,,,249165.2,249164.315,239157.503,239158.60000000003,239174.153,249180.965,8,400,,,
break_continue,html.Screen,4_49_2,2023-10-31T17:48:38.954Z,,0,,,2143.435000000027,response,,,,,false,continue,keypress(Space),,251379.10000000003,251324.40000000002,249164.315,249165.40000000002,249180.965,251395.449,8,400,,,
sequence,flow.Sequence,4_49,2023-10-31T17:48:38.954Z,,0,,,15347.09500000003,completion,,,,,false,,,,251379.5,251324.40000000002,235960.655,235972.60000000003,235977.305,251395.449,8,400,,,
trial,html.Screen,4_50_0,2023-10-31T17:48:41.725Z,,0,2,,2754.45100000003,response,ISIC_5935362.JPG,4,ISIC_0059248.JPG,ISIC_0059248.JPG,false,0,keypress(z),500,254150.2,254149.90000000002,251378.765,251379.60000000003,251395.449,254159.388,8,400,1,,ISIC_5935362.JPG
break,html.Screen,4_50_1,2023-10-31T17:48:41.726Z,,0,,,NaN,,,,,,false,,,,254151.8,254151.3,,254150.60000000003,,254159.388,8,400,,,
break_continue,html.Screen,4_50_2,2023-10-31T17:48:41.727Z,,0,,,NaN,,,,,,false,,,,254152.60000000003,254152.3,,254152,,254159.388,8,400,,,
sequence,flow.Sequence,4_50,2023-10-31T17:48:41.727Z,,0,,,2756.850999999995,completion,,,,,false,,,,254152.90000000002,254152.3,251378.765,251379.60000000003,251395.449,254159.388,8,400,,,
trial,html.Screen,4_51_0,2023-10-31T17:48:44.345Z,,0,2,,2611.012000000017,response,ISIC_6697332.JPG,4,ISIC_1234463.JPG,ISIC_6697332.JPG,false,1,keypress(m),500,256770.7,256770.40000000002,254142.738,254153.10000000003,254159.388,256790.132,8,400,2,,ISIC_1234463.JPG
break,html.Screen,4_51_1,2023-10-31T17:48:44.346Z,,0,,,NaN,,,,,,false,,,,256771.8,256771.5,,256771,,256790.132,8,400,,,
break_continue,html.Screen,4_51_2,2023-10-31T17:48:44.347Z,,0,,,NaN,,,,,,false,,,,256772.60000000003,256772.3,,256772.10000000003,,256790.132,8,400,,,
sequence,flow.Sequence,4_51,2023-10-31T17:48:44.347Z,,0,,,2612.911999999982,completion,,,,,false,,,,256772.8,256772.3,254142.738,254153,254159.388,256790.132,8,400,,,
trial,html.Screen,4_52_0,2023-10-31T17:48:47.037Z,,0,2,,2672.3679999999877,response,ISIC_8153123.JPG,5,ISIC_0057287.JPG,ISIC_8153123.JPG,false,1,keypress(m),500,259462.7,259462.5,256773.474,256773.10000000003,256790.132,259470.815,8,400,3,,ISIC_0057287.JPG
break,html.Screen,4_52_1,2023-10-31T17:48:47.039Z,,0,,,NaN,,,,,,false,,,,259464.10000000003,259463.7,,259463,,259470.815,8,400,,,
break_continue,html.Screen,4_52_2,2023-10-31T17:48:47.039Z,,0,,,NaN,,,,,,false,,,,259464.8,259464.60000000003,,259464.40000000002,,259470.815,8,400,,,
sequence,flow.Sequence,4_52,2023-10-31T17:48:47.050Z,,0,,,2674.4680000000226,completion,,,,,false,,,,259475.40000000002,259464.60000000003,256773.474,256773,256790.132,259470.815,8,400,,,
trial,html.Screen,4_53_0,2023-10-31T17:48:49.820Z,,0,2,,2774.3850000000093,response,ISIC_2513933.JPG,5,ISIC_1595103.JPG,ISIC_1595103.JPG,false,0,keypress(z),500,262245.5,262245.2,259454.165,259475.7,259470.815,262251.407,8,400,4,,ISIC_2513933.JPG
break,html.Screen,4_53_1,2023-10-31T17:48:49.821Z,,0,,,NaN,,,,,,false,,,,262246.60000000003,262246.3,,262245.7,,262251.407,8,400,,,
break_continue,html.Screen,4_53_2,2023-10-31T17:48:49.823Z,,0,,,NaN,,,,,,false,,,,262248.3,262247.10000000003,,262246.8,,262251.407,8,400,,,
sequence,flow.Sequence,4_53,2023-10-31T17:48:49.823Z,,0,,,2776.2850000000326,completion,,,,,false,,,,262248.7,262247.10000000003,259454.165,259475.7,259470.815,262251.407,8,400,,,
trial,html.Screen,4_54_0,2023-10-31T17:48:53.706Z,,0,2,,3879.1930000000284,response,ISIC_9815788.JPG,5,ISIC_0056799.JPG,ISIC_9815788.JPG,false,1,keypress(m),500,266131.2,266130.60000000003,262234.757,262248.9,262251.407,266147.567,8,400,5,,ISIC_0056799.JPG
break,html.Screen,4_54_1,2023-10-31T17:48:53.708Z,,0,,,NaN,,,,,,false,,,,266133.4,266132.8,,266131.7,,266147.567,8,400,,,
break_continue,html.Screen,4_54_2,2023-10-31T17:48:53.709Z,,0,,,NaN,,,,,,false,,,,266134.4,266134.10000000003,,266133.60000000003,,266147.567,8,400,,,
sequence,flow.Sequence,4_54,2023-10-31T17:48:53.709Z,,0,,,3882.6930000000284,completion,,,,,false,,,,266134.60000000003,266134.10000000003,262234.757,262248.8,262251.407,266147.567,8,400,,,
trial,html.Screen,4_55_0,2023-10-31T17:48:56.543Z,,0,2,,2821.033000000054,response,ISIC_3372067.JPG,4,ISIC_0568867.JPG,ISIC_0568867.JPG,false,0,keypress(z),500,268968.9,268968.60000000003,266130.917,266134.9,266147.567,268978.111,8,400,6,,ISIC_3372067.JPG
break,html.Screen,4_55_1,2023-10-31T17:48:56.545Z,,0,,,NaN,,,,,,false,,,,268970.3,268969.9,,268969.10000000003,,268978.111,8,400,,,
break_continue,html.Screen,4_55_2,2023-10-31T17:48:56.546Z,,0,,,NaN,,,,,,false,,,,268971,268970.8,,268970.5,,268978.111,8,400,,,
sequence,flow.Sequence,4_55,2023-10-31T17:48:56.546Z,,0,,,2823.2330000000075,completion,,,,,false,,,,268971.3,268970.8,266130.917,266134.8,266147.567,268978.111,8,400,,,
trial,html.Screen,4_56_0,2023-10-31T17:48:59.796Z,,0,2,,3242.8890000000247,response,ISIC_4138377.JPG,4,ISIC_2535382.JPG,ISIC_4138377.JPG,false,1,keypress(m),500,272221.3,272221,268961.461,268971.60000000003,268978.111,272241.568,8,400,7,,ISIC_2535382.JPG
break,html.Screen,4_56_1,2023-10-31T17:48:59.797Z,,0,,,NaN,,,,,,false,,,,272222.4,272222.2,,272221.7,,272241.568,8,400,,,
break_continue,html.Screen,4_56_2,2023-10-31T17:48:59.798Z,,0,,,NaN,,,,,,false,,,,272223,272222.8,,272222.60000000003,,272241.568,8,400,,,
sequence,flow.Sequence,4_56,2023-10-31T17:48:59.798Z,,0,,,3244.689000000013,completion,,,,,false,,,,272223.3,272222.8,268961.461,268971.5,268978.111,272241.568,8,400,,,
trial,html.Screen,4_57_0,2023-10-31T17:49:05.298Z,,0,2,,5480.831999999995,response,ISIC_6529819.JPG,4,ISIC_1426331.JPG,ISIC_6529819.JPG,false,1,keypress(m),500,277723,277722.4,272224.911,272223.5,272241.568,277736.145,8,400,8,,ISIC_1426331.JPG
break,html.Screen,4_57_1,2023-10-31T17:49:05.299Z,,0,,,NaN,,,,,,false,,,,277724.10000000003,277723.8,,277723.3,,277736.145,8,400,,,
break_continue,html.Screen,4_57_2,2023-10-31T17:49:05.299Z,,0,,,NaN,,,,,,false,,,,277724.7,277724.5,,277724.3,,277736.145,8,400,,,
sequence,flow.Sequence,4_57,2023-10-31T17:49:05.300Z,,0,,,5482.931999999972,completion,,,,,false,,,,277725,277724.5,272224.911,272223.5,272241.568,277736.145,8,400,,,
trial,html.Screen,4_58_0,2023-10-31T17:49:08.166Z,,0,2,,2855.1549999999697,response,ISIC_4535099.JPG,5,ISIC_8244535.JPG,ISIC_8244535.JPG,false,0,keypress(z),500,280591.5,280591.3,277719.495,277725.9,277736.145,280599.989,8,400,9,,ISIC_4535099.JPG
break,html.Screen,4_58_1,2023-10-31T17:49:08.167Z,,0,,,NaN,,,,,,false,,,,280592.7,280592.4,,280591.8,,280599.989,8,400,,,
break_continue,html.Screen,4_58_2,2023-10-31T17:49:08.168Z,,0,,,NaN,,,,,,false,,,,280593.4,280593.10000000003,,280593,,280599.989,8,400,,,
sequence,flow.Sequence,4_58,2023-10-31T17:49:08.168Z,,0,,,2856.9550000000163,completion,,,,,false,,,,280593.60000000003,280593.10000000003,277719.495,277725.8,277736.145,280599.989,8,400,,,
trial,html.Screen,4_59_0,2023-10-31T17:49:10.730Z,,0,2,,2555.411000000022,response,ISIC_0058863.JPG,5,ISIC_4249893.JPG,ISIC_0058863.JPG,false,1,keypress(m),500,283155.7,283155.4,280583.339,280593.8,280599.989,283164.128,8,400,10,,ISIC_4249893.JPG
break,html.Screen,4_59_1,2023-10-31T17:49:10.731Z,,0,,,NaN,,,,,,false,,,,283156.8,283156.5,,283155.9,,283164.128,8,400,,,
break_continue,html.Screen,4_59_2,2023-10-31T17:49:10.732Z,,0,,,NaN,,,,,,false,,,,283157.5,283157.2,,283157,,283164.128,8,400,,,
sequence,flow.Sequence,4_59,2023-10-31T17:49:10.741Z,,0,,,2557.2110000000102,completion,,,,,false,,,,283166.3,283157.2,280583.339,280593.60000000003,280599.989,283164.128,8,400,,,
trial,html.Screen,4_60_0,2023-10-31T17:49:13.377Z,,0,2,,2638.271999999997,response,ISIC_7960321.JPG,5,ISIC_0013865.JPG,ISIC_7960321.JPG,false,1,keypress(m),500,285802.7,285802.4,283147.478,283166.5,283164.128,285811.519,8,400,11,,ISIC_0013865.JPG
break,html.Screen,4_60_1,2023-10-31T17:49:13.378Z,,0,,,NaN,,,,,,false,,,,285803.9,285803.60000000003,,285802.9,,285811.519,8,400,,,
break_continue,html.Screen,4_60_2,2023-10-31T17:49:13.379Z,,0,,,NaN,,,,,,false,,,,285804.7,285804.4,,285804.2,,285811.519,8,400,,,
sequence,flow.Sequence,4_60,2023-10-31T17:49:13.380Z,,0,,,2640.271999999997,completion,,,,,false,,,,285805,285804.4,283147.478,283166.5,283164.128,285811.519,8,400,,,
trial,html.Screen,4_61_0,2023-10-31T17:49:16.614Z,,0,2,,3227.481000000029,response,ISIC_0012183.JPG,5,ISIC_3349562.JPG,ISIC_0012183.JPG,false,1,keypress(m),500,289039.4,289039,285794.869,285805.2,285811.519,289058.318,8,400,12,,ISIC_3349562.JPG
break,html.Screen,4_61_1,2023-10-31T17:49:16.615Z,,0,,,NaN,,,,,,false,,,,289040.5,289040.2,,289039.7,,289058.318,8,400,,,
break_continue,html.Screen,4_61_2,2023-10-31T17:49:16.616Z,,0,,,NaN,,,,,,false,,,,289041.2,289041,,289040.8,,289058.318,8,400,,,
sequence,flow.Sequence,4_61,2023-10-31T17:49:16.616Z,,0,,,3229.481000000029,completion,,,,,false,,,,289041.5,289041,285794.869,285805.2,285811.519,289058.318,8,400,,,
trial,html.Screen,4_62_0,2023-10-31T17:49:19.904Z,,0,2,,3270.3819999999832,response,ISIC_1296490.JPG,4,ISIC_9684318.JPG,ISIC_9684318.JPG,false,0,keypress(z),500,292329,292328.7,289041.668,289041.60000000003,289058.318,292338.419,8,400,13,,ISIC_1296490.JPG
break,html.Screen,4_62_1,2023-10-31T17:49:19.905Z,,0,,,NaN,,,,,,false,,,,292330.3,292329.9,,292329.3,,292338.419,8,400,,,
break_continue,html.Screen,4_62_2,2023-10-31T17:49:19.906Z,,0,,,NaN,,,,,,false,,,,292331.8,292330.8,,292330.5,,292338.419,8,400,,,
sequence,flow.Sequence,4_62,2023-10-31T17:49:19.907Z,,0,,,3272.48199999996,completion,,,,,false,,,,292332.10000000003,292330.8,289041.668,289041.60000000003,289058.318,292338.419,8,400,,,
trial,html.Screen,4_63_0,2023-10-31T17:49:22.617Z,,0,2,,2704.0810000000056,response,ISIC_0033329.JPG,5,ISIC_3779093.JPG,ISIC_3779093.JPG,false,0,keypress(z),500,295042.8,295042.5,292321.769,292332.60000000003,292338.419,295052.41,8,400,14,,ISIC_0033329.JPG
break,html.Screen,4_63_1,2023-10-31T17:49:22.619Z,,0,,,NaN,,,,,,false,,,,295044.10000000003,295043.8,,295043.10000000003,,295052.41,8,400,,,
break_continue,html.Screen,4_63_2,2023-10-31T17:49:22.619Z,,0,,,NaN,,,,,,false,,,,295044.9,295044.60000000003,,295044.4,,295052.41,8,400,,,
sequence,flow.Sequence,4_63,2023-10-31T17:49:22.620Z,,0,,,2706.1810000000405,completion,,,,,false,,,,295045.3,295044.60000000003,292321.769,292332.5,292338.419,295052.41,8,400,,,
trial,html.Screen,4_64_0,2023-10-31T17:49:26.161Z,,0,2,,3534.0900000000256,response,ISIC_0061092.JPG,5,ISIC_0057406.JPG,ISIC_0061092.JPG,false,1,keypress(m),500,298586.9,298586.5,295035.76,295045.5,295052.41,298598.915,8,400,15,,ISIC_0057406.JPG
break,html.Screen,4_64_1,2023-10-31T17:49:26.163Z,,0,,,NaN,,,,,,false,,,,298588.2,298587.9,,298587.3,,298598.915,8,400,,,
break_continue,html.Screen,4_64_2,2023-10-31T17:49:26.165Z,,0,,,NaN,,,,,,false,,,,298590.10000000003,298588.8,,298588.5,,298598.915,8,400,,,
sequence,flow.Sequence,4_64,2023-10-31T17:49:26.165Z,,0,,,3536.390000000014,completion,,,,,false,,,,298590.5,298588.8,295035.76,295045.4,295052.41,298598.915,8,400,,,
trial,html.Screen,4_65_0,2023-10-31T17:49:29.729Z,,0,2,,3555.4850000000442,response,ISIC_7629589.JPG,5,ISIC_9955163.JPG,ISIC_9955163.JPG,false,0,keypress(z),500,302154.8,302154.4,298582.265,298590.7,298598.915,302162.069,8,400,16,,ISIC_7629589.JPG
break,html.Screen,4_65_1,2023-10-31T17:49:29.730Z,,0,,,NaN,,,,,,false,,,,302155.9,302155.4,,302155,,302162.069,8,400,,,
break_continue,html.Screen,4_65_2,2023-10-31T17:49:29.731Z,,0,,,NaN,,,,,,false,,,,302156.60000000003,302156.3,,302156.10000000003,,302162.069,8,400,,,
sequence,flow.Sequence,4_65,2023-10-31T17:49:29.731Z,,0,,,3557.3850000000093,completion,,,,,false,,,,302156.9,302156.3,298582.265,298590.7,298598.915,302162.069,8,400,,,
trial,html.Screen,4_66_0,2023-10-31T17:49:32.642Z,,0,2,,2904.7309999999707,response,ISIC_0054006.JPG,4,ISIC_0010895.JPG,ISIC_0010895.JPG,false,0,keypress(z),500,305067.2,305066.8,302145.419,302157.2,302162.069,305075.864,8,400,17,,ISIC_0054006.JPG
break,html.Screen,4_66_1,2023-10-31T17:49:32.643Z,,0,,,NaN,,,,,,false,,,,305068.2,305067.89999999997,,305067.39999999997,,305075.864,8,400,,,
break_continue,html.Screen,4_66_2,2023-10-31T17:49:32.643Z,,0,,,NaN,,,,,,false,,,,305068.8,305068.60000000003,,305068.39999999997,,305075.864,8,400,,,
sequence,flow.Sequence,4_66,2023-10-31T17:49:32.644Z,,0,,,2906.5310000000172,completion,,,,,false,,,,305069.10000000003,305068.60000000003,302145.419,302157.10000000003,302162.069,305075.864,8,400,,,
trial,html.Screen,4_67_0,2023-10-31T17:49:36.057Z,,0,2,,3406.5359999999637,response,ISIC_0009903.JPG,4,ISIC_0054973.JPG,ISIC_0009903.JPG,false,1,keypress(m),500,308482.8,308482.39999999997,305059.214,305069.39999999997,305075.864,308505.816,8,400,18,,ISIC_0054973.JPG
break,html.Screen,4_67_1,2023-10-31T17:49:36.058Z,,0,,,NaN,,,,,,false,,,,308483.7,308483.39999999997,,308483.00000000006,,308505.816,8,400,,,
break_continue,html.Screen,4_67_2,2023-10-31T17:49:36.059Z,,0,,,NaN,,,,,,false,,,,308484.7,308484.39999999997,,308484.00000000006,,308505.816,8,400,,,
sequence,flow.Sequence,4_67,2023-10-31T17:49:36.059Z,,0,,,3408.5359999999637,completion,,,,,false,,,,308484.89999999997,308484.39999999997,305059.214,305069.3,305075.864,308505.816,8,400,,,
trial,html.Screen,4_68_0,2023-10-31T17:49:38.257Z,,0,2,,2176.5839999999735,response,ISIC_5938680.JPG,4,ISIC_8725878.JPG,ISIC_5938680.JPG,false,1,keypress(m),500,310682.7,310682.39999999997,308489.166,308485.10000000003,308505.816,310687,8,400,19,,ISIC_8725878.JPG
break,html.Screen,4_68_1,2023-10-31T17:49:38.258Z,,0,,,NaN,,,,,,false,,,,310683.89999999997,310683.50000000006,,310682.89999999997,,310687,8,400,,,
break_continue,html.Screen,4_68_2,2023-10-31T17:49:38.259Z,,0,,,NaN,,,,,,false,,,,310684.7,310684.39999999997,,310684.10000000003,,310687,8,400,,,
sequence,flow.Sequence,4_68,2023-10-31T17:49:38.260Z,,0,,,2178.5839999999735,completion,,,,,false,,,,310685.00000000006,310684.39999999997,308489.166,308485.10000000003,308505.816,310687,8,400,,,
trial,html.Screen,4_69_0,2023-10-31T17:49:42.177Z,,0,2,,3915.500000000058,response,ISIC_0015185.JPG,5,ISIC_0033886.JPG,ISIC_0015185.JPG,false,1,keypress(m),500,314602.8,314602.50000000006,310670.35,310685.2,310687,314616.46,8,400,20,,ISIC_0033886.JPG
break,html.Screen,4_69_1,2023-10-31T17:49:42.179Z,,0,,,NaN,,,,,,false,,,,314604.10000000003,314603.8,,314603.10000000003,,314616.46,8,400,,,
break_continue,html.Screen,4_69_2,2023-10-31T17:49:42.179Z,,0,,,NaN,,,,,,false,,,,314604.8,314604.60000000003,,314604.39999999997,,314616.46,8,400,,,
sequence,flow.Sequence,4_69,2023-10-31T17:49:42.180Z,,0,,,3917.600000000035,completion,,,,,false,,,,314605.10000000003,314604.60000000003,310670.35,310685.10000000003,310687,314616.46,8,400,,,
trial,html.Screen,4_70_0,2023-10-31T17:49:46.361Z,,0,2,,4169.939999999944,response,ISIC_8918703.JPG,5,ISIC_9268487.JPG,ISIC_8918703.JPG,false,1,keypress(m),500,318786.8,318786.39999999997,314599.81,314605.39999999997,314616.46,318795.674,8,400,21,,ISIC_9268487.JPG
break,html.Screen,4_70_1,2023-10-31T17:49:46.362Z,,0,,,NaN,,,,,,false,,,,318787.8,318787.50000000006,,318787.10000000003,,318795.674,8,400,,,
break_continue,html.Screen,4_70_2,2023-10-31T17:49:46.363Z,,0,,,NaN,,,,,,false,,,,318788.60000000003,318788.39999999997,,318788.10000000003,,318795.674,8,400,,,
sequence,flow.Sequence,4_70,2023-10-31T17:49:46.364Z,,0,,,4171.939999999944,completion,,,,,false,,,,318789.00000000006,318788.39999999997,314599.81,314605.3,314616.46,318795.674,8,400,,,
trial,html.Screen,4_71_0,2023-10-31T17:49:49.486Z,,0,2,,3115.0260000000126,response,ISIC_5219334.JPG,4,ISIC_4141898.JPG,ISIC_4141898.JPG,false,0,keypress(z),500,321911.00000000006,321910.7,318779.024,318789.2,318795.674,321925.929,8,400,22,,ISIC_5219334.JPG
break,html.Screen,4_71_1,2023-10-31T17:49:49.487Z,,0,,,NaN,,,,,,false,,,,321912.2,321911.7,,321911.3,,321925.929,8,400,,,
break_continue,html.Screen,4_71_2,2023-10-31T17:49:49.487Z,,0,,,NaN,,,,,,false,,,,321912.89999999997,321912.7,,321912.39999999997,,321925.929,8,400,,,
sequence,flow.Sequence,4_71,2023-10-31T17:49:49.488Z,,0,,,3117.0260000000126,completion,,,,,false,,,,321913.2,321912.7,318779.024,318789.10000000003,318795.674,321925.929,8,400,,,
trial,html.Screen,4_72_0,2023-10-31T17:49:52.166Z,,0,2,,2664.8709999999846,response,ISIC_4482610.JPG,5,ISIC_0010067.JPG,ISIC_0010067.JPG,false,0,keypress(z),500,324591.10000000003,324590.8,321909.272,321913.50000000006,321925.929,324623.263,8,400,23,,ISIC_4482610.JPG
break,html.Screen,4_72_1,2023-10-31T17:49:52.167Z,,0,,,NaN,,,,,,false,,,,324592.7,324592.10000000003,,324591.50000000006,,324623.263,8,400,,,
break_continue,html.Screen,4_72_2,2023-10-31T17:49:52.168Z,,0,,,NaN,,,,,,false,,,,324593.60000000003,324593.39999999997,,324592.89999999997,,324623.263,8,400,,,
sequence,flow.Sequence,4_72,2023-10-31T17:49:52.168Z,,0,,,2667.4709999999614,completion,,,,,false,,,,324593.89999999997,324593.39999999997,321909.272,321913.39999999997,321925.929,324623.263,8,400,,,
trial,html.Screen,4_73_0,2023-10-31T17:49:54.833Z,,0,2,,2635.237000000081,response,ISIC_8901784.JPG,5,ISIC_9336830.JPG,ISIC_9336830.JPG,false,0,keypress(z),500,327258.8,327258.50000000006,324606.613,324594.10000000003,324623.263,327270.654,8,400,24,,ISIC_8901784.JPG
break,html.Screen,4_73_1,2023-10-31T17:49:54.834Z,,0,,,NaN,,,,,,false,,,,327259.89999999997,327259.60000000003,,327259.00000000006,,327270.654,8,400,,,
break_continue,html.Screen,4_73_2,2023-10-31T17:49:54.835Z,,0,,,NaN,,,,,,false,,,,327260.60000000003,327260.39999999997,,327260.2,,327270.654,8,400,,,
sequence,flow.Sequence,4_73,2023-10-31T17:49:54.835Z,,0,,,2637.136999999988,completion,,,,,false,,,,327260.89999999997,327260.39999999997,324606.613,324594.00000000006,324623.263,327270.654,8,400,,,
trial,html.Screen,4_74_0,2023-10-31T17:49:58.657Z,,0,2,,3811.7459999999846,response,ISIC_3436033.JPG,5,ISIC_0011238.JPG,ISIC_3436033.JPG,false,1,keypress(m),500,331082.7,331082.39999999997,327254.004,327261.10000000003,327270.654,331100.22,8,400,25,,ISIC_0011238.JPG
break,html.Screen,4_74_1,2023-10-31T17:49:58.658Z,,0,,,NaN,,,,,,false,,,,331083.8,331083.39999999997,,331083.00000000006,,331100.22,8,400,,,
break_continue,html.Screen,4_74_2,2023-10-31T17:49:58.659Z,,0,,,NaN,,,,,,false,,,,331084.60000000003,331084.39999999997,,331084.10000000003,,331100.22,8,400,,,
sequence,flow.Sequence,4_74,2023-10-31T17:49:58.659Z,,0,,,3813.7459999999846,completion,,,,,false,,,,331084.89999999997,331084.39999999997,327254.004,327261.10000000003,327270.654,331100.22,8,400,,,
trial,html.Screen,4_75_0,2023-10-31T17:50:01.401Z,,0,2,,2726.280000000086,response,ISIC_0011031.JPG,4,ISIC_2424673.JPG,ISIC_0011031.JPG,false,1,keypress(m),500,333826.7,333826.50000000006,331083.562,331085.10000000003,331100.22,333847.512,8,400,26,,ISIC_2424673.JPG
break,html.Screen,4_75_1,2023-10-31T17:50:01.403Z,,0,,,NaN,,,,,,false,,,,333828.10000000003,333827.60000000003,,333826.89999999997,,333847.512,8,400,,,
break_continue,html.Screen,4_75_2,2023-10-31T17:50:01.404Z,,0,,,NaN,,,,,,false,,,,333829.10000000003,333828.8,,333828.50000000006,,333847.512,8,400,,,
sequence,flow.Sequence,4_75,2023-10-31T17:50:01.405Z,,0,,,2728.5800000000163,completion,,,,,false,,,,333830.7,333828.8,331083.562,331085.10000000003,331100.22,333847.512,8,400,,,
trial,html.Screen,4_76_0,2023-10-31T17:50:04.031Z,,0,2,,2608.9880000000703,response,ISIC_7499769.JPG,5,ISIC_0055714.JPG,ISIC_0055714.JPG,false,0,keypress(z),500,336456.8,336456.50000000006,333830.854,333830.89999999997,333847.512,336461.594,8,400,27,,ISIC_7499769.JPG
break,html.Screen,4_76_1,2023-10-31T17:50:04.033Z,,0,,,NaN,,,,,,false,,,,336458.00000000006,336457.60000000003,,336457.00000000006,,336461.594,8,400,,,
break_continue,html.Screen,4_76_2,2023-10-31T17:50:04.033Z,,0,,,NaN,,,,,,false,,,,336458.7,336458.39999999997,,336458.10000000003,,336461.594,8,400,,,
sequence,flow.Sequence,4_76,2023-10-31T17:50:04.033Z,,0,,,2610.887999999977,completion,,,,,false,,,,336458.89999999997,336458.39999999997,333830.854,333830.8,333847.512,336461.594,8,400,,,
trial,html.Screen,4_77_0,2023-10-31T17:50:06.644Z,,0,2,,2607.3059999999823,response,ISIC_2596574.JPG,5,ISIC_0067564.JPG,ISIC_0067564.JPG,false,0,keypress(z),500,339069.2,339068.89999999997,336444.944,336459.10000000003,336461.594,339075.685,8,400,28,,ISIC_2596574.JPG
break,html.Screen,4_77_1,2023-10-31T17:50:06.645Z,,0,,,NaN,,,,,,false,,,,339070.39999999997,339069.89999999997,,339069.50000000006,,339075.685,8,400,,,
break_continue,html.Screen,4_77_2,2023-10-31T17:50:06.646Z,,0,,,NaN,,,,,,false,,,,339071.10000000003,339070.89999999997,,339070.60000000003,,339075.685,8,400,,,
sequence,flow.Sequence,4_77,2023-10-31T17:50:06.646Z,,0,,,2609.3059999999823,completion,,,,,false,,,,339071.3,339070.89999999997,336444.944,336459.10000000003,336461.594,339075.685,8,400,,,
trial,html.Screen,4_78_0,2023-10-31T17:50:09.569Z,,0,2,,2918.8150000000605,response,ISIC_9402324.JPG,4,ISIC_0070588.JPG,ISIC_0070588.JPG,false,0,keypress(z),500,341994.7,341994.50000000006,339059.035,339071.60000000003,339075.685,342006.129,8,400,29,,ISIC_9402324.JPG
break,html.Screen,4_78_1,2023-10-31T17:50:09.571Z,,0,,,NaN,,,,,,false,,,,341996.10000000003,341995.8,,341995.00000000006,,342006.129,8,400,,,
break_continue,html.Screen,4_78_2,2023-10-31T17:50:09.571Z,,0,,,NaN,,,,,,false,,,,341996.8,341996.60000000003,,341996.3,,342006.129,8,400,,,
sequence,flow.Sequence,4_78,2023-10-31T17:50:09.572Z,,0,,,2920.9150000000373,completion,,,,,false,,,,341997.10000000003,341996.60000000003,339059.035,339071.50000000006,339075.685,342006.129,8,400,,,
trial,html.Screen,4_79_0,2023-10-31T17:50:12.230Z,,0,2,,2648.670999999973,response,ISIC_0033168.JPG,4,ISIC_5789263.JPG,ISIC_0033168.JPG,false,1,keypress(m),500,344655.00000000006,344654.8,341989.479,341997.3,342006.129,344670.17,8,400,30,,ISIC_5789263.JPG
break,html.Screen,4_79_1,2023-10-31T17:50:12.231Z,,0,,,NaN,,,,,,false,,,,344656.10000000003,344655.89999999997,,344655.3,,344670.17,8,400,,,
break_continue,html.Screen,4_79_2,2023-10-31T17:50:12.231Z,,0,,,NaN,,,,,,false,,,,344656.7,344656.50000000006,,344656.3,,344670.17,8,400,,,
sequence,flow.Sequence,4_79,2023-10-31T17:50:12.231Z,,0,,,2650.371000000043,completion,,,,,false,,,,344656.89999999997,344656.50000000006,341989.479,341997.10000000003,342006.129,344670.17,8,400,,,
trial,html.Screen,4_80_0,2023-10-31T17:50:14.833Z,,0,2,,2588.3300000000745,response,ISIC_0055680.JPG,5,ISIC_7454699.JPG,ISIC_0055680.JPG,false,1,keypress(m),500,347258.8,347258.50000000006,344653.52,344657.10000000003,344670.17,347267.61,8,400,31,,ISIC_7454699.JPG
break,html.Screen,4_80_1,2023-10-31T17:50:14.835Z,,0,,,NaN,,,,,,false,,,,347260.00000000006,347259.60000000003,,347259.10000000003,,347267.61,8,400,,,
break_continue,html.Screen,4_80_2,2023-10-31T17:50:14.836Z,,0,,,NaN,,,,,,false,,,,347261.10000000003,347260.50000000006,,347260.3,,347267.61,8,400,,,
sequence,flow.Sequence,4_80,2023-10-31T17:50:14.836Z,,0,,,2590.3300000000745,completion,,,,,false,,,,347261.60000000003,347260.50000000006,344653.52,344657.10000000003,344670.17,347267.61,8,400,,,
trial,html.Screen,4_81_0,2023-10-31T17:50:19.001Z,,0,2,,4158.890000000072,response,ISIC_0063872.JPG,5,ISIC_0055003.JPG,ISIC_0055003.JPG,false,0,keypress(z),500,351426.7,351426.50000000006,347250.96,347261.8,347267.61,351430.174,8,400,32,,ISIC_0063872.JPG
break,html.Screen,4_81_1,2023-10-31T17:50:19.003Z,,0,,,NaN,,,,,,false,,,,351428.10000000003,351427.8,,351427.00000000006,,351430.174,8,400,,,
break_continue,html.Screen,4_81_2,2023-10-31T17:50:19.003Z,,0,,,NaN,,,,,,false,,,,351428.89999999997,351428.60000000003,,351428.39999999997,,351430.174,8,400,,,
sequence,flow.Sequence,4_81,2023-10-31T17:50:19.004Z,,0,,,4160.990000000049,completion,,,,,false,,,,351429.2,351428.60000000003,347250.96,347261.7,347267.61,351430.174,8,400,,,
trial,html.Screen,4_82_0,2023-10-31T17:50:21.529Z,,0,2,,2524.225999999966,response,ISIC_0028082.JPG,5,ISIC_7837503.JPG,ISIC_0028082.JPG,false,1,keypress(m),500,353954.7,353954.39999999997,351413.524,351429.39999999997,351430.174,353961.014,8,400,33,,ISIC_7837503.JPG
break,html.Screen,4_82_1,2023-10-31T17:50:21.530Z,,0,,,NaN,,,,,,false,,,,353955.8,353955.50000000006,,353954.89999999997,,353961.014,8,400,,,
break_continue,html.Screen,4_82_2,2023-10-31T17:50:21.531Z,,0,,,NaN,,,,,,false,,,,353956.39999999997,353956.2,,353956.00000000006,,353961.014,8,400,,,
sequence,flow.Sequence,4_82,2023-10-31T17:50:21.531Z,,0,,,2526.0260000000126,completion,,,,,false,,,,353956.7,353956.2,351413.524,351429.39999999997,351430.174,353961.014,8,400,,,
trial,html.Screen,4_83_0,2023-10-31T17:50:25.757Z,,0,2,,4221.08600000001,response,ISIC_7590292.JPG,5,ISIC_0024285.JPG,ISIC_0024285.JPG,false,0,keypress(z),500,358182.39999999997,358182.10000000003,353944.364,353956.8,353961.014,358190.177,8,400,34,,ISIC_7590292.JPG
break,html.Screen,4_83_1,2023-10-31T17:50:25.758Z,,0,,,NaN,,,,,,false,,,,358183.89999999997,358183.39999999997,,358182.7,,358190.177,8,400,,,
break_continue,html.Screen,4_83_2,2023-10-31T17:50:25.761Z,,0,,,NaN,,,,,,false,,,,358186.10000000003,358185.89999999997,,358184.10000000003,,358190.177,8,400,,,
sequence,flow.Sequence,4_83,2023-10-31T17:50:25.761Z,,0,,,4224.88599999994,completion,,,,,false,,,,358186.39999999997,358185.89999999997,353944.364,353956.8,353961.014,358190.177,8,400,,,
trial,html.Screen,4_84_0,2023-10-31T17:50:28.980Z,,0,2,,3214.5229999999865,response,ISIC_0029212.JPG,4,ISIC_0072286.JPG,ISIC_0029212.JPG,false,1,keypress(m),500,361405.00000000006,361404.7,358173.527,358187.00000000006,358190.177,361436.977,8,400,35,,ISIC_0072286.JPG
break,html.Screen,4_84_1,2023-10-31T17:50:28.981Z,,0,,,NaN,,,,,,false,,,,361406.50000000006,361405.8,,361405.2,,361436.977,8,400,,,
break_continue,html.Screen,4_84_2,2023-10-31T17:50:28.982Z,,0,,,NaN,,,,,,false,,,,361407.7,361407.2,,361406.8,,361436.977,8,400,,,
sequence,flow.Sequence,4_84,2023-10-31T17:50:28.983Z,,0,,,3217.0229999999865,completion,,,,,false,,,,361408.3,361407.2,358173.527,358186.89999999997,358190.177,361436.977,8,400,,,
trial,html.Screen,4_85_0,2023-10-31T17:50:32.289Z,,0,2,,3277.5230000000447,response,ISIC_4602691.JPG,4,ISIC_1193108.JPG,ISIC_1193108.JPG,false,0,keypress(z),500,364714.8,364714.50000000006,361420.327,361408.7,361436.977,364717.077,8,400,36,,ISIC_4602691.JPG
break,html.Screen,4_85_1,2023-10-31T17:50:32.291Z,,0,,,NaN,,,,,,false,,,,364716.8,364716.00000000006,,364715.39999999997,,364717.077,8,400,,,
break_continue,html.Screen,4_85_2,2023-10-31T17:50:32.292Z,,0,,,NaN,,,,,,false,,,,364717.89999999997,364717.7,,364717.00000000006,,364717.077,8,400,,,
sequence,flow.Sequence,4_85,2023-10-31T17:50:32.293Z,,0,,,3280.722999999998,completion,,,,,false,,,,364718.2,364717.7,361420.327,361408.60000000003,361436.977,364717.077,8,400,,,
trial,html.Screen,4_86_0,2023-10-31T17:50:35.185Z,,0,2,,2893.423000000068,response,ISIC_0064694.JPG,5,ISIC_2454898.JPG,ISIC_0064694.JPG,false,1,keypress(m),500,367610.8,367610.50000000006,364700.427,364718.3,364717.077,367614.222,8,400,37,,ISIC_2454898.JPG
break,html.Screen,4_86_1,2023-10-31T17:50:35.186Z,,0,,,NaN,,,,,,false,,,,367611.89999999997,367611.60000000003,,367610.89999999997,,367614.222,8,400,,,
break_continue,html.Screen,4_86_2,2023-10-31T17:50:35.187Z,,0,,,NaN,,,,,,false,,,,367612.60000000003,367612.39999999997,,367612.10000000003,,367614.222,8,400,,,
sequence,flow.Sequence,4_86,2023-10-31T17:50:35.187Z,,0,,,2895.322999999975,completion,,,,,false,,,,367612.89999999997,367612.39999999997,364700.427,364718.3,364717.077,367614.222,8,400,,,
trial,html.Screen,4_87_0,2023-10-31T17:50:37.857Z,,0,2,,2668.2780000000494,response,ISIC_8967786.JPG,5,ISIC_0030428.JPG,ISIC_0030428.JPG,false,0,keypress(z),500,370282.7,370282.50000000006,367597.572,367613.10000000003,367614.222,370294.913,8,400,38,,ISIC_8967786.JPG
break,html.Screen,4_87_1,2023-10-31T17:50:37.858Z,,0,,,NaN,,,,,,false,,,,370283.89999999997,370283.60000000003,,370282.89999999997,,370294.913,8,400,,,
break_continue,html.Screen,4_87_2,2023-10-31T17:50:37.859Z,,0,,,NaN,,,,,,false,,,,370284.50000000006,370284.3,,370284.10000000003,,370294.913,8,400,,,
sequence,flow.Sequence,4_87,2023-10-31T17:50:37.860Z,,0,,,2670.0779999999795,completion,,,,,false,,,,370285.60000000003,370284.3,367597.572,367613.00000000006,367614.222,370294.913,8,400,,,
trial,html.Screen,4_88_0,2023-10-31T17:50:40.774Z,,0,2,,2904.4869999999646,response,ISIC_0033585.JPG,5,ISIC_7125023.JPG,ISIC_0033585.JPG,false,1,keypress(m),500,373199.7,373199.39999999997,370278.263,370285.89999999997,370294.913,373208.707,8,400,39,,ISIC_7125023.JPG
break,html.Screen,4_88_1,2023-10-31T17:50:40.775Z,,0,,,NaN,,,,,,false,,,,373200.7,373200.39999999997,,373200.00000000006,,373208.707,8,400,,,
break_continue,html.Screen,4_88_2,2023-10-31T17:50:40.776Z,,0,,,NaN,,,,,,false,,,,373201.39999999997,373201.10000000003,,373200.89999999997,,373208.707,8,400,,,
sequence,flow.Sequence,4_88,2023-10-31T17:50:40.776Z,,0,,,2906.1870000000345,completion,,,,,false,,,,373201.60000000003,373201.10000000003,370278.263,370285.8,370294.913,373208.707,8,400,,,
trial,html.Screen,4_89_0,2023-10-31T17:50:44.362Z,,0,2,,3578.69299999997,response,ISIC_5789052.JPG,5,ISIC_5732374.JPG,ISIC_5789052.JPG,false,1,keypress(m),500,376787.8,376787.39999999997,373192.057,373201.89999999997,373208.707,376805.17,8,400,40,,ISIC_5732374.JPG
break,html.Screen,4_89_1,2023-10-31T17:50:44.364Z,,0,,,NaN,,,,,,false,,,,376789.10000000003,376788.8,,376788.10000000003,,376805.17,8,400,,,
break_continue,html.Screen,4_89_2,2023-10-31T17:50:44.365Z,,0,,,NaN,,,,,,false,,,,376790.60000000003,376790.3,,376790.00000000006,,376805.17,8,400,,,
sequence,flow.Sequence,4_89,2023-10-31T17:50:44.365Z,,0,,,3581.5929999999935,completion,,,,,false,,,,376790.89999999997,376790.3,373192.057,373201.8,373208.707,376805.17,8,400,,,
trial,html.Screen,4_90_0,2023-10-31T17:50:46.986Z,,0,2,,2605.7299999999814,response,ISIC_0034243.JPG,4,ISIC_4382115.JPG,ISIC_0034243.JPG,false,1,keypress(m),500,379411.3,379410.89999999997,376788.512,376791.10000000003,376805.17,379419.253,8,400,41,,ISIC_4382115.JPG
break,html.Screen,4_90_1,2023-10-31T17:50:46.987Z,,0,,,NaN,,,,,,false,,,,379412.60000000003,379412.3,,379411.60000000003,,379419.253,8,400,,,
break_continue,html.Screen,4_90_2,2023-10-31T17:50:46.988Z,,0,,,NaN,,,,,,false,,,,379413.50000000006,379413.2,,379413.00000000006,,379419.253,8,400,,,
sequence,flow.Sequence,4_90,2023-10-31T17:50:46.988Z,,0,,,2608.030000000028,completion,,,,,false,,,,379413.8,379413.2,376788.512,376791.00000000006,376805.17,379419.253,8,400,,,
trial,html.Screen,4_91_0,2023-10-31T17:50:50.089Z,,0,2,,3095.247000000032,response,ISIC_9482251.JPG,4,ISIC_0025132.JPG,ISIC_9482251.JPG,false,1,keypress(m),500,382515.00000000006,382514.50000000006,379402.603,379414.00000000006,379419.253,382532.858,8,400,42,,ISIC_0025132.JPG
break,html.Screen,4_91_1,2023-10-31T17:50:50.091Z,,0,,,NaN,,,,,,false,,,,382516.10000000003,382515.8,,382515.2,,382532.858,8,400,,,
break_continue,html.Screen,4_91_2,2023-10-31T17:50:50.091Z,,0,,,NaN,,,,,,false,,,,382516.7,382516.50000000006,,382516.3,,382532.858,8,400,,,
sequence,flow.Sequence,4_91,2023-10-31T17:50:50.091Z,,0,,,3097.247000000032,completion,,,,,false,,,,382516.89999999997,382516.50000000006,379402.603,379414.00000000006,379419.253,382532.858,8,400,,,
trial,html.Screen,4_92_0,2023-10-31T17:50:53.057Z,,0,2,,2949.6420000000508,response,ISIC_0030554.JPG,5,ISIC_0026943.JPG,ISIC_0030554.JPG,false,1,keypress(m),500,385482.8,385482.50000000006,382516.2,382517.10000000003,382532.858,385529.896,8,400,43,,ISIC_0026943.JPG
break,html.Screen,4_92_1,2023-10-31T17:50:53.058Z,,0,,,NaN,,,,,,false,,,,385483.8,385483.50000000006,,385482.89999999997,,385529.896,8,400,,,
break_continue,html.Screen,4_92_2,2023-10-31T17:50:53.059Z,,0,,,NaN,,,,,,false,,,,385484.39999999997,385484.2,,385484.00000000006,,385529.896,8,400,,,
sequence,flow.Sequence,4_92,2023-10-31T17:50:53.059Z,,0,,,2951.342000000004,completion,,,,,false,,,,385484.7,385484.2,382516.2,382517.00000000006,382532.858,385529.896,8,400,,,
trial,html.Screen,4_93_0,2023-10-31T17:50:55.921Z,,0,2,,2816.503999999957,response,ISIC_0059864.JPG,5,ISIC_0030237.JPG,ISIC_0030237.JPG,false,0,keypress(z),500,388346.7,388346.39999999997,385479.946,385484.8,385529.896,388360.439,8,400,44,,ISIC_0059864.JPG
break,html.Screen,4_93_1,2023-10-31T17:50:55.922Z,,0,,,NaN,,,,,,false,,,,388348.00000000006,388347.60000000003,,388347.00000000006,,388360.439,8,400,,,
break_continue,html.Screen,4_93_2,2023-10-31T17:50:55.923Z,,0,,,NaN,,,,,,false,,,,388348.50000000006,388348.39999999997,,388348.10000000003,,388360.439,8,400,,,
sequence,flow.Sequence,4_93,2023-10-31T17:50:55.923Z,,0,,,2818.503999999957,completion,,,,,false,,,,388348.8,388348.39999999997,385479.946,385484.8,385529.896,388360.439,8,400,,,
trial,html.Screen,4_94_0,2023-10-31T17:50:59.134Z,,0,2,,3198.8609999999753,response,ISIC_0072136.JPG,5,ISIC_0000291.JPG,ISIC_0072136.JPG,false,1,keypress(m),500,391559.60000000003,391559.3,388343.789,388349.60000000003,388360.439,391573.939,8,400,45,,ISIC_0000291.JPG
break,html.Screen,4_94_1,2023-10-31T17:50:59.135Z,,0,,,NaN,,,,,,false,,,,391560.8,391560.39999999997,,391559.89999999997,,391573.939,8,400,,,
break_continue,html.Screen,4_94_2,2023-10-31T17:50:59.136Z,,0,,,NaN,,,,,,false,,,,391561.50000000006,391561.3,,391561.00000000006,,391573.939,8,400,,,
sequence,flow.Sequence,4_94,2023-10-31T17:50:59.136Z,,0,,,3200.8609999999753,completion,,,,,false,,,,391561.8,391561.3,388343.789,388348.89999999997,388360.439,391573.939,8,400,,,
trial,html.Screen,4_95_0,2023-10-31T17:51:02.755Z,,0,2,,3605.8609999999753,response,ISIC_9302863.JPG,4,ISIC_0054151.JPG,ISIC_0054151.JPG,false,0,keypress(z),500,395180.2,395179.8,391557.289,391562.00000000006,391573.939,395187.044,8,400,46,,ISIC_9302863.JPG
break,html.Screen,4_95_1,2023-10-31T17:51:02.756Z,,0,,,NaN,,,,,,false,,,,395181.3,395181.00000000006,,395180.39999999997,,395187.044,8,400,,,
break_continue,html.Screen,4_95_2,2023-10-31T17:51:02.756Z,,0,,,NaN,,,,,,false,,,,395181.89999999997,395181.7,,395181.50000000006,,395187.044,8,400,,,
sequence,flow.Sequence,4_95,2023-10-31T17:51:02.757Z,,0,,,3607.7609999999986,completion,,,,,false,,,,395182.10000000003,395181.7,391557.289,391562.00000000006,391573.939,395187.044,8,400,,,
trial,html.Screen,4_96_0,2023-10-31T17:51:06.119Z,,0,2,,3357.255999999994,response,ISIC_0057362.JPG,5,ISIC_0683389.JPG,ISIC_0057362.JPG,false,1,keypress(m),500,398544.89999999997,398544.3,395170.394,395182.3,395187.044,398550.396,8,400,47,,ISIC_0683389.JPG
break,html.Screen,4_96_1,2023-10-31T17:51:06.121Z,,0,,,NaN,,,,,,false,,,,398546.50000000006,398546.00000000006,,398545.3,,398550.396,8,400,,,
break_continue,html.Screen,4_96_2,2023-10-31T17:51:06.122Z,,0,,,NaN,,,,,,false,,,,398547.39999999997,398547.00000000006,,398546.7,,398550.396,8,400,,,
sequence,flow.Sequence,4_96,2023-10-31T17:51:06.122Z,,0,,,3359.956000000064,completion,,,,,false,,,,398548.00000000006,398547.00000000006,395170.394,395182.3,395187.044,398550.396,8,400,,,
trial,html.Screen,4_97_0,2023-10-31T17:51:09.066Z,,0,2,,2940.204000000027,response,ISIC_1205826.JPG,4,ISIC_0027407.JPG,ISIC_0027407.JPG,false,0,keypress(z),500,401491.00000000006,401490.60000000003,398533.746,398548.2,398550.396,401514.149,8,400,48,,ISIC_1205826.JPG
break,html.Screen,4_97_1,2023-10-31T17:51:09.067Z,,0,,,NaN,,,,,,false,,,,401492.10000000003,401491.8,,401491.3,,401514.149,8,400,,,
break_continue,html.Screen,4_97_2,2023-10-31T17:51:09.068Z,,0,,,NaN,,,,,,false,,,,401492.89999999997,401492.60000000003,,401492.39999999997,,401514.149,8,400,,,
sequence,flow.Sequence,4_97,2023-10-31T17:51:09.068Z,,0,,,2942.204000000027,completion,,,,,false,,,,401493.60000000003,401492.60000000003,398533.746,398548.2,398550.396,401514.149,8,400,,,
trial,html.Screen,4_98_0,2023-10-31T17:51:11.999Z,,0,2,,2910.3510000000824,response,ISIC_0033166.JPG,5,ISIC_2410240.JPG,ISIC_2410240.JPG,false,0,keypress(z),500,404424.89999999997,404424.50000000006,401497.491,401494.00000000006,401514.149,404427.936,8,400,49,,ISIC_0033166.JPG
break,html.Screen,4_98_1,2023-10-31T17:51:12.001Z,,0,,,NaN,,,,,,false,,,,404426.3,404425.89999999997,,404425.10000000003,,404427.936,8,400,,,
break_continue,html.Screen,4_98_2,2023-10-31T17:51:12.002Z,,0,,,NaN,,,,,,false,,,,404427.10000000003,404426.89999999997,,404426.7,,404427.936,8,400,,,
sequence,flow.Sequence,4_98,2023-10-31T17:51:12.002Z,,0,,,2912.7509999999893,completion,,,,,false,,,,404427.89999999997,404426.89999999997,401497.491,401494.00000000006,401514.149,404427.936,8,400,,,
trial,html.Screen,4_99_0,2023-10-31T17:51:15.233Z,,0,2,,3230.5640000000712,response,ISIC_0014920.JPG,4,ISIC_1124434.JPG,ISIC_1124434.JPG,false,0,keypress(z),500,407658.8,407658.50000000006,404411.286,404428.3,404427.936,407674.735,8,400,50,,ISIC_0014920.JPG
break,html.Screen,4_99_1,2023-10-31T17:51:25.241Z,,0,,,10006.810999999987,timeout,,,,,false,,,,417666.00000000006,417664.896,407658.085,407659.00000000006,407674.735,417681.546,8,400,,,
break_continue,html.Screen,4_99_2,2023-10-31T17:51:27.029Z,,0,,,1694.853999999992,response,,,,,false,continue,keypress(Space),,419454.3,419376.39999999997,417664.896,417666.2,417681.546,419463.097,8,400,,,
sequence,flow.Sequence,4_99,2023-10-31T17:51:27.029Z,,0,,,14948.463999999978,completion,,,,,false,,,,419454.7,419376.39999999997,404411.286,404428.3,404427.936,419463.097,8,400,,,
trial,html.Screen,4_100_0,2023-10-31T17:51:29.681Z,,0,3,,2643.4030000000494,response,ISIC_0033166.JPG,5,ISIC_7460111.JPG,ISIC_7460111.JPG,false,0,keypress(z),500,422106.8,422106.50000000006,419446.447,419454.8,419463.097,422110.506,8,400,1,,ISIC_0033166.JPG
break,html.Screen,4_100_1,2023-10-31T17:51:29.683Z,,0,,,NaN,,,,,,false,,,,422108.10000000003,422107.7,,422107.10000000003,,422110.506,8,400,,,
break_continue,html.Screen,4_100_2,2023-10-31T17:51:29.683Z,,0,,,NaN,,,,,,false,,,,422108.89999999997,422108.7,,422108.39999999997,,422110.506,8,400,,,
sequence,flow.Sequence,4_100,2023-10-31T17:51:29.686Z,,0,,,2645.603000000003,completion,,,,,false,,,,422111.89999999997,422108.7,419446.447,419454.7,419463.097,422110.506,8,400,,,
trial,html.Screen,4_101_0,2023-10-31T17:51:36.282Z,,0,3,,6595.194000000018,response,ISIC_0072441.JPG,4,ISIC_0010171.JPG,ISIC_0010171.JPG,false,0,keypress(z),500,428707.00000000006,428705.7,422093.856,422112.10000000003,422110.506,428720.658,8,400,2,,ISIC_0072441.JPG
break,html.Screen,4_101_1,2023-10-31T17:51:36.284Z,,0,,,NaN,,,,,,false,,,,428709.10000000003,428708.39999999997,,428707.60000000003,,428720.658,8,400,,,
break_continue,html.Screen,4_101_2,2023-10-31T17:51:36.285Z,,0,,,NaN,,,,,,false,,,,428710.2,428709.7,,428709.39999999997,,428720.658,8,400,,,
sequence,flow.Sequence,4_101,2023-10-31T17:51:36.285Z,,0,,,6599.194000000018,completion,,,,,false,,,,428710.60000000003,428709.7,422093.856,422112.00000000006,422110.506,428720.658,8,400,,,
trial,html.Screen,4_102_0,2023-10-31T17:51:39.024Z,,0,3,,2728.042000000016,response,ISIC_0000287.JPG,4,ISIC_0068184.JPG,ISIC_0000287.JPG,false,1,keypress(m),500,431449.00000000006,431448.7,428704.008,428710.8,428720.658,431467.957,8,400,3,,ISIC_0068184.JPG
break,html.Screen,4_102_1,2023-10-31T17:51:39.025Z,,0,,,NaN,,,,,,false,,,,431450.2,431449.89999999997,,431449.3,,431467.957,8,400,,,
break_continue,html.Screen,4_102_2,2023-10-31T17:51:39.025Z,,0,,,NaN,,,,,,false,,,,431450.7,431450.50000000006,,431450.39999999997,,431467.957,8,400,,,
sequence,flow.Sequence,4_102,2023-10-31T17:51:39.026Z,,0,,,2729.8420000000624,completion,,,,,false,,,,431451.7,431450.50000000006,428704.008,428710.8,428720.658,431467.957,8,400,,,
trial,html.Screen,4_103_0,2023-10-31T17:51:42.132Z,,0,3,,3089.3429999999935,response,ISIC_1053427.JPG,5,ISIC_1037945.JPG,ISIC_1037945.JPG,false,0,keypress(z),500,434557.60000000003,434557.3,431451.3,431451.89999999997,431467.957,434564.897,8,400,4,,ISIC_1053427.JPG
break,html.Screen,4_103_1,2023-10-31T17:51:42.133Z,,0,,,NaN,,,,,,false,,,,434558.7,434558.39999999997,,434557.89999999997,,434564.897,8,400,,,
break_continue,html.Screen,4_103_2,2023-10-31T17:51:42.134Z,,0,,,NaN,,,,,,false,,,,434559.39999999997,434559.10000000003,,434559.00000000006,,434564.897,8,400,,,
sequence,flow.Sequence,4_103,2023-10-31T17:51:42.134Z,,0,,,3091.14300000004,completion,,,,,false,,,,434559.7,434559.10000000003,431451.3,431451.89999999997,431467.957,434564.897,8,400,,,
trial,html.Screen,4_104_0,2023-10-31T17:51:45.145Z,,0,3,,3004.8030000000144,response,ISIC_8790198.JPG,4,ISIC_0072412.JPG,ISIC_0072412.JPG,false,0,keypress(z),500,437570.00000000006,437569.7,434548.247,434559.89999999997,434564.897,437578.593,8,400,5,,ISIC_8790198.JPG
break,html.Screen,4_104_1,2023-10-31T17:51:45.146Z,,0,,,NaN,,,,,,false,,,,437571.00000000006,437570.8,,437570.2,,437578.593,8,400,,,
break_continue,html.Screen,4_104_2,2023-10-31T17:51:45.146Z,,0,,,NaN,,,,,,false,,,,437571.60000000003,437571.39999999997,,437571.3,,437578.593,8,400,,,
sequence,flow.Sequence,4_104,2023-10-31T17:51:45.146Z,,0,,,3006.502999999968,completion,,,,,false,,,,437571.8,437571.39999999997,434548.247,434559.89999999997,434564.897,437578.593,8,400,,,
trial,html.Screen,4_105_0,2023-10-31T17:51:48.221Z,,0,3,,3067.8069999999716,response,ISIC_0033318.JPG,5,ISIC_0070447.JPG,ISIC_0070447.JPG,false,0,keypress(z),500,440646.7,440646.39999999997,437561.943,437572.00000000006,437578.593,440658.891,8,400,6,,ISIC_0033318.JPG
break,html.Screen,4_105_1,2023-10-31T17:51:48.222Z,,0,,,NaN,,,,,,false,,,,440647.8,440647.50000000006,,440646.89999999997,,440658.891,8,400,,,
break_continue,html.Screen,4_105_2,2023-10-31T17:51:48.223Z,,0,,,NaN,,,,,,false,,,,440648.39999999997,440648.2,,440648.00000000006,,440658.891,8,400,,,
sequence,flow.Sequence,4_105,2023-10-31T17:51:48.223Z,,0,,,3069.607000000018,completion,,,,,false,,,,440648.7,440648.2,437561.943,437571.89999999997,437578.593,440658.891,8,400,,,
trial,html.Screen,4_106_0,2023-10-31T17:51:50.954Z,,0,3,,2719.609000000055,response,ISIC_0058255.JPG,5,ISIC_1470250.JPG,ISIC_1470250.JPG,false,0,keypress(z),500,443379.00000000006,443378.50000000006,440642.241,440648.8,440658.891,443389.532,8,400,7,,ISIC_0058255.JPG
break,html.Screen,4_106_1,2023-10-31T17:51:50.955Z,,0,,,NaN,,,,,,false,,,,443380.10000000003,443379.8,,443379.2,,443389.532,8,400,,,
break_continue,html.Screen,4_106_2,2023-10-31T17:51:50.955Z,,0,,,NaN,,,,,,false,,,,443380.60000000003,443380.39999999997,,443380.3,,443389.532,8,400,,,
sequence,flow.Sequence,4_106,2023-10-31T17:51:50.955Z,,0,,,2721.508999999962,completion,,,,,false,,,,443380.8,443380.39999999997,440642.241,440648.8,440658.891,443389.532,8,400,,,
trial,html.Screen,4_107_0,2023-10-31T17:51:54.057Z,,0,3,,3092.9680000000517,response,ISIC_0061265.JPG,5,ISIC_0056957.JPG,ISIC_0061265.JPG,false,1,keypress(m),500,446482.7,446482.50000000006,443372.882,443380.89999999997,443389.532,446486.48,8,400,8,,ISIC_0056957.JPG
break,html.Screen,4_107_1,2023-10-31T17:51:54.058Z,,0,,,NaN,,,,,,false,,,,446483.89999999997,446483.60000000003,,446482.89999999997,,446486.48,8,400,,,
break_continue,html.Screen,4_107_2,2023-10-31T17:51:54.059Z,,0,,,NaN,,,,,,false,,,,446484.39999999997,446484.3,,446484.00000000006,,446486.48,8,400,,,
sequence,flow.Sequence,4_107,2023-10-31T17:51:54.059Z,,0,,,3094.767999999982,completion,,,,,false,,,,446484.60000000003,446484.3,443372.882,443380.89999999997,443389.532,446486.48,8,400,,,
trial,html.Screen,4_108_0,2023-10-31T17:51:56.797Z,,0,3,,2735.820000000007,response,ISIC_9330527.JPG,5,ISIC_4574865.JPG,ISIC_4574865.JPG,false,0,keypress(z),500,449222.60000000003,449222.3,446469.83,446484.8,446486.48,449233.772,8,400,9,,ISIC_9330527.JPG
break,html.Screen,4_108_1,2023-10-31T17:51:56.798Z,,0,,,NaN,,,,,,false,,,,449223.7,449223.3,,449222.8,,449233.772,8,400,,,
break_continue,html.Screen,4_108_2,2023-10-31T17:51:56.800Z,,0,,,NaN,,,,,,false,,,,449225.10000000003,449224.10000000003,,449223.8,,449233.772,8,400,,,
sequence,flow.Sequence,4_108,2023-10-31T17:51:56.800Z,,0,,,2737.6200000000536,completion,,,,,false,,,,449225.50000000006,449224.10000000003,446469.83,446484.8,446486.48,449233.772,8,400,,,
trial,html.Screen,4_109_0,2023-10-31T17:51:59.401Z,,0,3,,2592.627999999968,response,ISIC_0013688.JPG,4,ISIC_0058432.JPG,ISIC_0058432.JPG,false,0,keypress(z),500,451826.7,451826.39999999997,449217.122,449225.60000000003,449233.772,451831.212,8,400,10,,ISIC_0013688.JPG
break,html.Screen,4_109_1,2023-10-31T17:51:59.402Z,,0,,,NaN,,,,,,false,,,,451827.89999999997,451827.60000000003,,451826.89999999997,,451831.212,8,400,,,
break_continue,html.Screen,4_109_2,2023-10-31T17:51:59.403Z,,0,,,NaN,,,,,,false,,,,451828.50000000006,451828.2,,451828.10000000003,,451831.212,8,400,,,
sequence,flow.Sequence,4_109,2023-10-31T17:51:59.403Z,,0,,,2594.4280000000144,completion,,,,,false,,,,451828.7,451828.2,449217.122,449225.50000000006,449233.772,451831.212,8,400,,,
trial,html.Screen,4_110_0,2023-10-31T17:52:02.137Z,,0,3,,2731.1879999999655,response,ISIC_9482842.JPG,5,ISIC_0005377.JPG,ISIC_0005377.JPG,false,0,keypress(z),500,454562.8,454562.39999999997,451814.562,451828.8,451831.212,454578.511,8,400,11,,ISIC_9482842.JPG
break,html.Screen,4_110_1,2023-10-31T17:52:02.139Z,,0,,,NaN,,,,,,false,,,,454563.89999999997,454563.7,,454563.10000000003,,454578.511,8,400,,,
break_continue,html.Screen,4_110_2,2023-10-31T17:52:02.139Z,,0,,,NaN,,,,,,false,,,,454564.60000000003,454564.3,,454564.10000000003,,454578.511,8,400,,,
sequence,flow.Sequence,4_110,2023-10-31T17:52:02.139Z,,0,,,2733.087999999989,completion,,,,,false,,,,454564.8,454564.3,451814.562,451828.8,451831.212,454578.511,8,400,,,
trial,html.Screen,4_111_0,2023-10-31T17:52:04.865Z,,0,3,,2711.8889999999665,response,ISIC_1372928.JPG,5,ISIC_0025755.JPG,ISIC_1372928.JPG,false,1,keypress(m),500,457290.8,457290.39999999997,454561.857,454564.89999999997,454578.511,457292.496,8,400,12,,ISIC_0025755.JPG
break,html.Screen,4_111_1,2023-10-31T17:52:04.867Z,,0,,,NaN,,,,,,false,,,,457292.3,457291.50000000006,,457291.2,,457292.496,8,400,,,
break_continue,html.Screen,4_111_2,2023-10-31T17:52:04.868Z,,0,,,NaN,,,,,,false,,,,457293.39999999997,457293.00000000006,,457292.50000000006,,457292.496,8,400,,,
sequence,flow.Sequence,4_111,2023-10-31T17:52:04.868Z,,0,,,2714.4890000000596,completion,,,,,false,,,,457293.7,457293.00000000006,454561.857,454564.8,454578.511,457292.496,8,400,,,
trial,html.Screen,4_112_0,2023-10-31T17:52:07.577Z,,0,3,,2710.0040000000736,response,ISIC_5358568.JPG,5,ISIC_2465895.JPG,ISIC_2465895.JPG,false,0,keypress(z),500,460002.8,460002.50000000006,457275.846,457293.89999999997,457292.496,460006.487,8,400,13,,ISIC_5358568.JPG
break,html.Screen,4_112_1,2023-10-31T17:52:07.579Z,,0,,,NaN,,,,,,false,,,,460004.00000000006,460003.60000000003,,460003.00000000006,,460006.487,8,400,,,
break_continue,html.Screen,4_112_2,2023-10-31T17:52:07.579Z,,0,,,NaN,,,,,,false,,,,460004.60000000003,460004.39999999997,,460004.10000000003,,460006.487,8,400,,,
sequence,flow.Sequence,4_112,2023-10-31T17:52:07.579Z,,0,,,2711.9039999999804,completion,,,,,false,,,,460004.8,460004.39999999997,457275.846,457293.8,457292.496,460006.487,8,400,,,
trial,html.Screen,4_113_0,2023-10-31T17:52:10.318Z,,0,3,,2736.3129999999655,response,ISIC_0029478.JPG,5,ISIC_2394181.JPG,ISIC_0029478.JPG,false,1,keypress(m),500,462743.60000000003,462742.8,459989.837,460005.00000000006,460006.487,462753.779,8,400,14,,ISIC_2394181.JPG
break,html.Screen,4_113_1,2023-10-31T17:52:10.320Z,,0,,,NaN,,,,,,false,,,,462745.3,462744.89999999997,,462744.10000000003,,462753.779,8,400,,,
break_continue,html.Screen,4_113_2,2023-10-31T17:52:10.320Z,,0,,,NaN,,,,,,false,,,,462745.89999999997,462745.7,,462745.50000000006,,462753.779,8,400,,,
sequence,flow.Sequence,4_113,2023-10-31T17:52:10.321Z,,0,,,2739.212999999989,completion,,,,,false,,,,462746.3,462745.7,459989.837,460004.89999999997,460006.487,462753.779,8,400,,,
trial,html.Screen,4_114_0,2023-10-31T17:52:13.297Z,,0,3,,2968.7210000000778,response,ISIC_0010061.JPG,5,ISIC_7333928.JPG,ISIC_0010061.JPG,false,1,keypress(m),500,465722.7,465722.50000000006,462737.129,462746.39999999997,462753.779,465734.175,8,400,15,,ISIC_7333928.JPG
break,html.Screen,4_114_1,2023-10-31T17:52:13.299Z,,0,,,NaN,,,,,,false,,,,465724.50000000006,465724.10000000003,,465723.10000000003,,465734.175,8,400,,,
break_continue,html.Screen,4_114_2,2023-10-31T17:52:13.300Z,,0,,,NaN,,,,,,false,,,,465725.60000000003,465724.89999999997,,465724.7,,465734.175,8,400,,,
sequence,flow.Sequence,4_114,2023-10-31T17:52:13.300Z,,0,,,2971.1209999999846,completion,,,,,false,,,,465725.89999999997,465724.89999999997,462737.129,462746.39999999997,462753.779,465734.175,8,400,,,
trial,html.Screen,4_115_0,2023-10-31T17:52:16.966Z,,0,3,,3657.4250000000466,response,ISIC_0029630.JPG,4,ISIC_0014270.JPG,ISIC_0029630.JPG,false,1,keypress(m),500,469391.89999999997,469391.60000000003,465717.525,465726.10000000003,465734.175,469397.231,8,400,16,,ISIC_0014270.JPG
break,html.Screen,4_115_1,2023-10-31T17:52:16.968Z,,0,,,NaN,,,,,,false,,,,469393.3,469392.89999999997,,469392.10000000003,,469397.231,8,400,,,
break_continue,html.Screen,4_115_2,2023-10-31T17:52:16.968Z,,0,,,NaN,,,,,,false,,,,469393.89999999997,469393.60000000003,,469393.50000000006,,469397.231,8,400,,,
sequence,flow.Sequence,4_115,2023-10-31T17:52:16.969Z,,0,,,3659.4250000000466,completion,,,,,false,,,,469394.10000000003,469393.60000000003,465717.525,465726.10000000003,465734.175,469397.231,8,400,,,
trial,html.Screen,4_116_0,2023-10-31T17:52:19.835Z,,0,3,,2862.668999999936,response,ISIC_9726155.JPG,4,ISIC_9109847.JPG,ISIC_9726155.JPG,false,1,keypress(m),500,472260.3,472259.89999999997,469380.581,469394.39999999997,469397.231,472277.732,8,400,17,,ISIC_9109847.JPG
break,html.Screen,4_116_1,2023-10-31T17:52:19.837Z,,0,,,NaN,,,,,,false,,,,472262.10000000003,472261.50000000006,,472260.7,,472277.732,8,400,,,
break_continue,html.Screen,4_116_2,2023-10-31T17:52:19.838Z,,0,,,NaN,,,,,,false,,,,472263.3,472262.8,,472262.50000000006,,472277.732,8,400,,,
sequence,flow.Sequence,4_116,2023-10-31T17:52:19.838Z,,0,,,2865.5689999999595,completion,,,,,false,,,,472263.89999999997,472262.8,469380.581,469394.3,469397.231,472277.732,8,400,,,
trial,html.Screen,4_117_0,2023-10-31T17:52:23.417Z,,0,3,,3564.667999999947,response,ISIC_0014026.JPG,5,ISIC_1794249.JPG,ISIC_1794249.JPG,false,0,keypress(z),500,475842.8,475842.39999999997,472261.075,472264.3,472277.732,475857.53,8,400,18,,ISIC_0014026.JPG
break,html.Screen,4_117_1,2023-10-31T17:52:23.422Z,,0,,,NaN,,,,,,false,,,,475847.2,475843.7,,475843.3,,475857.53,8,400,,,
break_continue,html.Screen,4_117_2,2023-10-31T17:52:23.422Z,,0,,,NaN,,,,,,false,,,,475848.00000000006,475847.7,,475847.39999999997,,475857.53,8,400,,,
sequence,flow.Sequence,4_117,2023-10-31T17:52:23.424Z,,0,,,3569.9679999999935,completion,,,,,false,,,,475849.2,475847.7,472261.075,472264.2,472277.732,475857.53,8,400,,,
trial,html.Screen,4_118_0,2023-10-31T17:52:26.610Z,,0,3,,3177.6699999999837,response,ISIC_0002119.JPG,4,ISIC_0028484.JPG,ISIC_0002119.JPG,false,1,keypress(m),500,479035.50000000006,479035.2,475840.88,475849.39999999997,475857.53,479037.728,8,400,19,,ISIC_0028484.JPG
break,html.Screen,4_118_1,2023-10-31T17:52:26.612Z,,0,,,NaN,,,,,,false,,,,479037.10000000003,479036.7,,479035.8,,479037.728,8,400,,,
break_continue,html.Screen,4_118_2,2023-10-31T17:52:26.613Z,,0,,,NaN,,,,,,false,,,,479038.00000000006,479037.60000000003,,479037.3,,479037.728,8,400,,,
sequence,flow.Sequence,4_118,2023-10-31T17:52:26.613Z,,0,,,3180.070000000007,completion,,,,,false,,,,479038.50000000006,479037.60000000003,475840.88,475849.39999999997,475857.53,479037.728,8,400,,,
trial,html.Screen,4_119_0,2023-10-31T17:52:29.361Z,,0,3,,2748.6719999999623,response,ISIC_0068166.JPG,8,ISIC_8634334.JPG,ISIC_0068166.JPG,false,1,keypress(m),500,481786.7,481786.39999999997,479021.078,479038.8,479037.728,481801.679,8,400,20,,ISIC_8634334.JPG
break,html.Screen,4_119_1,2023-10-31T17:52:29.362Z,,0,,,NaN,,,,,,false,,,,481787.8,481787.39999999997,,481787.00000000006,,481801.679,8,400,,,
break_continue,html.Screen,4_119_2,2023-10-31T17:52:29.363Z,,0,,,NaN,,,,,,false,,,,481788.39999999997,481788.10000000003,,481788.00000000006,,481801.679,8,400,,,
sequence,flow.Sequence,4_119,2023-10-31T17:52:29.363Z,,0,,,2750.372000000032,completion,,,,,false,,,,481788.7,481788.10000000003,479021.078,479038.7,479037.728,481801.679,8,400,,,
trial,html.Screen,4_120_0,2023-10-31T17:52:32.357Z,,0,3,,2980.7209999999614,response,ISIC_0054963.JPG,5,ISIC_0012063.JPG,ISIC_0054963.JPG,false,1,keypress(m),500,484782.89999999997,484782.39999999997,481785.021,481788.8,481801.679,484798.724,8,400,21,,ISIC_0012063.JPG
break,html.Screen,4_120_1,2023-10-31T17:52:32.359Z,,0,,,NaN,,,,,,false,,,,484784.7,484784.2,,484783.3,,484798.724,8,400,,,
break_continue,html.Screen,4_120_2,2023-10-31T17:52:32.360Z,,0,,,NaN,,,,,,false,,,,484785.50000000006,484785.10000000003,,484784.89999999997,,484798.724,8,400,,,
sequence,flow.Sequence,4_120,2023-10-31T17:52:32.361Z,,0,,,2983.421000000031,completion,,,,,false,,,,484786.3,484785.10000000003,481785.021,481788.8,481801.679,484798.724,8,400,,,
trial,html.Screen,4_121_0,2023-10-31T17:52:35.964Z,,0,3,,3590.3760000000475,response,ISIC_0071040.JPG,4,ISIC_0015109.JPG,ISIC_0071040.JPG,false,1,keypress(m),500,488389.50000000006,488389.10000000003,484782.067,484786.60000000003,484798.724,488395.172,8,400,22,,ISIC_0015109.JPG
break,html.Screen,4_121_1,2023-10-31T17:52:35.966Z,,0,,,NaN,,,,,,false,,,,488391.39999999997,488390.8,,488390.10000000003,,488395.172,8,400,,,
break_continue,html.Screen,4_121_2,2023-10-31T17:52:35.967Z,,0,,,NaN,,,,,,false,,,,488392.10000000003,488391.8,,488391.50000000006,,488395.172,8,400,,,
sequence,flow.Sequence,4_121,2023-10-31T17:52:35.967Z,,0,,,3593.076000000001,completion,,,,,false,,,,488392.60000000003,488391.8,484782.067,484786.50000000006,484798.724,488395.172,8,400,,,
trial,html.Screen,4_122_0,2023-10-31T17:52:41.705Z,,0,3,,5735.328000000038,response,ISIC_6128108.JPG,4,ISIC_0066378.JPG,ISIC_0066378.JPG,false,0,keypress(z),500,494130.7,494130.50000000006,488378.522,488393.10000000003,488395.172,494139.51,8,400,23,,ISIC_6128108.JPG
break,html.Screen,4_122_1,2023-10-31T17:52:41.707Z,,0,,,NaN,,,,,,false,,,,494132.2,494131.60000000003,,494131.00000000006,,494139.51,8,400,,,
break_continue,html.Screen,4_122_2,2023-10-31T17:52:41.708Z,,0,,,NaN,,,,,,false,,,,494132.89999999997,494132.7,,494132.50000000006,,494139.51,8,400,,,
sequence,flow.Sequence,4_122,2023-10-31T17:52:41.708Z,,0,,,5737.527999999991,completion,,,,,false,,,,494133.39999999997,494132.7,488378.522,488393.00000000006,488395.172,494139.51,8,400,,,
trial,html.Screen,4_123_0,2023-10-31T17:52:45.145Z,,0,3,,3430.8899999999558,response,ISIC_1460932.JPG,4,ISIC_9947369.JPG,ISIC_9947369.JPG,false,0,keypress(z),500,497570.7,497570.39999999997,494122.86,494133.60000000003,494139.51,497586.113,8,400,24,,ISIC_1460932.JPG
break,html.Screen,4_123_1,2023-10-31T17:52:45.146Z,,0,,,NaN,,,,,,false,,,,497572.00000000006,497571.60000000003,,497571.00000000006,,497586.113,8,400,,,
break_continue,html.Screen,4_123_2,2023-10-31T17:52:45.147Z,,0,,,NaN,,,,,,false,,,,497572.7,497572.39999999997,,497572.10000000003,,497586.113,8,400,,,
sequence,flow.Sequence,4_123,2023-10-31T17:52:45.148Z,,0,,,3432.8899999999558,completion,,,,,false,,,,497572.89999999997,497572.39999999997,494122.86,494133.50000000006,494139.51,497586.113,8,400,,,
trial,html.Screen,4_124_0,2023-10-31T17:52:49.757Z,,0,3,,4596.387000000046,response,ISIC_0071352.JPG,5,ISIC_3459981.JPG,ISIC_0071352.JPG,false,1,keypress(m),500,502182.7,502182.50000000006,497569.463,497573.2,497586.113,502198.241,8,400,25,,ISIC_3459981.JPG
break,html.Screen,4_124_1,2023-10-31T17:52:49.759Z,,0,,,NaN,,,,,,false,,,,502184.2,502183.8,,502183.10000000003,,502198.241,8,400,,,
break_continue,html.Screen,4_124_2,2023-10-31T17:52:49.759Z,,0,,,NaN,,,,,,false,,,,502184.89999999997,502184.7,,502184.39999999997,,502198.241,8,400,,,
sequence,flow.Sequence,4_124,2023-10-31T17:52:49.760Z,,0,,,4598.5869999999995,completion,,,,,false,,,,502185.10000000003,502184.7,497569.463,497573.10000000003,497586.113,502198.241,8,400,,,
trial,html.Screen,4_125_0,2023-10-31T17:52:54.370Z,,0,3,,4596.559000000008,response,ISIC_5046340.JPG,4,ISIC_7564545.JPG,ISIC_7564545.JPG,false,0,keypress(z),500,506795.2,506794.8,502181.591,502185.3,502198.241,506810.354,8,400,26,,ISIC_5046340.JPG
break,html.Screen,4_125_1,2023-10-31T17:52:54.371Z,,0,,,NaN,,,,,,false,,,,506796.60000000003,506796.2,,506795.39999999997,,506810.354,8,400,,,
break_continue,html.Screen,4_125_2,2023-10-31T17:52:54.372Z,,0,,,NaN,,,,,,false,,,,506797.3,506797.00000000006,,506796.8,,506810.354,8,400,,,
sequence,flow.Sequence,4_125,2023-10-31T17:52:54.372Z,,0,,,4598.759000000078,completion,,,,,false,,,,506797.7,506797.00000000006,502181.591,502185.3,502198.241,506810.354,8,400,,,
trial,html.Screen,4_126_0,2023-10-31T17:52:59.185Z,,0,3,,4800.146000000066,response,ISIC_4013189.JPG,4,ISIC_3230874.JPG,ISIC_3230874.JPG,false,0,keypress(z),500,511610.8,511610.50000000006,506793.704,506798.00000000006,506810.354,511622.278,8,400,27,,ISIC_4013189.JPG
break,html.Screen,4_126_1,2023-10-31T17:52:59.186Z,,0,,,NaN,,,,,,false,,,,511611.89999999997,511611.60000000003,,511611.00000000006,,511622.278,8,400,,,
break_continue,html.Screen,4_126_2,2023-10-31T17:52:59.188Z,,0,,,NaN,,,,,,false,,,,511613.3,511612.3,,511612.10000000003,,511622.278,8,400,,,
sequence,flow.Sequence,4_126,2023-10-31T17:52:59.188Z,,0,,,4801.945999999996,completion,,,,,false,,,,511613.8,511612.3,506793.704,506797.89999999997,506810.354,511622.278,8,400,,,
trial,html.Screen,4_127_0,2023-10-31T17:53:02.550Z,,0,3,,3353.021999999997,response,ISIC_0059423.JPG,5,ISIC_0056817.JPG,ISIC_0056817.JPG,false,0,keypress(z),500,514975.60000000003,514975.3,511605.628,511614.00000000006,511622.278,514985.636,8,400,28,,ISIC_0059423.JPG
break,html.Screen,4_127_1,2023-10-31T17:53:02.551Z,,0,,,NaN,,,,,,false,,,,514976.89999999997,514976.50000000006,,514975.89999999997,,514985.636,8,400,,,
break_continue,html.Screen,4_127_2,2023-10-31T17:53:02.552Z,,0,,,NaN,,,,,,false,,,,514977.60000000003,514977.39999999997,,514977.10000000003,,514985.636,8,400,,,
sequence,flow.Sequence,4_127,2023-10-31T17:53:02.552Z,,0,,,3355.121999999974,completion,,,,,false,,,,514977.89999999997,514977.39999999997,511605.628,511614.00000000006,511622.278,514985.636,8,400,,,
trial,html.Screen,4_128_0,2023-10-31T17:53:05.521Z,,0,3,,2960.8640000000596,response,ISIC_4208361.JPG,5,ISIC_0032558.JPG,ISIC_4208361.JPG,false,1,keypress(m),500,517946.8,517946.50000000006,514968.986,514978.10000000003,514985.636,517949.375,8,400,29,,ISIC_0032558.JPG
break,html.Screen,4_128_1,2023-10-31T17:53:05.522Z,,0,,,NaN,,,,,,false,,,,517948.00000000006,517947.50000000006,,517947.10000000003,,517949.375,8,400,,,
break_continue,html.Screen,4_128_2,2023-10-31T17:53:05.523Z,,0,,,NaN,,,,,,false,,,,517948.8,517948.39999999997,,517948.10000000003,,517949.375,8,400,,,
sequence,flow.Sequence,4_128,2023-10-31T17:53:05.524Z,,0,,,2962.7639999999665,completion,,,,,false,,,,517949.10000000003,517948.39999999997,514968.986,514978.10000000003,514985.636,517949.375,8,400,,,
trial,html.Screen,4_129_0,2023-10-31T17:53:08.630Z,,0,3,,3105.4249999999884,response,ISIC_0004352.JPG,4,ISIC_0029723.JPG,ISIC_0029723.JPG,false,0,keypress(z),500,521055.00000000006,521054.8,517932.725,517949.3,517949.375,521062.972,8,400,30,,ISIC_0004352.JPG
break,html.Screen,4_129_1,2023-10-31T17:53:08.631Z,,0,,,NaN,,,,,,false,,,,521056.2,521055.8,,521055.3,,521062.972,8,400,,,
break_continue,html.Screen,4_129_2,2023-10-31T17:53:08.631Z,,0,,,NaN,,,,,,false,,,,521056.8,521056.60000000003,,521056.39999999997,,521062.972,8,400,,,
sequence,flow.Sequence,4_129,2023-10-31T17:53:08.632Z,,0,,,3107.225000000035,completion,,,,,false,,,,521057.10000000003,521056.60000000003,517932.725,517949.2,517949.375,521062.972,8,400,,,
