sender,sender_type,sender_id,timestamp,meta,,blockNo,condition,duration,ended_on,img_left,img_reveal,img_right,loser,practice,response,response_action,selection_duration,time_commit,time_end,time_render,time_run,time_show,time_switch,total_blocks,total_trials,trialNo,url,winner
informed_consent,html.Screen,0,2023-09-15T21:53:19.971Z,"{""labjs_version"":""20.2.4"",""labjs_build"":{""flavor"":""production"",""commit"":""f5b4a49f956347addd546a832a3327688c2c0fef""},""location"":""https://run.pavlovia.org/MurrayBennett/melanoma-2afc/?participant=65096&platform=sona"",""userAgent"":""Mozilla/5.0 (Macintosh; Intel Mac OS X 10_15_7) AppleWebKit/537.36 (KHTML, like Gecko) Chrome/116.0.0.0 Safari/537.36"",""platform"":""MacIntel"",""language"":""en-US"",""locale"":""en-US"",""timeZone"":""America/Chicago"",""timezoneOffset"":300,""screen_width"":1440,""screen_height"":900,""scroll_width"":1440,""scroll_height"":735,""window_innerWidth"":1440,""window_innerHeight"":783,""devicePixelRatio"":2}",,,,5421.601000000373,response,,,,,,consent,click button,,7523.300000000745,7519.4000000003725,2081.133,2073.0999999996275,2097.799,7530.915,,,,"{""participant"":""65096"",""platform"":""sona""}",
Welcome,html.Screen,1,2023-09-15T21:53:21.586Z,,,,symmetry,1605.1849999996275,response,,,,,,continue,click button,,9138.300000000745,9136.099999999627,7514.249,7523.699999999255,7530.915,9147.517,,,,,
trial,html.Screen,2_0_0,2023-09-15T21:53:27.849Z,,0,0,,6252.682999999255,response,ISIC_6997061.JPG,,ISIC_0069348.JPG,ISIC_0069348.JPG,true,0,keypress(z),500,15400.800000000745,15400.199999999255,9130.851,9138.699999999255,9147.517,15414.721,1,6,1,,ISIC_6997061.JPG
sequence,flow.Sequence,2_0,2023-09-15T21:53:27.849Z,,0,,,6252.682999999255,completion,,,,,true,,,,15401.300000000745,15400.199999999255,9130.851,9138.599999999627,9147.517,15414.721,1,6,,,
trial,html.Screen,2_1_0,2023-09-15T21:53:31.507Z,,0,0,,3643.7790000000005,response,ISIC_0057368.JPG,,ISIC_0009529.JPG,ISIC_0057368.JPG,true,1,keypress(m),500,19058.900000000373,19058.5,15398.055,15401.5,15414.721,19064.575,1,6,2,,ISIC_0009529.JPG
sequence,flow.Sequence,2_1,2023-09-15T21:53:31.507Z,,0,,,3643.7790000000005,completion,,,,,true,,,,19059.199999999255,19058.5,15398.055,15401.5,15414.721,19064.575,1,6,,,
trial,html.Screen,2_2_0,2023-09-15T21:53:34.571Z,,0,0,,3058.2250000007443,response,ISIC_9758671.JPG,,ISIC_0064954.JPG,ISIC_9758671.JPG,true,1,keypress(m),500,22123.400000000373,22122.800000000745,19047.909,19059.300000000745,19064.575,22131.91,1,6,3,,ISIC_0064954.JPG
sequence,flow.Sequence,2_2,2023-09-15T21:53:34.571Z,,0,,,3058.2250000007443,completion,,,,,true,,,,22123.800000000745,22122.800000000745,19047.909,19059.300000000745,19064.575,22131.91,1,6,,,
trial,html.Screen,2_3_0,2023-09-15T21:53:37.667Z,,0,0,,3086.890000000745,response,ISIC_0005785.JPG,,ISIC_0000080.JPG,ISIC_0005785.JPG,true,1,keypress(m),500,25219.400000000373,25218.800000000745,22115.244,22124,22131.91,25231.786,1,6,4,,ISIC_0000080.JPG
sequence,flow.Sequence,2_3,2023-09-15T21:53:37.667Z,,0,,,3086.890000000745,completion,,,,,true,,,,25219.900000000373,25218.800000000745,22115.244,22124,22131.91,25231.786,1,6,,,
trial,html.Screen,2_4_0,2023-09-15T21:53:40.373Z,,0,0,,2693.8139999996274,response,ISIC_7944028.JPG,,ISIC_5390060.JPG,ISIC_5390060.JPG,true,0,keypress(z),500,27926.099999999627,27925.599999999627,25215.12,25220.199999999255,25231.786,27931.678,1,6,5,,ISIC_7944028.JPG
sequence,flow.Sequence,2_4,2023-09-15T21:53:40.374Z,,0,,,2693.8139999996274,completion,,,,,true,,,,27926.599999999627,27925.599999999627,25215.12,25220.099999999627,25231.786,27931.678,1,6,,,
trial,html.Screen,2_5_0,2023-09-15T21:53:43.274Z,,0,0,,2895.2220000003726,response,ISIC_0010188.JPG,,ISIC_0794216.JPG,ISIC_0010188.JPG,true,1,keypress(m),500,30827.400000000373,30826.900000000373,27915.012,27926.800000000745,27931.678,30831.562,1,6,6,,ISIC_0794216.JPG
sequence,flow.Sequence,2_5,2023-09-15T21:53:43.275Z,,0,,,2895.2220000003726,completion,,,,,true,,,,30827.800000000745,30826.900000000373,27915.012,27926.699999999255,27931.678,30831.562,1,6,,,
loop,flow.Loop,2,2023-09-15T21:53:43.275Z,,,,,21679.383000000373,completion,,,,,true,,,,30828.099999999627,30826.900000000373,9130.851,9138.5,9147.517,30831.562,1,6,,,
exp_instructions,html.Screen,3,2023-09-15T21:53:47.078Z,,,,,3796.7380000007433,response,,,,,,continue,keypress(Space),,34631.199999999255,34628.300000000745,30814.896,30828.199999999255,30831.562,34632.239,,,,,
trial,html.Screen,4_0_0,2023-09-15T21:53:50.606Z,,0,1,,3526.4609999992535,response,ISIC_0033959.JPG,6,ISIC_0011210.JPG,ISIC_0033959.JPG,false,1,keypress(m),500,38159.199999999255,38158.699999999255,34615.573,34631.59999999963,34632.239,38165.431,8,400,1,,ISIC_0011210.JPG
break,html.Screen,4_0_1,2023-09-15T21:53:50.607Z,,0,,,NaN,,,,,,false,,,,38160.5,38160.199999999255,,38159.5,,38165.431,8,400,,,
break_continue,html.Screen,4_0_2,2023-09-15T21:53:50.608Z,,0,,,NaN,,,,,,false,,,,38161,38160.90000000037,,38160.699999999255,,38165.431,8,400,,,
sequence,flow.Sequence,4_0,2023-09-15T21:53:50.608Z,,0,,,3528.661000000371,completion,,,,,false,,,,38161.199999999255,38160.90000000037,34615.573,34631.59999999963,34632.239,38165.431,8,400,,,
trial,html.Screen,4_1_0,2023-09-15T21:53:55.291Z,,0,1,,4678.668999999631,response,ISIC_0059905.JPG,6,ISIC_0046647.JPG,ISIC_0046647.JPG,false,0,keypress(z),500,42844.5,42844.09999999963,38148.765,38161.300000000745,38165.431,42849.489,8,400,2,,ISIC_0059905.JPG
break,html.Screen,4_1_1,2023-09-15T21:53:55.292Z,,0,,,NaN,,,,,,false,,,,42845.699999999255,42845.40000000037,,42844.90000000037,,42849.489,8,400,,,
break_continue,html.Screen,4_1_2,2023-09-15T21:53:55.292Z,,0,,,NaN,,,,,,false,,,,42846,42845.90000000037,,42845.800000000745,,42849.489,8,400,,,
sequence,flow.Sequence,4_1,2023-09-15T21:53:55.293Z,,0,,,4680.469000000376,completion,,,,,false,,,,42846.199999999255,42845.90000000037,38148.765,38161.300000000745,38165.431,42849.489,8,400,,,
trial,html.Screen,4_2_0,2023-09-15T21:53:58.080Z,,0,1,,2783.911000000371,response,ISIC_3928910.JPG,9,ISIC_0070250.JPG,ISIC_3928910.JPG,false,1,keypress(m),500,45633.800000000745,45633.40000000037,42832.823,42846.40000000037,42849.489,45649.377,8,400,3,,ISIC_0070250.JPG
break,html.Screen,4_2_1,2023-09-15T21:53:58.081Z,,0,,,NaN,,,,,,false,,,,45634.800000000745,45634.59999999963,,45634,,45649.377,8,400,,,
break_continue,html.Screen,4_2_2,2023-09-15T21:53:58.081Z,,0,,,NaN,,,,,,false,,,,45635.199999999255,45635.09999999963,,45635,,45649.377,8,400,,,
sequence,flow.Sequence,4_2,2023-09-15T21:53:58.082Z,,0,,,2785.610999999626,completion,,,,,false,,,,45635.40000000037,45635.09999999963,42832.823,42846.300000000745,42849.489,45649.377,8,400,,,
trial,html.Screen,4_3_0,2023-09-15T21:54:01.656Z,,0,1,,3560.023000000372,response,ISIC_3501997.JPG,6,ISIC_0072582.JPG,ISIC_0072582.JPG,false,0,keypress(z),500,49209.800000000745,49209.40000000037,45632.711,45635.59999999963,45649.377,49215.901,8,400,4,,ISIC_3501997.JPG
break,html.Screen,4_3_1,2023-09-15T21:54:01.657Z,,0,,,NaN,,,,,,false,,,,49210.800000000745,49210.59999999963,,49210.199999999255,,49215.901,8,400,,,
break_continue,html.Screen,4_3_2,2023-09-15T21:54:01.657Z,,0,,,NaN,,,,,,false,,,,49211.199999999255,49211.09999999963,,49210.90000000037,,49215.901,8,400,,,
sequence,flow.Sequence,4_3,2023-09-15T21:54:01.657Z,,0,,,3561.722999999627,completion,,,,,false,,,,49211.40000000037,49211.09999999963,45632.711,45635.5,45649.377,49215.901,8,400,,,
trial,html.Screen,4_4_0,2023-09-15T21:54:05.246Z,,0,1,,3583.6989999996295,response,ISIC_9001948.JPG,7,ISIC_0011757.JPG,ISIC_0011757.JPG,false,0,keypress(z),500,52800.199999999255,52799.59999999963,49199.235,49211.5,49215.901,52816.546,8,400,5,,ISIC_9001948.JPG
break,html.Screen,4_4_1,2023-09-15T21:54:05.247Z,,0,,,NaN,,,,,,false,,,,52801.09999999963,52800.90000000037,,52800.40000000037,,52816.546,8,400,,,
break_continue,html.Screen,4_4_2,2023-09-15T21:54:05.247Z,,0,,,NaN,,,,,,false,,,,52801.40000000037,52801.300000000745,,52801.199999999255,,52816.546,8,400,,,
sequence,flow.Sequence,4_4,2023-09-15T21:54:05.247Z,,0,,,3585.399000000747,completion,,,,,false,,,,52801.59999999963,52801.300000000745,49199.235,49211.5,49215.901,52816.546,8,400,,,
trial,html.Screen,4_5_0,2023-09-15T21:54:08.082Z,,0,1,,2819.153999999253,response,ISIC_5037784.JPG,8,ISIC_0027356.JPG,ISIC_0027356.JPG,false,0,keypress(z),500,55636.09999999963,55635.699999999255,52799.88,52801.699999999255,52816.546,55649.766,8,400,6,,ISIC_5037784.JPG
break,html.Screen,4_5_1,2023-09-15T21:54:08.083Z,,0,,,NaN,,,,,,false,,,,55637.09999999963,55637,,55636.5,,55649.766,8,400,,,
break_continue,html.Screen,4_5_2,2023-09-15T21:54:08.083Z,,0,,,NaN,,,,,,false,,,,55637.59999999963,55637.40000000037,,55637.300000000745,,55649.766,8,400,,,
sequence,flow.Sequence,4_5,2023-09-15T21:54:08.084Z,,0,,,2820.8540000003704,completion,,,,,false,,,,55637.90000000037,55637.40000000037,52799.88,52801.699999999255,52816.546,55649.766,8,400,,,
trial,html.Screen,4_6_0,2023-09-15T21:54:10.946Z,,0,1,,2850.4339999992517,response,ISIC_0068012.JPG,7,ISIC_7415335.JPG,ISIC_0068012.JPG,false,1,keypress(m),500,58500.699999999255,58500.199999999255,55633.1,55638.09999999963,55649.766,58516.318,8,400,7,,ISIC_7415335.JPG
break,html.Screen,4_6_1,2023-09-15T21:54:10.947Z,,0,,,NaN,,,,,,false,,,,58501.699999999255,58501.40000000037,,58501,,58516.318,8,400,,,
break_continue,html.Screen,4_6_2,2023-09-15T21:54:10.948Z,,0,,,NaN,,,,,,false,,,,58502,58501.90000000037,,58501.800000000745,,58516.318,8,400,,,
sequence,flow.Sequence,4_6,2023-09-15T21:54:10.948Z,,0,,,2852.1340000003693,completion,,,,,false,,,,58502.199999999255,58501.90000000037,55633.1,55638,55649.766,58516.318,8,400,,,
trial,html.Screen,4_7_0,2023-09-15T21:54:14.679Z,,0,1,,3716.781999999628,response,ISIC_0069698.JPG,7,ISIC_6640686.JPG,ISIC_6640686.JPG,false,0,keypress(z),500,62233.5,62233.09999999963,58499.652,58502.300000000745,58516.318,62249.502,8,400,8,,ISIC_0069698.JPG
break,html.Screen,4_7_1,2023-09-15T21:54:14.680Z,,0,,,NaN,,,,,,false,,,,62234.59999999963,62234.300000000745,,62233.800000000745,,62249.502,8,400,,,
break_continue,html.Screen,4_7_2,2023-09-15T21:54:14.680Z,,0,,,NaN,,,,,,false,,,,62234.90000000037,62234.800000000745,,62234.59999999963,,62249.502,8,400,,,
sequence,flow.Sequence,4_7,2023-09-15T21:54:14.680Z,,0,,,3718.4820000007458,completion,,,,,false,,,,62235,62234.800000000745,58499.652,58502.300000000745,58516.318,62249.502,8,400,,,
trial,html.Screen,4_8_0,2023-09-15T21:54:18.004Z,,0,1,,3309.1979999992545,response,ISIC_0033204.JPG,6,ISIC_0068223.JPG,ISIC_0068223.JPG,false,0,keypress(z),500,65559.09999999963,65558.69999999925,62232.836,62235.199999999255,62249.502,65583.494,8,400,9,,ISIC_0033204.JPG
break,html.Screen,4_8_1,2023-09-15T21:54:18.005Z,,0,,,NaN,,,,,,false,,,,65560.19999999925,65559.90000000037,,65559.40000000037,,65583.494,8,400,,,
break_continue,html.Screen,4_8_2,2023-09-15T21:54:18.006Z,,0,,,NaN,,,,,,false,,,,65560.5,65560.5,,65560.30000000075,,65583.494,8,400,,,
sequence,flow.Sequence,4_8,2023-09-15T21:54:18.006Z,,0,,,3310.9979999999996,completion,,,,,false,,,,65560.69999999925,65560.5,62232.836,62235.199999999255,62249.502,65583.494,8,400,,,
trial,html.Screen,4_9_0,2023-09-15T21:54:21.606Z,,0,1,,3576.6059999996214,response,ISIC_0014160.JPG,7,ISIC_0340453.JPG,ISIC_0014160.JPG,false,1,keypress(m),500,69160.59999999963,69160.09999999963,65566.828,65560.90000000037,65583.494,69166.684,8,400,10,,ISIC_0340453.JPG
break,html.Screen,4_9_1,2023-09-15T21:54:21.607Z,,0,,,NaN,,,,,,false,,,,69161.59999999963,69161.40000000037,,69160.90000000037,,69166.684,8,400,,,
break_continue,html.Screen,4_9_2,2023-09-15T21:54:21.607Z,,0,,,NaN,,,,,,false,,,,69162,69161.90000000037,,69161.80000000075,,69166.684,8,400,,,
sequence,flow.Sequence,4_9,2023-09-15T21:54:21.607Z,,0,,,3578.4060000003665,completion,,,,,false,,,,69162.19999999925,69161.90000000037,65566.828,65560.80000000075,65583.494,69166.684,8,400,,,
trial,html.Screen,4_10_0,2023-09-15T21:54:24.554Z,,0,1,,2942.2160000003787,response,ISIC_1387456.JPG,7,ISIC_0027061.JPG,ISIC_1387456.JPG,false,1,keypress(m),500,72109.40000000037,72108.90000000037,69150.018,69162.30000000075,69166.684,72133.232,8,400,11,,ISIC_0027061.JPG
break,html.Screen,4_10_1,2023-09-15T21:54:24.555Z,,0,,,NaN,,,,,,false,,,,72110.30000000075,72110.09999999963,,72109.69999999925,,72133.232,8,400,,,
break_continue,html.Screen,4_10_2,2023-09-15T21:54:24.556Z,,0,,,NaN,,,,,,false,,,,72110.69999999925,72110.5,,72110.40000000037,,72133.232,8,400,,,
sequence,flow.Sequence,4_10,2023-09-15T21:54:24.556Z,,0,,,2943.816000000006,completion,,,,,false,,,,72110.80000000075,72110.5,69150.018,69162.19999999925,69166.684,72133.232,8,400,,,
trial,html.Screen,4_11_0,2023-09-15T21:54:27.440Z,,0,1,,2861.4679999992513,response,ISIC_2415803.JPG,6,ISIC_3505339.JPG,ISIC_2415803.JPG,false,1,keypress(m),500,74995.19999999925,74994.69999999925,72116.566,72111,72133.232,75000.641,8,400,12,,ISIC_3505339.JPG
break,html.Screen,4_11_1,2023-09-15T21:54:27.441Z,,0,,,NaN,,,,,,false,,,,74996,74995.90000000037,,74995.40000000037,,75000.641,8,400,,,
break_continue,html.Screen,4_11_2,2023-09-15T21:54:27.441Z,,0,,,NaN,,,,,,false,,,,74996.40000000037,74996.30000000075,,74996.19999999925,,75000.641,8,400,,,
sequence,flow.Sequence,4_11,2023-09-15T21:54:27.441Z,,0,,,2863.0680000007414,completion,,,,,false,,,,74996.59999999963,74996.30000000075,72116.566,72110.90000000037,72133.232,75000.641,8,400,,,
trial,html.Screen,4_12_0,2023-09-15T21:54:30.580Z,,0,1,,3134.159000000742,response,ISIC_2867416.JPG,9,ISIC_2616327.JPG,ISIC_2616327.JPG,false,0,keypress(z),500,78135.30000000075,78134.80000000075,74983.975,74996.69999999925,75000.641,78150.515,8,400,13,,ISIC_2867416.JPG
break,html.Screen,4_12_1,2023-09-15T21:54:30.581Z,,0,,,NaN,,,,,,false,,,,78136.30000000075,78136.09999999963,,78135.59999999963,,78150.515,8,400,,,
break_continue,html.Screen,4_12_2,2023-09-15T21:54:30.581Z,,0,,,NaN,,,,,,false,,,,78136.69999999925,78136.59999999963,,78136.40000000037,,78150.515,8,400,,,
sequence,flow.Sequence,4_12,2023-09-15T21:54:30.581Z,,0,,,3135.958999999624,completion,,,,,false,,,,78136.80000000075,78136.59999999963,74983.975,74996.69999999925,75000.641,78150.515,8,400,,,
trial,html.Screen,4_13_0,2023-09-15T21:54:33.209Z,,0,1,,2613.1849999992555,response,ISIC_0026086.JPG,8,ISIC_2203247.JPG,ISIC_0026086.JPG,false,1,keypress(m),500,80764.09999999963,80763.69999999925,78133.849,78137,78150.515,80767.077,8,400,14,,ISIC_2203247.JPG
break,html.Screen,4_13_1,2023-09-15T21:54:33.209Z,,0,,,NaN,,,,,,false,,,,80765,80764.80000000075,,80764.40000000037,,80767.077,8,400,,,
break_continue,html.Screen,4_13_2,2023-09-15T21:54:33.210Z,,0,,,NaN,,,,,,false,,,,80765.40000000037,80765.30000000075,,80765.19999999925,,80767.077,8,400,,,
sequence,flow.Sequence,4_13,2023-09-15T21:54:33.210Z,,0,,,2614.7850000007456,completion,,,,,false,,,,80765.59999999963,80765.30000000075,78133.849,78136.90000000037,78150.515,80767.077,8,400,,,
trial,html.Screen,4_14_0,2023-09-15T21:54:35.980Z,,0,1,,2767.7230000007403,response,ISIC_0016082.JPG,8,ISIC_0055241.JPG,ISIC_0055241.JPG,false,0,keypress(z),500,83535.19999999925,83534.80000000075,80750.411,80765.69999999925,80767.077,83550.299,8,400,15,,ISIC_0016082.JPG
break,html.Screen,4_14_1,2023-09-15T21:54:35.981Z,,0,,,NaN,,,,,,false,,,,83536.09999999963,83536,,83535.5,,83550.299,8,400,,,
break_continue,html.Screen,4_14_2,2023-09-15T21:54:35.981Z,,0,,,NaN,,,,,,false,,,,83536.59999999963,83536.40000000037,,83536.30000000075,,83550.299,8,400,,,
sequence,flow.Sequence,4_14,2023-09-15T21:54:35.981Z,,0,,,2769.3230000003678,completion,,,,,false,,,,83536.69999999925,83536.40000000037,80750.411,80765.69999999925,80767.077,83550.299,8,400,,,
trial,html.Screen,4_15_0,2023-09-15T21:54:39.665Z,,0,1,,3670.3009999996284,response,ISIC_6741865.JPG,6,ISIC_0058909.JPG,ISIC_6741865.JPG,false,1,keypress(m),500,87221,87220.59999999963,83533.633,83536.80000000075,83550.299,87234.31,8,400,16,,ISIC_0058909.JPG
break,html.Screen,4_15_1,2023-09-15T21:54:39.666Z,,0,,,NaN,,,,,,false,,,,87221.90000000037,87221.80000000075,,87221.30000000075,,87234.31,8,400,,,
break_continue,html.Screen,4_15_2,2023-09-15T21:54:39.667Z,,0,,,NaN,,,,,,false,,,,87222.40000000037,87222.30000000075,,87222.09999999963,,87234.31,8,400,,,
sequence,flow.Sequence,4_15,2023-09-15T21:54:39.667Z,,0,,,3672.001000000746,completion,,,,,false,,,,87222.5,87222.30000000075,83533.633,83536.69999999925,83550.299,87234.31,8,400,,,
trial,html.Screen,4_16_0,2023-09-15T21:54:42.487Z,,0,1,,2807.6900000000023,response,ISIC_3530422.JPG,8,ISIC_7137773.JPG,ISIC_3530422.JPG,false,1,keypress(m),500,90042.5,90042,87217.644,87222.69999999925,87234.31,90050.864,8,400,17,,ISIC_7137773.JPG
break,html.Screen,4_16_1,2023-09-15T21:54:42.487Z,,0,,,NaN,,,,,,false,,,,90043.40000000037,90043.19999999925,,90042.80000000075,,90050.864,8,400,,,
break_continue,html.Screen,4_16_2,2023-09-15T21:54:42.488Z,,0,,,NaN,,,,,,false,,,,90043.90000000037,90043.69999999925,,90043.59999999963,,90050.864,8,400,,,
sequence,flow.Sequence,4_16,2023-09-15T21:54:42.488Z,,0,,,2809.3899999992573,completion,,,,,false,,,,90044,90043.69999999925,87217.644,87222.59999999963,87234.31,90050.864,8,400,,,
trial,html.Screen,4_17_0,2023-09-15T21:54:48.459Z,,0,1,,5963.936000000744,response,ISIC_0061972.JPG,7,ISIC_0012150.JPG,ISIC_0061972.JPG,false,1,keypress(m),500,96015.19999999925,96014.80000000075,90034.198,90044.19999999925,90050.864,96018.236,8,400,18,,ISIC_0012150.JPG
break,html.Screen,4_17_1,2023-09-15T21:54:48.460Z,,0,,,NaN,,,,,,false,,,,96016.19999999925,96016.09999999963,,96015.59999999963,,96018.236,8,400,,,
break_continue,html.Screen,4_17_2,2023-09-15T21:54:48.460Z,,0,,,NaN,,,,,,false,,,,96016.59999999963,96016.5,,96016.30000000075,,96018.236,8,400,,,
sequence,flow.Sequence,4_17,2023-09-15T21:54:48.460Z,,0,,,5965.635999999999,completion,,,,,false,,,,96016.80000000075,96016.5,90034.198,90044.19999999925,90050.864,96018.236,8,400,,,
trial,html.Screen,4_18_0,2023-09-15T21:54:51.095Z,,0,1,,2633.164000000368,response,ISIC_0028764.JPG,8,ISIC_7572137.JPG,ISIC_0028764.JPG,false,1,keypress(m),500,98651.80000000075,98651.40000000037,96001.57,96016.90000000037,96018.236,98668.13,8,400,19,,ISIC_7572137.JPG
break,html.Screen,4_18_1,2023-09-15T21:54:51.096Z,,0,,,NaN,,,,,,false,,,,98652.59999999963,98652.40000000037,,98652,,98668.13,8,400,,,
break_continue,html.Screen,4_18_2,2023-09-15T21:54:51.096Z,,0,,,NaN,,,,,,false,,,,98652.80000000075,98652.80000000075,,98652.69999999925,,98668.13,8,400,,,
sequence,flow.Sequence,4_18,2023-09-15T21:54:51.096Z,,0,,,2634.5640000007406,completion,,,,,false,,,,98652.90000000037,98652.80000000075,96001.57,96016.80000000075,96018.236,98668.13,8,400,,,
trial,html.Screen,4_19_0,2023-09-15T21:54:54.012Z,,0,1,,2899.8699999999953,response,ISIC_0014844.JPG,8,ISIC_0028379.JPG,ISIC_0014844.JPG,false,1,keypress(m),500,101568.40000000037,101568,98651.464,98653,98668.13,101584.68,8,400,20,,ISIC_0028379.JPG
break,html.Screen,4_19_1,2023-09-15T21:54:54.013Z,,0,,,NaN,,,,,,false,,,,101569.5,101569.30000000075,,101568.69999999925,,101584.68,8,400,,,
break_continue,html.Screen,4_19_2,2023-09-15T21:54:54.013Z,,0,,,NaN,,,,,,false,,,,101569.90000000037,101569.69999999925,,101569.59999999963,,101584.68,8,400,,,
sequence,flow.Sequence,4_19,2023-09-15T21:54:54.013Z,,0,,,2901.5699999992503,completion,,,,,false,,,,101570,101569.69999999925,98651.464,98653,98668.13,101584.68,8,400,,,
trial,html.Screen,4_20_0,2023-09-15T21:54:56.961Z,,0,1,,2932.9199999996345,response,ISIC_6423860.JPG,9,ISIC_5048571.JPG,ISIC_5048571.JPG,false,0,keypress(z),500,104518.09999999963,104517.59999999963,101568.014,101570.19999999925,101584.68,104534.562,8,400,21,,ISIC_6423860.JPG
break,html.Screen,4_20_1,2023-09-15T21:54:56.962Z,,0,,,NaN,,,,,,false,,,,104519.09999999963,104518.90000000037,,104518.40000000037,,104534.562,8,400,,,
break_continue,html.Screen,4_20_2,2023-09-15T21:54:56.963Z,,0,,,NaN,,,,,,false,,,,104519.5,104519.40000000037,,104519.30000000075,,104534.562,8,400,,,
sequence,flow.Sequence,4_20,2023-09-15T21:54:56.963Z,,0,,,2934.7200000003795,completion,,,,,false,,,,104519.80000000075,104519.40000000037,101568.014,101570.09999999963,101584.68,104534.562,8,400,,,
trial,html.Screen,4_21_0,2023-09-15T21:54:59.664Z,,0,1,,2685.4379999999946,response,ISIC_0014826.JPG,6,ISIC_0000551.JPG,ISIC_0000551.JPG,false,0,keypress(z),500,107220.5,107220,104517.896,104519.90000000037,104534.562,107235.254,8,400,22,,ISIC_0014826.JPG
break,html.Screen,4_21_1,2023-09-15T21:54:59.665Z,,0,,,NaN,,,,,,false,,,,107221.5,107221.19999999925,,107220.80000000075,,107235.254,8,400,,,
break_continue,html.Screen,4_21_2,2023-09-15T21:54:59.665Z,,0,,,NaN,,,,,,false,,,,107221.90000000037,107221.69999999925,,107221.59999999963,,107235.254,8,400,,,
sequence,flow.Sequence,4_21,2023-09-15T21:54:59.665Z,,0,,,2687.1379999992496,completion,,,,,false,,,,107222.09999999963,107221.69999999925,104517.896,104519.90000000037,104534.562,107235.254,8,400,,,
trial,html.Screen,4_22_0,2023-09-15T21:55:02.353Z,,0,1,,2674.245999999999,response,ISIC_2054180.JPG,9,ISIC_0055147.JPG,ISIC_2054180.JPG,false,1,keypress(m),500,109910,109909.5,107218.588,107222.30000000075,107235.254,109918.48,8,400,23,,ISIC_0055147.JPG
break,html.Screen,4_22_1,2023-09-15T21:55:02.354Z,,0,,,NaN,,,,,,false,,,,109911,109910.80000000075,,109910.30000000075,,109918.48,8,400,,,
break_continue,html.Screen,4_22_2,2023-09-15T21:55:02.354Z,,0,,,NaN,,,,,,false,,,,109911.40000000037,109911.19999999925,,109911.19999999925,,109918.48,8,400,,,
sequence,flow.Sequence,4_22,2023-09-15T21:55:02.355Z,,0,,,2675.945999999254,completion,,,,,false,,,,109911.5,109911.19999999925,107218.588,107222.19999999925,107235.254,109918.48,8,400,,,
trial,html.Screen,4_23_0,2023-09-15T21:55:05.052Z,,0,1,,2690.4200000003766,response,ISIC_0026694.JPG,7,ISIC_0033759.JPG,ISIC_0026694.JPG,false,1,keypress(m),500,112609.40000000037,112608.90000000037,109901.814,109911.69999999925,109918.48,112618.372,8,400,24,,ISIC_0033759.JPG
break,html.Screen,4_23_1,2023-09-15T21:55:05.053Z,,0,,,NaN,,,,,,false,,,,112610.5,112610.19999999925,,112609.69999999925,,112618.372,8,400,,,
break_continue,html.Screen,4_23_2,2023-09-15T21:55:05.054Z,,0,,,NaN,,,,,,false,,,,112610.80000000075,112610.69999999925,,112610.59999999963,,112618.372,8,400,,,
sequence,flow.Sequence,4_23,2023-09-15T21:55:05.054Z,,0,,,2692.219999999259,completion,,,,,false,,,,112610.90000000037,112610.69999999925,109901.814,109911.69999999925,109918.48,112618.372,8,400,,,
trial,html.Screen,4_24_0,2023-09-15T21:55:07.687Z,,0,1,,2625.127999999997,response,ISIC_0026506.JPG,6,ISIC_9101441.JPG,ISIC_9101441.JPG,false,0,keypress(z),500,115243.90000000037,115243.5,112601.706,112611.09999999963,112618.372,115251.6,8,400,25,,ISIC_0026506.JPG
break,html.Screen,4_24_1,2023-09-15T21:55:07.688Z,,0,,,NaN,,,,,,false,,,,115244.90000000037,115244.80000000075,,115244.30000000075,,115251.6,8,400,,,
break_continue,html.Screen,4_24_2,2023-09-15T21:55:07.688Z,,0,,,NaN,,,,,,false,,,,115245.30000000075,115245.19999999925,,115245.09999999963,,115251.6,8,400,,,
sequence,flow.Sequence,4_24,2023-09-15T21:55:07.688Z,,0,,,2626.827999999252,completion,,,,,false,,,,115245.5,115245.19999999925,112601.706,112611,112618.372,115251.6,8,400,,,
trial,html.Screen,4_25_0,2023-09-15T21:55:10.493Z,,0,1,,2798.4999999996217,response,ISIC_0054134.JPG,8,ISIC_0034170.JPG,ISIC_0034170.JPG,false,0,keypress(z),500,118050.59999999963,118050.09999999963,115234.934,115245.69999999925,115251.6,118052.299,8,400,26,,ISIC_0054134.JPG
break,html.Screen,4_25_1,2023-09-15T21:55:10.494Z,,0,,,NaN,,,,,,false,,,,118051.5,118051.30000000075,,118050.90000000037,,118052.299,8,400,,,
break_continue,html.Screen,4_25_2,2023-09-15T21:55:10.495Z,,0,,,NaN,,,,,,false,,,,118051.90000000037,118051.80000000075,,118051.69999999925,,118052.299,8,400,,,
sequence,flow.Sequence,4_25,2023-09-15T21:55:10.495Z,,0,,,2800.2000000007392,completion,,,,,false,,,,118052.09999999963,118051.80000000075,115234.934,115245.59999999963,115251.6,118052.299,8,400,,,
trial,html.Screen,4_26_0,2023-09-15T21:55:14.434Z,,0,1,,3938.400999999256,response,ISIC_0032630.JPG,7,ISIC_0032872.JPG,ISIC_0032630.JPG,false,1,keypress(m),500,121991.09999999963,121990.69999999925,118035.633,118052.30000000075,118052.299,122002.141,8,400,27,,ISIC_0032872.JPG
break,html.Screen,4_26_1,2023-09-15T21:55:14.434Z,,0,,,NaN,,,,,,false,,,,121991.90000000037,121991.80000000075,,121991.40000000037,,122002.141,8,400,,,
break_continue,html.Screen,4_26_2,2023-09-15T21:55:14.435Z,,0,,,NaN,,,,,,false,,,,121992.19999999925,121992.09999999963,,121992,,122002.141,8,400,,,
sequence,flow.Sequence,4_26,2023-09-15T21:55:14.435Z,,0,,,3939.8009999996284,completion,,,,,false,,,,121992.30000000075,121992.09999999963,118035.633,118052.19999999925,118052.299,122002.141,8,400,,,
trial,html.Screen,4_27_0,2023-09-15T21:55:17.982Z,,0,1,,3537.5589999992517,response,ISIC_7717907.JPG,8,ISIC_2279679.JPG,ISIC_7717907.JPG,false,1,keypress(m),500,125540.19999999925,125539.69999999925,121985.475,121992.5,122002.141,125551.999,8,400,28,,ISIC_2279679.JPG
break,html.Screen,4_27_1,2023-09-15T21:55:17.983Z,,0,,,NaN,,,,,,false,,,,125541.19999999925,125541,,125540.5,,125551.999,8,400,,,
break_continue,html.Screen,4_27_2,2023-09-15T21:55:17.984Z,,0,,,NaN,,,,,,false,,,,125541.5,125541.40000000037,,125541.30000000075,,125551.999,8,400,,,
sequence,flow.Sequence,4_27,2023-09-15T21:55:17.984Z,,0,,,3539.2590000003693,completion,,,,,false,,,,125541.69999999925,125541.40000000037,121985.475,121992.5,122002.141,125551.999,8,400,,,
trial,html.Screen,4_28_0,2023-09-15T21:55:20.668Z,,0,1,,2673.801000000749,response,ISIC_5682259.JPG,8,ISIC_1850196.JPG,ISIC_1850196.JPG,false,0,keypress(z),500,128226.30000000075,128225.80000000075,125535.333,125542,125551.999,128236.077,8,400,29,,ISIC_5682259.JPG
break,html.Screen,4_28_1,2023-09-15T21:55:20.669Z,,0,,,NaN,,,,,,false,,,,128227.30000000075,128227.09999999963,,128226.69999999925,,128236.077,8,400,,,
break_continue,html.Screen,4_28_2,2023-09-15T21:55:20.670Z,,0,,,NaN,,,,,,false,,,,128227.59999999963,128227.5,,128227.40000000037,,128236.077,8,400,,,
sequence,flow.Sequence,4_28,2023-09-15T21:55:20.670Z,,0,,,2675.501000000004,completion,,,,,false,,,,128227.80000000075,128227.5,125535.333,125541.90000000037,125551.999,128236.077,8,400,,,
trial,html.Screen,4_29_0,2023-09-15T21:55:23.504Z,,0,1,,2825.2230000007403,response,ISIC_5343231.JPG,6,ISIC_8749288.JPG,ISIC_8749288.JPG,false,0,keypress(z),500,131061.90000000037,131061.30000000075,128219.411,128228,128236.077,131069.297,8,400,30,,ISIC_5343231.JPG
break,html.Screen,4_29_1,2023-09-15T21:55:23.505Z,,0,,,NaN,,,,,,false,,,,131062.90000000037,131062.80000000075,,131062.30000000075,,131069.297,8,400,,,
break_continue,html.Screen,4_29_2,2023-09-15T21:55:23.505Z,,0,,,NaN,,,,,,false,,,,131063.40000000037,131063.30000000075,,131063.09999999963,,131069.297,8,400,,,
sequence,flow.Sequence,4_29,2023-09-15T21:55:23.505Z,,0,,,2827.2230000007403,completion,,,,,false,,,,131063.5,131063.30000000075,128219.411,128227.90000000037,128236.077,131069.297,8,400,,,
trial,html.Screen,4_30_0,2023-09-15T21:55:26.469Z,,0,1,,2957.503000000739,response,ISIC_0458561.JPG,7,ISIC_0034211.JPG,ISIC_0458561.JPG,false,1,keypress(m),500,134027,134026.80000000075,131052.631,131063.59999999963,131069.297,134035.845,8,400,31,,ISIC_0034211.JPG
break,html.Screen,4_30_1,2023-09-15T21:55:26.469Z,,0,,,NaN,,,,,,false,,,,134027.5,134027.40000000037,,134027.19999999925,,134035.845,8,400,,,
break_continue,html.Screen,4_30_2,2023-09-15T21:55:26.469Z,,0,,,NaN,,,,,,false,,,,134027.69999999925,134027.59999999963,,134027.59999999963,,134035.845,8,400,,,
sequence,flow.Sequence,4_30,2023-09-15T21:55:26.470Z,,0,,,2958.3029999996215,completion,,,,,false,,,,134027.69999999925,134027.59999999963,131052.631,131063.59999999963,131069.297,134035.845,8,400,,,
trial,html.Screen,4_31_0,2023-09-15T21:55:29.150Z,,0,1,,2672.154999999999,response,ISIC_0024739.JPG,8,ISIC_2241755.JPG,ISIC_0024739.JPG,false,1,keypress(m),500,136708.5,136708,134019.179,134027.80000000075,134035.845,136719.071,8,400,32,,ISIC_2241755.JPG
break,html.Screen,4_31_1,2023-09-15T21:55:29.151Z,,0,,,NaN,,,,,,false,,,,136709.40000000037,136709.19999999925,,136708.80000000075,,136719.071,8,400,,,
break_continue,html.Screen,4_31_2,2023-09-15T21:55:29.152Z,,0,,,NaN,,,,,,false,,,,136709.80000000075,136709.69999999925,,136709.59999999963,,136719.071,8,400,,,
sequence,flow.Sequence,4_31,2023-09-15T21:55:29.152Z,,0,,,2673.854999999254,completion,,,,,false,,,,136710,136709.69999999925,134019.179,134027.80000000075,134035.845,136719.071,8,400,,,
trial,html.Screen,4_32_0,2023-09-15T21:55:32.245Z,,0,1,,3084.4290000000037,response,ISIC_1431777.JPG,5,ISIC_7052658.JPG,ISIC_1431777.JPG,false,1,keypress(m),500,139804,139803.5,136702.405,136710.09999999963,136719.071,139819.719,8,400,33,,ISIC_7052658.JPG
break,html.Screen,4_32_1,2023-09-15T21:55:32.246Z,,0,,,NaN,,,,,,false,,,,139804.80000000075,139804.69999999925,,139804.19999999925,,139819.719,8,400,,,
break_continue,html.Screen,4_32_2,2023-09-15T21:55:32.247Z,,0,,,NaN,,,,,,false,,,,139805.19999999925,139805.09999999963,,139805,,139819.719,8,400,,,
sequence,flow.Sequence,4_32,2023-09-15T21:55:32.247Z,,0,,,3086.028999999631,completion,,,,,false,,,,139805.5,139805.09999999963,136702.405,136710.09999999963,136719.071,139819.719,8,400,,,
trial,html.Screen,4_33_0,2023-09-15T21:55:38.438Z,,0,1,,6176.380999999616,response,ISIC_0033152.JPG,5,ISIC_0031649.JPG,ISIC_0031649.JPG,false,0,keypress(z),500,145996.59999999963,145996.09999999963,139803.053,139805.5,139819.719,146002.805,8,400,34,,ISIC_0033152.JPG
break,html.Screen,4_33_1,2023-09-15T21:55:38.439Z,,0,,,NaN,,,,,,false,,,,145997.59999999963,145997.30000000075,,145996.80000000075,,146002.805,8,400,,,
break_continue,html.Screen,4_33_2,2023-09-15T21:55:38.439Z,,0,,,NaN,,,,,,false,,,,145997.90000000037,145997.80000000075,,145997.59999999963,,146002.805,8,400,,,
sequence,flow.Sequence,4_33,2023-09-15T21:55:38.439Z,,0,,,6178.081000000733,completion,,,,,false,,,,145998.09999999963,145997.80000000075,139803.053,139805.5,139819.719,146002.805,8,400,,,
trial,html.Screen,4_34_0,2023-09-15T21:55:43.475Z,,0,1,,5030.5950000003795,response,ISIC_6455702.JPG,9,ISIC_1470245.JPG,ISIC_1470245.JPG,false,0,keypress(z),500,151033.90000000037,151033.40000000037,145986.139,145998.19999999925,146002.805,151036.787,8,400,35,,ISIC_6455702.JPG
break,html.Screen,4_34_1,2023-09-15T21:55:43.476Z,,0,,,NaN,,,,,,false,,,,151034.90000000037,151034.69999999925,,151034.30000000075,,151036.787,8,400,,,
break_continue,html.Screen,4_34_2,2023-09-15T21:55:43.476Z,,0,,,NaN,,,,,,false,,,,151035.30000000075,151035.09999999963,,151035,,151036.787,8,400,,,
sequence,flow.Sequence,4_34,2023-09-15T21:55:43.476Z,,0,,,5032.2949999996345,completion,,,,,false,,,,151035.40000000037,151035.09999999963,145986.139,145998.19999999925,146002.805,151036.787,8,400,,,
trial,html.Screen,4_35_0,2023-09-15T21:55:47.255Z,,0,1,,3776.6130000003614,response,ISIC_0024752.JPG,6,ISIC_0062204.JPG,ISIC_0024752.JPG,false,1,keypress(m),500,154813.90000000037,154813.40000000037,151020.121,151035.5,151036.787,154819.969,8,400,36,,ISIC_0062204.JPG
break,html.Screen,4_35_1,2023-09-15T21:55:47.256Z,,0,,,NaN,,,,,,false,,,,154814.80000000075,154814.69999999925,,154814.19999999925,,154819.969,8,400,,,
break_continue,html.Screen,4_35_2,2023-09-15T21:55:47.256Z,,0,,,NaN,,,,,,false,,,,154815.30000000075,154815.09999999963,,154815,,154819.969,8,400,,,
sequence,flow.Sequence,4_35,2023-09-15T21:55:47.256Z,,0,,,3778.3129999996163,completion,,,,,false,,,,154815.40000000037,154815.09999999963,151020.121,151035.5,151036.787,154819.969,8,400,,,
trial,html.Screen,4_36_0,2023-09-15T21:55:50.869Z,,0,1,,3608.1309999996156,response,ISIC_0028211.JPG,6,ISIC_1226882.JPG,ISIC_0028211.JPG,false,1,keypress(m),500,158428.59999999963,158428.09999999963,154803.303,154815.59999999963,154819.969,158437.356,8,400,37,,ISIC_1226882.JPG
break,html.Screen,4_36_1,2023-09-15T21:55:50.870Z,,0,,,NaN,,,,,,false,,,,158429.5,158429.30000000075,,158428.80000000075,,158437.356,8,400,,,
break_continue,html.Screen,4_36_2,2023-09-15T21:55:50.871Z,,0,,,NaN,,,,,,false,,,,158430,158429.80000000075,,158429.69999999925,,158437.356,8,400,,,
sequence,flow.Sequence,4_36,2023-09-15T21:55:50.871Z,,0,,,3609.831000000733,completion,,,,,false,,,,158430.09999999963,158429.80000000075,154803.303,154815.5,154819.969,158437.356,8,400,,,
trial,html.Screen,4_37_0,2023-09-15T21:55:54.266Z,,0,1,,3387.9440000007453,response,ISIC_0012721.JPG,4,ISIC_2438917.JPG,ISIC_2438917.JPG,false,0,keypress(z),500,161825.90000000037,161825.30000000075,158420.69,158430.19999999925,158437.356,161837.22,8,400,38,,ISIC_0012721.JPG
break,html.Screen,4_37_1,2023-09-15T21:55:54.267Z,,0,,,NaN,,,,,,false,,,,161827,161826.80000000075,,161826.30000000075,,161837.22,8,400,,,
break_continue,html.Screen,4_37_2,2023-09-15T21:55:54.268Z,,0,,,NaN,,,,,,false,,,,161827.40000000037,161827.19999999925,,161827.19999999925,,161837.22,8,400,,,
sequence,flow.Sequence,4_37,2023-09-15T21:55:54.268Z,,0,,,3389.843999999255,completion,,,,,false,,,,161827.5,161827.19999999925,158420.69,158430.19999999925,158437.356,161837.22,8,400,,,
trial,html.Screen,4_38_0,2023-09-15T21:55:57.550Z,,0,1,,3272.279999999999,response,ISIC_8133871.JPG,8,ISIC_0010347.JPG,ISIC_0010347.JPG,false,0,keypress(z),500,165110,165109.5,161820.554,161827.69999999925,161837.22,165120.422,8,400,39,,ISIC_8133871.JPG
break,html.Screen,4_38_1,2023-09-15T21:55:57.551Z,,0,,,NaN,,,,,,false,,,,165110.90000000037,165110.80000000075,,165110.19999999925,,165120.422,8,400,,,
break_continue,html.Screen,4_38_2,2023-09-15T21:55:57.552Z,,0,,,NaN,,,,,,false,,,,165111.40000000037,165111.19999999925,,165111.09999999963,,165120.422,8,400,,,
sequence,flow.Sequence,4_38,2023-09-15T21:55:57.552Z,,0,,,3273.979999999254,completion,,,,,false,,,,165111.5,165111.19999999925,161820.554,161827.69999999925,161837.22,165120.422,8,400,,,
trial,html.Screen,4_39_0,2023-09-15T21:56:00.956Z,,0,1,,3395.0780000000086,response,ISIC_7885531.JPG,8,ISIC_0032094.JPG,ISIC_0032094.JPG,false,0,keypress(z),500,168515.90000000037,168515.5,165103.756,165111.59999999963,165120.422,168521.083,8,400,40,,ISIC_7885531.JPG
break,html.Screen,4_39_1,2023-09-15T21:56:00.957Z,,0,,,NaN,,,,,,false,,,,168516.90000000037,168516.69999999925,,168516.19999999925,,168521.083,8,400,,,
break_continue,html.Screen,4_39_2,2023-09-15T21:56:00.957Z,,0,,,NaN,,,,,,false,,,,168517.19999999925,168517.19999999925,,168517,,168521.083,8,400,,,
sequence,flow.Sequence,4_39,2023-09-15T21:56:00.957Z,,0,,,3396.7779999992636,completion,,,,,false,,,,168517.40000000037,168517.19999999925,165103.756,165111.59999999963,165120.422,168521.083,8,400,,,
trial,html.Screen,4_40_0,2023-09-15T21:56:03.799Z,,0,1,,2837.4169999999867,response,ISIC_8015541.JPG,8,ISIC_0428383.JPG,ISIC_8015541.JPG,false,1,keypress(m),500,171359,171358.5,168504.417,168517.59999999963,168521.083,171370.969,8,400,41,,ISIC_0428383.JPG
break,html.Screen,4_40_1,2023-09-15T21:56:03.800Z,,0,,,NaN,,,,,,false,,,,171359.90000000037,171359.69999999925,,171359.30000000075,,171370.969,8,400,,,
break_continue,html.Screen,4_40_2,2023-09-15T21:56:03.800Z,,0,,,NaN,,,,,,false,,,,171360.40000000037,171360.19999999925,,171360.09999999963,,171370.969,8,400,,,
sequence,flow.Sequence,4_40,2023-09-15T21:56:03.800Z,,0,,,2839.1169999992417,completion,,,,,false,,,,171360.59999999963,171360.19999999925,168504.417,168517.5,168521.083,171370.969,8,400,,,
trial,html.Screen,4_41_0,2023-09-15T21:56:08.637Z,,0,1,,4825.730999999243,response,ISIC_1952599.JPG,7,ISIC_9338761.JPG,ISIC_1952599.JPG,false,1,keypress(m),500,176197.09999999963,176196.69999999925,171354.303,171360.59999999963,171370.969,176204.109,8,400,42,,ISIC_9338761.JPG
break,html.Screen,4_41_1,2023-09-15T21:56:08.638Z,,0,,,NaN,,,,,,false,,,,176198.09999999963,176197.90000000037,,176197.40000000037,,176204.109,8,400,,,
break_continue,html.Screen,4_41_2,2023-09-15T21:56:08.638Z,,0,,,NaN,,,,,,false,,,,176198.5,176198.40000000037,,176198.19999999925,,176204.109,8,400,,,
sequence,flow.Sequence,4_41,2023-09-15T21:56:08.638Z,,0,,,4827.431000000361,completion,,,,,false,,,,176198.59999999963,176198.40000000037,171354.303,171360.59999999963,171370.969,176204.109,8,400,,,
trial,html.Screen,4_42_0,2023-09-15T21:56:11.514Z,,0,1,,2869.9909999996307,response,ISIC_6803432.JPG,8,ISIC_9788174.JPG,ISIC_6803432.JPG,false,1,keypress(m),500,179074.59999999963,179074.09999999963,176187.443,176198.80000000075,176204.109,179088.142,8,400,43,,ISIC_9788174.JPG
break,html.Screen,4_42_1,2023-09-15T21:56:11.515Z,,0,,,NaN,,,,,,false,,,,179075.5,179075.30000000075,,179074.90000000037,,179088.142,8,400,,,
break_continue,html.Screen,4_42_2,2023-09-15T21:56:11.515Z,,0,,,NaN,,,,,,false,,,,179075.90000000037,179075.80000000075,,179075.59999999963,,179088.142,8,400,,,
sequence,flow.Sequence,4_42,2023-09-15T21:56:11.516Z,,0,,,2871.6910000007483,completion,,,,,false,,,,179076.09999999963,179075.80000000075,176187.443,176198.80000000075,176204.109,179088.142,8,400,,,
trial,html.Screen,4_43_0,2023-09-15T21:56:14.548Z,,0,1,,3020.457999999635,response,ISIC_5240387.JPG,9,ISIC_8786606.JPG,ISIC_5240387.JPG,false,1,keypress(m),500,182109.09999999963,182108.59999999963,179071.476,179076.19999999925,179088.142,182121.354,8,400,44,,ISIC_8786606.JPG
break,html.Screen,4_43_1,2023-09-15T21:56:14.549Z,,0,,,NaN,,,,,,false,,,,182110,182109.80000000075,,182109.30000000075,,182121.354,8,400,,,
break_continue,html.Screen,4_43_2,2023-09-15T21:56:14.550Z,,0,,,NaN,,,,,,false,,,,182110.40000000037,182110.30000000075,,182110.09999999963,,182121.354,8,400,,,
sequence,flow.Sequence,4_43,2023-09-15T21:56:14.550Z,,0,,,3022.1580000007525,completion,,,,,false,,,,182110.59999999963,182110.30000000075,179071.476,179076.19999999925,179088.142,182121.354,8,400,,,
trial,html.Screen,4_44_0,2023-09-15T21:56:17.668Z,,0,1,,3107.446000000753,response,ISIC_0026185.JPG,6,ISIC_8629635.JPG,ISIC_8629635.JPG,false,0,keypress(z),500,185229.09999999963,185228.80000000075,182104.688,182110.69999999925,182121.354,185237.896,8,400,45,,ISIC_0026185.JPG
break,html.Screen,4_44_1,2023-09-15T21:56:17.669Z,,0,,,NaN,,,,,,false,,,,185230.09999999963,185229.90000000037,,185229.5,,185237.896,8,400,,,
break_continue,html.Screen,4_44_2,2023-09-15T21:56:17.670Z,,0,,,NaN,,,,,,false,,,,185230.5,185230.40000000037,,185230.30000000075,,185237.896,8,400,,,
sequence,flow.Sequence,4_44,2023-09-15T21:56:17.670Z,,0,,,3109.0460000003804,completion,,,,,false,,,,185230.69999999925,185230.40000000037,182104.688,182110.69999999925,182121.354,185237.896,8,400,,,
trial,html.Screen,4_45_0,2023-09-15T21:56:23.176Z,,0,1,,5499.103999999992,response,ISIC_8484660.JPG,5,ISIC_0071651.JPG,ISIC_8484660.JPG,false,1,keypress(m),500,190737.5,190737,185221.23,185230.90000000037,185237.896,190738.513,8,400,46,,ISIC_0071651.JPG
break,html.Screen,4_45_1,2023-09-15T21:56:23.177Z,,0,,,NaN,,,,,,false,,,,190738.40000000037,190738.09999999963,,190737.69999999925,,190738.513,8,400,,,
break_continue,html.Screen,4_45_2,2023-09-15T21:56:23.178Z,,0,,,NaN,,,,,,false,,,,190738.80000000075,190738.69999999925,,190738.5,,190738.513,8,400,,,
sequence,flow.Sequence,4_45,2023-09-15T21:56:23.178Z,,0,,,5500.803999999247,completion,,,,,false,,,,190739,190738.69999999925,185221.23,185230.80000000075,185237.896,190738.513,8,400,,,
trial,html.Screen,4_46_0,2023-09-15T21:56:26.914Z,,0,1,,3736.086999999621,response,ISIC_0002745.JPG,4,ISIC_8172822.JPG,ISIC_8172822.JPG,false,0,keypress(z),500,194474.90000000037,194474.59999999963,190721.847,190739.19999999925,190738.513,194488.363,8,400,47,,ISIC_0002745.JPG
break,html.Screen,4_46_1,2023-09-15T21:56:26.915Z,,0,,,NaN,,,,,,false,,,,194475.90000000037,194475.80000000075,,194475.19999999925,,194488.363,8,400,,,
break_continue,html.Screen,4_46_2,2023-09-15T21:56:26.915Z,,0,,,NaN,,,,,,false,,,,194476.30000000075,194476.09999999963,,194476,,194488.363,8,400,,,
sequence,flow.Sequence,4_46,2023-09-15T21:56:26.915Z,,0,,,3737.586999999621,completion,,,,,false,,,,194476.40000000037,194476.09999999963,190721.847,190739.19999999925,190738.513,194488.363,8,400,,,
trial,html.Screen,4_47_0,2023-09-15T21:56:29.635Z,,0,1,,2707.636999999988,response,ISIC_0012406.JPG,8,ISIC_4286715.JPG,ISIC_4286715.JPG,false,0,keypress(z),500,197196.40000000037,197196,194471.697,194476.69999999925,194488.363,197204.921,8,400,48,,ISIC_0012406.JPG
break,html.Screen,4_47_1,2023-09-15T21:56:29.636Z,,0,,,NaN,,,,,,false,,,,197197.40000000037,197197.19999999925,,197196.69999999925,,197204.921,8,400,,,
break_continue,html.Screen,4_47_2,2023-09-15T21:56:29.636Z,,0,,,NaN,,,,,,false,,,,197197.69999999925,197197.5,,197197.5,,197204.921,8,400,,,
sequence,flow.Sequence,4_47,2023-09-15T21:56:29.636Z,,0,,,2709.136999999988,completion,,,,,false,,,,197197.90000000037,197197.5,194471.697,194476.59999999963,194488.363,197204.921,8,400,,,
trial,html.Screen,4_48_0,2023-09-15T21:56:32.345Z,,0,1,,2700.879000000743,response,ISIC_0543351.JPG,8,ISIC_0067338.JPG,ISIC_0543351.JPG,false,1,keypress(m),500,199906.30000000075,199905.80000000075,197188.255,197198,197204.921,199922.305,8,400,49,,ISIC_0067338.JPG
break,html.Screen,4_48_1,2023-09-15T21:56:32.346Z,,0,,,NaN,,,,,,false,,,,199907.40000000037,199907.19999999925,,199906.69999999925,,199922.305,8,400,,,
break_continue,html.Screen,4_48_2,2023-09-15T21:56:32.346Z,,0,,,NaN,,,,,,false,,,,199907.80000000075,199907.59999999963,,199907.5,,199922.305,8,400,,,
sequence,flow.Sequence,4_48,2023-09-15T21:56:32.346Z,,0,,,2702.6789999996254,completion,,,,,false,,,,199907.90000000037,199907.59999999963,197188.255,197197.90000000037,197204.921,199922.305,8,400,,,
trial,html.Screen,4_49_0,2023-09-15T21:56:35.359Z,,0,1,,2998.195000000007,response,ISIC_0011527.JPG,6,ISIC_6617840.JPG,ISIC_0011527.JPG,false,1,keypress(m),500,202921,202920.5,199905.639,199908,199922.305,202922.185,8,400,50,,ISIC_6617840.JPG
break,html.Screen,4_49_1,2023-09-15T21:56:45.347Z,,0,,,10000.40400000001,timeout,,,,,false,,,,212909.19999999925,212905.923,202905.519,202921.30000000075,202922.185,212922.589,8,400,,,
break_continue,html.Screen,4_49_2,2023-09-15T21:56:46.757Z,,0,,,1386.1109999992477,response,,,,,false,continue,keypress(Space),,214319.19999999925,214308.69999999925,212905.923,212909.30000000075,212922.589,214322.533,8,400,,,
sequence,flow.Sequence,4_49,2023-09-15T21:56:46.757Z,,0,,,14386.394999999262,completion,,,,,false,,,,214319.40000000037,214308.69999999925,199905.639,199908,199922.305,214322.533,8,400,,,
trial,html.Screen,4_50_0,2023-09-15T21:56:50.802Z,,0,2,,4041.2670000007492,response,ISIC_4128342.JPG,9,ISIC_0010873.JPG,ISIC_0010873.JPG,false,0,keypress(z),500,218364.30000000075,218363.80000000075,214305.867,214319.59999999963,214322.533,218372.371,8,400,1,,ISIC_4128342.JPG
break,html.Screen,4_50_1,2023-09-15T21:56:50.803Z,,0,,,NaN,,,,,,false,,,,218365.30000000075,218365.09999999963,,218364.69999999925,,218372.371,8,400,,,
break_continue,html.Screen,4_50_2,2023-09-15T21:56:50.803Z,,0,,,NaN,,,,,,false,,,,218365.80000000075,218365.69999999925,,218365.5,,218372.371,8,400,,,
sequence,flow.Sequence,4_50,2023-09-15T21:56:50.804Z,,0,,,4043.166999999259,completion,,,,,false,,,,218365.90000000037,218365.69999999925,214305.867,214319.59999999963,214322.533,218372.371,8,400,,,
trial,html.Screen,4_51_0,2023-09-15T21:56:54.325Z,,0,2,,3515.2289999996137,response,ISIC_7492682.JPG,8,ISIC_4780727.JPG,ISIC_7492682.JPG,false,1,keypress(m),500,221888.09999999963,221887.59999999963,218355.705,218366.09999999963,218372.371,221889.723,8,400,2,,ISIC_4780727.JPG
break,html.Screen,4_51_1,2023-09-15T21:56:54.326Z,,0,,,NaN,,,,,,false,,,,221889,221888.80000000075,,221888.30000000075,,221889.723,8,400,,,
break_continue,html.Screen,4_51_2,2023-09-15T21:56:54.327Z,,0,,,NaN,,,,,,false,,,,221889.30000000075,221889.30000000075,,221889.09999999963,,221889.723,8,400,,,
sequence,flow.Sequence,4_51,2023-09-15T21:56:54.327Z,,0,,,3516.9290000007313,completion,,,,,false,,,,221889.59999999963,221889.30000000075,218355.705,218366,218372.371,221889.723,8,400,,,
trial,html.Screen,4_52_0,2023-09-15T21:56:57.185Z,,0,2,,2857.8769999996293,response,ISIC_6357263.JPG,7,ISIC_5101111.JPG,ISIC_6357263.JPG,false,1,keypress(m),500,224748,224747.59999999963,221873.057,221889.69999999925,221889.723,224756.275,8,400,3,,ISIC_5101111.JPG
break,html.Screen,4_52_1,2023-09-15T21:56:57.186Z,,0,,,NaN,,,,,,false,,,,224748.80000000075,224748.69999999925,,224748.19999999925,,224756.275,8,400,,,
break_continue,html.Screen,4_52_2,2023-09-15T21:56:57.186Z,,0,,,NaN,,,,,,false,,,,224749.09999999963,224749,,224748.90000000037,,224756.275,8,400,,,
sequence,flow.Sequence,4_52,2023-09-15T21:56:57.187Z,,0,,,2859.277000000002,completion,,,,,false,,,,224749.30000000075,224749,221873.057,221889.59999999963,221889.723,224756.275,8,400,,,
trial,html.Screen,4_53_0,2023-09-15T21:57:00.950Z,,0,2,,3756.025000000751,response,ISIC_3597812.JPG,8,ISIC_9125409.JPG,ISIC_9125409.JPG,false,0,keypress(z),500,228512.69999999925,228512.30000000075,224739.609,224749.40000000037,224756.275,228522.791,8,400,4,,ISIC_3597812.JPG
break,html.Screen,4_53_1,2023-09-15T21:57:00.951Z,,0,,,NaN,,,,,,false,,,,228513.59999999963,228513.40000000037,,228512.90000000037,,228522.791,8,400,,,
break_continue,html.Screen,4_53_2,2023-09-15T21:57:00.951Z,,0,,,NaN,,,,,,false,,,,228513.90000000037,228513.90000000037,,228513.69999999925,,228522.791,8,400,,,
sequence,flow.Sequence,4_53,2023-09-15T21:57:00.951Z,,0,,,3757.6250000003783,completion,,,,,false,,,,228514.19999999925,228513.90000000037,224739.609,224749.40000000037,224756.275,228522.791,8,400,,,
trial,html.Screen,4_54_0,2023-09-15T21:57:04.025Z,,0,2,,3065.0090000007476,response,ISIC_0367225.JPG,7,ISIC_9418196.JPG,ISIC_9418196.JPG,false,0,keypress(z),500,231588.19999999925,231587.80000000075,228506.125,228514.30000000075,228522.791,231590.133,8,400,5,,ISIC_0367225.JPG
break,html.Screen,4_54_1,2023-09-15T21:57:04.026Z,,0,,,NaN,,,,,,false,,,,231589.30000000075,231589.09999999963,,231588.59999999963,,231590.133,8,400,,,
break_continue,html.Screen,4_54_2,2023-09-15T21:57:04.027Z,,0,,,NaN,,,,,,false,,,,231589.59999999963,231589.40000000037,,231589.40000000037,,231590.133,8,400,,,
sequence,flow.Sequence,4_54,2023-09-15T21:57:04.027Z,,0,,,3066.609000000375,completion,,,,,false,,,,231589.80000000075,231589.40000000037,228506.125,228514.19999999925,228522.791,231590.133,8,400,,,
trial,html.Screen,4_55_0,2023-09-15T21:57:07.372Z,,0,2,,3345.1670000007434,response,ISIC_0000030.JPG,8,ISIC_5308066.JPG,ISIC_0000030.JPG,false,1,keypress(m),500,234935.69999999925,234935.30000000075,231573.467,231589.90000000037,231590.133,234939.999,8,400,6,,ISIC_5308066.JPG
break,html.Screen,4_55_1,2023-09-15T21:57:07.373Z,,0,,,NaN,,,,,,false,,,,234936.69999999925,234936.5,,234936,,234939.999,8,400,,,
break_continue,html.Screen,4_55_2,2023-09-15T21:57:07.374Z,,0,,,NaN,,,,,,false,,,,234937.09999999963,234936.90000000037,,234936.80000000075,,234939.999,8,400,,,
sequence,flow.Sequence,4_55,2023-09-15T21:57:07.374Z,,0,,,3346.767000000371,completion,,,,,false,,,,234937.19999999925,234936.90000000037,231573.467,231589.90000000037,231590.133,234939.999,8,400,,,
trial,html.Screen,4_56_0,2023-09-15T21:57:11.072Z,,0,2,,3695.401000000362,response,ISIC_2167209.JPG,7,ISIC_0758797.JPG,ISIC_2167209.JPG,false,1,keypress(m),500,238635.90000000037,238635.40000000037,234923.333,234937.30000000075,234939.999,238639.851,8,400,7,,ISIC_0758797.JPG
break,html.Screen,4_56_1,2023-09-15T21:57:11.073Z,,0,,,NaN,,,,,,false,,,,238636.90000000037,238636.69999999925,,238636.19999999925,,238639.851,8,400,,,
break_continue,html.Screen,4_56_2,2023-09-15T21:57:11.074Z,,0,,,NaN,,,,,,false,,,,238637.19999999925,238637,,238637,,238639.851,8,400,,,
sequence,flow.Sequence,4_56,2023-09-15T21:57:11.074Z,,0,,,3697.0009999999893,completion,,,,,false,,,,238637.30000000075,238637,234923.333,234937.30000000075,234939.999,238639.851,8,400,,,
trial,html.Screen,4_57_0,2023-09-15T21:57:13.909Z,,0,2,,2832.34899999926,response,ISIC_0070566.JPG,6,ISIC_0013840.JPG,ISIC_0070566.JPG,false,1,keypress(m),500,241472.69999999925,241472.19999999925,238623.185,238637.5,238639.851,241490.536,8,400,8,,ISIC_0013840.JPG
break,html.Screen,4_57_1,2023-09-15T21:57:13.910Z,,0,,,NaN,,,,,,false,,,,241473.59999999963,241473.5,,241473,,241490.536,8,400,,,
break_continue,html.Screen,4_57_2,2023-09-15T21:57:13.910Z,,0,,,NaN,,,,,,false,,,,241474,241473.90000000037,,241473.69999999925,,241490.536,8,400,,,
sequence,flow.Sequence,4_57,2023-09-15T21:57:13.911Z,,0,,,2834.0490000003774,completion,,,,,false,,,,241474.19999999925,241473.90000000037,238623.185,238637.5,238639.851,241490.536,8,400,,,
trial,html.Screen,4_58_0,2023-09-15T21:57:16.921Z,,0,2,,2993.464000000007,response,ISIC_0000814.JPG,5,ISIC_0056790.JPG,ISIC_0056790.JPG,false,0,keypress(z),500,244484.5,244484,241473.87,241474.5,241490.536,244490.416,8,400,9,,ISIC_0000814.JPG
break,html.Screen,4_58_1,2023-09-15T21:57:16.922Z,,0,,,NaN,,,,,,false,,,,244485.40000000037,244485.30000000075,,244484.80000000075,,244490.416,8,400,,,
break_continue,html.Screen,4_58_2,2023-09-15T21:57:16.922Z,,0,,,NaN,,,,,,false,,,,244485.80000000075,244485.69999999925,,244485.5,,244490.416,8,400,,,
sequence,flow.Sequence,4_58,2023-09-15T21:57:16.922Z,,0,,,2995.163999999262,completion,,,,,false,,,,244485.90000000037,244485.69999999925,241473.87,241474.5,241490.536,244490.416,8,400,,,
trial,html.Screen,4_59_0,2023-09-15T21:57:20.770Z,,0,2,,3842.8840000007476,response,ISIC_0011032.JPG,6,ISIC_0070951.JPG,ISIC_0070951.JPG,false,0,keypress(z),500,248333.80000000075,248333.30000000075,244473.75,244486.09999999963,244490.416,248340.262,8,400,10,,ISIC_0011032.JPG
break,html.Screen,4_59_1,2023-09-15T21:57:20.771Z,,0,,,NaN,,,,,,false,,,,248334.80000000075,248334.5,,248334,,248340.262,8,400,,,
break_continue,html.Screen,4_59_2,2023-09-15T21:57:20.771Z,,0,,,NaN,,,,,,false,,,,248335,248334.90000000037,,248334.80000000075,,248340.262,8,400,,,
sequence,flow.Sequence,4_59,2023-09-15T21:57:20.771Z,,0,,,3844.484000000375,completion,,,,,false,,,,248335.30000000075,248334.90000000037,244473.75,244486.09999999963,244490.416,248340.262,8,400,,,
trial,html.Screen,4_60_0,2023-09-15T21:57:25.382Z,,0,2,,4605.038000000757,response,ISIC_7594601.JPG,6,ISIC_8382969.JPG,ISIC_7594601.JPG,false,1,keypress(m),500,252945.69999999925,252945.30000000075,248323.596,248335.5,248340.262,252957.633,8,400,11,,ISIC_8382969.JPG
break,html.Screen,4_60_1,2023-09-15T21:57:25.384Z,,0,,,NaN,,,,,,false,,,,252948.19999999925,252946.5,,252946,,252957.633,8,400,,,
break_continue,html.Screen,4_60_2,2023-09-15T21:57:25.384Z,,0,,,NaN,,,,,,false,,,,252948.5,252948.40000000037,,252948.30000000075,,252957.633,8,400,,,
sequence,flow.Sequence,4_60,2023-09-15T21:57:25.385Z,,0,,,4608.138000000385,completion,,,,,false,,,,252948.80000000075,252948.40000000037,248323.596,248335.5,248340.262,252957.633,8,400,,,
trial,html.Screen,4_61_0,2023-09-15T21:57:28.891Z,,0,2,,3497.267000000371,response,ISIC_0071576.JPG,8,ISIC_2276141.JPG,ISIC_0071576.JPG,false,1,keypress(m),500,256455.40000000037,256454.90000000037,252940.967,252948.90000000037,252957.633,256457.493,8,400,12,,ISIC_2276141.JPG
break,html.Screen,4_61_1,2023-09-15T21:57:28.892Z,,0,,,NaN,,,,,,false,,,,256456.40000000037,256456.19999999925,,256455.69999999925,,256457.493,8,400,,,
break_continue,html.Screen,4_61_2,2023-09-15T21:57:28.892Z,,0,,,NaN,,,,,,false,,,,256456.80000000075,256456.59999999963,,256456.40000000037,,256457.493,8,400,,,
sequence,flow.Sequence,4_61,2023-09-15T21:57:28.893Z,,0,,,3498.966999999626,completion,,,,,false,,,,256456.80000000075,256456.59999999963,252940.967,252948.80000000075,252957.633,256457.493,8,400,,,
trial,html.Screen,4_62_0,2023-09-15T21:57:32.069Z,,0,2,,3175.7069999992673,response,ISIC_2893340.JPG,6,ISIC_5717433.JPG,ISIC_5717433.JPG,false,0,keypress(z),500,259633.69999999925,259633.19999999925,256440.827,256457,256457.493,259640.699,8,400,13,,ISIC_2893340.JPG
break,html.Screen,4_62_1,2023-09-15T21:57:32.070Z,,0,,,NaN,,,,,,false,,,,259634.69999999925,259634.5,,259634,,259640.699,8,400,,,
break_continue,html.Screen,4_62_2,2023-09-15T21:57:32.071Z,,0,,,NaN,,,,,,false,,,,259635.09999999963,259634.90000000037,,259634.80000000075,,259640.699,8,400,,,
sequence,flow.Sequence,4_62,2023-09-15T21:57:32.071Z,,0,,,3177.407000000385,completion,,,,,false,,,,259635.19999999925,259634.90000000037,256440.827,256457,256457.493,259640.699,8,400,,,
trial,html.Screen,4_63_0,2023-09-15T21:57:34.809Z,,0,2,,2732.601000000752,response,ISIC_0010995.JPG,6,ISIC_0054954.JPG,ISIC_0054954.JPG,false,0,keypress(z),500,262373.80000000075,262373.30000000075,259624.033,259635.40000000037,259640.699,262374.754,8,400,14,,ISIC_0010995.JPG
break,html.Screen,4_63_1,2023-09-15T21:57:34.810Z,,0,,,NaN,,,,,,false,,,,262374.80000000075,262374.5,,262374.0999999996,,262374.754,8,400,,,
break_continue,html.Screen,4_63_2,2023-09-15T21:57:34.811Z,,0,,,NaN,,,,,,false,,,,262375.19999999925,262375.0999999996,,262374.9000000004,,262374.754,8,400,,,
sequence,flow.Sequence,4_63,2023-09-15T21:57:34.811Z,,0,,,2734.400999999634,completion,,,,,false,,,,262375.4000000004,262375.0999999996,259624.033,259635.30000000075,259640.699,262374.754,8,400,,,
trial,html.Screen,4_64_0,2023-09-15T21:57:37.536Z,,0,2,,2725.4459999992396,response,ISIC_2800198.JPG,7,ISIC_0066328.JPG,ISIC_0066328.JPG,false,0,keypress(z),500,265100.69999999925,265100.19999999925,262358.088,262375.5,262374.754,265107.978,8,400,15,,ISIC_2800198.JPG
break,html.Screen,4_64_1,2023-09-15T21:57:37.537Z,,0,,,NaN,,,,,,false,,,,265101.69999999925,265101.5,,265101,,265107.978,8,400,,,
break_continue,html.Screen,4_64_2,2023-09-15T21:57:37.537Z,,0,,,NaN,,,,,,false,,,,265102,265101.9000000004,,265101.80000000075,,265107.978,8,400,,,
sequence,flow.Sequence,4_64,2023-09-15T21:57:37.537Z,,0,,,2727.146000000357,completion,,,,,false,,,,265102.19999999925,265101.9000000004,262358.088,262375.5,262374.754,265107.978,8,400,,,
trial,html.Screen,4_65_0,2023-09-15T21:57:40.629Z,,0,2,,3085.8220000007423,response,ISIC_0010705.JPG,8,ISIC_9410044.JPG,ISIC_0010705.JPG,false,1,keypress(m),500,268194.30000000075,268193.80000000075,265091.312,265102.4000000004,265107.978,268207.854,8,400,16,,ISIC_9410044.JPG
break,html.Screen,4_65_1,2023-09-15T21:57:40.630Z,,0,,,NaN,,,,,,false,,,,268195.30000000075,268195.0999999996,,268194.5999999996,,268207.854,8,400,,,
break_continue,html.Screen,4_65_2,2023-09-15T21:57:40.631Z,,0,,,NaN,,,,,,false,,,,268195.5999999996,268195.5999999996,,268195.4000000004,,268207.854,8,400,,,
sequence,flow.Sequence,4_65,2023-09-15T21:57:40.631Z,,0,,,3087.6219999996247,completion,,,,,false,,,,268195.9000000004,268195.5999999996,265091.312,265102.30000000075,265107.978,268207.854,8,400,,,
trial,html.Screen,4_66_0,2023-09-15T21:57:43.394Z,,0,2,,2751.2459999996354,response,ISIC_7334117.JPG,8,ISIC_0034089.JPG,ISIC_0034089.JPG,false,0,keypress(z),500,270959.5999999996,270959.0999999996,268191.188,268196,268207.854,270974.41,8,400,17,,ISIC_7334117.JPG
break,html.Screen,4_66_1,2023-09-15T21:57:43.395Z,,0,,,NaN,,,,,,false,,,,270960.5,270960.30000000075,,270959.80000000075,,270974.41,8,400,,,
break_continue,html.Screen,4_66_2,2023-09-15T21:57:43.396Z,,0,,,NaN,,,,,,false,,,,270960.9000000004,270960.69999999925,,270960.5999999996,,270974.41,8,400,,,
sequence,flow.Sequence,4_66,2023-09-15T21:57:43.396Z,,0,,,2752.845999999263,completion,,,,,false,,,,270961.0999999996,270960.69999999925,268191.188,268195.9000000004,268207.854,270974.41,8,400,,,
trial,html.Screen,4_67_0,2023-09-15T21:57:46.269Z,,0,2,,2858.8900000007707,response,ISIC_8255784.JPG,7,ISIC_0002057.JPG,ISIC_8255784.JPG,false,1,keypress(m),500,273833.80000000075,273833.30000000075,270957.744,270961.19999999925,270974.41,273841.753,8,400,18,,ISIC_0002057.JPG
break,html.Screen,4_67_1,2023-09-15T21:57:46.270Z,,0,,,NaN,,,,,,false,,,,273834.80000000075,273834.5,,273834.0999999996,,273841.753,8,400,,,
break_continue,html.Screen,4_67_2,2023-09-15T21:57:46.270Z,,0,,,NaN,,,,,,false,,,,273835.0999999996,273835,,273834.9000000004,,273841.753,8,400,,,
sequence,flow.Sequence,4_67,2023-09-15T21:57:46.270Z,,0,,,2860.5900000000256,completion,,,,,false,,,,273835.30000000075,273835,270957.744,270961.0999999996,270974.41,273841.753,8,400,,,
trial,html.Screen,4_68_0,2023-09-15T21:57:48.854Z,,0,2,,2577.3469999996014,response,ISIC_9052500.JPG,6,ISIC_0638889.JPG,ISIC_9052500.JPG,false,1,keypress(m),500,276419.4000000004,276419.0999999996,273825.087,273835.4000000004,273841.753,276424.983,8,400,19,,ISIC_0638889.JPG
break,html.Screen,4_68_1,2023-09-15T21:57:48.855Z,,0,,,NaN,,,,,,false,,,,276420.4000000004,276420.19999999925,,276419.69999999925,,276424.983,8,400,,,
break_continue,html.Screen,4_68_2,2023-09-15T21:57:48.855Z,,0,,,NaN,,,,,,false,,,,276420.69999999925,276420.69999999925,,276420.5,,276424.983,8,400,,,
sequence,flow.Sequence,4_68,2023-09-15T21:57:48.856Z,,0,,,2578.946999999229,completion,,,,,false,,,,276420.9000000004,276420.69999999925,273825.087,273835.30000000075,273841.753,276424.983,8,400,,,
trial,html.Screen,4_69_0,2023-09-15T21:57:51.310Z,,0,2,,2450.0169999999925,response,ISIC_2616719.JPG,9,ISIC_0000077.JPG,ISIC_0000077.JPG,false,0,keypress(z),500,278875.5,278875,276408.317,276421,276424.983,278891.551,8,400,20,,ISIC_2616719.JPG
break,html.Screen,4_69_1,2023-09-15T21:57:51.311Z,,0,,,NaN,,,,,,false,,,,278876.4000000004,278876.19999999925,,278875.80000000075,,278891.551,8,400,,,
break_continue,html.Screen,4_69_2,2023-09-15T21:57:51.311Z,,0,,,NaN,,,,,,false,,,,278876.69999999925,278876.5999999996,,278876.5,,278891.551,8,400,,,
sequence,flow.Sequence,4_69,2023-09-15T21:57:51.311Z,,0,,,2451.61699999962,completion,,,,,false,,,,278876.9000000004,278876.5999999996,276408.317,276421,276424.983,278891.551,8,400,,,
trial,html.Screen,4_70_0,2023-09-15T21:57:53.813Z,,0,2,,2486.2490000007674,response,ISIC_0066109.JPG,9,ISIC_2518672.JPG,ISIC_2518672.JPG,false,0,keypress(z),500,281378.30000000075,281377.80000000075,278874.885,278877.0999999996,278891.551,281391.451,8,400,21,,ISIC_0066109.JPG
break,html.Screen,4_70_1,2023-09-15T21:57:53.814Z,,0,,,NaN,,,,,,false,,,,281379.30000000075,281379.19999999925,,281378.5999999996,,281391.451,8,400,,,
break_continue,html.Screen,4_70_2,2023-09-15T21:57:53.814Z,,0,,,NaN,,,,,,false,,,,281379.69999999925,281379.5999999996,,281379.5,,281391.451,8,400,,,
sequence,flow.Sequence,4_70,2023-09-15T21:57:53.814Z,,0,,,2488.04899999965,completion,,,,,false,,,,281379.80000000075,281379.5999999996,278874.885,278877.0999999996,278891.551,281391.451,8,400,,,
trial,html.Screen,4_71_0,2023-09-15T21:57:56.267Z,,0,2,,2441.048999999999,response,ISIC_3303825.JPG,5,ISIC_0011930.JPG,ISIC_0011930.JPG,false,0,keypress(z),500,283832.9000000004,283832.5,281374.785,281380,281391.451,283858.849,8,400,22,,ISIC_3303825.JPG
break,html.Screen,4_71_1,2023-09-15T21:57:56.268Z,,0,,,NaN,,,,,,false,,,,283833.80000000075,283833.69999999925,,283833.30000000075,,283858.849,8,400,,,
break_continue,html.Screen,4_71_2,2023-09-15T21:57:56.269Z,,0,,,NaN,,,,,,false,,,,283834.30000000075,283834.0999999996,,283834,,283858.849,8,400,,,
sequence,flow.Sequence,4_71,2023-09-15T21:57:56.269Z,,0,,,2442.6489999996265,completion,,,,,false,,,,283834.4000000004,283834.0999999996,281374.785,281380,281391.451,283858.849,8,400,,,
trial,html.Screen,4_72_0,2023-09-15T21:57:58.843Z,,0,2,,2549.9510000007576,response,ISIC_0031965.JPG,7,ISIC_8124900.JPG,ISIC_0031965.JPG,false,1,keypress(m),500,286409.30000000075,286408.80000000075,283842.183,283834.5999999996,283858.849,286425.413,8,400,23,,ISIC_8124900.JPG
break,html.Screen,4_72_1,2023-09-15T21:57:58.844Z,,0,,,NaN,,,,,,false,,,,286410.30000000075,286410,,286409.5999999996,,286425.413,8,400,,,
break_continue,html.Screen,4_72_2,2023-09-15T21:57:58.845Z,,0,,,NaN,,,,,,false,,,,286410.5999999996,286410.5,,286410.4000000004,,286425.413,8,400,,,
sequence,flow.Sequence,4_72,2023-09-15T21:57:58.845Z,,0,,,2551.6510000000126,completion,,,,,false,,,,286410.80000000075,286410.5,283842.183,283834.5,283858.849,286425.413,8,400,,,
trial,html.Screen,4_73_0,2023-09-15T21:58:01.888Z,,0,2,,3028.186999999627,response,ISIC_0073075.JPG,7,ISIC_0066518.JPG,ISIC_0066518.JPG,false,0,keypress(z),500,289454.0999999996,289453.5999999996,286408.747,286411,286425.413,289458.625,8,400,24,,ISIC_0073075.JPG
break,html.Screen,4_73_1,2023-09-15T21:58:01.889Z,,0,,,NaN,,,,,,false,,,,289455.0999999996,289454.9000000004,,289454.4000000004,,289458.625,8,400,,,
break_continue,html.Screen,4_73_2,2023-09-15T21:58:01.889Z,,0,,,NaN,,,,,,false,,,,289455.5,289455.30000000075,,289455.19999999925,,289458.625,8,400,,,
sequence,flow.Sequence,4_73,2023-09-15T21:58:01.890Z,,0,,,3029.8870000007446,completion,,,,,false,,,,289455.69999999925,289455.30000000075,286408.747,286410.9000000004,286425.413,289458.625,8,400,,,
trial,html.Screen,4_74_0,2023-09-15T21:58:04.948Z,,0,2,,3055.2750000003725,response,ISIC_8412096.JPG,5,ISIC_0032001.JPG,ISIC_0032001.JPG,false,0,keypress(z),500,292514.4000000004,292513.9000000004,289441.959,289455.80000000075,289458.625,292525.169,8,400,25,,ISIC_8412096.JPG
break,html.Screen,4_74_1,2023-09-15T21:58:04.949Z,,0,,,NaN,,,,,,false,,,,292515.30000000075,292515.19999999925,,292514.69999999925,,292525.169,8,400,,,
break_continue,html.Screen,4_74_2,2023-09-15T21:58:04.950Z,,0,,,NaN,,,,,,false,,,,292515.69999999925,292515.5999999996,,292515.5,,292525.169,8,400,,,
sequence,flow.Sequence,4_74,2023-09-15T21:58:04.950Z,,0,,,3056.9749999996275,completion,,,,,false,,,,292515.9000000004,292515.5999999996,289441.959,289455.69999999925,289458.625,292525.169,8,400,,,
trial,html.Screen,4_75_0,2023-09-15T21:58:16.448Z,,0,2,,11517.89400000003,timeout,ISIC_0062980.JPG,7,ISIC_0014795.JPG,,false,,,500,304014.30000000075,304013.69999999925,292508.503,292516,292525.169,304043.063,8,400,26,,
break,html.Screen,4_75_1,2023-09-15T21:58:16.448Z,,0,,,NaN,,,,,,false,,,,304015.0999999996,304014.9000000004,,304014.4000000004,,304043.063,8,400,,,
break_continue,html.Screen,4_75_2,2023-09-15T21:58:16.449Z,,0,,,NaN,,,,,,false,,,,304015.4000000004,304015.4000000004,,304015.19999999925,,304043.063,8,400,,,
sequence,flow.Sequence,4_75,2023-09-15T21:58:16.449Z,,0,,,11490.231000000378,completion,,,,,false,,,,304015.5999999996,304015.4000000004,292508.503,292515.9000000004,292525.169,304043.063,8,400,,,
trial,html.Screen,4_76_0,2023-09-15T21:58:27.964Z,,0,2,,11516.997999999963,timeout,ISIC_3043475.JPG,4,ISIC_1438269.JPG,,false,,,500,315531.19999999925,315530.5999999996,304026.397,304015.69999999925,304043.063,315560.061,8,400,27,,
break,html.Screen,4_76_1,2023-09-15T21:58:27.965Z,,0,,,NaN,,,,,,false,,,,315532.0999999996,315531.9000000004,,315531.4000000004,,315560.061,8,400,,,
break_continue,html.Screen,4_76_2,2023-09-15T21:58:27.965Z,,0,,,NaN,,,,,,false,,,,315532.4000000004,315532.30000000075,,315532.19999999925,,315560.061,8,400,,,
sequence,flow.Sequence,4_76,2023-09-15T21:58:27.965Z,,0,,,11489.237000000721,completion,,,,,false,,,,315532.5999999996,315532.30000000075,304026.397,304015.69999999925,304043.063,315560.061,8,400,,,
trial,html.Screen,4_77_0,2023-09-15T21:58:39.481Z,,0,2,,11517.116000000038,timeout,ISIC_0012151.JPG,5,ISIC_9572152.JPG,,false,,,500,327048.5,327048.0999999996,315543.395,315532.69999999925,315560.061,327077.177,8,400,28,,
break,html.Screen,4_77_1,2023-09-15T21:58:39.481Z,,0,,,NaN,,,,,,false,,,,327049.30000000075,327049.0999999996,,327048.69999999925,,327077.177,8,400,,,
break_continue,html.Screen,4_77_2,2023-09-15T21:58:39.482Z,,0,,,NaN,,,,,,false,,,,327049.69999999925,327049.5999999996,,327049.5,,327077.177,8,400,,,
sequence,flow.Sequence,4_77,2023-09-15T21:58:39.482Z,,0,,,11489.53899999964,completion,,,,,false,,,,327049.80000000075,327049.5999999996,315543.395,315532.69999999925,315560.061,327077.177,8,400,,,
trial,html.Screen,4_78_0,2023-09-15T21:58:50.997Z,,0,2,,11517.11499999999,timeout,ISIC_0305800.JPG,9,ISIC_0014684.JPG,,false,,,500,338565.5,338565,327060.511,327050,327077.177,338594.292,8,400,29,,
break,html.Screen,4_78_1,2023-09-15T21:58:50.998Z,,0,,,NaN,,,,,,false,,,,338566.4000000004,338566.19999999925,,338565.69999999925,,338594.292,8,400,,,
break_continue,html.Screen,4_78_2,2023-09-15T21:58:50.998Z,,0,,,NaN,,,,,,false,,,,338566.80000000075,338566.69999999925,,338566.5,,338594.292,8,400,,,
sequence,flow.Sequence,4_78,2023-09-15T21:58:50.999Z,,0,,,11489.52299999923,completion,,,,,false,,,,338567,338566.69999999925,327060.511,327049.9000000004,327077.177,338594.292,8,400,,,
trial,html.Screen,4_79_0,2023-09-15T21:59:02.513Z,,0,2,,11517.11599999998,timeout,ISIC_0010729.JPG,7,ISIC_5994645.JPG,,false,,,500,350081.9000000004,350081.4000000004,338577.626,338567.0999999996,338594.292,350111.408,8,400,30,,
break,html.Screen,4_79_1,2023-09-15T21:59:02.514Z,,0,,,NaN,,,,,,false,,,,350082.80000000075,350082.5999999996,,350082.0999999996,,350111.408,8,400,,,
break_continue,html.Screen,4_79_2,2023-09-15T21:59:02.514Z,,0,,,NaN,,,,,,false,,,,350083.19999999925,350083,,350082.9000000004,,350111.408,8,400,,,
sequence,flow.Sequence,4_79,2023-09-15T21:59:02.514Z,,0,,,11488.707999999984,completion,,,,,false,,,,350083.30000000075,350083,338577.626,338567.0999999996,338594.292,350111.408,8,400,,,
trial,html.Screen,4_80_0,2023-09-15T21:59:14.030Z,,0,2,,11517.11499999999,timeout,ISIC_6642608.JPG,6,ISIC_0033498.JPG,,false,,,500,361599.30000000075,361598.80000000075,350094.742,350083.5,350111.408,361628.523,8,400,31,,
break,html.Screen,4_80_1,2023-09-15T21:59:14.031Z,,0,,,NaN,,,,,,false,,,,361600.19999999925,361600,,361599.5,,361628.523,8,400,,,
break_continue,html.Screen,4_80_2,2023-09-15T21:59:14.031Z,,0,,,NaN,,,,,,false,,,,361600.5,361600.4000000004,,361600.30000000075,,361628.523,8,400,,,
sequence,flow.Sequence,4_80,2023-09-15T21:59:14.031Z,,0,,,11488.992000000377,completion,,,,,false,,,,361600.69999999925,361600.4000000004,350094.742,350083.4000000004,350111.408,361628.523,8,400,,,
trial,html.Screen,4_81_0,2023-09-15T21:59:25.547Z,,0,2,,11517.116000000038,timeout,ISIC_0072377.JPG,9,ISIC_9072567.JPG,,false,,,500,373117.0999999996,373116.5999999996,361611.857,361600.9000000004,361628.523,373145.639,8,400,32,,
break,html.Screen,4_81_1,2023-09-15T21:59:25.548Z,,0,,,NaN,,,,,,false,,,,373118,373117.80000000075,,373117.30000000075,,373145.639,8,400,,,
break_continue,html.Screen,4_81_2,2023-09-15T21:59:25.548Z,,0,,,NaN,,,,,,false,,,,373118.30000000075,373118.30000000075,,373118.0999999996,,373145.639,8,400,,,
sequence,flow.Sequence,4_81,2023-09-15T21:59:25.548Z,,0,,,11489.777000000759,completion,,,,,false,,,,373118.5,373118.30000000075,361611.857,361600.80000000075,361628.523,373145.639,8,400,,,
trial,html.Screen,4_82_0,2023-09-15T21:59:37.062Z,,0,2,,11517.11499999999,timeout,ISIC_0011895.JPG,8,ISIC_9538419.JPG,,false,,,500,384632.9000000004,384632.4000000004,373128.973,373118.69999999925,373145.639,384662.754,8,400,33,,
break,html.Screen,4_82_1,2023-09-15T21:59:37.063Z,,0,,,NaN,,,,,,false,,,,384633.9000000004,384633.69999999925,,384633.0999999996,,384662.754,8,400,,,
break_continue,html.Screen,4_82_2,2023-09-15T21:59:37.063Z,,0,,,NaN,,,,,,false,,,,384634.19999999925,384634.0999999996,,384634,,384662.754,8,400,,,
sequence,flow.Sequence,4_82,2023-09-15T21:59:37.064Z,,0,,,11488.460999999603,completion,,,,,false,,,,384634.4000000004,384634.0999999996,373128.973,373118.5999999996,373145.639,384662.754,8,400,,,
trial,html.Screen,4_83_0,2023-09-15T21:59:48.579Z,,0,2,,11517.11599999998,timeout,ISIC_0028839.JPG,6,ISIC_2332127.JPG,,false,,,500,396150.69999999925,396150.19999999925,384646.088,384634.5,384662.754,396179.87,8,400,34,,
break,html.Screen,4_83_1,2023-09-15T21:59:48.580Z,,0,,,NaN,,,,,,false,,,,396151.5,396151.30000000075,,396150.80000000075,,396179.87,8,400,,,
break_continue,html.Screen,4_83_2,2023-09-15T21:59:48.581Z,,0,,,NaN,,,,,,false,,,,396151.9000000004,396151.69999999925,,396151.5999999996,,396179.87,8,400,,,
sequence,flow.Sequence,4_83,2023-09-15T21:59:48.581Z,,0,,,11488.94599999924,completion,,,,,false,,,,396152,396151.69999999925,384646.088,384634.4000000004,384662.754,396179.87,8,400,,,
trial,html.Screen,4_84_0,2023-09-15T22:00:00.096Z,,0,2,,11517.126999999979,timeout,ISIC_0028319.JPG,8,ISIC_1054090.JPG,,false,,,500,407668,407667.5,396163.204,396152.0999999996,396179.87,407696.997,8,400,35,,
break,html.Screen,4_84_1,2023-09-15T22:00:00.097Z,,0,,,NaN,,,,,,false,,,,407668.80000000075,407668.5999999996,,407668.0999999996,,407696.997,8,400,,,
break_continue,html.Screen,4_84_2,2023-09-15T22:00:00.097Z,,0,,,NaN,,,,,,false,,,,407669.0999999996,407669,,407669,,407696.997,8,400,,,
sequence,flow.Sequence,4_84,2023-09-15T22:00:00.097Z,,0,,,11489.130000000005,completion,,,,,false,,,,407669.30000000075,407669,396163.204,396152.0999999996,396179.87,407696.997,8,400,,,
trial,html.Screen,4_85_0,2023-09-15T22:00:11.612Z,,0,2,,11517.108000000007,timeout,ISIC_0002821.JPG,9,ISIC_0011956.JPG,,false,,,500,419184.4000000004,419183.9000000004,407680.331,407669.5,407696.997,419214.105,8,400,36,,
break,html.Screen,4_85_1,2023-09-15T22:00:11.613Z,,0,,,NaN,,,,,,false,,,,419185.30000000075,419185.0999999996,,419184.5999999996,,419214.105,8,400,,,
break_continue,html.Screen,4_85_2,2023-09-15T22:00:11.613Z,,0,,,NaN,,,,,,false,,,,419185.69999999925,419185.5999999996,,419185.4000000004,,419214.105,8,400,,,
sequence,flow.Sequence,4_85,2023-09-15T22:00:11.613Z,,0,,,11488.602999999654,completion,,,,,false,,,,419185.80000000075,419185.5999999996,407680.331,407669.5,407696.997,419214.105,8,400,,,
trial,html.Screen,4_86_0,2023-09-15T22:00:23.129Z,,0,2,,11517.113000000012,timeout,ISIC_0000459.JPG,7,ISIC_5849178.JPG,,false,,,500,430702.19999999925,430701.69999999925,419197.439,419186,419214.105,430731.218,8,400,37,,
break,html.Screen,4_86_1,2023-09-15T22:00:23.130Z,,0,,,NaN,,,,,,false,,,,430703.0999999996,430702.9000000004,,430702.5,,430731.218,8,400,,,
break_continue,html.Screen,4_86_2,2023-09-15T22:00:23.130Z,,0,,,NaN,,,,,,false,,,,430703.5999999996,430703.5,,430703.30000000075,,430731.218,8,400,,,
sequence,flow.Sequence,4_86,2023-09-15T22:00:23.131Z,,0,,,11489.395000000019,completion,,,,,false,,,,430703.69999999925,430703.5,419197.439,419185.9000000004,419214.105,430731.218,8,400,,,
trial,html.Screen,4_87_0,2023-09-15T22:00:34.645Z,,0,2,,11517.11599999998,timeout,ISIC_8447658.JPG,6,ISIC_6384927.JPG,,false,,,500,442218.69999999925,442218.30000000075,430714.552,430703.9000000004,430731.218,442248.334,8,400,38,,
break,html.Screen,4_87_1,2023-09-15T22:00:34.646Z,,0,,,NaN,,,,,,false,,,,442219.5999999996,442219.4000000004,,442218.9000000004,,442248.334,8,400,,,
break_continue,html.Screen,4_87_2,2023-09-15T22:00:34.646Z,,0,,,NaN,,,,,,false,,,,442219.9000000004,442219.9000000004,,442219.69999999925,,442248.334,8,400,,,
sequence,flow.Sequence,4_87,2023-09-15T22:00:34.646Z,,0,,,11488.682000000379,completion,,,,,false,,,,442220.0999999996,442219.9000000004,430714.552,430703.9000000004,430731.218,442248.334,8,400,,,
trial,html.Screen,4_88_0,2023-09-15T22:00:46.162Z,,0,2,,11517.116000000038,timeout,ISIC_0069373.JPG,7,ISIC_0011448.JPG,,false,,,500,453736.30000000075,453735.9000000004,442231.668,442220.19999999925,442248.334,453765.45,8,400,39,,
break,html.Screen,4_88_1,2023-09-15T22:00:46.163Z,,0,,,NaN,,,,,,false,,,,453737.19999999925,453737,,453736.5,,453765.45,8,400,,,
break_continue,html.Screen,4_88_2,2023-09-15T22:00:46.163Z,,0,,,NaN,,,,,,false,,,,453737.5999999996,453737.4000000004,,453737.30000000075,,453765.45,8,400,,,
sequence,flow.Sequence,4_88,2023-09-15T22:00:46.164Z,,0,,,11489.066000000399,completion,,,,,false,,,,453737.80000000075,453737.4000000004,442231.668,442220.19999999925,442248.334,453765.45,8,400,,,
trial,html.Screen,4_89_0,2023-09-15T22:00:57.679Z,,0,2,,11517.11699999997,timeout,ISIC_0024298.JPG,8,ISIC_4237064.JPG,,false,,,500,465254,465253.5,453748.784,453738,453765.45,465282.567,8,400,40,,
break,html.Screen,4_89_1,2023-09-15T22:00:57.680Z,,0,,,NaN,,,,,,false,,,,465254.9000000004,465254.69999999925,,465254.30000000075,,465282.567,8,400,,,
break_continue,html.Screen,4_89_2,2023-09-15T22:00:57.680Z,,0,,,NaN,,,,,,false,,,,465255.30000000075,465255.19999999925,,465255,,465282.567,8,400,,,
sequence,flow.Sequence,4_89,2023-09-15T22:00:57.681Z,,0,,,11489.749999999243,completion,,,,,false,,,,465255.4000000004,465255.19999999925,453748.784,453737.9000000004,453765.45,465282.567,8,400,,,
trial,html.Screen,4_90_0,2023-09-15T22:01:09.196Z,,0,2,,11517.116000000038,timeout,ISIC_6125358.JPG,4,ISIC_0553932.JPG,,false,,,500,476771.0999999996,476770.5999999996,465265.901,465255.69999999925,465282.567,476799.683,8,400,41,,
break,html.Screen,4_90_1,2023-09-15T22:01:09.197Z,,0,,,NaN,,,,,,false,,,,476772.0999999996,476771.9000000004,,476771.4000000004,,476799.683,8,400,,,
break_continue,html.Screen,4_90_2,2023-09-15T22:01:09.197Z,,0,,,NaN,,,,,,false,,,,476772.5,476772.30000000075,,476772.19999999925,,476799.683,8,400,,,
sequence,flow.Sequence,4_90,2023-09-15T22:01:09.197Z,,0,,,11489.733000000764,completion,,,,,false,,,,476772.5999999996,476772.30000000075,465265.901,465255.5999999996,465282.567,476799.683,8,400,,,
trial,html.Screen,4_91_0,2023-09-15T22:01:20.712Z,,0,2,,11517.130999999994,timeout,ISIC_7999342.JPG,9,ISIC_3568801.JPG,,false,,,500,488288,488287.5,476783.017,476772.80000000075,476799.683,488316.814,8,400,42,,
break,html.Screen,4_91_1,2023-09-15T22:01:20.713Z,,0,,,NaN,,,,,,false,,,,488288.9000000004,488288.69999999925,,488288.0999999996,,488316.814,8,400,,,
break_continue,html.Screen,4_91_2,2023-09-15T22:01:20.713Z,,0,,,NaN,,,,,,false,,,,488289.30000000075,488289.0999999996,,488289,,488316.814,8,400,,,
sequence,flow.Sequence,4_91,2023-09-15T22:01:20.713Z,,0,,,11489.416999999608,completion,,,,,false,,,,488289.5,488289.0999999996,476783.017,476772.69999999925,476799.683,488316.814,8,400,,,
trial,html.Screen,4_92_0,2023-09-15T22:01:32.229Z,,0,2,,11517.102000000014,timeout,ISIC_7409889.JPG,8,ISIC_4811593.JPG,,false,,,500,499805.0999999996,499804.5999999996,488300.148,488289.5999999996,488316.814,499833.916,8,400,43,,
break,html.Screen,4_92_1,2023-09-15T22:01:32.230Z,,0,,,NaN,,,,,,false,,,,499806.0999999996,499805.9000000004,,499805.4000000004,,499833.916,8,400,,,
break_continue,html.Screen,4_92_2,2023-09-15T22:01:32.230Z,,0,,,NaN,,,,,,false,,,,499806.4000000004,499806.4000000004,,499806.19999999925,,499833.916,8,400,,,
sequence,flow.Sequence,4_92,2023-09-15T22:01:32.230Z,,0,,,11489.58600000036,completion,,,,,false,,,,499806.5,499806.4000000004,488300.148,488289.5999999996,488316.814,499833.916,8,400,,,
trial,html.Screen,4_93_0,2023-09-15T22:01:43.744Z,,0,2,,11517.11699999997,timeout,ISIC_5994007.JPG,5,ISIC_0068126.JPG,,false,,,500,511321.5,511321,499817.25,499806.69999999925,499833.916,511351.033,8,400,44,,
break,html.Screen,4_93_1,2023-09-15T22:01:43.745Z,,0,,,NaN,,,,,,false,,,,511322.4000000004,511322.19999999925,,511321.5999999996,,511351.033,8,400,,,
break_continue,html.Screen,4_93_2,2023-09-15T22:01:43.746Z,,0,,,NaN,,,,,,false,,,,511322.80000000075,511322.5999999996,,511322.5999999996,,511351.033,8,400,,,
sequence,flow.Sequence,4_93,2023-09-15T22:01:43.746Z,,0,,,11488.683999999601,completion,,,,,false,,,,511322.9000000004,511322.5999999996,499817.25,499806.5999999996,499833.916,511351.033,8,400,,,
trial,html.Screen,4_94_0,2023-09-15T22:01:55.262Z,,0,2,,11517.117000000027,timeout,ISIC_0567814.JPG,9,ISIC_0055859.JPG,,false,,,500,522840,522839.5,511334.367,511323,511351.033,522868.15,8,400,45,,
break,html.Screen,4_94_1,2023-09-15T22:01:55.263Z,,0,,,NaN,,,,,,false,,,,522841.0999999996,522840.9000000004,,522840.4000000004,,522868.15,8,400,,,
break_continue,html.Screen,4_94_2,2023-09-15T22:01:55.264Z,,0,,,NaN,,,,,,false,,,,522841.4000000004,522841.30000000075,,522841.19999999925,,522868.15,8,400,,,
sequence,flow.Sequence,4_94,2023-09-15T22:01:55.264Z,,0,,,11490.26700000075,completion,,,,,false,,,,522841.69999999925,522841.30000000075,511334.367,511323,511351.033,522868.15,8,400,,,
trial,html.Screen,4_95_0,2023-09-15T22:02:06.777Z,,0,2,,11517.123000000021,timeout,ISIC_0067953.JPG,8,ISIC_0024277.JPG,,false,,,500,534355.3000000007,534354.6999999993,522851.484,522841.80000000075,522868.15,534385.273,8,400,46,,
break,html.Screen,4_95_1,2023-09-15T22:02:06.778Z,,0,,,NaN,,,,,,false,,,,534356.1999999993,534355.9000000004,,534355.5,,534385.273,8,400,,,
break_continue,html.Screen,4_95_2,2023-09-15T22:02:06.778Z,,0,,,NaN,,,,,,false,,,,534356.5,534356.4000000004,,534356.3000000007,,534385.273,8,400,,,
sequence,flow.Sequence,4_95,2023-09-15T22:02:06.778Z,,0,,,11488.25000000035,completion,,,,,false,,,,534356.6999999993,534356.4000000004,522851.484,522841.69999999925,522868.15,534385.273,8,400,,,
trial,html.Screen,4_96_0,2023-09-15T22:02:18.296Z,,0,2,,11517.110999999917,timeout,ISIC_2175855.JPG,5,ISIC_9001948.JPG,,false,,,500,545875.1999999993,545874.9000000004,534368.607,534356.9000000004,534385.273,545902.384,8,400,47,,
break,html.Screen,4_96_1,2023-09-15T22:02:18.297Z,,0,,,NaN,,,,,,false,,,,545876.1999999993,545876.0999999996,,545875.5999999996,,545902.384,8,400,,,
break_continue,html.Screen,4_96_2,2023-09-15T22:02:18.298Z,,0,,,NaN,,,,,,false,,,,545876.6999999993,545876.5999999996,,545876.4000000004,,545902.384,8,400,,,
sequence,flow.Sequence,4_96,2023-09-15T22:02:18.298Z,,0,,,11491.326999999583,completion,,,,,false,,,,545876.8000000007,545876.5999999996,534368.607,534356.8000000007,534385.273,545902.384,8,400,,,
trial,html.Screen,4_97_0,2023-09-15T22:02:29.811Z,,0,2,,11517.117000000086,timeout,ISIC_7225978.JPG,4,ISIC_0010912.JPG,,false,,,500,557390,557389.5,545885.718,545876.9000000004,545902.384,557419.501,8,400,48,,
break,html.Screen,4_97_1,2023-09-15T22:02:29.811Z,,0,,,NaN,,,,,,false,,,,557390.9000000004,557390.6999999993,,557390.1999999993,,557419.501,8,400,,,
break_continue,html.Screen,4_97_2,2023-09-15T22:02:29.812Z,,0,,,NaN,,,,,,false,,,,557391.1999999993,557391.0999999996,,557391,,557419.501,8,400,,,
sequence,flow.Sequence,4_97,2023-09-15T22:02:29.812Z,,0,,,11488.715999999666,completion,,,,,false,,,,557391.4000000004,557391.0999999996,545885.718,545876.8000000007,545902.384,557419.501,8,400,,,
trial,html.Screen,4_98_0,2023-09-15T22:02:41.327Z,,0,2,,11517.125,timeout,ISIC_0006672.JPG,5,ISIC_0011404.JPG,,false,,,500,568907.1999999993,568906.8000000007,557402.835,557391.5,557419.501,568936.626,8,400,49,,
break,html.Screen,4_98_1,2023-09-15T22:02:41.328Z,,0,,,NaN,,,,,,false,,,,568908.1999999993,568907.9000000004,,568907.5,,568936.626,8,400,,,
break_continue,html.Screen,4_98_2,2023-09-15T22:02:41.329Z,,0,,,NaN,,,,,,false,,,,568908.5,568908.4000000004,,568908.3000000007,,568936.626,8,400,,,
sequence,flow.Sequence,4_98,2023-09-15T22:02:41.329Z,,0,,,11488.899000000325,completion,,,,,false,,,,568908.8000000007,568908.4000000004,557402.835,557391.5,557419.501,568936.626,8,400,,,
trial,html.Screen,4_99_0,2023-09-15T22:02:52.843Z,,0,2,,11517.108999999939,timeout,ISIC_1149693.JPG,5,ISIC_8121679.JPG,,false,,,500,580423.8000000007,580423.3000000007,568919.96,568908.9000000004,568936.626,580453.735,8,400,50,,
break,html.Screen,4_99_1,2023-09-15T22:03:02.859Z,,0,,,10000.445999999996,timeout,,,,,false,,,,590440.1999999993,590437.515,580437.069,580424,580453.735,590454.181,8,400,,,
break_continue,html.Screen,4_99_2,2023-09-15T22:04:26.709Z,,0,,,83825.21900000039,response,,,,,false,continue,keypress(Space),,674294.5999999996,674279.4000000004,590437.515,590440.5,590454.181,674300.827,8,400,,,
sequence,flow.Sequence,4_99,2023-09-15T22:04:26.709Z,,0,,,105342.77400000033,completion,,,,,false,,,,674294.6999999993,674279.4000000004,568919.96,568908.8000000007,568936.626,674300.827,8,400,,,
trial,html.Screen,4_100_0,2023-09-15T22:04:38.210Z,,0,3,,11523.875999999931,timeout,ISIC_5813642.JPG,8,ISIC_6442221.JPG,ISIC_5813642.JPG,false,,,500,685796.3000000007,685795.8000000007,674284.161,674294.8000000007,674300.827,685824.703,8,400,1,,ISIC_6442221.JPG
break,html.Screen,4_100_1,2023-09-15T22:04:38.211Z,,0,,,NaN,,,,,,false,,,,685797.4000000004,685797.0999999996,,685796.5999999996,,685824.703,8,400,,,
break_continue,html.Screen,4_100_2,2023-09-15T22:04:38.212Z,,0,,,NaN,,,,,,false,,,,685797.6999999993,685797.5999999996,,685797.5,,685824.703,8,400,,,
sequence,flow.Sequence,4_100,2023-09-15T22:04:38.212Z,,0,,,11496.772999999579,completion,,,,,false,,,,685797.9000000004,685797.5999999996,674284.161,674294.8000000007,674300.827,685824.703,8,400,,,
trial,html.Screen,4_101_0,2023-09-15T22:04:41.091Z,,0,3,,2851.5970000007655,response,ISIC_2798803.JPG,8,ISIC_0033261.JPG,ISIC_2798803.JPG,false,1,keypress(m),500,688676.9000000004,688676.3000000007,685808.037,685798.0999999996,685824.703,688691.255,8,400,2,,ISIC_0033261.JPG
break,html.Screen,4_101_1,2023-09-15T22:04:41.092Z,,0,,,NaN,,,,,,false,,,,688677.9000000004,688677.6999999993,,688677.1999999993,,688691.255,8,400,,,
break_continue,html.Screen,4_101_2,2023-09-15T22:04:41.092Z,,0,,,NaN,,,,,,false,,,,688678.1999999993,688678.0999999996,,688678,,688691.255,8,400,,,
sequence,flow.Sequence,4_101,2023-09-15T22:04:41.092Z,,0,,,2853.396999999648,completion,,,,,false,,,,688678.4000000004,688678.0999999996,685808.037,685798,685824.703,688691.255,8,400,,,
trial,html.Screen,4_102_0,2023-09-15T22:04:43.873Z,,0,3,,2767.645000000368,response,ISIC_9008026.JPG,5,ISIC_3893354.JPG,ISIC_9008026.JPG,false,1,keypress(m),500,691459.4000000004,691458.9000000004,688674.589,688678.6999999993,688691.255,691474.477,8,400,3,,ISIC_3893354.JPG
break,html.Screen,4_102_1,2023-09-15T22:04:43.874Z,,0,,,NaN,,,,,,false,,,,691460.4000000004,691460.0999999996,,691459.6999999993,,691474.477,8,400,,,
break_continue,html.Screen,4_102_2,2023-09-15T22:04:43.875Z,,0,,,NaN,,,,,,false,,,,691460.6999999993,691460.5,,691460.4000000004,,691474.477,8,400,,,
sequence,flow.Sequence,4_102,2023-09-15T22:04:43.875Z,,0,,,2769.2449999999953,completion,,,,,false,,,,691460.9000000004,691460.5,688674.589,688678.6999999993,688691.255,691474.477,8,400,,,
trial,html.Screen,4_103_0,2023-09-15T22:04:46.357Z,,0,3,,2468.7229999992996,response,ISIC_0879097.JPG,7,ISIC_3045939.JPG,ISIC_3045939.JPG,false,0,keypress(z),500,693943.6999999993,693943.1999999993,691457.811,691461,691474.477,693957.711,8,400,4,,ISIC_0879097.JPG
break,html.Screen,4_103_1,2023-09-15T22:04:46.358Z,,0,,,NaN,,,,,,false,,,,693944.8000000007,693944.5,,693944,,693957.711,8,400,,,
break_continue,html.Screen,4_103_2,2023-09-15T22:04:46.359Z,,0,,,NaN,,,,,,false,,,,693945,693945,,693944.9000000004,,693957.711,8,400,,,
sequence,flow.Sequence,4_103,2023-09-15T22:04:46.359Z,,0,,,2470.5230000000447,completion,,,,,false,,,,693945.3000000007,693945,691457.811,691461,691474.477,693957.711,8,400,,,
trial,html.Screen,4_104_0,2023-09-15T22:04:49.003Z,,0,3,,2630.7889999999898,response,ISIC_4153542.JPG,8,ISIC_0025744.JPG,ISIC_0025744.JPG,false,0,keypress(z),500,696588.9000000004,696588.5,693941.045,693945.4000000004,693957.711,696591.745,8,400,5,,ISIC_4153542.JPG
break,html.Screen,4_104_1,2023-09-15T22:04:49.003Z,,0,,,NaN,,,,,,false,,,,696589.9000000004,696589.5999999996,,696589.1999999993,,696591.745,8,400,,,
break_continue,html.Screen,4_104_2,2023-09-15T22:04:49.004Z,,0,,,NaN,,,,,,false,,,,696590.1999999993,696590.0999999996,,696590,,696591.745,8,400,,,
sequence,flow.Sequence,4_104,2023-09-15T22:04:49.004Z,,0,,,2632.388999999617,completion,,,,,false,,,,696590.5,696590.0999999996,693941.045,693945.3000000007,693957.711,696591.745,8,400,,,
trial,html.Screen,4_105_0,2023-09-15T22:04:51.818Z,,0,3,,2812.354999999632,response,ISIC_0003822.JPG,8,ISIC_0030575.JPG,ISIC_0003822.JPG,false,1,keypress(m),500,699404.5,699404.0999999996,696575.079,696590.5999999996,696591.745,699408.299,8,400,6,,ISIC_0030575.JPG
break,html.Screen,4_105_1,2023-09-15T22:04:51.819Z,,0,,,NaN,,,,,,false,,,,699405.5999999996,699405.3000000007,,699404.9000000004,,699408.299,8,400,,,
break_continue,html.Screen,4_105_2,2023-09-15T22:04:51.819Z,,0,,,NaN,,,,,,false,,,,699405.9000000004,699405.8000000007,,699405.6999999993,,699408.299,8,400,,,
sequence,flow.Sequence,4_105,2023-09-15T22:04:51.820Z,,0,,,2814.0550000007497,completion,,,,,false,,,,699406.0999999996,699405.8000000007,696575.079,696590.5,696591.745,699408.299,8,400,,,
trial,html.Screen,4_106_0,2023-09-15T22:04:54.479Z,,0,3,,2657.3009999996284,response,ISIC_6260969.JPG,5,ISIC_8773962.JPG,ISIC_8773962.JPG,false,0,keypress(z),500,702066,702065.5999999996,699391.633,699406.1999999993,699408.299,702074.859,8,400,7,,ISIC_6260969.JPG
break,html.Screen,4_106_1,2023-09-15T22:04:54.480Z,,0,,,NaN,,,,,,false,,,,702067,702066.8000000007,,702066.4000000004,,702074.859,8,400,,,
break_continue,html.Screen,4_106_2,2023-09-15T22:04:54.481Z,,0,,,NaN,,,,,,false,,,,702067.4000000004,702067.3000000007,,702067.1999999993,,702074.859,8,400,,,
sequence,flow.Sequence,4_106,2023-09-15T22:04:54.481Z,,0,,,2659.001000000746,completion,,,,,false,,,,702067.5999999996,702067.3000000007,699391.633,699406.1999999993,699408.299,702074.859,8,400,,,
trial,html.Screen,4_107_0,2023-09-15T22:04:57.238Z,,0,3,,2749.94100000069,response,ISIC_0063493.JPG,6,ISIC_0026963.JPG,ISIC_0026963.JPG,false,0,keypress(z),500,704825.3000000007,704824.8000000007,702058.193,702067.6999999993,702074.859,704841.415,8,400,8,,ISIC_0063493.JPG
break,html.Screen,4_107_1,2023-09-15T22:04:57.239Z,,0,,,NaN,,,,,,false,,,,704826.1999999993,704826,,704825.5999999996,,704841.415,8,400,,,
break_continue,html.Screen,4_107_2,2023-09-15T22:04:57.240Z,,0,,,NaN,,,,,,false,,,,704826.5999999996,704826.5,,704826.4000000004,,704841.415,8,400,,,
sequence,flow.Sequence,4_107,2023-09-15T22:04:57.240Z,,0,,,2751.640999999945,completion,,,,,false,,,,704826.8000000007,704826.5,702058.193,702067.6999999993,702074.859,704841.415,8,400,,,
trial,html.Screen,4_108_0,2023-09-15T22:05:00.426Z,,0,3,,3171.4850000003353,response,ISIC_7369312.JPG,9,ISIC_0027193.JPG,ISIC_7369312.JPG,false,1,keypress(m),500,708013.3000000007,708012.9000000004,704824.749,704826.9000000004,704841.415,708025.424,8,400,9,,ISIC_0027193.JPG
break,html.Screen,4_108_1,2023-09-15T22:05:00.427Z,,0,,,NaN,,,,,,false,,,,708014.4000000004,708014.1999999993,,708013.6999999993,,708025.424,8,400,,,
break_continue,html.Screen,4_108_2,2023-09-15T22:05:00.428Z,,0,,,NaN,,,,,,false,,,,708014.6999999993,708014.5999999996,,708014.5,,708025.424,8,400,,,
sequence,flow.Sequence,4_108,2023-09-15T22:05:00.428Z,,0,,,3173.18499999959,completion,,,,,false,,,,708014.9000000004,708014.5999999996,704824.749,704826.9000000004,704841.415,708025.424,8,400,,,
trial,html.Screen,4_109_0,2023-09-15T22:05:11.926Z,,0,3,,11517.145000000019,timeout,ISIC_3410193.JPG,6,ISIC_0033394.JPG,,false,,,500,719514,719513.5,708008.758,708015,708025.424,719542.569,8,400,10,,
break,html.Screen,4_109_1,2023-09-15T22:05:11.927Z,,0,,,NaN,,,,,,false,,,,719514.9000000004,719514.5999999996,,719514.1999999993,,719542.569,8,400,,,
break_continue,html.Screen,4_109_2,2023-09-15T22:05:11.928Z,,0,,,NaN,,,,,,false,,,,719515.1999999993,719515.0999999996,,719515,,719542.569,8,400,,,
sequence,flow.Sequence,4_109,2023-09-15T22:05:11.928Z,,0,,,11489.675999999628,completion,,,,,false,,,,719515.4000000004,719515.0999999996,708008.758,708014.9000000004,708025.424,719542.569,8,400,,,
trial,html.Screen,4_110_0,2023-09-15T22:05:23.443Z,,0,3,,11517.116000000038,timeout,ISIC_5602826.JPG,7,ISIC_0065766.JPG,,false,,,500,731030.6999999993,731030.3000000007,719525.903,719515.5999999996,719542.569,731059.685,8,400,11,,
break,html.Screen,4_110_1,2023-09-15T22:05:23.443Z,,0,,,NaN,,,,,,false,,,,731031.5999999996,731031.4000000004,,731030.9000000004,,731059.685,8,400,,,
break_continue,html.Screen,4_110_2,2023-09-15T22:05:23.444Z,,0,,,NaN,,,,,,false,,,,731032,731031.9000000004,,731031.8000000007,,731059.685,8,400,,,
sequence,flow.Sequence,4_110,2023-09-15T22:05:23.444Z,,0,,,11489.331000000355,completion,,,,,false,,,,731032.0999999996,731031.9000000004,719525.903,719515.5,719542.569,731059.685,8,400,,,
trial,html.Screen,4_111_0,2023-09-15T22:05:34.960Z,,0,3,,11517.118999999948,timeout,ISIC_0062161.JPG,5,ISIC_2202486.JPG,,false,,,500,742548.4000000004,742547.9000000004,731043.019,731032.3000000007,731059.685,742576.804,8,400,12,,
break,html.Screen,4_111_1,2023-09-15T22:05:34.961Z,,0,,,NaN,,,,,,false,,,,742549.3000000007,742549,,742548.5,,742576.804,8,400,,,
break_continue,html.Screen,4_111_2,2023-09-15T22:05:34.961Z,,0,,,NaN,,,,,,false,,,,742549.5999999996,742549.5,,742549.4000000004,,742576.804,8,400,,,
sequence,flow.Sequence,4_111,2023-09-15T22:05:34.961Z,,0,,,11489.814999999944,completion,,,,,false,,,,742549.6999999993,742549.5,731043.019,731032.3000000007,731059.685,742576.804,8,400,,,
trial,html.Screen,4_112_0,2023-09-15T22:05:46.476Z,,0,3,,11517.118000000017,timeout,ISIC_0010295.JPG,7,ISIC_1819358.JPG,,false,,,500,754065.3000000007,754064.8000000007,742560.138,742549.9000000004,742576.804,754093.922,8,400,13,,
break,html.Screen,4_112_1,2023-09-15T22:05:46.477Z,,0,,,NaN,,,,,,false,,,,754066.1999999993,754066,,754065.5,,754093.922,8,400,,,
break_continue,html.Screen,4_112_2,2023-09-15T22:05:46.477Z,,0,,,NaN,,,,,,false,,,,754066.5,754066.5,,754066.4000000004,,754093.922,8,400,,,
sequence,flow.Sequence,4_112,2023-09-15T22:05:46.477Z,,0,,,11489.695999999996,completion,,,,,false,,,,754066.6999999993,754066.5,742560.138,742549.8000000007,742576.804,754093.922,8,400,,,
trial,html.Screen,4_113_0,2023-09-15T22:05:57.992Z,,0,3,,11517.118000000017,timeout,ISIC_4950467.JPG,9,ISIC_0027248.JPG,,false,,,500,765581.8000000007,765581.4000000004,754077.256,754067,754093.922,765611.04,8,400,14,,
break,html.Screen,4_113_1,2023-09-15T22:05:57.993Z,,0,,,NaN,,,,,,false,,,,765582.8000000007,765582.5,,765582,,765611.04,8,400,,,
break_continue,html.Screen,4_113_2,2023-09-15T22:05:57.993Z,,0,,,NaN,,,,,,false,,,,765583.0999999996,765582.9000000004,,765582.9000000004,,765611.04,8,400,,,
sequence,flow.Sequence,4_113,2023-09-15T22:05:57.993Z,,0,,,11488.978000000352,completion,,,,,false,,,,765583.3000000007,765582.9000000004,754077.256,754066.8000000007,754093.922,765611.04,8,400,,,
trial,html.Screen,4_114_0,2023-09-15T22:06:09.509Z,,0,3,,11517.118999999948,timeout,ISIC_0000046.JPG,5,ISIC_1142933.JPG,,false,,,500,777099.1999999993,777098.8000000007,765594.374,765583.4000000004,765611.04,777128.159,8,400,15,,
break,html.Screen,4_114_1,2023-09-15T22:06:09.510Z,,0,,,NaN,,,,,,false,,,,777100.1999999993,777100,,777099.4000000004,,777128.159,8,400,,,
break_continue,html.Screen,4_114_2,2023-09-15T22:06:09.510Z,,0,,,NaN,,,,,,false,,,,777100.5,777100.4000000004,,777100.3000000007,,777128.159,8,400,,,
sequence,flow.Sequence,4_114,2023-09-15T22:06:09.510Z,,0,,,11489.360000000335,completion,,,,,false,,,,777100.5999999996,777100.4000000004,765594.374,765583.4000000004,765611.04,777128.159,8,400,,,
trial,html.Screen,4_115_0,2023-09-15T22:06:21.025Z,,0,3,,11517.119000000064,timeout,ISIC_2975167.JPG,6,ISIC_2513481.JPG,,false,,,500,788616,788615.5,777111.493,777100.8000000007,777128.159,788645.278,8,400,16,,
break,html.Screen,4_115_1,2023-09-15T22:06:21.026Z,,0,,,NaN,,,,,,false,,,,788617,788616.6999999993,,788616.1999999993,,788645.278,8,400,,,
break_continue,html.Screen,4_115_2,2023-09-15T22:06:21.026Z,,0,,,NaN,,,,,,false,,,,788617.3000000007,788617.1999999993,,788617.0999999996,,788645.278,8,400,,,
sequence,flow.Sequence,4_115,2023-09-15T22:06:21.026Z,,0,,,11489.04099999927,completion,,,,,false,,,,788617.4000000004,788617.1999999993,777111.493,777100.6999999993,777128.159,788645.278,8,400,,,
trial,html.Screen,4_116_0,2023-09-15T22:06:32.542Z,,0,3,,11517.118999999948,timeout,ISIC_1886756.JPG,6,ISIC_0000314.JPG,,false,,,500,800133.8000000007,800133.4000000004,788628.612,788617.5,788645.278,800162.397,8,400,17,,
break,html.Screen,4_116_1,2023-09-15T22:06:32.543Z,,0,,,NaN,,,,,,false,,,,800134.6999999993,800134.5,,800134,,800162.397,8,400,,,
break_continue,html.Screen,4_116_2,2023-09-15T22:06:32.543Z,,0,,,NaN,,,,,,false,,,,800135.0999999996,800134.9000000004,,800134.9000000004,,800162.397,8,400,,,
sequence,flow.Sequence,4_116,2023-09-15T22:06:32.544Z,,0,,,11489.622000000323,completion,,,,,false,,,,800135.1999999993,800134.9000000004,788628.612,788617.4000000004,788645.278,800162.397,8,400,,,
trial,html.Screen,4_117_0,2023-09-15T22:06:44.058Z,,0,3,,11517.118000000017,timeout,ISIC_7260977.JPG,6,ISIC_0025289.JPG,,false,,,500,811650.8000000007,811650.1999999993,800145.731,800135.4000000004,800162.397,811679.515,8,400,18,,
break,html.Screen,4_117_1,2023-09-15T22:06:44.059Z,,0,,,NaN,,,,,,false,,,,811651.6999999993,811651.4000000004,,811650.9000000004,,811679.515,8,400,,,
break_continue,html.Screen,4_117_2,2023-09-15T22:06:44.060Z,,0,,,NaN,,,,,,false,,,,811652,811651.9000000004,,811651.8000000007,,811679.515,8,400,,,
sequence,flow.Sequence,4_117,2023-09-15T22:06:44.060Z,,0,,,11489.503000000375,completion,,,,,false,,,,811652.1999999993,811651.9000000004,800145.731,800135.3000000007,800162.397,811679.515,8,400,,,
trial,html.Screen,4_118_0,2023-09-15T22:06:47.438Z,,0,3,,3350.8850000003586,response,ISIC_1619470.JPG,5,ISIC_0001138.JPG,ISIC_0001138.JPG,false,0,keypress(z),500,815030.8000000007,815030.4000000004,811662.849,811652.3000000007,811679.515,815046.047,8,400,19,,ISIC_1619470.JPG
break,html.Screen,4_118_1,2023-09-15T22:06:47.439Z,,0,,,NaN,,,,,,false,,,,815031.8000000007,815031.5999999996,,815031.0999999996,,815046.047,8,400,,,
break_continue,html.Screen,4_118_2,2023-09-15T22:06:47.440Z,,0,,,NaN,,,,,,false,,,,815032.1999999993,815032.0999999996,,815032,,815046.047,8,400,,,
sequence,flow.Sequence,4_118,2023-09-15T22:06:47.440Z,,0,,,3352.5849999996135,completion,,,,,false,,,,815032.4000000004,815032.0999999996,811662.849,811652.3000000007,811679.515,815046.047,8,400,,,
trial,html.Screen,4_119_0,2023-09-15T22:06:49.923Z,,0,3,,2469.4529999999795,response,ISIC_7935007.JPG,5,ISIC_6201199.JPG,ISIC_7935007.JPG,false,1,keypress(m),500,817516,817515.5,815029.381,815032.5999999996,815046.047,817529.281,8,400,20,,ISIC_6201199.JPG
break,html.Screen,4_119_1,2023-09-15T22:06:49.924Z,,0,,,NaN,,,,,,false,,,,817516.9000000004,817516.6999999993,,817516.1999999993,,817529.281,8,400,,,
break_continue,html.Screen,4_119_2,2023-09-15T22:06:49.925Z,,0,,,NaN,,,,,,false,,,,817517.3000000007,817517.1999999993,,817517.0999999996,,817529.281,8,400,,,
sequence,flow.Sequence,4_119,2023-09-15T22:06:49.925Z,,0,,,2471.1529999992345,completion,,,,,false,,,,817517.5,817517.1999999993,815029.381,815032.5,815046.047,817529.281,8,400,,,
trial,html.Screen,4_120_0,2023-09-15T22:06:52.468Z,,0,3,,2530.418999999296,response,ISIC_0028757.JPG,7,ISIC_0034262.JPG,ISIC_0028757.JPG,false,1,keypress(m),500,820060.1999999993,820059.6999999993,817512.615,817517.5999999996,817529.281,820062.513,8,400,21,,ISIC_0034262.JPG
break,html.Screen,4_120_1,2023-09-15T22:06:52.469Z,,0,,,NaN,,,,,,false,,,,820061.1999999993,820061,,820060.5,,820062.513,8,400,,,
break_continue,html.Screen,4_120_2,2023-09-15T22:06:52.469Z,,0,,,NaN,,,,,,false,,,,820061.5999999996,820061.5,,820061.4000000004,,820062.513,8,400,,,
sequence,flow.Sequence,4_120,2023-09-15T22:06:52.469Z,,0,,,2532.219000000041,completion,,,,,false,,,,820061.6999999993,820061.5,817512.615,817517.5999999996,817529.281,820062.513,8,400,,,
trial,html.Screen,4_121_0,2023-09-15T22:06:55.225Z,,0,3,,2754.387000000337,response,ISIC_8803600.JPG,5,ISIC_0272509.JPG,ISIC_8803600.JPG,false,1,keypress(m),500,822817.4000000004,822816.9000000004,820045.847,820061.9000000004,820062.513,822829.878,8,400,22,,ISIC_0272509.JPG
break,html.Screen,4_121_1,2023-09-15T22:06:55.226Z,,0,,,NaN,,,,,,false,,,,822818.4000000004,822818.1999999993,,822817.5999999996,,822829.878,8,400,,,
break_continue,html.Screen,4_121_2,2023-09-15T22:06:55.226Z,,0,,,NaN,,,,,,false,,,,822818.6999999993,822818.5999999996,,822818.5,,822829.878,8,400,,,
sequence,flow.Sequence,4_121,2023-09-15T22:06:55.226Z,,0,,,2756.086999999592,completion,,,,,false,,,,822818.9000000004,822818.5999999996,820045.847,820061.8000000007,820062.513,822829.878,8,400,,,
trial,html.Screen,4_122_0,2023-09-15T22:06:59.869Z,,0,3,,4631.321999999229,response,ISIC_0000287.JPG,8,ISIC_3410193.JPG,ISIC_0000287.JPG,false,1,keypress(m),500,827461.8000000007,827461.1999999993,822813.212,822819,822829.878,827479.692,8,400,23,,ISIC_3410193.JPG
break,html.Screen,4_122_1,2023-09-15T22:06:59.870Z,,0,,,NaN,,,,,,false,,,,827462.6999999993,827462.5999999996,,827462,,827479.692,8,400,,,
break_continue,html.Screen,4_122_2,2023-09-15T22:06:59.870Z,,0,,,NaN,,,,,,false,,,,827463.0999999996,827463,,827462.9000000004,,827479.692,8,400,,,
sequence,flow.Sequence,4_122,2023-09-15T22:06:59.870Z,,0,,,4633.121999999974,completion,,,,,false,,,,827463.3000000007,827463,822813.212,822819,822829.878,827479.692,8,400,,,
trial,html.Screen,4_123_0,2023-09-15T22:07:03.393Z,,0,3,,3506.4079999995884,response,ISIC_9738202.JPG,8,ISIC_0031494.JPG,ISIC_0031494.JPG,false,0,keypress(z),500,830986.5999999996,830986.0999999996,827463.026,827463.4000000004,827479.692,830997.066,8,400,24,,ISIC_9738202.JPG
break,html.Screen,4_123_1,2023-09-15T22:07:03.394Z,,0,,,NaN,,,,,,false,,,,830987.5999999996,830987.4000000004,,830986.9000000004,,830997.066,8,400,,,
break_continue,html.Screen,4_123_2,2023-09-15T22:07:03.395Z,,0,,,NaN,,,,,,false,,,,830988,830987.8000000007,,830987.8000000007,,830997.066,8,400,,,
sequence,flow.Sequence,4_123,2023-09-15T22:07:03.395Z,,0,,,3508.108000000706,completion,,,,,false,,,,830988.0999999996,830987.8000000007,827463.026,827463.4000000004,827479.692,830997.066,8,400,,,
trial,html.Screen,4_124_0,2023-09-15T22:07:06.374Z,,0,3,,2969.6339999992633,response,ISIC_0009642.JPG,7,ISIC_1644520.JPG,ISIC_1644520.JPG,false,0,keypress(z),500,833967.1999999993,833966.6999999993,830980.4,830988.3000000007,830997.066,833980.28,8,400,25,,ISIC_0009642.JPG
break,html.Screen,4_124_1,2023-09-15T22:07:06.375Z,,0,,,NaN,,,,,,false,,,,833968.1999999993,833968,,833967.4000000004,,833980.28,8,400,,,
break_continue,html.Screen,4_124_2,2023-09-15T22:07:06.375Z,,0,,,NaN,,,,,,false,,,,833968.5,833968.4000000004,,833968.3000000007,,833980.28,8,400,,,
sequence,flow.Sequence,4_124,2023-09-15T22:07:06.375Z,,0,,,2971.334000000381,completion,,,,,false,,,,833968.6999999993,833968.4000000004,830980.4,830988.3000000007,830997.066,833980.28,8,400,,,
trial,html.Screen,4_125_0,2023-09-15T22:07:09.018Z,,0,3,,2630.419999999227,response,ISIC_0033883.JPG,8,ISIC_0028338.JPG,ISIC_0033883.JPG,false,1,keypress(m),500,836611.0999999996,836610.6999999993,833963.614,833968.9000000004,833980.28,836613.508,8,400,26,,ISIC_0028338.JPG
break,html.Screen,4_125_1,2023-09-15T22:07:09.019Z,,0,,,NaN,,,,,,false,,,,836612.1999999993,836611.9000000004,,836611.4000000004,,836613.508,8,400,,,
break_continue,html.Screen,4_125_2,2023-09-15T22:07:09.019Z,,0,,,NaN,,,,,,false,,,,836612.5,836612.4000000004,,836612.3000000007,,836613.508,8,400,,,
sequence,flow.Sequence,4_125,2023-09-15T22:07:09.019Z,,0,,,2632.1200000003446,completion,,,,,false,,,,836612.6999999993,836612.4000000004,833963.614,833968.8000000007,833980.28,836613.508,8,400,,,
trial,html.Screen,4_126_0,2023-09-15T22:07:17.327Z,,0,3,,8306.99199999997,response,ISIC_3416107.JPG,8,ISIC_0005028.JPG,ISIC_0005028.JPG,false,0,keypress(z),500,844921,844920.5,836596.842,836612.8000000007,836613.508,844930.666,8,400,27,,ISIC_3416107.JPG
break,html.Screen,4_126_1,2023-09-15T22:07:17.328Z,,0,,,NaN,,,,,,false,,,,844922,844921.8000000007,,844921.3000000007,,844930.666,8,400,,,
break_continue,html.Screen,4_126_2,2023-09-15T22:07:17.328Z,,0,,,NaN,,,,,,false,,,,844922.3000000007,844922.1999999993,,844922.1999999993,,844930.666,8,400,,,
sequence,flow.Sequence,4_126,2023-09-15T22:07:17.329Z,,0,,,8308.691999999224,completion,,,,,false,,,,844922.5,844922.1999999993,836596.842,836612.8000000007,836613.508,844930.666,8,400,,,
trial,html.Screen,4_127_0,2023-09-15T22:07:19.916Z,,0,3,,2578.734000000404,response,ISIC_3064807.JPG,9,ISIC_5614300.JPG,ISIC_5614300.JPG,false,0,keypress(z),500,847509.9000000004,847509.4000000004,844914,844922.6999999993,844930.666,847513.896,8,400,28,,ISIC_3064807.JPG
break,html.Screen,4_127_1,2023-09-15T22:07:19.917Z,,0,,,NaN,,,,,,false,,,,847510.9000000004,847510.6999999993,,847510.1999999993,,847513.896,8,400,,,
break_continue,html.Screen,4_127_2,2023-09-15T22:07:19.917Z,,0,,,NaN,,,,,,false,,,,847511.1999999993,847511.0999999996,,847511,,847513.896,8,400,,,
sequence,flow.Sequence,4_127,2023-09-15T22:07:19.917Z,,0,,,2580.433999999659,completion,,,,,false,,,,847511.3000000007,847511.0999999996,844914,844922.5999999996,844930.666,847513.896,8,400,,,
