sender,sender_type,sender_id,timestamp,meta,,blockNo,condition,duration,ended_on,img_left,img_reveal,img_right,loser,practice,response,response_action,selection_duration,time_commit,time_end,time_render,time_run,time_show,time_switch,total_blocks,total_trials,trialNo,url,winner
informed_consent,html.Screen,0,2023-09-08T17:24:19.262Z,"{""labjs_version"":""20.2.4"",""labjs_build"":{""flavor"":""production"",""commit"":""f5b4a49f956347addd546a832a3327688c2c0fef""},""location"":""https://run.pavlovia.org/MurrayBennett/melanoma-2afc/?participant=63210b26bd58960c97b47ddc&STUDY_ID=64f8c92207ba404bcb356c90&SESSION_ID=64fb521d2cbc902782ab9f01&platform=prolific"",""userAgent"":""Mozilla/5.0 (Macintosh; Intel Mac OS X 10_15_7) AppleWebKit/537.36 (KHTML, like Gecko) Chrome/116.0.0.0 Safari/537.36"",""platform"":""MacIntel"",""language"":""en-US"",""locale"":""en-US"",""timeZone"":""America/New_York"",""timezoneOffset"":240,""screen_width"":2000,""screen_height"":1167,""scroll_width"":2000,""scroll_height"":1119,""window_innerWidth"":2000,""window_innerHeight"":1166,""devicePixelRatio"":1.7999999523162842}",,,,1481910,response,,,,,,consent,click button,,1483457,1483454,1403,1546,1544,1483461,,,,"{""participant"":""63210b26bd58960c97b47ddc"",""STUDY_ID"":""64f8c92207ba404bcb356c90"",""SESSION_ID"":""64fb521d2cbc902782ab9f01"",""platform"":""prolific""}",
Welcome,html.Screen,1,2023-09-08T17:26:42.662Z,,,,uniform,143394,response,,,,,,continue,click button,,1626858,1626855,1483453,1483457,1483461,1626865,,,,,
trial,html.Screen,2_0_0,2023-09-08T17:26:45.859Z,,0,0,,3189,response,ISIC_0063388.JPG,,ISIC_0025593.JPG,ISIC_0025593.JPG,true,0,keypress(z),500,1630055,1630054,1626856,1626858,1626865,1630056,1,6,1,,ISIC_0063388.JPG
sequence,flow.Sequence,2_0,2023-09-08T17:26:45.860Z,,0,,,3189,completion,,,,,true,,,,1630055,1630054,1626856,1626858,1626865,1630056,1,6,,,
trial,html.Screen,2_1_0,2023-09-08T17:26:49.580Z,,0,0,,3719,response,ISIC_1309015.JPG,,ISIC_0028178.JPG,ISIC_1309015.JPG,true,1,keypress(m),500,1633775,1633775,1630048,1630055,1630056,1633781,1,6,2,,ISIC_0028178.JPG
sequence,flow.Sequence,2_1,2023-09-08T17:26:49.580Z,,0,,,3719,completion,,,,,true,,,,1633775,1633775,1630048,1630055,1630056,1633781,1,6,,,
trial,html.Screen,2_2_0,2023-09-08T17:26:52.753Z,,0,0,,3167,response,ISIC_0031128.JPG,,ISIC_3314853.JPG,ISIC_0031128.JPG,true,1,keypress(m),500,1636948,1636948,1633773,1633775,1633781,1636952,1,6,3,,ISIC_3314853.JPG
sequence,flow.Sequence,2_2,2023-09-08T17:26:52.753Z,,0,,,3167,completion,,,,,true,,,,1636948,1636948,1633773,1633775,1633781,1636952,1,6,,,
trial,html.Screen,2_3_0,2023-09-08T17:26:56.199Z,,0,0,,3442,response,ISIC_8980141.JPG,,ISIC_0031612.JPG,ISIC_0031612.JPG,true,0,keypress(z),500,1640394,1640394,1636944,1636948,1636952,1640402,1,6,4,,ISIC_8980141.JPG
sequence,flow.Sequence,2_3,2023-09-08T17:26:56.199Z,,0,,,3442,completion,,,,,true,,,,1640395,1640394,1636944,1636948,1636952,1640402,1,6,,,
trial,html.Screen,2_4_0,2023-09-08T17:26:59.629Z,,0,0,,3422,response,ISIC_1197737.JPG,,ISIC_9721604.JPG,ISIC_1197737.JPG,true,1,keypress(m),500,1643825,1643824,1640394,1640395,1640402,1643827,1,6,5,,ISIC_9721604.JPG
sequence,flow.Sequence,2_4,2023-09-08T17:26:59.630Z,,0,,,3422,completion,,,,,true,,,,1643825,1643824,1640394,1640395,1640402,1643827,1,6,,,
trial,html.Screen,2_5_0,2023-09-08T17:27:02.844Z,,0,0,,3213,response,ISIC_0010681.JPG,,ISIC_0025346.JPG,ISIC_0025346.JPG,true,0,keypress(z),500,1647040,1647040,1643819,1643826,1643827,1647048,1,6,6,,ISIC_0010681.JPG
sequence,flow.Sequence,2_5,2023-09-08T17:27:02.845Z,,0,,,3213,completion,,,,,true,,,,1647040,1647040,1643819,1643826,1643827,1647048,1,6,,,
loop,flow.Loop,2,2023-09-08T17:27:02.845Z,,,,,20175,completion,,,,,true,,,,1647041,1647040,1626856,1626858,1626865,1647048,1,6,,,
exp_instructions,html.Screen,3,2023-09-08T17:28:11.666Z,,,,,68811,response,,,,,,continue,keypress(Space),,1715862,1715859,1647040,1647041,1647048,1715870,,,,,
trial,html.Screen,4_0_0,2023-09-08T17:28:15.242Z,,0,1,,3567,response,ISIC_4718237.JPG,7,ISIC_0000569.JPG,ISIC_4718237.JPG,false,1,keypress(m),500,1719437,1719437,1715862,1715862,1715870,1719439,8,400,1,,ISIC_0000569.JPG
break,html.Screen,4_0_1,2023-09-08T17:28:15.244Z,,0,,,NaN,,,,,,false,,,,1719440,1719438,,1719438,,1719439,8,400,,,
break_continue,html.Screen,4_0_2,2023-09-08T17:28:15.244Z,,0,,,NaN,,,,,,false,,,,1719440,1719440,,1719440,,1719439,8,400,,,
sequence,flow.Sequence,4_0,2023-09-08T17:28:15.245Z,,0,,,3570,completion,,,,,false,,,,1719440,1719440,1715862,1715862,1715870,1719439,8,400,,,
trial,html.Screen,4_1_0,2023-09-08T17:28:18.207Z,,0,1,,2963,response,ISIC_0056983.JPG,8,ISIC_0026347.JPG,ISIC_0056983.JPG,false,1,keypress(m),500,1722403,1722402,1719431,1719440,1719439,1722406,8,400,2,,ISIC_0026347.JPG
break,html.Screen,4_1_1,2023-09-08T17:28:18.208Z,,0,,,NaN,,,,,,false,,,,1722404,1722404,,1722403,,1722406,8,400,,,
break_continue,html.Screen,4_1_2,2023-09-08T17:28:18.209Z,,0,,,NaN,,,,,,false,,,,1722405,1722405,,1722404,,1722406,8,400,,,
sequence,flow.Sequence,4_1,2023-09-08T17:28:18.209Z,,0,,,2966,completion,,,,,false,,,,1722405,1722405,1719431,1719440,1719439,1722406,8,400,,,
trial,html.Screen,4_2_0,2023-09-08T17:28:21.462Z,,0,1,,3251,response,ISIC_0033206.JPG,8,ISIC_0011855.JPG,ISIC_0033206.JPG,false,1,keypress(m),500,1725658,1725657,1722397,1722405,1722406,1725664,8,400,3,,ISIC_0011855.JPG
break,html.Screen,4_2_1,2023-09-08T17:28:21.464Z,,0,,,NaN,,,,,,false,,,,1725659,1725659,,1725658,,1725664,8,400,,,
break_continue,html.Screen,4_2_2,2023-09-08T17:28:21.464Z,,0,,,NaN,,,,,,false,,,,1725659,1725659,,1725659,,1725664,8,400,,,
sequence,flow.Sequence,4_2,2023-09-08T17:28:21.464Z,,0,,,3253,completion,,,,,false,,,,1725660,1725659,1722397,1722405,1722406,1725664,8,400,,,
trial,html.Screen,4_3_0,2023-09-08T17:28:24.420Z,,0,1,,2951,response,ISIC_0000163.JPG,8,ISIC_5778927.JPG,ISIC_0000163.JPG,false,1,keypress(m),500,1728616,1728615,1725656,1725661,1725664,1728623,8,400,4,,ISIC_5778927.JPG
break,html.Screen,4_3_1,2023-09-08T17:28:24.422Z,,0,,,NaN,,,,,,false,,,,1728617,1728617,,1728616,,1728623,8,400,,,
break_continue,html.Screen,4_3_2,2023-09-08T17:28:24.422Z,,0,,,NaN,,,,,,false,,,,1728618,1728618,,1728618,,1728623,8,400,,,
sequence,flow.Sequence,4_3,2023-09-08T17:28:24.422Z,,0,,,2954,completion,,,,,false,,,,1728618,1728618,1725656,1725660,1725664,1728623,8,400,,,
trial,html.Screen,4_4_0,2023-09-08T17:28:28.499Z,,0,1,,4071,response,ISIC_5971591.JPG,9,ISIC_0027033.JPG,ISIC_5971591.JPG,false,1,keypress(m),500,1732694,1732694,1728614,1728619,1728623,1732697,8,400,5,,ISIC_0027033.JPG
break,html.Screen,4_4_1,2023-09-08T17:28:28.501Z,,0,,,NaN,,,,,,false,,,,1732696,1732696,,1732696,,1732697,8,400,,,
break_continue,html.Screen,4_4_2,2023-09-08T17:28:28.501Z,,0,,,NaN,,,,,,false,,,,1732696,1732696,,1732696,,1732697,8,400,,,
sequence,flow.Sequence,4_4,2023-09-08T17:28:28.501Z,,0,,,4073,completion,,,,,false,,,,1732697,1732696,1728614,1728619,1728623,1732697,8,400,,,
trial,html.Screen,4_5_0,2023-09-08T17:28:32.532Z,,0,1,,4031,response,ISIC_5148474.JPG,5,ISIC_6313487.JPG,ISIC_5148474.JPG,false,1,keypress(m),500,1736729,1736728,1732689,1732697,1732697,1736731,8,400,6,,ISIC_6313487.JPG
break,html.Screen,4_5_1,2023-09-08T17:28:32.534Z,,0,,,NaN,,,,,,false,,,,1736730,1736730,,1736729,,1736731,8,400,,,
break_continue,html.Screen,4_5_2,2023-09-08T17:28:32.534Z,,0,,,NaN,,,,,,false,,,,1736730,1736730,,1736730,,1736731,8,400,,,
sequence,flow.Sequence,4_5,2023-09-08T17:28:32.534Z,,0,,,4033,completion,,,,,false,,,,1736730,1736730,1732689,1732697,1732697,1736731,8,400,,,
trial,html.Screen,4_6_0,2023-09-08T17:28:36.795Z,,0,1,,4259,response,ISIC_5352684.JPG,8,ISIC_0073043.JPG,ISIC_0073043.JPG,false,0,keypress(z),500,1740991,1740990,1736722,1736731,1736731,1740997,8,400,7,,ISIC_5352684.JPG
break,html.Screen,4_6_1,2023-09-08T17:28:36.796Z,,0,,,NaN,,,,,,false,,,,1740991,1740991,,1740991,,1740997,8,400,,,
break_continue,html.Screen,4_6_2,2023-09-08T17:28:36.796Z,,0,,,NaN,,,,,,false,,,,1740992,1740992,,1740992,,1740997,8,400,,,
sequence,flow.Sequence,4_6,2023-09-08T17:28:36.796Z,,0,,,4261,completion,,,,,false,,,,1740992,1740992,1736722,1736731,1736731,1740997,8,400,,,
trial,html.Screen,4_7_0,2023-09-08T17:28:41.116Z,,0,1,,4315,response,ISIC_4980079.JPG,5,ISIC_4540332.JPG,ISIC_4980079.JPG,false,1,keypress(m),500,1745312,1745312,1740989,1740992,1740997,1745314,8,400,8,,ISIC_4540332.JPG
break,html.Screen,4_7_1,2023-09-08T17:28:41.117Z,,0,,,NaN,,,,,,false,,,,1745314,1745313,,1745312,,1745314,8,400,,,
break_continue,html.Screen,4_7_2,2023-09-08T17:28:41.118Z,,0,,,NaN,,,,,,false,,,,1745314,1745314,,1745314,,1745314,8,400,,,
sequence,flow.Sequence,4_7,2023-09-08T17:28:41.118Z,,0,,,4317,completion,,,,,false,,,,1745314,1745314,1740989,1740992,1740997,1745314,8,400,,,
trial,html.Screen,4_8_0,2023-09-08T17:28:44.548Z,,0,1,,3429,response,ISIC_0057892.JPG,7,ISIC_0032017.JPG,ISIC_0032017.JPG,false,0,keypress(z),500,1748743,1748743,1745306,1745314,1745314,1748747,8,400,9,,ISIC_0057892.JPG
break,html.Screen,4_8_1,2023-09-08T17:28:44.549Z,,0,,,NaN,,,,,,false,,,,1748745,1748745,,1748743,,1748747,8,400,,,
break_continue,html.Screen,4_8_2,2023-09-08T17:28:44.550Z,,0,,,NaN,,,,,,false,,,,1748745,1748745,,1748745,,1748747,8,400,,,
sequence,flow.Sequence,4_8,2023-09-08T17:28:44.550Z,,0,,,3431,completion,,,,,false,,,,1748745,1748745,1745306,1745314,1745314,1748747,8,400,,,
trial,html.Screen,4_9_0,2023-09-08T17:28:47.786Z,,0,1,,3235,response,ISIC_4156010.JPG,8,ISIC_9126992.JPG,ISIC_9126992.JPG,false,0,keypress(z),500,1751982,1751982,1748739,1748745,1748747,1751989,8,400,10,,ISIC_4156010.JPG
break,html.Screen,4_9_1,2023-09-08T17:28:47.787Z,,0,,,NaN,,,,,,false,,,,1751983,1751983,,1751982,,1751989,8,400,,,
break_continue,html.Screen,4_9_2,2023-09-08T17:28:47.788Z,,0,,,NaN,,,,,,false,,,,1751983,1751983,,1751983,,1751989,8,400,,,
sequence,flow.Sequence,4_9,2023-09-08T17:28:47.788Z,,0,,,3236,completion,,,,,false,,,,1751983,1751983,1748739,1748745,1748747,1751989,8,400,,,
trial,html.Screen,4_10_0,2023-09-08T17:28:52.207Z,,0,1,,4413,response,ISIC_9699426.JPG,6,ISIC_5008399.JPG,ISIC_5008399.JPG,false,0,keypress(z),500,1756403,1756402,1751981,1751984,1751989,1756405,8,400,11,,ISIC_9699426.JPG
break,html.Screen,4_10_1,2023-09-08T17:28:52.209Z,,0,,,NaN,,,,,,false,,,,1756405,1756404,,1756403,,1756405,8,400,,,
break_continue,html.Screen,4_10_2,2023-09-08T17:28:52.209Z,,0,,,NaN,,,,,,false,,,,1756405,1756405,,1756405,,1756405,8,400,,,
sequence,flow.Sequence,4_10,2023-09-08T17:28:52.209Z,,0,,,4416,completion,,,,,false,,,,1756405,1756405,1751981,1751983,1751989,1756405,8,400,,,
trial,html.Screen,4_11_0,2023-09-08T17:28:56.294Z,,0,1,,4085,response,ISIC_6813359.JPG,7,ISIC_0034048.JPG,ISIC_0034048.JPG,false,0,keypress(z),500,1760490,1760490,1756397,1756405,1756405,1760497,8,400,12,,ISIC_6813359.JPG
break,html.Screen,4_11_1,2023-09-08T17:28:56.296Z,,0,,,NaN,,,,,,false,,,,1760492,1760491,,1760491,,1760497,8,400,,,
break_continue,html.Screen,4_11_2,2023-09-08T17:28:56.297Z,,0,,,NaN,,,,,,false,,,,1760492,1760492,,1760492,,1760497,8,400,,,
sequence,flow.Sequence,4_11,2023-09-08T17:28:56.297Z,,0,,,4087,completion,,,,,false,,,,1760492,1760492,1756397,1756405,1756405,1760497,8,400,,,
trial,html.Screen,4_12_0,2023-09-08T17:29:00.781Z,,0,1,,4479,response,ISIC_2372468.JPG,5,ISIC_0024323.JPG,ISIC_0024323.JPG,false,0,keypress(z),500,1764977,1764976,1760489,1760492,1760497,1764980,8,400,13,,ISIC_2372468.JPG
break,html.Screen,4_12_1,2023-09-08T17:29:00.782Z,,0,,,NaN,,,,,,false,,,,1764978,1764978,,1764977,,1764980,8,400,,,
break_continue,html.Screen,4_12_2,2023-09-08T17:29:00.783Z,,0,,,NaN,,,,,,false,,,,1764978,1764978,,1764978,,1764980,8,400,,,
sequence,flow.Sequence,4_12,2023-09-08T17:29:00.783Z,,0,,,4481,completion,,,,,false,,,,1764978,1764978,1760489,1760492,1760497,1764980,8,400,,,
trial,html.Screen,4_13_0,2023-09-08T17:29:06.100Z,,0,1,,5315,response,ISIC_0010543.JPG,9,ISIC_0026544.JPG,ISIC_0010543.JPG,false,1,keypress(m),500,1770296,1770295,1764972,1764978,1764980,1770297,8,400,14,,ISIC_0026544.JPG
break,html.Screen,4_13_1,2023-09-08T17:29:06.102Z,,0,,,NaN,,,,,,false,,,,1770298,1770298,,1770296,,1770297,8,400,,,
break_continue,html.Screen,4_13_2,2023-09-08T17:29:06.102Z,,0,,,NaN,,,,,,false,,,,1770298,1770298,,1770298,,1770297,8,400,,,
sequence,flow.Sequence,4_13,2023-09-08T17:29:06.103Z,,0,,,5318,completion,,,,,false,,,,1770299,1770298,1764972,1764978,1764980,1770297,8,400,,,
trial,html.Screen,4_14_0,2023-09-08T17:29:10.828Z,,0,1,,4727,response,ISIC_1344537.JPG,6,ISIC_7956417.JPG,ISIC_1344537.JPG,false,1,keypress(m),500,1775024,1775024,1770289,1770299,1770297,1775030,8,400,15,,ISIC_7956417.JPG
break,html.Screen,4_14_1,2023-09-08T17:29:10.830Z,,0,,,NaN,,,,,,false,,,,1775025,1775025,,1775024,,1775030,8,400,,,
break_continue,html.Screen,4_14_2,2023-09-08T17:29:10.830Z,,0,,,NaN,,,,,,false,,,,1775026,1775026,,1775025,,1775030,8,400,,,
sequence,flow.Sequence,4_14,2023-09-08T17:29:10.830Z,,0,,,4729,completion,,,,,false,,,,1775026,1775026,1770289,1770299,1770297,1775030,8,400,,,
trial,html.Screen,4_15_0,2023-09-08T17:29:14.497Z,,0,1,,3662,response,ISIC_9596388.JPG,8,ISIC_0026043.JPG,ISIC_0026043.JPG,false,0,keypress(z),500,1778692,1778692,1775022,1775026,1775030,1778697,8,400,16,,ISIC_9596388.JPG
break,html.Screen,4_15_1,2023-09-08T17:29:14.498Z,,0,,,NaN,,,,,,false,,,,1778694,1778694,,1778693,,1778697,8,400,,,
break_continue,html.Screen,4_15_2,2023-09-08T17:29:14.498Z,,0,,,NaN,,,,,,false,,,,1778694,1778694,,1778694,,1778697,8,400,,,
sequence,flow.Sequence,4_15,2023-09-08T17:29:14.499Z,,0,,,3664,completion,,,,,false,,,,1778695,1778694,1775022,1775026,1775030,1778697,8,400,,,
trial,html.Screen,4_16_0,2023-09-08T17:29:19.381Z,,0,1,,4879,response,ISIC_0062160.JPG,6,ISIC_0055169.JPG,ISIC_0055169.JPG,false,0,keypress(z),500,1783577,1783576,1778689,1778695,1778697,1783580,8,400,17,,ISIC_0062160.JPG
break,html.Screen,4_16_1,2023-09-08T17:29:19.382Z,,0,,,NaN,,,,,,false,,,,1783578,1783578,,1783577,,1783580,8,400,,,
break_continue,html.Screen,4_16_2,2023-09-08T17:29:19.383Z,,0,,,NaN,,,,,,false,,,,1783578,1783578,,1783578,,1783580,8,400,,,
sequence,flow.Sequence,4_16,2023-09-08T17:29:19.383Z,,0,,,4881,completion,,,,,false,,,,1783578,1783578,1778689,1778695,1778697,1783580,8,400,,,
trial,html.Screen,4_17_0,2023-09-08T17:29:24.940Z,,0,1,,5556,response,ISIC_0031908.JPG,5,ISIC_6905623.JPG,ISIC_0031908.JPG,false,1,keypress(m),500,1789136,1789136,1783572,1783579,1783580,1789139,8,400,18,,ISIC_6905623.JPG
break,html.Screen,4_17_1,2023-09-08T17:29:24.942Z,,0,,,NaN,,,,,,false,,,,1789137,1789137,,1789136,,1789139,8,400,,,
break_continue,html.Screen,4_17_2,2023-09-08T17:29:24.944Z,,0,,,NaN,,,,,,false,,,,1789139,1789137,,1789137,,1789139,8,400,,,
sequence,flow.Sequence,4_17,2023-09-08T17:29:24.944Z,,0,,,5557,completion,,,,,false,,,,1789139,1789137,1783572,1783579,1783580,1789139,8,400,,,
trial,html.Screen,4_18_0,2023-09-08T17:29:28.251Z,,0,1,,3308,response,ISIC_6400232.JPG,7,ISIC_3901421.JPG,ISIC_6400232.JPG,false,1,keypress(m),500,1792447,1792447,1789130,1789140,1789139,1792451,8,400,19,,ISIC_3901421.JPG
break,html.Screen,4_18_1,2023-09-08T17:29:28.253Z,,0,,,NaN,,,,,,false,,,,1792448,1792448,,1792447,,1792451,8,400,,,
break_continue,html.Screen,4_18_2,2023-09-08T17:29:28.253Z,,0,,,NaN,,,,,,false,,,,1792449,1792449,,1792448,,1792451,8,400,,,
sequence,flow.Sequence,4_18,2023-09-08T17:29:28.253Z,,0,,,3310,completion,,,,,false,,,,1792449,1792449,1789130,1789140,1789139,1792451,8,400,,,
trial,html.Screen,4_19_0,2023-09-08T17:29:32.032Z,,0,1,,3777,response,ISIC_0015401.JPG,8,ISIC_0025369.JPG,ISIC_0015401.JPG,false,1,keypress(m),500,1796228,1796228,1792443,1792449,1792451,1796234,8,400,20,,ISIC_0025369.JPG
break,html.Screen,4_19_1,2023-09-08T17:29:32.034Z,,0,,,NaN,,,,,,false,,,,1796230,1796229,,1796228,,1796234,8,400,,,
break_continue,html.Screen,4_19_2,2023-09-08T17:29:32.034Z,,0,,,NaN,,,,,,false,,,,1796230,1796230,,1796230,,1796234,8,400,,,
sequence,flow.Sequence,4_19,2023-09-08T17:29:32.034Z,,0,,,3779,completion,,,,,false,,,,1796230,1796230,1792443,1792449,1792451,1796234,8,400,,,
trial,html.Screen,4_20_0,2023-09-08T17:29:37.064Z,,0,1,,5025,response,ISIC_5652135.JPG,8,ISIC_2768150.JPG,ISIC_2768150.JPG,false,0,keypress(z),500,1801260,1801259,1796226,1796230,1796234,1801268,8,400,21,,ISIC_5652135.JPG
break,html.Screen,4_20_1,2023-09-08T17:29:37.066Z,,0,,,NaN,,,,,,false,,,,1801261,1801261,,1801261,,1801268,8,400,,,
break_continue,html.Screen,4_20_2,2023-09-08T17:29:37.066Z,,0,,,NaN,,,,,,false,,,,1801262,1801262,,1801261,,1801268,8,400,,,
sequence,flow.Sequence,4_20,2023-09-08T17:29:37.066Z,,0,,,5028,completion,,,,,false,,,,1801262,1801262,1796226,1796230,1796234,1801268,8,400,,,
trial,html.Screen,4_21_0,2023-09-08T17:29:42.148Z,,0,1,,5075,response,ISIC_0013997.JPG,6,ISIC_0025658.JPG,ISIC_0013997.JPG,false,1,keypress(m),500,1806343,1806343,1801260,1801262,1801268,1806351,8,400,22,,ISIC_0025658.JPG
break,html.Screen,4_21_1,2023-09-08T17:29:42.149Z,,0,,,NaN,,,,,,false,,,,1806345,1806345,,1806344,,1806351,8,400,,,
break_continue,html.Screen,4_21_2,2023-09-08T17:29:42.149Z,,0,,,NaN,,,,,,false,,,,1806346,1806345,,1806345,,1806351,8,400,,,
sequence,flow.Sequence,4_21,2023-09-08T17:29:42.149Z,,0,,,5077,completion,,,,,false,,,,1806346,1806345,1801260,1801262,1801268,1806351,8,400,,,
trial,html.Screen,4_22_0,2023-09-08T17:29:45.253Z,,0,1,,3097,response,ISIC_0028129.JPG,8,ISIC_0072612.JPG,ISIC_0072612.JPG,false,0,keypress(z),500,1809449,1809448,1806343,1806346,1806351,1809451,8,400,23,,ISIC_0028129.JPG
break,html.Screen,4_22_1,2023-09-08T17:29:45.254Z,,0,,,NaN,,,,,,false,,,,1809450,1809450,,1809449,,1809451,8,400,,,
break_continue,html.Screen,4_22_2,2023-09-08T17:29:45.255Z,,0,,,NaN,,,,,,false,,,,1809451,1809451,,1809450,,1809451,8,400,,,
sequence,flow.Sequence,4_22,2023-09-08T17:29:45.255Z,,0,,,3100,completion,,,,,false,,,,1809451,1809451,1806343,1806346,1806351,1809451,8,400,,,
trial,html.Screen,4_23_0,2023-09-08T17:29:49.098Z,,0,1,,3842,response,ISIC_2682861.JPG,9,ISIC_0026166.JPG,ISIC_0026166.JPG,false,0,keypress(z),500,1813293,1813293,1809443,1809451,1809451,1813297,8,400,24,,ISIC_2682861.JPG
break,html.Screen,4_23_1,2023-09-08T17:29:49.100Z,,0,,,NaN,,,,,,false,,,,1813296,1813296,,1813295,,1813297,8,400,,,
break_continue,html.Screen,4_23_2,2023-09-08T17:29:49.101Z,,0,,,NaN,,,,,,false,,,,1813296,1813296,,1813296,,1813297,8,400,,,
sequence,flow.Sequence,4_23,2023-09-08T17:29:49.101Z,,0,,,3845,completion,,,,,false,,,,1813297,1813296,1809443,1809451,1809451,1813297,8,400,,,
trial,html.Screen,4_24_0,2023-09-08T17:29:53.663Z,,0,1,,4561,response,ISIC_0013865.JPG,5,ISIC_4226395.JPG,ISIC_0013865.JPG,false,1,keypress(m),500,1817859,1817858,1813289,1813297,1813297,1817864,8,400,25,,ISIC_4226395.JPG
break,html.Screen,4_24_1,2023-09-08T17:29:53.664Z,,0,,,NaN,,,,,,false,,,,1817860,1817860,,1817859,,1817864,8,400,,,
break_continue,html.Screen,4_24_2,2023-09-08T17:29:53.665Z,,0,,,NaN,,,,,,false,,,,1817861,1817861,,1817861,,1817864,8,400,,,
sequence,flow.Sequence,4_24,2023-09-08T17:29:53.665Z,,0,,,4564,completion,,,,,false,,,,1817861,1817861,1813289,1813297,1813297,1817864,8,400,,,
trial,html.Screen,4_25_0,2023-09-08T17:29:58.867Z,,0,1,,5198,response,ISIC_5736292.JPG,5,ISIC_4894929.JPG,ISIC_5736292.JPG,false,1,keypress(m),500,1823062,1823062,1817855,1817861,1817864,1823064,8,400,26,,ISIC_4894929.JPG
break,html.Screen,4_25_1,2023-09-08T17:29:58.868Z,,0,,,NaN,,,,,,false,,,,1823064,1823064,,1823062,,1823064,8,400,,,
break_continue,html.Screen,4_25_2,2023-09-08T17:29:58.868Z,,0,,,NaN,,,,,,false,,,,1823065,1823064,,1823064,,1823064,8,400,,,
sequence,flow.Sequence,4_25,2023-09-08T17:29:58.869Z,,0,,,5200,completion,,,,,false,,,,1823065,1823064,1817855,1817861,1817864,1823064,8,400,,,
trial,html.Screen,4_26_0,2023-09-08T17:30:03.426Z,,0,1,,4557,response,ISIC_1495182.JPG,7,ISIC_0030703.JPG,ISIC_1495182.JPG,false,1,keypress(m),500,1827622,1827621,1823055,1823065,1823064,1827630,8,400,27,,ISIC_0030703.JPG
break,html.Screen,4_26_1,2023-09-08T17:30:03.428Z,,0,,,NaN,,,,,,false,,,,1827624,1827624,,1827622,,1827630,8,400,,,
break_continue,html.Screen,4_26_2,2023-09-08T17:30:03.428Z,,0,,,NaN,,,,,,false,,,,1827624,1827624,,1827624,,1827630,8,400,,,
sequence,flow.Sequence,4_26,2023-09-08T17:30:03.428Z,,0,,,4560,completion,,,,,false,,,,1827624,1827624,1823055,1823065,1823064,1827630,8,400,,,
trial,html.Screen,4_27_0,2023-09-08T17:30:09.001Z,,0,1,,5567,response,ISIC_0014308.JPG,5,ISIC_0026666.JPG,ISIC_0026666.JPG,false,0,keypress(z),500,1833197,1833197,1827622,1827624,1827630,1833205,8,400,28,,ISIC_0014308.JPG
break,html.Screen,4_27_1,2023-09-08T17:30:09.003Z,,0,,,NaN,,,,,,false,,,,1833198,1833198,,1833197,,1833205,8,400,,,
break_continue,html.Screen,4_27_2,2023-09-08T17:30:09.003Z,,0,,,NaN,,,,,,false,,,,1833199,1833199,,1833199,,1833205,8,400,,,
sequence,flow.Sequence,4_27,2023-09-08T17:30:09.004Z,,0,,,5569,completion,,,,,false,,,,1833199,1833199,1827622,1827624,1827630,1833205,8,400,,,
trial,html.Screen,4_28_0,2023-09-08T17:30:12.348Z,,0,1,,3338,response,ISIC_0174983.JPG,6,ISIC_8048162.JPG,ISIC_8048162.JPG,false,0,keypress(z),500,1836544,1836543,1833197,1833199,1833205,1836547,8,400,29,,ISIC_0174983.JPG
break,html.Screen,4_28_1,2023-09-08T17:30:12.349Z,,0,,,NaN,,,,,,false,,,,1836545,1836545,,1836544,,1836547,8,400,,,
break_continue,html.Screen,4_28_2,2023-09-08T17:30:12.350Z,,0,,,NaN,,,,,,false,,,,1836546,1836545,,1836545,,1836547,8,400,,,
sequence,flow.Sequence,4_28,2023-09-08T17:30:12.350Z,,0,,,3340,completion,,,,,false,,,,1836546,1836545,1833197,1833199,1833205,1836547,8,400,,,
trial,html.Screen,4_29_0,2023-09-08T17:30:15.762Z,,0,1,,3410,response,ISIC_5413788.JPG,8,ISIC_6644659.JPG,ISIC_6644659.JPG,false,0,keypress(z),500,1839958,1839957,1836539,1836546,1836547,1839963,8,400,30,,ISIC_5413788.JPG
break,html.Screen,4_29_1,2023-09-08T17:30:15.763Z,,0,,,NaN,,,,,,false,,,,1839959,1839959,,1839958,,1839963,8,400,,,
break_continue,html.Screen,4_29_2,2023-09-08T17:30:15.764Z,,0,,,NaN,,,,,,false,,,,1839960,1839960,,1839959,,1839963,8,400,,,
sequence,flow.Sequence,4_29,2023-09-08T17:30:15.764Z,,0,,,3413,completion,,,,,false,,,,1839960,1839960,1836539,1836546,1836547,1839963,8,400,,,
trial,html.Screen,4_30_0,2023-09-08T17:30:20.520Z,,0,1,,4753,response,ISIC_7788814.JPG,4,ISIC_1735204.JPG,ISIC_7788814.JPG,false,1,keypress(m),500,1844716,1844716,1839955,1839960,1839963,1844722,8,400,31,,ISIC_1735204.JPG
break,html.Screen,4_30_1,2023-09-08T17:30:20.522Z,,0,,,NaN,,,,,,false,,,,1844718,1844718,,1844716,,1844722,8,400,,,
break_continue,html.Screen,4_30_2,2023-09-08T17:30:20.522Z,,0,,,NaN,,,,,,false,,,,1844719,1844719,,1844718,,1844722,8,400,,,
sequence,flow.Sequence,4_30,2023-09-08T17:30:20.522Z,,0,,,4756,completion,,,,,false,,,,1844719,1844719,1839955,1839960,1839963,1844722,8,400,,,
trial,html.Screen,4_31_0,2023-09-08T17:30:23.933Z,,0,1,,3406,response,ISIC_7896667.JPG,9,ISIC_5634573.JPG,ISIC_5634573.JPG,false,0,keypress(z),500,1848129,1848128,1844714,1844719,1844722,1848138,8,400,32,,ISIC_7896667.JPG
break,html.Screen,4_31_1,2023-09-08T17:30:23.935Z,,0,,,NaN,,,,,,false,,,,1848130,1848130,,1848129,,1848138,8,400,,,
break_continue,html.Screen,4_31_2,2023-09-08T17:30:23.935Z,,0,,,NaN,,,,,,false,,,,1848131,1848131,,1848130,,1848138,8,400,,,
sequence,flow.Sequence,4_31,2023-09-08T17:30:23.935Z,,0,,,3409,completion,,,,,false,,,,1848132,1848131,1844714,1844719,1844722,1848138,8,400,,,
trial,html.Screen,4_32_0,2023-09-08T17:30:28.092Z,,0,1,,4150,response,ISIC_5568525.JPG,7,ISIC_0069175.JPG,ISIC_0069175.JPG,false,0,keypress(z),500,1852288,1852288,1848130,1848132,1848138,1852297,8,400,33,,ISIC_5568525.JPG
break,html.Screen,4_32_1,2023-09-08T17:30:28.094Z,,0,,,NaN,,,,,,false,,,,1852290,1852289,,1852289,,1852297,8,400,,,
break_continue,html.Screen,4_32_2,2023-09-08T17:30:28.094Z,,0,,,NaN,,,,,,false,,,,1852290,1852290,,1852290,,1852297,8,400,,,
sequence,flow.Sequence,4_32,2023-09-08T17:30:28.094Z,,0,,,4152,completion,,,,,false,,,,1852290,1852290,1848130,1848132,1848138,1852297,8,400,,,
trial,html.Screen,4_33_0,2023-09-08T17:30:32.051Z,,0,1,,3950,response,ISIC_0057593.JPG,8,ISIC_6159783.JPG,ISIC_6159783.JPG,false,0,keypress(z),500,1856247,1856247,1852288,1852290,1852297,1856255,8,400,34,,ISIC_0057593.JPG
break,html.Screen,4_33_1,2023-09-08T17:30:32.052Z,,0,,,NaN,,,,,,false,,,,1856248,1856248,,1856247,,1856255,8,400,,,
break_continue,html.Screen,4_33_2,2023-09-08T17:30:32.053Z,,0,,,NaN,,,,,,false,,,,1856249,1856248,,1856248,,1856255,8,400,,,
sequence,flow.Sequence,4_33,2023-09-08T17:30:32.053Z,,0,,,3951,completion,,,,,false,,,,1856249,1856248,1852288,1852290,1852297,1856255,8,400,,,
trial,html.Screen,4_34_0,2023-09-08T17:30:34.952Z,,0,1,,2893,response,ISIC_2670619.JPG,5,ISIC_0066150.JPG,ISIC_0066150.JPG,false,0,keypress(z),500,1859148,1859148,1856247,1856249,1856255,1859155,8,400,35,,ISIC_2670619.JPG
break,html.Screen,4_34_1,2023-09-08T17:30:34.953Z,,0,,,NaN,,,,,,false,,,,1859149,1859149,,1859149,,1859155,8,400,,,
break_continue,html.Screen,4_34_2,2023-09-08T17:30:34.954Z,,0,,,NaN,,,,,,false,,,,1859150,1859149,,1859149,,1859155,8,400,,,
sequence,flow.Sequence,4_34,2023-09-08T17:30:34.954Z,,0,,,2894,completion,,,,,false,,,,1859150,1859149,1856247,1856249,1856255,1859155,8,400,,,
trial,html.Screen,4_35_0,2023-09-08T17:30:39.006Z,,0,1,,4046,response,ISIC_5298608.JPG,8,ISIC_9100283.JPG,ISIC_5298608.JPG,false,1,keypress(m),500,1863202,1863201,1859147,1859150,1859155,1863205,8,400,36,,ISIC_9100283.JPG
break,html.Screen,4_35_1,2023-09-08T17:30:39.008Z,,0,,,NaN,,,,,,false,,,,1863204,1863203,,1863203,,1863205,8,400,,,
break_continue,html.Screen,4_35_2,2023-09-08T17:30:39.009Z,,0,,,NaN,,,,,,false,,,,1863205,1863205,,1863204,,1863205,8,400,,,
sequence,flow.Sequence,4_35,2023-09-08T17:30:39.009Z,,0,,,4050,completion,,,,,false,,,,1863205,1863205,1859147,1859150,1859155,1863205,8,400,,,
trial,html.Screen,4_36_0,2023-09-08T17:30:43.196Z,,0,1,,4187,response,ISIC_0055048.JPG,8,ISIC_5998926.JPG,ISIC_0055048.JPG,false,1,keypress(m),500,1867392,1867392,1863196,1863205,1863205,1867397,8,400,37,,ISIC_5998926.JPG
break,html.Screen,4_36_1,2023-09-08T17:30:43.198Z,,0,,,NaN,,,,,,false,,,,1867394,1867394,,1867392,,1867397,8,400,,,
break_continue,html.Screen,4_36_2,2023-09-08T17:30:43.199Z,,0,,,NaN,,,,,,false,,,,1867395,1867395,,1867395,,1867397,8,400,,,
sequence,flow.Sequence,4_36,2023-09-08T17:30:43.199Z,,0,,,4190,completion,,,,,false,,,,1867395,1867395,1863196,1863205,1863205,1867397,8,400,,,
trial,html.Screen,4_37_0,2023-09-08T17:30:46.988Z,,0,1,,3787,response,ISIC_0010644.JPG,6,ISIC_5746904.JPG,ISIC_0010644.JPG,false,1,keypress(m),500,1871184,1871184,1867388,1867395,1867397,1871188,8,400,38,,ISIC_5746904.JPG
break,html.Screen,4_37_1,2023-09-08T17:30:46.990Z,,0,,,NaN,,,,,,false,,,,1871186,1871185,,1871184,,1871188,8,400,,,
break_continue,html.Screen,4_37_2,2023-09-08T17:30:46.991Z,,0,,,NaN,,,,,,false,,,,1871186,1871186,,1871186,,1871188,8,400,,,
sequence,flow.Sequence,4_37,2023-09-08T17:30:46.991Z,,0,,,3789,completion,,,,,false,,,,1871187,1871186,1867388,1867395,1867397,1871188,8,400,,,
trial,html.Screen,4_38_0,2023-09-08T17:30:53.627Z,,0,1,,6635,response,ISIC_0046741.JPG,7,ISIC_3837132.JPG,ISIC_0046741.JPG,false,1,keypress(m),500,1877824,1877823,1871180,1871187,1871188,1877826,8,400,39,,ISIC_3837132.JPG
break,html.Screen,4_38_1,2023-09-08T17:30:53.629Z,,0,,,NaN,,,,,,false,,,,1877825,1877824,,1877824,,1877826,8,400,,,
break_continue,html.Screen,4_38_2,2023-09-08T17:30:53.629Z,,0,,,NaN,,,,,,false,,,,1877825,1877825,,1877825,,1877826,8,400,,,
sequence,flow.Sequence,4_38,2023-09-08T17:30:53.630Z,,0,,,6637,completion,,,,,false,,,,1877825,1877825,1871180,1871187,1871188,1877826,8,400,,,
trial,html.Screen,4_39_0,2023-09-08T17:30:58.589Z,,0,1,,4958,response,ISIC_0011527.JPG,8,ISIC_0033830.JPG,ISIC_0011527.JPG,false,1,keypress(m),500,1882785,1882784,1877818,1877825,1877826,1882792,8,400,40,,ISIC_0033830.JPG
break,html.Screen,4_39_1,2023-09-08T17:30:58.591Z,,0,,,NaN,,,,,,false,,,,1882786,1882786,,1882785,,1882792,8,400,,,
break_continue,html.Screen,4_39_2,2023-09-08T17:30:58.591Z,,0,,,NaN,,,,,,false,,,,1882787,1882787,,1882786,,1882792,8,400,,,
sequence,flow.Sequence,4_39,2023-09-08T17:30:58.591Z,,0,,,4961,completion,,,,,false,,,,1882787,1882787,1877818,1877825,1877826,1882792,8,400,,,
trial,html.Screen,4_40_0,2023-09-08T17:31:01.708Z,,0,1,,3112,response,ISIC_0000440.JPG,4,ISIC_7050122.JPG,ISIC_0000440.JPG,false,1,keypress(m),500,1885904,1885904,1882784,1882787,1882792,1885909,8,400,41,,ISIC_7050122.JPG
break,html.Screen,4_40_1,2023-09-08T17:31:01.709Z,,0,,,NaN,,,,,,false,,,,1885905,1885905,,1885904,,1885909,8,400,,,
break_continue,html.Screen,4_40_2,2023-09-08T17:31:01.709Z,,0,,,NaN,,,,,,false,,,,1885905,1885905,,1885905,,1885909,8,400,,,
sequence,flow.Sequence,4_40,2023-09-08T17:31:01.710Z,,0,,,3113,completion,,,,,false,,,,1885905,1885905,1882784,1882787,1882792,1885909,8,400,,,
trial,html.Screen,4_41_0,2023-09-08T17:31:05.121Z,,0,1,,3407,response,ISIC_0011692.JPG,8,ISIC_0033213.JPG,ISIC_0011692.JPG,false,1,keypress(m),500,1889317,1889316,1885901,1885905,1885909,1889326,8,400,42,,ISIC_0033213.JPG
break,html.Screen,4_41_1,2023-09-08T17:31:05.122Z,,0,,,NaN,,,,,,false,,,,1889319,1889319,,1889317,,1889326,8,400,,,
break_continue,html.Screen,4_41_2,2023-09-08T17:31:05.123Z,,0,,,NaN,,,,,,false,,,,1889319,1889319,,1889319,,1889326,8,400,,,
sequence,flow.Sequence,4_41,2023-09-08T17:31:05.123Z,,0,,,3410,completion,,,,,false,,,,1889319,1889319,1885901,1885905,1885909,1889326,8,400,,,
trial,html.Screen,4_42_0,2023-09-08T17:31:08.518Z,,0,1,,3388,response,ISIC_0013473.JPG,7,ISIC_6544382.JPG,ISIC_0013473.JPG,false,1,keypress(m),500,1892714,1892714,1889317,1889319,1889326,1892726,8,400,43,,ISIC_6544382.JPG
break,html.Screen,4_42_1,2023-09-08T17:31:08.519Z,,0,,,NaN,,,,,,false,,,,1892715,1892715,,1892714,,1892726,8,400,,,
break_continue,html.Screen,4_42_2,2023-09-08T17:31:08.520Z,,0,,,NaN,,,,,,false,,,,1892716,1892716,,1892716,,1892726,8,400,,,
sequence,flow.Sequence,4_42,2023-09-08T17:31:08.520Z,,0,,,3390,completion,,,,,false,,,,1892716,1892716,1889317,1889319,1889326,1892726,8,400,,,
trial,html.Screen,4_43_0,2023-09-08T17:31:11.933Z,,0,1,,3402,response,ISIC_0010011.JPG,6,ISIC_0055293.JPG,ISIC_0055293.JPG,false,0,keypress(z),500,1896129,1896128,1892717,1892716,1892726,1896134,8,400,44,,ISIC_0010011.JPG
break,html.Screen,4_43_1,2023-09-08T17:31:11.934Z,,0,,,NaN,,,,,,false,,,,1896130,1896129,,1896129,,1896134,8,400,,,
break_continue,html.Screen,4_43_2,2023-09-08T17:31:11.934Z,,0,,,NaN,,,,,,false,,,,1896131,1896131,,1896130,,1896134,8,400,,,
sequence,flow.Sequence,4_43,2023-09-08T17:31:11.935Z,,0,,,3405,completion,,,,,false,,,,1896131,1896131,1892717,1892716,1892726,1896134,8,400,,,
trial,html.Screen,4_44_0,2023-09-08T17:31:15.345Z,,0,1,,3407,response,ISIC_3475660.JPG,8,ISIC_0959863.JPG,ISIC_3475660.JPG,false,1,keypress(m),500,1899541,1899541,1896126,1896131,1896134,1899547,8,400,45,,ISIC_0959863.JPG
break,html.Screen,4_44_1,2023-09-08T17:31:15.347Z,,0,,,NaN,,,,,,false,,,,1899543,1899543,,1899542,,1899547,8,400,,,
break_continue,html.Screen,4_44_2,2023-09-08T17:31:15.347Z,,0,,,NaN,,,,,,false,,,,1899544,1899544,,1899544,,1899547,8,400,,,
sequence,flow.Sequence,4_44,2023-09-08T17:31:15.348Z,,0,,,3410,completion,,,,,false,,,,1899544,1899544,1896126,1896131,1896134,1899547,8,400,,,
trial,html.Screen,4_45_0,2023-09-08T17:31:19.529Z,,0,1,,4178,response,ISIC_0027276.JPG,8,ISIC_9593940.JPG,ISIC_9593940.JPG,false,0,keypress(z),500,1903725,1903725,1899538,1899544,1899547,1903730,8,400,46,,ISIC_0027276.JPG
break,html.Screen,4_45_1,2023-09-08T17:31:19.532Z,,0,,,NaN,,,,,,false,,,,1903728,1903727,,1903726,,1903730,8,400,,,
break_continue,html.Screen,4_45_2,2023-09-08T17:31:19.533Z,,0,,,NaN,,,,,,false,,,,1903728,1903728,,1903728,,1903730,8,400,,,
sequence,flow.Sequence,4_45,2023-09-08T17:31:19.533Z,,0,,,4181,completion,,,,,false,,,,1903728,1903728,1899538,1899544,1899547,1903730,8,400,,,
trial,html.Screen,4_46_0,2023-09-08T17:31:25.345Z,,0,1,,5811,response,ISIC_9509813.JPG,6,ISIC_3549225.JPG,ISIC_3549225.JPG,false,0,keypress(z),500,1909541,1909541,1903721,1903728,1903730,1909555,8,400,47,,ISIC_9509813.JPG
break,html.Screen,4_46_1,2023-09-08T17:31:25.346Z,,0,,,NaN,,,,,,false,,,,1909543,1909542,,1909541,,1909555,8,400,,,
break_continue,html.Screen,4_46_2,2023-09-08T17:31:25.346Z,,0,,,NaN,,,,,,false,,,,1909543,1909543,,1909543,,1909555,8,400,,,
sequence,flow.Sequence,4_46,2023-09-08T17:31:25.347Z,,0,,,5813,completion,,,,,false,,,,1909543,1909543,1903721,1903728,1903730,1909555,8,400,,,
trial,html.Screen,4_47_0,2023-09-08T17:31:30.484Z,,0,1,,5125,response,ISIC_6793603.JPG,9,ISIC_4271108.JPG,ISIC_4271108.JPG,false,0,keypress(z),500,1914680,1914680,1909547,1909543,1909555,1914688,8,400,48,,ISIC_6793603.JPG
break,html.Screen,4_47_1,2023-09-08T17:31:30.486Z,,0,,,NaN,,,,,,false,,,,1914682,1914682,,1914681,,1914688,8,400,,,
break_continue,html.Screen,4_47_2,2023-09-08T17:31:30.486Z,,0,,,NaN,,,,,,false,,,,1914682,1914682,,1914682,,1914688,8,400,,,
sequence,flow.Sequence,4_47,2023-09-08T17:31:30.486Z,,0,,,5127,completion,,,,,false,,,,1914682,1914682,1909547,1909543,1909555,1914688,8,400,,,
trial,html.Screen,4_48_0,2023-09-08T17:31:35.058Z,,0,1,,4565,response,ISIC_2266715.JPG,5,ISIC_0033004.JPG,ISIC_0033004.JPG,false,0,keypress(z),500,1919255,1919253,1914680,1914683,1914688,1919263,8,400,49,,ISIC_2266715.JPG
break,html.Screen,4_48_1,2023-09-08T17:31:35.060Z,,0,,,NaN,,,,,,false,,,,1919256,1919256,,1919255,,1919263,8,400,,,
break_continue,html.Screen,4_48_2,2023-09-08T17:31:35.061Z,,0,,,NaN,,,,,,false,,,,1919256,1919256,,1919256,,1919263,8,400,,,
sequence,flow.Sequence,4_48,2023-09-08T17:31:35.061Z,,0,,,4568,completion,,,,,false,,,,1919256,1919256,1914680,1914682,1914688,1919263,8,400,,,
trial,html.Screen,4_49_0,2023-09-08T17:31:41.653Z,,0,1,,6586,response,ISIC_3445468.JPG,5,ISIC_0032466.JPG,ISIC_3445468.JPG,false,1,keypress(m),500,1925850,1925849,1919254,1919257,1919263,1925850,8,400,50,,ISIC_0032466.JPG
break,html.Screen,4_49_1,2023-09-08T17:31:51.650Z,,0,,,10000,timeout,,,,,false,,,,1935846,1935842,1925842,1925850,1925850,1935850,8,400,,,
break_continue,html.Screen,4_49_2,2023-09-08T17:31:53.652Z,,0,,,1989,response,,,,,false,continue,keypress(Space),,1937848,1937839,1935842,1935846,1935850,1937850,8,400,,,
sequence,flow.Sequence,4_49,2023-09-08T17:31:53.653Z,,0,,,18576,completion,,,,,false,,,,1937848,1937839,1919254,1919256,1919263,1937850,8,400,,,
trial,html.Screen,4_50_0,2023-09-08T17:31:59.316Z,,0,2,,5662,response,ISIC_8922893.JPG,8,ISIC_0062639.JPG,ISIC_0062639.JPG,false,0,keypress(z),500,1943512,1943512,1937842,1937848,1937850,1943521,8,400,1,,ISIC_8922893.JPG
break,html.Screen,4_50_1,2023-09-08T17:31:59.317Z,,0,,,NaN,,,,,,false,,,,1943513,1943513,,1943513,,1943521,8,400,,,
break_continue,html.Screen,4_50_2,2023-09-08T17:31:59.318Z,,0,,,NaN,,,,,,false,,,,1943514,1943513,,1943513,,1943521,8,400,,,
sequence,flow.Sequence,4_50,2023-09-08T17:31:59.318Z,,0,,,5663,completion,,,,,false,,,,1943514,1943513,1937842,1937848,1937850,1943521,8,400,,,
trial,html.Screen,4_51_0,2023-09-08T17:32:05.642Z,,0,2,,6317,response,ISIC_0024527.JPG,7,ISIC_0032204.JPG,ISIC_0032204.JPG,false,0,keypress(z),500,1949838,1949838,1943513,1943514,1943521,1949846,8,400,2,,ISIC_0024527.JPG
break,html.Screen,4_51_1,2023-09-08T17:32:05.644Z,,0,,,NaN,,,,,,false,,,,1949841,1949840,,1949839,,1949846,8,400,,,
break_continue,html.Screen,4_51_2,2023-09-08T17:32:05.645Z,,0,,,NaN,,,,,,false,,,,1949841,1949841,,1949841,,1949846,8,400,,,
sequence,flow.Sequence,4_51,2023-09-08T17:32:05.645Z,,0,,,6320,completion,,,,,false,,,,1949841,1949841,1943513,1943514,1943521,1949846,8,400,,,
trial,html.Screen,4_52_0,2023-09-08T17:32:10.272Z,,0,2,,4621,response,ISIC_9116323.JPG,7,ISIC_3664380.JPG,ISIC_3664380.JPG,false,0,keypress(z),500,1954468,1954467,1949838,1949841,1949846,1954471,8,400,3,,ISIC_9116323.JPG
break,html.Screen,4_52_1,2023-09-08T17:32:10.273Z,,0,,,NaN,,,,,,false,,,,1954470,1954469,,1954468,,1954471,8,400,,,
break_continue,html.Screen,4_52_2,2023-09-08T17:32:10.274Z,,0,,,NaN,,,,,,false,,,,1954470,1954470,,1954470,,1954471,8,400,,,
sequence,flow.Sequence,4_52,2023-09-08T17:32:10.274Z,,0,,,4624,completion,,,,,false,,,,1954471,1954470,1949838,1949841,1949846,1954471,8,400,,,
trial,html.Screen,4_53_0,2023-09-08T17:32:15.140Z,,0,2,,4864,response,ISIC_0418738.JPG,5,ISIC_0066889.JPG,ISIC_0066889.JPG,false,0,keypress(z),500,1959336,1959335,1954463,1954471,1954471,1959338,8,400,4,,ISIC_0418738.JPG
break,html.Screen,4_53_1,2023-09-08T17:32:15.141Z,,0,,,NaN,,,,,,false,,,,1959337,1959337,,1959336,,1959338,8,400,,,
break_continue,html.Screen,4_53_2,2023-09-08T17:32:15.142Z,,0,,,NaN,,,,,,false,,,,1959338,1959338,,1959337,,1959338,8,400,,,
sequence,flow.Sequence,4_53,2023-09-08T17:32:15.142Z,,0,,,4867,completion,,,,,false,,,,1959338,1959338,1954463,1954471,1954471,1959338,8,400,,,
trial,html.Screen,4_54_0,2023-09-08T17:32:19.513Z,,0,2,,4371,response,ISIC_0026302.JPG,9,ISIC_0942056.JPG,ISIC_0942056.JPG,false,0,keypress(z),500,1963710,1963709,1959329,1959338,1959338,1963717,8,400,5,,ISIC_0026302.JPG
break,html.Screen,4_54_1,2023-09-08T17:32:19.514Z,,0,,,NaN,,,,,,false,,,,1963711,1963711,,1963710,,1963717,8,400,,,
break_continue,html.Screen,4_54_2,2023-09-08T17:32:19.515Z,,0,,,NaN,,,,,,false,,,,1963711,1963711,,1963711,,1963717,8,400,,,
sequence,flow.Sequence,4_54,2023-09-08T17:32:19.515Z,,0,,,4373,completion,,,,,false,,,,1963711,1963711,1959329,1959338,1959338,1963717,8,400,,,
trial,html.Screen,4_55_0,2023-09-08T17:32:25.584Z,,0,2,,6063,response,ISIC_0070163.JPG,6,ISIC_0032598.JPG,ISIC_0070163.JPG,false,1,keypress(m),500,1969780,1969780,1963709,1963712,1963717,1969783,8,400,6,,ISIC_0032598.JPG
break,html.Screen,4_55_1,2023-09-08T17:32:25.585Z,,0,,,NaN,,,,,,false,,,,1969782,1969782,,1969781,,1969783,8,400,,,
break_continue,html.Screen,4_55_2,2023-09-08T17:32:25.586Z,,0,,,NaN,,,,,,false,,,,1969782,1969782,,1969782,,1969783,8,400,,,
sequence,flow.Sequence,4_55,2023-09-08T17:32:25.586Z,,0,,,6065,completion,,,,,false,,,,1969782,1969782,1963709,1963712,1963717,1969783,8,400,,,
trial,html.Screen,4_56_0,2023-09-08T17:32:29.108Z,,0,2,,3520,response,ISIC_5697228.JPG,7,ISIC_0696303.JPG,ISIC_5697228.JPG,false,1,keypress(m),500,1973304,1973303,1969775,1969782,1969783,1973309,8,400,7,,ISIC_0696303.JPG
break,html.Screen,4_56_1,2023-09-08T17:32:29.109Z,,0,,,NaN,,,,,,false,,,,1973305,1973305,,1973305,,1973309,8,400,,,
break_continue,html.Screen,4_56_2,2023-09-08T17:32:29.109Z,,0,,,NaN,,,,,,false,,,,1973305,1973305,,1973305,,1973309,8,400,,,
sequence,flow.Sequence,4_56,2023-09-08T17:32:29.109Z,,0,,,3522,completion,,,,,false,,,,1973305,1973305,1969775,1969782,1969783,1973309,8,400,,,
trial,html.Screen,4_57_0,2023-09-08T17:32:34.921Z,,0,2,,5808,response,ISIC_5557806.JPG,7,ISIC_0024745.JPG,ISIC_0024745.JPG,false,0,keypress(z),500,1979117,1979117,1973300,1973305,1973309,1979125,8,400,8,,ISIC_5557806.JPG
break,html.Screen,4_57_1,2023-09-08T17:32:34.924Z,,0,,,NaN,,,,,,false,,,,1979120,1979119,,1979117,,1979125,8,400,,,
break_continue,html.Screen,4_57_2,2023-09-08T17:32:34.924Z,,0,,,NaN,,,,,,false,,,,1979120,1979120,,1979120,,1979125,8,400,,,
sequence,flow.Sequence,4_57,2023-09-08T17:32:34.924Z,,0,,,5811,completion,,,,,false,,,,1979121,1979120,1973300,1973305,1973309,1979125,8,400,,,
trial,html.Screen,4_58_0,2023-09-08T17:32:39.851Z,,0,2,,4922,response,ISIC_0024527.JPG,7,ISIC_0000072.JPG,ISIC_0000072.JPG,false,0,keypress(z),500,1984048,1984047,1979117,1979121,1979125,1984050,8,400,9,,ISIC_0024527.JPG
break,html.Screen,4_58_1,2023-09-08T17:32:39.853Z,,0,,,NaN,,,,,,false,,,,1984049,1984049,,1984048,,1984050,8,400,,,
break_continue,html.Screen,4_58_2,2023-09-08T17:32:39.853Z,,0,,,NaN,,,,,,false,,,,1984049,1984049,,1984049,,1984050,8,400,,,
sequence,flow.Sequence,4_58,2023-09-08T17:32:39.853Z,,0,,,4924,completion,,,,,false,,,,1984050,1984049,1979117,1979121,1979125,1984050,8,400,,,
trial,html.Screen,4_59_0,2023-09-08T17:32:43.452Z,,0,2,,3598,response,ISIC_0057067.JPG,7,ISIC_0024796.JPG,ISIC_0057067.JPG,false,1,keypress(m),500,1987648,1987648,1984042,1984050,1984050,1987650,8,400,10,,ISIC_0024796.JPG
break,html.Screen,4_59_1,2023-09-08T17:32:43.453Z,,0,,,NaN,,,,,,false,,,,1987650,1987650,,1987648,,1987650,8,400,,,
break_continue,html.Screen,4_59_2,2023-09-08T17:32:43.454Z,,0,,,NaN,,,,,,false,,,,1987650,1987650,,1987650,,1987650,8,400,,,
sequence,flow.Sequence,4_59,2023-09-08T17:32:43.454Z,,0,,,3600,completion,,,,,false,,,,1987650,1987650,1984042,1984050,1984050,1987650,8,400,,,
trial,html.Screen,4_60_0,2023-09-08T17:32:48.428Z,,0,2,,4974,response,ISIC_0072977.JPG,9,ISIC_2304753.JPG,ISIC_0072977.JPG,false,1,keypress(m),500,1992624,1992624,1987642,1987650,1987650,1992633,8,400,11,,ISIC_2304753.JPG
break,html.Screen,4_60_1,2023-09-08T17:32:48.429Z,,0,,,NaN,,,,,,false,,,,1992625,1992625,,1992625,,1992633,8,400,,,
break_continue,html.Screen,4_60_2,2023-09-08T17:32:48.430Z,,0,,,NaN,,,,,,false,,,,1992625,1992625,,1992625,,1992633,8,400,,,
sequence,flow.Sequence,4_60,2023-09-08T17:32:48.430Z,,0,,,4975,completion,,,,,false,,,,1992625,1992625,1987642,1987650,1987650,1992633,8,400,,,
trial,html.Screen,4_61_0,2023-09-08T17:32:53.707Z,,0,2,,5270,response,ISIC_8647900.JPG,6,ISIC_2879267.JPG,ISIC_2879267.JPG,false,0,keypress(z),500,1997904,1997903,1992625,1992626,1992633,1997913,8,400,12,,ISIC_8647900.JPG
break,html.Screen,4_61_1,2023-09-08T17:32:53.709Z,,0,,,NaN,,,,,,false,,,,1997905,1997904,,1997904,,1997913,8,400,,,
break_continue,html.Screen,4_61_2,2023-09-08T17:32:53.709Z,,0,,,NaN,,,,,,false,,,,1997905,1997905,,1997905,,1997913,8,400,,,
sequence,flow.Sequence,4_61,2023-09-08T17:32:53.709Z,,0,,,5272,completion,,,,,false,,,,1997905,1997905,1992625,1992625,1992633,1997913,8,400,,,
trial,html.Screen,4_62_0,2023-09-08T17:32:57.615Z,,0,2,,3897,response,ISIC_0010663.JPG,8,ISIC_2894223.JPG,ISIC_0010663.JPG,false,1,keypress(m),500,2001811,2001810,1997904,1997906,1997913,2001812,8,400,13,,ISIC_2894223.JPG
break,html.Screen,4_62_1,2023-09-08T17:32:57.616Z,,0,,,NaN,,,,,,false,,,,2001813,2001812,,2001811,,2001812,8,400,,,
break_continue,html.Screen,4_62_2,2023-09-08T17:32:57.616Z,,0,,,NaN,,,,,,false,,,,2001813,2001813,,2001813,,2001812,8,400,,,
sequence,flow.Sequence,4_62,2023-09-08T17:32:57.617Z,,0,,,3900,completion,,,,,false,,,,2001813,2001813,1997904,1997905,1997913,2001812,8,400,,,
trial,html.Screen,4_63_0,2023-09-08T17:33:01.203Z,,0,2,,3587,response,ISIC_9301809.JPG,6,ISIC_6556622.JPG,ISIC_6556622.JPG,false,0,keypress(z),500,2005400,2005399,2001804,2001813,2001812,2005404,8,400,14,,ISIC_9301809.JPG
break,html.Screen,4_63_1,2023-09-08T17:33:01.204Z,,0,,,NaN,,,,,,false,,,,2005401,2005401,,2005400,,2005404,8,400,,,
break_continue,html.Screen,4_63_2,2023-09-08T17:33:01.205Z,,0,,,NaN,,,,,,false,,,,2005402,2005401,,2005401,,2005404,8,400,,,
sequence,flow.Sequence,4_63,2023-09-08T17:33:01.205Z,,0,,,3589,completion,,,,,false,,,,2005402,2005401,2001804,2001813,2001812,2005404,8,400,,,
trial,html.Screen,4_64_0,2023-09-08T17:33:04.619Z,,0,2,,3410,response,ISIC_2153301.JPG,8,ISIC_0031295.JPG,ISIC_0031295.JPG,false,0,keypress(z),500,2008815,2008814,2005396,2005402,2005404,2008821,8,400,15,,ISIC_2153301.JPG
break,html.Screen,4_64_1,2023-09-08T17:33:04.621Z,,0,,,NaN,,,,,,false,,,,2008817,2008817,,2008816,,2008821,8,400,,,
break_continue,html.Screen,4_64_2,2023-09-08T17:33:04.621Z,,0,,,NaN,,,,,,false,,,,2008817,2008817,,2008817,,2008821,8,400,,,
sequence,flow.Sequence,4_64,2023-09-08T17:33:04.621Z,,0,,,3413,completion,,,,,false,,,,2008817,2008817,2005396,2005402,2005404,2008821,8,400,,,
trial,html.Screen,4_65_0,2023-09-08T17:33:09.314Z,,0,2,,4689,response,ISIC_9685928.JPG,5,ISIC_3323866.JPG,ISIC_3323866.JPG,false,0,keypress(z),500,2013511,2013510,2008813,2008817,2008821,2013512,8,400,16,,ISIC_9685928.JPG
break,html.Screen,4_65_1,2023-09-08T17:33:09.316Z,,0,,,NaN,,,,,,false,,,,2013513,2013512,,2013511,,2013512,8,400,,,
break_continue,html.Screen,4_65_2,2023-09-08T17:33:09.316Z,,0,,,NaN,,,,,,false,,,,2013513,2013513,,2013513,,2013512,8,400,,,
sequence,flow.Sequence,4_65,2023-09-08T17:33:09.316Z,,0,,,4692,completion,,,,,false,,,,2013513,2013513,2008813,2008817,2008821,2013512,8,400,,,
trial,html.Screen,4_66_0,2023-09-08T17:33:12.966Z,,0,2,,3651,response,ISIC_0062684.JPG,7,ISIC_0033239.JPG,ISIC_0062684.JPG,false,1,keypress(m),500,2017163,2017163,2013504,2013513,2013512,2017171,8,400,17,,ISIC_0033239.JPG
break,html.Screen,4_66_1,2023-09-08T17:33:12.968Z,,0,,,NaN,,,,,,false,,,,2017165,2017164,,2017163,,2017171,8,400,,,
break_continue,html.Screen,4_66_2,2023-09-08T17:33:12.969Z,,0,,,NaN,,,,,,false,,,,2017165,2017165,,2017165,,2017171,8,400,,,
sequence,flow.Sequence,4_66,2023-09-08T17:33:12.969Z,,0,,,3653,completion,,,,,false,,,,2017165,2017165,2013504,2013513,2013512,2017171,8,400,,,
trial,html.Screen,4_67_0,2023-09-08T17:33:16.404Z,,0,2,,3429,response,ISIC_5588968.JPG,6,ISIC_0032722.JPG,ISIC_0032722.JPG,false,0,keypress(z),500,2020600,2020600,2017163,2017165,2017171,2020604,8,400,18,,ISIC_5588968.JPG
break,html.Screen,4_67_1,2023-09-08T17:33:16.405Z,,0,,,NaN,,,,,,false,,,,2020602,2020602,,2020600,,2020604,8,400,,,
break_continue,html.Screen,4_67_2,2023-09-08T17:33:16.406Z,,0,,,NaN,,,,,,false,,,,2020602,2020602,,2020602,,2020604,8,400,,,
sequence,flow.Sequence,4_67,2023-09-08T17:33:16.406Z,,0,,,3431,completion,,,,,false,,,,2020602,2020602,2017163,2017165,2017171,2020604,8,400,,,
trial,html.Screen,4_68_0,2023-09-08T17:33:19.641Z,,0,2,,3233,response,ISIC_6366417.JPG,4,ISIC_0029106.JPG,ISIC_6366417.JPG,false,1,keypress(m),500,2023837,2023837,2020596,2020603,2020604,2023846,8,400,19,,ISIC_0029106.JPG
break,html.Screen,4_68_1,2023-09-08T17:33:19.643Z,,0,,,NaN,,,,,,false,,,,2023839,2023839,,2023838,,2023846,8,400,,,
break_continue,html.Screen,4_68_2,2023-09-08T17:33:19.644Z,,0,,,NaN,,,,,,false,,,,2023841,2023841,,2023840,,2023846,8,400,,,
sequence,flow.Sequence,4_68,2023-09-08T17:33:19.645Z,,0,,,3237,completion,,,,,false,,,,2023841,2023841,2020596,2020603,2020604,2023846,8,400,,,
trial,html.Screen,4_69_0,2023-09-08T17:33:24.689Z,,0,2,,5039,response,ISIC_4734950.JPG,7,ISIC_7501061.JPG,ISIC_7501061.JPG,false,0,keypress(z),500,2028885,2028885,2023837,2023841,2023846,2028887,8,400,20,,ISIC_4734950.JPG
break,html.Screen,4_69_1,2023-09-08T17:33:24.691Z,,0,,,NaN,,,,,,false,,,,2028888,2028887,,2028885,,2028887,8,400,,,
break_continue,html.Screen,4_69_2,2023-09-08T17:33:24.692Z,,0,,,NaN,,,,,,false,,,,2028888,2028888,,2028888,,2028887,8,400,,,
sequence,flow.Sequence,4_69,2023-09-08T17:33:24.692Z,,0,,,5042,completion,,,,,false,,,,2028888,2028888,2023837,2023841,2023846,2028887,8,400,,,
trial,html.Screen,4_70_0,2023-09-08T17:33:28.521Z,,0,2,,3830,response,ISIC_0011517.JPG,8,ISIC_0069411.JPG,ISIC_0069411.JPG,false,0,keypress(z),500,2032718,2032717,2028879,2028888,2028887,2032721,8,400,21,,ISIC_0011517.JPG
break,html.Screen,4_70_1,2023-09-08T17:33:28.522Z,,0,,,NaN,,,,,,false,,,,2032718,2032718,,2032718,,2032721,8,400,,,
break_continue,html.Screen,4_70_2,2023-09-08T17:33:28.522Z,,0,,,NaN,,,,,,false,,,,2032719,2032719,,2032718,,2032721,8,400,,,
sequence,flow.Sequence,4_70,2023-09-08T17:33:28.523Z,,0,,,3832,completion,,,,,false,,,,2032719,2032719,2028879,2028888,2028887,2032721,8,400,,,
trial,html.Screen,4_71_0,2023-09-08T17:33:32.450Z,,0,2,,3925,response,ISIC_0007740.JPG,6,ISIC_0066150.JPG,ISIC_0066150.JPG,false,0,keypress(z),500,2036646,2036646,2032712,2032719,2032721,2036654,8,400,22,,ISIC_0007740.JPG
break,html.Screen,4_71_1,2023-09-08T17:33:32.452Z,,0,,,NaN,,,,,,false,,,,2036649,2036648,,2036646,,2036654,8,400,,,
break_continue,html.Screen,4_71_2,2023-09-08T17:33:32.452Z,,0,,,NaN,,,,,,false,,,,2036649,2036649,,2036649,,2036654,8,400,,,
sequence,flow.Sequence,4_71,2023-09-08T17:33:32.452Z,,0,,,3928,completion,,,,,false,,,,2036649,2036649,2032712,2032719,2032721,2036654,8,400,,,
trial,html.Screen,4_72_0,2023-09-08T17:33:36.344Z,,0,2,,3886,response,ISIC_3520750.JPG,4,ISIC_0005264.JPG,ISIC_3520750.JPG,false,1,keypress(m),500,2040540,2040540,2036646,2036649,2036654,2040546,8,400,23,,ISIC_0005264.JPG
break,html.Screen,4_72_1,2023-09-08T17:33:36.345Z,,0,,,NaN,,,,,,false,,,,2040542,2040541,,2040540,,2040546,8,400,,,
break_continue,html.Screen,4_72_2,2023-09-08T17:33:36.345Z,,0,,,NaN,,,,,,false,,,,2040542,2040542,,2040542,,2040546,8,400,,,
sequence,flow.Sequence,4_72,2023-09-08T17:33:36.346Z,,0,,,3888,completion,,,,,false,,,,2040542,2040542,2036646,2036649,2036654,2040546,8,400,,,
trial,html.Screen,4_73_0,2023-09-08T17:33:40.560Z,,0,2,,4210,response,ISIC_7582818.JPG,5,ISIC_0072157.JPG,ISIC_0072157.JPG,false,0,keypress(z),500,2044757,2044756,2040537,2040542,2040546,2044762,8,400,24,,ISIC_7582818.JPG
break,html.Screen,4_73_1,2023-09-08T17:33:40.562Z,,0,,,NaN,,,,,,false,,,,2044758,2044758,,2044757,,2044762,8,400,,,
break_continue,html.Screen,4_73_2,2023-09-08T17:33:40.562Z,,0,,,NaN,,,,,,false,,,,2044758,2044758,,2044758,,2044762,8,400,,,
sequence,flow.Sequence,4_73,2023-09-08T17:33:40.562Z,,0,,,4212,completion,,,,,false,,,,2044759,2044758,2040537,2040542,2040546,2044762,8,400,,,
trial,html.Screen,4_74_0,2023-09-08T17:33:44.459Z,,0,2,,3893,response,ISIC_3277722.JPG,6,ISIC_7226381.JPG,ISIC_3277722.JPG,false,1,keypress(m),500,2048655,2048655,2044754,2044759,2044762,2048662,8,400,25,,ISIC_7226381.JPG
break,html.Screen,4_74_1,2023-09-08T17:33:44.460Z,,0,,,NaN,,,,,,false,,,,2048656,2048656,,2048655,,2048662,8,400,,,
break_continue,html.Screen,4_74_2,2023-09-08T17:33:44.461Z,,0,,,NaN,,,,,,false,,,,2048657,2048656,,2048656,,2048662,8,400,,,
sequence,flow.Sequence,4_74,2023-09-08T17:33:44.461Z,,0,,,3894,completion,,,,,false,,,,2048657,2048656,2044754,2044759,2044762,2048662,8,400,,,
trial,html.Screen,4_75_0,2023-09-08T17:33:48.207Z,,0,2,,3742,response,ISIC_0055388.JPG,7,ISIC_0010280.JPG,ISIC_0010280.JPG,false,0,keypress(z),500,2052404,2052404,2048654,2048657,2048662,2052412,8,400,26,,ISIC_0055388.JPG
break,html.Screen,4_75_1,2023-09-08T17:33:48.209Z,,0,,,NaN,,,,,,false,,,,2052404,2052404,,2052404,,2052412,8,400,,,
break_continue,html.Screen,4_75_2,2023-09-08T17:33:48.209Z,,0,,,NaN,,,,,,false,,,,2052405,2052405,,2052405,,2052412,8,400,,,
sequence,flow.Sequence,4_75,2023-09-08T17:33:48.209Z,,0,,,3743,completion,,,,,false,,,,2052405,2052405,2048654,2048657,2048662,2052412,8,400,,,
trial,html.Screen,4_76_0,2023-09-08T17:33:52.524Z,,0,2,,4307,response,ISIC_2259861.JPG,7,ISIC_8935085.JPG,ISIC_2259861.JPG,false,1,keypress(m),500,2056720,2056719,2052404,2052406,2052412,2056729,8,400,27,,ISIC_8935085.JPG
break,html.Screen,4_76_1,2023-09-08T17:33:52.525Z,,0,,,NaN,,,,,,false,,,,2056722,2056721,,2056720,,2056729,8,400,,,
break_continue,html.Screen,4_76_2,2023-09-08T17:33:52.525Z,,0,,,NaN,,,,,,false,,,,2056722,2056722,,2056722,,2056729,8,400,,,
sequence,flow.Sequence,4_76,2023-09-08T17:33:52.526Z,,0,,,4310,completion,,,,,false,,,,2056722,2056722,2052404,2052406,2052412,2056729,8,400,,,
trial,html.Screen,4_77_0,2023-09-08T17:33:55.450Z,,0,2,,2917,response,ISIC_0033856.JPG,5,ISIC_0067338.JPG,ISIC_0033856.JPG,false,1,keypress(m),500,2059647,2059646,2056720,2056722,2056729,2059650,8,400,28,,ISIC_0067338.JPG
break,html.Screen,4_77_1,2023-09-08T17:33:55.451Z,,0,,,NaN,,,,,,false,,,,2059648,2059647,,2059647,,2059650,8,400,,,
break_continue,html.Screen,4_77_2,2023-09-08T17:33:55.452Z,,0,,,NaN,,,,,,false,,,,2059649,2059649,,2059648,,2059650,8,400,,,
sequence,flow.Sequence,4_77,2023-09-08T17:33:55.452Z,,0,,,2920,completion,,,,,false,,,,2059649,2059649,2056720,2056722,2056729,2059650,8,400,,,
trial,html.Screen,4_78_0,2023-09-08T17:33:59.666Z,,0,2,,4211,response,ISIC_6868089.JPG,7,ISIC_8485716.JPG,ISIC_6868089.JPG,false,1,keypress(m),500,2063862,2063861,2059641,2059649,2059650,2063866,8,400,29,,ISIC_8485716.JPG
break,html.Screen,4_78_1,2023-09-08T17:33:59.667Z,,0,,,NaN,,,,,,false,,,,2063864,2063864,,2063862,,2063866,8,400,,,
break_continue,html.Screen,4_78_2,2023-09-08T17:33:59.667Z,,0,,,NaN,,,,,,false,,,,2063864,2063864,,2063864,,2063866,8,400,,,
sequence,flow.Sequence,4_78,2023-09-08T17:33:59.667Z,,0,,,4214,completion,,,,,false,,,,2063864,2063864,2059641,2059649,2059650,2063866,8,400,,,
trial,html.Screen,4_79_0,2023-09-08T17:34:03.609Z,,0,2,,3939,response,ISIC_0002119.JPG,5,ISIC_0066430.JPG,ISIC_0066430.JPG,false,0,keypress(z),500,2067805,2067805,2063858,2063864,2063866,2067808,8,400,30,,ISIC_0002119.JPG
break,html.Screen,4_79_1,2023-09-08T17:34:03.611Z,,0,,,NaN,,,,,,false,,,,2067807,2067807,,2067805,,2067808,8,400,,,
break_continue,html.Screen,4_79_2,2023-09-08T17:34:03.611Z,,0,,,NaN,,,,,,false,,,,2067807,2067807,,2067807,,2067808,8,400,,,
sequence,flow.Sequence,4_79,2023-09-08T17:34:03.611Z,,0,,,3941,completion,,,,,false,,,,2067807,2067807,2063858,2063864,2063866,2067808,8,400,,,
trial,html.Screen,4_80_0,2023-09-08T17:34:07.987Z,,0,2,,4375,response,ISIC_0011612.JPG,6,ISIC_5859812.JPG,ISIC_5859812.JPG,false,0,keypress(z),500,2072184,2072183,2067800,2067808,2067808,2072191,8,400,31,,ISIC_0011612.JPG
break,html.Screen,4_80_1,2023-09-08T17:34:07.989Z,,0,,,NaN,,,,,,false,,,,2072185,2072185,,2072184,,2072191,8,400,,,
break_continue,html.Screen,4_80_2,2023-09-08T17:34:07.989Z,,0,,,NaN,,,,,,false,,,,2072185,2072185,,2072185,,2072191,8,400,,,
sequence,flow.Sequence,4_80,2023-09-08T17:34:07.989Z,,0,,,4377,completion,,,,,false,,,,2072185,2072185,2067800,2067808,2067808,2072191,8,400,,,
trial,html.Screen,4_81_0,2023-09-08T17:34:11.147Z,,0,2,,3152,response,ISIC_0033250.JPG,8,ISIC_0027238.JPG,ISIC_0027238.JPG,false,0,keypress(z),500,2075344,2075343,2072183,2072185,2072191,2075350,8,400,32,,ISIC_0033250.JPG
break,html.Screen,4_81_1,2023-09-08T17:34:11.149Z,,0,,,NaN,,,,,,false,,,,2075345,2075345,,2075344,,2075350,8,400,,,
break_continue,html.Screen,4_81_2,2023-09-08T17:34:11.149Z,,0,,,NaN,,,,,,false,,,,2075346,2075346,,2075345,,2075350,8,400,,,
sequence,flow.Sequence,4_81,2023-09-08T17:34:11.150Z,,0,,,3155,completion,,,,,false,,,,2075346,2075346,2072183,2072185,2072191,2075350,8,400,,,
trial,html.Screen,4_82_0,2023-09-08T17:34:15.275Z,,0,2,,4121,response,ISIC_0030470.JPG,6,ISIC_0033508.JPG,ISIC_0030470.JPG,false,1,keypress(m),500,2079471,2079471,2075341,2075346,2075350,2079475,8,400,33,,ISIC_0033508.JPG
break,html.Screen,4_82_1,2023-09-08T17:34:15.276Z,,0,,,NaN,,,,,,false,,,,2079473,2079473,,2079472,,2079475,8,400,,,
break_continue,html.Screen,4_82_2,2023-09-08T17:34:15.276Z,,0,,,NaN,,,,,,false,,,,2079473,2079473,,2079473,,2079475,8,400,,,
sequence,flow.Sequence,4_82,2023-09-08T17:34:15.276Z,,0,,,4123,completion,,,,,false,,,,2079473,2079473,2075341,2075346,2075350,2079475,8,400,,,
trial,html.Screen,4_83_0,2023-09-08T17:34:19.600Z,,0,2,,4320,response,ISIC_7231192.JPG,9,ISIC_1608524.JPG,ISIC_1608524.JPG,false,0,keypress(z),500,2083796,2083795,2079466,2079473,2079475,2083800,8,400,34,,ISIC_7231192.JPG
break,html.Screen,4_83_1,2023-09-08T17:34:19.601Z,,0,,,NaN,,,,,,false,,,,2083797,2083797,,2083796,,2083800,8,400,,,
break_continue,html.Screen,4_83_2,2023-09-08T17:34:19.602Z,,0,,,NaN,,,,,,false,,,,2083798,2083798,,2083797,,2083800,8,400,,,
sequence,flow.Sequence,4_83,2023-09-08T17:34:19.602Z,,0,,,4323,completion,,,,,false,,,,2083799,2083798,2079466,2079473,2079475,2083800,8,400,,,
trial,html.Screen,4_84_0,2023-09-08T17:34:22.954Z,,0,2,,3349,response,ISIC_7365889.JPG,6,ISIC_0034068.JPG,ISIC_0034068.JPG,false,0,keypress(z),500,2087150,2087149,2083791,2083799,2083800,2087158,8,400,35,,ISIC_7365889.JPG
break,html.Screen,4_84_1,2023-09-08T17:34:22.955Z,,0,,,NaN,,,,,,false,,,,2087152,2087151,,2087150,,2087158,8,400,,,
break_continue,html.Screen,4_84_2,2023-09-08T17:34:22.956Z,,0,,,NaN,,,,,,false,,,,2087153,2087152,,2087152,,2087158,8,400,,,
sequence,flow.Sequence,4_84,2023-09-08T17:34:22.956Z,,0,,,3352,completion,,,,,false,,,,2087153,2087152,2083791,2083799,2083800,2087158,8,400,,,
trial,html.Screen,4_85_0,2023-09-08T17:34:27.499Z,,0,2,,4537,response,ISIC_0070092.JPG,7,ISIC_0027126.JPG,ISIC_0070092.JPG,false,1,keypress(m),500,2091696,2091695,2087149,2087153,2087158,2091700,8,400,36,,ISIC_0027126.JPG
break,html.Screen,4_85_1,2023-09-08T17:34:27.500Z,,0,,,NaN,,,,,,false,,,,2091697,2091696,,2091696,,2091700,8,400,,,
break_continue,html.Screen,4_85_2,2023-09-08T17:34:27.500Z,,0,,,NaN,,,,,,false,,,,2091697,2091697,,2091697,,2091700,8,400,,,
sequence,flow.Sequence,4_85,2023-09-08T17:34:27.501Z,,0,,,4539,completion,,,,,false,,,,2091697,2091697,2087149,2087153,2087158,2091700,8,400,,,
trial,html.Screen,4_86_0,2023-09-08T17:34:31.372Z,,0,2,,3867,response,ISIC_6430210.JPG,5,ISIC_4024062.JPG,ISIC_4024062.JPG,false,0,keypress(z),500,2095569,2095567,2091691,2091697,2091700,2095574,8,400,37,,ISIC_6430210.JPG
break,html.Screen,4_86_1,2023-09-08T17:34:31.373Z,,0,,,NaN,,,,,,false,,,,2095570,2095570,,2095569,,2095574,8,400,,,
break_continue,html.Screen,4_86_2,2023-09-08T17:34:31.374Z,,0,,,NaN,,,,,,false,,,,2095570,2095570,,2095570,,2095574,8,400,,,
sequence,flow.Sequence,4_86,2023-09-08T17:34:31.374Z,,0,,,3870,completion,,,,,false,,,,2095570,2095570,2091691,2091697,2091700,2095574,8,400,,,
trial,html.Screen,4_87_0,2023-09-08T17:34:36.660Z,,0,2,,5282,response,ISIC_9854454.JPG,6,ISIC_9688534.JPG,ISIC_9688534.JPG,false,0,keypress(z),500,2100856,2100856,2095566,2095570,2095574,2100862,8,400,38,,ISIC_9854454.JPG
break,html.Screen,4_87_1,2023-09-08T17:34:36.661Z,,0,,,NaN,,,,,,false,,,,2100858,2100857,,2100857,,2100862,8,400,,,
break_continue,html.Screen,4_87_2,2023-09-08T17:34:36.662Z,,0,,,NaN,,,,,,false,,,,2100858,2100858,,2100858,,2100862,8,400,,,
sequence,flow.Sequence,4_87,2023-09-08T17:34:36.662Z,,0,,,5284,completion,,,,,false,,,,2100858,2100858,2095566,2095570,2095574,2100862,8,400,,,
trial,html.Screen,4_88_0,2023-09-08T17:34:41.273Z,,0,2,,4607,response,ISIC_3306135.JPG,9,ISIC_3799267.JPG,ISIC_3799267.JPG,false,0,keypress(z),500,2105470,2105469,2100854,2100858,2100862,2105479,8,400,39,,ISIC_3306135.JPG
break,html.Screen,4_88_1,2023-09-08T17:34:41.275Z,,0,,,NaN,,,,,,false,,,,2105472,2105471,,2105470,,2105479,8,400,,,
break_continue,html.Screen,4_88_2,2023-09-08T17:34:41.275Z,,0,,,NaN,,,,,,false,,,,2105472,2105472,,2105472,,2105479,8,400,,,
sequence,flow.Sequence,4_88,2023-09-08T17:34:41.275Z,,0,,,4610,completion,,,,,false,,,,2105472,2105472,2100854,2100858,2100862,2105479,8,400,,,
trial,html.Screen,4_89_0,2023-09-08T17:34:46.718Z,,0,2,,5435,response,ISIC_2379908.JPG,7,ISIC_9543945.JPG,ISIC_9543945.JPG,false,0,keypress(z),500,2110915,2110914,2105470,2105472,2105479,2110916,8,400,40,,ISIC_2379908.JPG
break,html.Screen,4_89_1,2023-09-08T17:34:46.719Z,,0,,,NaN,,,,,,false,,,,2110916,2110915,,2110915,,2110916,8,400,,,
break_continue,html.Screen,4_89_2,2023-09-08T17:34:46.719Z,,0,,,NaN,,,,,,false,,,,2110916,2110916,,2110916,,2110916,8,400,,,
sequence,flow.Sequence,4_89,2023-09-08T17:34:46.720Z,,0,,,5437,completion,,,,,false,,,,2110916,2110916,2105470,2105472,2105479,2110916,8,400,,,
trial,html.Screen,4_90_0,2023-09-08T17:34:52.820Z,,0,2,,6100,response,ISIC_5867911.JPG,8,ISIC_0064986.JPG,ISIC_5867911.JPG,false,1,keypress(m),500,2117017,2117016,2110908,2110916,2110916,2117024,8,400,41,,ISIC_0064986.JPG
break,html.Screen,4_90_1,2023-09-08T17:34:52.822Z,,0,,,NaN,,,,,,false,,,,2117019,2117018,,2117017,,2117024,8,400,,,
break_continue,html.Screen,4_90_2,2023-09-08T17:34:52.822Z,,0,,,NaN,,,,,,false,,,,2117019,2117019,,2117019,,2117024,8,400,,,
sequence,flow.Sequence,4_90,2023-09-08T17:34:52.822Z,,0,,,6103,completion,,,,,false,,,,2117019,2117019,2110908,2110916,2110916,2117024,8,400,,,
trial,html.Screen,4_91_0,2023-09-08T17:34:55.881Z,,0,2,,3053,response,ISIC_3655327.JPG,7,ISIC_7755106.JPG,ISIC_3655327.JPG,false,1,keypress(m),500,2120077,2120077,2117016,2117019,2117024,2120083,8,400,42,,ISIC_7755106.JPG
break,html.Screen,4_91_1,2023-09-08T17:34:55.882Z,,0,,,NaN,,,,,,false,,,,2120079,2120079,,2120077,,2120083,8,400,,,
break_continue,html.Screen,4_91_2,2023-09-08T17:34:55.883Z,,0,,,NaN,,,,,,false,,,,2120079,2120079,,2120079,,2120083,8,400,,,
sequence,flow.Sequence,4_91,2023-09-08T17:34:55.883Z,,0,,,3055,completion,,,,,false,,,,2120080,2120079,2117016,2117019,2117024,2120083,8,400,,,
trial,html.Screen,4_92_0,2023-09-08T17:34:59.996Z,,0,2,,4109,response,ISIC_0070419.JPG,7,ISIC_0062367.JPG,ISIC_0070419.JPG,false,1,keypress(m),500,2124192,2124192,2120074,2120080,2120083,2124199,8,400,43,,ISIC_0062367.JPG
break,html.Screen,4_92_1,2023-09-08T17:34:59.997Z,,0,,,NaN,,,,,,false,,,,2124194,2124193,,2124192,,2124199,8,400,,,
break_continue,html.Screen,4_92_2,2023-09-08T17:34:59.998Z,,0,,,NaN,,,,,,false,,,,2124195,2124194,,2124194,,2124199,8,400,,,
sequence,flow.Sequence,4_92,2023-09-08T17:34:59.998Z,,0,,,4111,completion,,,,,false,,,,2124195,2124194,2120074,2120080,2120083,2124199,8,400,,,
trial,html.Screen,4_93_0,2023-09-08T17:35:05.754Z,,0,2,,5751,response,ISIC_0069486.JPG,9,ISIC_1343302.JPG,ISIC_0069486.JPG,false,1,keypress(m),500,2129951,2129950,2124191,2124195,2124199,2129958,8,400,44,,ISIC_1343302.JPG
break,html.Screen,4_93_1,2023-09-08T17:35:05.756Z,,0,,,NaN,,,,,,false,,,,2129952,2129952,,2129952,,2129958,8,400,,,
break_continue,html.Screen,4_93_2,2023-09-08T17:35:05.756Z,,0,,,NaN,,,,,,false,,,,2129953,2129953,,2129953,,2129958,8,400,,,
sequence,flow.Sequence,4_93,2023-09-08T17:35:05.756Z,,0,,,5754,completion,,,,,false,,,,2129953,2129953,2124191,2124195,2124199,2129958,8,400,,,
trial,html.Screen,4_94_0,2023-09-08T17:35:11.137Z,,0,2,,5376,response,ISIC_3708739.JPG,8,ISIC_2732573.JPG,ISIC_3708739.JPG,false,1,keypress(m),500,2135334,2135334,2129949,2129953,2129958,2135341,8,400,45,,ISIC_2732573.JPG
break,html.Screen,4_94_1,2023-09-08T17:35:11.139Z,,0,,,NaN,,,,,,false,,,,2135335,2135335,,2135334,,2135341,8,400,,,
break_continue,html.Screen,4_94_2,2023-09-08T17:35:11.139Z,,0,,,NaN,,,,,,false,,,,2135336,2135336,,2135336,,2135341,8,400,,,
sequence,flow.Sequence,4_94,2023-09-08T17:35:11.139Z,,0,,,5378,completion,,,,,false,,,,2135336,2135336,2129949,2129953,2129958,2135341,8,400,,,
trial,html.Screen,4_95_0,2023-09-08T17:35:14.341Z,,0,2,,3197,response,ISIC_0059983.JPG,6,ISIC_7600621.JPG,ISIC_7600621.JPG,false,0,keypress(z),500,2138538,2138538,2135333,2135336,2135341,2138541,8,400,46,,ISIC_0059983.JPG
break,html.Screen,4_95_1,2023-09-08T17:35:14.343Z,,0,,,NaN,,,,,,false,,,,2138540,2138540,,2138538,,2138541,8,400,,,
break_continue,html.Screen,4_95_2,2023-09-08T17:35:14.344Z,,0,,,NaN,,,,,,false,,,,2138541,2138540,,2138540,,2138541,8,400,,,
sequence,flow.Sequence,4_95,2023-09-08T17:35:14.344Z,,0,,,3199,completion,,,,,false,,,,2138541,2138540,2135333,2135336,2135341,2138541,8,400,,,
trial,html.Screen,4_96_0,2023-09-08T17:35:19.044Z,,0,2,,4699,response,ISIC_0013792.JPG,6,ISIC_8316125.JPG,ISIC_0013792.JPG,false,1,keypress(m),500,2143240,2143240,2138533,2138541,2138541,2143245,8,400,47,,ISIC_8316125.JPG
break,html.Screen,4_96_1,2023-09-08T17:35:19.045Z,,0,,,NaN,,,,,,false,,,,2143242,2143241,,2143240,,2143245,8,400,,,
break_continue,html.Screen,4_96_2,2023-09-08T17:35:19.045Z,,0,,,NaN,,,,,,false,,,,2143242,2143242,,2143242,,2143245,8,400,,,
sequence,flow.Sequence,4_96,2023-09-08T17:35:19.046Z,,0,,,4701,completion,,,,,false,,,,2143242,2143242,2138533,2138541,2138541,2143245,8,400,,,
trial,html.Screen,4_97_0,2023-09-08T17:35:22.843Z,,0,2,,3794,response,ISIC_0067798.JPG,9,ISIC_3072311.JPG,ISIC_0067798.JPG,false,1,keypress(m),500,2147040,2147039,2143237,2143242,2143245,2147045,8,400,48,,ISIC_3072311.JPG
break,html.Screen,4_97_1,2023-09-08T17:35:22.845Z,,0,,,NaN,,,,,,false,,,,2147042,2147040,,2147040,,2147045,8,400,,,
break_continue,html.Screen,4_97_2,2023-09-08T17:35:22.845Z,,0,,,NaN,,,,,,false,,,,2147042,2147042,,2147042,,2147045,8,400,,,
sequence,flow.Sequence,4_97,2023-09-08T17:35:22.845Z,,0,,,3797,completion,,,,,false,,,,2147042,2147042,2143237,2143242,2143245,2147045,8,400,,,
trial,html.Screen,4_98_0,2023-09-08T17:35:26.000Z,,0,2,,3151,response,ISIC_0055550.JPG,6,ISIC_2514994.JPG,ISIC_0055550.JPG,false,1,keypress(m),500,2150196,2150196,2147037,2147042,2147045,2150203,8,400,49,,ISIC_2514994.JPG
break,html.Screen,4_98_1,2023-09-08T17:35:26.001Z,,0,,,NaN,,,,,,false,,,,2150198,2150197,,2150197,,2150203,8,400,,,
break_continue,html.Screen,4_98_2,2023-09-08T17:35:26.002Z,,0,,,NaN,,,,,,false,,,,2150198,2150198,,2150198,,2150203,8,400,,,
sequence,flow.Sequence,4_98,2023-09-08T17:35:26.002Z,,0,,,3153,completion,,,,,false,,,,2150199,2150198,2147037,2147042,2147045,2150203,8,400,,,
trial,html.Screen,4_99_0,2023-09-08T17:35:31.671Z,,0,2,,5665,response,ISIC_0071132.JPG,6,ISIC_0025035.JPG,ISIC_0025035.JPG,false,0,keypress(z),500,2155868,2155868,2150195,2150199,2150203,2155870,8,400,50,,ISIC_0071132.JPG
break,html.Screen,4_99_1,2023-09-08T17:35:41.664Z,,0,,,9996,timeout,,,,,false,,,,2165860,2165858,2155862,2155868,2155870,2165866,8,400,,,
break_continue,html.Screen,4_99_2,2023-09-08T17:35:43.565Z,,0,,,1884,response,,,,,false,continue,keypress(Space),,2167761,2167750,2165858,2165860,2165866,2167766,8,400,,,
sequence,flow.Sequence,4_99,2023-09-08T17:35:43.565Z,,0,,,17547,completion,,,,,false,,,,2167761,2167750,2150195,2150199,2150203,2167766,8,400,,,
trial,html.Screen,4_100_0,2023-09-08T17:35:46.995Z,,0,3,,3425,response,ISIC_1308081.JPG,9,ISIC_0063958.JPG,ISIC_0063958.JPG,false,0,keypress(z),500,2171192,2171191,2167757,2167761,2167766,2171199,8,400,1,,ISIC_1308081.JPG
break,html.Screen,4_100_1,2023-09-08T17:35:46.997Z,,0,,,NaN,,,,,,false,,,,2171194,2171193,,2171192,,2171199,8,400,,,
break_continue,html.Screen,4_100_2,2023-09-08T17:35:46.998Z,,0,,,NaN,,,,,,false,,,,2171194,2171194,,2171194,,2171199,8,400,,,
sequence,flow.Sequence,4_100,2023-09-08T17:35:46.998Z,,0,,,3428,completion,,,,,false,,,,2171194,2171194,2167757,2167761,2167766,2171199,8,400,,,
trial,html.Screen,4_101_0,2023-09-08T17:35:50.331Z,,0,3,,3328,response,ISIC_0025006.JPG,8,ISIC_0056127.JPG,ISIC_0056127.JPG,false,0,keypress(z),500,2174527,2174527,2171191,2171194,2171199,2174533,8,400,2,,ISIC_0025006.JPG
break,html.Screen,4_101_1,2023-09-08T17:35:50.332Z,,0,,,NaN,,,,,,false,,,,2174529,2174529,,2174527,,2174533,8,400,,,
break_continue,html.Screen,4_101_2,2023-09-08T17:35:50.333Z,,0,,,NaN,,,,,,false,,,,2174529,2174529,,2174529,,2174533,8,400,,,
sequence,flow.Sequence,4_101,2023-09-08T17:35:50.333Z,,0,,,3330,completion,,,,,false,,,,2174529,2174529,2171191,2171194,2171199,2174533,8,400,,,
trial,html.Screen,4_102_0,2023-09-08T17:35:54.299Z,,0,3,,3962,response,ISIC_0025832.JPG,6,ISIC_0013953.JPG,ISIC_0025832.JPG,false,1,keypress(m),500,2178495,2178495,2174524,2174530,2174533,2178499,8,400,3,,ISIC_0013953.JPG
break,html.Screen,4_102_1,2023-09-08T17:35:54.300Z,,0,,,NaN,,,,,,false,,,,2178497,2178496,,2178496,,2178499,8,400,,,
break_continue,html.Screen,4_102_2,2023-09-08T17:35:54.301Z,,0,,,NaN,,,,,,false,,,,2178497,2178497,,2178497,,2178499,8,400,,,
sequence,flow.Sequence,4_102,2023-09-08T17:35:54.301Z,,0,,,3964,completion,,,,,false,,,,2178497,2178497,2174524,2174529,2174533,2178499,8,400,,,
trial,html.Screen,4_103_0,2023-09-08T17:35:58.075Z,,0,3,,3772,response,ISIC_0056811.JPG,7,ISIC_3074949.JPG,ISIC_0056811.JPG,false,1,keypress(m),500,2182272,2182271,2178491,2178497,2178499,2182274,8,400,4,,ISIC_3074949.JPG
break,html.Screen,4_103_1,2023-09-08T17:35:58.076Z,,0,,,NaN,,,,,,false,,,,2182273,2182273,,2182272,,2182274,8,400,,,
break_continue,html.Screen,4_103_2,2023-09-08T17:35:58.077Z,,0,,,NaN,,,,,,false,,,,2182274,2182274,,2182273,,2182274,8,400,,,
sequence,flow.Sequence,4_103,2023-09-08T17:35:58.077Z,,0,,,3775,completion,,,,,false,,,,2182274,2182274,2178491,2178497,2178499,2182274,8,400,,,
trial,html.Screen,4_104_0,2023-09-08T17:36:02.347Z,,0,3,,4270,response,ISIC_5026709.JPG,9,ISIC_9088774.JPG,ISIC_5026709.JPG,false,1,keypress(m),500,2186544,2186544,2182266,2182274,2182274,2186549,8,400,5,,ISIC_9088774.JPG
break,html.Screen,4_104_1,2023-09-08T17:36:02.349Z,,0,,,NaN,,,,,,false,,,,2186546,2186546,,2186544,,2186549,8,400,,,
break_continue,html.Screen,4_104_2,2023-09-08T17:36:02.349Z,,0,,,NaN,,,,,,false,,,,2186546,2186546,,2186546,,2186549,8,400,,,
sequence,flow.Sequence,4_104,2023-09-08T17:36:02.349Z,,0,,,4272,completion,,,,,false,,,,2186546,2186546,2182266,2182274,2182274,2186549,8,400,,,
trial,html.Screen,4_105_0,2023-09-08T17:36:07.211Z,,0,3,,4858,response,ISIC_9101055.JPG,8,ISIC_0067467.JPG,ISIC_9101055.JPG,false,1,keypress(m),500,2191408,2191407,2186541,2186546,2186549,2191416,8,400,6,,ISIC_0067467.JPG
break,html.Screen,4_105_1,2023-09-08T17:36:07.212Z,,0,,,NaN,,,,,,false,,,,2191409,2191409,,2191408,,2191416,8,400,,,
break_continue,html.Screen,4_105_2,2023-09-08T17:36:07.213Z,,0,,,NaN,,,,,,false,,,,2191410,2191410,,2191409,,2191416,8,400,,,
sequence,flow.Sequence,4_105,2023-09-08T17:36:07.213Z,,0,,,4861,completion,,,,,false,,,,2191410,2191410,2186541,2186546,2186549,2191416,8,400,,,
trial,html.Screen,4_106_0,2023-09-08T17:36:12.002Z,,0,3,,4782,response,ISIC_9640145.JPG,8,ISIC_1543770.JPG,ISIC_9640145.JPG,false,1,keypress(m),500,2196198,2196198,2191407,2191410,2191416,2196207,8,400,7,,ISIC_1543770.JPG
break,html.Screen,4_106_1,2023-09-08T17:36:12.003Z,,0,,,NaN,,,,,,false,,,,2196200,2196200,,2196198,,2196207,8,400,,,
break_continue,html.Screen,4_106_2,2023-09-08T17:36:12.004Z,,0,,,NaN,,,,,,false,,,,2196201,2196200,,2196200,,2196207,8,400,,,
sequence,flow.Sequence,4_106,2023-09-08T17:36:12.004Z,,0,,,4784,completion,,,,,false,,,,2196201,2196200,2191407,2191410,2191416,2196207,8,400,,,
trial,html.Screen,4_107_0,2023-09-08T17:36:15.671Z,,0,3,,3660,response,ISIC_9685931.JPG,8,ISIC_0182730.JPG,ISIC_0182730.JPG,false,0,keypress(z),500,2199868,2199867,2196199,2196201,2196207,2199874,8,400,8,,ISIC_9685931.JPG
break,html.Screen,4_107_1,2023-09-08T17:36:15.673Z,,0,,,NaN,,,,,,false,,,,2199869,2199869,,2199868,,2199874,8,400,,,
break_continue,html.Screen,4_107_2,2023-09-08T17:36:15.673Z,,0,,,NaN,,,,,,false,,,,2199869,2199869,,2199869,,2199874,8,400,,,
sequence,flow.Sequence,4_107,2023-09-08T17:36:15.673Z,,0,,,3662,completion,,,,,false,,,,2199869,2199869,2196199,2196201,2196207,2199874,8,400,,,
trial,html.Screen,4_108_0,2023-09-08T17:36:19.806Z,,0,3,,4128,response,ISIC_4164882.JPG,5,ISIC_0025744.JPG,ISIC_4164882.JPG,false,1,keypress(m),500,2204002,2204002,2199866,2199869,2199874,2204007,8,400,9,,ISIC_0025744.JPG
break,html.Screen,4_108_1,2023-09-08T17:36:19.808Z,,0,,,NaN,,,,,,false,,,,2204004,2204004,,2204002,,2204007,8,400,,,
break_continue,html.Screen,4_108_2,2023-09-08T17:36:19.808Z,,0,,,NaN,,,,,,false,,,,2204004,2204004,,2204004,,2204007,8,400,,,
sequence,flow.Sequence,4_108,2023-09-08T17:36:19.808Z,,0,,,4130,completion,,,,,false,,,,2204004,2204004,2199866,2199869,2199874,2204007,8,400,,,
trial,html.Screen,4_109_0,2023-09-08T17:36:23.444Z,,0,3,,3633,response,ISIC_0024898.JPG,7,ISIC_0070248.JPG,ISIC_0070248.JPG,false,0,keypress(z),500,2207640,2207640,2203999,2204005,2204007,2207649,8,400,10,,ISIC_0024898.JPG
break,html.Screen,4_109_1,2023-09-08T17:36:23.445Z,,0,,,NaN,,,,,,false,,,,2207642,2207642,,2207641,,2207649,8,400,,,
break_continue,html.Screen,4_109_2,2023-09-08T17:36:23.446Z,,0,,,NaN,,,,,,false,,,,2207642,2207642,,2207642,,2207649,8,400,,,
sequence,flow.Sequence,4_109,2023-09-08T17:36:23.446Z,,0,,,3635,completion,,,,,false,,,,2207643,2207642,2203999,2204005,2204007,2207649,8,400,,,
trial,html.Screen,4_110_0,2023-09-08T17:36:26.953Z,,0,3,,3500,response,ISIC_4259290.JPG,8,ISIC_0067476.JPG,ISIC_4259290.JPG,false,1,keypress(m),500,2211149,2211149,2207641,2207643,2207649,2211157,8,400,11,,ISIC_0067476.JPG
break,html.Screen,4_110_1,2023-09-08T17:36:26.954Z,,0,,,NaN,,,,,,false,,,,2211151,2211150,,2211150,,2211157,8,400,,,
break_continue,html.Screen,4_110_2,2023-09-08T17:36:26.955Z,,0,,,NaN,,,,,,false,,,,2211152,2211152,,2211151,,2211157,8,400,,,
sequence,flow.Sequence,4_110,2023-09-08T17:36:26.955Z,,0,,,3503,completion,,,,,false,,,,2211152,2211152,2207641,2207643,2207649,2211157,8,400,,,
trial,html.Screen,4_111_0,2023-09-08T17:36:30.461Z,,0,3,,3501,response,ISIC_9767255.JPG,8,ISIC_0033704.JPG,ISIC_0033704.JPG,false,0,keypress(z),500,2214658,2214658,2211149,2211152,2211157,2214665,8,400,12,,ISIC_9767255.JPG
break,html.Screen,4_111_1,2023-09-08T17:36:30.463Z,,0,,,NaN,,,,,,false,,,,2214660,2214659,,2214658,,2214665,8,400,,,
break_continue,html.Screen,4_111_2,2023-09-08T17:36:30.463Z,,0,,,NaN,,,,,,false,,,,2214660,2214660,,2214660,,2214665,8,400,,,
sequence,flow.Sequence,4_111,2023-09-08T17:36:30.463Z,,0,,,3503,completion,,,,,false,,,,2214660,2214660,2211149,2211152,2211157,2214665,8,400,,,
trial,html.Screen,4_112_0,2023-09-08T17:36:34.563Z,,0,3,,4094,response,ISIC_1043267.JPG,7,ISIC_7335659.JPG,ISIC_7335659.JPG,false,0,keypress(z),500,2218760,2218759,2214657,2214660,2214665,2218761,8,400,13,,ISIC_1043267.JPG
break,html.Screen,4_112_1,2023-09-08T17:36:34.565Z,,0,,,NaN,,,,,,false,,,,2218762,2218762,,2218760,,2218761,8,400,,,
break_continue,html.Screen,4_112_2,2023-09-08T17:36:34.565Z,,0,,,NaN,,,,,,false,,,,2218762,2218762,,2218762,,2218761,8,400,,,
sequence,flow.Sequence,4_112,2023-09-08T17:36:34.565Z,,0,,,4097,completion,,,,,false,,,,2218762,2218762,2214657,2214660,2214665,2218761,8,400,,,
trial,html.Screen,4_113_0,2023-09-08T17:36:39.466Z,,0,3,,4901,response,ISIC_0000240.JPG,7,ISIC_7260492.JPG,ISIC_0000240.JPG,false,1,keypress(m),500,2223663,2223662,2218753,2218762,2218761,2223670,8,400,14,,ISIC_7260492.JPG
break,html.Screen,4_113_1,2023-09-08T17:36:39.467Z,,0,,,NaN,,,,,,false,,,,2223663,2223663,,2223663,,2223670,8,400,,,
break_continue,html.Screen,4_113_2,2023-09-08T17:36:39.468Z,,0,,,NaN,,,,,,false,,,,2223664,2223664,,2223664,,2223670,8,400,,,
sequence,flow.Sequence,4_113,2023-09-08T17:36:39.468Z,,0,,,4903,completion,,,,,false,,,,2223664,2223664,2218753,2218762,2218761,2223670,8,400,,,
trial,html.Screen,4_114_0,2023-09-08T17:36:43.583Z,,0,3,,4109,response,ISIC_0056156.JPG,9,ISIC_1042960.JPG,ISIC_0056156.JPG,false,1,keypress(m),500,2227779,2227779,2223661,2223664,2223670,2227786,8,400,15,,ISIC_1042960.JPG
break,html.Screen,4_114_1,2023-09-08T17:36:43.584Z,,0,,,NaN,,,,,,false,,,,2227780,2227780,,2227780,,2227786,8,400,,,
break_continue,html.Screen,4_114_2,2023-09-08T17:36:43.584Z,,0,,,NaN,,,,,,false,,,,2227781,2227781,,2227781,,2227786,8,400,,,
sequence,flow.Sequence,4_114,2023-09-08T17:36:43.585Z,,0,,,4111,completion,,,,,false,,,,2227781,2227781,2223661,2223664,2223670,2227786,8,400,,,
trial,html.Screen,4_115_0,2023-09-08T17:36:48.275Z,,0,3,,4686,response,ISIC_0046225.JPG,6,ISIC_7896667.JPG,ISIC_0046225.JPG,false,1,keypress(m),500,2232472,2232472,2227778,2227781,2227786,2232478,8,400,16,,ISIC_7896667.JPG
break,html.Screen,4_115_1,2023-09-08T17:36:48.277Z,,0,,,NaN,,,,,,false,,,,2232474,2232474,,2232473,,2232478,8,400,,,
break_continue,html.Screen,4_115_2,2023-09-08T17:36:48.277Z,,0,,,NaN,,,,,,false,,,,2232474,2232474,,2232474,,2232478,8,400,,,
sequence,flow.Sequence,4_115,2023-09-08T17:36:48.277Z,,0,,,4688,completion,,,,,false,,,,2232474,2232474,2227778,2227781,2227786,2232478,8,400,,,
trial,html.Screen,4_116_0,2023-09-08T17:36:51.303Z,,0,3,,3022,response,ISIC_0063568.JPG,8,ISIC_6017985.JPG,ISIC_0063568.JPG,false,1,keypress(m),500,2235500,2235500,2232470,2232474,2232478,2235503,8,400,17,,ISIC_6017985.JPG
break,html.Screen,4_116_1,2023-09-08T17:36:51.305Z,,0,,,NaN,,,,,,false,,,,2235502,2235502,,2235501,,2235503,8,400,,,
break_continue,html.Screen,4_116_2,2023-09-08T17:36:51.306Z,,0,,,NaN,,,,,,false,,,,2235503,2235503,,2235502,,2235503,8,400,,,
sequence,flow.Sequence,4_116,2023-09-08T17:36:51.306Z,,0,,,3025,completion,,,,,false,,,,2235503,2235503,2232470,2232474,2232478,2235503,8,400,,,
trial,html.Screen,4_117_0,2023-09-08T17:36:56.638Z,,0,3,,5331,response,ISIC_0069638.JPG,5,ISIC_0056444.JPG,ISIC_0069638.JPG,false,1,keypress(m),500,2240834,2240834,2235494,2235503,2235503,2240840,8,400,18,,ISIC_0056444.JPG
break,html.Screen,4_117_1,2023-09-08T17:36:56.639Z,,0,,,NaN,,,,,,false,,,,2240836,2240836,,2240835,,2240840,8,400,,,
break_continue,html.Screen,4_117_2,2023-09-08T17:36:56.640Z,,0,,,NaN,,,,,,false,,,,2240837,2240836,,2240836,,2240840,8,400,,,
sequence,flow.Sequence,4_117,2023-09-08T17:36:56.640Z,,0,,,5333,completion,,,,,false,,,,2240837,2240836,2235494,2235503,2235503,2240840,8,400,,,
trial,html.Screen,4_118_0,2023-09-08T17:37:00.466Z,,0,3,,3822,response,ISIC_7147713.JPG,6,ISIC_0064633.JPG,ISIC_0064633.JPG,false,0,keypress(z),500,2244664,2244662,2240832,2240837,2240840,2244665,8,400,19,,ISIC_7147713.JPG
break,html.Screen,4_118_1,2023-09-08T17:37:00.468Z,,0,,,NaN,,,,,,false,,,,2244665,2244664,,2244664,,2244665,8,400,,,
break_continue,html.Screen,4_118_2,2023-09-08T17:37:00.469Z,,0,,,NaN,,,,,,false,,,,2244666,2244665,,2244665,,2244665,8,400,,,
sequence,flow.Sequence,4_118,2023-09-08T17:37:00.469Z,,0,,,3825,completion,,,,,false,,,,2244666,2244665,2240832,2240837,2240840,2244665,8,400,,,
trial,html.Screen,4_119_0,2023-09-08T17:37:03.543Z,,0,3,,3074,response,ISIC_0060760.JPG,7,ISIC_0031705.JPG,ISIC_0060760.JPG,false,1,keypress(m),500,2247740,2247739,2244657,2244666,2244665,2247749,8,400,20,,ISIC_0031705.JPG
break,html.Screen,4_119_1,2023-09-08T17:37:03.544Z,,0,,,NaN,,,,,,false,,,,2247741,2247741,,2247740,,2247749,8,400,,,
break_continue,html.Screen,4_119_2,2023-09-08T17:37:03.544Z,,0,,,NaN,,,,,,false,,,,2247741,2247741,,2247741,,2247749,8,400,,,
sequence,flow.Sequence,4_119,2023-09-08T17:37:03.545Z,,0,,,3076,completion,,,,,false,,,,2247741,2247741,2244657,2244666,2244665,2247749,8,400,,,
trial,html.Screen,4_120_0,2023-09-08T17:37:09.550Z,,0,3,,5998,response,ISIC_0046449.JPG,6,ISIC_0033802.JPG,ISIC_0046449.JPG,false,1,keypress(m),500,2253747,2253747,2247740,2247742,2247749,2253749,8,400,21,,ISIC_0033802.JPG
break,html.Screen,4_120_1,2023-09-08T17:37:09.552Z,,0,,,NaN,,,,,,false,,,,2253749,2253748,,2253747,,2253749,8,400,,,
break_continue,html.Screen,4_120_2,2023-09-08T17:37:09.552Z,,0,,,NaN,,,,,,false,,,,2253749,2253749,,2253749,,2253749,8,400,,,
sequence,flow.Sequence,4_120,2023-09-08T17:37:09.552Z,,0,,,6000,completion,,,,,false,,,,2253749,2253749,2247740,2247742,2247749,2253749,8,400,,,
trial,html.Screen,4_121_0,2023-09-08T17:37:12.644Z,,0,3,,3092,response,ISIC_0009939.JPG,5,ISIC_0027238.JPG,ISIC_0027238.JPG,false,0,keypress(z),500,2256841,2256841,2253740,2253749,2253749,2256848,8,400,22,,ISIC_0009939.JPG
break,html.Screen,4_121_1,2023-09-08T17:37:12.646Z,,0,,,NaN,,,,,,false,,,,2256843,2256842,,2256842,,2256848,8,400,,,
break_continue,html.Screen,4_121_2,2023-09-08T17:37:12.646Z,,0,,,NaN,,,,,,false,,,,2256843,2256843,,2256843,,2256848,8,400,,,
sequence,flow.Sequence,4_121,2023-09-08T17:37:12.646Z,,0,,,3094,completion,,,,,false,,,,2256843,2256843,2253740,2253749,2253749,2256848,8,400,,,
trial,html.Screen,4_122_0,2023-09-08T17:37:15.681Z,,0,3,,3030,response,ISIC_0072943.JPG,6,ISIC_0377965.JPG,ISIC_0377965.JPG,false,0,keypress(z),500,2259878,2259878,2256840,2256843,2256848,2259886,8,400,23,,ISIC_0072943.JPG
break,html.Screen,4_122_1,2023-09-08T17:37:15.683Z,,0,,,NaN,,,,,,false,,,,2259879,2259879,,2259879,,2259886,8,400,,,
break_continue,html.Screen,4_122_2,2023-09-08T17:37:15.683Z,,0,,,NaN,,,,,,false,,,,2259880,2259880,,2259879,,2259886,8,400,,,
sequence,flow.Sequence,4_122,2023-09-08T17:37:15.683Z,,0,,,3032,completion,,,,,false,,,,2259880,2259880,2256840,2256843,2256848,2259886,8,400,,,
trial,html.Screen,4_123_0,2023-09-08T17:37:20.166Z,,0,3,,4476,response,ISIC_0012055.JPG,5,ISIC_5203791.JPG,ISIC_5203791.JPG,false,0,keypress(z),500,2264362,2264362,2259878,2259880,2259886,2264369,8,400,24,,ISIC_0012055.JPG
break,html.Screen,4_123_1,2023-09-08T17:37:20.167Z,,0,,,NaN,,,,,,false,,,,2264364,2264364,,2264363,,2264369,8,400,,,
break_continue,html.Screen,4_123_2,2023-09-08T17:37:20.167Z,,0,,,NaN,,,,,,false,,,,2264364,2264364,,2264364,,2264369,8,400,,,
sequence,flow.Sequence,4_123,2023-09-08T17:37:20.167Z,,0,,,4478,completion,,,,,false,,,,2264364,2264364,2259878,2259880,2259886,2264369,8,400,,,
trial,html.Screen,4_124_0,2023-09-08T17:37:23.034Z,,0,3,,2862,response,ISIC_0011500.JPG,6,ISIC_7702857.JPG,ISIC_0011500.JPG,false,1,keypress(m),500,2267231,2267231,2264361,2264364,2264369,2267236,8,400,25,,ISIC_7702857.JPG
break,html.Screen,4_124_1,2023-09-08T17:37:23.036Z,,0,,,NaN,,,,,,false,,,,2267233,2267233,,2267231,,2267236,8,400,,,
break_continue,html.Screen,4_124_2,2023-09-08T17:37:23.036Z,,0,,,NaN,,,,,,false,,,,2267233,2267233,,2267233,,2267236,8,400,,,
sequence,flow.Sequence,4_124,2023-09-08T17:37:23.036Z,,0,,,2864,completion,,,,,false,,,,2267233,2267233,2264361,2264364,2264369,2267236,8,400,,,
trial,html.Screen,4_125_0,2023-09-08T17:37:26.402Z,,0,3,,3362,response,ISIC_0057218.JPG,9,ISIC_0015166.JPG,ISIC_0057218.JPG,false,1,keypress(m),500,2270599,2270598,2267228,2267233,2267236,2270603,8,400,26,,ISIC_0015166.JPG
break,html.Screen,4_125_1,2023-09-08T17:37:26.403Z,,0,,,NaN,,,,,,false,,,,2270600,2270600,,2270599,,2270603,8,400,,,
break_continue,html.Screen,4_125_2,2023-09-08T17:37:26.403Z,,0,,,NaN,,,,,,false,,,,2270600,2270600,,2270600,,2270603,8,400,,,
sequence,flow.Sequence,4_125,2023-09-08T17:37:26.404Z,,0,,,3364,completion,,,,,false,,,,2270600,2270600,2267228,2267233,2267236,2270603,8,400,,,
trial,html.Screen,4_126_0,2023-09-08T17:37:29.842Z,,0,3,,3436,response,ISIC_7287303.JPG,9,ISIC_2096695.JPG,ISIC_7287303.JPG,false,1,keypress(m),500,2274040,2274039,2270594,2270600,2270603,2274044,8,400,27,,ISIC_2096695.JPG
break,html.Screen,4_126_1,2023-09-08T17:37:29.844Z,,0,,,NaN,,,,,,false,,,,2274041,2274041,,2274040,,2274044,8,400,,,
break_continue,html.Screen,4_126_2,2023-09-08T17:37:29.844Z,,0,,,NaN,,,,,,false,,,,2274041,2274041,,2274041,,2274044,8,400,,,
sequence,flow.Sequence,4_126,2023-09-08T17:37:29.845Z,,0,,,3438,completion,,,,,false,,,,2274041,2274041,2270594,2270600,2270603,2274044,8,400,,,
trial,html.Screen,4_127_0,2023-09-08T17:37:32.872Z,,0,3,,3024,response,ISIC_0024423.JPG,7,ISIC_8887039.JPG,ISIC_0024423.JPG,false,1,keypress(m),500,2277069,2277068,2274036,2274041,2274044,2277078,8,400,28,,ISIC_8887039.JPG
break,html.Screen,4_127_1,2023-09-08T17:37:32.874Z,,0,,,NaN,,,,,,false,,,,2277070,2277070,,2277070,,2277078,8,400,,,
break_continue,html.Screen,4_127_2,2023-09-08T17:37:32.874Z,,0,,,NaN,,,,,,false,,,,2277071,2277071,,2277070,,2277078,8,400,,,
sequence,flow.Sequence,4_127,2023-09-08T17:37:32.874Z,,0,,,3027,completion,,,,,false,,,,2277071,2277071,2274036,2274041,2274044,2277078,8,400,,,
trial,html.Screen,4_128_0,2023-09-08T17:37:37.118Z,,0,3,,4236,response,ISIC_1225511.JPG,6,ISIC_4949672.JPG,ISIC_1225511.JPG,false,1,keypress(m),500,2281315,2281314,2277069,2277072,2277078,2281324,8,400,29,,ISIC_4949672.JPG
break,html.Screen,4_128_1,2023-09-08T17:37:37.120Z,,0,,,NaN,,,,,,false,,,,2281317,2281317,,2281315,,2281324,8,400,,,
break_continue,html.Screen,4_128_2,2023-09-08T17:37:37.120Z,,0,,,NaN,,,,,,false,,,,2281317,2281317,,2281317,,2281324,8,400,,,
sequence,flow.Sequence,4_128,2023-09-08T17:37:37.120Z,,0,,,4239,completion,,,,,false,,,,2281317,2281317,2277069,2277071,2277078,2281324,8,400,,,
trial,html.Screen,4_129_0,2023-09-08T17:37:41.930Z,,0,3,,4803,response,ISIC_3183782.JPG,8,ISIC_5414609.JPG,ISIC_5414609.JPG,false,0,keypress(z),500,2286127,2286127,2281315,2281317,2281324,2286132,8,400,30,,ISIC_3183782.JPG
break,html.Screen,4_129_1,2023-09-08T17:37:41.932Z,,0,,,NaN,,,,,,false,,,,2286128,2286128,,2286128,,2286132,8,400,,,
break_continue,html.Screen,4_129_2,2023-09-08T17:37:41.932Z,,0,,,NaN,,,,,,false,,,,2286129,2286129,,2286128,,2286132,8,400,,,
sequence,flow.Sequence,4_129,2023-09-08T17:37:41.932Z,,0,,,4805,completion,,,,,false,,,,2286129,2286129,2281315,2281317,2281324,2286132,8,400,,,
trial,html.Screen,4_130_0,2023-09-08T17:37:46.226Z,,0,3,,4290,response,ISIC_0025072.JPG,7,ISIC_0010409.JPG,ISIC_0010409.JPG,false,0,keypress(z),500,2290423,2290422,2286123,2286129,2286132,2290432,8,400,31,,ISIC_0025072.JPG
break,html.Screen,4_130_1,2023-09-08T17:37:46.228Z,,0,,,NaN,,,,,,false,,,,2290424,2290424,,2290423,,2290432,8,400,,,
break_continue,html.Screen,4_130_2,2023-09-08T17:37:46.228Z,,0,,,NaN,,,,,,false,,,,2290425,2290425,,2290424,,2290432,8,400,,,
sequence,flow.Sequence,4_130,2023-09-08T17:37:46.228Z,,0,,,4293,completion,,,,,false,,,,2290425,2290425,2286123,2286129,2286132,2290432,8,400,,,
trial,html.Screen,4_131_0,2023-09-08T17:37:52.018Z,,0,3,,5782,response,ISIC_0070412.JPG,7,ISIC_9183042.JPG,ISIC_0070412.JPG,false,1,keypress(m),500,2296215,2296214,2290424,2290425,2290432,2296223,8,400,32,,ISIC_9183042.JPG
break,html.Screen,4_131_1,2023-09-08T17:37:52.020Z,,0,,,NaN,,,,,,false,,,,2296217,2296216,,2296215,,2296223,8,400,,,
break_continue,html.Screen,4_131_2,2023-09-08T17:37:52.020Z,,0,,,NaN,,,,,,false,,,,2296217,2296217,,2296217,,2296223,8,400,,,
sequence,flow.Sequence,4_131,2023-09-08T17:37:52.020Z,,0,,,5785,completion,,,,,false,,,,2296217,2296217,2290424,2290425,2290432,2296223,8,400,,,
trial,html.Screen,4_132_0,2023-09-08T17:37:55.955Z,,0,3,,3928,response,ISIC_4462476.JPG,4,ISIC_0066094.JPG,ISIC_0066094.JPG,false,0,keypress(z),500,2300152,2300151,2296215,2296217,2296223,2300157,8,400,33,,ISIC_4462476.JPG
break,html.Screen,4_132_1,2023-09-08T17:37:55.957Z,,0,,,NaN,,,,,,false,,,,2300154,2300154,,2300152,,2300157,8,400,,,
break_continue,html.Screen,4_132_2,2023-09-08T17:37:55.957Z,,0,,,NaN,,,,,,false,,,,2300155,2300155,,2300154,,2300157,8,400,,,
sequence,flow.Sequence,4_132,2023-09-08T17:37:55.957Z,,0,,,3932,completion,,,,,false,,,,2300155,2300155,2296215,2296217,2296223,2300157,8,400,,,
trial,html.Screen,4_133_0,2023-09-08T17:37:59.624Z,,0,3,,3663,response,ISIC_0066992.JPG,8,ISIC_0025904.JPG,ISIC_0066992.JPG,false,1,keypress(m),500,2303820,2303820,2300148,2300155,2300157,2303823,8,400,34,,ISIC_0025904.JPG
break,html.Screen,4_133_1,2023-09-08T17:37:59.625Z,,0,,,NaN,,,,,,false,,,,2303823,2303822,,2303820,,2303823,8,400,,,
break_continue,html.Screen,4_133_2,2023-09-08T17:37:59.626Z,,0,,,NaN,,,,,,false,,,,2303823,2303823,,2303823,,2303823,8,400,,,
sequence,flow.Sequence,4_133,2023-09-08T17:37:59.626Z,,0,,,3666,completion,,,,,false,,,,2303823,2303823,2300148,2300155,2300157,2303823,8,400,,,
trial,html.Screen,4_134_0,2023-09-08T17:38:05.106Z,,0,3,,5479,response,ISIC_0000148.JPG,6,ISIC_0192596.JPG,ISIC_0000148.JPG,false,1,keypress(m),500,2309302,2309302,2303815,2303823,2303823,2309307,8,400,35,,ISIC_0192596.JPG
break,html.Screen,4_134_1,2023-09-08T17:38:05.107Z,,0,,,NaN,,,,,,false,,,,2309304,2309304,,2309302,,2309307,8,400,,,
break_continue,html.Screen,4_134_2,2023-09-08T17:38:05.107Z,,0,,,NaN,,,,,,false,,,,2309304,2309304,,2309304,,2309307,8,400,,,
sequence,flow.Sequence,4_134,2023-09-08T17:38:05.108Z,,0,,,5481,completion,,,,,false,,,,2309305,2309304,2303815,2303823,2303823,2309307,8,400,,,
trial,html.Screen,4_135_0,2023-09-08T17:38:10.506Z,,0,3,,5395,response,ISIC_9300579.JPG,9,ISIC_8362891.JPG,ISIC_9300579.JPG,false,1,keypress(m),500,2314702,2314702,2309298,2309305,2309307,2314707,8,400,36,,ISIC_8362891.JPG
break,html.Screen,4_135_1,2023-09-08T17:38:10.507Z,,0,,,NaN,,,,,,false,,,,2314705,2314704,,2314703,,2314707,8,400,,,
break_continue,html.Screen,4_135_2,2023-09-08T17:38:10.508Z,,0,,,NaN,,,,,,false,,,,2314705,2314705,,2314705,,2314707,8,400,,,
sequence,flow.Sequence,4_135,2023-09-08T17:38:10.508Z,,0,,,5398,completion,,,,,false,,,,2314705,2314705,2309298,2309305,2309307,2314707,8,400,,,
trial,html.Screen,4_136_0,2023-09-08T17:38:16.446Z,,0,3,,5935,response,ISIC_0061936.JPG,7,ISIC_7074321.JPG,ISIC_0061936.JPG,false,1,keypress(m),500,2320643,2320642,2314698,2314705,2314707,2320648,8,400,37,,ISIC_7074321.JPG
break,html.Screen,4_136_1,2023-09-08T17:38:16.448Z,,0,,,NaN,,,,,,false,,,,2320645,2320645,,2320643,,2320648,8,400,,,
break_continue,html.Screen,4_136_2,2023-09-08T17:38:16.449Z,,0,,,NaN,,,,,,false,,,,2320645,2320645,,2320645,,2320648,8,400,,,
sequence,flow.Sequence,4_136,2023-09-08T17:38:16.449Z,,0,,,5938,completion,,,,,false,,,,2320645,2320645,2314698,2314705,2314707,2320648,8,400,,,
trial,html.Screen,4_137_0,2023-09-08T17:38:21.078Z,,0,3,,4627,response,ISIC_2647198.JPG,8,ISIC_0413804.JPG,ISIC_0413804.JPG,false,0,keypress(z),500,2325276,2325275,2320640,2320645,2320648,2325282,8,400,38,,ISIC_2647198.JPG
break,html.Screen,4_137_1,2023-09-08T17:38:21.080Z,,0,,,NaN,,,,,,false,,,,2325276,2325276,,2325276,,2325282,8,400,,,
break_continue,html.Screen,4_137_2,2023-09-08T17:38:21.080Z,,0,,,NaN,,,,,,false,,,,2325278,2325278,,2325276,,2325282,8,400,,,
sequence,flow.Sequence,4_137,2023-09-08T17:38:21.080Z,,0,,,4630,completion,,,,,false,,,,2325278,2325278,2320640,2320645,2320648,2325282,8,400,,,
trial,html.Screen,4_138_0,2023-09-08T17:38:25.819Z,,0,3,,4733,response,ISIC_0016145.JPG,5,ISIC_0030694.JPG,ISIC_0016145.JPG,false,1,keypress(m),500,2330015,2330015,2325273,2325278,2325282,2330023,8,400,39,,ISIC_0030694.JPG
break,html.Screen,4_138_1,2023-09-08T17:38:25.820Z,,0,,,NaN,,,,,,false,,,,2330018,2330017,,2330016,,2330023,8,400,,,
break_continue,html.Screen,4_138_2,2023-09-08T17:38:25.821Z,,0,,,NaN,,,,,,false,,,,2330018,2330018,,2330018,,2330023,8,400,,,
sequence,flow.Sequence,4_138,2023-09-08T17:38:25.821Z,,0,,,4736,completion,,,,,false,,,,2330018,2330018,2325273,2325278,2325282,2330023,8,400,,,
trial,html.Screen,4_139_0,2023-09-08T17:38:29.088Z,,0,3,,3261,response,ISIC_6234702.JPG,8,ISIC_0032492.JPG,ISIC_0032492.JPG,false,0,keypress(z),500,2333285,2333284,2330015,2330018,2330023,2333290,8,400,40,,ISIC_6234702.JPG
break,html.Screen,4_139_1,2023-09-08T17:38:29.089Z,,0,,,NaN,,,,,,false,,,,2333286,2333286,,2333285,,2333290,8,400,,,
break_continue,html.Screen,4_139_2,2023-09-08T17:38:29.090Z,,0,,,NaN,,,,,,false,,,,2333287,2333287,,2333286,,2333290,8,400,,,
sequence,flow.Sequence,4_139,2023-09-08T17:38:29.090Z,,0,,,3264,completion,,,,,false,,,,2333287,2333287,2330015,2330018,2330023,2333290,8,400,,,
trial,html.Screen,4_140_0,2023-09-08T17:38:33.944Z,,0,3,,4850,response,ISIC_0033812.JPG,6,ISIC_1258763.JPG,ISIC_0033812.JPG,false,1,keypress(m),500,2338141,2338140,2333282,2333287,2333290,2338148,8,400,41,,ISIC_1258763.JPG
break,html.Screen,4_140_1,2023-09-08T17:38:33.945Z,,0,,,NaN,,,,,,false,,,,2338142,2338142,,2338141,,2338148,8,400,,,
break_continue,html.Screen,4_140_2,2023-09-08T17:38:33.946Z,,0,,,NaN,,,,,,false,,,,2338143,2338143,,2338142,,2338148,8,400,,,
sequence,flow.Sequence,4_140,2023-09-08T17:38:33.946Z,,0,,,4853,completion,,,,,false,,,,2338143,2338143,2333282,2333287,2333290,2338148,8,400,,,
trial,html.Screen,4_141_0,2023-09-08T17:38:40.817Z,,0,3,,6866,response,ISIC_0626501.JPG,8,ISIC_0066289.JPG,ISIC_0626501.JPG,false,1,keypress(m),500,2345015,2345014,2338140,2338143,2338148,2345019,8,400,42,,ISIC_0066289.JPG
break,html.Screen,4_141_1,2023-09-08T17:38:40.819Z,,0,,,NaN,,,,,,false,,,,2345016,2345015,,2345015,,2345019,8,400,,,
break_continue,html.Screen,4_141_2,2023-09-08T17:38:40.820Z,,0,,,NaN,,,,,,false,,,,2345017,2345016,,2345016,,2345019,8,400,,,
sequence,flow.Sequence,4_141,2023-09-08T17:38:40.820Z,,0,,,6868,completion,,,,,false,,,,2345017,2345016,2338140,2338143,2338148,2345019,8,400,,,
trial,html.Screen,4_142_0,2023-09-08T17:38:45.170Z,,0,3,,4348,response,ISIC_0010878.JPG,5,ISIC_0069908.JPG,ISIC_0010878.JPG,false,1,keypress(m),500,2349367,2349367,2345011,2345017,2345019,2349369,8,400,43,,ISIC_0069908.JPG
break,html.Screen,4_142_1,2023-09-08T17:38:45.172Z,,0,,,NaN,,,,,,false,,,,2349369,2349368,,2349368,,2349369,8,400,,,
break_continue,html.Screen,4_142_2,2023-09-08T17:38:45.173Z,,0,,,NaN,,,,,,false,,,,2349370,2349370,,2349369,,2349369,8,400,,,
sequence,flow.Sequence,4_142,2023-09-08T17:38:45.173Z,,0,,,4351,completion,,,,,false,,,,2349370,2349370,2345011,2345017,2345019,2349369,8,400,,,
trial,html.Screen,4_143_0,2023-09-08T17:38:48.713Z,,0,3,,3540,response,ISIC_0070679.JPG,8,ISIC_0013615.JPG,ISIC_0013615.JPG,false,0,keypress(z),500,2352910,2352909,2349361,2349370,2349369,2352919,8,400,44,,ISIC_0070679.JPG
break,html.Screen,4_143_1,2023-09-08T17:38:48.715Z,,0,,,NaN,,,,,,false,,,,2352912,2352912,,2352911,,2352919,8,400,,,
break_continue,html.Screen,4_143_2,2023-09-08T17:38:48.715Z,,0,,,NaN,,,,,,false,,,,2352913,2352913,,2352913,,2352919,8,400,,,
sequence,flow.Sequence,4_143,2023-09-08T17:38:48.716Z,,0,,,3544,completion,,,,,false,,,,2352913,2352913,2349361,2349370,2349369,2352919,8,400,,,
trial,html.Screen,4_144_0,2023-09-08T17:38:53.726Z,,0,3,,5004,response,ISIC_0067339.JPG,7,ISIC_4566439.JPG,ISIC_0067339.JPG,false,1,keypress(m),500,2357924,2357923,2352910,2352913,2352919,2357931,8,400,45,,ISIC_4566439.JPG
break,html.Screen,4_144_1,2023-09-08T17:38:53.728Z,,0,,,NaN,,,,,,false,,,,2357925,2357925,,2357924,,2357931,8,400,,,
break_continue,html.Screen,4_144_2,2023-09-08T17:38:53.728Z,,0,,,NaN,,,,,,false,,,,2357925,2357925,,2357925,,2357931,8,400,,,
sequence,flow.Sequence,4_144,2023-09-08T17:38:53.729Z,,0,,,5006,completion,,,,,false,,,,2357925,2357925,2352910,2352913,2352919,2357931,8,400,,,
trial,html.Screen,4_145_0,2023-09-08T17:38:59.172Z,,0,3,,5437,response,ISIC_0015015.JPG,8,ISIC_0000725.JPG,ISIC_0015015.JPG,false,1,keypress(m),500,2363368,2363368,2357923,2357925,2357931,2363373,8,400,46,,ISIC_0000725.JPG
break,html.Screen,4_145_1,2023-09-08T17:38:59.174Z,,0,,,NaN,,,,,,false,,,,2363371,2363371,,2363369,,2363373,8,400,,,
break_continue,html.Screen,4_145_2,2023-09-08T17:38:59.174Z,,0,,,NaN,,,,,,false,,,,2363372,2363371,,2363371,,2363373,8,400,,,
sequence,flow.Sequence,4_145,2023-09-08T17:38:59.174Z,,0,,,5440,completion,,,,,false,,,,2363372,2363371,2357923,2357925,2357931,2363373,8,400,,,
trial,html.Screen,4_146_0,2023-09-08T17:39:03.938Z,,0,3,,4761,response,ISIC_0028325.JPG,8,ISIC_5123817.JPG,ISIC_0028325.JPG,false,1,keypress(m),500,2368135,2368134,2363365,2363372,2363373,2368144,8,400,47,,ISIC_5123817.JPG
break,html.Screen,4_146_1,2023-09-08T17:39:03.940Z,,0,,,NaN,,,,,,false,,,,2368137,2368137,,2368136,,2368144,8,400,,,
break_continue,html.Screen,4_146_2,2023-09-08T17:39:03.940Z,,0,,,NaN,,,,,,false,,,,2368137,2368137,,2368137,,2368144,8,400,,,
sequence,flow.Sequence,4_146,2023-09-08T17:39:03.940Z,,0,,,4764,completion,,,,,false,,,,2368137,2368137,2363365,2363372,2363373,2368144,8,400,,,
trial,html.Screen,4_147_0,2023-09-08T17:39:08.442Z,,0,3,,4494,response,ISIC_0010543.JPG,8,ISIC_2183722.JPG,ISIC_0010543.JPG,false,1,keypress(m),500,2372638,2372638,2368136,2368137,2368144,2372644,8,400,48,,ISIC_2183722.JPG
break,html.Screen,4_147_1,2023-09-08T17:39:08.443Z,,0,,,NaN,,,,,,false,,,,2372640,2372640,,2372639,,2372644,8,400,,,
break_continue,html.Screen,4_147_2,2023-09-08T17:39:08.444Z,,0,,,NaN,,,,,,false,,,,2372641,2372641,,2372641,,2372644,8,400,,,
sequence,flow.Sequence,4_147,2023-09-08T17:39:08.444Z,,0,,,4497,completion,,,,,false,,,,2372641,2372641,2368136,2368137,2368144,2372644,8,400,,,
trial,html.Screen,4_148_0,2023-09-08T17:39:12.763Z,,0,3,,4316,response,ISIC_0000180.JPG,5,ISIC_4119029.JPG,ISIC_0000180.JPG,false,1,keypress(m),500,2376960,2376960,2372635,2372641,2372644,2376965,8,400,49,,ISIC_4119029.JPG
break,html.Screen,4_148_1,2023-09-08T17:39:12.765Z,,0,,,NaN,,,,,,false,,,,2376962,2376962,,2376961,,2376965,8,400,,,
break_continue,html.Screen,4_148_2,2023-09-08T17:39:12.765Z,,0,,,NaN,,,,,,false,,,,2376962,2376962,,2376962,,2376965,8,400,,,
sequence,flow.Sequence,4_148,2023-09-08T17:39:12.766Z,,0,,,4318,completion,,,,,false,,,,2376962,2376962,2372635,2372641,2372644,2376965,8,400,,,
trial,html.Screen,4_149_0,2023-09-08T17:39:16.576Z,,0,3,,3808,response,ISIC_9802008.JPG,9,ISIC_0014319.JPG,ISIC_0014319.JPG,false,0,keypress(z),500,2380774,2380773,2376956,2376963,2376965,2380781,8,400,50,,ISIC_9802008.JPG
break,html.Screen,4_149_1,2023-09-08T17:39:26.578Z,,0,,,10000,timeout,,,,,false,,,,2390776,2390773,2380773,2380774,2380781,2390781,8,400,,,
break_continue,html.Screen,4_149_2,2023-09-08T17:39:27.397Z,,0,,,798,response,,,,,false,continue,keypress(Space),,2391594,2391579,2390773,2390776,2390781,2391598,8,400,,,
sequence,flow.Sequence,4_149,2023-09-08T17:39:27.397Z,,0,,,14614,completion,,,,,false,,,,2391594,2391579,2376956,2376963,2376965,2391598,8,400,,,
trial,html.Screen,4_150_0,2023-09-08T17:39:30.674Z,,0,4,,3272,response,ISIC_0027036.JPG,6,ISIC_8650516.JPG,ISIC_0027036.JPG,false,1,keypress(m),500,2394871,2394870,2391590,2391594,2391598,2394873,8,400,1,,ISIC_8650516.JPG
break,html.Screen,4_150_1,2023-09-08T17:39:30.675Z,,0,,,NaN,,,,,,false,,,,2394872,2394872,,2394871,,2394873,8,400,,,
break_continue,html.Screen,4_150_2,2023-09-08T17:39:30.676Z,,0,,,NaN,,,,,,false,,,,2394873,2394873,,2394872,,2394873,8,400,,,
sequence,flow.Sequence,4_150,2023-09-08T17:39:30.676Z,,0,,,3275,completion,,,,,false,,,,2394873,2394873,2391590,2391594,2391598,2394873,8,400,,,
trial,html.Screen,4_151_0,2023-09-08T17:39:34.983Z,,0,4,,4307,response,ISIC_0000274.JPG,8,ISIC_5732374.JPG,ISIC_0000274.JPG,false,1,keypress(m),500,2399180,2399180,2394864,2394873,2394873,2399181,8,400,2,,ISIC_5732374.JPG
break,html.Screen,4_151_1,2023-09-08T17:39:34.985Z,,0,,,NaN,,,,,,false,,,,2399182,2399181,,2399180,,2399181,8,400,,,
break_continue,html.Screen,4_151_2,2023-09-08T17:39:34.985Z,,0,,,NaN,,,,,,false,,,,2399182,2399182,,2399182,,2399181,8,400,,,
sequence,flow.Sequence,4_151,2023-09-08T17:39:34.985Z,,0,,,4309,completion,,,,,false,,,,2399183,2399182,2394864,2394873,2394873,2399181,8,400,,,
trial,html.Screen,4_152_0,2023-09-08T17:39:37.982Z,,0,4,,2998,response,ISIC_0014557.JPG,6,ISIC_9625295.JPG,ISIC_9625295.JPG,false,0,keypress(z),500,2402179,2402179,2399173,2399183,2399181,2402181,8,400,3,,ISIC_0014557.JPG
break,html.Screen,4_152_1,2023-09-08T17:39:37.984Z,,0,,,NaN,,,,,,false,,,,2402181,2402181,,2402180,,2402181,8,400,,,
break_continue,html.Screen,4_152_2,2023-09-08T17:39:37.985Z,,0,,,NaN,,,,,,false,,,,2402181,2402181,,2402181,,2402181,8,400,,,
sequence,flow.Sequence,4_152,2023-09-08T17:39:37.985Z,,0,,,3000,completion,,,,,false,,,,2402181,2402181,2399173,2399183,2399181,2402181,8,400,,,
trial,html.Screen,4_153_0,2023-09-08T17:39:41.898Z,,0,4,,3914,response,ISIC_4433832.JPG,5,ISIC_3770380.JPG,ISIC_4433832.JPG,false,1,keypress(m),500,2406095,2406095,2402173,2402182,2402181,2406098,8,400,4,,ISIC_3770380.JPG
break,html.Screen,4_153_1,2023-09-08T17:39:41.899Z,,0,,,NaN,,,,,,false,,,,2406096,2406096,,2406095,,2406098,8,400,,,
break_continue,html.Screen,4_153_2,2023-09-08T17:39:41.900Z,,0,,,NaN,,,,,,false,,,,2406097,2406096,,2406096,,2406098,8,400,,,
sequence,flow.Sequence,4_153,2023-09-08T17:39:41.900Z,,0,,,3915,completion,,,,,false,,,,2406097,2406096,2402173,2402182,2402181,2406098,8,400,,,
trial,html.Screen,4_154_0,2023-09-08T17:39:45.744Z,,0,4,,3843,response,ISIC_2470795.JPG,7,ISIC_3898738.JPG,ISIC_2470795.JPG,false,1,keypress(m),500,2409942,2409941,2406089,2406097,2406098,2409948,8,400,5,,ISIC_3898738.JPG
break,html.Screen,4_154_1,2023-09-08T17:39:45.746Z,,0,,,NaN,,,,,,false,,,,2409943,2409942,,2409942,,2409948,8,400,,,
break_continue,html.Screen,4_154_2,2023-09-08T17:39:45.746Z,,0,,,NaN,,,,,,false,,,,2409943,2409943,,2409943,,2409948,8,400,,,
sequence,flow.Sequence,4_154,2023-09-08T17:39:45.746Z,,0,,,3845,completion,,,,,false,,,,2409944,2409943,2406089,2406097,2406098,2409948,8,400,,,
trial,html.Screen,4_155_0,2023-09-08T17:39:49.540Z,,0,4,,3792,response,ISIC_0000186.JPG,6,ISIC_7428248.JPG,ISIC_7428248.JPG,false,0,keypress(z),500,2413741,2413740,2409940,2409944,2409948,2413748,8,400,6,,ISIC_0000186.JPG
break,html.Screen,4_155_1,2023-09-08T17:39:49.542Z,,0,,,NaN,,,,,,false,,,,2413743,2413742,,2413741,,2413748,8,400,,,
break_continue,html.Screen,4_155_2,2023-09-08T17:39:49.542Z,,0,,,NaN,,,,,,false,,,,2413743,2413743,,2413743,,2413748,8,400,,,
sequence,flow.Sequence,4_155,2023-09-08T17:39:49.542Z,,0,,,3795,completion,,,,,false,,,,2413743,2413743,2409940,2409944,2409948,2413748,8,400,,,
trial,html.Screen,4_156_0,2023-09-08T17:39:54.325Z,,0,4,,4781,response,ISIC_1976571.JPG,4,ISIC_9555291.JPG,ISIC_9555291.JPG,false,0,keypress(z),500,2418529,2418529,2413739,2413743,2413748,2418531,8,400,7,,ISIC_1976571.JPG
break,html.Screen,4_156_1,2023-09-08T17:39:54.326Z,,0,,,NaN,,,,,,false,,,,2418531,2418531,,2418530,,2418531,8,400,,,
break_continue,html.Screen,4_156_2,2023-09-08T17:39:54.327Z,,0,,,NaN,,,,,,false,,,,2418532,2418531,,2418531,,2418531,8,400,,,
sequence,flow.Sequence,4_156,2023-09-08T17:39:54.327Z,,0,,,4783,completion,,,,,false,,,,2418532,2418531,2413739,2413743,2413748,2418531,8,400,,,
trial,html.Screen,4_157_0,2023-09-08T17:39:58.569Z,,0,4,,4245,response,ISIC_5247383.JPG,6,ISIC_0029942.JPG,ISIC_0029942.JPG,false,0,keypress(z),500,2422777,2422776,2418523,2418532,2418531,2422785,8,400,8,,ISIC_5247383.JPG
break,html.Screen,4_157_1,2023-09-08T17:39:58.570Z,,0,,,NaN,,,,,,false,,,,2422778,2422778,,2422777,,2422785,8,400,,,
