sender,sender_type,sender_id,timestamp,meta,,blockNo,condition,duration,ended_on,img_left,img_reveal,img_right,loser,practice,response,response_action,selection_duration,time_commit,time_end,time_render,time_run,time_show,time_switch,total_blocks,total_trials,trialNo,url,winner
informed_consent,html.Screen,0,2023-10-31T23:44:05.392Z,"{""labjs_version"":""20.2.4"",""labjs_build"":{""flavor"":""production"",""commit"":""f5b4a49f956347addd546a832a3327688c2c0fef""},""location"":""https://run.pavlovia.org/MurrayBennett/melanoma-2afc/?participant=66206&platform=sona"",""userAgent"":""Mozilla/5.0 (Macintosh; Intel Mac OS X 10_15_7) AppleWebKit/605.1.15 (KHTML, like Gecko) Version/16.5 Safari/605.1.15"",""platform"":""MacIntel"",""language"":""en-US"",""locale"":""en-US"",""timeZone"":""America/Chicago"",""timezoneOffset"":300,""screen_width"":1470,""screen_height"":956,""scroll_width"":1470,""scroll_height"":792,""window_innerWidth"":1470,""window_innerHeight"":840,""devicePixelRatio"":2}",,,,3290,response,,,,,,consent,click button,,5937,5922,2632,2627,2650,5960,,,,"{""participant"":""66206"",""platform"":""sona""}",
Welcome,html.Screen,1,2023-10-31T23:44:06.215Z,,,,asymmetry,799,response,,,,,,continue,click button,,6759,6745,5946,5937,5960,6794,,,,,
trial,html.Screen,2_0_0,2023-10-31T23:44:17.421Z,,0,0,,11187,response,ISIC_6997061.JPG,,ISIC_0069348.JPG,ISIC_0069348.JPG,true,0,keypress(z),500,17965,17964,6777,6760,6794,17994,1,6,1,,ISIC_6997061.JPG
sequence,flow.Sequence,2_0,2023-10-31T23:44:17.421Z,,0,,,11170,completion,,,,,true,,,,17966,17964,6777,6760,6794,17994,1,6,,,
trial,html.Screen,2_1_0,2023-10-31T23:44:28.934Z,,0,0,,11516,timeout,ISIC_0009529.JPG,,ISIC_0057368.JPG,,true,,,500,29478,29478,17977,17966,17994,29510,1,6,2,,
sequence,flow.Sequence,2_1,2023-10-31T23:44:28.934Z,,0,,,11484,completion,,,,,true,,,,29479,29478,17977,17966,17994,29510,1,6,,,
trial,html.Screen,2_2_0,2023-10-31T23:44:38.663Z,,0,0,,9714,response,ISIC_0064954.JPG,,ISIC_9758671.JPG,ISIC_9758671.JPG,true,0,keypress(z),500,39208,39207,29493,29479,29510,39244,1,6,3,,ISIC_0064954.JPG
sequence,flow.Sequence,2_2,2023-10-31T23:44:38.664Z,,0,,,9697,completion,,,,,true,,,,39208,39207,29493,29479,29510,39244,1,6,,,
trial,html.Screen,2_3_0,2023-10-31T23:44:44.585Z,,0,0,,5900,response,ISIC_0005785.JPG,,ISIC_0000080.JPG,ISIC_0005785.JPG,true,1,keypress(m),500,45129,45128,39228,39209,39244,45160,1,6,4,,ISIC_0000080.JPG
sequence,flow.Sequence,2_3,2023-10-31T23:44:44.585Z,,0,,,5884,completion,,,,,true,,,,45129,45128,39228,39208,39244,45160,1,6,,,
trial,html.Screen,2_4_0,2023-10-31T23:44:49.077Z,,0,0,,4477,response,ISIC_7944028.JPG,,ISIC_5390060.JPG,ISIC_5390060.JPG,true,0,keypress(z),500,49622,49621,45144,45130,45160,49644,1,6,5,,ISIC_7944028.JPG
sequence,flow.Sequence,2_4,2023-10-31T23:44:49.078Z,,0,,,4461,completion,,,,,true,,,,49622,49621,45144,45130,45160,49644,1,6,,,
trial,html.Screen,2_5_0,2023-10-31T23:44:53.279Z,,0,0,,4197,response,ISIC_0794216.JPG,,ISIC_0010188.JPG,ISIC_0010188.JPG,true,0,keypress(z),500,53824,53823,49626,49622,49644,53860,1,6,6,,ISIC_0794216.JPG
sequence,flow.Sequence,2_5,2023-10-31T23:44:53.280Z,,0,,,4179,completion,,,,,true,,,,53824,53823,49626,49622,49644,53860,1,6,,,
loop,flow.Loop,2,2023-10-31T23:44:53.280Z,,,,,47029,completion,,,,,true,,,,53825,53823,6777,6760,6794,53860,1,6,,,
exp_instructions,html.Screen,3,2023-10-31T23:45:01.559Z,,,,,8243,response,,,,,,continue,keypress(Space),,62104,62087,53844,53825,53860,62143,,,,,
trial,html.Screen,4_0_0,2023-10-31T23:45:06.333Z,,0,1,,4750,response,ISIC_1453146.JPG,15,ISIC_5527447.JPG,ISIC_1453146.JPG,false,1,keypress(m),500,66878,66877,62127,62104,62143,66910,8,400,1,,ISIC_5527447.JPG
break,html.Screen,4_0_1,2023-10-31T23:45:06.336Z,,0,,,NaN,,,,,,false,,,,66880,66880,,66878,,66910,8,400,,,
break_continue,html.Screen,4_0_2,2023-10-31T23:45:06.337Z,,0,,,NaN,,,,,,false,,,,66881,66881,,66881,,66910,8,400,,,
sequence,flow.Sequence,4_0,2023-10-31T23:45:06.337Z,,0,,,4738,completion,,,,,false,,,,66882,66881,62127,62104,62143,66910,8,400,,,
trial,html.Screen,4_1_0,2023-10-31T23:45:09.837Z,,0,1,,3486,response,ISIC_0014132.JPG,7,ISIC_0025779.JPG,ISIC_0014132.JPG,false,1,keypress(m),500,70381,70380,66894,66882,66910,70410,8,400,2,,ISIC_0025779.JPG
break,html.Screen,4_1_1,2023-10-31T23:45:09.839Z,,0,,,NaN,,,,,,false,,,,70384,70383,,70381,,70410,8,400,,,
break_continue,html.Screen,4_1_2,2023-10-31T23:45:09.840Z,,0,,,NaN,,,,,,false,,,,70384,70384,,70384,,70410,8,400,,,
sequence,flow.Sequence,4_1,2023-10-31T23:45:09.841Z,,0,,,3474,completion,,,,,false,,,,70385,70384,66894,66882,66910,70410,8,400,,,
trial,html.Screen,4_2_0,2023-10-31T23:45:13.905Z,,0,1,,4056,response,ISIC_0012904.JPG,4,ISIC_0331124.JPG,ISIC_0331124.JPG,false,0,keypress(z),500,74450,74449,70393,70385,70410,74477,8,400,3,,ISIC_0012904.JPG
break,html.Screen,4_2_1,2023-10-31T23:45:13.907Z,,0,,,NaN,,,,,,false,,,,74452,74451.00000000001,,74450,,74477,8,400,,,
break_continue,html.Screen,4_2_2,2023-10-31T23:45:13.908Z,,0,,,NaN,,,,,,false,,,,74452,74452,,74452,,74477,8,400,,,
sequence,flow.Sequence,4_2,2023-10-31T23:45:13.908Z,,0,,,4042,completion,,,,,false,,,,74453,74452,70393,70385,70410,74477,8,400,,,
trial,html.Screen,4_3_0,2023-10-31T23:45:17.584Z,,0,1,,3667,response,ISIC_9613570.JPG,2,ISIC_5578611.JPG,ISIC_9613570.JPG,false,1,keypress(m),500,78128,78127,74460,74453,74477,78160,8,400,4,,ISIC_5578611.JPG
break,html.Screen,4_3_1,2023-10-31T23:45:17.586Z,,0,,,NaN,,,,,,false,,,,78130,78130,,78129,,78160,8,400,,,
break_continue,html.Screen,4_3_2,2023-10-31T23:45:17.587Z,,0,,,NaN,,,,,,false,,,,78131,78131,,78130,,78160,8,400,,,
sequence,flow.Sequence,4_3,2023-10-31T23:45:17.587Z,,0,,,3654,completion,,,,,false,,,,78131,78131,74460,74453,74477,78160,8,400,,,
trial,html.Screen,4_4_0,2023-10-31T23:45:21.011Z,,0,1,,3410,response,ISIC_0333091.JPG,8,ISIC_2386961.JPG,ISIC_0333091.JPG,false,1,keypress(m),500,81555,81554,78144,78132,78160,81577,8,400,5,,ISIC_2386961.JPG
break,html.Screen,4_4_1,2023-10-31T23:45:21.013Z,,0,,,NaN,,,,,,false,,,,81557,81557,,81555,,81577,8,400,,,
break_continue,html.Screen,4_4_2,2023-10-31T23:45:21.014Z,,0,,,NaN,,,,,,false,,,,81558,81558,,81558,,81577,8,400,,,
sequence,flow.Sequence,4_4,2023-10-31T23:45:21.014Z,,0,,,3398,completion,,,,,false,,,,81559,81558,78144,78132,78160,81577,8,400,,,
trial,html.Screen,4_5_0,2023-10-31T23:45:25.277Z,,0,1,,4257.000000000015,response,ISIC_8931948.JPG,13,ISIC_0010235.JPG,ISIC_0010235.JPG,false,0,keypress(z),500,85821,85820.00000000001,81563,81559,81577,85844,8,400,6,,ISIC_8931948.JPG
break,html.Screen,4_5_1,2023-10-31T23:45:25.279Z,,0,,,NaN,,,,,,false,,,,85823.00000000001,85823.00000000001,,85822,,85844,8,400,,,
break_continue,html.Screen,4_5_2,2023-10-31T23:45:25.279Z,,0,,,NaN,,,,,,false,,,,85824,85824,,85823.00000000001,,85844,8,400,,,
sequence,flow.Sequence,4_5,2023-10-31T23:45:25.280Z,,0,,,4247,completion,,,,,false,,,,85824,85824,81563,81559,81577,85844,8,400,,,
trial,html.Screen,4_6_0,2023-10-31T23:45:30.567Z,,0,1,,5282,response,ISIC_1782911.JPG,14,ISIC_5904116.JPG,ISIC_5904116.JPG,false,0,keypress(z),500,91112.00000000001,91111,85829,85824,85844,91143,8,400,7,,ISIC_1782911.JPG
break,html.Screen,4_6_1,2023-10-31T23:45:30.569Z,,0,,,NaN,,,,,,false,,,,91114,91113,,91112.00000000001,,91143,8,400,,,
break_continue,html.Screen,4_6_2,2023-10-31T23:45:30.570Z,,0,,,NaN,,,,,,false,,,,91114,91114,,91114,,91143,8,400,,,
sequence,flow.Sequence,4_6,2023-10-31T23:45:30.571Z,,0,,,5270,completion,,,,,false,,,,91115,91114,85829,85824,85844,91143,8,400,,,
trial,html.Screen,4_7_0,2023-10-31T23:45:38.502Z,,0,1,,7919,response,ISIC_0010837.JPG,7,ISIC_4814912.JPG,ISIC_0010837.JPG,false,1,keypress(m),500,99047,99046,91127,91115,91143,99077,8,400,8,,ISIC_4814912.JPG
break,html.Screen,4_7_1,2023-10-31T23:45:38.505Z,,0,,,NaN,,,,,,false,,,,99050,99049,,99047,,99077,8,400,,,
break_continue,html.Screen,4_7_2,2023-10-31T23:45:38.506Z,,0,,,NaN,,,,,,false,,,,99051,99051,,99050,,99077,8,400,,,
sequence,flow.Sequence,4_7,2023-10-31T23:45:38.507Z,,0,,,7908,completion,,,,,false,,,,99051,99051,91127,91115,91143,99077,8,400,,,
trial,html.Screen,4_8_0,2023-10-31T23:45:44.127Z,,0,1,,5611,response,ISIC_9525136.JPG,3,ISIC_6595186.JPG,ISIC_9525136.JPG,false,1,keypress(m),500,104672,104671,99060,99052,99077,104693,8,400,9,,ISIC_6595186.JPG
break,html.Screen,4_8_1,2023-10-31T23:45:44.129Z,,0,,,NaN,,,,,,false,,,,104673,104673,,104672,,104693,8,400,,,
break_continue,html.Screen,4_8_2,2023-10-31T23:45:44.130Z,,0,,,NaN,,,,,,false,,,,104674,104674,,104674,,104693,8,400,,,
sequence,flow.Sequence,4_8,2023-10-31T23:45:44.130Z,,0,,,5597,completion,,,,,false,,,,104675,104674,99060,99052,99077,104693,8,400,,,
trial,html.Screen,4_9_0,2023-10-31T23:45:48.228Z,,0,1,,4092,response,ISIC_4288307.JPG,13,ISIC_4086323.JPG,ISIC_4288307.JPG,false,1,keypress(m),500,108772,108771,104679,104675,104693,108810,8,400,10,,ISIC_4086323.JPG
break,html.Screen,4_9_1,2023-10-31T23:45:48.230Z,,0,,,NaN,,,,,,false,,,,108774,108773,,108772,,108810,8,400,,,
break_continue,html.Screen,4_9_2,2023-10-31T23:45:48.231Z,,0,,,NaN,,,,,,false,,,,108775,108775,,108775,,108810,8,400,,,
sequence,flow.Sequence,4_9,2023-10-31T23:45:48.231Z,,0,,,4082,completion,,,,,false,,,,108776,108775,104679,104675,104693,108810,8,400,,,
trial,html.Screen,4_10_0,2023-10-31T23:45:59.577Z,,0,1,,11327.000000000015,response,ISIC_0026655.JPG,13,ISIC_7203184.JPG,ISIC_0026655.JPG,false,1,keypress(m),500,120121.00000000001,120121.00000000001,108794,108776,108810,120143,8,400,11,,ISIC_7203184.JPG
break,html.Screen,4_10_1,2023-10-31T23:45:59.578Z,,0,,,NaN,,,,,,false,,,,120123,120122,,120122,,120143,8,400,,,
break_continue,html.Screen,4_10_2,2023-10-31T23:45:59.579Z,,0,,,NaN,,,,,,false,,,,120123,120123,,120123,,120143,8,400,,,
sequence,flow.Sequence,4_10,2023-10-31T23:45:59.579Z,,0,,,11313,completion,,,,,false,,,,120123,120123,108794,108776,108810,120143,8,400,,,
trial,html.Screen,4_11_0,2023-10-31T23:46:06.207Z,,0,1,,6624,response,ISIC_0034006.JPG,16,ISIC_0074311.JPG,ISIC_0034006.JPG,false,1,keypress(m),500,126752.00000000001,126751,120127,120123,120143,126777,8,400,12,,ISIC_0074311.JPG
break,html.Screen,4_11_1,2023-10-31T23:46:06.209Z,,0,,,NaN,,,,,,false,,,,126753,126753,,126752.00000000001,,126777,8,400,,,
break_continue,html.Screen,4_11_2,2023-10-31T23:46:06.209Z,,0,,,NaN,,,,,,false,,,,126754,126754,,126754,,126777,8,400,,,
sequence,flow.Sequence,4_11,2023-10-31T23:46:06.210Z,,0,,,6611,completion,,,,,false,,,,126754,126754,120127,120123,120143,126777,8,400,,,
trial,html.Screen,4_12_0,2023-10-31T23:46:11.325Z,,0,1,,5109,response,ISIC_0000291.JPG,1,ISIC_6255113.JPG,ISIC_6255113.JPG,false,0,keypress(z),500,131870,131869,126760,126755.00000000001,126777,131893,8,400,13,,ISIC_0000291.JPG
break,html.Screen,4_12_1,2023-10-31T23:46:11.327Z,,0,,,NaN,,,,,,false,,,,131872,131871,,131870,,131893,8,400,,,
break_continue,html.Screen,4_12_2,2023-10-31T23:46:11.328Z,,0,,,NaN,,,,,,false,,,,131872,131872,,131872,,131893,8,400,,,
sequence,flow.Sequence,4_12,2023-10-31T23:46:11.328Z,,0,,,5095,completion,,,,,false,,,,131873,131872,126760,126754,126777,131893,8,400,,,
trial,html.Screen,4_13_0,2023-10-31T23:46:15.545Z,,0,1,,4212,response,ISIC_7919133.JPG,16,ISIC_2546644.JPG,ISIC_7919133.JPG,false,1,keypress(m),500,136090,136089,131877,131873,131893,136127,8,400,14,,ISIC_2546644.JPG
break,html.Screen,4_13_1,2023-10-31T23:46:15.546Z,,0,,,NaN,,,,,,false,,,,136091,136091,,136090,,136127,8,400,,,
break_continue,html.Screen,4_13_2,2023-10-31T23:46:15.547Z,,0,,,NaN,,,,,,false,,,,136091,136091,,136091,,136127,8,400,,,
sequence,flow.Sequence,4_13,2023-10-31T23:46:15.547Z,,0,,,4198,completion,,,,,false,,,,136091,136091,131877,131873,131893,136127,8,400,,,
trial,html.Screen,4_14_0,2023-10-31T23:46:19.280Z,,0,1,,3714,response,ISIC_0067027.JPG,15,ISIC_0634107.JPG,ISIC_0634107.JPG,false,0,keypress(z),500,139824,139824,136110,136092,136127,139860,8,400,15,,ISIC_0067027.JPG
break,html.Screen,4_14_1,2023-10-31T23:46:19.282Z,,0,,,NaN,,,,,,false,,,,139827,139826,,139825.00000000003,,139860,8,400,,,
break_continue,html.Screen,4_14_2,2023-10-31T23:46:19.283Z,,0,,,NaN,,,,,,false,,,,139827,139827,,139827,,139860,8,400,,,
sequence,flow.Sequence,4_14,2023-10-31T23:46:19.283Z,,0,,,3700,completion,,,,,false,,,,139828,139827,136110,136091,136127,139860,8,400,,,
trial,html.Screen,4_15_0,2023-10-31T23:46:23.046Z,,0,1,,3747,response,ISIC_0084086.JPG,11,ISIC_4808298.JPG,ISIC_4808298.JPG,false,0,keypress(z),500,143590,143590,139843,139828,139860,143626,8,400,16,,ISIC_0084086.JPG
break,html.Screen,4_15_1,2023-10-31T23:46:23.048Z,,0,,,NaN,,,,,,false,,,,143592,143592,,143591,,143626,8,400,,,
break_continue,html.Screen,4_15_2,2023-10-31T23:46:23.048Z,,0,,,NaN,,,,,,false,,,,143593,143593,,143592,,143626,8,400,,,
sequence,flow.Sequence,4_15,2023-10-31T23:46:23.048Z,,0,,,3733,completion,,,,,false,,,,143593,143593,139843,139828,139860,143626,8,400,,,
trial,html.Screen,4_16_0,2023-10-31T23:46:26.439Z,,0,1,,3373,response,ISIC_6771810.JPG,12,ISIC_6590303.JPG,ISIC_6771810.JPG,false,1,keypress(m),500,146983,146983,143610,143593,143626,147009,8,400,17,,ISIC_6590303.JPG
break,html.Screen,4_16_1,2023-10-31T23:46:26.441Z,,0,,,NaN,,,,,,false,,,,146985,146985,,146984,,147009,8,400,,,
break_continue,html.Screen,4_16_2,2023-10-31T23:46:26.441Z,,0,,,NaN,,,,,,false,,,,146986,146986,,146986,,147009,8,400,,,
sequence,flow.Sequence,4_16,2023-10-31T23:46:26.442Z,,0,,,3360,completion,,,,,false,,,,146986,146986,143610,143593,143626,147009,8,400,,,
trial,html.Screen,4_17_0,2023-10-31T23:46:29.307Z,,0,1,,2859,response,ISIC_2337786.JPG,2,ISIC_0057978.JPG,ISIC_0057978.JPG,false,0,keypress(z),500,149852,149852,146993,146986,147009,149877,8,400,18,,ISIC_2337786.JPG
break,html.Screen,4_17_1,2023-10-31T23:46:29.309Z,,0,,,NaN,,,,,,false,,,,149854,149853,,149852,,149877,8,400,,,
break_continue,html.Screen,4_17_2,2023-10-31T23:46:29.310Z,,0,,,NaN,,,,,,false,,,,149854,149854,,149854,,149877,8,400,,,
sequence,flow.Sequence,4_17,2023-10-31T23:46:29.310Z,,0,,,2845,completion,,,,,false,,,,149855,149854,146993,146986,147009,149877,8,400,,,
trial,html.Screen,4_18_0,2023-10-31T23:46:32.830Z,,0,1,,3513,response,ISIC_6988514.JPG,0,ISIC_0057286.JPG,ISIC_0057286.JPG,false,0,keypress(z),500,153374,153373,149860,149855,149877,153410,8,400,19,,ISIC_6988514.JPG
break,html.Screen,4_18_1,2023-10-31T23:46:32.832Z,,0,,,NaN,,,,,,false,,,,153376,153376,,153375,,153410,8,400,,,
break_continue,html.Screen,4_18_2,2023-10-31T23:46:32.832Z,,0,,,NaN,,,,,,false,,,,153377,153377,,153377,,153410,8,400,,,
sequence,flow.Sequence,4_18,2023-10-31T23:46:32.833Z,,0,,,3500,completion,,,,,false,,,,153377,153377,149860,149855,149877,153410,8,400,,,
trial,html.Screen,4_19_0,2023-10-31T23:46:37.138Z,,0,1,,4289.000000000029,response,ISIC_0010500.JPG,11,ISIC_0061021.JPG,ISIC_0010500.JPG,false,1,keypress(m),500,157682.00000000003,157682.00000000003,153393,153377,153410,157710,8,400,20,,ISIC_0061021.JPG
break,html.Screen,4_19_1,2023-10-31T23:46:37.140Z,,0,,,NaN,,,,,,false,,,,157684,157684,,157683,,157710,8,400,,,
break_continue,html.Screen,4_19_2,2023-10-31T23:46:37.140Z,,0,,,NaN,,,,,,false,,,,157685,157685,,157684,,157710,8,400,,,
sequence,flow.Sequence,4_19,2023-10-31T23:46:37.140Z,,0,,,4275,completion,,,,,false,,,,157685,157685,153393,153377,153410,157710,8,400,,,
trial,html.Screen,4_20_0,2023-10-31T23:46:42.321Z,,0,1,,5173,response,ISIC_6892286.JPG,4,ISIC_2622189.JPG,ISIC_2622189.JPG,false,0,keypress(z),500,162866,162866,157693,157685,157710,162892,8,400,21,,ISIC_6892286.JPG
break,html.Screen,4_20_1,2023-10-31T23:46:42.323Z,,0,,,NaN,,,,,,false,,,,162868,162868,,162867,,162892,8,400,,,
break_continue,html.Screen,4_20_2,2023-10-31T23:46:42.324Z,,0,,,NaN,,,,,,false,,,,162869,162868,,162868,,162892,8,400,,,
sequence,flow.Sequence,4_20,2023-10-31T23:46:42.324Z,,0,,,5158,completion,,,,,false,,,,162869,162868,157693,157685,157710,162892,8,400,,,
trial,html.Screen,4_21_0,2023-10-31T23:46:45.844Z,,0,1,,3511,response,ISIC_0060148.JPG,3,ISIC_0011448.JPG,ISIC_0060148.JPG,false,1,keypress(m),500,166388,166388,162877,162869,162892,166426,8,400,22,,ISIC_0011448.JPG
break,html.Screen,4_21_1,2023-10-31T23:46:45.846Z,,0,,,NaN,,,,,,false,,,,166390.00000000003,166390.00000000003,,166389,,166426,8,400,,,
break_continue,html.Screen,4_21_2,2023-10-31T23:46:45.846Z,,0,,,NaN,,,,,,false,,,,166391,166391,,166390.00000000003,,166426,8,400,,,
sequence,flow.Sequence,4_21,2023-10-31T23:46:45.846Z,,0,,,3499,completion,,,,,false,,,,166391,166391,162877,162869,162892,166426,8,400,,,
trial,html.Screen,4_22_0,2023-10-31T23:46:49.626Z,,0,1,,3760.000000000029,response,ISIC_0071972.JPG,14,ISIC_0028109.JPG,ISIC_0028109.JPG,false,0,keypress(z),500,170171,170170.00000000003,166410,166391,166426,170192,8,400,23,,ISIC_0071972.JPG
break,html.Screen,4_22_1,2023-10-31T23:46:49.627Z,,0,,,NaN,,,,,,false,,,,170172,170172,,170171,,170192,8,400,,,
break_continue,html.Screen,4_22_2,2023-10-31T23:46:49.628Z,,0,,,NaN,,,,,,false,,,,170173,170172,,170172,,170192,8,400,,,
sequence,flow.Sequence,4_22,2023-10-31T23:46:49.628Z,,0,,,3746,completion,,,,,false,,,,170173,170172,166410,166391,166426,170192,8,400,,,
trial,html.Screen,4_23_0,2023-10-31T23:46:54.037Z,,0,1,,4404.000000000029,response,ISIC_6996553.JPG,16,ISIC_1569775.JPG,ISIC_1569775.JPG,false,0,keypress(z),500,174582,174581.00000000003,170177,170173,170192,174610,8,400,24,,ISIC_6996553.JPG
break,html.Screen,4_23_1,2023-10-31T23:46:54.039Z,,0,,,NaN,,,,,,false,,,,174583,174583,,174582,,174610,8,400,,,
break_continue,html.Screen,4_23_2,2023-10-31T23:46:54.039Z,,0,,,NaN,,,,,,false,,,,174584,174584,,174584,,174610,8,400,,,
sequence,flow.Sequence,4_23,2023-10-31T23:46:54.040Z,,0,,,4392,completion,,,,,false,,,,174584,174584,170177,170173,170192,174610,8,400,,,
trial,html.Screen,4_24_0,2023-10-31T23:47:00.612Z,,0,1,,6564,response,ISIC_0394157.JPG,4,ISIC_7883190.JPG,ISIC_0394157.JPG,false,1,keypress(m),500,181157,181156,174592,174585,174610,181193,8,400,25,,ISIC_7883190.JPG
break,html.Screen,4_24_1,2023-10-31T23:47:00.614Z,,0,,,NaN,,,,,,false,,,,181159,181158.00000000003,,181157,,181193,8,400,,,
break_continue,html.Screen,4_24_2,2023-10-31T23:47:00.615Z,,0,,,NaN,,,,,,false,,,,181159,181159,,181159,,181193,8,400,,,
sequence,flow.Sequence,4_24,2023-10-31T23:47:00.615Z,,0,,,6549,completion,,,,,false,,,,181160,181159,174592,174584,174610,181193,8,400,,,
trial,html.Screen,4_25_0,2023-10-31T23:47:04.444Z,,0,1,,3812,response,ISIC_0012904.JPG,12,ISIC_0026910.JPG,ISIC_0026910.JPG,false,0,keypress(z),500,184989,184988,181176,181160,181193,185026,8,400,26,,ISIC_0012904.JPG
break,html.Screen,4_25_1,2023-10-31T23:47:04.446Z,,0,,,NaN,,,,,,false,,,,184991,184990,,184989,,185026,8,400,,,
break_continue,html.Screen,4_25_2,2023-10-31T23:47:04.446Z,,0,,,NaN,,,,,,false,,,,184991,184991,,184991,,185026,8,400,,,
sequence,flow.Sequence,4_25,2023-10-31T23:47:04.447Z,,0,,,3798,completion,,,,,false,,,,184991,184991,181176,181160,181193,185026,8,400,,,
trial,html.Screen,4_26_0,2023-10-31T23:47:09.062Z,,0,1,,4596,response,ISIC_4619789.JPG,13,ISIC_6912979.JPG,ISIC_6912979.JPG,false,0,keypress(z),500,189607,189606,185010,184992,185026,189643,8,400,27,,ISIC_4619789.JPG
break,html.Screen,4_26_1,2023-10-31T23:47:09.064Z,,0,,,NaN,,,,,,false,,,,189609,189608,,189607,,189643,8,400,,,
break_continue,html.Screen,4_26_2,2023-10-31T23:47:09.064Z,,0,,,NaN,,,,,,false,,,,189609,189609,,189609,,189643,8,400,,,
sequence,flow.Sequence,4_26,2023-10-31T23:47:09.065Z,,0,,,4583,completion,,,,,false,,,,189609,189609,185010,184991,185026,189643,8,400,,,
trial,html.Screen,4_27_0,2023-10-31T23:47:13.622Z,,0,1,,4539,response,ISIC_8409262.JPG,12,ISIC_1736735.JPG,ISIC_8409262.JPG,false,1,keypress(m),500,194167,194166,189627,189609,189643,194193,8,400,28,,ISIC_1736735.JPG
break,html.Screen,4_27_1,2023-10-31T23:47:13.624Z,,0,,,NaN,,,,,,false,,,,194168,194168,,194167,,194193,8,400,,,
break_continue,html.Screen,4_27_2,2023-10-31T23:47:13.624Z,,0,,,NaN,,,,,,false,,,,194169,194169,,194169,,194193,8,400,,,
sequence,flow.Sequence,4_27,2023-10-31T23:47:13.624Z,,0,,,4526,completion,,,,,false,,,,194169,194169,189627,189609,189643,194193,8,400,,,
trial,html.Screen,4_28_0,2023-10-31T23:47:19.151Z,,0,1,,5519,response,ISIC_0069192.JPG,2,ISIC_0033708.JPG,ISIC_0033708.JPG,false,0,keypress(z),500,199696,199695,194176,194169,194193,199726,8,400,29,,ISIC_0069192.JPG
break,html.Screen,4_28_1,2023-10-31T23:47:19.153Z,,0,,,NaN,,,,,,false,,,,199697,199697,,199696,,199726,8,400,,,
break_continue,html.Screen,4_28_2,2023-10-31T23:47:19.153Z,,0,,,NaN,,,,,,false,,,,199698,199698,,199697,,199726,8,400,,,
sequence,flow.Sequence,4_28,2023-10-31T23:47:19.153Z,,0,,,5505,completion,,,,,false,,,,199698,199698,194176,194169,194193,199726,8,400,,,
trial,html.Screen,4_29_0,2023-10-31T23:47:23.692Z,,0,1,,4527.000000000029,response,ISIC_0010718.JPG,7,ISIC_0030470.JPG,ISIC_0010718.JPG,false,1,keypress(m),500,204237,204236.00000000003,199709,199698,199726,204260,8,400,30,,ISIC_0030470.JPG
break,html.Screen,4_29_1,2023-10-31T23:47:23.694Z,,0,,,NaN,,,,,,false,,,,204238,204238,,204237,,204260,8,400,,,
break_continue,html.Screen,4_29_2,2023-10-31T23:47:23.694Z,,0,,,NaN,,,,,,false,,,,204239,204239,,204239,,204260,8,400,,,
sequence,flow.Sequence,4_29,2023-10-31T23:47:23.694Z,,0,,,4513,completion,,,,,false,,,,204239,204239,199709,199698,199726,204260,8,400,,,
trial,html.Screen,4_30_0,2023-10-31T23:47:27.105Z,,0,1,,3405,response,ISIC_8152423.JPG,16,ISIC_0000305.JPG,ISIC_0000305.JPG,false,0,keypress(z),500,207650,207649,204244,204239,204260,207675,8,400,31,,ISIC_8152423.JPG
break,html.Screen,4_30_1,2023-10-31T23:47:27.107Z,,0,,,NaN,,,,,,false,,,,207652.00000000003,207651,,207650,,207675,8,400,,,
break_continue,html.Screen,4_30_2,2023-10-31T23:47:27.108Z,,0,,,NaN,,,,,,false,,,,207653,207652.00000000003,,207652.00000000003,,207675,8,400,,,
sequence,flow.Sequence,4_30,2023-10-31T23:47:27.108Z,,0,,,3392.000000000029,completion,,,,,false,,,,207653,207652.00000000003,204244,204239,204260,207675,8,400,,,
trial,html.Screen,4_31_0,2023-10-31T23:47:30.507Z,,0,1,,3391.000000000029,response,ISIC_0033241.JPG,2,ISIC_0072997.JPG,ISIC_0033241.JPG,false,1,keypress(m),500,211052,211051.00000000003,207660,207653,207675,211076,8,400,32,,ISIC_0072997.JPG
break,html.Screen,4_31_1,2023-10-31T23:47:30.509Z,,0,,,NaN,,,,,,false,,,,211053,211053,,211052,,211076,8,400,,,
break_continue,html.Screen,4_31_2,2023-10-31T23:47:30.509Z,,0,,,NaN,,,,,,false,,,,211054,211054,,211054,,211076,8,400,,,
sequence,flow.Sequence,4_31,2023-10-31T23:47:30.509Z,,0,,,3379,completion,,,,,false,,,,211054,211054,207660,207653,207675,211076,8,400,,,
trial,html.Screen,4_32_0,2023-10-31T23:47:34.624Z,,0,1,,4108,response,ISIC_0030404.JPG,1,ISIC_6737771.JPG,ISIC_0030404.JPG,false,1,keypress(m),500,215169,215168,211060,211054,211076,215193,8,400,33,,ISIC_6737771.JPG
break,html.Screen,4_32_1,2023-10-31T23:47:34.626Z,,0,,,NaN,,,,,,false,,,,215171,215170.00000000003,,215169,,215193,8,400,,,
break_continue,html.Screen,4_32_2,2023-10-31T23:47:34.626Z,,0,,,NaN,,,,,,false,,,,215171,215171,,215171,,215193,8,400,,,
sequence,flow.Sequence,4_32,2023-10-31T23:47:34.627Z,,0,,,4095,completion,,,,,false,,,,215171,215171,211060,211054,211076,215193,8,400,,,
trial,html.Screen,4_33_0,2023-10-31T23:47:38.439Z,,0,1,,3808,response,ISIC_0032759.JPG,0,ISIC_6737771.JPG,ISIC_0032759.JPG,false,1,keypress(m),500,218984,218984,215176,215172,215193,219010,8,400,34,,ISIC_6737771.JPG
break,html.Screen,4_33_1,2023-10-31T23:47:38.441Z,,0,,,NaN,,,,,,false,,,,218986.00000000003,218986.00000000003,,218984,,219010,8,400,,,
break_continue,html.Screen,4_33_2,2023-10-31T23:47:38.442Z,,0,,,NaN,,,,,,false,,,,218987,218987,,218986.00000000003,,219010,8,400,,,
sequence,flow.Sequence,4_33,2023-10-31T23:47:38.442Z,,0,,,3794,completion,,,,,false,,,,218987,218987,215176,215172,215193,219010,8,400,,,
trial,html.Screen,4_34_0,2023-10-31T23:47:43.065Z,,0,1,,4617,response,ISIC_5152000.JPG,0,ISIC_5504560.JPG,ISIC_5504560.JPG,false,0,keypress(z),500,223610,223610,218993,218987,219010,223643,8,400,35,,ISIC_5152000.JPG
break,html.Screen,4_34_1,2023-10-31T23:47:43.067Z,,0,,,NaN,,,,,,false,,,,223612,223611.00000000003,,223610,,223643,8,400,,,
break_continue,html.Screen,4_34_2,2023-10-31T23:47:43.067Z,,0,,,NaN,,,,,,false,,,,223612,223612,,223612,,223643,8,400,,,
sequence,flow.Sequence,4_34,2023-10-31T23:47:43.067Z,,0,,,4602,completion,,,,,false,,,,223612,223612,218993,218987,219010,223643,8,400,,,
trial,html.Screen,4_35_0,2023-10-31T23:47:46.568Z,,0,1,,3486,response,ISIC_0025892.JPG,10,ISIC_7169653.JPG,ISIC_0025892.JPG,false,1,keypress(m),500,227113,227112,223626,223612,223643,227143,8,400,36,,ISIC_7169653.JPG
break,html.Screen,4_35_1,2023-10-31T23:47:46.570Z,,0,,,NaN,,,,,,false,,,,227115,227114,,227113,,227143,8,400,,,
break_continue,html.Screen,4_35_2,2023-10-31T23:47:46.570Z,,0,,,NaN,,,,,,false,,,,227115,227115,,227115,,227143,8,400,,,
sequence,flow.Sequence,4_35,2023-10-31T23:47:46.571Z,,0,,,3472,completion,,,,,false,,,,227115,227115,223626,223612,223643,227143,8,400,,,
trial,html.Screen,4_36_0,2023-10-31T23:47:50.608Z,,0,1,,4027,response,ISIC_2874218.JPG,5,ISIC_4955457.JPG,ISIC_2874218.JPG,false,1,keypress(m),500,231153,231153,227126,227116,227143,231175,8,400,37,,ISIC_4955457.JPG
break,html.Screen,4_36_1,2023-10-31T23:47:50.610Z,,0,,,NaN,,,,,,false,,,,231155,231155,,231153,,231175,8,400,,,
break_continue,html.Screen,4_36_2,2023-10-31T23:47:50.611Z,,0,,,NaN,,,,,,false,,,,231155,231155,,231155,,231175,8,400,,,
sequence,flow.Sequence,4_36,2023-10-31T23:47:50.611Z,,0,,,4012,completion,,,,,false,,,,231156,231155,227126,227116,227143,231175,8,400,,,
trial,html.Screen,4_37_0,2023-10-31T23:47:54.067Z,,0,1,,3451.000000000029,response,ISIC_0033664.JPG,15,ISIC_0034209.JPG,ISIC_0034209.JPG,false,0,keypress(z),500,234612,234611.00000000003,231160,231156,231175,234643,8,400,38,,ISIC_0033664.JPG
break,html.Screen,4_37_1,2023-10-31T23:47:54.068Z,,0,,,NaN,,,,,,false,,,,234613,234613,,234612,,234643,8,400,,,
break_continue,html.Screen,4_37_2,2023-10-31T23:47:54.069Z,,0,,,NaN,,,,,,false,,,,234614,234614,,234614,,234643,8,400,,,
sequence,flow.Sequence,4_37,2023-10-31T23:47:54.069Z,,0,,,3439,completion,,,,,false,,,,234614,234614,231160,231156,231175,234643,8,400,,,
trial,html.Screen,4_38_0,2023-10-31T23:48:00.825Z,,0,1,,6743,response,ISIC_3750329.JPG,7,ISIC_0682543.JPG,ISIC_0682543.JPG,false,0,keypress(z),500,241370,241369,234626,234614,234643,241392,8,400,39,,ISIC_3750329.JPG
break,html.Screen,4_38_1,2023-10-31T23:48:00.827Z,,0,,,NaN,,,,,,false,,,,241372,241371,,241370,,241392,8,400,,,
break_continue,html.Screen,4_38_2,2023-10-31T23:48:00.827Z,,0,,,NaN,,,,,,false,,,,241372,241372,,241372,,241392,8,400,,,
sequence,flow.Sequence,4_38,2023-10-31T23:48:00.828Z,,0,,,6729,completion,,,,,false,,,,241373.00000000003,241372,234626,234614,234643,241392,8,400,,,
trial,html.Screen,4_39_0,2023-10-31T23:48:06.293Z,,0,1,,5461,response,ISIC_0010140.JPG,15,ISIC_0027561.JPG,ISIC_0027561.JPG,false,0,keypress(z),500,246838,246838,241377,241373.00000000003,241392,246876,8,400,40,,ISIC_0010140.JPG
break,html.Screen,4_39_1,2023-10-31T23:48:06.295Z,,0,,,NaN,,,,,,false,,,,246840,246840,,246839,,246876,8,400,,,
break_continue,html.Screen,4_39_2,2023-10-31T23:48:06.296Z,,0,,,NaN,,,,,,false,,,,246841,246840,,246840,,246876,8,400,,,
sequence,flow.Sequence,4_39,2023-10-31T23:48:06.296Z,,0,,,5448,completion,,,,,false,,,,246841,246840,241377,241373.00000000003,241392,246876,8,400,,,
trial,html.Screen,4_40_0,2023-10-31T23:48:09.179Z,,0,1,,2864,response,ISIC_0071133.JPG,14,ISIC_0032377.JPG,ISIC_0071133.JPG,false,1,keypress(m),500,249724.00000000003,249723,246859,246841,246876,249759,8,400,41,,ISIC_0032377.JPG
break,html.Screen,4_40_1,2023-10-31T23:48:09.181Z,,0,,,NaN,,,,,,false,,,,249726,249725,,249724.00000000003,,249759,8,400,,,
break_continue,html.Screen,4_40_2,2023-10-31T23:48:09.181Z,,0,,,NaN,,,,,,false,,,,249726,249726,,249726,,249759,8,400,,,
sequence,flow.Sequence,4_40,2023-10-31T23:48:09.181Z,,0,,,2850,completion,,,,,false,,,,249726,249726,246859,246841,246876,249759,8,400,,,
trial,html.Screen,4_41_0,2023-10-31T23:48:12.858Z,,0,1,,3659.000000000029,response,ISIC_0026115.JPG,11,ISIC_0053572.JPG,ISIC_0026115.JPG,false,1,keypress(m),500,253403,253402.00000000003,249743,249727,249759,253426,8,400,42,,ISIC_0053572.JPG
break,html.Screen,4_41_1,2023-10-31T23:48:12.859Z,,0,,,NaN,,,,,,false,,,,253404,253404,,253403,,253426,8,400,,,
break_continue,html.Screen,4_41_2,2023-10-31T23:48:12.860Z,,0,,,NaN,,,,,,false,,,,253405,253405,,253404,,253426,8,400,,,
sequence,flow.Sequence,4_41,2023-10-31T23:48:12.860Z,,0,,,3646,completion,,,,,false,,,,253405,253405,249743,249727,249759,253426,8,400,,,
trial,html.Screen,4_42_0,2023-10-31T23:48:16.521Z,,0,1,,3656,response,ISIC_0033104.JPG,0,ISIC_1585370.JPG,ISIC_0033104.JPG,false,1,keypress(m),500,257066.00000000003,257065,253409,253405,253426,257093,8,400,43,,ISIC_1585370.JPG
break,html.Screen,4_42_1,2023-10-31T23:48:16.522Z,,0,,,NaN,,,,,,false,,,,257067,257067,,257066.00000000003,,257093,8,400,,,
break_continue,html.Screen,4_42_2,2023-10-31T23:48:16.523Z,,0,,,NaN,,,,,,false,,,,257067.99999999997,257067.99999999997,,257067,,257093,8,400,,,
sequence,flow.Sequence,4_42,2023-10-31T23:48:16.523Z,,0,,,3641.999999999971,completion,,,,,false,,,,257067.99999999997,257067.99999999997,253409,253405,253426,257093,8,400,,,
trial,html.Screen,4_43_0,2023-10-31T23:48:19.664Z,,0,1,,3133,response,ISIC_1956354.JPG,2,ISIC_3475932.JPG,ISIC_1956354.JPG,false,1,keypress(m),500,260209,260209,257076,257067.99999999997,257093,260243,8,400,44,,ISIC_3475932.JPG
break,html.Screen,4_43_1,2023-10-31T23:48:19.666Z,,0,,,NaN,,,,,,false,,,,260211,260209.99999999997,,260209,,260243,8,400,,,
break_continue,html.Screen,4_43_2,2023-10-31T23:48:19.667Z,,0,,,NaN,,,,,,false,,,,260212,260211,,260211,,260243,8,400,,,
sequence,flow.Sequence,4_43,2023-10-31T23:48:19.667Z,,0,,,3118,completion,,,,,false,,,,260212,260211,257076,257067.99999999997,257093,260243,8,400,,,
trial,html.Screen,4_44_0,2023-10-31T23:48:24.333Z,,0,1,,4652,response,ISIC_0031752.JPG,9,ISIC_0032637.JPG,ISIC_0031752.JPG,false,1,keypress(m),500,264878,264878,260226,260212,260243,264909,8,400,45,,ISIC_0032637.JPG
break,html.Screen,4_44_1,2023-10-31T23:48:24.335Z,,0,,,NaN,,,,,,false,,,,264880,264880,,264879,,264909,8,400,,,
break_continue,html.Screen,4_44_2,2023-10-31T23:48:24.336Z,,0,,,NaN,,,,,,false,,,,264880,264880,,264880,,264909,8,400,,,
sequence,flow.Sequence,4_44,2023-10-31T23:48:24.336Z,,0,,,4637,completion,,,,,false,,,,264881,264880,260226,260212,260243,264909,8,400,,,
trial,html.Screen,4_45_0,2023-10-31T23:48:28.280Z,,0,1,,3933,response,ISIC_8041078.JPG,7,ISIC_4079108.JPG,ISIC_4079108.JPG,false,0,keypress(z),500,268825,268825,264892,264881,264909,268859,8,400,46,,ISIC_8041078.JPG
break,html.Screen,4_45_1,2023-10-31T23:48:28.282Z,,0,,,NaN,,,,,,false,,,,268827,268827,,268825,,268859,8,400,,,
break_continue,html.Screen,4_45_2,2023-10-31T23:48:28.282Z,,0,,,NaN,,,,,,false,,,,268827,268827,,268827,,268859,8,400,,,
sequence,flow.Sequence,4_45,2023-10-31T23:48:28.282Z,,0,,,3918,completion,,,,,false,,,,268827,268827,264892,264881,264909,268859,8,400,,,
trial,html.Screen,4_46_0,2023-10-31T23:48:32.521Z,,0,1,,4223,response,ISIC_7672106.JPG,11,ISIC_4619903.JPG,ISIC_4619903.JPG,false,0,keypress(z),500,273066.00000000006,273065,268842,268828.00000000006,268859,273093,8,400,47,,ISIC_7672106.JPG
break,html.Screen,4_46_1,2023-10-31T23:48:32.523Z,,0,,,NaN,,,,,,false,,,,273068,273067,,273066.00000000006,,273093,8,400,,,
break_continue,html.Screen,4_46_2,2023-10-31T23:48:32.523Z,,0,,,NaN,,,,,,false,,,,273068,273068,,273068,,273093,8,400,,,
sequence,flow.Sequence,4_46,2023-10-31T23:48:32.523Z,,0,,,4209,completion,,,,,false,,,,273068,273068,268842,268828.00000000006,268859,273093,8,400,,,
trial,html.Screen,4_47_0,2023-10-31T23:48:37.349Z,,0,1,,4817,response,ISIC_8969883.JPG,3,ISIC_0061315.JPG,ISIC_0061315.JPG,false,0,keypress(z),500,277894,277893,273076,273068,273093,277926,8,400,48,,ISIC_8969883.JPG
break,html.Screen,4_47_1,2023-10-31T23:48:37.350Z,,0,,,NaN,,,,,,false,,,,277895,277895,,277894,,277926,8,400,,,
break_continue,html.Screen,4_47_2,2023-10-31T23:48:37.350Z,,0,,,NaN,,,,,,false,,,,277895,277895,,277895,,277926,8,400,,,
sequence,flow.Sequence,4_47,2023-10-31T23:48:37.351Z,,0,,,4802,completion,,,,,false,,,,277896,277895,273076,273068,273093,277926,8,400,,,
trial,html.Screen,4_48_0,2023-10-31T23:48:40.747Z,,0,1,,3383.000000000058,response,ISIC_0073075.JPG,9,ISIC_0009950.JPG,ISIC_0073075.JPG,false,1,keypress(m),500,281292.00000000006,281292.00000000006,277909,277896,277926,281325,8,400,49,,ISIC_0009950.JPG
break,html.Screen,4_48_1,2023-10-31T23:48:40.748Z,,0,,,NaN,,,,,,false,,,,281293,281293,,281292.00000000006,,281325,8,400,,,
break_continue,html.Screen,4_48_2,2023-10-31T23:48:40.748Z,,0,,,NaN,,,,,,false,,,,281293,281293,,281293,,281325,8,400,,,
sequence,flow.Sequence,4_48,2023-10-31T23:48:40.748Z,,0,,,3367,completion,,,,,false,,,,281293,281293,277909,277896,277926,281325,8,400,,,
trial,html.Screen,4_49_0,2023-10-31T23:48:46.212Z,,0,1,,5447,response,ISIC_8485716.JPG,11,ISIC_1175776.JPG,ISIC_1175776.JPG,false,0,keypress(z),500,286757,286756,281309,281293,281325,286793,8,400,50,,ISIC_8485716.JPG
break,html.Screen,4_49_1,2023-10-31T23:48:56.232Z,,0,,,9999,timeout,,,,,false,,,,296777,296776,286776,286757,286793,296792,8,400,,,
break_continue,html.Screen,4_49_2,2023-10-31T23:49:26.762Z,,0,,,30513,response,,,,,false,continue,keypress(Space),,327308,327289,296776,296777,296792,327342,8,400,,,
sequence,flow.Sequence,4_49,2023-10-31T23:49:26.763Z,,0,,,45964,completion,,,,,false,,,,327308,327289,281309,281293,281325,327342,8,400,,,
trial,html.Screen,4_50_0,2023-10-31T23:49:33.581Z,,0,2,,6800.000000000058,response,ISIC_0066012.JPG,13,ISIC_6065301.JPG,ISIC_0066012.JPG,false,1,keypress(m),500,334126.00000000006,334126.00000000006,327326,327308,327342,334159,8,400,1,,ISIC_6065301.JPG
break,html.Screen,4_50_1,2023-10-31T23:49:33.583Z,,0,,,NaN,,,,,,false,,,,334128,334128,,334127,,334159,8,400,,,
break_continue,html.Screen,4_50_2,2023-10-31T23:49:33.584Z,,0,,,NaN,,,,,,false,,,,334129,334129,,334129,,334159,8,400,,,
sequence,flow.Sequence,4_50,2023-10-31T23:49:33.584Z,,0,,,6787,completion,,,,,false,,,,334129,334129,327326,327308,327342,334159,8,400,,,
trial,html.Screen,4_51_0,2023-10-31T23:49:36.702Z,,0,2,,3104,response,ISIC_1711973.JPG,8,ISIC_0058877.JPG,ISIC_0058877.JPG,false,0,keypress(z),500,337247,337246,334142,334129,334159,337276,8,400,2,,ISIC_1711973.JPG
break,html.Screen,4_51_1,2023-10-31T23:49:36.703Z,,0,,,NaN,,,,,,false,,,,337249,337248,,337247,,337276,8,400,,,
break_continue,html.Screen,4_51_2,2023-10-31T23:49:36.704Z,,0,,,NaN,,,,,,false,,,,337249,337249,,337249,,337276,8,400,,,
sequence,flow.Sequence,4_51,2023-10-31T23:49:36.704Z,,0,,,3090,completion,,,,,false,,,,337249,337249,334142,334129,334159,337276,8,400,,,
trial,html.Screen,4_52_0,2023-10-31T23:49:41.338Z,,0,2,,4624,response,ISIC_4266157.JPG,5,ISIC_0068015.JPG,ISIC_4266157.JPG,false,1,keypress(m),500,341883,341883,337259,337249,337276,341909,8,400,3,,ISIC_0068015.JPG
break,html.Screen,4_52_1,2023-10-31T23:49:41.340Z,,0,,,NaN,,,,,,false,,,,341885,341885,,341884,,341909,8,400,,,
break_continue,html.Screen,4_52_2,2023-10-31T23:49:41.340Z,,0,,,NaN,,,,,,false,,,,341885,341885,,341885,,341909,8,400,,,
sequence,flow.Sequence,4_52,2023-10-31T23:49:41.340Z,,0,,,4609,completion,,,,,false,,,,341886,341885,337259,337249,337276,341909,8,400,,,
trial,html.Screen,4_53_0,2023-10-31T23:49:44.994Z,,0,2,,3646,response,ISIC_0027839.JPG,2,ISIC_2987579.JPG,ISIC_2987579.JPG,false,0,keypress(z),500,345539,345538,341892,341886,341909,345576,8,400,4,,ISIC_0027839.JPG
break,html.Screen,4_53_1,2023-10-31T23:49:44.996Z,,0,,,NaN,,,,,,false,,,,345541,345541,,345540,,345576,8,400,,,
break_continue,html.Screen,4_53_2,2023-10-31T23:49:44.996Z,,0,,,NaN,,,,,,false,,,,345542.00000000006,345541,,345541,,345576,8,400,,,
sequence,flow.Sequence,4_53,2023-10-31T23:49:44.996Z,,0,,,3632,completion,,,,,false,,,,345542.00000000006,345541,341892,341886,341909,345576,8,400,,,
trial,html.Screen,4_54_0,2023-10-31T23:49:48.028Z,,0,2,,3013,response,ISIC_0011490.JPG,13,ISIC_4782878.JPG,ISIC_0011490.JPG,false,1,keypress(m),500,348574,348573,345560,345542.00000000006,345576,348609,8,400,5,,ISIC_4782878.JPG
break,html.Screen,4_54_1,2023-10-31T23:49:48.030Z,,0,,,NaN,,,,,,false,,,,348575,348575,,348574,,348609,8,400,,,
break_continue,html.Screen,4_54_2,2023-10-31T23:49:48.030Z,,0,,,NaN,,,,,,false,,,,348575,348575,,348575,,348609,8,400,,,
sequence,flow.Sequence,4_54,2023-10-31T23:49:48.030Z,,0,,,2999,completion,,,,,false,,,,348575,348575,345560,345542.00000000006,345576,348609,8,400,,,
trial,html.Screen,4_55_0,2023-10-31T23:49:51.662Z,,0,2,,3615,response,ISIC_3716686.JPG,13,ISIC_0031233.JPG,ISIC_0031233.JPG,false,0,keypress(z),500,352208,352207,348592,348575,348609,352225,8,400,6,,ISIC_3716686.JPG
break,html.Screen,4_55_1,2023-10-31T23:49:51.664Z,,0,,,NaN,,,,,,false,,,,352209,352209,,352208,,352225,8,400,,,
break_continue,html.Screen,4_55_2,2023-10-31T23:49:51.664Z,,0,,,NaN,,,,,,false,,,,352210,352210,,352209,,352225,8,400,,,
sequence,flow.Sequence,4_55,2023-10-31T23:49:51.665Z,,0,,,3601,completion,,,,,false,,,,352210,352210,348592,348575,348609,352225,8,400,,,
trial,html.Screen,4_56_0,2023-10-31T23:49:55.695Z,,0,2,,4027,response,ISIC_2483825.JPG,11,ISIC_0025105.JPG,ISIC_0025105.JPG,false,0,keypress(z),500,356241,356240,352213,352210,352225,356275,8,400,7,,ISIC_2483825.JPG
break,html.Screen,4_56_1,2023-10-31T23:49:55.697Z,,0,,,NaN,,,,,,false,,,,356242,356242,,356241,,356275,8,400,,,
break_continue,html.Screen,4_56_2,2023-10-31T23:49:55.697Z,,0,,,NaN,,,,,,false,,,,356243,356242,,356242,,356275,8,400,,,
sequence,flow.Sequence,4_56,2023-10-31T23:49:55.697Z,,0,,,4017,completion,,,,,false,,,,356243,356242,352213,352210,352225,356275,8,400,,,
trial,html.Screen,4_57_0,2023-10-31T23:50:00.190Z,,0,2,,4475,response,ISIC_6548734.JPG,12,ISIC_8343285.JPG,ISIC_6548734.JPG,false,1,keypress(m),500,360735,360734,356259,356243,356275,360759,8,400,8,,ISIC_8343285.JPG
break,html.Screen,4_57_1,2023-10-31T23:50:00.191Z,,0,,,NaN,,,,,,false,,,,360737,360736,,360735,,360759,8,400,,,
break_continue,html.Screen,4_57_2,2023-10-31T23:50:00.192Z,,0,,,NaN,,,,,,false,,,,360737,360737,,360737,,360759,8,400,,,
sequence,flow.Sequence,4_57,2023-10-31T23:50:00.192Z,,0,,,4462,completion,,,,,false,,,,360737,360737,356259,356243,356275,360759,8,400,,,
trial,html.Screen,4_58_0,2023-10-31T23:50:11.699Z,,0,2,,11516,timeout,ISIC_0011130.JPG,0,ISIC_0010347.JPG,,false,,,500,372244,372243,360742,360737,360759,372275,8,400,9,,
break,html.Screen,4_58_1,2023-10-31T23:50:11.701Z,,0,,,NaN,,,,,,false,,,,372246,372246,,372245,,372275,8,400,,,
break_continue,html.Screen,4_58_2,2023-10-31T23:50:11.701Z,,0,,,NaN,,,,,,false,,,,372247,372247,,372247,,372275,8,400,,,
sequence,flow.Sequence,4_58,2023-10-31T23:50:11.702Z,,0,,,11488,completion,,,,,false,,,,372247,372247,360742,360737,360759,372275,8,400,,,
trial,html.Screen,4_59_0,2023-10-31T23:50:21.422Z,,0,2,,9707,response,ISIC_2378428.JPG,7,ISIC_0011948.JPG,ISIC_0011948.JPG,false,0,keypress(z),500,381967,381966,372259,372247,372275,381992,8,400,10,,ISIC_2378428.JPG
break,html.Screen,4_59_1,2023-10-31T23:50:21.424Z,,0,,,NaN,,,,,,false,,,,381970,381969,,381968,,381992,8,400,,,
break_continue,html.Screen,4_59_2,2023-10-31T23:50:21.425Z,,0,,,NaN,,,,,,false,,,,381970,381970,,381970,,381992,8,400,,,
sequence,flow.Sequence,4_59,2023-10-31T23:50:21.425Z,,0,,,9695,completion,,,,,false,,,,381971,381970,372259,372247,372275,381992,8,400,,,
trial,html.Screen,4_60_0,2023-10-31T23:50:25.940Z,,0,2,,4509,response,ISIC_0014127.JPG,16,ISIC_1595325.JPG,ISIC_1595325.JPG,false,0,keypress(z),500,386485,386484,381975,381971,381992,386509,8,400,11,,ISIC_0014127.JPG
break,html.Screen,4_60_1,2023-10-31T23:50:25.942Z,,0,,,NaN,,,,,,false,,,,386487,386487,,386486,,386509,8,400,,,
break_continue,html.Screen,4_60_2,2023-10-31T23:50:25.942Z,,0,,,NaN,,,,,,false,,,,386488,386487,,386487,,386509,8,400,,,
sequence,flow.Sequence,4_60,2023-10-31T23:50:25.942Z,,0,,,4495,completion,,,,,false,,,,386488,386487,381975,381971,381992,386509,8,400,,,
trial,html.Screen,4_61_0,2023-10-31T23:50:32.716Z,,0,2,,6769,response,ISIC_0067667.JPG,0,ISIC_6990973.JPG,ISIC_0067667.JPG,false,1,keypress(m),500,393261,393260,386491,386488,386509,393292,8,400,12,,ISIC_6990973.JPG
break,html.Screen,4_61_1,2023-10-31T23:50:32.717Z,,0,,,NaN,,,,,,false,,,,393263.00000000006,393262,,393261,,393292,8,400,,,
break_continue,html.Screen,4_61_2,2023-10-31T23:50:32.718Z,,0,,,NaN,,,,,,false,,,,393263.00000000006,393263.00000000006,,393263.00000000006,,393292,8,400,,,
sequence,flow.Sequence,4_61,2023-10-31T23:50:32.718Z,,0,,,6754.000000000058,completion,,,,,false,,,,393264,393263.00000000006,386491,386488,386509,393292,8,400,,,
trial,html.Screen,4_62_0,2023-10-31T23:50:36.684Z,,0,2,,3954,response,ISIC_1985569.JPG,7,ISIC_0011944.JPG,ISIC_0011944.JPG,false,0,keypress(z),500,397230,397229,393275,393264,393292,397259,8,400,13,,ISIC_1985569.JPG
break,html.Screen,4_62_1,2023-10-31T23:50:36.686Z,,0,,,NaN,,,,,,false,,,,397231,397231,,397230,,397259,8,400,,,
break_continue,html.Screen,4_62_2,2023-10-31T23:50:36.686Z,,0,,,NaN,,,,,,false,,,,397232,397232,,397232,,397259,8,400,,,
sequence,flow.Sequence,4_62,2023-10-31T23:50:36.686Z,,0,,,3940,completion,,,,,false,,,,397232,397232,393275,393264,393292,397259,8,400,,,
trial,html.Screen,4_63_0,2023-10-31T23:50:39.977Z,,0,2,,3280,response,ISIC_6983970.JPG,6,ISIC_0013059.JPG,ISIC_0013059.JPG,false,0,keypress(z),500,400522,400522,397242,397232,397259,400559,8,400,14,,ISIC_6983970.JPG
break,html.Screen,4_63_1,2023-10-31T23:50:39.978Z,,0,,,NaN,,,,,,false,,,,400524,400523,,400522,,400559,8,400,,,
break_continue,html.Screen,4_63_2,2023-10-31T23:50:39.979Z,,0,,,NaN,,,,,,false,,,,400524,400524,,400524,,400559,8,400,,,
sequence,flow.Sequence,4_63,2023-10-31T23:50:39.979Z,,0,,,3265,completion,,,,,false,,,,400524,400524,397242,397232,397259,400559,8,400,,,
trial,html.Screen,4_64_0,2023-10-31T23:50:44.315Z,,0,2,,4318,response,ISIC_0031389.JPG,13,ISIC_2323082.JPG,ISIC_0031389.JPG,false,1,keypress(m),500,404861,404860,400542,400524,400559,404892,8,400,15,,ISIC_2323082.JPG
break,html.Screen,4_64_1,2023-10-31T23:50:44.317Z,,0,,,NaN,,,,,,false,,,,404863,404862,,404861,,404892,8,400,,,
break_continue,html.Screen,4_64_2,2023-10-31T23:50:44.318Z,,0,,,NaN,,,,,,false,,,,404863,404863,,404863,,404892,8,400,,,
sequence,flow.Sequence,4_64,2023-10-31T23:50:44.318Z,,0,,,4304,completion,,,,,false,,,,404863,404863,400542,400524,400559,404892,8,400,,,
trial,html.Screen,4_65_0,2023-10-31T23:50:47.729Z,,0,2,,3398,response,ISIC_0061141.JPG,7,ISIC_4142019.JPG,ISIC_0061141.JPG,false,1,keypress(m),500,408274,408273,404875,404863,404892,408309,8,400,16,,ISIC_4142019.JPG
break,html.Screen,4_65_1,2023-10-31T23:50:47.730Z,,0,,,NaN,,,,,,false,,,,408276,408275.00000000006,,408274,,408309,8,400,,,
break_continue,html.Screen,4_65_2,2023-10-31T23:50:47.731Z,,0,,,NaN,,,,,,false,,,,408276,408276,,408276,,408309,8,400,,,
sequence,flow.Sequence,4_65,2023-10-31T23:50:47.731Z,,0,,,3384,completion,,,,,false,,,,408276,408276,404875,404863,404892,408309,8,400,,,
trial,html.Screen,4_66_0,2023-10-31T23:50:53.742Z,,0,2,,5994,response,ISIC_0053469.JPG,11,ISIC_0000473.JPG,ISIC_0053469.JPG,false,1,keypress(m),500,414287.00000000006,414286,408292,408277,408309,414325,8,400,17,,ISIC_0000473.JPG
break,html.Screen,4_66_1,2023-10-31T23:50:53.743Z,,0,,,NaN,,,,,,false,,,,414289,414288,,414287.00000000006,,414325,8,400,,,
break_continue,html.Screen,4_66_2,2023-10-31T23:50:53.744Z,,0,,,NaN,,,,,,false,,,,414289,414289,,414289,,414325,8,400,,,
sequence,flow.Sequence,4_66,2023-10-31T23:50:53.744Z,,0,,,5980,completion,,,,,false,,,,414289,414289,408292,408276,408309,414325,8,400,,,
trial,html.Screen,4_67_0,2023-10-31T23:50:57.084Z,,0,2,,3320,response,ISIC_6258744.JPG,14,ISIC_0013577.JPG,ISIC_0013577.JPG,false,0,keypress(z),500,417630,417629,414309,414290,414325,417658,8,400,18,,ISIC_6258744.JPG
break,html.Screen,4_67_1,2023-10-31T23:50:57.086Z,,0,,,NaN,,,,,,false,,,,417631,417631,,417630,,417658,8,400,,,
break_continue,html.Screen,4_67_2,2023-10-31T23:50:57.086Z,,0,,,NaN,,,,,,false,,,,417632,417632,,417632,,417658,8,400,,,
sequence,flow.Sequence,4_67,2023-10-31T23:50:57.087Z,,0,,,3307,completion,,,,,false,,,,417632,417632,414309,414290,414325,417658,8,400,,,
trial,html.Screen,4_68_0,2023-10-31T23:51:00.516Z,,0,2,,3420.000000000058,response,ISIC_0031598.JPG,5,ISIC_8147189.JPG,ISIC_8147189.JPG,false,0,keypress(z),500,421061.00000000006,421061.00000000006,417641,417632,417658,421092,8,400,19,,ISIC_0031598.JPG
break,html.Screen,4_68_1,2023-10-31T23:51:00.518Z,,0,,,NaN,,,,,,false,,,,421063,421063,,421062,,421092,8,400,,,
break_continue,html.Screen,4_68_2,2023-10-31T23:51:00.518Z,,0,,,NaN,,,,,,false,,,,421064,421064,,421063,,421092,8,400,,,
sequence,flow.Sequence,4_68,2023-10-31T23:51:00.519Z,,0,,,3406,completion,,,,,false,,,,421064,421064,417641,417632,417658,421092,8,400,,,
trial,html.Screen,4_69_0,2023-10-31T23:51:02.557Z,,0,2,,2027.0000000000582,response,ISIC_5646706.JPG,6,ISIC_6657600.JPG,ISIC_5646706.JPG,false,1,keypress(m),500,423102.00000000006,423102.00000000006,421075,421064,421092,423126,8,400,20,,ISIC_6657600.JPG
break,html.Screen,4_69_1,2023-10-31T23:51:02.558Z,,0,,,NaN,,,,,,false,,,,423104,423103,,423103,,423126,8,400,,,
break_continue,html.Screen,4_69_2,2023-10-31T23:51:02.559Z,,0,,,NaN,,,,,,false,,,,423104,423104,,423104,,423126,8,400,,,
sequence,flow.Sequence,4_69,2023-10-31T23:51:02.559Z,,0,,,2012,completion,,,,,false,,,,423104,423104,421075,421064,421092,423126,8,400,,,
trial,html.Screen,4_70_0,2023-10-31T23:51:05.722Z,,0,2,,3158,response,ISIC_9745562.JPG,16,ISIC_2807121.JPG,ISIC_2807121.JPG,false,0,keypress(z),500,426268,426267,423109,423105,423126,426292,8,400,21,,ISIC_9745562.JPG
break,html.Screen,4_70_1,2023-10-31T23:51:05.724Z,,0,,,NaN,,,,,,false,,,,426270,426269,,426268,,426292,8,400,,,
break_continue,html.Screen,4_70_2,2023-10-31T23:51:05.725Z,,0,,,NaN,,,,,,false,,,,426270,426270,,426270,,426292,8,400,,,
sequence,flow.Sequence,4_70,2023-10-31T23:51:05.725Z,,0,,,3144,completion,,,,,false,,,,426270,426270,423109,423105,423126,426292,8,400,,,
trial,html.Screen,4_71_0,2023-10-31T23:51:08.843Z,,0,2,,3113.000000000058,response,ISIC_0032586.JPG,0,ISIC_8622204.JPG,ISIC_0032586.JPG,false,1,keypress(m),500,429389,429388.00000000006,426275,426271,426292,429425,8,400,22,,ISIC_8622204.JPG
break,html.Screen,4_71_1,2023-10-31T23:51:08.845Z,,0,,,NaN,,,,,,false,,,,429390,429390,,429389,,429425,8,400,,,
break_continue,html.Screen,4_71_2,2023-10-31T23:51:08.845Z,,0,,,NaN,,,,,,false,,,,429391,429391,,429390,,429425,8,400,,,
sequence,flow.Sequence,4_71,2023-10-31T23:51:08.845Z,,0,,,3099,completion,,,,,false,,,,429391,429391,426275,426271,426292,429425,8,400,,,
trial,html.Screen,4_72_0,2023-10-31T23:51:13.151Z,,0,2,,4288,response,ISIC_4259290.JPG,13,ISIC_0068798.JPG,ISIC_0068798.JPG,false,0,keypress(z),500,433696,433696,429408,429391,429425,433725,8,400,23,,ISIC_4259290.JPG
break,html.Screen,4_72_1,2023-10-31T23:51:13.152Z,,0,,,NaN,,,,,,false,,,,433698.00000000006,433698.00000000006,,433697,,433725,8,400,,,
break_continue,html.Screen,4_72_2,2023-10-31T23:51:13.153Z,,0,,,NaN,,,,,,false,,,,433699,433698.00000000006,,433698.00000000006,,433725,8,400,,,
sequence,flow.Sequence,4_72,2023-10-31T23:51:13.153Z,,0,,,4273.000000000058,completion,,,,,false,,,,433699,433698.00000000006,429408,429391,429425,433725,8,400,,,
trial,html.Screen,4_73_0,2023-10-31T23:51:16.155Z,,0,2,,2991,response,ISIC_4645995.JPG,5,ISIC_6892561.JPG,ISIC_4645995.JPG,false,1,keypress(m),500,436701,436700,433709,433699,433725,436725,8,400,24,,ISIC_6892561.JPG
break,html.Screen,4_73_1,2023-10-31T23:51:16.157Z,,0,,,NaN,,,,,,false,,,,436703.00000000006,436702,,436701,,436725,8,400,,,
break_continue,html.Screen,4_73_2,2023-10-31T23:51:16.158Z,,0,,,NaN,,,,,,false,,,,436703.00000000006,436703.00000000006,,436703.00000000006,,436725,8,400,,,
sequence,flow.Sequence,4_73,2023-10-31T23:51:16.158Z,,0,,,2978.000000000058,completion,,,,,false,,,,436703.00000000006,436703.00000000006,433709,433699,433725,436725,8,400,,,
trial,html.Screen,4_74_0,2023-10-31T23:51:19.764Z,,0,2,,3600,response,ISIC_0057539.JPG,0,ISIC_2259190.JPG,ISIC_0057539.JPG,false,1,keypress(m),500,440310,440309,436709,436704,436725,440342,8,400,25,,ISIC_2259190.JPG
break,html.Screen,4_74_1,2023-10-31T23:51:19.766Z,,0,,,NaN,,,,,,false,,,,440311.00000000006,440311.00000000006,,440310,,440342,8,400,,,
break_continue,html.Screen,4_74_2,2023-10-31T23:51:19.766Z,,0,,,NaN,,,,,,false,,,,440312,440312,,440312,,440342,8,400,,,
sequence,flow.Sequence,4_74,2023-10-31T23:51:19.767Z,,0,,,3587,completion,,,,,false,,,,440312,440312,436709,436704,436725,440342,8,400,,,
trial,html.Screen,4_75_0,2023-10-31T23:51:26.733Z,,0,2,,6953,response,ISIC_0027104.JPG,9,ISIC_0073032.JPG,ISIC_0027104.JPG,false,1,keypress(m),500,447279,447278,440325,440312,440342,447308,8,400,26,,ISIC_0073032.JPG
break,html.Screen,4_75_1,2023-10-31T23:51:26.735Z,,0,,,NaN,,,,,,false,,,,447280.00000000006,447280.00000000006,,447279,,447308,8,400,,,
break_continue,html.Screen,4_75_2,2023-10-31T23:51:26.735Z,,0,,,NaN,,,,,,false,,,,447281,447281,,447280.00000000006,,447308,8,400,,,
sequence,flow.Sequence,4_75,2023-10-31T23:51:26.736Z,,0,,,6939,completion,,,,,false,,,,447281,447281,440325,440312,440342,447308,8,400,,,
trial,html.Screen,4_76_0,2023-10-31T23:51:30.556Z,,0,2,,3809,response,ISIC_6606767.JPG,5,ISIC_2801008.JPG,ISIC_6606767.JPG,false,1,keypress(m),500,451101,451101,447292,447281,447308,451125,8,400,27,,ISIC_2801008.JPG
break,html.Screen,4_76_1,2023-10-31T23:51:30.557Z,,0,,,NaN,,,,,,false,,,,451103,451102.00000000006,,451102.00000000006,,451125,8,400,,,
break_continue,html.Screen,4_76_2,2023-10-31T23:51:30.558Z,,0,,,NaN,,,,,,false,,,,451103,451103,,451103,,451125,8,400,,,
sequence,flow.Sequence,4_76,2023-10-31T23:51:30.558Z,,0,,,3795,completion,,,,,false,,,,451103,451103,447292,447281,447308,451125,8,400,,,
trial,html.Screen,4_77_0,2023-10-31T23:51:34.576Z,,0,2,,4013.000000000058,response,ISIC_5049165.JPG,0,ISIC_0033273.JPG,ISIC_0033273.JPG,false,0,keypress(z),500,455122,455121.00000000006,451108,451104,451125,455158,8,400,28,,ISIC_5049165.JPG
break,html.Screen,4_77_1,2023-10-31T23:51:34.578Z,,0,,,NaN,,,,,,false,,,,455124,455123,,455122,,455158,8,400,,,
break_continue,html.Screen,4_77_2,2023-10-31T23:51:34.578Z,,0,,,NaN,,,,,,false,,,,455124,455124,,455124,,455158,8,400,,,
sequence,flow.Sequence,4_77,2023-10-31T23:51:34.579Z,,0,,,3999,completion,,,,,false,,,,455124,455124,451108,451103,451125,455158,8,400,,,
trial,html.Screen,4_78_0,2023-10-31T23:51:38.311Z,,0,2,,3714,response,ISIC_6697332.JPG,12,ISIC_0065477.JPG,ISIC_6697332.JPG,false,1,keypress(m),500,458857,458856,455142,455125,455158,458891,8,400,29,,ISIC_0065477.JPG
break,html.Screen,4_78_1,2023-10-31T23:51:38.313Z,,0,,,NaN,,,,,,false,,,,458858,458858,,458857,,458891,8,400,,,
break_continue,html.Screen,4_78_2,2023-10-31T23:51:38.313Z,,0,,,NaN,,,,,,false,,,,458859.00000000006,458859.00000000006,,458859.00000000006,,458891,8,400,,,
sequence,flow.Sequence,4_78,2023-10-31T23:51:38.313Z,,0,,,3701.000000000058,completion,,,,,false,,,,458859.00000000006,458859.00000000006,455142,455125,455158,458891,8,400,,,
trial,html.Screen,4_79_0,2023-10-31T23:51:42.129Z,,0,2,,3799.000000000058,response,ISIC_8837880.JPG,11,ISIC_2131707.JPG,ISIC_8837880.JPG,false,1,keypress(m),500,462674.00000000006,462674.00000000006,458875,458859.00000000006,458891,462708,8,400,30,,ISIC_2131707.JPG
break,html.Screen,4_79_1,2023-10-31T23:51:42.130Z,,0,,,NaN,,,,,,false,,,,462676,462676,,462675,,462708,8,400,,,
break_continue,html.Screen,4_79_2,2023-10-31T23:51:42.131Z,,0,,,NaN,,,,,,false,,,,462676,462676,,462676,,462708,8,400,,,
sequence,flow.Sequence,4_79,2023-10-31T23:51:42.131Z,,0,,,3785,completion,,,,,false,,,,462676,462676,458875,458859.00000000006,458891,462708,8,400,,,
trial,html.Screen,4_80_0,2023-10-31T23:51:46.602Z,,0,2,,4455,response,ISIC_9121369.JPG,10,ISIC_4024062.JPG,ISIC_4024062.JPG,false,0,keypress(z),500,467148,467147,462692,462677,462708,467175,8,400,31,,ISIC_9121369.JPG
break,html.Screen,4_80_1,2023-10-31T23:51:46.603Z,,0,,,NaN,,,,,,false,,,,467149,467149,,467148,,467175,8,400,,,
break_continue,html.Screen,4_80_2,2023-10-31T23:51:46.604Z,,0,,,NaN,,,,,,false,,,,467149,467149,,467149,,467175,8,400,,,
sequence,flow.Sequence,4_80,2023-10-31T23:51:46.604Z,,0,,,4441,completion,,,,,false,,,,467149,467149,462692,462677,462708,467175,8,400,,,
trial,html.Screen,4_81_0,2023-10-31T23:51:51.410Z,,0,2,,4797,response,ISIC_2616719.JPG,5,ISIC_0030751.JPG,ISIC_0030751.JPG,false,0,keypress(z),500,471956,471955,467158,467150.00000000006,467175,471991,8,400,32,,ISIC_2616719.JPG
break,html.Screen,4_81_1,2023-10-31T23:51:51.412Z,,0,,,NaN,,,,,,false,,,,471958,471957,,471956,,471991,8,400,,,
break_continue,html.Screen,4_81_2,2023-10-31T23:51:51.412Z,,0,,,NaN,,,,,,false,,,,471958,471958,,471958,,471991,8,400,,,
sequence,flow.Sequence,4_81,2023-10-31T23:51:51.413Z,,0,,,4783,completion,,,,,false,,,,471958,471958,467158,467150.00000000006,467175,471991,8,400,,,
trial,html.Screen,4_82_0,2023-10-31T23:51:58.806Z,,0,2,,7378.000000000058,response,ISIC_0013865.JPG,12,ISIC_0058501.JPG,ISIC_0058501.JPG,false,0,keypress(z),500,479352.00000000006,479352.00000000006,471974,471958,471991,479375,8,400,33,,ISIC_0013865.JPG
break,html.Screen,4_82_1,2023-10-31T23:51:58.808Z,,0,,,NaN,,,,,,false,,,,479354,479354,,479353,,479375,8,400,,,
break_continue,html.Screen,4_82_2,2023-10-31T23:51:58.809Z,,0,,,NaN,,,,,,false,,,,479354,479354,,479354,,479375,8,400,,,
sequence,flow.Sequence,4_82,2023-10-31T23:51:58.809Z,,0,,,7363,completion,,,,,false,,,,479354,479354,471974,471958,471991,479375,8,400,,,
trial,html.Screen,4_83_0,2023-10-31T23:52:02.390Z,,0,2,,3576,response,ISIC_0054318.JPG,15,ISIC_0054705.JPG,ISIC_0054318.JPG,false,1,keypress(m),500,482935,482935,479359,479355,479375,482958,8,400,34,,ISIC_0054705.JPG
break,html.Screen,4_83_1,2023-10-31T23:52:02.391Z,,0,,,NaN,,,,,,false,,,,482937,482937,,482936.00000000006,,482958,8,400,,,
break_continue,html.Screen,4_83_2,2023-10-31T23:52:02.392Z,,0,,,NaN,,,,,,false,,,,482938,482937,,482937,,482958,8,400,,,
sequence,flow.Sequence,4_83,2023-10-31T23:52:02.392Z,,0,,,3562,completion,,,,,false,,,,482938,482937,479359,479355,479375,482958,8,400,,,
trial,html.Screen,4_84_0,2023-10-31T23:52:05.811Z,,0,2,,3415,response,ISIC_7755096.JPG,16,ISIC_7169653.JPG,ISIC_7169653.JPG,false,0,keypress(z),500,486357,486357,482942,482938,482958,486391,8,400,35,,ISIC_7755096.JPG
break,html.Screen,4_84_1,2023-10-31T23:52:05.813Z,,0,,,NaN,,,,,,false,,,,486359.00000000006,486358,,486357,,486391,8,400,,,
break_continue,html.Screen,4_84_2,2023-10-31T23:52:05.813Z,,0,,,NaN,,,,,,false,,,,486359.00000000006,486359.00000000006,,486359.00000000006,,486391,8,400,,,
sequence,flow.Sequence,4_84,2023-10-31T23:52:05.813Z,,0,,,3401.000000000058,completion,,,,,false,,,,486359.00000000006,486359.00000000006,482942,482938,482958,486391,8,400,,,
trial,html.Screen,4_85_0,2023-10-31T23:52:09.524Z,,0,2,,3694,response,ISIC_0069970.JPG,11,ISIC_3205354.JPG,ISIC_0069970.JPG,false,1,keypress(m),500,490069,490069,486375,486359.00000000006,486391,490091,8,400,36,,ISIC_3205354.JPG
break,html.Screen,4_85_1,2023-10-31T23:52:09.526Z,,0,,,NaN,,,,,,false,,,,490071,490071,,490070,,490091,8,400,,,
break_continue,html.Screen,4_85_2,2023-10-31T23:52:09.526Z,,0,,,NaN,,,,,,false,,,,490072,490072,,490071,,490091,8,400,,,
sequence,flow.Sequence,4_85,2023-10-31T23:52:09.526Z,,0,,,3681,completion,,,,,false,,,,490072,490072,486375,486359.00000000006,486391,490091,8,400,,,
trial,html.Screen,4_86_0,2023-10-31T23:52:21.029Z,,0,2,,11517,timeout,ISIC_0011642.JPG,15,ISIC_0001101.JPG,,false,,,500,501575,501574,490077,490072,490091,501608,8,400,37,,
break,html.Screen,4_86_1,2023-10-31T23:52:21.031Z,,0,,,NaN,,,,,,false,,,,501577,501576,,501575,,501608,8,400,,,
break_continue,html.Screen,4_86_2,2023-10-31T23:52:21.031Z,,0,,,NaN,,,,,,false,,,,501577,501577,,501577,,501608,8,400,,,
sequence,flow.Sequence,4_86,2023-10-31T23:52:21.031Z,,0,,,11486,completion,,,,,false,,,,501577,501577,490077,490072,490091,501608,8,400,,,
trial,html.Screen,4_87_0,2023-10-31T23:52:24.251Z,,0,2,,3206,response,ISIC_2316159.JPG,10,ISIC_7938688.JPG,ISIC_2316159.JPG,false,1,keypress(m),500,504797,504797,501591,501577,501608,504824,8,400,38,,ISIC_7938688.JPG
break,html.Screen,4_87_1,2023-10-31T23:52:24.253Z,,0,,,NaN,,,,,,false,,,,504799.00000000006,504798,,504797,,504824,8,400,,,
break_continue,html.Screen,4_87_2,2023-10-31T23:52:24.253Z,,0,,,NaN,,,,,,false,,,,504799.00000000006,504799.00000000006,,504799.00000000006,,504824,8,400,,,
sequence,flow.Sequence,4_87,2023-10-31T23:52:24.254Z,,0,,,3191.000000000058,completion,,,,,false,,,,504800,504799.00000000006,501591,501577,501608,504824,8,400,,,
trial,html.Screen,4_88_0,2023-10-31T23:52:27.700Z,,0,2,,3437,response,ISIC_5583159.JPG,4,ISIC_0062536.JPG,ISIC_0062536.JPG,false,0,keypress(z),500,508246.00000000006,508245,504808,504800,504824,508274,8,400,39,,ISIC_5583159.JPG
break,html.Screen,4_88_1,2023-10-31T23:52:27.702Z,,0,,,NaN,,,,,,false,,,,508248,508247,,508246.00000000006,,508274,8,400,,,
break_continue,html.Screen,4_88_2,2023-10-31T23:52:27.702Z,,0,,,NaN,,,,,,false,,,,508248,508248,,508248,,508274,8,400,,,
sequence,flow.Sequence,4_88,2023-10-31T23:52:27.703Z,,0,,,3424,completion,,,,,false,,,,508248,508248,504808,504800,504824,508274,8,400,,,
trial,html.Screen,4_89_0,2023-10-31T23:52:31.077Z,,0,2,,3365,response,ISIC_4569077.JPG,4,ISIC_0004089.JPG,ISIC_0004089.JPG,false,0,keypress(z),500,511623,511623,508258,508249,508274,511641,8,400,40,,ISIC_4569077.JPG
break,html.Screen,4_89_1,2023-10-31T23:52:31.079Z,,0,,,NaN,,,,,,false,,,,511625,511624,,511623,,511641,8,400,,,
break_continue,html.Screen,4_89_2,2023-10-31T23:52:31.079Z,,0,,,NaN,,,,,,false,,,,511625,511625,,511625,,511641,8,400,,,
sequence,flow.Sequence,4_89,2023-10-31T23:52:31.080Z,,0,,,3351,completion,,,,,false,,,,511625,511625,508258,508249,508274,511641,8,400,,,
trial,html.Screen,4_90_0,2023-10-31T23:52:42.580Z,,0,2,,11517,timeout,ISIC_0055714.JPG,12,ISIC_0029705.JPG,,false,,,500,523126,523125,511629,511626.00000000006,511641,523158,8,400,41,,
break,html.Screen,4_90_1,2023-10-31T23:52:42.581Z,,0,,,NaN,,,,,,false,,,,523127.00000000006,523127.00000000006,,523126,,523158,8,400,,,
break_continue,html.Screen,4_90_2,2023-10-31T23:52:42.582Z,,0,,,NaN,,,,,,false,,,,523128.00000000006,523128.00000000006,,523127.00000000006,,523158,8,400,,,
sequence,flow.Sequence,4_90,2023-10-31T23:52:42.582Z,,0,,,11487.000000000058,completion,,,,,false,,,,523128.00000000006,523128.00000000006,511629,511625,511641,523158,8,400,,,
trial,html.Screen,4_91_0,2023-10-31T23:52:50.102Z,,0,2,,7506,response,ISIC_0339930.JPG,9,ISIC_0025626.JPG,ISIC_0025626.JPG,false,0,keypress(z),500,530648,530647,523141,523128.00000000006,523158,530675,8,400,42,,ISIC_0339930.JPG
break,html.Screen,4_91_1,2023-10-31T23:52:50.103Z,,0,,,NaN,,,,,,false,,,,530649,530649,,530648,,530675,8,400,,,
break_continue,html.Screen,4_91_2,2023-10-31T23:52:50.104Z,,0,,,NaN,,,,,,false,,,,530650,530649,,530649,,530675,8,400,,,
sequence,flow.Sequence,4_91,2023-10-31T23:52:50.104Z,,0,,,7491,completion,,,,,false,,,,530650,530649,523141,523128.00000000006,523158,530675,8,400,,,
trial,html.Screen,4_92_0,2023-10-31T23:52:53.485Z,,0,2,,3374.0000000001164,response,ISIC_4024062.JPG,3,ISIC_0638857.JPG,ISIC_4024062.JPG,false,1,keypress(m),500,534031.0000000001,534031.0000000001,530657,530650,530675,534058,8,400,43,,ISIC_0638857.JPG
break,html.Screen,4_92_1,2023-10-31T23:52:53.487Z,,0,,,NaN,,,,,,false,,,,534033,534033,,534032,,534058,8,400,,,
break_continue,html.Screen,4_92_2,2023-10-31T23:52:53.488Z,,0,,,NaN,,,,,,false,,,,534034,534034,,534033,,534058,8,400,,,
sequence,flow.Sequence,4_92,2023-10-31T23:52:53.488Z,,0,,,3359,completion,,,,,false,,,,534034,534034,530657,530650,530675,534058,8,400,,,
trial,html.Screen,4_93_0,2023-10-31T23:52:56.907Z,,0,2,,3412,response,ISIC_7074321.JPG,3,ISIC_0071289.JPG,ISIC_0071289.JPG,false,0,keypress(z),500,537453,537453,534041,534034,534058,537491,8,400,44,,ISIC_7074321.JPG
break,html.Screen,4_93_1,2023-10-31T23:52:56.909Z,,0,,,NaN,,,,,,false,,,,537455,537455,,537454.0000000001,,537491,8,400,,,
break_continue,html.Screen,4_93_2,2023-10-31T23:52:56.910Z,,0,,,NaN,,,,,,false,,,,537455,537455,,537455,,537491,8,400,,,
sequence,flow.Sequence,4_93,2023-10-31T23:52:56.910Z,,0,,,3397,completion,,,,,false,,,,537456,537455,534041,534034,534058,537491,8,400,,,
trial,html.Screen,4_94_0,2023-10-31T23:53:00.568Z,,0,2,,3638,response,ISIC_1894133.JPG,14,ISIC_2312766.JPG,ISIC_1894133.JPG,false,1,keypress(m),500,541114,541113,537475,537456,537491,541141,8,400,45,,ISIC_2312766.JPG
break,html.Screen,4_94_1,2023-10-31T23:53:00.569Z,,0,,,NaN,,,,,,false,,,,541115,541115,,541114,,541141,8,400,,,
break_continue,html.Screen,4_94_2,2023-10-31T23:53:00.570Z,,0,,,NaN,,,,,,false,,,,541116,541116,,541115,,541141,8,400,,,
sequence,flow.Sequence,4_94,2023-10-31T23:53:00.570Z,,0,,,3625,completion,,,,,false,,,,541116,541116,537475,537456,537491,541141,8,400,,,
trial,html.Screen,4_95_0,2023-10-31T23:53:04.527Z,,0,2,,3948,response,ISIC_5359416.JPG,0,ISIC_8094432.JPG,ISIC_8094432.JPG,false,0,keypress(z),500,545073,545072,541124,541116,541141,545108,8,400,46,,ISIC_5359416.JPG
break,html.Screen,4_95_1,2023-10-31T23:53:04.528Z,,0,,,NaN,,,,,,false,,,,545074,545074,,545073,,545108,8,400,,,
break_continue,html.Screen,4_95_2,2023-10-31T23:53:04.528Z,,0,,,NaN,,,,,,false,,,,545074,545074,,545074,,545108,8,400,,,
sequence,flow.Sequence,4_95,2023-10-31T23:53:04.528Z,,0,,,3933,completion,,,,,false,,,,545074,545074,541124,541116,541141,545108,8,400,,,
trial,html.Screen,4_96_0,2023-10-31T23:53:07.828Z,,0,2,,3283,response,ISIC_0064941.JPG,13,ISIC_0277705.JPG,ISIC_0277705.JPG,false,0,keypress(z),500,548374,548374,545091,545074,545108,548408,8,400,47,,ISIC_0064941.JPG
break,html.Screen,4_96_1,2023-10-31T23:53:07.830Z,,0,,,NaN,,,,,,false,,,,548376,548376,,548375,,548408,8,400,,,
break_continue,html.Screen,4_96_2,2023-10-31T23:53:07.831Z,,0,,,NaN,,,,,,false,,,,548377.0000000001,548376,,548376,,548408,8,400,,,
sequence,flow.Sequence,4_96,2023-10-31T23:53:07.831Z,,0,,,3268,completion,,,,,false,,,,548377.0000000001,548376,545091,545074,545108,548408,8,400,,,
trial,html.Screen,4_97_0,2023-10-31T23:53:11.067Z,,0,2,,3221,response,ISIC_0027280.JPG,9,ISIC_0458561.JPG,ISIC_0458561.JPG,false,0,keypress(z),500,551613,551612,548391,548377.0000000001,548408,551641,8,400,48,,ISIC_0027280.JPG
break,html.Screen,4_97_1,2023-10-31T23:53:11.068Z,,0,,,NaN,,,,,,false,,,,551614,551614,,551613,,551641,8,400,,,
break_continue,html.Screen,4_97_2,2023-10-31T23:53:11.069Z,,0,,,NaN,,,,,,false,,,,551615,551615,,551615,,551641,8,400,,,
sequence,flow.Sequence,4_97,2023-10-31T23:53:11.069Z,,0,,,3207,completion,,,,,false,,,,551615,551615,548391,548377.0000000001,548408,551641,8,400,,,
trial,html.Screen,4_98_0,2023-10-31T23:53:15.328Z,,0,2,,4249,response,ISIC_0009989.JPG,5,ISIC_3000569.JPG,ISIC_0009989.JPG,false,1,keypress(m),500,555874,555874,551625,551615,551641,555908,8,400,49,,ISIC_3000569.JPG
break,html.Screen,4_98_1,2023-10-31T23:53:15.330Z,,0,,,NaN,,,,,,false,,,,555876,555876,,555875,,555908,8,400,,,
break_continue,html.Screen,4_98_2,2023-10-31T23:53:15.331Z,,0,,,NaN,,,,,,false,,,,555877.0000000001,555876,,555876,,555908,8,400,,,
sequence,flow.Sequence,4_98,2023-10-31T23:53:15.331Z,,0,,,4235,completion,,,,,false,,,,555877.0000000001,555876,551625,551615,551641,555908,8,400,,,
trial,html.Screen,4_99_0,2023-10-31T23:53:18.256Z,,0,2,,2910,response,ISIC_0029290.JPG,9,ISIC_0006517.JPG,ISIC_0006517.JPG,false,0,keypress(z),500,558802,558801,555891,555877.0000000001,555908,558825,8,400,50,,ISIC_0029290.JPG
break,html.Screen,4_99_1,2023-10-31T23:53:28.262Z,,0,,,10000,timeout,,,,,false,,,,568808,568808,558807,558802,558825,568825,8,400,,,
break_continue,html.Screen,4_99_2,2023-11-01T00:16:10.901Z,,0,,,1362602,response,,,,,false,continue,keypress(Space),,1931452,1931410,568808,568809,568825,1931491,8,400,,,
sequence,flow.Sequence,4_99,2023-11-01T00:16:10.903Z,,0,,,1375502,completion,,,,,false,,,,1931454,1931410,555891,555877.0000000001,555908,1931491,8,400,,,
trial,html.Screen,4_100_0,2023-11-01T00:16:14.737Z,,0,3,,3821,response,ISIC_0025379.JPG,4,ISIC_9756117.JPG,ISIC_9756117.JPG,false,0,keypress(z),500,1935288,1935287,1931466,1931454,1931491,1935317,8,400,1,,ISIC_0025379.JPG
break,html.Screen,4_100_1,2023-11-01T00:16:14.741Z,,0,,,NaN,,,,,,false,,,,1935292.0000000002,1935291,,1935289,,1935317,8,400,,,
break_continue,html.Screen,4_100_2,2023-11-01T00:16:14.743Z,,0,,,NaN,,,,,,false,,,,1935293.0000000002,1935293.0000000002,,1935292.0000000002,,1935317,8,400,,,
sequence,flow.Sequence,4_100,2023-11-01T00:16:14.743Z,,0,,,3802.000000000233,completion,,,,,false,,,,1935294,1935293.0000000002,1931466,1931454,1931491,1935317,8,400,,,
trial,html.Screen,4_101_0,2023-11-01T00:16:17.892Z,,0,3,,3140,response,ISIC_2915747.JPG,1,ISIC_0072516.JPG,ISIC_0072516.JPG,false,0,keypress(z),500,1938442,1938441,1935301,1935295,1935317,1938467,8,400,2,,ISIC_2915747.JPG
break,html.Screen,4_101_1,2023-11-01T00:16:17.894Z,,0,,,NaN,,,,,,false,,,,1938445,1938444,,1938443,,1938467,8,400,,,
break_continue,html.Screen,4_101_2,2023-11-01T00:16:17.896Z,,0,,,NaN,,,,,,false,,,,1938446.0000000002,1938446.0000000002,,1938446.0000000002,,1938467,8,400,,,
sequence,flow.Sequence,4_101,2023-11-01T00:16:17.896Z,,0,,,3129.000000000233,completion,,,,,false,,,,1938447,1938446.0000000002,1935301,1935294,1935317,1938467,8,400,,,
trial,html.Screen,4_102_0,2023-11-01T00:16:20.864Z,,0,3,,2961,response,ISIC_5793600.JPG,15,ISIC_0025658.JPG,ISIC_5793600.JPG,false,1,keypress(m),500,1941415,1941414,1938453,1938447,1938467,1941451,8,400,3,,ISIC_0025658.JPG
break,html.Screen,4_102_1,2023-11-01T00:16:20.867Z,,0,,,NaN,,,,,,false,,,,1941417.0000000002,1941416,,1941415,,1941451,8,400,,,
break_continue,html.Screen,4_102_2,2023-11-01T00:16:20.868Z,,0,,,NaN,,,,,,false,,,,1941419,1941418.0000000002,,1941418.0000000002,,1941451,8,400,,,
sequence,flow.Sequence,4_102,2023-11-01T00:16:20.869Z,,0,,,2951.000000000233,completion,,,,,false,,,,1941420,1941418.0000000002,1938453,1938447,1938467,1941451,8,400,,,
trial,html.Screen,4_103_0,2023-11-01T00:16:25.231Z,,0,3,,4347,response,ISIC_5583159.JPG,9,ISIC_0028129.JPG,ISIC_5583159.JPG,false,1,keypress(m),500,1945782.0000000002,1945781,1941434,1941420,1941451,1945817,8,400,4,,ISIC_0028129.JPG
break,html.Screen,4_103_1,2023-11-01T00:16:25.233Z,,0,,,NaN,,,,,,false,,,,1945784,1945784,,1945782.0000000002,,1945817,8,400,,,
break_continue,html.Screen,4_103_2,2023-11-01T00:16:25.234Z,,0,,,NaN,,,,,,false,,,,1945785,1945785,,1945785,,1945817,8,400,,,
sequence,flow.Sequence,4_103,2023-11-01T00:16:25.235Z,,0,,,4334,completion,,,,,false,,,,1945786,1945785,1941434,1941420,1941451,1945817,8,400,,,
trial,html.Screen,4_104_0,2023-11-01T00:16:28.464Z,,0,3,,3213.000000000233,response,ISIC_8853902.JPG,9,ISIC_7011122.JPG,ISIC_8853902.JPG,false,1,keypress(m),500,1949015,1949014.0000000002,1945801,1945786,1945817,1949050,8,400,5,,ISIC_7011122.JPG
break,html.Screen,4_104_1,2023-11-01T00:16:28.466Z,,0,,,NaN,,,,,,false,,,,1949017,1949016,,1949015,,1949050,8,400,,,
break_continue,html.Screen,4_104_2,2023-11-01T00:16:28.468Z,,0,,,NaN,,,,,,false,,,,1949018,1949018,,1949018,,1949050,8,400,,,
sequence,flow.Sequence,4_104,2023-11-01T00:16:28.468Z,,0,,,3201,completion,,,,,false,,,,1949019,1949018,1945801,1945786,1945817,1949050,8,400,,,
trial,html.Screen,4_105_0,2023-11-01T00:16:31.338Z,,0,3,,2854.000000000233,response,ISIC_2479134.JPG,10,ISIC_0059501.JPG,ISIC_0059501.JPG,false,0,keypress(z),500,1951889.0000000002,1951888.0000000002,1949034,1949019,1949050,1951917,8,400,6,,ISIC_2479134.JPG
break,html.Screen,4_105_1,2023-11-01T00:16:31.340Z,,0,,,NaN,,,,,,false,,,,1951891,1951890,,1951889.0000000002,,1951917,8,400,,,
break_continue,html.Screen,4_105_2,2023-11-01T00:16:31.341Z,,0,,,NaN,,,,,,false,,,,1951892,1951892,,1951892,,1951917,8,400,,,
sequence,flow.Sequence,4_105,2023-11-01T00:16:31.342Z,,0,,,2842,completion,,,,,false,,,,1951893,1951892,1949034,1949019,1949050,1951917,8,400,,,
trial,html.Screen,4_106_0,2023-11-01T00:16:34.642Z,,0,3,,3291,response,ISIC_0024781.JPG,3,ISIC_0011733.JPG,ISIC_0011733.JPG,false,0,keypress(z),500,1955193,1955192,1951901,1951893,1951917,1955217,8,400,7,,ISIC_0024781.JPG
break,html.Screen,4_106_1,2023-11-01T00:16:34.645Z,,0,,,NaN,,,,,,false,,,,1955195,1955195,,1955193,,1955217,8,400,,,
break_continue,html.Screen,4_106_2,2023-11-01T00:16:34.646Z,,0,,,NaN,,,,,,false,,,,1955196.0000000002,1955196.0000000002,,1955196.0000000002,,1955217,8,400,,,
sequence,flow.Sequence,4_106,2023-11-01T00:16:34.646Z,,0,,,3279.000000000233,completion,,,,,false,,,,1955197,1955196.0000000002,1951901,1951893,1951917,1955217,8,400,,,
trial,html.Screen,4_107_0,2023-11-01T00:16:37.733Z,,0,3,,3080.000000000233,response,ISIC_3009493.JPG,15,ISIC_0010050.JPG,ISIC_0010050.JPG,false,0,keypress(z),500,1958284,1958283.0000000002,1955203,1955197,1955217,1958317,8,400,8,,ISIC_3009493.JPG
break,html.Screen,4_107_1,2023-11-01T00:16:37.735Z,,0,,,NaN,,,,,,false,,,,1958286,1958285,,1958285,,1958317,8,400,,,
break_continue,html.Screen,4_107_2,2023-11-01T00:16:37.736Z,,0,,,NaN,,,,,,false,,,,1958286,1958286,,1958286,,1958317,8,400,,,
sequence,flow.Sequence,4_107,2023-11-01T00:16:37.736Z,,0,,,3069,completion,,,,,false,,,,1958287,1958286,1955203,1955197,1955217,1958317,8,400,,,
trial,html.Screen,4_108_0,2023-11-01T00:16:40.664Z,,0,3,,2913,response,ISIC_4154293.JPG,9,ISIC_0014211.JPG,ISIC_4154293.JPG,false,1,keypress(m),500,1961215.0000000002,1961214,1958301,1958287,1958317,1961251,8,400,9,,ISIC_0014211.JPG
break,html.Screen,4_108_1,2023-11-01T00:16:40.667Z,,0,,,NaN,,,,,,false,,,,1961218,1961217,,1961216.0000000002,,1961251,8,400,,,
break_continue,html.Screen,4_108_2,2023-11-01T00:16:40.668Z,,0,,,NaN,,,,,,false,,,,1961219,1961218,,1961218,,1961251,8,400,,,
sequence,flow.Sequence,4_108,2023-11-01T00:16:40.668Z,,0,,,2901,completion,,,,,false,,,,1961219,1961218,1958301,1958287,1958317,1961251,8,400,,,
trial,html.Screen,4_109_0,2023-11-01T00:16:43.977Z,,0,3,,3292,response,ISIC_4253346.JPG,9,ISIC_3913709.JPG,ISIC_4253346.JPG,false,1,keypress(m),500,1964527,1964526,1961234,1961219,1961251,1964551,8,400,10,,ISIC_3913709.JPG
break,html.Screen,4_109_1,2023-11-01T00:16:43.979Z,,0,,,NaN,,,,,,false,,,,1964529,1964529,,1964528,,1964551,8,400,,,
break_continue,html.Screen,4_109_2,2023-11-01T00:16:43.979Z,,0,,,NaN,,,,,,false,,,,1964530,1964530,,1964530,,1964551,8,400,,,
sequence,flow.Sequence,4_109,2023-11-01T00:16:43.980Z,,0,,,3279,completion,,,,,false,,,,1964531,1964530,1961234,1961219,1961251,1964551,8,400,,,
trial,html.Screen,4_110_0,2023-11-01T00:16:47.872Z,,0,3,,3886,response,ISIC_0197584.JPG,15,ISIC_3409824.JPG,ISIC_0197584.JPG,false,1,keypress(m),500,1968423,1968422,1964536,1964531,1964551,1968450,8,400,11,,ISIC_3409824.JPG
break,html.Screen,4_110_1,2023-11-01T00:16:47.875Z,,0,,,NaN,,,,,,false,,,,1968426,1968425,,1968424,,1968450,8,400,,,
break_continue,html.Screen,4_110_2,2023-11-01T00:16:47.876Z,,0,,,NaN,,,,,,false,,,,1968427.0000000002,1968426,,1968426,,1968450,8,400,,,
sequence,flow.Sequence,4_110,2023-11-01T00:16:47.876Z,,0,,,3875,completion,,,,,false,,,,1968427.0000000002,1968426,1964536,1964531,1964551,1968450,8,400,,,
trial,html.Screen,4_111_0,2023-11-01T00:16:50.933Z,,0,3,,3049,response,ISIC_3819893.JPG,1,ISIC_7748311.JPG,ISIC_3819893.JPG,false,1,keypress(m),500,1971484.0000000002,1971483,1968434,1968428,1968450,1971517,8,400,12,,ISIC_7748311.JPG
break,html.Screen,4_111_1,2023-11-01T00:16:50.935Z,,0,,,NaN,,,,,,false,,,,1971486,1971486,,1971485.0000000002,,1971517,8,400,,,
break_continue,html.Screen,4_111_2,2023-11-01T00:16:50.936Z,,0,,,NaN,,,,,,false,,,,1971487,1971487,,1971486,,1971517,8,400,,,
sequence,flow.Sequence,4_111,2023-11-01T00:16:50.936Z,,0,,,3037,completion,,,,,false,,,,1971487,1971487,1968434,1968427.0000000002,1968450,1971517,8,400,,,
trial,html.Screen,4_112_0,2023-11-01T00:16:54.515Z,,0,3,,3565,response,ISIC_0059846.JPG,8,ISIC_0011960.JPG,ISIC_0011960.JPG,false,0,keypress(z),500,1975066,1975065,1971500,1971488,1971517,1975100,8,400,13,,ISIC_0059846.JPG
break,html.Screen,4_112_1,2023-11-01T00:16:54.517Z,,0,,,NaN,,,,,,false,,,,1975068,1975067,,1975066,,1975100,8,400,,,
break_continue,html.Screen,4_112_2,2023-11-01T00:16:54.518Z,,0,,,NaN,,,,,,false,,,,1975068,1975068,,1975068,,1975100,8,400,,,
sequence,flow.Sequence,4_112,2023-11-01T00:16:54.518Z,,0,,,3551,completion,,,,,false,,,,1975069,1975068,1971500,1971487,1971517,1975100,8,400,,,
trial,html.Screen,4_113_0,2023-11-01T00:16:57.968Z,,0,3,,3434,response,ISIC_7416587.JPG,10,ISIC_5514594.JPG,ISIC_7416587.JPG,false,1,keypress(m),500,1978519,1978518,1975084,1975069,1975100,1978550,8,400,14,,ISIC_5514594.JPG
break,html.Screen,4_113_1,2023-11-01T00:16:57.970Z,,0,,,NaN,,,,,,false,,,,1978520,1978520,,1978519,,1978550,8,400,,,
break_continue,html.Screen,4_113_2,2023-11-01T00:16:57.970Z,,0,,,NaN,,,,,,false,,,,1978521,1978521,,1978521,,1978550,8,400,,,
sequence,flow.Sequence,4_113,2023-11-01T00:16:57.971Z,,0,,,3421,completion,,,,,false,,,,1978522,1978521,1975084,1975069,1975100,1978550,8,400,,,
trial,html.Screen,4_114_0,2023-11-01T00:17:01.566Z,,0,3,,3583,response,ISIC_9792592.JPG,7,ISIC_3856233.JPG,ISIC_3856233.JPG,false,0,keypress(z),500,1982117,1982116,1978533,1978522,1978550,1982150,8,400,15,,ISIC_9792592.JPG
break,html.Screen,4_114_1,2023-11-01T00:17:01.569Z,,0,,,NaN,,,,,,false,,,,1982119.0000000002,1982119.0000000002,,1982118,,1982150,8,400,,,
break_continue,html.Screen,4_114_2,2023-11-01T00:17:01.569Z,,0,,,NaN,,,,,,false,,,,1982120.0000000002,1982120.0000000002,,1982120.0000000002,,1982150,8,400,,,
sequence,flow.Sequence,4_114,2023-11-01T00:17:01.569Z,,0,,,3570.000000000233,completion,,,,,false,,,,1982120.0000000002,1982120.0000000002,1978533,1978522,1978550,1982150,8,400,,,
trial,html.Screen,4_115_0,2023-11-01T00:17:06.135Z,,0,3,,4551,response,ISIC_6754835.JPG,8,ISIC_0055727.JPG,ISIC_6754835.JPG,false,1,keypress(m),500,1986686.0000000002,1986685,1982134,1982121,1982150,1986717,8,400,16,,ISIC_0055727.JPG
break,html.Screen,4_115_1,2023-11-01T00:17:06.137Z,,0,,,NaN,,,,,,false,,,,1986688,1986687.0000000002,,1986686.0000000002,,1986717,8,400,,,
break_continue,html.Screen,4_115_2,2023-11-01T00:17:06.138Z,,0,,,NaN,,,,,,false,,,,1986689,1986688,,1986688,,1986717,8,400,,,
sequence,flow.Sequence,4_115,2023-11-01T00:17:06.138Z,,0,,,4538,completion,,,,,false,,,,1986689,1986688,1982134,1982120.0000000002,1982150,1986717,8,400,,,
trial,html.Screen,4_116_0,2023-11-01T00:17:09.142Z,,0,3,,2992,response,ISIC_0776189.JPG,7,ISIC_4597707.JPG,ISIC_0776189.JPG,false,1,keypress(m),500,1989693,1989692,1986700,1986689,1986717,1989716,8,400,17,,ISIC_4597707.JPG
break,html.Screen,4_116_1,2023-11-01T00:17:09.144Z,,0,,,NaN,,,,,,false,,,,1989695,1989694,,1989693,,1989716,8,400,,,
break_continue,html.Screen,4_116_2,2023-11-01T00:17:09.145Z,,0,,,NaN,,,,,,false,,,,1989695,1989695,,1989695,,1989716,8,400,,,
sequence,flow.Sequence,4_116,2023-11-01T00:17:09.145Z,,0,,,2978,completion,,,,,false,,,,1989696.0000000002,1989695,1986700,1986689,1986717,1989716,8,400,,,
trial,html.Screen,4_117_0,2023-11-01T00:17:13.390Z,,0,3,,4240,response,ISIC_0011797.JPG,0,ISIC_8730617.JPG,ISIC_8730617.JPG,false,0,keypress(z),500,1993941,1993940,1989700,1989696.0000000002,1989716,1993967,8,400,18,,ISIC_0011797.JPG
break,html.Screen,4_117_1,2023-11-01T00:17:13.392Z,,0,,,NaN,,,,,,false,,,,1993943,1993942,,1993941,,1993967,8,400,,,
break_continue,html.Screen,4_117_2,2023-11-01T00:17:13.393Z,,0,,,NaN,,,,,,false,,,,1993943,1993943,,1993943,,1993967,8,400,,,
sequence,flow.Sequence,4_117,2023-11-01T00:17:13.393Z,,0,,,4227,completion,,,,,false,,,,1993944,1993943,1989700,1989696.0000000002,1989716,1993967,8,400,,,
trial,html.Screen,4_118_0,2023-11-01T00:17:21.907Z,,0,3,,8507,response,ISIC_9210086.JPG,2,ISIC_9969263.JPG,ISIC_9969263.JPG,false,0,keypress(z),500,2002458,2002457,1993950,1993944,1993967,2002484,8,400,19,,ISIC_9210086.JPG
break,html.Screen,4_118_1,2023-11-01T00:17:21.908Z,,0,,,NaN,,,,,,false,,,,2002459,2002459,,2002458,,2002484,8,400,,,
break_continue,html.Screen,4_118_2,2023-11-01T00:17:21.908Z,,0,,,NaN,,,,,,false,,,,2002459,2002459,,2002459,,2002484,8,400,,,
sequence,flow.Sequence,4_118,2023-11-01T00:17:21.909Z,,0,,,8492,completion,,,,,false,,,,2002460,2002459,1993950,1993944,1993967,2002484,8,400,,,
trial,html.Screen,4_119_0,2023-11-01T00:17:25.302Z,,0,3,,3385,response,ISIC_6448654.JPG,3,ISIC_0010874.JPG,ISIC_6448654.JPG,false,1,keypress(m),500,2005853,2005852,2002467,2002460,2002484,2005884,8,400,20,,ISIC_0010874.JPG
break,html.Screen,4_119_1,2023-11-01T00:17:25.304Z,,0,,,NaN,,,,,,false,,,,2005855,2005854,,2005853,,2005884,8,400,,,
break_continue,html.Screen,4_119_2,2023-11-01T00:17:25.304Z,,0,,,NaN,,,,,,false,,,,2005855,2005855,,2005855,,2005884,8,400,,,
sequence,flow.Sequence,4_119,2023-11-01T00:17:25.305Z,,0,,,3371,completion,,,,,false,,,,2005856,2005855,2002467,2002460,2002484,2005884,8,400,,,
trial,html.Screen,4_120_0,2023-11-01T00:17:31.727Z,,0,3,,6410,response,ISIC_0033981.JPG,6,ISIC_4517738.JPG,ISIC_0033981.JPG,false,1,keypress(m),500,2012278,2012277,2005867,2005856,2005884,2012300,8,400,21,,ISIC_4517738.JPG
break,html.Screen,4_120_1,2023-11-01T00:17:31.729Z,,0,,,NaN,,,,,,false,,,,2012280,2012279,,2012278,,2012300,8,400,,,
break_continue,html.Screen,4_120_2,2023-11-01T00:17:31.729Z,,0,,,NaN,,,,,,false,,,,2012280,2012280,,2012280,,2012300,8,400,,,
sequence,flow.Sequence,4_120,2023-11-01T00:17:31.730Z,,0,,,6396,completion,,,,,false,,,,2012281,2012280,2005867,2005856,2005884,2012300,8,400,,,
trial,html.Screen,4_121_0,2023-11-01T00:17:37.090Z,,0,3,,5355,response,ISIC_5527224.JPG,15,ISIC_4044751.JPG,ISIC_5527224.JPG,false,1,keypress(m),500,2017641,2017641,2012286,2012281,2012300,2017667,8,400,22,,ISIC_4044751.JPG
break,html.Screen,4_121_1,2023-11-01T00:17:37.092Z,,0,,,NaN,,,,,,false,,,,2017643,2017643,,2017642,,2017667,8,400,,,
break_continue,html.Screen,4_121_2,2023-11-01T00:17:37.093Z,,0,,,NaN,,,,,,false,,,,2017644,2017644,,2017643,,2017667,8,400,,,
sequence,flow.Sequence,4_121,2023-11-01T00:17:37.093Z,,0,,,5344,completion,,,,,false,,,,2017644,2017644,2012286,2012281,2012300,2017667,8,400,,,
trial,html.Screen,4_122_0,2023-11-01T00:17:40.645Z,,0,3,,3546.000000000233,response,ISIC_0013059.JPG,2,ISIC_0485881.JPG,ISIC_0485881.JPG,false,0,keypress(z),500,2021196.0000000002,2021196.0000000002,2017650,2017644,2017667,2021234,8,400,23,,ISIC_0013059.JPG
break,html.Screen,4_122_1,2023-11-01T00:17:40.648Z,,0,,,NaN,,,,,,false,,,,2021199,2021198,,2021197,,2021234,8,400,,,
break_continue,html.Screen,4_122_2,2023-11-01T00:17:40.648Z,,0,,,NaN,,,,,,false,,,,2021199,2021199,,2021199,,2021234,8,400,,,
sequence,flow.Sequence,4_122,2023-11-01T00:17:40.648Z,,0,,,3532,completion,,,,,false,,,,2021199,2021199,2017650,2017644,2017667,2021234,8,400,,,
trial,html.Screen,4_123_0,2023-11-01T00:17:43.939Z,,0,3,,3272,response,ISIC_2861793.JPG,12,ISIC_0024661.JPG,ISIC_2861793.JPG,false,1,keypress(m),500,2024490,2024489,2021217,2021200,2021234,2024516,8,400,24,,ISIC_0024661.JPG
break,html.Screen,4_123_1,2023-11-01T00:17:43.941Z,,0,,,NaN,,,,,,false,,,,2024492,2024491,,2024490,,2024516,8,400,,,
break_continue,html.Screen,4_123_2,2023-11-01T00:17:43.941Z,,0,,,NaN,,,,,,false,,,,2024492,2024492,,2024492,,2024516,8,400,,,
sequence,flow.Sequence,4_123,2023-11-01T00:17:43.941Z,,0,,,3258,completion,,,,,false,,,,2024492,2024492,2021217,2021200,2021234,2024516,8,400,,,
trial,html.Screen,4_124_0,2023-11-01T00:17:47.113Z,,0,3,,3163,response,ISIC_0030913.JPG,2,ISIC_6298726.JPG,ISIC_0030913.JPG,false,1,keypress(m),500,2027664,2027663,2024500,2024493,2024516,2027683,8,400,25,,ISIC_6298726.JPG
break,html.Screen,4_124_1,2023-11-01T00:17:47.115Z,,0,,,NaN,,,,,,false,,,,2027666,2027665,,2027664,,2027683,8,400,,,
break_continue,html.Screen,4_124_2,2023-11-01T00:17:47.116Z,,0,,,NaN,,,,,,false,,,,2027667.0000000002,2027666,,2027666,,2027683,8,400,,,
sequence,flow.Sequence,4_124,2023-11-01T00:17:47.116Z,,0,,,3150,completion,,,,,false,,,,2027667.0000000002,2027666,2024500,2024493,2024516,2027683,8,400,,,
trial,html.Screen,4_125_0,2023-11-01T00:17:50.398Z,,0,3,,3278,response,ISIC_0026780.JPG,12,ISIC_0010777.JPG,ISIC_0026780.JPG,false,1,keypress(m),500,2030949,2030948,2027670,2027667.0000000002,2027683,2030984,8,400,26,,ISIC_0010777.JPG
break,html.Screen,4_125_1,2023-11-01T00:17:50.400Z,,0,,,NaN,,,,,,false,,,,2030951,2030950,,2030949,,2030984,8,400,,,
break_continue,html.Screen,4_125_2,2023-11-01T00:17:50.400Z,,0,,,NaN,,,,,,false,,,,2030951,2030951,,2030951,,2030984,8,400,,,
sequence,flow.Sequence,4_125,2023-11-01T00:17:50.401Z,,0,,,3268,completion,,,,,false,,,,2030952,2030951,2027670,2027667.0000000002,2027683,2030984,8,400,,,
trial,html.Screen,4_126_0,2023-11-01T00:17:53.677Z,,0,3,,3260,response,ISIC_0032921.JPG,10,ISIC_0068460.JPG,ISIC_0068460.JPG,false,0,keypress(z),500,2034228,2034227,2030967,2030952,2030984,2034250,8,400,27,,ISIC_0032921.JPG
break,html.Screen,4_126_1,2023-11-01T00:17:53.678Z,,0,,,NaN,,,,,,false,,,,2034229,2034229,,2034228,,2034250,8,400,,,
break_continue,html.Screen,4_126_2,2023-11-01T00:17:53.678Z,,0,,,NaN,,,,,,false,,,,2034229,2034229,,2034229,,2034250,8,400,,,
sequence,flow.Sequence,4_126,2023-11-01T00:17:53.678Z,,0,,,3245,completion,,,,,false,,,,2034229,2034229,2030967,2030952,2030984,2034250,8,400,,,
trial,html.Screen,4_127_0,2023-11-01T00:17:56.891Z,,0,3,,3209,response,ISIC_9160614.JPG,0,ISIC_0031408.JPG,ISIC_0031408.JPG,false,0,keypress(z),500,2037442,2037442,2034233,2034230,2034250,2037467,8,400,28,,ISIC_9160614.JPG
break,html.Screen,4_127_1,2023-11-01T00:17:56.893Z,,0,,,NaN,,,,,,false,,,,2037444,2037444,,2037443,,2037467,8,400,,,
break_continue,html.Screen,4_127_2,2023-11-01T00:17:56.894Z,,0,,,NaN,,,,,,false,,,,2037445,2037445,,2037445,,2037467,8,400,,,
sequence,flow.Sequence,4_127,2023-11-01T00:17:56.894Z,,0,,,3195,completion,,,,,false,,,,2037445,2037445,2034233,2034230,2034250,2037467,8,400,,,
trial,html.Screen,4_128_0,2023-11-01T00:17:59.993Z,,0,3,,3094,response,ISIC_9768421.JPG,0,ISIC_0011695.JPG,ISIC_0011695.JPG,false,0,keypress(z),500,2040544,2040544,2037450,2037445,2037467,2040567,8,400,29,,ISIC_9768421.JPG
break,html.Screen,4_128_1,2023-11-01T00:17:59.995Z,,0,,,NaN,,,,,,false,,,,2040546,2040546,,2040544,,2040567,8,400,,,
break_continue,html.Screen,4_128_2,2023-11-01T00:17:59.995Z,,0,,,NaN,,,,,,false,,,,2040546,2040546,,2040546,,2040567,8,400,,,
sequence,flow.Sequence,4_128,2023-11-01T00:17:59.996Z,,0,,,3079,completion,,,,,false,,,,2040547,2040546,2037450,2037445,2037467,2040567,8,400,,,
trial,html.Screen,4_129_0,2023-11-01T00:18:02.520Z,,0,3,,2518,response,ISIC_5823859.JPG,15,ISIC_0010719.JPG,ISIC_0010719.JPG,false,0,keypress(z),500,2043071.0000000002,2043070,2040552,2040547,2040567,2043100,8,400,30,,ISIC_5823859.JPG
break,html.Screen,4_129_1,2023-11-01T00:18:02.522Z,,0,,,NaN,,,,,,false,,,,2043073,2043073,,2043072,,2043100,8,400,,,
break_continue,html.Screen,4_129_2,2023-11-01T00:18:02.523Z,,0,,,NaN,,,,,,false,,,,2043074,2043073,,2043073,,2043100,8,400,,,
sequence,flow.Sequence,4_129,2023-11-01T00:18:02.523Z,,0,,,2506,completion,,,,,false,,,,2043074,2043073,2040552,2040547,2040567,2043100,8,400,,,
trial,html.Screen,4_130_0,2023-11-01T00:18:07.879Z,,0,3,,5345.999999999767,response,ISIC_3610783.JPG,5,ISIC_0028025.JPG,ISIC_0028025.JPG,false,0,keypress(z),500,2048429.9999999998,2048429.9999999998,2043084,2043074,2043100,2048467,8,400,31,,ISIC_3610783.JPG
break,html.Screen,4_130_1,2023-11-01T00:18:07.881Z,,0,,,NaN,,,,,,false,,,,2048432.0000000002,2048432.0000000002,,2048431,,2048467,8,400,,,
break_continue,html.Screen,4_130_2,2023-11-01T00:18:07.882Z,,0,,,NaN,,,,,,false,,,,2048433,2048433,,2048433,,2048467,8,400,,,
sequence,flow.Sequence,4_130,2023-11-01T00:18:07.882Z,,0,,,5333,completion,,,,,false,,,,2048433,2048433,2043084,2043074,2043100,2048467,8,400,,,
trial,html.Screen,4_131_0,2023-11-01T00:18:11.277Z,,0,3,,3378,response,ISIC_0009959.JPG,12,ISIC_9719936.JPG,ISIC_0009959.JPG,false,1,keypress(m),500,2051828,2051828,2048450,2048434.0000000002,2048467,2051850,8,400,32,,ISIC_9719936.JPG
break,html.Screen,4_131_1,2023-11-01T00:18:11.279Z,,0,,,NaN,,,,,,false,,,,2051830,2051830,,2051829.0000000002,,2051850,8,400,,,
break_continue,html.Screen,4_131_2,2023-11-01T00:18:11.280Z,,0,,,NaN,,,,,,false,,,,2051831.0000000002,2051831.0000000002,,2051830,,2051850,8,400,,,
sequence,flow.Sequence,4_131,2023-11-01T00:18:11.280Z,,0,,,3364.000000000233,completion,,,,,false,,,,2051831.0000000002,2051831.0000000002,2048450,2048433,2048467,2051850,8,400,,,
trial,html.Screen,4_132_0,2023-11-01T00:18:16.380Z,,0,3,,5093.999999999767,response,ISIC_0030860.JPG,14,ISIC_0034216.JPG,ISIC_0030860.JPG,false,1,keypress(m),500,2056931,2056929.9999999998,2051836,2051831.0000000002,2051850,2056967,8,400,33,,ISIC_0034216.JPG
break,html.Screen,4_132_1,2023-11-01T00:18:16.381Z,,0,,,NaN,,,,,,false,,,,2056933,2056932.0000000002,,2056931,,2056967,8,400,,,
break_continue,html.Screen,4_132_2,2023-11-01T00:18:16.382Z,,0,,,NaN,,,,,,false,,,,2056933,2056933,,2056933,,2056967,8,400,,,
sequence,flow.Sequence,4_132,2023-11-01T00:18:16.382Z,,0,,,5083,completion,,,,,false,,,,2056933,2056933,2051836,2051831.0000000002,2051850,2056967,8,400,,,
trial,html.Screen,4_133_0,2023-11-01T00:18:19.703Z,,0,3,,3304,response,ISIC_0054640.JPG,11,ISIC_1774797.JPG,ISIC_0054640.JPG,false,1,keypress(m),500,2060255,2060254,2056950,2056934.0000000002,2056967,2060283,8,400,34,,ISIC_1774797.JPG
break,html.Screen,4_133_1,2023-11-01T00:18:19.706Z,,0,,,NaN,,,,,,false,,,,2060257,2060255.9999999998,,2060255,,2060283,8,400,,,
break_continue,html.Screen,4_133_2,2023-11-01T00:18:19.706Z,,0,,,NaN,,,,,,false,,,,2060257,2060257,,2060257,,2060283,8,400,,,
sequence,flow.Sequence,4_133,2023-11-01T00:18:19.706Z,,0,,,3290,completion,,,,,false,,,,2060258.0000000002,2060257,2056950,2056934.0000000002,2056967,2060283,8,400,,,
trial,html.Screen,4_134_0,2023-11-01T00:18:26.473Z,,0,3,,6757,response,ISIC_3649632.JPG,4,ISIC_0032287.JPG,ISIC_0032287.JPG,false,0,keypress(z),500,2067024,2067024,2060267,2060258.0000000002,2060283,2067050,8,400,35,,ISIC_3649632.JPG
break,html.Screen,4_134_1,2023-11-01T00:18:26.475Z,,0,,,NaN,,,,,,false,,,,2067025.9999999998,2067025.9999999998,,2067025,,2067050,8,400,,,
break_continue,html.Screen,4_134_2,2023-11-01T00:18:26.476Z,,0,,,NaN,,,,,,false,,,,2067027,2067027,,2067027,,2067050,8,400,,,
sequence,flow.Sequence,4_134,2023-11-01T00:18:26.476Z,,0,,,6744,completion,,,,,false,,,,2067027,2067027,2060267,2060258.0000000002,2060283,2067050,8,400,,,
trial,html.Screen,4_135_0,2023-11-01T00:18:30.427Z,,0,3,,3943.999999999767,response,ISIC_5073160.JPG,0,ISIC_0033520.JPG,ISIC_0033520.JPG,false,0,keypress(z),500,2070978,2070976.9999999998,2067033,2067028.0000000002,2067050,2071000,8,400,36,,ISIC_5073160.JPG
break,html.Screen,4_135_1,2023-11-01T00:18:30.429Z,,0,,,NaN,,,,,,false,,,,2070980,2070979.0000000002,,2070978,,2071000,8,400,,,
break_continue,html.Screen,4_135_2,2023-11-01T00:18:30.429Z,,0,,,NaN,,,,,,false,,,,2070980,2070980,,2070980,,2071000,8,400,,,
sequence,flow.Sequence,4_135,2023-11-01T00:18:30.430Z,,0,,,3930,completion,,,,,false,,,,2070981.0000000002,2070980,2067033,2067028.0000000002,2067050,2071000,8,400,,,
trial,html.Screen,4_136_0,2023-11-01T00:18:33.524Z,,0,3,,3089,response,ISIC_0025648.JPG,14,ISIC_0068628.JPG,ISIC_0068628.JPG,false,0,keypress(z),500,2074074.9999999998,2074074,2070985,2070981.0000000002,2071000,2074100,8,400,37,,ISIC_0025648.JPG
break,html.Screen,4_136_1,2023-11-01T00:18:33.526Z,,0,,,NaN,,,,,,false,,,,2074077.0000000002,2074076,,2074074.9999999998,,2074100,8,400,,,
break_continue,html.Screen,4_136_2,2023-11-01T00:18:33.527Z,,0,,,NaN,,,,,,false,,,,2074078,2074077.0000000002,,2074077.0000000002,,2074100,8,400,,,
sequence,flow.Sequence,4_136,2023-11-01T00:18:33.527Z,,0,,,3077.000000000233,completion,,,,,false,,,,2074078,2074077.0000000002,2070985,2070981.0000000002,2071000,2074100,8,400,,,
trial,html.Screen,4_137_0,2023-11-01T00:18:36.575Z,,0,3,,3042,response,ISIC_9486917.JPG,0,ISIC_5744196.JPG,ISIC_5744196.JPG,false,0,keypress(z),500,2077126.0000000002,2077125,2074083,2074078,2074100,2077150,8,400,38,,ISIC_9486917.JPG
break,html.Screen,4_137_1,2023-11-01T00:18:36.576Z,,0,,,NaN,,,,,,false,,,,2077128.0000000002,2077127,,2077126.0000000002,,2077150,8,400,,,
break_continue,html.Screen,4_137_2,2023-11-01T00:18:36.577Z,,0,,,NaN,,,,,,false,,,,2077128.0000000002,2077128.0000000002,,2077128.0000000002,,2077150,8,400,,,
sequence,flow.Sequence,4_137,2023-11-01T00:18:36.577Z,,0,,,3028.000000000233,completion,,,,,false,,,,2077128.0000000002,2077128.0000000002,2074083,2074078,2074100,2077150,8,400,,,
trial,html.Screen,4_138_0,2023-11-01T00:18:40.347Z,,0,3,,3764,response,ISIC_0003201.JPG,0,ISIC_0054570.JPG,ISIC_0054570.JPG,false,0,keypress(z),500,2080898.0000000002,2080897,2077133,2077129,2077150,2080917,8,400,39,,ISIC_0003201.JPG
break,html.Screen,4_138_1,2023-11-01T00:18:40.348Z,,0,,,NaN,,,,,,false,,,,2080900,2080899,,2080898.0000000002,,2080917,8,400,,,
break_continue,html.Screen,4_138_2,2023-11-01T00:18:40.349Z,,0,,,NaN,,,,,,false,,,,2080900,2080900,,2080900,,2080917,8,400,,,
sequence,flow.Sequence,4_138,2023-11-01T00:18:40.349Z,,0,,,3750,completion,,,,,false,,,,2080900,2080900,2077133,2077128.0000000002,2077150,2080917,8,400,,,
trial,html.Screen,4_139_0,2023-11-01T00:18:44.193Z,,0,3,,3839,response,ISIC_9751013.JPG,12,ISIC_0027742.JPG,ISIC_0027742.JPG,false,0,keypress(z),500,2084744.0000000002,2084743,2080904,2080900.9999999998,2080917,2084767,8,400,40,,ISIC_9751013.JPG
break,html.Screen,4_139_1,2023-11-01T00:18:44.195Z,,0,,,NaN,,,,,,false,,,,2084746,2084745,,2084744.0000000002,,2084767,8,400,,,
break_continue,html.Screen,4_139_2,2023-11-01T00:18:44.195Z,,0,,,NaN,,,,,,false,,,,2084746.9999999998,2084746,,2084746,,2084767,8,400,,,
sequence,flow.Sequence,4_139,2023-11-01T00:18:44.196Z,,0,,,3829,completion,,,,,false,,,,2084746.9999999998,2084746,2080904,2080900.9999999998,2080917,2084767,8,400,,,
trial,html.Screen,4_140_0,2023-11-01T00:18:47.354Z,,0,3,,3152,response,ISIC_0033711.JPG,15,ISIC_3372750.JPG,ISIC_0033711.JPG,false,1,keypress(m),500,2087905.0000000002,2087904,2084752,2084746.9999999998,2084767,2087933,8,400,41,,ISIC_3372750.JPG
break,html.Screen,4_140_1,2023-11-01T00:18:47.356Z,,0,,,NaN,,,,,,false,,,,2087907.0000000002,2087907.0000000002,,2087905.0000000002,,2087933,8,400,,,
break_continue,html.Screen,4_140_2,2023-11-01T00:18:47.356Z,,0,,,NaN,,,,,,false,,,,2087907.0000000002,2087907.0000000002,,2087907.0000000002,,2087933,8,400,,,
sequence,flow.Sequence,4_140,2023-11-01T00:18:47.357Z,,0,,,3140.000000000233,completion,,,,,false,,,,2087908,2087907.0000000002,2084752,2084746.9999999998,2084767,2087933,8,400,,,
trial,html.Screen,4_141_0,2023-11-01T00:18:51.036Z,,0,3,,3669.000000000233,response,ISIC_0011931.JPG,5,ISIC_0062208.JPG,ISIC_0011931.JPG,false,1,keypress(m),500,2091587,2091586.0000000002,2087917,2087908,2087933,2091617,8,400,42,,ISIC_0062208.JPG
break,html.Screen,4_141_1,2023-11-01T00:18:51.038Z,,0,,,NaN,,,,,,false,,,,2091589,2091588.0000000002,,2091587,,2091617,8,400,,,
break_continue,html.Screen,4_141_2,2023-11-01T00:18:51.038Z,,0,,,NaN,,,,,,false,,,,2091590.0000000002,2091589,,2091589,,2091617,8,400,,,
sequence,flow.Sequence,4_141,2023-11-01T00:18:51.039Z,,0,,,3656,completion,,,,,false,,,,2091590.0000000002,2091589,2087917,2087908,2087933,2091617,8,400,,,
trial,html.Screen,4_142_0,2023-11-01T00:18:54.514Z,,0,3,,3465,response,ISIC_7562175.JPG,5,ISIC_0031293.JPG,ISIC_0031293.JPG,false,0,keypress(z),500,2095065,2095065,2091600,2091590.0000000002,2091617,2095100,8,400,43,,ISIC_7562175.JPG
break,html.Screen,4_142_1,2023-11-01T00:18:54.516Z,,0,,,NaN,,,,,,false,,,,2095067,2095067,,2095066.0000000002,,2095100,8,400,,,
break_continue,html.Screen,4_142_2,2023-11-01T00:18:54.516Z,,0,,,NaN,,,,,,false,,,,2095068.0000000002,2095067,,2095067,,2095100,8,400,,,
sequence,flow.Sequence,4_142,2023-11-01T00:18:54.517Z,,0,,,3450,completion,,,,,false,,,,2095068.0000000002,2095067,2091600,2091590.0000000002,2091617,2095100,8,400,,,
trial,html.Screen,4_143_0,2023-11-01T00:19:00.500Z,,0,3,,5967,response,ISIC_0000146.JPG,10,ISIC_0028018.JPG,ISIC_0028018.JPG,false,0,keypress(z),500,2101051,2101050,2095083,2095068.0000000002,2095100,2101082,8,400,44,,ISIC_0000146.JPG
break,html.Screen,4_143_1,2023-11-01T00:19:00.502Z,,0,,,NaN,,,,,,false,,,,2101053,2101052,,2101051,,2101082,8,400,,,
break_continue,html.Screen,4_143_2,2023-11-01T00:19:00.502Z,,0,,,NaN,,,,,,false,,,,2101053,2101053,,2101053,,2101082,8,400,,,
sequence,flow.Sequence,4_143,2023-11-01T00:19:00.502Z,,0,,,5953,completion,,,,,false,,,,2101054,2101053,2095083,2095068.0000000002,2095100,2101082,8,400,,,
trial,html.Screen,4_144_0,2023-11-01T00:19:04.045Z,,0,3,,3529,response,ISIC_0032603.JPG,8,ISIC_0011446.JPG,ISIC_0032603.JPG,false,1,keypress(m),500,2104596,2104596,2101067,2101054,2101082,2104633,8,400,45,,ISIC_0011446.JPG
break,html.Screen,4_144_1,2023-11-01T00:19:04.047Z,,0,,,NaN,,,,,,false,,,,2104598,2104598,,2104597,,2104633,8,400,,,
break_continue,html.Screen,4_144_2,2023-11-01T00:19:04.047Z,,0,,,NaN,,,,,,false,,,,2104599,2104598,,2104598,,2104633,8,400,,,
sequence,flow.Sequence,4_144,2023-11-01T00:19:04.048Z,,0,,,3516,completion,,,,,false,,,,2104599,2104598,2101067,2101054,2101082,2104633,8,400,,,
trial,html.Screen,4_145_0,2023-11-01T00:19:07.617Z,,0,3,,3552,response,ISIC_0031741.JPG,13,ISIC_0008774.JPG,ISIC_0031741.JPG,false,1,keypress(m),500,2108169,2108168,2104616,2104599,2104633,2108200,8,400,46,,ISIC_0008774.JPG
break,html.Screen,4_145_1,2023-11-01T00:19:07.619Z,,0,,,NaN,,,,,,false,,,,2108170,2108170,,2108169,,2108200,8,400,,,
break_continue,html.Screen,4_145_2,2023-11-01T00:19:07.620Z,,0,,,NaN,,,,,,false,,,,2108171,2108171,,2108170,,2108200,8,400,,,
sequence,flow.Sequence,4_145,2023-11-01T00:19:07.620Z,,0,,,3538,completion,,,,,false,,,,2108171,2108171,2104616,2104599,2104633,2108200,8,400,,,
trial,html.Screen,4_146_0,2023-11-01T00:19:11.062Z,,0,3,,3430,response,ISIC_9095975.JPG,7,ISIC_3439215.JPG,ISIC_9095975.JPG,false,1,keypress(m),500,2111613,2111613,2108183,2108171,2108200,2111650,8,400,47,,ISIC_3439215.JPG
break,html.Screen,4_146_1,2023-11-01T00:19:11.064Z,,0,,,NaN,,,,,,false,,,,2111615.0000000005,2111615.0000000005,,2111614,,2111650,8,400,,,
break_continue,html.Screen,4_146_2,2023-11-01T00:19:11.064Z,,0,,,NaN,,,,,,false,,,,2111616,2111615.0000000005,,2111615.0000000005,,2111650,8,400,,,
sequence,flow.Sequence,4_146,2023-11-01T00:19:11.065Z,,0,,,3415.0000000004657,completion,,,,,false,,,,2111616,2111615.0000000005,2108183,2108171,2108200,2111650,8,400,,,
trial,html.Screen,4_147_0,2023-11-01T00:19:14.425Z,,0,3,,3342,response,ISIC_0014922.JPG,13,ISIC_0030501.JPG,ISIC_0030501.JPG,false,0,keypress(z),500,2114976,2114975,2111633,2111616,2111650,2115000,8,400,48,,ISIC_0014922.JPG
break,html.Screen,4_147_1,2023-11-01T00:19:14.426Z,,0,,,NaN,,,,,,false,,,,2114978,2114977,,2114976,,2115000,8,400,,,
break_continue,html.Screen,4_147_2,2023-11-01T00:19:14.427Z,,0,,,NaN,,,,,,false,,,,2114978,2114978,,2114978,,2115000,8,400,,,
sequence,flow.Sequence,4_147,2023-11-01T00:19:14.427Z,,0,,,3328,completion,,,,,false,,,,2114979.0000000005,2114978,2111633,2111616,2111650,2115000,8,400,,,
trial,html.Screen,4_148_0,2023-11-01T00:19:17.267Z,,0,3,,2834,response,ISIC_3049506.JPG,0,ISIC_0839675.JPG,ISIC_3049506.JPG,false,1,keypress(m),500,2117818,2117817,2114983,2114979.0000000005,2115000,2117850,8,400,49,,ISIC_0839675.JPG
break,html.Screen,4_148_1,2023-11-01T00:19:17.268Z,,0,,,NaN,,,,,,false,,,,2117819,2117819,,2117818,,2117850,8,400,,,
break_continue,html.Screen,4_148_2,2023-11-01T00:19:17.269Z,,0,,,NaN,,,,,,false,,,,2117820,2117820,,2117820,,2117850,8,400,,,
sequence,flow.Sequence,4_148,2023-11-01T00:19:17.269Z,,0,,,2820,completion,,,,,false,,,,2117820,2117820,2114983,2114979.0000000005,2115000,2117850,8,400,,,
trial,html.Screen,4_149_0,2023-11-01T00:19:20.137Z,,0,3,,2855,response,ISIC_0000150.JPG,3,ISIC_0000065.JPG,ISIC_0000150.JPG,false,1,keypress(m),500,2120688,2120688,2117833,2117820,2117850,2120716,8,400,50,,ISIC_0000065.JPG
break,html.Screen,4_149_1,2023-11-01T00:19:30.149Z,,0,,,10000,timeout,,,,,false,,,,2130700,2130700,2120699,2120689,2120716,2130716,8,400,,,
break_continue,html.Screen,4_149_2,2023-11-01T00:24:06.899Z,,0,,,276730,response,,,,,false,continue,keypress(Space),,2407451,2407430,2130700,2130701,2130716,2407489,8,400,,,
sequence,flow.Sequence,4_149,2023-11-01T00:24:06.900Z,,0,,,289580,completion,,,,,false,,,,2407452,2407430,2117833,2117820,2117850,2407489,8,400,,,
trial,html.Screen,4_150_0,2023-11-01T00:24:10.211Z,,0,4,,3298,response,ISIC_4034644.JPG,8,ISIC_0067891.JPG,ISIC_4034644.JPG,false,1,keypress(m),500,2410763,2410763,2407465,2407452,2407489,2410798,8,400,1,,ISIC_0067891.JPG
break,html.Screen,4_150_1,2023-11-01T00:24:10.213Z,,0,,,NaN,,,,,,false,,,,2410765,2410765,,2410764,,2410798,8,400,,,
break_continue,html.Screen,4_150_2,2023-11-01T00:24:10.214Z,,0,,,NaN,,,,,,false,,,,2410766,2410766,,2410766,,2410798,8,400,,,
sequence,flow.Sequence,4_150,2023-11-01T00:24:10.214Z,,0,,,3277,completion,,,,,false,,,,2410766,2410766,2407465,2407452,2407489,2410798,8,400,,,
trial,html.Screen,4_151_0,2023-11-01T00:24:13.188Z,,0,4,,2957,response,ISIC_8419663.JPG,11,ISIC_0028472.JPG,ISIC_0028472.JPG,false,0,keypress(z),500,2413740.0000000005,2413739,2410782,2410766,2410798,2413765,8,400,2,,ISIC_8419663.JPG
break,html.Screen,4_151_1,2023-11-01T00:24:13.189Z,,0,,,NaN,,,,,,false,,,,2413741,2413741,,2413740.0000000005,,2413765,8,400,,,
break_continue,html.Screen,4_151_2,2023-11-01T00:24:13.189Z,,0,,,NaN,,,,,,false,,,,2413742,2413742,,2413741,,2413765,8,400,,,
sequence,flow.Sequence,4_151,2023-11-01T00:24:13.190Z,,0,,,2944,completion,,,,,false,,,,2413742,2413742,2410782,2410766,2410798,2413765,8,400,,,
trial,html.Screen,4_152_0,2023-11-01T00:24:17.015Z,,0,4,,3819,response,ISIC_0010860.JPG,2,ISIC_0061491.JPG,ISIC_0010860.JPG,false,1,keypress(m),500,2417568,2417567,2413748,2413742,2413765,2417598,8,400,3,,ISIC_0061491.JPG
break,html.Screen,4_152_1,2023-11-01T00:24:17.017Z,,0,,,NaN,,,,,,false,,,,2417570,2417569,,2417568,,2417598,8,400,,,
break_continue,html.Screen,4_152_2,2023-11-01T00:24:17.018Z,,0,,,NaN,,,,,,false,,,,2417570,2417570,,2417570,,2417598,8,400,,,
sequence,flow.Sequence,4_152,2023-11-01T00:24:17.018Z,,0,,,3805,completion,,,,,false,,,,2417570,2417570,2413748,2413742,2413765,2417598,8,400,,,
trial,html.Screen,4_153_0,2023-11-01T00:24:20.411Z,,0,4,,3380,response,ISIC_0056425.JPG,6,ISIC_0010349.JPG,ISIC_0010349.JPG,false,0,keypress(z),500,2420963,2420962,2417582,2417571,2417598,2420981,8,400,4,,ISIC_0056425.JPG
break,html.Screen,4_153_1,2023-11-01T00:24:20.412Z,,0,,,NaN,,,,,,false,,,,2420964,2420964,,2420963,,2420981,8,400,,,
break_continue,html.Screen,4_153_2,2023-11-01T00:24:20.413Z,,0,,,NaN,,,,,,false,,,,2420965,2420965,,2420965,,2420981,8,400,,,
sequence,flow.Sequence,4_153,2023-11-01T00:24:20.413Z,,0,,,3367,completion,,,,,false,,,,2420965,2420965,2417582,2417571,2417598,2420981,8,400,,,
trial,html.Screen,4_154_0,2023-11-01T00:24:24.967Z,,0,4,,4550,response,ISIC_3338629.JPG,11,ISIC_9050608.JPG,ISIC_9050608.JPG,false,0,keypress(z),500,2425519,2425519,2420969,2420965,2420981,2425548,8,400,5,,ISIC_3338629.JPG
break,html.Screen,4_154_1,2023-11-01T00:24:24.969Z,,0,,,NaN,,,,,,false,,,,2425521,2425521,,2425520,,2425548,8,400,,,
break_continue,html.Screen,4_154_2,2023-11-01T00:24:24.969Z,,0,,,NaN,,,,,,false,,,,2425522,2425521,,2425521,,2425548,8,400,,,
sequence,flow.Sequence,4_154,2023-11-01T00:24:24.970Z,,0,,,4540,completion,,,,,false,,,,2425522,2425521,2420969,2420965,2420981,2425548,8,400,,,
trial,html.Screen,4_155_0,2023-11-01T00:24:28.112Z,,0,4,,3133,response,ISIC_0026518.JPG,5,ISIC_5237059.JPG,ISIC_0026518.JPG,false,1,keypress(m),500,2428664,2428664,2425531,2425522,2425548,2428698,8,400,6,,ISIC_5237059.JPG
break,html.Screen,4_155_1,2023-11-01T00:24:28.114Z,,0,,,NaN,,,,,,false,,,,2428666,2428666,,2428665,,2428698,8,400,,,
break_continue,html.Screen,4_155_2,2023-11-01T00:24:28.115Z,,0,,,NaN,,,,,,false,,,,2428667,2428667,,2428667,,2428698,8,400,,,
