sender,sender_type,sender_id,timestamp,meta,,blockNo,condition,duration,ended_on,img_left,img_reveal,img_right,loser,practice,response,response_action,selection_duration,time_commit,time_end,time_render,time_run,time_show,time_switch,total_blocks,total_trials,trialNo,url,winner
informed_consent,html.Screen,0,2023-09-06T19:52:31.700Z,"{""labjs_version"":""20.2.4"",""labjs_build"":{""flavor"":""production"",""commit"":""f5b4a49f956347addd546a832a3327688c2c0fef""},""location"":""https://run.pavlovia.org/MurrayBennett/melanoma-2afc/?participant={{%PROLIFIC_PID%}}&STUDY_ID={{%STUDY_ID%}}&SESSION_ID={{%SESSION_ID%}}&platform=prolific"",""userAgent"":""Mozilla/5.0 (Windows NT 10.0; Win64; x64; rv:109.0) Gecko/20100101 Firefox/117.0"",""platform"":""Win32"",""language"":""en-US"",""locale"":""en-US"",""timeZone"":""America/Chicago"",""timezoneOffset"":300,""screen_width"":1680,""screen_height"":1050,""scroll_width"":1680,""scroll_height"":849,""window_innerWidth"":1680,""window_innerHeight"":897,""devicePixelRatio"":1}",,,,6696.9,response,,,,,,consent,click button,,8859,8840,2126.4,2119,2143.1,8872.92,,,,"{""participant"":""{{%PROLIFIC_PID%}}"",""STUDY_ID"":""{{%STUDY_ID%}}"",""SESSION_ID"":""{{%SESSION_ID%}}"",""platform"":""prolific""}",
Welcome,html.Screen,1,2023-09-06T20:00:33.890Z,,,,colourful,482156.08,response,,,,,,continue,click button,,491043,491029,8857.96,8860,8872.92,491044.48,,,,,
trial,html.Screen,2_0_0,2023-09-06T20:00:37.015Z,,0,0,,3124.5200000000186,response,ISIC_0025593.JPG,,ISIC_0063388.JPG,ISIC_0063388.JPG,true,0,keypress(z),500,494169,494169,491042.26,491044,491044.48,494170.26,1,6,1,,ISIC_0025593.JPG
sequence,flow.Sequence,2_0,2023-09-06T20:00:37.016Z,,0,,,3124.5200000000186,completion,,,,,true,,,,494170,494169,491042.26,491044,491044.48,494170.26,1,6,,,
trial,html.Screen,2_1_0,2023-09-06T20:00:42.478Z,,0,0,,5460.739999999991,response,ISIC_0028178.JPG,,ISIC_1309015.JPG,ISIC_1309015.JPG,true,0,keypress(z),500,499631,499631,494169.8,494170,494170.26,499631.62,1,6,2,,ISIC_0028178.JPG
sequence,flow.Sequence,2_1,2023-09-06T20:00:42.478Z,,0,,,5460.739999999991,completion,,,,,true,,,,499632,499631,494169.8,494170,494170.26,499631.62,1,6,,,
trial,html.Screen,2_2_0,2023-09-06T20:00:49.825Z,,0,0,,7346.380000000005,response,ISIC_0031128.JPG,,ISIC_3314853.JPG,ISIC_3314853.JPG,true,0,keypress(z),500,506978,506978,499631.5,499632,499631.62,506979.74,1,6,3,,ISIC_0031128.JPG
sequence,flow.Sequence,2_2,2023-09-06T20:00:49.826Z,,0,,,7346.380000000005,completion,,,,,true,,,,506979,506978,499631.5,499632,499631.62,506979.74,1,6,,,
trial,html.Screen,2_3_0,2023-09-06T20:00:53.462Z,,0,0,,3634.2600000000093,response,ISIC_0031612.JPG,,ISIC_8980141.JPG,ISIC_0031612.JPG,true,1,keypress(m),500,510614,510614,506979.34,506979,506979.74,510616.62,1,6,4,,ISIC_8980141.JPG
sequence,flow.Sequence,2_3,2023-09-06T20:00:53.462Z,,0,,,3634.2600000000093,completion,,,,,true,,,,510615,510614,506979.34,506979,506979.74,510616.62,1,6,,,
trial,html.Screen,2_4_0,2023-09-06T20:01:03.362Z,,0,0,,9898.380000000005,response,ISIC_9721604.JPG,,ISIC_1197737.JPG,ISIC_1197737.JPG,true,0,keypress(z),500,520515,520515,510615.98,510615,510616.62,520535.14,1,6,5,,ISIC_9721604.JPG
sequence,flow.Sequence,2_4,2023-09-06T20:01:03.363Z,,0,,,9898.380000000005,completion,,,,,true,,,,520516,520515,510615.98,510615,510616.62,520535.14,1,6,,,
trial,html.Screen,2_5_0,2023-09-06T20:01:08.981Z,,0,0,,5597.859999999986,response,ISIC_0010681.JPG,,ISIC_0025346.JPG,ISIC_0010681.JPG,true,1,keypress(m),500,526134,526133,520518.44,520516,520535.14,526135.12,1,6,6,,ISIC_0025346.JPG
sequence,flow.Sequence,2_5,2023-09-06T20:01:08.981Z,,0,,,5597.859999999986,completion,,,,,true,,,,526134,526133,520518.44,520516,520535.14,526135.12,1,6,,,
loop,flow.Loop,2,2023-09-06T20:01:08.982Z,,,,,35088.52000000002,completion,,,,,true,,,,526134,526133,491042.26,491044,491044.48,526135.12,1,6,,,
exp_instructions,html.Screen,3,2023-09-06T20:01:09.927Z,,,,,940.8800000000047,response,,,,,,continue,keypress(Space),,527080,527076,526134.66,526135,526135.12,527080.84,,,,,
trial,html.Screen,4_0_0,2023-09-06T20:01:13.524Z,,0,1,,3595.1600000000326,response,ISIC_0030901.JPG,25,ISIC_5789052.JPG,ISIC_5789052.JPG,false,0,keypress(z),500,530677,530676,527080.36,527080,527080.84,530677.48,8,400,1,,ISIC_0030901.JPG
break,html.Screen,4_0_1,2023-09-06T20:01:13.525Z,,0,,,NaN,,,,,,false,,,,530678,530677,,530677,,530677.48,8,400,,,
break_continue,html.Screen,4_0_2,2023-09-06T20:01:13.526Z,,0,,,NaN,,,,,,false,,,,530679,530679,,530678,,530677.48,8,400,,,
sequence,flow.Sequence,4_0,2023-09-06T20:01:13.526Z,,0,,,3598.1600000000326,completion,,,,,false,,,,530679,530679,527080.36,527080,527080.84,530677.48,8,400,,,
trial,html.Screen,4_1_0,2023-09-06T20:01:16.380Z,,0,1,,2852.5200000000186,response,ISIC_1189461.JPG,11,ISIC_0056793.JPG,ISIC_1189461.JPG,false,1,keypress(m),500,533532,533530,530677.16,530679,530677.48,533543.9,8,400,2,,ISIC_0056793.JPG
break,html.Screen,4_1_1,2023-09-06T20:01:16.383Z,,0,,,NaN,,,,,,false,,,,533535,533535,,533534,,533543.9,8,400,,,
break_continue,html.Screen,4_1_2,2023-09-06T20:01:16.384Z,,0,,,NaN,,,,,,false,,,,533537,533537,,533537,,533543.9,8,400,,,
sequence,flow.Sequence,4_1,2023-09-06T20:01:16.385Z,,0,,,2859.5200000000186,completion,,,,,false,,,,533538,533537,530677.16,530679,530677.48,533543.9,8,400,,,
trial,html.Screen,4_2_0,2023-09-06T20:01:19.840Z,,0,1,,3448.0999999999767,response,ISIC_1403974.JPG,18,ISIC_0000304.JPG,ISIC_0000304.JPG,false,0,keypress(z),500,536993,536992,533534.22,533538,533543.9,536993.68,8,400,3,,ISIC_1403974.JPG
break,html.Screen,4_2_1,2023-09-06T20:01:19.842Z,,0,,,NaN,,,,,,false,,,,536994,536993,,536993,,536993.68,8,400,,,
break_continue,html.Screen,4_2_2,2023-09-06T20:01:19.843Z,,0,,,NaN,,,,,,false,,,,536996,536994,,536994,,536993.68,8,400,,,
sequence,flow.Sequence,4_2,2023-09-06T20:01:19.843Z,,0,,,3450.0999999999767,completion,,,,,false,,,,536996,536994,533534.22,533538,533543.9,536993.68,8,400,,,
trial,html.Screen,4_3_0,2023-09-06T20:01:22.683Z,,0,1,,2842.319999999949,response,ISIC_4445729.JPG,29,ISIC_7775535.JPG,ISIC_7775535.JPG,false,0,keypress(z),500,539836,539836,536993.14,536996,536993.68,539836.18,8,400,4,,ISIC_4445729.JPG
break,html.Screen,4_3_1,2023-09-06T20:01:22.684Z,,0,,,NaN,,,,,,false,,,,539837,539837,,539836,,539836.18,8,400,,,
break_continue,html.Screen,4_3_2,2023-09-06T20:01:22.684Z,,0,,,NaN,,,,,,false,,,,539837,539837,,539837,,539836.18,8,400,,,
sequence,flow.Sequence,4_3,2023-09-06T20:01:22.684Z,,0,,,2843.319999999949,completion,,,,,false,,,,539838,539837,536993.14,536996,536993.68,539836.18,8,400,,,
trial,html.Screen,4_4_0,2023-09-06T20:01:25.585Z,,0,1,,2900.819999999949,response,ISIC_0032892.JPG,3,ISIC_0026868.JPG,ISIC_0026868.JPG,false,0,keypress(z),500,542738,542737,539836.04,539838,539836.18,542737.9,8,400,5,,ISIC_0032892.JPG
break,html.Screen,4_4_1,2023-09-06T20:01:25.586Z,,0,,,NaN,,,,,,false,,,,542738,542738,,542738,,542737.9,8,400,,,
break_continue,html.Screen,4_4_2,2023-09-06T20:01:25.587Z,,0,,,NaN,,,,,,false,,,,542739,542739,,542738,,542737.9,8,400,,,
sequence,flow.Sequence,4_4,2023-09-06T20:01:25.587Z,,0,,,2902.819999999949,completion,,,,,false,,,,542739,542739,539836.04,539838,539836.18,542737.9,8,400,,,
trial,html.Screen,4_5_0,2023-09-06T20:01:28.245Z,,0,1,,2659.0999999999767,response,ISIC_5415749.JPG,6,ISIC_3166276.JPG,ISIC_5415749.JPG,false,1,keypress(m),500,545397,545397,542737.72,542739,542737.9,545400.3,8,400,6,,ISIC_3166276.JPG
break,html.Screen,4_5_1,2023-09-06T20:01:28.246Z,,0,,,NaN,,,,,,false,,,,545399,545399,,545397,,545400.3,8,400,,,
break_continue,html.Screen,4_5_2,2023-09-06T20:01:28.246Z,,0,,,NaN,,,,,,false,,,,545400,545399,,545399,,545400.3,8,400,,,
sequence,flow.Sequence,4_5,2023-09-06T20:01:28.247Z,,0,,,2661.0999999999767,completion,,,,,false,,,,545400,545399,542737.72,542739,542737.9,545400.3,8,400,,,
trial,html.Screen,4_6_0,2023-09-06T20:01:31.959Z,,0,1,,3710.6999999999534,response,ISIC_0062935.JPG,29,ISIC_0029339.JPG,ISIC_0029339.JPG,false,0,keypress(z),500,549112,549111,545397.64,545400,545400.3,549112.56,8,400,7,,ISIC_0062935.JPG
break,html.Screen,4_6_1,2023-09-06T20:01:31.961Z,,0,,,NaN,,,,,,false,,,,549114,549113,,549112,,549112.56,8,400,,,
break_continue,html.Screen,4_6_2,2023-09-06T20:01:31.962Z,,0,,,NaN,,,,,,false,,,,549115,549114,,549114,,549112.56,8,400,,,
sequence,flow.Sequence,4_6,2023-09-06T20:01:31.962Z,,0,,,3713.6999999999534,completion,,,,,false,,,,549115,549114,545397.64,545400,545400.3,549112.56,8,400,,,
trial,html.Screen,4_7_0,2023-09-06T20:01:35.031Z,,0,1,,3070.439999999944,response,ISIC_2585066.JPG,23,ISIC_0011114.JPG,ISIC_2585066.JPG,false,1,keypress(m),500,552184,552183,549112.16,549115,549112.56,552184.56,8,400,8,,ISIC_0011114.JPG
break,html.Screen,4_7_1,2023-09-06T20:01:35.033Z,,0,,,NaN,,,,,,false,,,,552185,552185,,552184,,552184.56,8,400,,,
break_continue,html.Screen,4_7_2,2023-09-06T20:01:35.033Z,,0,,,NaN,,,,,,false,,,,552186,552186,,552185,,552184.56,8,400,,,
sequence,flow.Sequence,4_7,2023-09-06T20:01:35.034Z,,0,,,3073.439999999944,completion,,,,,false,,,,552186,552186,549112.16,549115,549112.56,552184.56,8,400,,,
trial,html.Screen,4_8_0,2023-09-06T20:01:37.841Z,,0,1,,2807.439999999944,response,ISIC_8617277.JPG,0,ISIC_7484618.JPG,ISIC_7484618.JPG,false,0,keypress(z),500,554993,554992,552184.12,552186,552184.56,554994.08,8,400,9,,ISIC_8617277.JPG
break,html.Screen,4_8_1,2023-09-06T20:01:37.842Z,,0,,,NaN,,,,,,false,,,,554994,554994,,554993,,554994.08,8,400,,,
break_continue,html.Screen,4_8_2,2023-09-06T20:01:37.843Z,,0,,,NaN,,,,,,false,,,,554995,554995,,554995,,554994.08,8,400,,,
sequence,flow.Sequence,4_8,2023-09-06T20:01:37.844Z,,0,,,2810.439999999944,completion,,,,,false,,,,554995,554995,552184.12,552186,552184.56,554994.08,8,400,,,
trial,html.Screen,4_9_0,2023-09-06T20:01:41.139Z,,0,1,,3296.920000000042,response,ISIC_1113629.JPG,17,ISIC_5581297.JPG,ISIC_5581297.JPG,false,0,keypress(z),500,558291,558291,554993.56,554996,554994.08,558291.94,8,400,10,,ISIC_1113629.JPG
break,html.Screen,4_9_1,2023-09-06T20:01:41.141Z,,0,,,NaN,,,,,,false,,,,558292,558292,,558292,,558291.94,8,400,,,
break_continue,html.Screen,4_9_2,2023-09-06T20:01:41.141Z,,0,,,NaN,,,,,,false,,,,558293,558293,,558293,,558291.94,8,400,,,
sequence,flow.Sequence,4_9,2023-09-06T20:01:41.142Z,,0,,,3298.920000000042,completion,,,,,false,,,,558293,558293,554993.56,554996,554994.08,558291.94,8,400,,,
trial,html.Screen,4_10_0,2023-09-06T20:01:45.915Z,,0,1,,4774.060000000056,response,ISIC_7104307.JPG,5,ISIC_2147549.JPG,ISIC_7104307.JPG,false,1,keypress(m),500,563066,563066,558291.44,558294,558291.94,563067.14,8,400,11,,ISIC_2147549.JPG
break,html.Screen,4_10_1,2023-09-06T20:01:45.916Z,,0,,,NaN,,,,,,false,,,,563068,563067,,563066,,563067.14,8,400,,,
break_continue,html.Screen,4_10_2,2023-09-06T20:01:45.917Z,,0,,,NaN,,,,,,false,,,,563068,563068,,563068,,563067.14,8,400,,,
sequence,flow.Sequence,4_10,2023-09-06T20:01:45.917Z,,0,,,4776.060000000056,completion,,,,,false,,,,563069,563068,558291.44,558294,558291.94,563067.14,8,400,,,
trial,html.Screen,4_11_0,2023-09-06T20:01:48.637Z,,0,1,,2720.859999999986,response,ISIC_5737704.JPG,8,ISIC_3336353.JPG,ISIC_3336353.JPG,false,0,keypress(z),500,565788,565788,563066.62,563069,563067.14,565789.08,8,400,12,,ISIC_5737704.JPG
break,html.Screen,4_11_1,2023-09-06T20:01:48.638Z,,0,,,NaN,,,,,,false,,,,565789,565789,,565788,,565789.08,8,400,,,
break_continue,html.Screen,4_11_2,2023-09-06T20:01:48.639Z,,0,,,NaN,,,,,,false,,,,565791,565791,,565791,,565789.08,8,400,,,
sequence,flow.Sequence,4_11,2023-09-06T20:01:48.639Z,,0,,,2723.859999999986,completion,,,,,false,,,,565791,565791,563066.62,563069,563067.14,565789.08,8,400,,,
trial,html.Screen,4_12_0,2023-09-06T20:01:51.287Z,,0,1,,2648.920000000042,response,ISIC_8647900.JPG,26,ISIC_0010235.JPG,ISIC_8647900.JPG,false,1,keypress(m),500,568439,568438,565788.64,565791,565789.08,568445.18,8,400,13,,ISIC_0010235.JPG
break,html.Screen,4_12_1,2023-09-06T20:01:51.289Z,,0,,,NaN,,,,,,false,,,,568441,568440,,568439,,568445.18,8,400,,,
break_continue,html.Screen,4_12_2,2023-09-06T20:01:51.290Z,,0,,,NaN,,,,,,false,,,,568442,568441,,568441,,568445.18,8,400,,,
sequence,flow.Sequence,4_12,2023-09-06T20:01:51.290Z,,0,,,2651.920000000042,completion,,,,,false,,,,568442,568441,565788.64,565791,565789.08,568445.18,8,400,,,
trial,html.Screen,4_13_0,2023-09-06T20:01:54.212Z,,0,1,,2918.819999999949,response,ISIC_5218530.JPG,16,ISIC_0013777.JPG,ISIC_0013777.JPG,false,0,keypress(z),500,571364,571364,568439.28,568442,568445.18,571364.36,8,400,14,,ISIC_5218530.JPG
break,html.Screen,4_13_1,2023-09-06T20:01:54.213Z,,0,,,NaN,,,,,,false,,,,571364,571364,,571364,,571364.36,8,400,,,
break_continue,html.Screen,4_13_2,2023-09-06T20:01:54.213Z,,0,,,NaN,,,,,,false,,,,571365,571365,,571365,,571364.36,8,400,,,
sequence,flow.Sequence,4_13,2023-09-06T20:01:54.213Z,,0,,,2919.819999999949,completion,,,,,false,,,,571365,571365,568439.28,568442,568445.18,571364.36,8,400,,,
trial,html.Screen,4_14_0,2023-09-06T20:01:57.343Z,,0,1,,3130.640000000014,response,ISIC_0024585.JPG,25,ISIC_0046345.JPG,ISIC_0024585.JPG,false,1,keypress(m),500,574495,574495,571364.06,571365,571364.36,574495.4,8,400,15,,ISIC_0046345.JPG
break,html.Screen,4_14_1,2023-09-06T20:01:57.344Z,,0,,,NaN,,,,,,false,,,,574496,574495,,574495,,574495.4,8,400,,,
break_continue,html.Screen,4_14_2,2023-09-06T20:01:57.344Z,,0,,,NaN,,,,,,false,,,,574496,574496,,574496,,574495.4,8,400,,,
sequence,flow.Sequence,4_14,2023-09-06T20:01:57.344Z,,0,,,3131.640000000014,completion,,,,,false,,,,574496,574496,571364.06,571365,571364.36,574495.4,8,400,,,
trial,html.Screen,4_15_0,2023-09-06T20:02:00.334Z,,0,1,,2989.5999999999767,response,ISIC_3300710.JPG,29,ISIC_0000414.JPG,ISIC_3300710.JPG,false,1,keypress(m),500,577486,577485,574495.06,574496,574495.4,577486.56,8,400,16,,ISIC_0000414.JPG
break,html.Screen,4_15_1,2023-09-06T20:02:00.335Z,,0,,,NaN,,,,,,false,,,,577487,577486,,577486,,577486.56,8,400,,,
break_continue,html.Screen,4_15_2,2023-09-06T20:02:00.336Z,,0,,,NaN,,,,,,false,,,,577488,577487,,577487,,577486.56,8,400,,,
sequence,flow.Sequence,4_15,2023-09-06T20:02:00.336Z,,0,,,2991.5999999999767,completion,,,,,false,,,,577488,577487,574495.06,574496,574495.4,577486.56,8,400,,,
trial,html.Screen,4_16_0,2023-09-06T20:02:03.992Z,,0,1,,3656.439999999944,response,ISIC_0034022.JPG,17,ISIC_8176449.JPG,ISIC_0034022.JPG,false,1,keypress(m),500,581144,581143,577485.92,577488,577486.56,581144.22,8,400,17,,ISIC_8176449.JPG
break,html.Screen,4_16_1,2023-09-06T20:02:03.993Z,,0,,,NaN,,,,,,false,,,,581145,581144,,581144,,581144.22,8,400,,,
break_continue,html.Screen,4_16_2,2023-09-06T20:02:03.994Z,,0,,,NaN,,,,,,false,,,,581145,581145,,581145,,581144.22,8,400,,,
sequence,flow.Sequence,4_16,2023-09-06T20:02:03.994Z,,0,,,3658.439999999944,completion,,,,,false,,,,581146,581145,577485.92,577488,577486.56,581144.22,8,400,,,
trial,html.Screen,4_17_0,2023-09-06T20:02:07.865Z,,0,1,,3870.780000000028,response,ISIC_0013059.JPG,3,ISIC_9358630.JPG,ISIC_0013059.JPG,false,1,keypress(m),500,585016,585015,581143.7,581146,581144.22,585016.62,8,400,18,,ISIC_9358630.JPG
break,html.Screen,4_17_1,2023-09-06T20:02:07.866Z,,0,,,NaN,,,,,,false,,,,585017,585016,,585016,,585016.62,8,400,,,
break_continue,html.Screen,4_17_2,2023-09-06T20:02:07.867Z,,0,,,NaN,,,,,,false,,,,585018,585018,,585018,,585016.62,8,400,,,
sequence,flow.Sequence,4_17,2023-09-06T20:02:07.867Z,,0,,,3873.780000000028,completion,,,,,false,,,,585018,585018,581143.7,581146,581144.22,585016.62,8,400,,,
trial,html.Screen,4_18_0,2023-09-06T20:02:11.767Z,,0,1,,3900.3800000000047,response,ISIC_2616327.JPG,23,ISIC_8872225.JPG,ISIC_8872225.JPG,false,0,keypress(z),500,588918,588917,585016.18,585018,585016.62,588918.18,8,400,19,,ISIC_2616327.JPG
break,html.Screen,4_18_1,2023-09-06T20:02:11.768Z,,0,,,NaN,,,,,,false,,,,588918,588918,,588918,,588918.18,8,400,,,
break_continue,html.Screen,4_18_2,2023-09-06T20:02:11.768Z,,0,,,NaN,,,,,,false,,,,588918,588918,,588918,,588918.18,8,400,,,
sequence,flow.Sequence,4_18,2023-09-06T20:02:11.768Z,,0,,,3901.3800000000047,completion,,,,,false,,,,588918,588918,585016.18,585018,585016.62,588918.18,8,400,,,
trial,html.Screen,4_19_0,2023-09-06T20:02:15.143Z,,0,1,,3375.819999999949,response,ISIC_0064559.JPG,0,ISIC_0060946.JPG,ISIC_0064559.JPG,false,1,keypress(m),500,592294,592294,588917.82,588918,588918.18,592324.78,8,400,20,,ISIC_0060946.JPG
break,html.Screen,4_19_1,2023-09-06T20:02:15.144Z,,0,,,NaN,,,,,,false,,,,592294,592294,,592294,,592324.78,8,400,,,
break_continue,html.Screen,4_19_2,2023-09-06T20:02:15.144Z,,0,,,NaN,,,,,,false,,,,592295,592295,,592294,,592324.78,8,400,,,
sequence,flow.Sequence,4_19,2023-09-06T20:02:15.144Z,,0,,,3376.819999999949,completion,,,,,false,,,,592295,592295,588917.82,588918,588918.18,592324.78,8,400,,,
trial,html.Screen,4_20_0,2023-09-06T20:02:23.323Z,,0,1,,8147.219999999972,response,ISIC_0069361.JPG,8,ISIC_5482805.JPG,ISIC_5482805.JPG,false,0,keypress(z),500,600474,600472,592308.08,592295,592324.78,600490.68,8,400,21,,ISIC_0069361.JPG
break,html.Screen,4_20_1,2023-09-06T20:02:23.327Z,,0,,,NaN,,,,,,false,,,,600477,600477,,600476,,600490.68,8,400,,,
break_continue,html.Screen,4_20_2,2023-09-06T20:02:23.328Z,,0,,,NaN,,,,,,false,,,,600478,600478,,600478,,600490.68,8,400,,,
sequence,flow.Sequence,4_20,2023-09-06T20:02:23.328Z,,0,,,8153.219999999972,completion,,,,,false,,,,600480,600478,592308.08,592295,592324.78,600490.68,8,400,,,
trial,html.Screen,4_21_0,2023-09-06T20:02:26.739Z,,0,1,,3400.319999999949,response,ISIC_0030237.JPG,2,ISIC_0057716.JPG,ISIC_0030237.JPG,false,1,keypress(m),500,603891,603891,600473.98,600480,600490.68,603891.28,8,400,22,,ISIC_0057716.JPG
break,html.Screen,4_21_1,2023-09-06T20:02:26.740Z,,0,,,NaN,,,,,,false,,,,603891,603891,,603891,,603891.28,8,400,,,
break_continue,html.Screen,4_21_2,2023-09-06T20:02:26.740Z,,0,,,NaN,,,,,,false,,,,603892,603892,,603892,,603891.28,8,400,,,
sequence,flow.Sequence,4_21,2023-09-06T20:02:26.741Z,,0,,,3401.319999999949,completion,,,,,false,,,,603892,603892,600473.98,600480,600490.68,603891.28,8,400,,,
trial,html.Screen,4_22_0,2023-09-06T20:02:31.492Z,,0,1,,4750.719999999972,response,ISIC_0000153.JPG,8,ISIC_0060154.JPG,ISIC_0000153.JPG,false,1,keypress(m),500,608643,608642,603890.74,603892,603891.28,608643.92,8,400,23,,ISIC_0060154.JPG
break,html.Screen,4_22_1,2023-09-06T20:02:31.494Z,,0,,,NaN,,,,,,false,,,,608644,608644,,608643,,608643.92,8,400,,,
break_continue,html.Screen,4_22_2,2023-09-06T20:02:31.495Z,,0,,,NaN,,,,,,false,,,,608646,608645,,608645,,608643.92,8,400,,,
sequence,flow.Sequence,4_22,2023-09-06T20:02:31.495Z,,0,,,4753.719999999972,completion,,,,,false,,,,608646,608645,603890.74,603892,603891.28,608643.92,8,400,,,
trial,html.Screen,4_23_0,2023-09-06T20:02:37.576Z,,0,1,,6083.079999999958,response,ISIC_6384906.JPG,14,ISIC_0002675.JPG,ISIC_0002675.JPG,false,0,keypress(z),500,614728,614727,608643.44,608647,608643.92,614751.82,8,400,24,,ISIC_6384906.JPG
break,html.Screen,4_23_1,2023-09-06T20:02:37.578Z,,0,,,NaN,,,,,,false,,,,614728,614728,,614728,,614751.82,8,400,,,
break_continue,html.Screen,4_23_2,2023-09-06T20:02:37.578Z,,0,,,NaN,,,,,,false,,,,614728,614728,,614728,,614751.82,8,400,,,
sequence,flow.Sequence,4_23,2023-09-06T20:02:37.578Z,,0,,,6084.079999999958,completion,,,,,false,,,,614728,614728,608643.44,608647,608643.92,614751.82,8,400,,,
trial,html.Screen,4_24_0,2023-09-06T20:02:44.294Z,,0,1,,6692.180000000051,response,ISIC_6038490.JPG,24,ISIC_6089318.JPG,ISIC_6038490.JPG,false,1,keypress(m),500,621445,621444,614735.12,614728,614751.82,621448.18,8,400,25,,ISIC_6089318.JPG
break,html.Screen,4_24_1,2023-09-06T20:02:44.295Z,,0,,,NaN,,,,,,false,,,,621446,621446,,621445,,621448.18,8,400,,,
break_continue,html.Screen,4_24_2,2023-09-06T20:02:44.296Z,,0,,,NaN,,,,,,false,,,,621448,621446,,621446,,621448.18,8,400,,,
sequence,flow.Sequence,4_24,2023-09-06T20:02:44.298Z,,0,,,6694.180000000051,completion,,,,,false,,,,621448,621446,614735.12,614728,614751.82,621448.18,8,400,,,
trial,html.Screen,4_25_0,2023-09-06T20:02:50.010Z,,0,1,,5711.819999999949,response,ISIC_0000523.JPG,10,ISIC_0000555.JPG,ISIC_0000555.JPG,false,0,keypress(z),500,627160,627160,621444.96,621448,621448.18,627160.84,8,400,26,,ISIC_0000523.JPG
break,html.Screen,4_25_1,2023-09-06T20:02:50.011Z,,0,,,NaN,,,,,,false,,,,627162,627161,,627160,,627160.84,8,400,,,
break_continue,html.Screen,4_25_2,2023-09-06T20:02:50.011Z,,0,,,NaN,,,,,,false,,,,627162,627162,,627162,,627160.84,8,400,,,
sequence,flow.Sequence,4_25,2023-09-06T20:02:50.012Z,,0,,,5713.819999999949,completion,,,,,false,,,,627162,627162,621444.96,621448,621448.18,627160.84,8,400,,,
trial,html.Screen,4_26_0,2023-09-06T20:02:53.680Z,,0,1,,3668.1600000000326,response,ISIC_0000507.JPG,13,ISIC_7586566.JPG,ISIC_7586566.JPG,false,0,keypress(z),500,630829,630829,627160.52,627162,627160.84,630833.16,8,400,27,,ISIC_0000507.JPG
break,html.Screen,4_26_1,2023-09-06T20:02:53.680Z,,0,,,NaN,,,,,,false,,,,630830,630830,,630829,,630833.16,8,400,,,
break_continue,html.Screen,4_26_2,2023-09-06T20:02:53.681Z,,0,,,NaN,,,,,,false,,,,630831,630830,,630830,,630833.16,8,400,,,
sequence,flow.Sequence,4_26,2023-09-06T20:02:53.681Z,,0,,,3669.1600000000326,completion,,,,,false,,,,630831,630830,627160.52,627162,627160.84,630833.16,8,400,,,
trial,html.Screen,4_27_0,2023-09-06T20:02:56.558Z,,0,1,,2874.8399999999674,response,ISIC_0030704.JPG,10,ISIC_0028022.JPG,ISIC_0030704.JPG,false,1,keypress(m),500,633708,633708,630829.7,630831,630833.16,633708.72,8,400,28,,ISIC_0028022.JPG
break,html.Screen,4_27_1,2023-09-06T20:02:56.559Z,,0,,,NaN,,,,,,false,,,,633709,633709,,633709,,633708.72,8,400,,,
break_continue,html.Screen,4_27_2,2023-09-06T20:02:56.559Z,,0,,,NaN,,,,,,false,,,,633709,633709,,633709,,633708.72,8,400,,,
sequence,flow.Sequence,4_27,2023-09-06T20:02:56.559Z,,0,,,2875.8399999999674,completion,,,,,false,,,,633709,633709,630829.7,630831,630833.16,633708.72,8,400,,,
trial,html.Screen,4_28_0,2023-09-06T20:03:00.255Z,,0,1,,3695.280000000028,response,ISIC_0024656.JPG,28,ISIC_0031015.JPG,ISIC_0024656.JPG,false,1,keypress(m),500,637404,637404,633708.44,633709,633708.72,637405.6,8,400,29,,ISIC_0031015.JPG
break,html.Screen,4_28_1,2023-09-06T20:03:00.256Z,,0,,,NaN,,,,,,false,,,,637406,637406,,637405,,637405.6,8,400,,,
break_continue,html.Screen,4_28_2,2023-09-06T20:03:00.257Z,,0,,,NaN,,,,,,false,,,,637407,637407,,637406,,637405.6,8,400,,,
sequence,flow.Sequence,4_28,2023-09-06T20:03:00.257Z,,0,,,3698.280000000028,completion,,,,,false,,,,637407,637407,633708.44,633709,633708.72,637405.6,8,400,,,
trial,html.Screen,4_29_0,2023-09-06T20:03:05.032Z,,0,1,,4776.400000000023,response,ISIC_2619533.JPG,5,ISIC_9462738.JPG,ISIC_2619533.JPG,false,1,keypress(m),500,642182,642182,637405,637407,637405.6,642188.62,8,400,30,,ISIC_9462738.JPG
break,html.Screen,4_29_1,2023-09-06T20:03:05.034Z,,0,,,NaN,,,,,,false,,,,642184,642183,,642183,,642188.62,8,400,,,
break_continue,html.Screen,4_29_2,2023-09-06T20:03:05.035Z,,0,,,NaN,,,,,,false,,,,642185,642184,,642184,,642188.62,8,400,,,
sequence,flow.Sequence,4_29,2023-09-06T20:03:05.036Z,,0,,,4778.400000000023,completion,,,,,false,,,,642186,642184,637405,637407,637405.6,642188.62,8,400,,,
trial,html.Screen,4_30_0,2023-09-06T20:03:09.202Z,,0,1,,4163.380000000005,response,ISIC_3123711.JPG,17,ISIC_8397077.JPG,ISIC_3123711.JPG,false,1,keypress(m),500,646353,646352,642183.2,642186,642188.62,646353.18,8,400,31,,ISIC_8397077.JPG
break,html.Screen,4_30_1,2023-09-06T20:03:09.203Z,,0,,,NaN,,,,,,false,,,,646354,646353,,646353,,646353.18,8,400,,,
break_continue,html.Screen,4_30_2,2023-09-06T20:03:09.204Z,,0,,,NaN,,,,,,false,,,,646354,646354,,646354,,646353.18,8,400,,,
sequence,flow.Sequence,4_30,2023-09-06T20:03:09.204Z,,0,,,4165.380000000005,completion,,,,,false,,,,646355,646354,642183.2,642186,642188.62,646353.18,8,400,,,
trial,html.Screen,4_31_0,2023-09-06T20:03:12.055Z,,0,1,,2850.819999999949,response,ISIC_2383335.JPG,8,ISIC_4391909.JPG,ISIC_4391909.JPG,false,0,keypress(z),500,649205,649204,646352.68,646355,646353.18,649205.68,8,400,32,,ISIC_2383335.JPG
break,html.Screen,4_31_1,2023-09-06T20:03:12.056Z,,0,,,NaN,,,,,,false,,,,649206,649206,,649205,,649205.68,8,400,,,
break_continue,html.Screen,4_31_2,2023-09-06T20:03:12.057Z,,0,,,NaN,,,,,,false,,,,649206,649206,,649206,,649205.68,8,400,,,
sequence,flow.Sequence,4_31,2023-09-06T20:03:12.057Z,,0,,,2852.819999999949,completion,,,,,false,,,,649207,649206,646352.68,646355,646353.18,649205.68,8,400,,,
trial,html.Screen,4_32_0,2023-09-06T20:03:16.054Z,,0,1,,3999.319999999949,response,ISIC_7260492.JPG,16,ISIC_2999018.JPG,ISIC_7260492.JPG,false,1,keypress(m),500,653205,653205,649205.24,649207,649205.68,653205.14,8,400,33,,ISIC_2999018.JPG
break,html.Screen,4_32_1,2023-09-06T20:03:16.055Z,,0,,,NaN,,,,,,false,,,,653205,653205,,653205,,653205.14,8,400,,,
break_continue,html.Screen,4_32_2,2023-09-06T20:03:16.055Z,,0,,,NaN,,,,,,false,,,,653206,653206,,653205,,653205.14,8,400,,,
sequence,flow.Sequence,4_32,2023-09-06T20:03:16.055Z,,0,,,4000.319999999949,completion,,,,,false,,,,653206,653206,649205.24,649207,649205.68,653205.14,8,400,,,
trial,html.Screen,4_33_0,2023-09-06T20:03:18.695Z,,0,1,,2639.859999999986,response,ISIC_0061705.JPG,11,ISIC_0058666.JPG,ISIC_0061705.JPG,false,1,keypress(m),500,655845,655845,653204.84,653206,653205.14,655846.24,8,400,34,,ISIC_0058666.JPG
break,html.Screen,4_33_1,2023-09-06T20:03:18.695Z,,0,,,NaN,,,,,,false,,,,655846,655845,,655845,,655846.24,8,400,,,
break_continue,html.Screen,4_33_2,2023-09-06T20:03:18.697Z,,0,,,NaN,,,,,,false,,,,655846,655846,,655846,,655846.24,8,400,,,
sequence,flow.Sequence,4_33,2023-09-06T20:03:18.697Z,,0,,,2640.859999999986,completion,,,,,false,,,,655846,655846,653204.84,653206,653205.14,655846.24,8,400,,,
trial,html.Screen,4_34_0,2023-09-06T20:03:22.290Z,,0,1,,3591.7600000000093,response,ISIC_7947847.JPG,19,ISIC_0000411.JPG,ISIC_7947847.JPG,false,1,keypress(m),500,659440,659438,655845.24,655846,655846.24,659442.24,8,400,35,,ISIC_0000411.JPG
break,html.Screen,4_34_1,2023-09-06T20:03:22.292Z,,0,,,NaN,,,,,,false,,,,659443,659442,,659441,,659442.24,8,400,,,
break_continue,html.Screen,4_34_2,2023-09-06T20:03:22.294Z,,0,,,NaN,,,,,,false,,,,659444,659443,,659443,,659442.24,8,400,,,
sequence,flow.Sequence,4_34,2023-09-06T20:03:22.294Z,,0,,,3596.7600000000093,completion,,,,,false,,,,659444,659443,655845.24,655846,655846.24,659442.24,8,400,,,
trial,html.Screen,4_35_0,2023-09-06T20:03:26.614Z,,0,1,,4320.760000000009,response,ISIC_0029017.JPG,15,ISIC_0033520.JPG,ISIC_0029017.JPG,false,1,keypress(m),500,663764,663763,659441.08,659444,659442.24,663764.72,8,400,36,,ISIC_0033520.JPG
break,html.Screen,4_35_1,2023-09-06T20:03:26.615Z,,0,,,NaN,,,,,,false,,,,663766,663765,,663764,,663764.72,8,400,,,
break_continue,html.Screen,4_35_2,2023-09-06T20:03:26.617Z,,0,,,NaN,,,,,,false,,,,663766,663766,,663766,,663764.72,8,400,,,
sequence,flow.Sequence,4_35,2023-09-06T20:03:26.617Z,,0,,,4323.760000000009,completion,,,,,false,,,,663767,663766,659441.08,659444,659442.24,663764.72,8,400,,,
trial,html.Screen,4_36_0,2023-09-06T20:03:29.215Z,,0,1,,2599.280000000028,response,ISIC_0032995.JPG,5,ISIC_0058496.JPG,ISIC_0032995.JPG,false,1,keypress(m),500,666365,666364,663764.14,663767,663764.72,666368.92,8,400,37,,ISIC_0058496.JPG
break,html.Screen,4_36_1,2023-09-06T20:03:29.217Z,,0,,,NaN,,,,,,false,,,,666367,666367,,666365,,666368.92,8,400,,,
break_continue,html.Screen,4_36_2,2023-09-06T20:03:29.218Z,,0,,,NaN,,,,,,false,,,,666369,666368,,666368,,666368.92,8,400,,,
sequence,flow.Sequence,4_36,2023-09-06T20:03:29.220Z,,0,,,2603.280000000028,completion,,,,,false,,,,666369,666368,663764.14,663767,663764.72,666368.92,8,400,,,
trial,html.Screen,4_37_0,2023-09-06T20:03:31.907Z,,0,1,,2688.079999999958,response,ISIC_0056811.JPG,18,ISIC_9760652.JPG,ISIC_9760652.JPG,false,0,keypress(z),500,669057,669057,666365.56,666369,666368.92,669057.82,8,400,38,,ISIC_0056811.JPG
break,html.Screen,4_37_1,2023-09-06T20:03:31.908Z,,0,,,NaN,,,,,,false,,,,669059,669058,,669057,,669057.82,8,400,,,
break_continue,html.Screen,4_37_2,2023-09-06T20:03:31.909Z,,0,,,NaN,,,,,,false,,,,669059,669059,,669059,,669057.82,8,400,,,
sequence,flow.Sequence,4_37,2023-09-06T20:03:31.909Z,,0,,,2690.079999999958,completion,,,,,false,,,,669059,669059,666365.56,666369,666368.92,669057.82,8,400,,,
trial,html.Screen,4_38_0,2023-09-06T20:03:34.974Z,,0,1,,3066.180000000051,response,ISIC_0055797.JPG,21,ISIC_0059836.JPG,ISIC_0059836.JPG,false,0,keypress(z),500,672125,672124,669057.4,669060,669057.82,672130.2,8,400,39,,ISIC_0055797.JPG
break,html.Screen,4_38_1,2023-09-06T20:03:34.977Z,,0,,,NaN,,,,,,false,,,,672126,672126,,672125,,672130.2,8,400,,,
break_continue,html.Screen,4_38_2,2023-09-06T20:03:34.978Z,,0,,,NaN,,,,,,false,,,,672127,672127,,672126,,672130.2,8,400,,,
sequence,flow.Sequence,4_38,2023-09-06T20:03:34.978Z,,0,,,3069.180000000051,completion,,,,,false,,,,672128,672127,669057.4,669060,669057.82,672130.2,8,400,,,
trial,html.Screen,4_39_0,2023-09-06T20:03:38.626Z,,0,1,,3645.8000000000466,response,ISIC_0056292.JPG,2,ISIC_0028886.JPG,ISIC_0056292.JPG,false,1,keypress(m),500,675776,675776,672124.94,672128,672130.2,675776.3,8,400,40,,ISIC_0028886.JPG
break,html.Screen,4_39_1,2023-09-06T20:03:38.627Z,,0,,,NaN,,,,,,false,,,,675777,675777,,675776,,675776.3,8,400,,,
break_continue,html.Screen,4_39_2,2023-09-06T20:03:38.628Z,,0,,,NaN,,,,,,false,,,,675778,675778,,675778,,675776.3,8,400,,,
sequence,flow.Sequence,4_39,2023-09-06T20:03:38.628Z,,0,,,3647.8000000000466,completion,,,,,false,,,,675778,675778,672124.94,672128,672130.2,675776.3,8,400,,,
trial,html.Screen,4_40_0,2023-09-06T20:03:42.365Z,,0,1,,3738.6999999999534,response,ISIC_7672106.JPG,21,ISIC_0014164.JPG,ISIC_0014164.JPG,false,0,keypress(z),500,679515,679515,675775.94,675779,675776.3,679516.1,8,400,41,,ISIC_7672106.JPG
break,html.Screen,4_40_1,2023-09-06T20:03:42.367Z,,0,,,NaN,,,,,,false,,,,679517,679516,,679516,,679516.1,8,400,,,
break_continue,html.Screen,4_40_2,2023-09-06T20:03:42.368Z,,0,,,NaN,,,,,,false,,,,679518,679518,,679517,,679516.1,8,400,,,
sequence,flow.Sequence,4_40,2023-09-06T20:03:42.368Z,,0,,,3741.6999999999534,completion,,,,,false,,,,679518,679518,675775.94,675779,675776.3,679516.1,8,400,,,
trial,html.Screen,4_41_0,2023-09-06T20:03:47.195Z,,0,1,,4827.900000000023,response,ISIC_5410481.JPG,6,ISIC_0024344.JPG,ISIC_0024344.JPG,false,0,keypress(z),500,684344,684344,679515.48,679519,679516.1,684345.46,8,400,42,,ISIC_5410481.JPG
break,html.Screen,4_41_1,2023-09-06T20:03:47.196Z,,0,,,NaN,,,,,,false,,,,684346,684345,,684345,,684345.46,8,400,,,
break_continue,html.Screen,4_41_2,2023-09-06T20:03:47.197Z,,0,,,NaN,,,,,,false,,,,684347,684346,,684346,,684345.46,8,400,,,
sequence,flow.Sequence,4_41,2023-09-06T20:03:47.198Z,,0,,,4829.900000000023,completion,,,,,false,,,,684347,684346,679515.48,679519,679516.1,684345.46,8,400,,,
trial,html.Screen,4_42_0,2023-09-06T20:03:49.988Z,,0,1,,2790.5400000000373,response,ISIC_0065066.JPG,11,ISIC_0000144.JPG,ISIC_0065066.JPG,false,1,keypress(m),500,687137,687136,684344.92,684348,684345.46,687137.96,8,400,43,,ISIC_0000144.JPG
break,html.Screen,4_42_1,2023-09-06T20:03:49.990Z,,0,,,NaN,,,,,,false,,,,687139,687138,,687137,,687137.96,8,400,,,
break_continue,html.Screen,4_42_2,2023-09-06T20:03:49.990Z,,0,,,NaN,,,,,,false,,,,687141,687139,,687139,,687137.96,8,400,,,
sequence,flow.Sequence,4_42,2023-09-06T20:03:49.991Z,,0,,,2793.5400000000373,completion,,,,,false,,,,687141,687139,684344.92,684347,684345.46,687137.96,8,400,,,
trial,html.Screen,4_43_0,2023-09-06T20:03:53.007Z,,0,1,,3019.0400000000373,response,ISIC_0033175.JPG,23,ISIC_0011972.JPG,ISIC_0033175.JPG,false,1,keypress(m),500,690157,690157,687137.58,687141,687137.96,690157.62,8,400,44,,ISIC_0011972.JPG
break,html.Screen,4_43_1,2023-09-06T20:03:53.009Z,,0,,,NaN,,,,,,false,,,,690159,690158,,690157,,690157.62,8,400,,,
break_continue,html.Screen,4_43_2,2023-09-06T20:03:53.009Z,,0,,,NaN,,,,,,false,,,,690159,690159,,690159,,690157.62,8,400,,,
sequence,flow.Sequence,4_43,2023-09-06T20:03:53.010Z,,0,,,3021.0400000000373,completion,,,,,false,,,,690160,690159,687137.58,687141,687137.96,690157.62,8,400,,,
trial,html.Screen,4_44_0,2023-09-06T20:03:56.292Z,,0,1,,3283.3800000000047,response,ISIC_0056192.JPG,18,ISIC_7277310.JPG,ISIC_7277310.JPG,false,0,keypress(z),500,693442,693441,690157.22,690160,690157.62,693442.14,8,400,45,,ISIC_0056192.JPG
break,html.Screen,4_44_1,2023-09-06T20:03:56.293Z,,0,,,NaN,,,,,,false,,,,693443,693442,,693442,,693442.14,8,400,,,
break_continue,html.Screen,4_44_2,2023-09-06T20:03:56.293Z,,0,,,NaN,,,,,,false,,,,693443,693443,,693443,,693442.14,8,400,,,
sequence,flow.Sequence,4_44,2023-09-06T20:03:56.294Z,,0,,,3285.3800000000047,completion,,,,,false,,,,693443,693443,690157.22,690160,690157.62,693442.14,8,400,,,
trial,html.Screen,4_45_0,2023-09-06T20:04:00.479Z,,0,1,,4185.859999999986,response,ISIC_0678758.JPG,23,ISIC_9989485.JPG,ISIC_0678758.JPG,false,1,keypress(m),500,697628,697628,693441.7,693443,693442.14,697629.18,8,400,46,,ISIC_9989485.JPG
break,html.Screen,4_45_1,2023-09-06T20:04:00.481Z,,0,,,NaN,,,,,,false,,,,697630,697630,,697628,,697629.18,8,400,,,
break_continue,html.Screen,4_45_2,2023-09-06T20:04:00.482Z,,0,,,NaN,,,,,,false,,,,697631,697631,,697630,,697629.18,8,400,,,
sequence,flow.Sequence,4_45,2023-09-06T20:04:00.482Z,,0,,,4188.859999999986,completion,,,,,false,,,,697632,697631,693441.7,693443,693442.14,697629.18,8,400,,,
trial,html.Screen,4_46_0,2023-09-06T20:04:03.854Z,,0,1,,3373.819999999949,response,ISIC_0024271.JPG,19,ISIC_7781213.JPG,ISIC_0024271.JPG,false,1,keypress(m),500,701004,701003,697628.7,697632,697629.18,701005.06,8,400,47,,ISIC_7781213.JPG
break,html.Screen,4_46_1,2023-09-06T20:04:03.856Z,,0,,,NaN,,,,,,false,,,,701005,701005,,701004,,701005.06,8,400,,,
break_continue,html.Screen,4_46_2,2023-09-06T20:04:03.857Z,,0,,,NaN,,,,,,false,,,,701006,701006,,701005,,701005.06,8,400,,,
sequence,flow.Sequence,4_46,2023-09-06T20:04:03.858Z,,0,,,3376.819999999949,completion,,,,,false,,,,701007,701006,697628.7,697632,697629.18,701005.06,8,400,,,
trial,html.Screen,4_47_0,2023-09-06T20:04:07.738Z,,0,1,,3881.939999999944,response,ISIC_9210086.JPG,12,ISIC_0011269.JPG,ISIC_9210086.JPG,false,1,keypress(m),500,704887,704887,701004.54,701007,701005.06,704887.74,8,400,48,,ISIC_0011269.JPG
break,html.Screen,4_47_1,2023-09-06T20:04:07.738Z,,0,,,NaN,,,,,,false,,,,704888,704888,,704887,,704887.74,8,400,,,
break_continue,html.Screen,4_47_2,2023-09-06T20:04:07.738Z,,0,,,NaN,,,,,,false,,,,704888,704888,,704888,,704887.74,8,400,,,
sequence,flow.Sequence,4_47,2023-09-06T20:04:07.739Z,,0,,,3882.939999999944,completion,,,,,false,,,,704888,704888,701004.54,701007,701005.06,704887.74,8,400,,,
trial,html.Screen,4_48_0,2023-09-06T20:04:11.009Z,,0,1,,3270.2600000000093,response,ISIC_7320371.JPG,27,ISIC_8257549.JPG,ISIC_8257549.JPG,false,0,keypress(z),500,708158,708158,704887.6,704888,704887.74,708158.84,8,400,49,,ISIC_7320371.JPG
break,html.Screen,4_48_1,2023-09-06T20:04:11.010Z,,0,,,NaN,,,,,,false,,,,708160,708159,,708159,,708158.84,8,400,,,
break_continue,html.Screen,4_48_2,2023-09-06T20:04:11.011Z,,0,,,NaN,,,,,,false,,,,708160,708160,,708160,,708158.84,8,400,,,
sequence,flow.Sequence,4_48,2023-09-06T20:04:11.011Z,,0,,,3272.2600000000093,completion,,,,,false,,,,708161,708160,704887.6,704888,704887.74,708158.84,8,400,,,
trial,html.Screen,4_49_0,2023-09-06T20:04:14.662Z,,0,1,,3652.1600000000326,response,ISIC_0012059.JPG,21,ISIC_0010923.JPG,ISIC_0010923.JPG,false,0,keypress(z),500,711812,711811,708158.38,708161,708158.84,711811.96,8,400,50,,ISIC_0012059.JPG
break,html.Screen,4_49_1,2023-09-06T20:04:25.310Z,,0,,,18660.47999999998,timeout,,,,,false,,,,722459,722458.2,711811.78,711812,711811.96,730472.44,8,400,,,
break_continue,html.Screen,4_49_2,2023-09-06T20:17:38.278Z,,0,,,784931.56,response,,,,,false,continue,keypress(Space),,1515419,1515404,722458.2,722459,730472.44,1515420.6,8,400,,,
sequence,flow.Sequence,4_49,2023-09-06T20:17:38.278Z,,0,,,807245.16,completion,,,,,false,,,,1515420,1515404,708158.38,708161,708158.84,1515420.6,8,400,,,
trial,html.Screen,4_50_0,2023-09-06T20:17:41.785Z,,0,2,,3504.399999999907,response,ISIC_0073075.JPG,25,ISIC_6771810.JPG,ISIC_6771810.JPG,false,0,keypress(z),500,1518925,1518925,1515420.32,1515420,1515420.6,1518927.86,8,400,1,,ISIC_0073075.JPG
break,html.Screen,4_50_1,2023-09-06T20:17:41.786Z,,0,,,NaN,,,,,,false,,,,1518927,1518926,,1518926,,1518927.86,8,400,,,
break_continue,html.Screen,4_50_2,2023-09-06T20:17:41.787Z,,0,,,NaN,,,,,,false,,,,1518928,1518927,,1518927,,1518927.86,8,400,,,
sequence,flow.Sequence,4_50,2023-09-06T20:17:41.787Z,,0,,,3506.399999999907,completion,,,,,false,,,,1518928,1518927,1515420.32,1515420,1515420.6,1518927.86,8,400,,,
trial,html.Screen,4_51_0,2023-09-06T20:17:46.472Z,,0,2,,4685.139999999898,response,ISIC_8278688.JPG,3,ISIC_6732560.JPG,ISIC_8278688.JPG,false,1,keypress(m),500,1523614,1523613,1518925.96,1518929,1518927.86,1523620.38,8,400,2,,ISIC_6732560.JPG
break,html.Screen,4_51_1,2023-09-06T20:17:46.474Z,,0,,,NaN,,,,,,false,,,,1523615,1523614,,1523614,,1523620.38,8,400,,,
break_continue,html.Screen,4_51_2,2023-09-06T20:17:46.475Z,,0,,,NaN,,,,,,false,,,,1523616,1523616,,1523615,,1523620.38,8,400,,,
sequence,flow.Sequence,4_51,2023-09-06T20:17:46.476Z,,0,,,4688.139999999898,completion,,,,,false,,,,1523617,1523616,1518925.96,1518929,1518927.86,1523620.38,8,400,,,
trial,html.Screen,4_52_0,2023-09-06T20:17:49.523Z,,0,2,,3043.6200000001118,response,ISIC_1470934.JPG,19,ISIC_8510848.JPG,ISIC_1470934.JPG,false,1,keypress(m),500,1526664,1526664,1523613.88,1523618,1523620.38,1526665.18,8,400,3,,ISIC_8510848.JPG
break,html.Screen,4_52_1,2023-09-06T20:17:49.524Z,,0,,,NaN,,,,,,false,,,,1526666,1526666,,1526665,,1526665.18,8,400,,,
break_continue,html.Screen,4_52_2,2023-09-06T20:17:49.525Z,,0,,,NaN,,,,,,false,,,,1526667,1526667,,1526666,,1526665.18,8,400,,,
sequence,flow.Sequence,4_52,2023-09-06T20:17:49.526Z,,0,,,3046.6200000001118,completion,,,,,false,,,,1526667,1526667,1523613.88,1523618,1523620.38,1526665.18,8,400,,,
trial,html.Screen,4_53_0,2023-09-06T20:17:54.645Z,,0,2,,5120.820000000065,response,ISIC_0032320.JPG,23,ISIC_8907232.JPG,ISIC_8907232.JPG,false,0,keypress(z),500,1531786,1531786,1526664.58,1526668,1526665.18,1531786.62,8,400,4,,ISIC_0032320.JPG
break,html.Screen,4_53_1,2023-09-06T20:17:54.646Z,,0,,,NaN,,,,,,false,,,,1531787,1531787,,1531786,,1531786.62,8,400,,,
break_continue,html.Screen,4_53_2,2023-09-06T20:17:54.646Z,,0,,,NaN,,,,,,false,,,,1531787,1531787,,1531787,,1531786.62,8,400,,,
sequence,flow.Sequence,4_53,2023-09-06T20:17:54.646Z,,0,,,5121.820000000065,completion,,,,,false,,,,1531787,1531787,1526664.58,1526667,1526665.18,1531786.62,8,400,,,
trial,html.Screen,4_54_0,2023-09-06T20:18:03.117Z,,0,2,,8471.379999999888,response,ISIC_9445053.JPG,6,ISIC_3575862.JPG,ISIC_9445053.JPG,false,1,keypress(m),500,1540258,1540258,1531786.46,1531787,1531786.62,1540258.66,8,400,5,,ISIC_3575862.JPG
break,html.Screen,4_54_1,2023-09-06T20:18:03.118Z,,0,,,NaN,,,,,,false,,,,1540259,1540259,,1540258,,1540258.66,8,400,,,
break_continue,html.Screen,4_54_2,2023-09-06T20:18:03.118Z,,0,,,NaN,,,,,,false,,,,1540259,1540259,,1540259,,1540258.66,8,400,,,
sequence,flow.Sequence,4_54,2023-09-06T20:18:03.118Z,,0,,,8472.379999999888,completion,,,,,false,,,,1540259,1540259,1531786.46,1531787,1531786.62,1540258.66,8,400,,,
trial,html.Screen,4_55_0,2023-09-06T20:18:06.000Z,,0,2,,2882.340000000084,response,ISIC_9417173.JPG,27,ISIC_5005869.JPG,ISIC_9417173.JPG,false,1,keypress(m),500,1543142,1543141,1540258.42,1540259,1540258.66,1543141.86,8,400,6,,ISIC_5005869.JPG
break,html.Screen,4_55_1,2023-09-06T20:18:06.001Z,,0,,,NaN,,,,,,false,,,,1543142,1543142,,1543142,,1543141.86,8,400,,,
break_continue,html.Screen,4_55_2,2023-09-06T20:18:06.001Z,,0,,,NaN,,,,,,false,,,,1543142,1543142,,1543142,,1543141.86,8,400,,,
sequence,flow.Sequence,4_55,2023-09-06T20:18:06.001Z,,0,,,2883.340000000084,completion,,,,,false,,,,1543142,1543142,1540258.42,1540259,1540258.66,1543141.86,8,400,,,
trial,html.Screen,4_56_0,2023-09-06T20:18:08.973Z,,0,2,,2972.1399999998976,response,ISIC_0032602.JPG,8,ISIC_7489895.JPG,ISIC_7489895.JPG,false,0,keypress(z),500,1546114,1546114,1543141.44,1543142,1543141.86,1546130.78,8,400,7,,ISIC_0032602.JPG
break,html.Screen,4_56_1,2023-09-06T20:18:08.975Z,,0,,,NaN,,,,,,false,,,,1546115,1546115,,1546114,,1546130.78,8,400,,,
break_continue,html.Screen,4_56_2,2023-09-06T20:18:08.975Z,,0,,,NaN,,,,,,false,,,,1546116,1546116,,1546115,,1546130.78,8,400,,,
sequence,flow.Sequence,4_56,2023-09-06T20:18:08.976Z,,0,,,2974.1399999998976,completion,,,,,false,,,,1546116,1546116,1543141.44,1543142,1543141.86,1546130.78,8,400,,,
trial,html.Screen,4_57_0,2023-09-06T20:18:18.695Z,,0,2,,9705.219999999972,response,ISIC_7960321.JPG,5,ISIC_1306020.JPG,ISIC_1306020.JPG,false,0,keypress(z),500,1555836,1555836,1546114.18,1546117,1546130.78,1555849.68,8,400,8,,ISIC_7960321.JPG
break,html.Screen,4_57_1,2023-09-06T20:18:18.697Z,,0,,,NaN,,,,,,false,,,,1555837,1555837,,1555837,,1555849.68,8,400,,,
break_continue,html.Screen,4_57_2,2023-09-06T20:18:18.697Z,,0,,,NaN,,,,,,false,,,,1555838,1555838,,1555838,,1555849.68,8,400,,,
sequence,flow.Sequence,4_57,2023-09-06T20:18:18.698Z,,0,,,9707.219999999972,completion,,,,,false,,,,1555839,1555838,1546114.18,1546117,1546130.78,1555849.68,8,400,,,
trial,html.Screen,4_58_0,2023-09-06T20:18:22.464Z,,0,2,,3755.320000000065,response,ISIC_0066203.JPG,6,ISIC_0000058.JPG,ISIC_0066203.JPG,false,1,keypress(m),500,1559605,1559605,1555836.48,1555839,1555849.68,1559607.02,8,400,9,,ISIC_0000058.JPG
break,html.Screen,4_58_1,2023-09-06T20:18:22.465Z,,0,,,NaN,,,,,,false,,,,1559606,1559606,,1559605,,1559607.02,8,400,,,
break_continue,html.Screen,4_58_2,2023-09-06T20:18:22.466Z,,0,,,NaN,,,,,,false,,,,1559607,1559606,,1559606,,1559607.02,8,400,,,
sequence,flow.Sequence,4_58,2023-09-06T20:18:22.466Z,,0,,,3756.320000000065,completion,,,,,false,,,,1559607,1559606,1555836.48,1555839,1555849.68,1559607.02,8,400,,,
trial,html.Screen,4_59_0,2023-09-06T20:18:26.894Z,,0,2,,4426.979999999981,response,ISIC_3800974.JPG,7,ISIC_0059350.JPG,ISIC_0059350.JPG,false,0,keypress(z),500,1564034,1564034,1559604.9,1559607,1559607.02,1564035.12,8,400,10,,ISIC_3800974.JPG
break,html.Screen,4_59_1,2023-09-06T20:18:26.895Z,,0,,,NaN,,,,,,false,,,,1564035,1564035,,1564034,,1564035.12,8,400,,,
break_continue,html.Screen,4_59_2,2023-09-06T20:18:26.896Z,,0,,,NaN,,,,,,false,,,,1564036,1564036,,1564036,,1564035.12,8,400,,,
sequence,flow.Sequence,4_59,2023-09-06T20:18:26.896Z,,0,,,4428.979999999981,completion,,,,,false,,,,1564037,1564036,1559604.9,1559607,1559607.02,1564035.12,8,400,,,
trial,html.Screen,4_60_0,2023-09-06T20:18:29.671Z,,0,2,,2774.8799999998882,response,ISIC_8586909.JPG,21,ISIC_7664137.JPG,ISIC_7664137.JPG,false,0,keypress(z),500,1566811,1566810,1564034.54,1564037,1564035.12,1566812.5,8,400,11,,ISIC_8586909.JPG
break,html.Screen,4_60_1,2023-09-06T20:18:29.673Z,,0,,,NaN,,,,,,false,,,,1566813,1566812,,1566812,,1566812.5,8,400,,,
break_continue,html.Screen,4_60_2,2023-09-06T20:18:29.674Z,,0,,,NaN,,,,,,false,,,,1566814,1566814,,1566813,,1566812.5,8,400,,,
sequence,flow.Sequence,4_60,2023-09-06T20:18:29.674Z,,0,,,2778.8799999998882,completion,,,,,false,,,,1566814,1566814,1564034.54,1564037,1564035.12,1566812.5,8,400,,,
trial,html.Screen,4_61_0,2023-09-06T20:18:32.443Z,,0,2,,2769.5,response,ISIC_8570555.JPG,19,ISIC_0061829.JPG,ISIC_8570555.JPG,false,1,keypress(m),500,1569582,1569582,1566811.82,1566815,1566812.5,1569609.8,8,400,12,,ISIC_0061829.JPG
break,html.Screen,4_61_1,2023-09-06T20:18:32.444Z,,0,,,NaN,,,,,,false,,,,1569584,1569583,,1569583,,1569609.8,8,400,,,
break_continue,html.Screen,4_61_2,2023-09-06T20:18:32.445Z,,0,,,NaN,,,,,,false,,,,1569584,1569584,,1569584,,1569609.8,8,400,,,
sequence,flow.Sequence,4_61,2023-09-06T20:18:32.445Z,,0,,,2771.5,completion,,,,,false,,,,1569585,1569584,1566811.82,1566815,1566812.5,1569609.8,8,400,,,
trial,html.Screen,4_62_0,2023-09-06T20:18:39.428Z,,0,2,,6958.199999999953,response,ISIC_1042960.JPG,6,ISIC_5706192.JPG,ISIC_1042960.JPG,false,1,keypress(m),500,1576568,1576568,1569593.1,1569585,1569609.8,1576569.16,8,400,13,,ISIC_5706192.JPG
break,html.Screen,4_62_1,2023-09-06T20:18:39.429Z,,0,,,NaN,,,,,,false,,,,1576570,1576569,,1576569,,1576569.16,8,400,,,
break_continue,html.Screen,4_62_2,2023-09-06T20:18:39.430Z,,0,,,NaN,,,,,,false,,,,1576570,1576570,,1576570,,1576569.16,8,400,,,
sequence,flow.Sequence,4_62,2023-09-06T20:18:39.430Z,,0,,,6960.199999999953,completion,,,,,false,,,,1576571,1576570,1569593.1,1569585,1569609.8,1576569.16,8,400,,,
trial,html.Screen,4_63_0,2023-09-06T20:18:43.057Z,,0,2,,3626.840000000084,response,ISIC_0067167.JPG,23,ISIC_7024807.JPG,ISIC_7024807.JPG,false,0,keypress(z),500,1580197,1580196,1576568.6,1576571,1576569.16,1580197.46,8,400,14,,ISIC_0067167.JPG
break,html.Screen,4_63_1,2023-09-06T20:18:43.058Z,,0,,,NaN,,,,,,false,,,,1580198,1580198,,1580197,,1580197.46,8,400,,,
break_continue,html.Screen,4_63_2,2023-09-06T20:18:43.059Z,,0,,,NaN,,,,,,false,,,,1580198,1580198,,1580198,,1580197.46,8,400,,,
sequence,flow.Sequence,4_63,2023-09-06T20:18:43.059Z,,0,,,3628.840000000084,completion,,,,,false,,,,1580199,1580198,1576568.6,1576571,1576569.16,1580197.46,8,400,,,
trial,html.Screen,4_64_0,2023-09-06T20:18:46.451Z,,0,2,,3392.5400000000373,response,ISIC_1436929.JPG,8,ISIC_0026611.JPG,ISIC_1436929.JPG,false,1,keypress(m),500,1583591,1583590,1580196.86,1580199,1580197.46,1583591.6,8,400,15,,ISIC_0026611.JPG
break,html.Screen,4_64_1,2023-09-06T20:18:46.452Z,,0,,,NaN,,,,,,false,,,,1583592,1583591,,1583591,,1583591.6,8,400,,,
break_continue,html.Screen,4_64_2,2023-09-06T20:18:46.453Z,,0,,,NaN,,,,,,false,,,,1583592,1583592,,1583592,,1583591.6,8,400,,,
sequence,flow.Sequence,4_64,2023-09-06T20:18:46.453Z,,0,,,3394.5400000000373,completion,,,,,false,,,,1583593,1583592,1580196.86,1580199,1580197.46,1583591.6,8,400,,,
trial,html.Screen,4_65_0,2023-09-06T20:18:51.372Z,,0,2,,4920.399999999907,response,ISIC_0070048.JPG,5,ISIC_2271767.JPG,ISIC_2271767.JPG,false,0,keypress(z),500,1588512,1588512,1583591.04,1583593,1583591.6,1588512.9,8,400,16,,ISIC_0070048.JPG
break,html.Screen,4_65_1,2023-09-06T20:18:51.373Z,,0,,,NaN,,,,,,false,,,,1588513,1588513,,1588512,,1588512.9,8,400,,,
break_continue,html.Screen,4_65_2,2023-09-06T20:18:51.374Z,,0,,,NaN,,,,,,false,,,,1588514,1588514,,1588513,,1588512.9,8,400,,,
sequence,flow.Sequence,4_65,2023-09-06T20:18:51.374Z,,0,,,4922.399999999907,completion,,,,,false,,,,1588514,1588514,1583591.04,1583593,1583591.6,1588512.9,8,400,,,
trial,html.Screen,4_66_0,2023-09-06T20:18:55.747Z,,0,2,,4374.100000000093,response,ISIC_0011546.JPG,6,ISIC_0010251.JPG,ISIC_0010251.JPG,false,0,keypress(z),500,1592887,1592887,1588512.38,1588514,1588512.9,1592905.12,8,400,17,,ISIC_0011546.JPG
break,html.Screen,4_66_1,2023-09-06T20:18:55.750Z,,0,,,NaN,,,,,,false,,,,1592889,1592888,,1592888,,1592905.12,8,400,,,
break_continue,html.Screen,4_66_2,2023-09-06T20:18:55.751Z,,0,,,NaN,,,,,,false,,,,1592890,1592889,,1592889,,1592905.12,8,400,,,
sequence,flow.Sequence,4_66,2023-09-06T20:18:55.751Z,,0,,,4376.100000000093,completion,,,,,false,,,,1592890,1592889,1588512.38,1588514,1588512.9,1592905.12,8,400,,,
trial,html.Screen,4_67_0,2023-09-06T20:19:01.172Z,,0,2,,5406.879999999888,response,ISIC_8642938.JPG,4,ISIC_0059216.JPG,ISIC_8642938.JPG,false,1,keypress(m),500,1598312,1598312,1592888.42,1592891,1592905.12,1598332.28,8,400,18,,ISIC_0059216.JPG
break,html.Screen,4_67_1,2023-09-06T20:19:01.172Z,,0,,,NaN,,,,,,false,,,,1598312,1598312,,1598312,,1598332.28,8,400,,,
break_continue,html.Screen,4_67_2,2023-09-06T20:19:01.173Z,,0,,,NaN,,,,,,false,,,,1598313,1598313,,1598313,,1598332.28,8,400,,,
sequence,flow.Sequence,4_67,2023-09-06T20:19:01.173Z,,0,,,5407.879999999888,completion,,,,,false,,,,1598313,1598313,1592888.42,1592891,1592905.12,1598332.28,8,400,,,
trial,html.Screen,4_68_0,2023-09-06T20:19:06.685Z,,0,2,,5491.719999999972,response,ISIC_8451869.JPG,3,ISIC_0027036.JPG,ISIC_8451869.JPG,false,1,keypress(m),500,1603824,1603824,1598315.58,1598314,1598332.28,1603826.4,8,400,19,,ISIC_0027036.JPG
break,html.Screen,4_68_1,2023-09-06T20:19:06.685Z,,0,,,NaN,,,,,,false,,,,1603824,1603824,,1603824,,1603826.4,8,400,,,
break_continue,html.Screen,4_68_2,2023-09-06T20:19:06.686Z,,0,,,NaN,,,,,,false,,,,1603824,1603824,,1603824,,1603826.4,8,400,,,
sequence,flow.Sequence,4_68,2023-09-06T20:19:06.686Z,,0,,,5491.719999999972,completion,,,,,false,,,,1603825,1603824,1598315.58,1598313,1598332.28,1603826.4,8,400,,,
trial,html.Screen,4_69_0,2023-09-06T20:19:09.706Z,,0,2,,3017.600000000093,response,ISIC_1650523.JPG,24,ISIC_0177304.JPG,ISIC_0177304.JPG,false,0,keypress(z),500,1606845,1606844,1603823.78,1603825,1603826.4,1606845.96,8,400,20,,ISIC_1650523.JPG
break,html.Screen,4_69_1,2023-09-06T20:19:09.707Z,,0,,,NaN,,,,,,false,,,,1606846,1606846,,1606846,,1606845.96,8,400,,,
break_continue,html.Screen,4_69_2,2023-09-06T20:19:09.707Z,,0,,,NaN,,,,,,false,,,,1606846,1606846,,1606846,,1606845.96,8,400,,,
sequence,flow.Sequence,4_69,2023-09-06T20:19:09.707Z,,0,,,3019.600000000093,completion,,,,,false,,,,1606846,1606846,1603823.78,1603825,1603826.4,1606845.96,8,400,,,
trial,html.Screen,4_70_0,2023-09-06T20:19:13.190Z,,0,2,,3482.0400000000373,response,ISIC_1776777.JPG,5,ISIC_7433993.JPG,ISIC_7433993.JPG,false,0,keypress(z),500,1610328,1610328,1606845.68,1606847,1606845.96,1610329.98,8,400,21,,ISIC_1776777.JPG
break,html.Screen,4_70_1,2023-09-06T20:19:13.192Z,,0,,,NaN,,,,,,false,,,,1610331,1610330,,1610329,,1610329.98,8,400,,,
break_continue,html.Screen,4_70_2,2023-09-06T20:19:13.193Z,,0,,,NaN,,,,,,false,,,,1610332,1610331,,1610331,,1610329.98,8,400,,,
sequence,flow.Sequence,4_70,2023-09-06T20:19:13.194Z,,0,,,3485.0400000000373,completion,,,,,false,,,,1610332,1610331,1606845.68,1606846,1606845.96,1610329.98,8,400,,,
trial,html.Screen,4_71_0,2023-09-06T20:19:16.166Z,,0,2,,2975.0200000000186,response,ISIC_9987485.JPG,19,ISIC_3961101.JPG,ISIC_3961101.JPG,false,0,keypress(z),500,1613305,1613305,1610329.4,1610333,1610329.98,1613311.62,8,400,22,,ISIC_9987485.JPG
break,html.Screen,4_71_1,2023-09-06T20:19:16.168Z,,0,,,NaN,,,,,,false,,,,1613307,1613307,,1613306,,1613311.62,8,400,,,
break_continue,html.Screen,4_71_2,2023-09-06T20:19:16.170Z,,0,,,NaN,,,,,,false,,,,1613309,1613308,,1613308,,1613311.62,8,400,,,
sequence,flow.Sequence,4_71,2023-09-06T20:19:16.170Z,,0,,,2978.0200000000186,completion,,,,,false,,,,1613309,1613308,1610329.4,1610332,1610329.98,1613311.62,8,400,,,
trial,html.Screen,4_72_0,2023-09-06T20:19:19.107Z,,0,2,,2934.3799999998882,response,ISIC_4702522.JPG,2,ISIC_4241907.JPG,ISIC_4241907.JPG,false,0,keypress(z),500,1616246,1616246,1613305.62,1613310,1613311.62,1616250.62,8,400,23,,ISIC_4702522.JPG
break,html.Screen,4_72_1,2023-09-06T20:19:19.109Z,,0,,,NaN,,,,,,false,,,,1616248,1616247,,1616247,,1616250.62,8,400,,,
break_continue,html.Screen,4_72_2,2023-09-06T20:19:19.111Z,,0,,,NaN,,,,,,false,,,,1616249,1616248,,1616248,,1616250.62,8,400,,,
sequence,flow.Sequence,4_72,2023-09-06T20:19:19.111Z,,0,,,2936.3799999998882,completion,,,,,false,,,,1616250,1616248,1613305.62,1613310,1613311.62,1616250.62,8,400,,,
trial,html.Screen,4_73_0,2023-09-06T20:19:22.338Z,,0,2,,3225.3799999998882,response,ISIC_0014088.JPG,13,ISIC_0006517.JPG,ISIC_0006517.JPG,false,0,keypress(z),500,1619477,1619476,1616247.02,1616250,1616250.62,1619477.66,8,400,24,,ISIC_0014088.JPG
break,html.Screen,4_73_1,2023-09-06T20:19:22.340Z,,0,,,NaN,,,,,,false,,,,1619478,1619478,,1619477,,1619477.66,8,400,,,
break_continue,html.Screen,4_73_2,2023-09-06T20:19:22.340Z,,0,,,NaN,,,,,,false,,,,1619479,1619479,,1619478,,1619477.66,8,400,,,
sequence,flow.Sequence,4_73,2023-09-06T20:19:22.341Z,,0,,,3228.3799999998882,completion,,,,,false,,,,1619480,1619479,1616247.02,1616250,1616250.62,1619477.66,8,400,,,
trial,html.Screen,4_74_0,2023-09-06T20:19:25.601Z,,0,2,,3261.340000000084,response,ISIC_6298228.JPG,1,ISIC_0012048.JPG,ISIC_6298228.JPG,false,1,keypress(m),500,1622739,1622739,1619477.06,1619480,1619477.66,1622740.38,8,400,25,,ISIC_0012048.JPG
break,html.Screen,4_74_1,2023-09-06T20:19:25.602Z,,0,,,NaN,,,,,,false,,,,1622740,1622740,,1622740,,1622740.38,8,400,,,
break_continue,html.Screen,4_74_2,2023-09-06T20:19:25.602Z,,0,,,NaN,,,,,,false,,,,1622742,1622742,,1622740,,1622740.38,8,400,,,
sequence,flow.Sequence,4_74,2023-09-06T20:19:25.603Z,,0,,,3264.340000000084,completion,,,,,false,,,,1622742,1622742,1619477.06,1619480,1619477.66,1622740.38,8,400,,,
trial,html.Screen,4_75_0,2023-09-06T20:19:30.289Z,,0,2,,4686.620000000112,response,ISIC_1260545.JPG,10,ISIC_8527737.JPG,ISIC_1260545.JPG,false,1,keypress(m),500,1627427,1627427,1622739.96,1622742,1622740.38,1627438.94,8,400,26,,ISIC_8527737.JPG
break,html.Screen,4_75_1,2023-09-06T20:19:30.290Z,,0,,,NaN,,,,,,false,,,,1627429,1627428,,1627428,,1627438.94,8,400,,,
break_continue,html.Screen,4_75_2,2023-09-06T20:19:30.292Z,,0,,,NaN,,,,,,false,,,,1627430,1627430,,1627429,,1627438.94,8,400,,,
sequence,flow.Sequence,4_75,2023-09-06T20:19:30.292Z,,0,,,4689.620000000112,completion,,,,,false,,,,1627431,1627430,1622739.96,1622742,1622740.38,1627438.94,8,400,,,
trial,html.Screen,4_76_0,2023-09-06T20:19:35.739Z,,0,2,,5438.060000000056,response,ISIC_9745038.JPG,15,ISIC_9714746.JPG,ISIC_9714746.JPG,false,0,keypress(z),500,1632877,1632877,1627427.72,1627431,1627438.94,1632882.8,8,400,27,,ISIC_9745038.JPG
break,html.Screen,4_76_1,2023-09-06T20:19:35.740Z,,0,,,NaN,,,,,,false,,,,1632878,1632878,,1632877,,1632882.8,8,400,,,
break_continue,html.Screen,4_76_2,2023-09-06T20:19:35.740Z,,0,,,NaN,,,,,,false,,,,1632878,1632878,,1632878,,1632882.8,8,400,,,
sequence,flow.Sequence,4_76,2023-09-06T20:19:35.740Z,,0,,,5439.060000000056,completion,,,,,false,,,,1632878,1632878,1627427.72,1627431,1627438.94,1632882.8,8,400,,,
trial,html.Screen,4_77_0,2023-09-06T20:19:38.608Z,,0,2,,2864.1999999999534,response,ISIC_0071508.JPG,12,ISIC_0010131.JPG,ISIC_0071508.JPG,false,1,keypress(m),500,1635747,1635747,1632877.56,1632878,1632882.8,1635747.78,8,400,28,,ISIC_0010131.JPG
break,html.Screen,4_77_1,2023-09-06T20:19:38.610Z,,0,,,NaN,,,,,,false,,,,1635748,1635748,,1635748,,1635747.78,8,400,,,
break_continue,html.Screen,4_77_2,2023-09-06T20:19:38.610Z,,0,,,NaN,,,,,,false,,,,1635749,1635749,,1635749,,1635747.78,8,400,,,
sequence,flow.Sequence,4_77,2023-09-06T20:19:38.611Z,,0,,,2866.1999999999534,completion,,,,,false,,,,1635749,1635749,1632877.56,1632878,1632882.8,1635747.78,8,400,,,
trial,html.Screen,4_78_0,2023-09-06T20:19:46.552Z,,0,2,,7941.219999999972,response,ISIC_7429127.JPG,7,ISIC_2266312.JPG,ISIC_7429127.JPG,false,1,keypress(m),500,1643690,1643689,1635747.4,1635749,1635747.78,1643720.6,8,400,29,,ISIC_2266312.JPG
break,html.Screen,4_78_1,2023-09-06T20:19:46.552Z,,0,,,NaN,,,,,,false,,,,1643690,1643690,,1643690,,1643720.6,8,400,,,
break_continue,html.Screen,4_78_2,2023-09-06T20:19:46.553Z,,0,,,NaN,,,,,,false,,,,1643691,1643691,,1643691,,1643720.6,8,400,,,
sequence,flow.Sequence,4_78,2023-09-06T20:19:46.553Z,,0,,,7943.219999999972,completion,,,,,false,,,,1643692,1643691,1635747.4,1635749,1635747.78,1643720.6,8,400,,,
trial,html.Screen,4_79_0,2023-09-06T20:19:49.639Z,,0,2,,3057.399999999907,response,ISIC_2999018.JPG,26,ISIC_0061184.JPG,ISIC_2999018.JPG,false,1,keypress(m),500,1646778,1646778,1643703.9,1643692,1643720.6,1646778.28,8,400,30,,ISIC_0061184.JPG
break,html.Screen,4_79_1,2023-09-06T20:19:49.640Z,,0,,,NaN,,,,,,false,,,,1646779,1646779,,1646778,,1646778.28,8,400,,,
break_continue,html.Screen,4_79_2,2023-09-06T20:19:49.641Z,,0,,,NaN,,,,,,false,,,,1646779,1646779,,1646779,,1646778.28,8,400,,,
sequence,flow.Sequence,4_79,2023-09-06T20:19:49.641Z,,0,,,3058.399999999907,completion,,,,,false,,,,1646779,1646779,1643703.9,1643692,1643720.6,1646778.28,8,400,,,
trial,html.Screen,4_80_0,2023-09-06T20:19:53.888Z,,0,2,,4247.719999999972,response,ISIC_8154363.JPG,11,ISIC_0033643.JPG,ISIC_8154363.JPG,false,1,keypress(m),500,1651027,1651026,1646778.02,1646779,1646778.28,1651026.92,8,400,31,,ISIC_0033643.JPG
break,html.Screen,4_80_1,2023-09-06T20:19:53.889Z,,0,,,NaN,,,,,,false,,,,1651027,1651027,,1651027,,1651026.92,8,400,,,
break_continue,html.Screen,4_80_2,2023-09-06T20:19:53.889Z,,0,,,NaN,,,,,,false,,,,1651027,1651027,,1651027,,1651026.92,8,400,,,
sequence,flow.Sequence,4_80,2023-09-06T20:19:53.889Z,,0,,,4248.719999999972,completion,,,,,false,,,,1651028,1651027,1646778.02,1646779,1646778.28,1651026.92,8,400,,,
trial,html.Screen,4_81_0,2023-09-06T20:19:57.536Z,,0,2,,3647.0800000000745,response,ISIC_1353668.JPG,8,ISIC_0011369.JPG,ISIC_1353668.JPG,false,1,keypress(m),500,1654674,1654674,1651026.6,1651028,1651026.92,1654674.46,8,400,32,,ISIC_0011369.JPG
break,html.Screen,4_81_1,2023-09-06T20:19:57.536Z,,0,,,NaN,,,,,,false,,,,1654675,1654675,,1654674,,1654674.46,8,400,,,
break_continue,html.Screen,4_81_2,2023-09-06T20:19:57.538Z,,0,,,NaN,,,,,,false,,,,1654676,1654675,,1654675,,1654674.46,8,400,,,
sequence,flow.Sequence,4_81,2023-09-06T20:19:57.538Z,,0,,,3648.0800000000745,completion,,,,,false,,,,1654676,1654675,1651026.6,1651028,1651026.92,1654674.46,8,400,,,
trial,html.Screen,4_82_0,2023-09-06T20:20:00.422Z,,0,2,,2884.5400000000373,response,ISIC_3761253.JPG,4,ISIC_6634951.JPG,ISIC_3761253.JPG,false,1,keypress(m),500,1657560,1657559,1654673.98,1654676,1654674.46,1657564.36,8,400,33,,ISIC_6634951.JPG
break,html.Screen,4_82_1,2023-09-06T20:20:00.424Z,,0,,,NaN,,,,,,false,,,,1657562,1657562,,1657560,,1657564.36,8,400,,,
break_continue,html.Screen,4_82_2,2023-09-06T20:20:00.425Z,,0,,,NaN,,,,,,false,,,,1657563,1657563,,1657562,,1657564.36,8,400,,,
sequence,flow.Sequence,4_82,2023-09-06T20:20:00.425Z,,0,,,2888.5400000000373,completion,,,,,false,,,,1657563,1657563,1654673.98,1654676,1654674.46,1657564.36,8,400,,,
trial,html.Screen,4_83_0,2023-09-06T20:20:03.279Z,,0,2,,2852.6399999998976,response,ISIC_0032522.JPG,11,ISIC_0004789.JPG,ISIC_0004789.JPG,false,0,keypress(z),500,1660417,1660417,1657560.34,1657563,1657564.36,1660417.08,8,400,34,,ISIC_0032522.JPG
break,html.Screen,4_83_1,2023-09-06T20:20:03.280Z,,0,,,NaN,,,,,,false,,,,1660417,1660417,,1660417,,1660417.08,8,400,,,
break_continue,html.Screen,4_83_2,2023-09-06T20:20:03.280Z,,0,,,NaN,,,,,,false,,,,1660418,1660418,,1660417,,1660417.08,8,400,,,
sequence,flow.Sequence,4_83,2023-09-06T20:20:03.280Z,,0,,,2853.6399999998976,completion,,,,,false,,,,1660418,1660418,1657560.34,1657563,1657564.36,1660417.08,8,400,,,
trial,html.Screen,4_84_0,2023-09-06T20:20:06.173Z,,0,2,,2892.9199999999255,response,ISIC_0032965.JPG,6,ISIC_2153686.JPG,ISIC_2153686.JPG,false,0,keypress(z),500,1663310,1663310,1660416.76,1660418,1660417.08,1663311.12,8,400,35,,ISIC_0032965.JPG
break,html.Screen,4_84_1,2023-09-06T20:20:06.174Z,,0,,,NaN,,,,,,false,,,,1663311,1663311,,1663310,,1663311.12,8,400,,,
break_continue,html.Screen,4_84_2,2023-09-06T20:20:06.174Z,,0,,,NaN,,,,,,false,,,,1663311,1663311,,1663311,,1663311.12,8,400,,,
sequence,flow.Sequence,4_84,2023-09-06T20:20:06.174Z,,0,,,2893.9199999999255,completion,,,,,false,,,,1663311,1663311,1660416.76,1660418,1660417.08,1663311.12,8,400,,,
trial,html.Screen,4_85_0,2023-09-06T20:20:09.271Z,,0,2,,3096.8799999998882,response,ISIC_0065468.JPG,29,ISIC_0056902.JPG,ISIC_0065468.JPG,false,1,keypress(m),500,1666409,1666408,1663310.8,1663311,1663311.12,1666409.3,8,400,36,,ISIC_0056902.JPG
break,html.Screen,4_85_1,2023-09-06T20:20:09.272Z,,0,,,NaN,,,,,,false,,,,1666409,1666409,,1666409,,1666409.3,8,400,,,
break_continue,html.Screen,4_85_2,2023-09-06T20:20:09.273Z,,0,,,NaN,,,,,,false,,,,1666410,1666410,,1666409,,1666409.3,8,400,,,
sequence,flow.Sequence,4_85,2023-09-06T20:20:09.273Z,,0,,,3098.8799999998882,completion,,,,,false,,,,1666410,1666410,1663310.8,1663311,1663311.12,1666409.3,8,400,,,
trial,html.Screen,4_86_0,2023-09-06T20:20:13.099Z,,0,2,,3823.6999999999534,response,ISIC_0024351.JPG,9,ISIC_8759207.JPG,ISIC_0024351.JPG,false,1,keypress(m),500,1670236,1670233,1666408.96,1666410,1666409.3,1670238.54,8,400,37,,ISIC_8759207.JPG
break,html.Screen,4_86_1,2023-09-06T20:20:13.103Z,,0,,,NaN,,,,,,false,,,,1670240,1670239,,1670237,,1670238.54,8,400,,,
break_continue,html.Screen,4_86_2,2023-09-06T20:20:13.103Z,,0,,,NaN,,,,,,false,,,,1670241,1670241,,1670241,,1670238.54,8,400,,,
sequence,flow.Sequence,4_86,2023-09-06T20:20:13.105Z,,0,,,3831.6999999999534,completion,,,,,false,,,,1670242,1670241,1666408.96,1666410,1666409.3,1670238.54,8,400,,,
trial,html.Screen,4_87_0,2023-09-06T20:20:15.759Z,,0,2,,2657.4599999999627,response,ISIC_0059264.JPG,16,ISIC_4007322.JPG,ISIC_4007322.JPG,false,0,keypress(z),500,1672897,1672896,1670237.92,1670243,1670238.54,1672897.38,8,400,38,,ISIC_0059264.JPG
break,html.Screen,4_87_1,2023-09-06T20:20:15.760Z,,0,,,NaN,,,,,,false,,,,1672898,1672898,,1672897,,1672897.38,8,400,,,
break_continue,html.Screen,4_87_2,2023-09-06T20:20:15.760Z,,0,,,NaN,,,,,,false,,,,1672898,1672898,,1672898,,1672897.38,8,400,,,
sequence,flow.Sequence,4_87,2023-09-06T20:20:15.760Z,,0,,,2659.4599999999627,completion,,,,,false,,,,1672898,1672898,1670237.92,1670242,1670238.54,1672897.38,8,400,,,
trial,html.Screen,4_88_0,2023-09-06T20:20:20.532Z,,0,2,,4772.620000000112,response,ISIC_0032561.JPG,16,ISIC_0027479.JPG,ISIC_0032561.JPG,false,1,keypress(m),500,1677670,1677670,1672897.08,1672899,1672897.38,1677670.4,8,400,39,,ISIC_0027479.JPG
break,html.Screen,4_88_1,2023-09-06T20:20:20.533Z,,0,,,NaN,,,,,,false,,,,1677671,1677671,,1677670,,1677670.4,8,400,,,
break_continue,html.Screen,4_88_2,2023-09-06T20:20:20.534Z,,0,,,NaN,,,,,,false,,,,1677672,1677671,,1677671,,1677670.4,8,400,,,
sequence,flow.Sequence,4_88,2023-09-06T20:20:20.534Z,,0,,,4773.620000000112,completion,,,,,false,,,,1677672,1677671,1672897.08,1672899,1672897.38,1677670.4,8,400,,,
trial,html.Screen,4_89_0,2023-09-06T20:20:23.445Z,,0,2,,2911.600000000093,response,ISIC_0025616.JPG,8,ISIC_0010174.JPG,ISIC_0025616.JPG,false,1,keypress(m),500,1680583,1680582,1677670.02,1677672,1677670.4,1680583.48,8,400,40,,ISIC_0010174.JPG
break,html.Screen,4_89_1,2023-09-06T20:20:23.447Z,,0,,,NaN,,,,,,false,,,,1680584,1680583,,1680583,,1680583.48,8,400,,,
break_continue,html.Screen,4_89_2,2023-09-06T20:20:23.447Z,,0,,,NaN,,,,,,false,,,,1680584,1680584,,1680584,,1680583.48,8,400,,,
sequence,flow.Sequence,4_89,2023-09-06T20:20:23.447Z,,0,,,2913.600000000093,completion,,,,,false,,,,1680584,1680584,1677670.02,1677672,1677670.4,1680583.48,8,400,,,
trial,html.Screen,4_90_0,2023-09-06T20:20:29.414Z,,0,2,,5966.520000000019,response,ISIC_5397818.JPG,20,ISIC_0256715.JPG,ISIC_0256715.JPG,false,0,keypress(z),500,1686551,1686550,1680583.12,1680584,1680583.48,1686551.54,8,400,41,,ISIC_5397818.JPG
break,html.Screen,4_90_1,2023-09-06T20:20:29.414Z,,0,,,NaN,,,,,,false,,,,1686552,1686551,,1686551,,1686551.54,8,400,,,
break_continue,html.Screen,4_90_2,2023-09-06T20:20:29.415Z,,0,,,NaN,,,,,,false,,,,1686552,1686552,,1686552,,1686551.54,8,400,,,
sequence,flow.Sequence,4_90,2023-09-06T20:20:29.415Z,,0,,,5968.520000000019,completion,,,,,false,,,,1686552,1686552,1680583.12,1680584,1680583.48,1686551.54,8,400,,,
trial,html.Screen,4_91_0,2023-09-06T20:20:33.433Z,,0,2,,4018.4599999999627,response,ISIC_4084359.JPG,10,ISIC_5226371.JPG,ISIC_5226371.JPG,false,0,keypress(z),500,1690570,1690570,1686551.2,1686552,1686551.54,1690595.16,8,400,42,,ISIC_4084359.JPG
break,html.Screen,4_91_1,2023-09-06T20:20:33.435Z,,0,,,NaN,,,,,,false,,,,1690572,1690571,,1690571,,1690595.16,8,400,,,
break_continue,html.Screen,4_91_2,2023-09-06T20:20:33.436Z,,0,,,NaN,,,,,,false,,,,1690573,1690573,,1690572,,1690595.16,8,400,,,
sequence,flow.Sequence,4_91,2023-09-06T20:20:33.437Z,,0,,,4021.4599999999627,completion,,,,,false,,,,1690574,1690573,1686551.2,1686552,1686551.54,1690595.16,8,400,,,
trial,html.Screen,4_92_0,2023-09-06T20:20:37.038Z,,0,2,,3579.840000000084,response,ISIC_4646815.JPG,18,ISIC_8892663.JPG,ISIC_8892663.JPG,false,0,keypress(z),500,1694176,1694175,1690578.46,1690574,1690595.16,1694176.68,8,400,43,,ISIC_4646815.JPG
break,html.Screen,4_92_1,2023-09-06T20:20:37.040Z,,0,,,NaN,,,,,,false,,,,1694177,1694177,,1694176,,1694176.68,8,400,,,
break_continue,html.Screen,4_92_2,2023-09-06T20:20:37.041Z,,0,,,NaN,,,,,,false,,,,1694178,1694178,,1694177,,1694176.68,8,400,,,
sequence,flow.Sequence,4_92,2023-09-06T20:20:37.041Z,,0,,,3582.840000000084,completion,,,,,false,,,,1694179,1694178,1690578.46,1690574,1690595.16,1694176.68,8,400,,,
trial,html.Screen,4_93_0,2023-09-06T20:20:39.680Z,,0,2,,2640.320000000065,response,ISIC_0063473.JPG,17,ISIC_9718067.JPG,ISIC_9718067.JPG,false,0,keypress(z),500,1696817,1696817,1694176.08,1694179,1694176.68,1696818.1,8,400,44,,ISIC_0063473.JPG
break,html.Screen,4_93_1,2023-09-06T20:20:39.681Z,,0,,,NaN,,,,,,false,,,,1696819,1696818,,1696818,,1696818.1,8,400,,,
break_continue,html.Screen,4_93_2,2023-09-06T20:20:39.682Z,,0,,,NaN,,,,,,false,,,,1696820,1696819,,1696819,,1696818.1,8,400,,,
sequence,flow.Sequence,4_93,2023-09-06T20:20:39.683Z,,0,,,2642.320000000065,completion,,,,,false,,,,1696820,1696819,1694176.08,1694179,1694176.68,1696818.1,8,400,,,
trial,html.Screen,4_94_0,2023-09-06T20:20:43.312Z,,0,2,,3629.899999999907,response,ISIC_2310935.JPG,4,ISIC_0055412.JPG,ISIC_2310935.JPG,false,1,keypress(m),500,1700449,1700448,1696817.56,1696821,1696818.1,1700464.48,8,400,45,,ISIC_0055412.JPG
break,html.Screen,4_94_1,2023-09-06T20:20:43.313Z,,0,,,NaN,,,,,,false,,,,1700450,1700450,,1700449,,1700464.48,8,400,,,
break_continue,html.Screen,4_94_2,2023-09-06T20:20:43.314Z,,0,,,NaN,,,,,,false,,,,1700451,1700451,,1700451,,1700464.48,8,400,,,
sequence,flow.Sequence,4_94,2023-09-06T20:20:43.314Z,,0,,,3632.899999999907,completion,,,,,false,,,,1700451,1700451,1696817.56,1696821,1696818.1,1700464.48,8,400,,,
trial,html.Screen,4_95_0,2023-09-06T20:20:46.801Z,,0,2,,3472.5200000000186,response,ISIC_0033175.JPG,24,ISIC_4718237.JPG,ISIC_4718237.JPG,false,0,keypress(z),500,1703938,1703937,1700447.78,1700451,1700464.48,1703954.5,8,400,46,,ISIC_0033175.JPG
break,html.Screen,4_95_1,2023-09-06T20:20:46.803Z,,0,,,NaN,,,,,,false,,,,1703940,1703939,,1703938,,1703954.5,8,400,,,
break_continue,html.Screen,4_95_2,2023-09-06T20:20:46.804Z,,0,,,NaN,,,,,,false,,,,1703941,1703941,,1703940,,1703954.5,8,400,,,
sequence,flow.Sequence,4_95,2023-09-06T20:20:46.804Z,,0,,,3476.5200000000186,completion,,,,,false,,,,1703941,1703941,1700447.78,1700451,1700464.48,1703954.5,8,400,,,
trial,html.Screen,4_96_0,2023-09-06T20:20:50.815Z,,0,2,,3997.5,response,ISIC_0056979.JPG,6,ISIC_0056391.JPG,ISIC_0056391.JPG,false,0,keypress(z),500,1707952,1707952,1703938.84,1703941,1703954.5,1707952.66,8,400,47,,ISIC_0056979.JPG
break,html.Screen,4_96_1,2023-09-06T20:20:50.816Z,,0,,,NaN,,,,,,false,,,,1707953,1707953,,1707952,,1707952.66,8,400,,,
break_continue,html.Screen,4_96_2,2023-09-06T20:20:50.817Z,,0,,,NaN,,,,,,false,,,,1707954,1707954,,1707954,,1707952.66,8,400,,,
sequence,flow.Sequence,4_96,2023-09-06T20:20:50.817Z,,0,,,3999.5,completion,,,,,false,,,,1707954,1707954,1703938.84,1703941,1703954.5,1707952.66,8,400,,,
trial,html.Screen,4_97_0,2023-09-06T20:20:53.650Z,,0,2,,2835.340000000084,response,ISIC_0192490.JPG,12,ISIC_3985031.JPG,ISIC_0192490.JPG,false,1,keypress(m),500,1710788,1710788,1707952.26,1707954,1707952.66,1710788.56,8,400,48,,ISIC_3985031.JPG
break,html.Screen,4_97_1,2023-09-06T20:20:53.652Z,,0,,,NaN,,,,,,false,,,,1710789,1710789,,1710788,,1710788.56,8,400,,,
break_continue,html.Screen,4_97_2,2023-09-06T20:20:53.652Z,,0,,,NaN,,,,,,false,,,,1710790,1710790,,1710790,,1710788.56,8,400,,,
sequence,flow.Sequence,4_97,2023-09-06T20:20:53.653Z,,0,,,2837.340000000084,completion,,,,,false,,,,1710790,1710790,1707952.26,1707954,1707952.66,1710788.56,8,400,,,
trial,html.Screen,4_98_0,2023-09-06T20:20:57.593Z,,0,2,,3940.439999999944,response,ISIC_1331993.JPG,26,ISIC_7147898.JPG,ISIC_7147898.JPG,false,0,keypress(z),500,1714730,1714729,1710788.12,1710791,1710788.56,1714730.8,8,400,49,,ISIC_1331993.JPG
break,html.Screen,4_98_1,2023-09-06T20:20:57.594Z,,0,,,NaN,,,,,,false,,,,1714731,1714730,,1714730,,1714730.8,8,400,,,
break_continue,html.Screen,4_98_2,2023-09-06T20:20:57.595Z,,0,,,NaN,,,,,,false,,,,1714733,1714732,,1714732,,1714730.8,8,400,,,
sequence,flow.Sequence,4_98,2023-09-06T20:20:57.595Z,,0,,,3943.439999999944,completion,,,,,false,,,,1714733,1714732,1710788.12,1710791,1710788.56,1714730.8,8,400,,,
trial,html.Screen,4_99_0,2023-09-06T20:21:01.553Z,,0,2,,3959.1999999999534,response,ISIC_0339930.JPG,6,ISIC_0059390.JPG,ISIC_0339930.JPG,false,1,keypress(m),500,1718690,1718690,1714730.26,1714733,1714730.8,1718691.04,8,400,50,,ISIC_0059390.JPG
break,html.Screen,4_99_1,2023-09-06T20:21:11.867Z,,0,,,10328.85999999987,timeout,,,,,false,,,,1729004,1729003.48,1718690.5,1718691,1718691.04,1729019.9,8,400,,,
break_continue,html.Screen,4_99_2,2023-09-06T20:21:14.736Z,,0,,,2820.100000000093,response,,,,,false,continue,keypress(Space),,1731873,1731840,1729003.48,1729004,1729019.9,1731875.56,8,400,,,
sequence,flow.Sequence,4_99,2023-09-06T20:21:14.736Z,,0,,,17109.199999999953,completion,,,,,false,,,,1731873,1731840,1714730.26,1714733,1714730.8,1731875.56,8,400,,,
trial,html.Screen,4_100_0,2023-09-06T20:21:17.520Z,,0,3,,2781.439999999944,response,ISIC_7057495.JPG,21,ISIC_9141817.JPG,ISIC_7057495.JPG,false,1,keypress(m),500,1734657,1734657,1731873.62,1731873,1731875.56,1734657.34,8,400,1,,ISIC_9141817.JPG
break,html.Screen,4_100_1,2023-09-06T20:21:17.521Z,,0,,,NaN,,,,,,false,,,,1734657,1734657,,1734657,,1734657.34,8,400,,,
break_continue,html.Screen,4_100_2,2023-09-06T20:21:17.521Z,,0,,,NaN,,,,,,false,,,,1734658,1734657,,1734657,,1734657.34,8,400,,,
sequence,flow.Sequence,4_100,2023-09-06T20:21:17.521Z,,0,,,2781.439999999944,completion,,,,,false,,,,1734658,1734657,1731873.62,1731873,1731875.56,1734657.34,8,400,,,
trial,html.Screen,4_101_0,2023-09-06T20:21:20.877Z,,0,3,,3356.659999999916,response,ISIC_0060700.JPG,17,ISIC_1793624.JPG,ISIC_1793624.JPG,false,0,keypress(z),500,1738014,1738014,1734657,1734658,1734657.34,1738014.9,8,400,2,,ISIC_0060700.JPG
break,html.Screen,4_101_1,2023-09-06T20:21:20.878Z,,0,,,NaN,,,,,,false,,,,1738016,1738015,,1738015,,1738014.9,8,400,,,
break_continue,html.Screen,4_101_2,2023-09-06T20:21:20.879Z,,0,,,NaN,,,,,,false,,,,1738016,1738016,,1738016,,1738014.9,8,400,,,
sequence,flow.Sequence,4_101,2023-09-06T20:21:20.879Z,,0,,,3358.659999999916,completion,,,,,false,,,,1738016,1738016,1734657,1734658,1734657.34,1738014.9,8,400,,,
trial,html.Screen,4_102_0,2023-09-06T20:21:26.794Z,,0,3,,5915.100000000093,response,ISIC_6017985.JPG,6,ISIC_3784812.JPG,ISIC_3784812.JPG,false,0,keypress(z),500,1743930,1743930,1738014.44,1738017,1738014.9,1743932.3,8,400,3,,ISIC_6017985.JPG
break,html.Screen,4_102_1,2023-09-06T20:21:26.795Z,,0,,,NaN,,,,,,false,,,,1743931,1743931,,1743931,,1743932.3,8,400,,,
break_continue,html.Screen,4_102_2,2023-09-06T20:21:26.795Z,,0,,,NaN,,,,,,false,,,,1743931,1743931,,1743931,,1743932.3,8,400,,,
sequence,flow.Sequence,4_102,2023-09-06T20:21:26.795Z,,0,,,5916.100000000093,completion,,,,,false,,,,1743931,1743931,1738014.44,1738017,1738014.9,1743932.3,8,400,,,
trial,html.Screen,4_103_0,2023-09-06T20:21:30.815Z,,0,3,,4018.6999999999534,response,ISIC_1595103.JPG,11,ISIC_0027072.JPG,ISIC_1595103.JPG,false,1,keypress(m),500,1747951,1747951,1743930.66,1743932,1743932.3,1747973.46,8,400,4,,ISIC_0027072.JPG
break,html.Screen,4_103_1,2023-09-06T20:21:30.816Z,,0,,,NaN,,,,,,false,,,,1747953,1747952,,1747952,,1747973.46,8,400,,,
break_continue,html.Screen,4_103_2,2023-09-06T20:21:30.817Z,,0,,,NaN,,,,,,false,,,,1747954,1747953,,1747953,,1747973.46,8,400,,,
sequence,flow.Sequence,4_103,2023-09-06T20:21:30.817Z,,0,,,4020.6999999999534,completion,,,,,false,,,,1747954,1747953,1743930.66,1743931,1743932.3,1747973.46,8,400,,,
trial,html.Screen,4_104_0,2023-09-06T20:21:36.053Z,,0,3,,5215.540000000037,response,ISIC_6920867.JPG,7,ISIC_5231145.JPG,ISIC_6920867.JPG,false,1,keypress(m),500,1753189,1753189,1747956.76,1747955,1747973.46,1753190.3,8,400,5,,ISIC_5231145.JPG
break,html.Screen,4_104_1,2023-09-06T20:21:36.054Z,,0,,,NaN,,,,,,false,,,,1753191,1753190,,1753190,,1753190.3,8,400,,,
break_continue,html.Screen,4_104_2,2023-09-06T20:21:36.055Z,,0,,,NaN,,,,,,false,,,,1753191,1753191,,1753191,,1753190.3,8,400,,,
sequence,flow.Sequence,4_104,2023-09-06T20:21:36.055Z,,0,,,5217.540000000037,completion,,,,,false,,,,1753192,1753191,1747956.76,1747954,1747973.46,1753190.3,8,400,,,
trial,html.Screen,4_105_0,2023-09-06T20:21:42.200Z,,0,3,,6145.699999999953,response,ISIC_2603420.JPG,23,ISIC_9630931.JPG,ISIC_9630931.JPG,false,0,keypress(z),500,1759336,1759336,1753189.86,1753192,1753190.3,1759336.76,8,400,6,,ISIC_2603420.JPG
break,html.Screen,4_105_1,2023-09-06T20:21:42.200Z,,0,,,NaN,,,,,,false,,,,1759337,1759337,,1759336,,1759336.76,8,400,,,
break_continue,html.Screen,4_105_2,2023-09-06T20:21:42.200Z,,0,,,NaN,,,,,,false,,,,1759337,1759337,,1759337,,1759336.76,8,400,,,
sequence,flow.Sequence,4_105,2023-09-06T20:21:42.200Z,,0,,,6146.699999999953,completion,,,,,false,,,,1759337,1759337,1753189.86,1753192,1753190.3,1759336.76,8,400,,,
trial,html.Screen,4_106_0,2023-09-06T20:21:45.984Z,,0,3,,3784.2399999999907,response,ISIC_0053841.JPG,11,ISIC_1071355.JPG,ISIC_1071355.JPG,false,0,keypress(z),500,1763121,1763121,1759336.6,1759337,1759336.76,1763153.04,8,400,7,,ISIC_0053841.JPG
break,html.Screen,4_106_1,2023-09-06T20:21:45.986Z,,0,,,NaN,,,,,,false,,,,1763123,1763122,,1763122,,1763153.04,8,400,,,
break_continue,html.Screen,4_106_2,2023-09-06T20:21:45.987Z,,0,,,NaN,,,,,,false,,,,1763124,1763123,,1763123,,1763153.04,8,400,,,
sequence,flow.Sequence,4_106,2023-09-06T20:21:45.987Z,,0,,,3786.2399999999907,completion,,,,,false,,,,1763124,1763123,1759336.6,1759337,1759336.76,1763153.04,8,400,,,
trial,html.Screen,4_107_0,2023-09-06T20:21:51.684Z,,0,3,,5667.959999999963,response,ISIC_6125358.JPG,5,ISIC_5821293.JPG,ISIC_5821293.JPG,false,0,keypress(z),500,1768821,1768821,1763136.44,1763124,1763153.04,1768821.2,8,400,8,,ISIC_6125358.JPG
break,html.Screen,4_107_1,2023-09-06T20:21:51.685Z,,0,,,NaN,,,,,,false,,,,1768822,1768822,,1768821,,1768821.2,8,400,,,
break_continue,html.Screen,4_107_2,2023-09-06T20:21:51.685Z,,0,,,NaN,,,,,,false,,,,1768822,1768822,,1768822,,1768821.2,8,400,,,
sequence,flow.Sequence,4_107,2023-09-06T20:21:51.685Z,,0,,,5668.959999999963,completion,,,,,false,,,,1768822,1768822,1763136.44,1763124,1763153.04,1768821.2,8,400,,,
trial,html.Screen,4_108_0,2023-09-06T20:21:54.476Z,,0,3,,2791.8000000000466,response,ISIC_9397126.JPG,11,ISIC_0028361.JPG,ISIC_9397126.JPG,false,1,keypress(m),500,1771613,1771613,1768820.88,1768822,1768821.2,1771613.24,8,400,9,,ISIC_0028361.JPG
break,html.Screen,4_108_1,2023-09-06T20:21:54.477Z,,0,,,NaN,,,,,,false,,,,1771613,1771613,,1771613,,1771613.24,8,400,,,
break_continue,html.Screen,4_108_2,2023-09-06T20:21:54.477Z,,0,,,NaN,,,,,,false,,,,1771613,1771613,,1771613,,1771613.24,8,400,,,
sequence,flow.Sequence,4_108,2023-09-06T20:21:54.477Z,,0,,,2791.8000000000466,completion,,,,,false,,,,1771613,1771613,1768820.88,1768822,1768821.2,1771613.24,8,400,,,
trial,html.Screen,4_109_0,2023-09-06T20:21:57.515Z,,0,3,,3037.7600000000093,response,ISIC_0013073.JPG,10,ISIC_7404937.JPG,ISIC_7404937.JPG,false,0,keypress(z),500,1774651,1774651,1771613.1,1771614,1771613.24,1774651.58,8,400,10,,ISIC_0013073.JPG
break,html.Screen,4_109_1,2023-09-06T20:21:57.515Z,,0,,,NaN,,,,,,false,,,,1774652,1774651,,1774651,,1774651.58,8,400,,,
break_continue,html.Screen,4_109_2,2023-09-06T20:21:57.515Z,,0,,,NaN,,,,,,false,,,,1774652,1774652,,1774652,,1774651.58,8,400,,,
sequence,flow.Sequence,4_109,2023-09-06T20:21:57.515Z,,0,,,3038.7600000000093,completion,,,,,false,,,,1774652,1774652,1771613.1,1771614,1771613.24,1774651.58,8,400,,,
trial,html.Screen,4_110_0,2023-09-06T20:22:00.542Z,,0,3,,3025.4199999999255,response,ISIC_0064023.JPG,29,ISIC_2105563.JPG,ISIC_2105563.JPG,false,0,keypress(z),500,1777679,1777677,1774651.32,1774652,1774651.58,1777681.4,8,400,11,,ISIC_0064023.JPG
break,html.Screen,4_110_1,2023-09-06T20:22:00.543Z,,0,,,NaN,,,,,,false,,,,1777679,1777679,,1777679,,1777681.4,8,400,,,
break_continue,html.Screen,4_110_2,2023-09-06T20:22:00.543Z,,0,,,NaN,,,,,,false,,,,1777680,1777679,,1777679,,1777681.4,8,400,,,
sequence,flow.Sequence,4_110,2023-09-06T20:22:00.544Z,,0,,,3027.4199999999255,completion,,,,,false,,,,1777681,1777679,1774651.32,1774652,1774651.58,1777681.4,8,400,,,
trial,html.Screen,4_111_0,2023-09-06T20:22:03.933Z,,0,3,,3387.600000000093,response,ISIC_0010046.JPG,1,ISIC_0283957.JPG,ISIC_0283957.JPG,false,0,keypress(z),500,1781069,1781069,1777678.4,1777681,1777681.4,1781071.32,8,400,12,,ISIC_0010046.JPG
break,html.Screen,4_111_1,2023-09-06T20:22:03.934Z,,0,,,NaN,,,,,,false,,,,1781070,1781070,,1781069,,1781071.32,8,400,,,
break_continue,html.Screen,4_111_2,2023-09-06T20:22:03.934Z,,0,,,NaN,,,,,,false,,,,1781071,1781070,,1781070,,1781071.32,8,400,,,
sequence,flow.Sequence,4_111,2023-09-06T20:22:03.934Z,,0,,,3388.600000000093,completion,,,,,false,,,,1781071,1781070,1777678.4,1777681,1777681.4,1781071.32,8,400,,,
trial,html.Screen,4_112_0,2023-09-06T20:22:10.052Z,,0,3,,6116.679999999935,response,ISIC_7162711.JPG,23,ISIC_0030921.JPG,ISIC_0030921.JPG,false,0,keypress(z),500,1787188,1787188,1781069.08,1781071,1781071.32,1787189.06,8,400,13,,ISIC_7162711.JPG
break,html.Screen,4_112_1,2023-09-06T20:22:10.053Z,,0,,,NaN,,,,,,false,,,,1787189,1787189,,1787188,,1787189.06,8,400,,,
break_continue,html.Screen,4_112_2,2023-09-06T20:22:10.054Z,,0,,,NaN,,,,,,false,,,,1787190,1787190,,1787190,,1787189.06,8,400,,,
sequence,flow.Sequence,4_112,2023-09-06T20:22:10.054Z,,0,,,6118.679999999935,completion,,,,,false,,,,1787190,1787190,1781069.08,1781071,1781071.32,1787189.06,8,400,,,
trial,html.Screen,4_113_0,2023-09-06T20:22:13.270Z,,0,3,,3216.939999999944,response,ISIC_0012721.JPG,21,ISIC_0029112.JPG,ISIC_0012721.JPG,false,1,keypress(m),500,1790406,1790406,1787188.48,1787191,1787189.06,1790407.5,8,400,14,,ISIC_0029112.JPG
break,html.Screen,4_113_1,2023-09-06T20:22:13.272Z,,0,,,NaN,,,,,,false,,,,1790408,1790407,,1790407,,1790407.5,8,400,,,
break_continue,html.Screen,4_113_2,2023-09-06T20:22:13.272Z,,0,,,NaN,,,,,,false,,,,1790408,1790408,,1790408,,1790407.5,8,400,,,
sequence,flow.Sequence,4_113,2023-09-06T20:22:13.273Z,,0,,,3218.939999999944,completion,,,,,false,,,,1790409,1790408,1787188.48,1787191,1787189.06,1790407.5,8,400,,,
trial,html.Screen,4_114_0,2023-09-06T20:22:18.309Z,,0,3,,5036.5,response,ISIC_0072893.JPG,16,ISIC_0000482.JPG,ISIC_0000482.JPG,false,0,keypress(z),500,1795445,1795444,1790406.92,1790409,1790407.5,1795449.26,8,400,15,,ISIC_0072893.JPG
break,html.Screen,4_114_1,2023-09-06T20:22:18.310Z,,0,,,NaN,,,,,,false,,,,1795446,1795446,,1795445,,1795449.26,8,400,,,
break_continue,html.Screen,4_114_2,2023-09-06T20:22:18.310Z,,0,,,NaN,,,,,,false,,,,1795446,1795446,,1795446,,1795449.26,8,400,,,
sequence,flow.Sequence,4_114,2023-09-06T20:22:18.310Z,,0,,,5038.5,completion,,,,,false,,,,1795446,1795446,1790406.92,1790409,1790407.5,1795449.26,8,400,,,
trial,html.Screen,4_115_0,2023-09-06T20:22:21.207Z,,0,3,,2892.7399999999907,response,ISIC_0070137.JPG,5,ISIC_7714981.JPG,ISIC_7714981.JPG,false,0,keypress(z),500,1798343,1798342,1795444.76,1795446,1795449.26,1798344.14,8,400,16,,ISIC_0070137.JPG
break,html.Screen,4_115_1,2023-09-06T20:22:21.208Z,,0,,,NaN,,,,,,false,,,,1798344,1798344,,1798343,,1798344.14,8,400,,,
break_continue,html.Screen,4_115_2,2023-09-06T20:22:21.209Z,,0,,,NaN,,,,,,false,,,,1798346,1798346,,1798345,,1798344.14,8,400,,,
sequence,flow.Sequence,4_115,2023-09-06T20:22:21.210Z,,0,,,2896.7399999999907,completion,,,,,false,,,,1798346,1798346,1795444.76,1795446,1795449.26,1798344.14,8,400,,,
trial,html.Screen,4_116_0,2023-09-06T20:22:25.036Z,,0,3,,3826.8600000001024,response,ISIC_0068975.JPG,8,ISIC_0033692.JPG,ISIC_0033692.JPG,false,0,keypress(z),500,1802171,1802171,1798343.46,1798347,1798344.14,1802172.24,8,400,17,,ISIC_0068975.JPG
break,html.Screen,4_116_1,2023-09-06T20:22:25.037Z,,0,,,NaN,,,,,,false,,,,1802172,1802172,,1802171,,1802172.24,8,400,,,
break_continue,html.Screen,4_116_2,2023-09-06T20:22:25.037Z,,0,,,NaN,,,,,,false,,,,1802172,1802172,,1802172,,1802172.24,8,400,,,
sequence,flow.Sequence,4_116,2023-09-06T20:22:25.037Z,,0,,,3827.8600000001024,completion,,,,,false,,,,1802172,1802172,1798343.46,1798347,1798344.14,1802172.24,8,400,,,
trial,html.Screen,4_117_0,2023-09-06T20:22:28.537Z,,0,3,,3499.7600000000093,response,ISIC_8901133.JPG,28,ISIC_5610222.JPG,ISIC_5610222.JPG,false,0,keypress(z),500,1805672,1805672,1802171.82,1802173,1802172.24,1805673.36,8,400,18,,ISIC_8901133.JPG
break,html.Screen,4_117_1,2023-09-06T20:22:28.538Z,,0,,,NaN,,,,,,false,,,,1805673,1805673,,1805673,,1805673.36,8,400,,,
break_continue,html.Screen,4_117_2,2023-09-06T20:22:28.538Z,,0,,,NaN,,,,,,false,,,,1805674,1805674,,1805674,,1805673.36,8,400,,,
sequence,flow.Sequence,4_117,2023-09-06T20:22:28.538Z,,0,,,3501.7600000000093,completion,,,,,false,,,,1805674,1805674,1802171.82,1802173,1802172.24,1805673.36,8,400,,,
trial,html.Screen,4_118_0,2023-09-06T20:22:31.581Z,,0,3,,3043.6399999998976,response,ISIC_0001480.JPG,2,ISIC_0070032.JPG,ISIC_0001480.JPG,false,1,keypress(m),500,1808717,1808717,1805672.86,1805674,1805673.36,1808717.32,8,400,19,,ISIC_0070032.JPG
break,html.Screen,4_118_1,2023-09-06T20:22:31.582Z,,0,,,NaN,,,,,,false,,,,1808718,1808718,,1808717,,1808717.32,8,400,,,
break_continue,html.Screen,4_118_2,2023-09-06T20:22:31.582Z,,0,,,NaN,,,,,,false,,,,1808718,1808718,,1808718,,1808717.32,8,400,,,
sequence,flow.Sequence,4_118,2023-09-06T20:22:31.582Z,,0,,,3044.6399999998976,completion,,,,,false,,,,1808719,1808718,1805672.86,1805674,1805673.36,1808717.32,8,400,,,
trial,html.Screen,4_119_0,2023-09-06T20:22:39.188Z,,0,3,,7605.679999999935,response,ISIC_5555140.JPG,3,ISIC_1696516.JPG,ISIC_5555140.JPG,false,1,keypress(m),500,1816324,1816323,1808717.2,1808719,1808717.32,1816323.7,8,400,20,,ISIC_1696516.JPG
break,html.Screen,4_119_1,2023-09-06T20:22:39.188Z,,0,,,NaN,,,,,,false,,,,1816324,1816324,,1816324,,1816323.7,8,400,,,
break_continue,html.Screen,4_119_2,2023-09-06T20:22:39.188Z,,0,,,NaN,,,,,,false,,,,1816324,1816324,,1816324,,1816323.7,8,400,,,
sequence,flow.Sequence,4_119,2023-09-06T20:22:39.188Z,,0,,,7606.679999999935,completion,,,,,false,,,,1816324,1816324,1808717.2,1808719,1808717.32,1816323.7,8,400,,,
trial,html.Screen,4_120_0,2023-09-06T20:22:41.977Z,,0,3,,2788.3000000000466,response,ISIC_0001923.JPG,1,ISIC_3560519.JPG,ISIC_0001923.JPG,false,1,keypress(m),500,1819112,1819112,1816323.38,1816324,1816323.7,1819112.78,8,400,21,,ISIC_3560519.JPG
break,html.Screen,4_120_1,2023-09-06T20:22:41.978Z,,0,,,NaN,,,,,,false,,,,1819114,1819113,,1819112,,1819112.78,8,400,,,
break_continue,html.Screen,4_120_2,2023-09-06T20:22:41.978Z,,0,,,NaN,,,,,,false,,,,1819114,1819114,,1819114,,1819112.78,8,400,,,
sequence,flow.Sequence,4_120,2023-09-06T20:22:41.978Z,,0,,,2790.3000000000466,completion,,,,,false,,,,1819114,1819114,1816323.38,1816324,1816323.7,1819112.78,8,400,,,
trial,html.Screen,4_121_0,2023-09-06T20:22:45.418Z,,0,3,,3441.219999999972,response,ISIC_4288307.JPG,10,ISIC_5300774.JPG,ISIC_4288307.JPG,false,1,keypress(m),500,1822554,1822554,1819112.62,1819114,1819112.78,1822554.26,8,400,22,,ISIC_5300774.JPG
break,html.Screen,4_121_1,2023-09-06T20:22:45.419Z,,0,,,NaN,,,,,,false,,,,1822555,1822555,,1822554,,1822554.26,8,400,,,
break_continue,html.Screen,4_121_2,2023-09-06T20:22:45.419Z,,0,,,NaN,,,,,,false,,,,1822556,1822555,,1822555,,1822554.26,8,400,,,
sequence,flow.Sequence,4_121,2023-09-06T20:22:45.420Z,,0,,,3442.219999999972,completion,,,,,false,,,,1822556,1822555,1819112.62,1819114,1819112.78,1822554.26,8,400,,,
trial,html.Screen,4_122_0,2023-09-06T20:22:48.163Z,,0,3,,2743.7399999999907,response,ISIC_0060979.JPG,6,ISIC_3009564.JPG,ISIC_3009564.JPG,false,0,keypress(z),500,1825298,1825298,1822554.1,1822556,1822554.26,1825299.16,8,400,23,,ISIC_0060979.JPG
break,html.Screen,4_122_1,2023-09-06T20:22:48.164Z,,0,,,NaN,,,,,,false,,,,1825299,1825299,,1825298,,1825299.16,8,400,,,
break_continue,html.Screen,4_122_2,2023-09-06T20:22:48.165Z,,0,,,NaN,,,,,,false,,,,1825300,1825300,,1825300,,1825299.16,8,400,,,
sequence,flow.Sequence,4_122,2023-09-06T20:22:48.165Z,,0,,,2745.7399999999907,completion,,,,,false,,,,1825300,1825300,1822554.1,1822556,1822554.26,1825299.16,8,400,,,
trial,html.Screen,4_123_0,2023-09-06T20:22:50.809Z,,0,3,,2645.840000000084,response,ISIC_0000173.JPG,5,ISIC_0024846.JPG,ISIC_0024846.JPG,false,0,keypress(z),500,1827945,1827945,1825298.76,1825302,1825299.16,1827945.28,8,400,24,,ISIC_0000173.JPG
break,html.Screen,4_123_1,2023-09-06T20:22:50.810Z,,0,,,NaN,,,,,,false,,,,1827946,1827946,,1827945,,1827945.28,8,400,,,
break_continue,html.Screen,4_123_2,2023-09-06T20:22:50.810Z,,0,,,NaN,,,,,,false,,,,1827947,1827947,,1827946,,1827945.28,8,400,,,
sequence,flow.Sequence,4_123,2023-09-06T20:22:50.810Z,,0,,,2647.840000000084,completion,,,,,false,,,,1827947,1827947,1825298.76,1825301,1825299.16,1827945.28,8,400,,,
trial,html.Screen,4_124_0,2023-09-06T20:22:53.796Z,,0,3,,2986.719999999972,response,ISIC_1727826.JPG,12,ISIC_0024756.JPG,ISIC_1727826.JPG,false,1,keypress(m),500,1830932,1830932,1827945.06,1827947,1827945.28,1830931.92,8,400,25,,ISIC_0024756.JPG
break,html.Screen,4_124_1,2023-09-06T20:22:53.796Z,,0,,,NaN,,,,,,false,,,,1830932,1830932,,1830932,,1830931.92,8,400,,,
break_continue,html.Screen,4_124_2,2023-09-06T20:22:53.797Z,,0,,,NaN,,,,,,false,,,,1830933,1830933,,1830932,,1830931.92,8,400,,,
sequence,flow.Sequence,4_124,2023-09-06T20:22:53.797Z,,0,,,2987.719999999972,completion,,,,,false,,,,1830933,1830933,1827945.06,1827947,1827945.28,1830931.92,8,400,,,
trial,html.Screen,4_125_0,2023-09-06T20:22:56.749Z,,0,3,,2952.0800000000745,response,ISIC_0033813.JPG,2,ISIC_0027132.JPG,ISIC_0027132.JPG,false,0,keypress(z),500,1833884,1833884,1830931.76,1830933,1830931.92,1833884.96,8,400,26,,ISIC_0033813.JPG
break,html.Screen,4_125_1,2023-09-06T20:22:56.750Z,,0,,,NaN,,,,,,false,,,,1833885,1833885,,1833884,,1833884.96,8,400,,,
break_continue,html.Screen,4_125_2,2023-09-06T20:22:56.750Z,,0,,,NaN,,,,,,false,,,,1833885,1833885,,1833885,,1833884.96,8,400,,,
sequence,flow.Sequence,4_125,2023-09-06T20:22:56.750Z,,0,,,2953.0800000000745,completion,,,,,false,,,,1833885,1833885,1830931.76,1830933,1830931.92,1833884.96,8,400,,,
trial,html.Screen,4_126_0,2023-09-06T20:23:04.493Z,,0,3,,7743.040000000037,response,ISIC_5623844.JPG,5,ISIC_0059501.JPG,ISIC_0059501.JPG,false,0,keypress(z),500,1841628,1841628,1833884.8,1833885,1833884.96,1841628.94,8,400,27,,ISIC_5623844.JPG
break,html.Screen,4_126_1,2023-09-06T20:23:04.493Z,,0,,,NaN,,,,,,false,,,,1841629,1841629,,1841628,,1841628.94,8,400,,,
break_continue,html.Screen,4_126_2,2023-09-06T20:23:04.494Z,,0,,,NaN,,,,,,false,,,,1841629,1841629,,1841629,,1841628.94,8,400,,,
sequence,flow.Sequence,4_126,2023-09-06T20:23:04.494Z,,0,,,7744.040000000037,completion,,,,,false,,,,1841629,1841629,1833884.8,1833885,1833884.96,1841628.94,8,400,,,
trial,html.Screen,4_127_0,2023-09-06T20:23:07.219Z,,0,3,,2725.060000000056,response,ISIC_7045042.JPG,24,ISIC_0696303.JPG,ISIC_0696303.JPG,false,0,keypress(z),500,1844354,1844354,1841628.78,1841630,1841628.94,1844354.38,8,400,28,,ISIC_7045042.JPG
break,html.Screen,4_127_1,2023-09-06T20:23:07.219Z,,0,,,NaN,,,,,,false,,,,1844354,1844354,,1844354,,1844354.38,8,400,,,
break_continue,html.Screen,4_127_2,2023-09-06T20:23:07.220Z,,0,,,NaN,,,,,,false,,,,1844355,1844355,,1844354,,1844354.38,8,400,,,
sequence,flow.Sequence,4_127,2023-09-06T20:23:07.220Z,,0,,,2726.060000000056,completion,,,,,false,,,,1844356,1844355,1841628.78,1841630,1841628.94,1844354.38,8,400,,,
trial,html.Screen,4_128_0,2023-09-06T20:23:10.926Z,,0,3,,3707.6200000001118,response,ISIC_0033075.JPG,13,ISIC_0028986.JPG,ISIC_0028986.JPG,false,0,keypress(z),500,1848062,1848062,1844354.2,1844356,1844354.38,1848061.92,8,400,29,,ISIC_0033075.JPG
break,html.Screen,4_128_1,2023-09-06T20:23:10.926Z,,0,,,NaN,,,,,,false,,,,1848062,1848062,,1848062,,1848061.92,8,400,,,
break_continue,html.Screen,4_128_2,2023-09-06T20:23:10.927Z,,0,,,NaN,,,,,,false,,,,1848063,1848063,,1848063,,1848061.92,8,400,,,
sequence,flow.Sequence,4_128,2023-09-06T20:23:10.928Z,,0,,,3708.6200000001118,completion,,,,,false,,,,1848063,1848063,1844354.2,1844356,1844354.38,1848061.92,8,400,,,
trial,html.Screen,4_129_0,2023-09-06T20:23:14.045Z,,0,3,,3118.0800000000745,response,ISIC_8176449.JPG,8,ISIC_0025305.JPG,ISIC_0025305.JPG,false,0,keypress(z),500,1851180,1851180,1848061.76,1848063,1848061.92,1851180.78,8,400,30,,ISIC_8176449.JPG
break,html.Screen,4_129_1,2023-09-06T20:23:14.046Z,,0,,,NaN,,,,,,false,,,,1851182,1851180,,1851180,,1851180.78,8,400,,,
break_continue,html.Screen,4_129_2,2023-09-06T20:23:14.046Z,,0,,,NaN,,,,,,false,,,,1851182,1851182,,1851182,,1851180.78,8,400,,,
sequence,flow.Sequence,4_129,2023-09-06T20:23:14.046Z,,0,,,3120.0800000000745,completion,,,,,false,,,,1851182,1851182,1848061.76,1848063,1848061.92,1851180.78,8,400,,,
trial,html.Screen,4_130_0,2023-09-06T20:23:16.840Z,,0,3,,2794.219999999972,response,ISIC_0055737.JPG,0,ISIC_7942881.JPG,ISIC_0055737.JPG,false,1,keypress(m),500,1853975,1853975,1851180.62,1851182,1851180.78,1853975.3,8,400,31,,ISIC_7942881.JPG
break,html.Screen,4_130_1,2023-09-06T20:23:16.840Z,,0,,,NaN,,,,,,false,,,,1853976,1853976,,1853975,,1853975.3,8,400,,,
break_continue,html.Screen,4_130_2,2023-09-06T20:23:16.840Z,,0,,,NaN,,,,,,false,,,,1853976,1853976,,1853976,,1853975.3,8,400,,,
sequence,flow.Sequence,4_130,2023-09-06T20:23:16.840Z,,0,,,2795.219999999972,completion,,,,,false,,,,1853976,1853976,1851180.62,1851182,1851180.78,1853975.3,8,400,,,
trial,html.Screen,4_131_0,2023-09-06T20:23:20.983Z,,0,3,,4142.699999999953,response,ISIC_7820005.JPG,28,ISIC_1694817.JPG,ISIC_1694817.JPG,false,0,keypress(z),500,1858118,1858118,1853975.14,1853976,1853975.3,1858121.14,8,400,32,,ISIC_7820005.JPG
break,html.Screen,4_131_1,2023-09-06T20:23:20.984Z,,0,,,NaN,,,,,,false,,,,1858119,1858119,,1858119,,1858121.14,8,400,,,
break_continue,html.Screen,4_131_2,2023-09-06T20:23:20.984Z,,0,,,NaN,,,,,,false,,,,1858120,1858120,,1858119,,1858121.14,8,400,,,
sequence,flow.Sequence,4_131,2023-09-06T20:23:20.985Z,,0,,,4144.699999999953,completion,,,,,false,,,,1858120,1858120,1853975.14,1853976,1853975.3,1858121.14,8,400,,,
trial,html.Screen,4_132_0,2023-09-06T20:23:24.213Z,,0,3,,3226.8600000001024,response,ISIC_8174951.JPG,8,ISIC_0000538.JPG,ISIC_8174951.JPG,false,1,keypress(m),500,1861348,1861348,1858118.76,1858120,1858121.14,1861349.28,8,400,33,,ISIC_0000538.JPG
break,html.Screen,4_132_1,2023-09-06T20:23:24.215Z,,0,,,NaN,,,,,,false,,,,1861350,1861349,,1861349,,1861349.28,8,400,,,
break_continue,html.Screen,4_132_2,2023-09-06T20:23:24.216Z,,0,,,NaN,,,,,,false,,,,1861351,1861351,,1861350,,1861349.28,8,400,,,
sequence,flow.Sequence,4_132,2023-09-06T20:23:24.216Z,,0,,,3229.8600000001024,completion,,,,,false,,,,1861351,1861351,1858118.76,1858120,1858121.14,1861349.28,8,400,,,
trial,html.Screen,4_133_0,2023-09-06T20:23:27.597Z,,0,3,,3383.719999999972,response,ISIC_0054559.JPG,5,ISIC_0031800.JPG,ISIC_0031800.JPG,false,0,keypress(z),500,1864733,1864733,1861348.74,1861352,1861349.28,1864733.38,8,400,34,,ISIC_0054559.JPG
break,html.Screen,4_133_1,2023-09-06T20:23:27.598Z,,0,,,NaN,,,,,,false,,,,1864733,1864733,,1864733,,1864733.38,8,400,,,
break_continue,html.Screen,4_133_2,2023-09-06T20:23:27.598Z,,0,,,NaN,,,,,,false,,,,1864734,1864734,,1864734,,1864733.38,8,400,,,
sequence,flow.Sequence,4_133,2023-09-06T20:23:27.598Z,,0,,,3384.719999999972,completion,,,,,false,,,,1864734,1864734,1861348.74,1861352,1861349.28,1864733.38,8,400,,,
trial,html.Screen,4_134_0,2023-09-06T20:23:31.872Z,,0,3,,4274.620000000112,response,ISIC_7053271.JPG,0,ISIC_0031214.JPG,ISIC_7053271.JPG,false,1,keypress(m),500,1869008,1869008,1864733.18,1864734,1864733.38,1869008.78,8,400,35,,ISIC_0031214.JPG
break,html.Screen,4_134_1,2023-09-06T20:23:31.874Z,,0,,,NaN,,,,,,false,,,,1869010,1869009,,1869009,,1869008.78,8,400,,,
break_continue,html.Screen,4_134_2,2023-09-06T20:23:31.875Z,,0,,,NaN,,,,,,false,,,,1869011,1869010,,1869010,,1869008.78,8,400,,,
sequence,flow.Sequence,4_134,2023-09-06T20:23:31.876Z,,0,,,4276.620000000112,completion,,,,,false,,,,1869011,1869010,1864733.18,1864734,1864733.38,1869008.78,8,400,,,
trial,html.Screen,4_135_0,2023-09-06T20:23:35.381Z,,0,3,,3508.219999999972,response,ISIC_9048840.JPG,23,ISIC_7296463.JPG,ISIC_9048840.JPG,false,1,keypress(m),500,1872517,1872517,1869008.32,1869011,1869008.78,1872516.94,8,400,36,,ISIC_7296463.JPG
break,html.Screen,4_135_1,2023-09-06T20:23:35.382Z,,0,,,NaN,,,,,,false,,,,1872517,1872517,,1872517,,1872516.94,8,400,,,
break_continue,html.Screen,4_135_2,2023-09-06T20:23:35.382Z,,0,,,NaN,,,,,,false,,,,1872518,1872518,,1872517,,1872516.94,8,400,,,
sequence,flow.Sequence,4_135,2023-09-06T20:23:35.382Z,,0,,,3509.219999999972,completion,,,,,false,,,,1872518,1872518,1869008.32,1869011,1869008.78,1872516.94,8,400,,,
trial,html.Screen,4_136_0,2023-09-06T20:23:38.937Z,,0,3,,3555.060000000056,response,ISIC_0000065.JPG,0,ISIC_2087913.JPG,ISIC_2087913.JPG,false,0,keypress(z),500,1876072,1876072,1872516.66,1872518,1872516.94,1876073.22,8,400,37,,ISIC_0000065.JPG
break,html.Screen,4_136_1,2023-09-06T20:23:38.939Z,,0,,,NaN,,,,,,false,,,,1876073,1876073,,1876072,,1876073.22,8,400,,,
break_continue,html.Screen,4_136_2,2023-09-06T20:23:38.940Z,,0,,,NaN,,,,,,false,,,,1876074,1876074,,1876074,,1876073.22,8,400,,,
sequence,flow.Sequence,4_136,2023-09-06T20:23:38.940Z,,0,,,3557.060000000056,completion,,,,,false,,,,1876075,1876074,1872516.66,1872518,1872516.94,1876073.22,8,400,,,
trial,html.Screen,4_137_0,2023-09-06T20:23:42.175Z,,0,3,,3236.780000000028,response,ISIC_7795549.JPG,20,ISIC_5028203.JPG,ISIC_7795549.JPG,false,1,keypress(m),500,1879311,1879310,1876072.54,1876075,1876073.22,1879312.5,8,400,38,,ISIC_5028203.JPG
break,html.Screen,4_137_1,2023-09-06T20:23:42.176Z,,0,,,NaN,,,,,,false,,,,1879312,1879311,,1879311,,1879312.5,8,400,,,
break_continue,html.Screen,4_137_2,2023-09-06T20:23:42.177Z,,0,,,NaN,,,,,,false,,,,1879313,1879312,,1879312,,1879312.5,8,400,,,
sequence,flow.Sequence,4_137,2023-09-06T20:23:42.178Z,,0,,,3238.780000000028,completion,,,,,false,,,,1879313,1879312,1876072.54,1876075,1876073.22,1879312.5,8,400,,,
trial,html.Screen,4_138_0,2023-09-06T20:23:46.231Z,,0,3,,4053.5,response,ISIC_3677945.JPG,11,ISIC_0059891.JPG,ISIC_0059891.JPG,false,0,keypress(z),500,1883366,1883366,1879310.7,1879313,1879312.5,1883367.18,8,400,39,,ISIC_3677945.JPG
break,html.Screen,4_138_1,2023-09-06T20:23:46.232Z,,0,,,NaN,,,,,,false,,,,1883367,1883367,,1883366,,1883367.18,8,400,,,
break_continue,html.Screen,4_138_2,2023-09-06T20:23:46.233Z,,0,,,NaN,,,,,,false,,,,1883367,1883367,,1883367,,1883367.18,8,400,,,
sequence,flow.Sequence,4_138,2023-09-06T20:23:46.233Z,,0,,,4054.5,completion,,,,,false,,,,1883368,1883367,1879310.7,1879313,1879312.5,1883367.18,8,400,,,
trial,html.Screen,4_139_0,2023-09-06T20:23:49.672Z,,0,3,,3439.820000000065,response,ISIC_0069370.JPG,11,ISIC_0063748.JPG,ISIC_0063748.JPG,false,0,keypress(z),500,1886808,1886807,1883366.78,1883368,1883367.18,1886810.42,8,400,40,,ISIC_0069370.JPG
break,html.Screen,4_139_1,2023-09-06T20:23:49.673Z,,0,,,NaN,,,,,,false,,,,1886809,1886809,,1886808,,1886810.42,8,400,,,
break_continue,html.Screen,4_139_2,2023-09-06T20:23:49.674Z,,0,,,NaN,,,,,,false,,,,1886810,1886810,,1886809,,1886810.42,8,400,,,
sequence,flow.Sequence,4_139,2023-09-06T20:23:49.675Z,,0,,,3442.820000000065,completion,,,,,false,,,,1886810,1886810,1883366.78,1883368,1883367.18,1886810.42,8,400,,,
trial,html.Screen,4_140_0,2023-09-06T20:23:55.571Z,,0,3,,5895.5800000000745,response,ISIC_3343475.JPG,21,ISIC_0013244.JPG,ISIC_0013244.JPG,false,0,keypress(z),500,1892706,1892706,1886807.64,1886811,1886810.42,1892706.8,8,400,41,,ISIC_3343475.JPG
break,html.Screen,4_140_1,2023-09-06T20:23:55.572Z,,0,,,NaN,,,,,,false,,,,1892708,1892707,,1892707,,1892706.8,8,400,,,
break_continue,html.Screen,4_140_2,2023-09-06T20:23:55.572Z,,0,,,NaN,,,,,,false,,,,1892708,1892708,,1892708,,1892706.8,8,400,,,
sequence,flow.Sequence,4_140,2023-09-06T20:23:55.573Z,,0,,,5897.5800000000745,completion,,,,,false,,,,1892708,1892708,1886807.64,1886811,1886810.42,1892706.8,8,400,,,
trial,html.Screen,4_141_0,2023-09-06T20:24:00.510Z,,0,3,,4938.199999999953,response,ISIC_0008934.JPG,23,ISIC_1655513.JPG,ISIC_0008934.JPG,false,1,keypress(m),500,1897645,1897645,1892706.32,1892708,1892706.8,1897648.14,8,400,42,,ISIC_1655513.JPG
break,html.Screen,4_141_1,2023-09-06T20:24:00.512Z,,0,,,NaN,,,,,,false,,,,1897647,1897646,,1897646,,1897648.14,8,400,,,
break_continue,html.Screen,4_141_2,2023-09-06T20:24:00.513Z,,0,,,NaN,,,,,,false,,,,1897648,1897648,,1897647,,1897648.14,8,400,,,
sequence,flow.Sequence,4_141,2023-09-06T20:24:00.513Z,,0,,,4941.199999999953,completion,,,,,false,,,,1897648,1897648,1892706.32,1892708,1892706.8,1897648.14,8,400,,,
trial,html.Screen,4_142_0,2023-09-06T20:24:03.550Z,,0,3,,3036.8600000001024,response,ISIC_5771106.JPG,6,ISIC_9529297.JPG,ISIC_5771106.JPG,false,1,keypress(m),500,1900685,1900685,1897645.52,1897649,1897648.14,1900687.4,8,400,43,,ISIC_9529297.JPG
break,html.Screen,4_142_1,2023-09-06T20:24:03.551Z,,0,,,NaN,,,,,,false,,,,1900687,1900686,,1900685,,1900687.4,8,400,,,
break_continue,html.Screen,4_142_2,2023-09-06T20:24:03.552Z,,0,,,NaN,,,,,,false,,,,1900688,1900687,,1900687,,1900687.4,8,400,,,
sequence,flow.Sequence,4_142,2023-09-06T20:24:03.552Z,,0,,,3038.8600000001024,completion,,,,,false,,,,1900688,1900687,1897645.52,1897649,1897648.14,1900687.4,8,400,,,
trial,html.Screen,4_143_0,2023-09-06T20:24:08.747Z,,0,3,,5194.600000000093,response,ISIC_2620357.JPG,10,ISIC_2465895.JPG,ISIC_2465895.JPG,false,0,keypress(z),500,1905882,1905882,1900685.3,1900688,1900687.4,1905883.62,8,400,44,,ISIC_2620357.JPG
break,html.Screen,4_143_1,2023-09-06T20:24:08.749Z,,0,,,NaN,,,,,,false,,,,1905884,1905884,,1905883,,1905883.62,8,400,,,
break_continue,html.Screen,4_143_2,2023-09-06T20:24:08.750Z,,0,,,NaN,,,,,,false,,,,1905885,1905885,,1905884,,1905883.62,8,400,,,
sequence,flow.Sequence,4_143,2023-09-06T20:24:08.750Z,,0,,,5197.600000000093,completion,,,,,false,,,,1905885,1905885,1900685.3,1900688,1900687.4,1905883.62,8,400,,,
trial,html.Screen,4_144_0,2023-09-06T20:24:11.764Z,,0,3,,3014.3799999998882,response,ISIC_0066289.JPG,4,ISIC_0057032.JPG,ISIC_0066289.JPG,false,1,keypress(m),500,1908899,1908898,1905882.98,1905885,1905883.62,1908899.24,8,400,45,,ISIC_0057032.JPG
break,html.Screen,4_144_1,2023-09-06T20:24:11.765Z,,0,,,NaN,,,,,,false,,,,1908900,1908899,,1908899,,1908899.24,8,400,,,
break_continue,html.Screen,4_144_2,2023-09-06T20:24:11.765Z,,0,,,NaN,,,,,,false,,,,1908901,1908900,,1908900,,1908899.24,8,400,,,
sequence,flow.Sequence,4_144,2023-09-06T20:24:11.766Z,,0,,,3016.3799999998882,completion,,,,,false,,,,1908901,1908900,1905882.98,1905885,1905883.62,1908899.24,8,400,,,
trial,html.Screen,4_145_0,2023-09-06T20:24:14.898Z,,0,3,,3132.7600000000093,response,ISIC_0000310.JPG,25,ISIC_8663136.JPG,ISIC_8663136.JPG,false,0,keypress(z),500,1912032,1912032,1908898.82,1908901,1908899.24,1912033.02,8,400,46,,ISIC_0000310.JPG
break,html.Screen,4_145_1,2023-09-06T20:24:14.899Z,,0,,,NaN,,,,,,false,,,,1912033,1912033,,1912032,,1912033.02,8,400,,,
break_continue,html.Screen,4_145_2,2023-09-06T20:24:14.899Z,,0,,,NaN,,,,,,false,,,,1912034,1912033,,1912033,,1912033.02,8,400,,,
sequence,flow.Sequence,4_145,2023-09-06T20:24:14.900Z,,0,,,3133.7600000000093,completion,,,,,false,,,,1912034,1912033,1908898.82,1908901,1908899.24,1912033.02,8,400,,,
trial,html.Screen,4_146_0,2023-09-06T20:24:17.579Z,,0,3,,2681.9799999999814,response,ISIC_0024967.JPG,10,ISIC_2927673.JPG,ISIC_2927673.JPG,false,0,keypress(z),500,1914715,1914715,1912032.5,1912034,1912033.02,1914714.76,8,400,47,,ISIC_0024967.JPG
break,html.Screen,4_146_1,2023-09-06T20:24:17.581Z,,0,,,NaN,,,,,,false,,,,1914715,1914715,,1914715,,1914714.76,8,400,,,
break_continue,html.Screen,4_146_2,2023-09-06T20:24:17.581Z,,0,,,NaN,,,,,,false,,,,1914715,1914715,,1914715,,1914714.76,8,400,,,
sequence,flow.Sequence,4_146,2023-09-06T20:24:17.581Z,,0,,,2681.9799999999814,completion,,,,,false,,,,1914715,1914715,1912032.5,1912034,1912033.02,1914714.76,8,400,,,
