sender,sender_type,sender_id,timestamp,meta,,blockNo,condition,duration,ended_on,img_left,img_reveal,img_right,loser,practice,response,response_action,selection_duration,time_commit,time_end,time_render,time_run,time_show,time_switch,total_blocks,total_trials,trialNo,url,winner
informed_consent,html.Screen,0,2023-09-11T20:56:27.881Z,"{""labjs_version"":""20.2.4"",""labjs_build"":{""flavor"":""production"",""commit"":""f5b4a49f956347addd546a832a3327688c2c0fef""},""location"":""https://run.pavlovia.org/MurrayBennett/melanoma-2afc/?participant=67340&platform=sona"",""userAgent"":""Mozilla/5.0 (Windows NT 10.0; Win64; x64) AppleWebKit/537.36 (KHTML, like Gecko) Chrome/116.0.0.0 Safari/537.36"",""platform"":""Win32"",""language"":""en-US"",""locale"":""en-US"",""timeZone"":""America/Chicago"",""timezoneOffset"":300,""screen_width"":1366,""screen_height"":768,""scroll_width"":1366,""scroll_height"":563,""window_innerWidth"":1366,""window_innerHeight"":611,""devicePixelRatio"":1}",,,,157748.01500019073,response,,,,,,consent,click button,,161572.80000019073,161570.30000019073,3772.279,3800,3822.285,161599.611,,,,"{""participant"":""67340"",""platform"":""sona""}",
Welcome,html.Screen,1,2023-09-11T20:58:14.040Z,,,,irregular,106135.28900009536,response,,,,,,continue,click button,,267736.30000019073,267734.90000009537,161582.953,161573,161599.611,267756.905,,,,,
trial,html.Screen,2_0_0,2023-09-11T20:58:20.421Z,,0,0,,6356.594999999972,response,ISIC_0061792.JPG,,ISIC_4679428.JPG,ISIC_0061792.JPG,true,1,keypress(m),500,274113.7000002861,274113.5,267740.241,267736.60000038147,267756.905,274140.586,1,6,1,,ISIC_4679428.JPG
sequence,flow.Sequence,2_0,2023-09-11T20:58:20.421Z,,0,,,6356.594999999972,completion,,,,,true,,,,274113.80000019073,274113.5,267740.241,267736.60000038147,267756.905,274140.586,1,6,,,
trial,html.Screen,2_1_0,2023-09-11T20:58:26.263Z,,0,0,,5814.714000190725,response,ISIC_0776486.JPG,,ISIC_5199497.JPG,ISIC_5199497.JPG,true,0,keypress(z),500,279955.60000038147,279955.30000019073,274123.953,274113.90000009537,274140.586,279974.405,1,6,2,,ISIC_0776486.JPG
sequence,flow.Sequence,2_1,2023-09-11T20:58:26.263Z,,0,,,5814.714000190725,completion,,,,,true,,,,279956,279955.30000019073,274123.953,274113.90000009537,274140.586,279974.405,1,6,,,
trial,html.Screen,2_2_0,2023-09-11T20:58:34.991Z,,0,0,,8709.49500009534,response,ISIC_2556187.JPG,,ISIC_8575776.JPG,ISIC_8575776.JPG,true,0,keypress(z),500,288684.2000002861,288683.90000009537,279957.666,279956.40000009537,279974.405,288708.35,1,6,3,,ISIC_2556187.JPG
sequence,flow.Sequence,2_2,2023-09-11T20:58:34.992Z,,0,,,8709.49500009534,completion,,,,,true,,,,288684.60000038147,288683.90000009537,279957.666,279956.2000002861,279974.405,288708.35,1,6,,,
trial,html.Screen,2_3_0,2023-09-11T20:58:39.975Z,,0,0,,4958.850000286126,response,ISIC_9238366.JPG,,ISIC_8141769.JPG,ISIC_8141769.JPG,true,0,keypress(z),500,293667.60000038147,293667.2000002861,288691.778,288684.80000019073,288708.35,293691.977,1,6,4,,ISIC_9238366.JPG
sequence,flow.Sequence,2_3,2023-09-11T20:58:39.975Z,,0,,,4958.850000286126,completion,,,,,true,,,,293668.10000038147,293667.2000002861,288691.778,288684.7000002861,288708.35,293691.977,1,6,,,
trial,html.Screen,2_4_0,2023-09-11T20:58:45.041Z,,0,0,,5041.923000095354,response,ISIC_9959593.JPG,,ISIC_8949026.JPG,ISIC_8949026.JPG,true,0,keypress(z),500,298734.10000038147,298733.90000009537,293675.275,293668.30000019073,293691.977,298758.949,1,6,5,,ISIC_9959593.JPG
sequence,flow.Sequence,2_4,2023-09-11T20:58:45.041Z,,0,,,5041.923000095354,completion,,,,,true,,,,298734.60000038147,298733.90000009537,293675.275,293668.30000019073,293691.977,298758.949,1,6,,,
trial,html.Screen,2_5_0,2023-09-11T20:58:52.101Z,,0,0,,7034.25100028608,response,ISIC_0460240.JPG,,ISIC_0010479.JPG,ISIC_0460240.JPG,true,1,keypress(m),500,305793.60000038147,305793.2000002861,298742.296,298734.7000002861,298758.949,305809.454,1,6,6,,ISIC_0010479.JPG
sequence,flow.Sequence,2_5,2023-09-11T20:58:52.101Z,,0,,,7034.25100028608,completion,,,,,true,,,,305793.80000019073,305793.2000002861,298742.296,298734.60000038147,298758.949,305809.454,1,6,,,
loop,flow.Loop,2,2023-09-11T20:58:52.101Z,,,,,38036.295000286074,completion,,,,,true,,,,305793.80000019073,305793.2000002861,267740.241,267736.5,267756.905,305809.454,1,6,,,
exp_instructions,html.Screen,3,2023-09-11T20:59:13.998Z,,,,,21880.146000381443,response,,,,,,continue,keypress(Space),,327690.80000019073,327689.60000038147,305792.926,305793.90000009537,305809.454,327710.899,,,,,
trial,html.Screen,4_0_0,2023-09-11T20:59:19.541Z,,0,1,,5525.701000381494,response,ISIC_8694181.JPG,11,ISIC_0065872.JPG,ISIC_0065872.JPG,false,0,keypress(z),500,333236.90000009537,333236.60000038147,327694.236,327691.30000019073,327710.899,333261.27,8,400,1,,ISIC_8694181.JPG
break,html.Screen,4_0_1,2023-09-11T20:59:19.543Z,,0,,,NaN,,,,,,false,,,,333238.5,333238.10000038147,,333237.2000002861,,333261.27,8,400,,,
break_continue,html.Screen,4_0_2,2023-09-11T20:59:19.544Z,,0,,,NaN,,,,,,false,,,,333239.2000002861,333239,,333238.7000002861,,333261.27,8,400,,,
sequence,flow.Sequence,4_0,2023-09-11T20:59:19.544Z,,0,,,5528.101000000024,completion,,,,,false,,,,333239.40000009537,333239,327694.236,327691.2000002861,327710.899,333261.27,8,400,,,
trial,html.Screen,4_1_0,2023-09-11T20:59:24.048Z,,0,1,,4481.630000095349,response,ISIC_3586669.JPG,5,ISIC_9765024.JPG,ISIC_9765024.JPG,false,0,keypress(z),500,337743.2000002861,337742.90000009537,333244.601,333239.5,333261.27,337761.859,8,400,2,,ISIC_3586669.JPG
break,html.Screen,4_1_1,2023-09-11T20:59:24.049Z,,0,,,NaN,,,,,,false,,,,337744.2000002861,337744,,337743.40000009537,,337761.859,8,400,,,
break_continue,html.Screen,4_1_2,2023-09-11T20:59:24.049Z,,0,,,NaN,,,,,,false,,,,337744.7000002861,337744.60000038147,,337744.40000009537,,337761.859,8,400,,,
sequence,flow.Sequence,4_1,2023-09-11T20:59:24.049Z,,0,,,4483.330000381451,completion,,,,,false,,,,337744.90000009537,337744.60000038147,333244.601,333239.5,333261.27,337761.859,8,400,,,
trial,html.Screen,4_2_0,2023-09-11T20:59:27.512Z,,0,1,,3445.1410000000033,response,ISIC_0055731.JPG,12,ISIC_7312551.JPG,ISIC_7312551.JPG,false,0,keypress(z),500,341207.40000009537,341207,337744.922,337745.2000002861,337761.859,341228.777,8,400,3,,ISIC_0055731.JPG
break,html.Screen,4_2_1,2023-09-11T20:59:27.513Z,,0,,,NaN,,,,,,false,,,,341208.7000002861,341208.30000019073,,341207.60000038147,,341228.777,8,400,,,
break_continue,html.Screen,4_2_2,2023-09-11T20:59:27.514Z,,0,,,NaN,,,,,,false,,,,341209.2000002861,341209.10000038147,,341208.80000019073,,341228.777,8,400,,,
sequence,flow.Sequence,4_2,2023-09-11T20:59:27.514Z,,0,,,3447.241000381473,completion,,,,,false,,,,341209.40000009537,341209.10000038147,337744.922,337745.2000002861,337761.859,341228.777,8,400,,,
trial,html.Screen,4_3_0,2023-09-11T20:59:30.547Z,,0,1,,3013.9230002861004,response,ISIC_9439742.JPG,12,ISIC_0065766.JPG,ISIC_9439742.JPG,false,1,keypress(m),500,344243,344242.7000002861,341211.83,341209.60000038147,341228.777,344262.234,8,400,4,,ISIC_0065766.JPG
break,html.Screen,4_3_1,2023-09-11T20:59:30.549Z,,0,,,NaN,,,,,,false,,,,344244.2000002861,344243.90000009537,,344243.30000019073,,344262.234,8,400,,,
break_continue,html.Screen,4_3_2,2023-09-11T20:59:30.549Z,,0,,,NaN,,,,,,false,,,,344244.7000002861,344244.60000038147,,344244.30000019073,,344262.234,8,400,,,
sequence,flow.Sequence,4_3,2023-09-11T20:59:30.549Z,,0,,,3015.823000381468,completion,,,,,false,,,,344244.90000009537,344244.60000038147,341211.83,341209.5,341228.777,344262.234,8,400,,,
trial,html.Screen,4_4_0,2023-09-11T20:59:40.121Z,,0,1,,9554.266000000003,response,ISIC_0000291.JPG,12,ISIC_0016094.JPG,ISIC_0016094.JPG,false,0,keypress(z),500,353816.80000019073,353816.5,344245.364,344245.10000038147,344262.234,353846.106,8,400,5,,ISIC_0000291.JPG
break,html.Screen,4_4_1,2023-09-11T20:59:40.122Z,,0,,,NaN,,,,,,false,,,,353817.80000019073,353817.60000038147,,353817,,353846.106,8,400,,,
break_continue,html.Screen,4_4_2,2023-09-11T20:59:40.123Z,,0,,,NaN,,,,,,false,,,,353818.40000009537,353818.2000002861,,353818,,353846.106,8,400,,,
sequence,flow.Sequence,4_4,2023-09-11T20:59:40.123Z,,0,,,9555.966000286106,completion,,,,,false,,,,353818.5,353818.2000002861,344245.364,344245,344262.234,353846.106,8,400,,,
trial,html.Screen,4_5_0,2023-09-11T20:59:45.777Z,,0,1,,5626.094000286073,response,ISIC_0033073.JPG,8,ISIC_0054570.JPG,ISIC_0054570.JPG,false,0,keypress(z),500,359472.5,359472.2000002861,353829.607,353818.7000002861,353846.106,359496.654,8,400,6,,ISIC_0033073.JPG
break,html.Screen,4_5_1,2023-09-11T20:59:45.778Z,,0,,,NaN,,,,,,false,,,,359473.40000009537,359473.2000002861,,359472.7000002861,,359496.654,8,400,,,
break_continue,html.Screen,4_5_2,2023-09-11T20:59:45.779Z,,0,,,NaN,,,,,,false,,,,359474.30000019073,359474.2000002861,,359473.5,,359496.654,8,400,,,
sequence,flow.Sequence,4_5,2023-09-11T20:59:45.779Z,,0,,,5628.094000286073,completion,,,,,false,,,,359474.5,359474.2000002861,353829.607,353818.60000038147,353846.106,359496.654,8,400,,,
trial,html.Screen,4_6_0,2023-09-11T20:59:50.333Z,,0,1,,4531.146000190754,response,ISIC_5979783.JPG,5,ISIC_0033216.JPG,ISIC_5979783.JPG,false,1,keypress(m),500,364028.10000038147,364027.80000019073,359479.892,359474.5,359496.654,364046.884,8,400,7,,ISIC_0033216.JPG
break,html.Screen,4_6_1,2023-09-11T20:59:50.334Z,,0,,,NaN,,,,,,false,,,,364029.30000019073,364028.90000009537,,364028.40000009537,,364046.884,8,400,,,
break_continue,html.Screen,4_6_2,2023-09-11T20:59:50.334Z,,0,,,NaN,,,,,,false,,,,364029.7000002861,364029.60000038147,,364029.40000009537,,364046.884,8,400,,,
sequence,flow.Sequence,4_6,2023-09-11T20:59:50.334Z,,0,,,4532.946000381489,completion,,,,,false,,,,364029.90000009537,364029.60000038147,359479.892,359474.5,359496.654,364046.884,8,400,,,
trial,html.Screen,4_7_0,2023-09-11T21:00:01.836Z,,0,1,,11517.298999999999,timeout,ISIC_0030002.JPG,7,ISIC_4081632.JPG,,false,,,500,375531.5,375531.40000009537,364030.023,364030.30000019073,364046.884,375564.183,8,400,8,,
break,html.Screen,4_7_1,2023-09-11T21:00:01.837Z,,0,,,NaN,,,,,,false,,,,375532.10000038147,375532,,375531.60000038147,,375564.183,8,400,,,
break_continue,html.Screen,4_7_2,2023-09-11T21:00:01.837Z,,0,,,NaN,,,,,,false,,,,375532.30000019073,375532.30000019073,,375532.2000002861,,375564.183,8,400,,,
sequence,flow.Sequence,4_7,2023-09-11T21:00:01.837Z,,0,,,11485.416000190715,completion,,,,,false,,,,375532.30000019073,375532.30000019073,364030.023,364029.90000009537,364046.884,375564.183,8,400,,,
trial,html.Screen,4_8_0,2023-09-11T21:00:06.867Z,,0,1,,4997.617000190716,response,ISIC_1166740.JPG,8,ISIC_1637536.JPG,ISIC_1637536.JPG,false,0,keypress(z),500,380562.10000038147,380561.80000019073,375547.509,375532.40000009537,375564.183,380581.412,8,400,9,,ISIC_1166740.JPG
break,html.Screen,4_8_1,2023-09-11T21:00:06.868Z,,0,,,NaN,,,,,,false,,,,380563.30000019073,380562.90000009537,,380562.30000019073,,380581.412,8,400,,,
break_continue,html.Screen,4_8_2,2023-09-11T21:00:06.868Z,,0,,,NaN,,,,,,false,,,,380563.80000019073,380563.7000002861,,380563.40000009537,,380581.412,8,400,,,
sequence,flow.Sequence,4_8,2023-09-11T21:00:06.868Z,,0,,,4999.517000286083,completion,,,,,false,,,,380563.90000009537,380563.7000002861,375547.509,375532.30000019073,375564.183,380581.412,8,400,,,
trial,html.Screen,4_9_0,2023-09-11T21:00:10.487Z,,0,1,,3601.087999999989,response,ISIC_0205127.JPG,7,ISIC_4477599.JPG,ISIC_4477599.JPG,false,0,keypress(z),500,384182.7000002861,384182.5,380564.486,380564.10000038147,380581.412,384214.896,8,400,10,,ISIC_0205127.JPG
break,html.Screen,4_9_1,2023-09-11T21:00:10.488Z,,0,,,NaN,,,,,,false,,,,384183.7000002861,384183.40000009537,,384182.90000009537,,384214.896,8,400,,,
break_continue,html.Screen,4_9_2,2023-09-11T21:00:10.489Z,,0,,,NaN,,,,,,false,,,,384184.30000019073,384184.2000002861,,384183.90000009537,,384214.896,8,400,,,
sequence,flow.Sequence,4_9,2023-09-11T21:00:10.489Z,,0,,,3602.788000286091,completion,,,,,false,,,,384184.40000009537,384184.2000002861,380564.486,380564.10000038147,380581.412,384214.896,8,400,,,
trial,html.Screen,4_10_0,2023-09-11T21:00:14.128Z,,0,1,,3608.3040002860944,response,ISIC_0966527.JPG,7,ISIC_0484171.JPG,ISIC_0966527.JPG,false,1,keypress(m),500,387823.5,387823.2000002861,384198.091,384184.60000038147,384214.896,387848.307,8,400,11,,ISIC_0484171.JPG
break,html.Screen,4_10_1,2023-09-11T21:00:14.129Z,,0,,,NaN,,,,,,false,,,,387824.60000038147,387824.40000009537,,387823.7000002861,,387848.307,8,400,,,
break_continue,html.Screen,4_10_2,2023-09-11T21:00:14.130Z,,0,,,NaN,,,,,,false,,,,387825.2000002861,387825,,387824.7000002861,,387848.307,8,400,,,
sequence,flow.Sequence,4_10,2023-09-11T21:00:14.130Z,,0,,,3610.103999999992,completion,,,,,false,,,,387825.30000019073,387825,384198.091,384184.5,384214.896,387848.307,8,400,,,
trial,html.Screen,4_11_0,2023-09-11T21:00:17.450Z,,0,1,,3296.4930001907633,response,ISIC_0030824.JPG,4,ISIC_0031397.JPG,ISIC_0031397.JPG,false,0,keypress(z),500,391145,391144.80000019073,387831.741,387825.5,387848.307,391165.428,8,400,12,,ISIC_0030824.JPG
break,html.Screen,4_11_1,2023-09-11T21:00:17.451Z,,0,,,NaN,,,,,,false,,,,391146.2000002861,391145.90000009537,,391145.30000019073,,391165.428,8,400,,,
break_continue,html.Screen,4_11_2,2023-09-11T21:00:17.451Z,,0,,,NaN,,,,,,false,,,,391146.7000002861,391146.7000002861,,391146.40000009537,,391165.428,8,400,,,
sequence,flow.Sequence,4_11,2023-09-11T21:00:17.451Z,,0,,,3298.3930002861307,completion,,,,,false,,,,391146.90000009537,391146.7000002861,387831.741,387825.5,387848.307,391165.428,8,400,,,
trial,html.Screen,4_12_0,2023-09-11T21:00:22.230Z,,0,1,,4755.37200019072,response,ISIC_0579047.JPG,1,ISIC_0025759.JPG,ISIC_0579047.JPG,false,1,keypress(m),500,395921.2000002861,395920.80000019073,391148.53,391147,391165.428,395948.924,8,400,13,,ISIC_0025759.JPG
break,html.Screen,4_12_1,2023-09-11T21:00:22.231Z,,0,,,NaN,,,,,,false,,,,395922.2000002861,395922,,395921.5,,395948.924,8,400,,,
break_continue,html.Screen,4_12_2,2023-09-11T21:00:22.232Z,,0,,,NaN,,,,,,false,,,,395922.7000002861,395922.60000038147,,395922.40000009537,,395948.924,8,400,,,
sequence,flow.Sequence,4_12,2023-09-11T21:00:22.232Z,,0,,,4757.172000381455,completion,,,,,false,,,,395922.90000009537,395922.60000038147,391148.53,391147,391165.428,395948.924,8,400,,,
trial,html.Screen,4_13_0,2023-09-11T21:00:25.104Z,,0,1,,2845.576000000001,response,ISIC_0026802.JPG,10,ISIC_0565743.JPG,ISIC_0565743.JPG,false,0,keypress(z),500,398794.80000019073,398794.5,395932.291,395923,395948.924,398816.01,8,400,14,,ISIC_0026802.JPG
break,html.Screen,4_13_1,2023-09-11T21:00:25.105Z,,0,,,NaN,,,,,,false,,,,398795.90000009537,398795.60000038147,,398795,,398816.01,8,400,,,
break_continue,html.Screen,4_13_2,2023-09-11T21:00:25.106Z,,0,,,NaN,,,,,,false,,,,398796.40000009537,398796.30000019073,,398796,,398816.01,8,400,,,
sequence,flow.Sequence,4_13,2023-09-11T21:00:25.106Z,,0,,,2847.376000190736,completion,,,,,false,,,,398796.60000038147,398796.30000019073,395932.291,395922.90000009537,395948.924,398816.01,8,400,,,
trial,html.Screen,4_14_0,2023-09-11T21:00:31.351Z,,0,1,,6225.489999999991,response,ISIC_0054906.JPG,11,ISIC_3868662.JPG,ISIC_3868662.JPG,false,0,keypress(z),500,405041.90000009537,405041.5,398799.058,398796.7000002861,398816.01,405066.131,8,400,15,,ISIC_0054906.JPG
break,html.Screen,4_14_1,2023-09-11T21:00:31.352Z,,0,,,NaN,,,,,,false,,,,405043,405042.7000002861,,405042.10000038147,,405066.131,8,400,,,
break_continue,html.Screen,4_14_2,2023-09-11T21:00:31.353Z,,0,,,NaN,,,,,,false,,,,405043.60000038147,405043.40000009537,,405043.10000038147,,405066.131,8,400,,,
sequence,flow.Sequence,4_14,2023-09-11T21:00:31.353Z,,0,,,6227.390000095358,completion,,,,,false,,,,405043.7000002861,405043.40000009537,398799.058,398796.60000038147,398816.01,405066.131,8,400,,,
trial,html.Screen,4_15_0,2023-09-11T21:00:37.454Z,,0,1,,6078.169000190741,response,ISIC_4837536.JPG,6,ISIC_0024455.JPG,ISIC_4837536.JPG,false,1,keypress(m),500,411144.7000002861,411144.30000019073,405049.479,405043.80000019073,405066.131,411166.816,8,400,16,,ISIC_0024455.JPG
break,html.Screen,4_15_1,2023-09-11T21:00:37.455Z,,0,,,NaN,,,,,,false,,,,411145.90000009537,411145.60000038147,,411145,,411166.816,8,400,,,
break_continue,html.Screen,4_15_2,2023-09-11T21:00:37.456Z,,0,,,NaN,,,,,,false,,,,411146.5,411146.30000019073,,411146.10000038147,,411166.816,8,400,,,
sequence,flow.Sequence,4_15,2023-09-11T21:00:37.456Z,,0,,,6080.169000190741,completion,,,,,false,,,,411146.60000038147,411146.30000019073,405049.479,405043.80000019073,405066.131,411166.816,8,400,,,
trial,html.Screen,4_16_0,2023-09-11T21:00:40.394Z,,0,1,,2917.4840001907432,response,ISIC_0033995.JPG,6,ISIC_2031626.JPG,ISIC_2031626.JPG,false,0,keypress(z),500,414084.60000038147,414084.30000019073,411149.983,411146.80000019073,411166.816,414116.948,8,400,17,,ISIC_0033995.JPG
break,html.Screen,4_16_1,2023-09-11T21:00:40.395Z,,0,,,NaN,,,,,,false,,,,414086.10000038147,414085.80000019073,,414085,,414116.948,8,400,,,
break_continue,html.Screen,4_16_2,2023-09-11T21:00:40.396Z,,0,,,NaN,,,,,,false,,,,414086.7000002861,414086.5,,414086.30000019073,,414116.948,8,400,,,
sequence,flow.Sequence,4_16,2023-09-11T21:00:40.396Z,,0,,,2919.6840000000084,completion,,,,,false,,,,414086.90000009537,414086.5,411149.983,411146.80000019073,411166.816,414116.948,8,400,,,
trial,html.Screen,4_17_0,2023-09-11T21:00:43.250Z,,0,1,,2823.9520000953926,response,ISIC_3565564.JPG,13,ISIC_0015156.JPG,ISIC_3565564.JPG,false,1,keypress(m),500,416941.10000038147,416940.90000009537,414100.244,414087.10000038147,414116.948,416966.982,8,400,18,,ISIC_0015156.JPG
break,html.Screen,4_17_1,2023-09-11T21:00:43.251Z,,0,,,NaN,,,,,,false,,,,416942.2000002861,416941.90000009537,,416941.40000009537,,416966.982,8,400,,,
break_continue,html.Screen,4_17_2,2023-09-11T21:00:43.252Z,,0,,,NaN,,,,,,false,,,,416942.7000002861,416942.60000038147,,416942.30000019073,,416966.982,8,400,,,
sequence,flow.Sequence,4_17,2023-09-11T21:00:43.252Z,,0,,,2825.652000381495,completion,,,,,false,,,,416942.90000009537,416942.60000038147,414100.244,414087,414116.948,416966.982,8,400,,,
trial,html.Screen,4_18_0,2023-09-11T21:00:47.769Z,,0,1,,4492.418000095349,response,ISIC_4634128.JPG,8,ISIC_0029905.JPG,ISIC_4634128.JPG,false,1,keypress(m),500,421459.7000002861,421459.40000009537,416950.549,416943,416966.982,421483.882,8,400,19,,ISIC_0029905.JPG
break,html.Screen,4_18_1,2023-09-11T21:00:47.770Z,,0,,,NaN,,,,,,false,,,,421460.60000038147,421460.5,,421459.90000009537,,421483.882,8,400,,,
break_continue,html.Screen,4_18_2,2023-09-11T21:00:47.770Z,,0,,,NaN,,,,,,false,,,,421461.2000002861,421461.10000038147,,421460.80000019073,,421483.882,8,400,,,
sequence,flow.Sequence,4_18,2023-09-11T21:00:47.771Z,,0,,,4494.118000381452,completion,,,,,false,,,,421461.30000019073,421461.10000038147,416950.549,416943,416966.982,421483.882,8,400,,,
trial,html.Screen,4_19_0,2023-09-11T21:00:50.724Z,,0,1,,2930.9180001907516,response,ISIC_8393181.JPG,5,ISIC_0029212.JPG,ISIC_8393181.JPG,false,1,keypress(m),500,424415.2000002861,424414.80000019073,421467.253,421461.5,421483.882,424434.402,8,400,20,,ISIC_0029212.JPG
break,html.Screen,4_19_1,2023-09-11T21:00:50.726Z,,0,,,NaN,,,,,,false,,,,424417.30000019073,424416.7000002861,,424415.7000002861,,424434.402,8,400,,,
break_continue,html.Screen,4_19_2,2023-09-11T21:00:50.728Z,,0,,,NaN,,,,,,false,,,,424418.80000019073,424418.60000038147,,424418,,424434.402,8,400,,,
sequence,flow.Sequence,4_19,2023-09-11T21:00:50.728Z,,0,,,2934.7180003814865,completion,,,,,false,,,,424419.10000038147,424418.60000038147,421467.253,421461.40000009537,421483.882,424434.402,8,400,,,
trial,html.Screen,4_20_0,2023-09-11T21:00:56.045Z,,0,1,,5300.898000190733,response,ISIC_9066201.JPG,10,ISIC_9153619.JPG,ISIC_9153619.JPG,false,0,keypress(z),500,429735.60000038147,429735.30000019073,424417.452,424419.40000009537,424434.402,429751.141,8,400,21,,ISIC_9066201.JPG
break,html.Screen,4_20_1,2023-09-11T21:00:56.046Z,,0,,,NaN,,,,,,false,,,,429736.80000019073,429736.5,,429735.90000009537,,429751.141,8,400,,,
break_continue,html.Screen,4_20_2,2023-09-11T21:00:56.047Z,,0,,,NaN,,,,,,false,,,,429737.30000019073,429737.2000002861,,429736.90000009537,,429751.141,8,400,,,
sequence,flow.Sequence,4_20,2023-09-11T21:00:56.047Z,,0,,,5302.7980002861,completion,,,,,false,,,,429737.5,429737.2000002861,424417.452,424419.2000002861,424434.402,429751.141,8,400,,,
trial,html.Screen,4_21_0,2023-09-11T21:01:00.035Z,,0,1,,3974.4590003814665,response,ISIC_0000022.JPG,10,ISIC_7394897.JPG,ISIC_7394897.JPG,false,0,keypress(z),500,433725.80000019073,433725.60000038147,429734.744,429737.7000002861,429751.141,433751.38,8,400,22,,ISIC_0000022.JPG
break,html.Screen,4_21_1,2023-09-11T21:01:00.036Z,,0,,,NaN,,,,,,false,,,,433726.60000038147,433726.40000009537,,433726,,433751.38,8,400,,,
break_continue,html.Screen,4_21_2,2023-09-11T21:01:00.036Z,,0,,,NaN,,,,,,false,,,,433726.90000009537,433726.80000019073,,433726.7000002861,,433751.38,8,400,,,
sequence,flow.Sequence,4_21,2023-09-11T21:01:00.036Z,,0,,,3975.6590001907316,completion,,,,,false,,,,433726.90000009537,433726.80000019073,429734.744,429737.7000002861,429751.141,433751.38,8,400,,,
trial,html.Screen,4_22_0,2023-09-11T21:01:03.323Z,,0,1,,3261.92000019073,response,ISIC_0029205.JPG,7,ISIC_8249854.JPG,ISIC_8249854.JPG,false,0,keypress(z),500,437013.80000019073,437013.30000019073,433734.801,433727.10000038147,433751.38,437035.23,8,400,23,,ISIC_0029205.JPG
break,html.Screen,4_22_1,2023-09-11T21:01:03.324Z,,0,,,NaN,,,,,,false,,,,437015,437014.60000038147,,437014.10000038147,,437035.23,8,400,,,
break_continue,html.Screen,4_22_2,2023-09-11T21:01:03.325Z,,0,,,NaN,,,,,,false,,,,437015.5,437015.30000019073,,437015.10000038147,,437035.23,8,400,,,
sequence,flow.Sequence,4_22,2023-09-11T21:01:03.325Z,,0,,,3263.92000019073,completion,,,,,false,,,,437015.7000002861,437015.30000019073,433734.801,433727,433751.38,437035.23,8,400,,,
trial,html.Screen,4_23_0,2023-09-11T21:01:06.023Z,,0,1,,2678.2700000000186,response,ISIC_0073238.JPG,10,ISIC_0011139.JPG,ISIC_0011139.JPG,false,0,keypress(z),500,439713.7000002861,439713.5,437018.309,437015.80000019073,437035.23,439735.443,8,400,24,,ISIC_0073238.JPG
break,html.Screen,4_23_1,2023-09-11T21:01:06.024Z,,0,,,NaN,,,,,,false,,,,439714.80000019073,439714.60000038147,,439713.90000009537,,439735.443,8,400,,,
break_continue,html.Screen,4_23_2,2023-09-11T21:01:06.025Z,,0,,,NaN,,,,,,false,,,,439715.30000019073,439715.2000002861,,439715,,439735.443,8,400,,,
sequence,flow.Sequence,4_23,2023-09-11T21:01:06.025Z,,0,,,2679.970000286121,completion,,,,,false,,,,439715.5,439715.2000002861,437018.309,437015.7000002861,437035.23,439735.443,8,400,,,
trial,html.Screen,4_24_0,2023-09-11T21:01:09.206Z,,0,1,,3160.757000286074,response,ISIC_3356355.JPG,10,ISIC_0024292.JPG,ISIC_3356355.JPG,false,1,keypress(m),500,442896.5,442896.2000002861,439718.649,439715.7000002861,439735.443,442918.92,8,400,25,,ISIC_0024292.JPG
break,html.Screen,4_24_1,2023-09-11T21:01:09.207Z,,0,,,NaN,,,,,,false,,,,442897.7000002861,442897.40000009537,,442896.80000019073,,442918.92,8,400,,,
break_continue,html.Screen,4_24_2,2023-09-11T21:01:09.207Z,,0,,,NaN,,,,,,false,,,,442898.2000002861,442898.10000038147,,442897.80000019073,,442918.92,8,400,,,
sequence,flow.Sequence,4_24,2023-09-11T21:01:09.208Z,,0,,,3162.6570003814413,completion,,,,,false,,,,442898.40000009537,442898.10000038147,439718.649,439715.60000038147,439735.443,442918.92,8,400,,,
trial,html.Screen,4_25_0,2023-09-11T21:01:11.963Z,,0,1,,2734.4800000953837,response,ISIC_0030392.JPG,9,ISIC_1078854.JPG,ISIC_1078854.JPG,false,0,keypress(z),500,445653.7000002861,445653.40000009537,442902.311,442898.5,442918.92,445685.732,8,400,26,,ISIC_0030392.JPG
break,html.Screen,4_25_1,2023-09-11T21:01:11.964Z,,0,,,NaN,,,,,,false,,,,445654.7000002861,445654.5,,445653.80000019073,,445685.732,8,400,,,
break_continue,html.Screen,4_25_2,2023-09-11T21:01:11.964Z,,0,,,NaN,,,,,,false,,,,445655.30000019073,445655.2000002861,,445654.90000009537,,445685.732,8,400,,,
sequence,flow.Sequence,4_25,2023-09-11T21:01:11.965Z,,0,,,2736.2800002861186,completion,,,,,false,,,,445655.5,445655.2000002861,442902.311,442898.40000009537,442918.92,445685.732,8,400,,,
trial,html.Screen,4_26_0,2023-09-11T21:01:15.620Z,,0,1,,3624.767999999982,response,ISIC_0053617.JPG,10,ISIC_3213469.JPG,ISIC_3213469.JPG,false,0,keypress(z),500,449310.60000038147,449310.5,445669.154,445655.7000002861,445685.732,449335.771,8,400,27,,ISIC_0053617.JPG
break,html.Screen,4_26_1,2023-09-11T21:01:15.620Z,,0,,,NaN,,,,,,false,,,,449311.30000019073,449311.2000002861,,449310.80000019073,,449335.771,8,400,,,
break_continue,html.Screen,4_26_2,2023-09-11T21:01:15.621Z,,0,,,NaN,,,,,,false,,,,449311.5,449311.40000009537,,449311.30000019073,,449335.771,8,400,,,
sequence,flow.Sequence,4_26,2023-09-11T21:01:15.621Z,,0,,,3625.6680000953493,completion,,,,,false,,,,449311.60000038147,449311.40000009537,445669.154,445655.60000038147,445685.732,449335.771,8,400,,,
trial,html.Screen,4_27_0,2023-09-11T21:01:18.808Z,,0,1,,3167.9290002860944,response,ISIC_3009493.JPG,6,ISIC_3993924.JPG,ISIC_3993924.JPG,false,0,keypress(z),500,452504,452503.7000002861,449319.124,449311.60000038147,449335.771,452536.241,8,400,28,,ISIC_3009493.JPG
break,html.Screen,4_27_1,2023-09-11T21:01:18.809Z,,0,,,NaN,,,,,,false,,,,452505.10000038147,452504.80000019073,,452504.2000002861,,452536.241,8,400,,,
break_continue,html.Screen,4_27_2,2023-09-11T21:01:18.810Z,,0,,,NaN,,,,,,false,,,,452505.5,452505.40000009537,,452505.2000002861,,452536.241,8,400,,,
sequence,flow.Sequence,4_27,2023-09-11T21:01:18.810Z,,0,,,3169.6290000953595,completion,,,,,false,,,,452505.60000038147,452505.40000009537,449319.124,449311.60000038147,449335.771,452536.241,8,400,,,
trial,html.Screen,4_28_0,2023-09-11T21:01:23.168Z,,0,1,,4327.25900000002,response,ISIC_3343475.JPG,10,ISIC_0010089.JPG,ISIC_0010089.JPG,false,0,keypress(z),500,456863.80000019073,456863.5,452519.609,452505.80000019073,452536.241,456886.605,8,400,29,,ISIC_3343475.JPG
break,html.Screen,4_28_1,2023-09-11T21:01:23.169Z,,0,,,NaN,,,,,,false,,,,456865.5,456865.10000038147,,456864.2000002861,,456886.605,8,400,,,
break_continue,html.Screen,4_28_2,2023-09-11T21:01:23.170Z,,0,,,NaN,,,,,,false,,,,456865.90000009537,456865.80000019073,,456865.60000038147,,456886.605,8,400,,,
sequence,flow.Sequence,4_28,2023-09-11T21:01:23.170Z,,0,,,4329.559000190755,completion,,,,,false,,,,456866.2000002861,456865.80000019073,452519.609,452505.7000002861,452536.241,456886.605,8,400,,,
trial,html.Screen,4_29_0,2023-09-11T21:01:26.450Z,,0,1,,3259.095000286121,response,ISIC_0024911.JPG,7,ISIC_0003117.JPG,ISIC_0003117.JPG,false,0,keypress(z),500,460146.10000038147,460145.7000002861,456869.904,456866.30000019073,456886.605,460170.126,8,400,30,,ISIC_0024911.JPG
break,html.Screen,4_29_1,2023-09-11T21:01:26.451Z,,0,,,NaN,,,,,,false,,,,460147.40000009537,460147.10000038147,,460146.5,,460170.126,8,400,,,
break_continue,html.Screen,4_29_2,2023-09-11T21:01:26.452Z,,0,,,NaN,,,,,,false,,,,460148,460147.80000019073,,460147.60000038147,,460170.126,8,400,,,
sequence,flow.Sequence,4_29,2023-09-11T21:01:26.452Z,,0,,,3261.1950001907535,completion,,,,,false,,,,460148.2000002861,460147.80000019073,456869.904,456866.2000002861,456886.605,460170.126,8,400,,,
trial,html.Screen,4_30_0,2023-09-11T21:01:29.825Z,,0,1,,3349.774000095378,response,ISIC_0056201.JPG,5,ISIC_3286956.JPG,ISIC_3286956.JPG,false,0,keypress(z),500,463520.5,463519.90000009537,460153.493,460148.30000019073,460170.126,463536.78,8,400,31,,ISIC_0056201.JPG
break,html.Screen,4_30_1,2023-09-11T21:01:29.826Z,,0,,,NaN,,,,,,false,,,,463521.7000002861,463521.5,,463520.90000009537,,463536.78,8,400,,,
break_continue,html.Screen,4_30_2,2023-09-11T21:01:29.826Z,,0,,,NaN,,,,,,false,,,,463522.30000019073,463522.10000038147,,463521.80000019073,,463536.78,8,400,,,
sequence,flow.Sequence,4_30,2023-09-11T21:01:29.826Z,,0,,,3351.9740003814804,completion,,,,,false,,,,463522.5,463522.10000038147,460153.493,460148.2000002861,460170.126,463536.78,8,400,,,
trial,html.Screen,4_31_0,2023-09-11T21:01:33.065Z,,0,1,,3224.020000190707,response,ISIC_0060626.JPG,11,ISIC_2605120.JPG,ISIC_2605120.JPG,false,0,keypress(z),500,466761.2000002861,466760.80000019073,463520.096,463522.60000038147,463536.78,466787.009,8,400,32,,ISIC_0060626.JPG
break,html.Screen,4_31_1,2023-09-11T21:01:33.066Z,,0,,,NaN,,,,,,false,,,,466762.40000009537,466762.10000038147,,466761.40000009537,,466787.009,8,400,,,
break_continue,html.Screen,4_31_2,2023-09-11T21:01:33.067Z,,0,,,NaN,,,,,,false,,,,466762.90000009537,466762.80000019073,,466762.5,,466787.009,8,400,,,
sequence,flow.Sequence,4_31,2023-09-11T21:01:33.067Z,,0,,,3226.020000190707,completion,,,,,false,,,,466763.10000038147,466762.80000019073,463520.096,463522.60000038147,463536.78,466787.009,8,400,,,
trial,html.Screen,4_32_0,2023-09-11T21:01:35.904Z,,0,1,,2813.0910003814497,response,ISIC_0024292.JPG,4,ISIC_5622348.JPG,ISIC_5622348.JPG,false,0,keypress(z),500,469600.5,469600.10000038147,466770.485,466763.2000002861,466787.009,469620.783,8,400,33,,ISIC_0024292.JPG
break,html.Screen,4_32_1,2023-09-11T21:01:35.906Z,,0,,,NaN,,,,,,false,,,,469601.7000002861,469601.40000009537,,469600.7000002861,,469620.783,8,400,,,
break_continue,html.Screen,4_32_2,2023-09-11T21:01:35.906Z,,0,,,NaN,,,,,,false,,,,469602.2000002861,469602.10000038147,,469601.80000019073,,469620.783,8,400,,,
sequence,flow.Sequence,4_32,2023-09-11T21:01:35.906Z,,0,,,2815.0910003814497,completion,,,,,false,,,,469602.40000009537,469602.10000038147,466770.485,466763.2000002861,466787.009,469620.783,8,400,,,
trial,html.Screen,4_33_0,2023-09-11T21:01:38.853Z,,0,1,,2927.4170002861065,response,ISIC_4043580.JPG,7,ISIC_0000042.JPG,ISIC_4043580.JPG,false,1,keypress(m),500,472548.5,472548.2000002861,469603.847,469602.5,469620.783,472570.801,8,400,34,,ISIC_0000042.JPG
break,html.Screen,4_33_1,2023-09-11T21:01:38.854Z,,0,,,NaN,,,,,,false,,,,472549.7000002861,472549.40000009537,,472548.80000019073,,472570.801,8,400,,,
break_continue,html.Screen,4_33_2,2023-09-11T21:01:38.854Z,,0,,,NaN,,,,,,false,,,,472550.2000002861,472550,,472549.80000019073,,472570.801,8,400,,,
sequence,flow.Sequence,4_33,2023-09-11T21:01:38.854Z,,0,,,2929.217000000004,completion,,,,,false,,,,472550.40000009537,472550,469603.847,469602.5,469620.783,472570.801,8,400,,,
trial,html.Screen,4_34_0,2023-09-11T21:01:41.576Z,,0,1,,2700.999000190757,response,ISIC_2391053.JPG,10,ISIC_0032547.JPG,ISIC_2391053.JPG,false,1,keypress(m),500,475272,475271.80000019073,472554.299,472550.5,472570.801,475304.422,8,400,35,,ISIC_0032547.JPG
break,html.Screen,4_34_1,2023-09-11T21:01:41.577Z,,0,,,NaN,,,,,,false,,,,475273,475272.80000019073,,475272.30000019073,,475304.422,8,400,,,
break_continue,html.Screen,4_34_2,2023-09-11T21:01:41.578Z,,0,,,NaN,,,,,,false,,,,475273.60000038147,475273.40000009537,,475273.2000002861,,475304.422,8,400,,,
sequence,flow.Sequence,4_34,2023-09-11T21:01:41.578Z,,0,,,2702.59900009539,completion,,,,,false,,,,475273.7000002861,475273.40000009537,472554.299,472550.5,472570.801,475304.422,8,400,,,
trial,html.Screen,4_35_0,2023-09-11T21:01:47.232Z,,0,1,,5623.178000381449,response,ISIC_0025783.JPG,8,ISIC_5312584.JPG,ISIC_5312584.JPG,false,0,keypress(z),500,480927.90000009537,480927.60000038147,475287.818,475273.80000019073,475304.422,480954.617,8,400,36,,ISIC_0025783.JPG
break,html.Screen,4_35_1,2023-09-11T21:01:47.233Z,,0,,,NaN,,,,,,false,,,,480929,480928.80000019073,,480928.2000002861,,480954.617,8,400,,,
break_continue,html.Screen,4_35_2,2023-09-11T21:01:47.234Z,,0,,,NaN,,,,,,false,,,,480929.5,480929.40000009537,,480929.2000002861,,480954.617,8,400,,,
sequence,flow.Sequence,4_35,2023-09-11T21:01:47.234Z,,0,,,5624.978000095347,completion,,,,,false,,,,480929.60000038147,480929.40000009537,475287.818,475273.80000019073,475304.422,480954.617,8,400,,,
trial,html.Screen,4_36_0,2023-09-11T21:01:50.060Z,,0,1,,2801.083000286075,response,ISIC_8175453.JPG,6,ISIC_2380341.JPG,ISIC_2380341.JPG,false,0,keypress(z),500,483755.90000009537,483755.7000002861,480938.037,480929.80000019073,480954.617,483788.407,8,400,37,,ISIC_8175453.JPG
break,html.Screen,4_36_1,2023-09-11T21:01:50.061Z,,0,,,NaN,,,,,,false,,,,483757.10000038147,483756.7000002861,,483756.2000002861,,483788.407,8,400,,,
break_continue,html.Screen,4_36_2,2023-09-11T21:01:50.062Z,,0,,,NaN,,,,,,false,,,,483757.5,483757.40000009537,,483757.10000038147,,483788.407,8,400,,,
sequence,flow.Sequence,4_36,2023-09-11T21:01:50.062Z,,0,,,2802.78300009534,completion,,,,,false,,,,483757.7000002861,483757.40000009537,480938.037,480929.80000019073,480954.617,483788.407,8,400,,,
trial,html.Screen,4_37_0,2023-09-11T21:01:53.634Z,,0,1,,3540.793000286096,response,ISIC_0062389.JPG,8,ISIC_0068580.JPG,ISIC_0062389.JPG,false,1,keypress(m),500,487329.60000038147,487329.2000002861,483771.63,483757.80000019073,483788.407,487355.079,8,400,38,,ISIC_0068580.JPG
break,html.Screen,4_37_1,2023-09-11T21:01:53.635Z,,0,,,NaN,,,,,,false,,,,487330.7000002861,487330.40000009537,,487329.80000019073,,487355.079,8,400,,,
break_continue,html.Screen,4_37_2,2023-09-11T21:01:53.635Z,,0,,,NaN,,,,,,false,,,,487331.2000002861,487331.10000038147,,487330.80000019073,,487355.079,8,400,,,
sequence,flow.Sequence,4_37,2023-09-11T21:01:53.635Z,,0,,,3542.693000381463,completion,,,,,false,,,,487331.40000009537,487331.10000038147,483771.63,483757.80000019073,483788.407,487355.079,8,400,,,
trial,html.Screen,4_38_0,2023-09-11T21:01:57.877Z,,0,1,,4218.121000286075,response,ISIC_0067549.JPG,6,ISIC_0011163.JPG,ISIC_0011163.JPG,false,0,keypress(z),500,491573.5,491573.2000002861,487338.522,487331.5,487355.079,491605.587,8,400,39,,ISIC_0067549.JPG
break,html.Screen,4_38_1,2023-09-11T21:01:57.879Z,,0,,,NaN,,,,,,false,,,,491574.80000019073,491574.40000009537,,491573.7000002861,,491605.587,8,400,,,
break_continue,html.Screen,4_38_2,2023-09-11T21:01:57.879Z,,0,,,NaN,,,,,,false,,,,491575.30000019073,491575.10000038147,,491574.90000009537,,491605.587,8,400,,,
sequence,flow.Sequence,4_38,2023-09-11T21:01:57.879Z,,0,,,4220.021000381443,completion,,,,,false,,,,491575.40000009537,491575.10000038147,487338.522,487331.40000009537,487355.079,491605.587,8,400,,,
trial,html.Screen,4_39_0,2023-09-11T21:02:01.115Z,,0,1,,3204.7130001907353,response,ISIC_5359416.JPG,11,ISIC_0002639.JPG,ISIC_0002639.JPG,false,0,keypress(z),500,494810.7000002861,494810.30000019073,491588.948,491575.60000038147,491605.587,494838.9,8,400,40,,ISIC_5359416.JPG
break,html.Screen,4_39_1,2023-09-11T21:02:01.117Z,,0,,,NaN,,,,,,false,,,,494812.5,494812.10000038147,,494811.10000038147,,494838.9,8,400,,,
break_continue,html.Screen,4_39_2,2023-09-11T21:02:01.117Z,,0,,,NaN,,,,,,false,,,,494813.40000009537,494813.2000002861,,494812.80000019073,,494838.9,8,400,,,
sequence,flow.Sequence,4_39,2023-09-11T21:02:01.118Z,,0,,,3207.6130002861028,completion,,,,,false,,,,494813.7000002861,494813.2000002861,491588.948,491575.60000038147,491605.587,494838.9,8,400,,,
trial,html.Screen,4_40_0,2023-09-11T21:02:03.795Z,,0,1,,2651.300000286079,response,ISIC_0192893.JPG,4,ISIC_4781223.JPG,ISIC_4781223.JPG,false,0,keypress(z),500,497490.5,497490.2000002861,494822.48,494813.90000009537,494838.9,497522.417,8,400,41,,ISIC_0192893.JPG
break,html.Screen,4_40_1,2023-09-11T21:02:03.796Z,,0,,,NaN,,,,,,false,,,,497491.5,497491.30000019073,,497490.7000002861,,497522.417,8,400,,,
break_continue,html.Screen,4_40_2,2023-09-11T21:02:03.796Z,,0,,,NaN,,,,,,false,,,,497492.10000038147,497492,,497491.7000002861,,497522.417,8,400,,,
sequence,flow.Sequence,4_40,2023-09-11T21:02:03.796Z,,0,,,2653.0999999999767,completion,,,,,false,,,,497492.30000019073,497492,494822.48,494813.80000019073,494838.9,497522.417,8,400,,,
trial,html.Screen,4_41_0,2023-09-11T21:02:06.666Z,,0,1,,2838.9830000953516,response,ISIC_2854303.JPG,7,ISIC_4332846.JPG,ISIC_2854303.JPG,false,1,keypress(m),500,500361.60000038147,500361.40000009537,497506.005,497492.30000019073,497522.417,500389.279,8,400,42,,ISIC_4332846.JPG
break,html.Screen,4_41_1,2023-09-11T21:02:06.666Z,,0,,,NaN,,,,,,false,,,,500362.30000019073,500362.10000038147,,500361.7000002861,,500389.279,8,400,,,
break_continue,html.Screen,4_41_2,2023-09-11T21:02:06.667Z,,0,,,NaN,,,,,,false,,,,500362.80000019073,500362.7000002861,,500362.40000009537,,500389.279,8,400,,,
sequence,flow.Sequence,4_41,2023-09-11T21:02:06.667Z,,0,,,2840.2830002860865,completion,,,,,false,,,,500363,500362.7000002861,497506.005,497492.30000019073,497522.417,500389.279,8,400,,,
trial,html.Screen,4_42_0,2023-09-11T21:02:10.753Z,,0,1,,4059.421000286122,response,ISIC_0028129.JPG,10,ISIC_0029874.JPG,ISIC_0028129.JPG,false,1,keypress(m),500,504449.10000038147,504448.7000002861,500372.81,500363.2000002861,500389.279,504472.858,8,400,43,,ISIC_0029874.JPG
break,html.Screen,4_42_1,2023-09-11T21:02:10.754Z,,0,,,NaN,,,,,,false,,,,504450.10000038147,504449.90000009537,,504449.30000019073,,504472.858,8,400,,,
break_continue,html.Screen,4_42_2,2023-09-11T21:02:10.755Z,,0,,,NaN,,,,,,false,,,,504450.60000038147,504450.60000038147,,504450.30000019073,,504472.858,8,400,,,
sequence,flow.Sequence,4_42,2023-09-11T21:02:10.755Z,,0,,,4061.3210003814893,completion,,,,,false,,,,504450.90000009537,504450.60000038147,500372.81,500363.2000002861,500389.279,504472.858,8,400,,,
trial,html.Screen,4_43_0,2023-09-11T21:02:15.144Z,,0,1,,4366.641999999993,response,ISIC_5097947.JPG,5,ISIC_1115160.JPG,ISIC_1115160.JPG,false,0,keypress(z),500,508839.80000019073,508839.5,504456.477,504451,504472.858,508856.781,8,400,44,,ISIC_5097947.JPG
break,html.Screen,4_43_1,2023-09-11T21:02:15.145Z,,0,,,NaN,,,,,,false,,,,508841.10000038147,508840.80000019073,,508840.2000002861,,508856.781,8,400,,,
break_continue,html.Screen,4_43_2,2023-09-11T21:02:15.146Z,,0,,,NaN,,,,,,false,,,,508841.60000038147,508841.5,,508841.2000002861,,508856.781,8,400,,,
sequence,flow.Sequence,4_43,2023-09-11T21:02:15.146Z,,0,,,4368.641999999993,completion,,,,,false,,,,508841.80000019073,508841.5,504456.477,504450.90000009537,504472.858,508856.781,8,400,,,
trial,html.Screen,4_44_0,2023-09-11T21:02:18.462Z,,0,1,,3301.11900009535,response,ISIC_7976724.JPG,10,ISIC_0014186.JPG,ISIC_7976724.JPG,false,1,keypress(m),500,512158.2000002861,512157.90000009537,508839.894,508841.90000009537,508856.781,512190.238,8,400,45,,ISIC_0014186.JPG
break,html.Screen,4_44_1,2023-09-11T21:02:18.463Z,,0,,,NaN,,,,,,false,,,,512159.40000009537,512159,,512158.40000009537,,512190.238,8,400,,,
break_continue,html.Screen,4_44_2,2023-09-11T21:02:18.464Z,,0,,,NaN,,,,,,false,,,,512160.2000002861,512160,,512159.5,,512190.238,8,400,,,
sequence,flow.Sequence,4_44,2023-09-11T21:02:18.464Z,,0,,,3303.2189999999828,completion,,,,,false,,,,512160.40000009537,512160,508839.894,508841.90000009537,508856.781,512190.238,8,400,,,
trial,html.Screen,4_45_0,2023-09-11T21:02:22.358Z,,0,1,,3863.46200028609,response,ISIC_1711185.JPG,6,ISIC_0033981.JPG,ISIC_1711185.JPG,false,1,keypress(m),500,516054.10000038147,516053.7000002861,512173.663,512160.60000038147,512190.238,516073.631,8,400,46,,ISIC_0033981.JPG
break,html.Screen,4_45_1,2023-09-11T21:02:22.359Z,,0,,,NaN,,,,,,false,,,,516055.2000002861,516054.90000009537,,516054.2000002861,,516073.631,8,400,,,
break_continue,html.Screen,4_45_2,2023-09-11T21:02:22.359Z,,0,,,NaN,,,,,,false,,,,516055.80000019073,516055.60000038147,,516055.40000009537,,516073.631,8,400,,,
sequence,flow.Sequence,4_45,2023-09-11T21:02:22.359Z,,0,,,3865.3620003814576,completion,,,,,false,,,,516055.90000009537,516055.60000038147,512173.663,512160.60000038147,512190.238,516073.631,8,400,,,
trial,html.Screen,4_46_0,2023-09-11T21:02:25.242Z,,0,1,,2864.169000190741,response,ISIC_4851652.JPG,12,ISIC_1423737.JPG,ISIC_1423737.JPG,false,0,keypress(z),500,518938.2000002861,518937.80000019073,516056.983,516056,516073.631,518957.435,8,400,47,,ISIC_4851652.JPG
break,html.Screen,4_46_1,2023-09-11T21:02:25.243Z,,0,,,NaN,,,,,,false,,,,518939.30000019073,518939,,518938.40000009537,,518957.435,8,400,,,
break_continue,html.Screen,4_46_2,2023-09-11T21:02:25.243Z,,0,,,NaN,,,,,,false,,,,518939.7000002861,518939.7000002861,,518939.5,,518957.435,8,400,,,
sequence,flow.Sequence,4_46,2023-09-11T21:02:25.243Z,,0,,,2866.0690002861083,completion,,,,,false,,,,518940,518939.7000002861,516056.983,516056,516073.631,518957.435,8,400,,,
trial,html.Screen,4_47_0,2023-09-11T21:02:29.408Z,,0,1,,4146.865000190737,response,ISIC_0058649.JPG,9,ISIC_3058627.JPG,ISIC_3058627.JPG,false,0,keypress(z),500,523104.60000038147,523104.30000019073,518940.503,518940,518957.435,523124.401,8,400,48,,ISIC_0058649.JPG
break,html.Screen,4_47_1,2023-09-11T21:02:29.409Z,,0,,,NaN,,,,,,false,,,,523105.60000038147,523105.40000009537,,523104.80000019073,,523124.401,8,400,,,
break_continue,html.Screen,4_47_2,2023-09-11T21:02:29.410Z,,0,,,NaN,,,,,,false,,,,523106.2000002861,523106.10000038147,,523105.80000019073,,523124.401,8,400,,,
sequence,flow.Sequence,4_47,2023-09-11T21:02:29.410Z,,0,,,4148.665000381472,completion,,,,,false,,,,523106.30000019073,523106.10000038147,518940.503,518940,518957.435,523124.401,8,400,,,
trial,html.Screen,4_48_0,2023-09-11T21:02:33.470Z,,0,1,,4042.0989999999874,response,ISIC_5777181.JPG,10,ISIC_0064517.JPG,ISIC_0064517.JPG,false,0,keypress(z),500,527166.9000000954,527166.5,523107.471,523106.5,523124.401,527191.091,8,400,49,,ISIC_5777181.JPG
break,html.Screen,4_48_1,2023-09-11T21:02:33.472Z,,0,,,NaN,,,,,,false,,,,527168.4000000954,527168,,527167.2000002861,,527191.091,8,400,,,
break_continue,html.Screen,4_48_2,2023-09-11T21:02:33.473Z,,0,,,NaN,,,,,,false,,,,527169.1000003815,527169,,527168.6000003815,,527191.091,8,400,,,
sequence,flow.Sequence,4_48,2023-09-11T21:02:33.473Z,,0,,,4044.5989999999874,completion,,,,,false,,,,527169.3000001907,527169,523107.471,523106.5,523124.401,527191.091,8,400,,,
trial,html.Screen,4_49_0,2023-09-11T21:02:37.494Z,,0,1,,3999.408999999985,response,ISIC_0060749.JPG,5,ISIC_5482426.JPG,ISIC_0060749.JPG,false,1,keypress(m),500,531190.9000000954,531190.5,527174.534,527169.5,527191.091,531208.096,8,400,50,,ISIC_5482426.JPG
break,html.Screen,4_49_1,2023-09-11T21:02:47.497Z,,0,,,10000.680999999982,timeout,,,,,false,,,,541193.4000000954,541192.373,531191.345,531191.2000002861,531208.096,541208.777,8,400,,,
break_continue,html.Screen,4_49_2,2023-09-11T21:02:49.596Z,,0,,,2079.222999999998,response,,,,,false,continue,keypress(Space),,543292.1000003815,543288,541192.373,541193.5,541208.777,543308.893,8,400,,,
sequence,flow.Sequence,4_49,2023-09-11T21:02:49.596Z,,0,,,16096.908999999985,completion,,,,,false,,,,543292.2000002861,543288,527174.534,527169.4000000954,527191.091,543308.893,8,400,,,
trial,html.Screen,4_50_0,2023-09-11T21:02:52.897Z,,0,2,,3284.60699999996,response,ISIC_2819798.JPG,9,ISIC_3436139.JPG,ISIC_2819798.JPG,false,1,keypress(m),500,546593.8000001907,546593.5,543292.11,543292.3000001907,543308.893,546625.971,8,400,1,,ISIC_3436139.JPG
break,html.Screen,4_50_1,2023-09-11T21:02:52.899Z,,0,,,NaN,,,,,,false,,,,546595.3000001907,546595,,546594.1000003815,,546625.971,8,400,,,
break_continue,html.Screen,4_50_2,2023-09-11T21:02:52.899Z,,0,,,NaN,,,,,,false,,,,546595.9000000954,546595.8000001907,,546595.5,,546625.971,8,400,,,
sequence,flow.Sequence,4_50,2023-09-11T21:02:52.900Z,,0,,,3286.907000190695,completion,,,,,false,,,,546596.1000003815,546595.8000001907,543292.11,543292.3000001907,543308.893,546625.971,8,400,,,
trial,html.Screen,4_51_0,2023-09-11T21:02:56.571Z,,0,2,,3641.62900038145,response,ISIC_0032836.JPG,12,ISIC_0031293.JPG,ISIC_0031293.JPG,false,0,keypress(z),500,550267.9000000954,550267.6000003815,546609.329,546596.2000002861,546625.971,550292.652,8,400,2,,ISIC_0032836.JPG
break,html.Screen,4_51_1,2023-09-11T21:02:56.573Z,,0,,,NaN,,,,,,false,,,,550269,550268.7000002861,,550268.2000002861,,550292.652,8,400,,,
break_continue,html.Screen,4_51_2,2023-09-11T21:02:56.573Z,,0,,,NaN,,,,,,false,,,,550269.6000003815,550269.5,,550269.2000002861,,550292.652,8,400,,,
sequence,flow.Sequence,4_51,2023-09-11T21:02:56.573Z,,0,,,3643.5289999999804,completion,,,,,false,,,,550269.7000002861,550269.5,546609.329,546596.2000002861,546625.971,550292.652,8,400,,,
trial,html.Screen,4_52_0,2023-09-11T21:02:59.223Z,,0,2,,2626.2480000953656,response,ISIC_0069411.JPG,7,ISIC_0007884.JPG,ISIC_0007884.JPG,false,0,keypress(z),500,552919.1000003815,552918.9000000954,550276.069,550269.9000000954,550292.652,552942.979,8,400,3,,ISIC_0069411.JPG
break,html.Screen,4_52_1,2023-09-11T21:02:59.224Z,,0,,,NaN,,,,,,false,,,,552920.1000003815,552919.9000000954,,552919.4000000954,,552942.979,8,400,,,
break_continue,html.Screen,4_52_2,2023-09-11T21:02:59.224Z,,0,,,NaN,,,,,,false,,,,552920.6000003815,552920.5,,552920.2000002861,,552942.979,8,400,,,
sequence,flow.Sequence,4_52,2023-09-11T21:02:59.224Z,,0,,,2627.847999999998,completion,,,,,false,,,,552920.9000000954,552920.5,550276.069,550269.9000000954,550292.652,552942.979,8,400,,,
trial,html.Screen,4_53_0,2023-09-11T21:03:02.271Z,,0,2,,3024.421000095317,response,ISIC_0010869.JPG,6,ISIC_8383600.JPG,ISIC_8383600.JPG,false,0,keypress(z),500,555967.7000002861,555967.4000000954,552926.201,552920.9000000954,552942.979,555993.249,8,400,4,,ISIC_0010869.JPG
break,html.Screen,4_53_1,2023-09-11T21:03:02.272Z,,0,,,NaN,,,,,,false,,,,555968.8000001907,555968.6000003815,,555968,,555993.249,8,400,,,
break_continue,html.Screen,4_53_2,2023-09-11T21:03:02.273Z,,0,,,NaN,,,,,,false,,,,555969.4000000954,555969.2000002861,,555969,,555993.249,8,400,,,
sequence,flow.Sequence,4_53,2023-09-11T21:03:02.273Z,,0,,,3026.221000286052,completion,,,,,false,,,,555969.5,555969.2000002861,552926.201,552920.9000000954,552942.979,555993.249,8,400,,,
trial,html.Screen,4_54_0,2023-09-11T21:03:05.098Z,,0,2,,2801.151000095415,response,ISIC_1925590.JPG,7,ISIC_8068693.JPG,ISIC_1925590.JPG,false,1,keypress(m),500,558794.7000002861,558794.4000000954,555976.483,555969.8000001907,555993.249,558826.824,8,400,5,,ISIC_8068693.JPG
break,html.Screen,4_54_1,2023-09-11T21:03:05.099Z,,0,,,NaN,,,,,,false,,,,558795.8000001907,558795.6000003815,,558795.1000003815,,558826.824,8,400,,,
break_continue,html.Screen,4_54_2,2023-09-11T21:03:05.100Z,,0,,,NaN,,,,,,false,,,,558796.3000001907,558796.2000002861,,558795.9000000954,,558826.824,8,400,,,
sequence,flow.Sequence,4_54,2023-09-11T21:03:05.100Z,,0,,,2802.95100028615,completion,,,,,false,,,,558796.6000003815,558796.2000002861,555976.483,555969.6000003815,555993.249,558826.824,8,400,,,
trial,html.Screen,4_55_0,2023-09-11T21:03:08.421Z,,0,2,,3290.6759999999776,response,ISIC_7004652.JPG,12,ISIC_8145348.JPG,ISIC_8145348.JPG,false,0,keypress(z),500,562117.9000000954,562117.5,558810.147,558796.8000001907,558826.824,562143.459,8,400,6,,ISIC_7004652.JPG
break,html.Screen,4_55_1,2023-09-11T21:03:08.423Z,,0,,,NaN,,,,,,false,,,,562119.2000002861,562118.8000001907,,562118.1000003815,,562143.459,8,400,,,
break_continue,html.Screen,4_55_2,2023-09-11T21:03:08.423Z,,0,,,NaN,,,,,,false,,,,562119.6000003815,562119.6000003815,,562119.3000001907,,562143.459,8,400,,,
sequence,flow.Sequence,4_55,2023-09-11T21:03:08.423Z,,0,,,3292.7760003814474,completion,,,,,false,,,,562119.9000000954,562119.6000003815,558810.147,558796.8000001907,558826.824,562143.459,8,400,,,
trial,html.Screen,4_56_0,2023-09-11T21:03:14.522Z,,0,2,,6075.141000381438,response,ISIC_0071586.JPG,7,ISIC_0014912.JPG,ISIC_0071586.JPG,false,1,keypress(m),500,568218.9000000954,568218.6000003815,562126.921,562120,562143.459,568243.864,8,400,7,,ISIC_0014912.JPG
break,html.Screen,4_56_1,2023-09-11T21:03:14.524Z,,0,,,NaN,,,,,,false,,,,568220,568219.8000001907,,568219.2000002861,,568243.864,8,400,,,
break_continue,html.Screen,4_56_2,2023-09-11T21:03:14.524Z,,0,,,NaN,,,,,,false,,,,568220.7000002861,568220.6000003815,,568220.2000002861,,568243.864,8,400,,,
sequence,flow.Sequence,4_56,2023-09-11T21:03:14.525Z,,0,,,6077.141000381438,completion,,,,,false,,,,568221,568220.6000003815,562126.921,562120,562143.459,568243.864,8,400,,,
trial,html.Screen,4_57_0,2023-09-11T21:03:17.461Z,,0,2,,2913.4360001907917,response,ISIC_1226440.JPG,6,ISIC_0062401.JPG,ISIC_1226440.JPG,false,1,keypress(m),500,571157.6000003815,571157.3000001907,568227.279,568221.3000001907,568243.864,571177.55,8,400,8,,ISIC_0062401.JPG
break,html.Screen,4_57_1,2023-09-11T21:03:17.462Z,,0,,,NaN,,,,,,false,,,,571158.5,571158.3000001907,,571157.9000000954,,571177.55,8,400,,,
break_continue,html.Screen,4_57_2,2023-09-11T21:03:17.463Z,,0,,,NaN,,,,,,false,,,,571159,571158.9000000954,,571158.7000002861,,571177.55,8,400,,,
sequence,flow.Sequence,4_57,2023-09-11T21:03:17.463Z,,0,,,2915.0360000954242,completion,,,,,false,,,,571159.1000003815,571158.9000000954,568227.279,568221.2000002861,568243.864,571177.55,8,400,,,
trial,html.Screen,4_58_0,2023-09-11T21:03:21.572Z,,0,2,,4084.7500001906883,response,ISIC_7186677.JPG,12,ISIC_0025658.JPG,ISIC_0025658.JPG,false,0,keypress(z),500,575262.6000003815,575262.3000001907,571160.709,571159.3000001907,571177.55,575294.315,8,400,9,,ISIC_7186677.JPG
break,html.Screen,4_58_1,2023-09-11T21:03:21.573Z,,0,,,NaN,,,,,,false,,,,575263.8000001907,575263.4000000954,,575262.8000001907,,575294.315,8,400,,,
break_continue,html.Screen,4_58_2,2023-09-11T21:03:21.574Z,,0,,,NaN,,,,,,false,,,,575264.4000000954,575264.3000001907,,575263.9000000954,,575294.315,8,400,,,
sequence,flow.Sequence,4_58,2023-09-11T21:03:21.574Z,,0,,,4086.7500001906883,completion,,,,,false,,,,575264.6000003815,575264.3000001907,571160.709,571159.3000001907,571177.55,575294.315,8,400,,,
trial,html.Screen,4_59_0,2023-09-11T21:03:24.786Z,,0,2,,3182.2850003815256,response,ISIC_0011701.JPG,8,ISIC_0032494.JPG,ISIC_0032494.JPG,false,0,keypress(z),500,578476.9000000954,578476.6000003815,575277.926,575264.9000000954,575294.315,578494.855,8,400,10,,ISIC_0011701.JPG
break,html.Screen,4_59_1,2023-09-11T21:03:24.788Z,,0,,,NaN,,,,,,false,,,,578478.5,578477.9000000954,,578477.2000002861,,578494.855,8,400,,,
break_continue,html.Screen,4_59_2,2023-09-11T21:03:24.788Z,,0,,,NaN,,,,,,false,,,,578479,578478.8000001907,,578478.6000003815,,578494.855,8,400,,,
sequence,flow.Sequence,4_59,2023-09-11T21:03:24.789Z,,0,,,3184.4850001907907,completion,,,,,false,,,,578479.2000002861,578478.8000001907,575277.926,575264.9000000954,575294.315,578494.855,8,400,,,
trial,html.Screen,4_60_0,2023-09-11T21:03:27.630Z,,0,2,,2824.845000286121,response,ISIC_0069591.JPG,10,ISIC_0072377.JPG,ISIC_0069591.JPG,false,1,keypress(m),500,581320.1000003815,581319.7000002861,578477.872,578479.3000001907,578494.855,581328.052,8,400,11,,ISIC_0072377.JPG
break,html.Screen,4_60_1,2023-09-11T21:03:27.633Z,,0,,,NaN,,,,,,false,,,,581323.1000003815,581322.9000000954,,581322.3000001907,,581328.052,8,400,,,
break_continue,html.Screen,4_60_2,2023-09-11T21:03:27.633Z,,0,,,NaN,,,,,,false,,,,581323.7000002861,581323.6000003815,,581323.3000001907,,581328.052,8,400,,,
sequence,flow.Sequence,4_60,2023-09-11T21:03:27.633Z,,0,,,2828.7450003814884,completion,,,,,false,,,,581323.8000001907,581323.6000003815,578477.872,578479.2000002861,578494.855,581328.052,8,400,,,
trial,html.Screen,4_61_0,2023-09-11T21:03:32.672Z,,0,2,,5033.447999999975,response,ISIC_3717983.JPG,5,ISIC_9865097.JPG,ISIC_9865097.JPG,false,0,keypress(z),500,586362,586361.5,581311.399,581323.9000000954,581328.052,586378.381,8,400,12,,ISIC_3717983.JPG
break,html.Screen,4_61_1,2023-09-11T21:03:32.673Z,,0,,,NaN,,,,,,false,,,,586363.3000001907,586363.1000003815,,586362.4000000954,,586378.381,8,400,,,
break_continue,html.Screen,4_61_2,2023-09-11T21:03:32.673Z,,0,,,NaN,,,,,,false,,,,586363.8000001907,586363.8000001907,,586363.5,,586378.381,8,400,,,
sequence,flow.Sequence,4_61,2023-09-11T21:03:32.673Z,,0,,,5035.74800019071,completion,,,,,false,,,,586364,586363.8000001907,581311.399,581323.9000000954,581328.052,586378.381,8,400,,,
trial,html.Screen,4_62_0,2023-09-11T21:03:36.637Z,,0,2,,3948.4190001906827,response,ISIC_0006717.JPG,8,ISIC_3148886.JPG,ISIC_3148886.JPG,false,0,keypress(z),500,590327.3000001907,590326.8000001907,586361.752,586364.2000002861,586378.381,590345.521,8,400,13,,ISIC_0006717.JPG
break,html.Screen,4_62_1,2023-09-11T21:03:36.638Z,,0,,,NaN,,,,,,false,,,,590329,590328.4000000954,,590327.7000002861,,590345.521,8,400,,,
break_continue,html.Screen,4_62_2,2023-09-11T21:03:36.639Z,,0,,,NaN,,,,,,false,,,,590329.6000003815,590329.4000000954,,590329.1000003815,,590345.521,8,400,,,
sequence,flow.Sequence,4_62,2023-09-11T21:03:36.639Z,,0,,,3951.0190000953153,completion,,,,,false,,,,590329.8000001907,590329.4000000954,586361.752,586364.1000003815,586378.381,590345.521,8,400,,,
trial,html.Screen,4_63_0,2023-09-11T21:03:40.264Z,,0,2,,3608.6790002861526,response,ISIC_0030729.JPG,9,ISIC_0033574.JPG,ISIC_0030729.JPG,false,1,keypress(m),500,593954.5,593954.2000002861,590328.692,590330,590345.521,593978.891,8,400,14,,ISIC_0033574.JPG
break,html.Screen,4_63_1,2023-09-11T21:03:40.265Z,,0,,,NaN,,,,,,false,,,,593955.8000001907,593955.5,,593954.8000001907,,593978.891,8,400,,,
break_continue,html.Screen,4_63_2,2023-09-11T21:03:40.266Z,,0,,,NaN,,,,,,false,,,,593956.4000000954,593956.2000002861,,593955.9000000954,,593978.891,8,400,,,
sequence,flow.Sequence,4_63,2023-09-11T21:03:40.266Z,,0,,,3610.6790002861526,completion,,,,,false,,,,593956.6000003815,593956.2000002861,590328.692,590329.8000001907,590345.521,593978.891,8,400,,,
trial,html.Screen,4_64_0,2023-09-11T21:03:45.032Z,,0,2,,4743.40900019079,response,ISIC_0029531.JPG,6,ISIC_0030116.JPG,ISIC_0029531.JPG,false,1,keypress(m),500,598722.7000002861,598722.3000001907,593962.331,593956.7000002861,593978.891,598746.191,8,400,15,,ISIC_0030116.JPG
break,html.Screen,4_64_1,2023-09-11T21:03:45.033Z,,0,,,NaN,,,,,,false,,,,598723.8000001907,598723.6000003815,,598723,,598746.191,8,400,,,
break_continue,html.Screen,4_64_2,2023-09-11T21:03:45.034Z,,0,,,NaN,,,,,,false,,,,598724.4000000954,598724.3000001907,,598724,,598746.191,8,400,,,
sequence,flow.Sequence,4_64,2023-09-11T21:03:45.034Z,,0,,,4745.40900019079,completion,,,,,false,,,,598724.5,598724.3000001907,593962.331,593956.7000002861,593978.891,598746.191,8,400,,,
trial,html.Screen,4_65_0,2023-09-11T21:03:48.288Z,,0,2,,3232.209000095376,response,ISIC_0030957.JPG,5,ISIC_7903838.JPG,ISIC_7903838.JPG,false,0,keypress(z),500,601978.8000001907,601978.4000000954,598729.525,598724.6000003815,598746.191,601996.284,8,400,16,,ISIC_0030957.JPG
break,html.Screen,4_65_1,2023-09-11T21:03:48.290Z,,0,,,NaN,,,,,,false,,,,601980.2000002861,601980,,601979.1000003815,,601996.284,8,400,,,
break_continue,html.Screen,4_65_2,2023-09-11T21:03:48.290Z,,0,,,NaN,,,,,,false,,,,601980.8000001907,601980.6000003815,,601980.4000000954,,601996.284,8,400,,,
sequence,flow.Sequence,4_65,2023-09-11T21:03:48.290Z,,0,,,3234.409000381478,completion,,,,,false,,,,601981,601980.6000003815,598729.525,598724.6000003815,598746.191,601996.284,8,400,,,
trial,html.Screen,4_66_0,2023-09-11T21:03:53.241Z,,0,2,,4934.716000000015,response,ISIC_8287726.JPG,12,ISIC_0283506.JPG,ISIC_0283506.JPG,false,0,keypress(z),500,606931.3000001907,606931,601979.47,601981.1000003815,601996.284,606963.298,8,400,17,,ISIC_8287726.JPG
break,html.Screen,4_66_1,2023-09-11T21:03:53.242Z,,0,,,NaN,,,,,,false,,,,606932.3000001907,606932,,606931.5,,606963.298,8,400,,,
break_continue,html.Screen,4_66_2,2023-09-11T21:03:53.242Z,,0,,,NaN,,,,,,false,,,,606933,606932.8000001907,,606932.5,,606963.298,8,400,,,
sequence,flow.Sequence,4_66,2023-09-11T21:03:53.243Z,,0,,,4936.51600019075,completion,,,,,false,,,,606933.2000002861,606932.8000001907,601979.47,601981.1000003815,601996.284,606963.298,8,400,,,
trial,html.Screen,4_67_0,2023-09-11T21:03:56.574Z,,0,2,,3301.102000095416,response,ISIC_0025218.JPG,5,ISIC_2612661.JPG,ISIC_2612661.JPG,false,0,keypress(z),500,610264.6000003815,610264.4000000954,606946.462,606933.3000001907,606963.298,610296.856,8,400,18,,ISIC_0025218.JPG
break,html.Screen,4_67_1,2023-09-11T21:03:56.575Z,,0,,,NaN,,,,,,false,,,,610265.7000002861,610265.3000001907,,610264.8000001907,,610296.856,8,400,,,
break_continue,html.Screen,4_67_2,2023-09-11T21:03:56.576Z,,0,,,NaN,,,,,,false,,,,610266.4000000954,610266.2000002861,,610266,,610296.856,8,400,,,
sequence,flow.Sequence,4_67,2023-09-11T21:03:56.576Z,,0,,,3302.9020002861507,completion,,,,,false,,,,610266.7000002861,610266.2000002861,606946.462,606933.2000002861,606963.298,610296.856,8,400,,,
trial,html.Screen,4_68_0,2023-09-11T21:03:59.395Z,,0,2,,2788.143999999971,response,ISIC_4272317.JPG,10,ISIC_0046526.JPG,ISIC_4272317.JPG,false,1,keypress(m),500,613085.4000000954,613085,610280.242,610266.9000000954,610296.856,613113.572,8,400,19,,ISIC_0046526.JPG
break,html.Screen,4_68_1,2023-09-11T21:03:59.396Z,,0,,,NaN,,,,,,false,,,,613086.6000003815,613086.3000001907,,613085.8000001907,,613113.572,8,400,,,
break_continue,html.Screen,4_68_2,2023-09-11T21:03:59.396Z,,0,,,NaN,,,,,,false,,,,613087.1000003815,613087,,613086.7000002861,,613113.572,8,400,,,
sequence,flow.Sequence,4_68,2023-09-11T21:03:59.397Z,,0,,,2790.143999999971,completion,,,,,false,,,,613087.2000002861,613087,610280.242,610266.8000001907,610296.856,613113.572,8,400,,,
trial,html.Screen,4_69_0,2023-09-11T21:04:02.108Z,,0,2,,2684.8280000953237,response,ISIC_0055147.JPG,7,ISIC_7833008.JPG,ISIC_7833008.JPG,false,0,keypress(z),500,615798.8000001907,615798.4000000954,613097.153,613087.3000001907,613113.572,615830.549,8,400,20,,ISIC_0055147.JPG
break,html.Screen,4_69_1,2023-09-11T21:04:02.109Z,,0,,,NaN,,,,,,false,,,,615799.9000000954,615799.5,,615799,,615830.549,8,400,,,
break_continue,html.Screen,4_69_2,2023-09-11T21:04:02.110Z,,0,,,NaN,,,,,,false,,,,615800.3000001907,615800.2000002861,,615799.9000000954,,615830.549,8,400,,,
sequence,flow.Sequence,4_69,2023-09-11T21:04:02.110Z,,0,,,2686.6280002860585,completion,,,,,false,,,,615800.5,615800.2000002861,613097.153,613087.3000001907,613113.572,615830.549,8,400,,,
trial,html.Screen,4_70_0,2023-09-11T21:04:05.208Z,,0,2,,3067.8510000953684,response,ISIC_0009940.JPG,11,ISIC_6098768.JPG,ISIC_6098768.JPG,false,0,keypress(z),500,618898.6000003815,618898.4000000954,615813.73,615800.6000003815,615830.549,618930.746,8,400,21,,ISIC_0009940.JPG
break,html.Screen,4_70_1,2023-09-11T21:04:05.209Z,,0,,,NaN,,,,,,false,,,,618899.6000003815,618899.3000001907,,618898.8000001907,,618930.746,8,400,,,
break_continue,html.Screen,4_70_2,2023-09-11T21:04:05.209Z,,0,,,NaN,,,,,,false,,,,618900.1000003815,618899.9000000954,,618899.7000002861,,618930.746,8,400,,,
sequence,flow.Sequence,4_70,2023-09-11T21:04:05.210Z,,0,,,3069.3510000953684,completion,,,,,false,,,,618900.2000002861,618899.9000000954,615813.73,615800.6000003815,615830.549,618930.746,8,400,,,
trial,html.Screen,4_71_0,2023-09-11T21:04:08.404Z,,0,2,,3163.1540000953246,response,ISIC_2596574.JPG,10,ISIC_0028489.JPG,ISIC_2596574.JPG,false,1,keypress(m),500,622094.2000002861,622093.9000000954,618914.152,618900.3000001907,618930.746,622114.458,8,400,22,,ISIC_0028489.JPG
break,html.Screen,4_71_1,2023-09-11T21:04:08.405Z,,0,,,NaN,,,,,,false,,,,622095.4000000954,622095.1000003815,,622094.6000003815,,622114.458,8,400,,,
break_continue,html.Screen,4_71_2,2023-09-11T21:04:08.405Z,,0,,,NaN,,,,,,false,,,,622095.9000000954,622095.8000001907,,622095.6000003815,,622114.458,8,400,,,
sequence,flow.Sequence,4_71,2023-09-11T21:04:08.406Z,,0,,,3165.054000190692,completion,,,,,false,,,,622096.1000003815,622095.8000001907,618914.152,618900.3000001907,618930.746,622114.458,8,400,,,
trial,html.Screen,4_72_0,2023-09-11T21:04:11.265Z,,0,2,,2840.742000286118,response,ISIC_0030437.JPG,11,ISIC_0014527.JPG,ISIC_0014527.JPG,false,0,keypress(z),500,624955.5,624955.2000002861,622097.566,622096.2000002861,622114.458,624981.042,8,400,23,,ISIC_0030437.JPG
break,html.Screen,4_72_1,2023-09-11T21:04:11.266Z,,0,,,NaN,,,,,,false,,,,624956.6000003815,624956.4000000954,,624955.8000001907,,624981.042,8,400,,,
break_continue,html.Screen,4_72_2,2023-09-11T21:04:11.267Z,,0,,,NaN,,,,,,false,,,,624957.6000003815,624957.4000000954,,624957,,624981.042,8,400,,,
sequence,flow.Sequence,4_72,2023-09-11T21:04:11.267Z,,0,,,2842.9420000953833,completion,,,,,false,,,,624957.9000000954,624957.4000000954,622097.566,622096.2000002861,622114.458,624981.042,8,400,,,
trial,html.Screen,4_73_0,2023-09-11T21:04:14.733Z,,0,2,,3442.758000190719,response,ISIC_9939653.JPG,5,ISIC_9881460.JPG,ISIC_9939653.JPG,false,1,keypress(m),500,628424,628423.8000001907,624964.42,624958.1000003815,624981.042,628448.199,8,400,24,,ISIC_9881460.JPG
break,html.Screen,4_73_1,2023-09-11T21:04:14.734Z,,0,,,NaN,,,,,,false,,,,628424.5,628424.4000000954,,628424.1000003815,,628448.199,8,400,,,
break_continue,html.Screen,4_73_2,2023-09-11T21:04:14.734Z,,0,,,NaN,,,,,,false,,,,628424.7000002861,628424.7000002861,,628424.5,,628448.199,8,400,,,
sequence,flow.Sequence,4_73,2023-09-11T21:04:14.734Z,,0,,,3443.6580002860865,completion,,,,,false,,,,628424.8000001907,628424.7000002861,624964.42,624958.1000003815,624981.042,628448.199,8,400,,,
trial,html.Screen,4_74_0,2023-09-11T21:04:17.907Z,,0,2,,3148.8009999999776,response,ISIC_0024952.JPG,8,ISIC_0770920.JPG,ISIC_0024952.JPG,false,1,keypress(m),500,631597.2000002861,631597,628431.571,628424.8000001907,628448.199,631614.824,8,400,25,,ISIC_0770920.JPG
break,html.Screen,4_74_1,2023-09-11T21:04:17.908Z,,0,,,NaN,,,,,,false,,,,631598.4000000954,631597.9000000954,,631597.4000000954,,631614.824,8,400,,,
break_continue,html.Screen,4_74_2,2023-09-11T21:04:17.908Z,,0,,,NaN,,,,,,false,,,,631598.9000000954,631598.8000001907,,631598.5,,631614.824,8,400,,,
sequence,flow.Sequence,4_74,2023-09-11T21:04:17.909Z,,0,,,3150.6010001907125,completion,,,,,false,,,,631599.1000003815,631598.8000001907,628431.571,628424.8000001907,628448.199,631614.824,8,400,,,
trial,html.Screen,4_75_0,2023-09-11T21:04:22.142Z,,0,2,,4217.9760001907125,response,ISIC_6684042.JPG,10,ISIC_7973601.JPG,ISIC_7973601.JPG,false,0,keypress(z),500,635833,635832.8000001907,631598.136,631599.3000001907,631614.824,635865.255,8,400,26,,ISIC_6684042.JPG
break,html.Screen,4_75_1,2023-09-11T21:04:22.143Z,,0,,,NaN,,,,,,false,,,,635833.9000000954,635833.8000001907,,635833.2000002861,,635865.255,8,400,,,
break_continue,html.Screen,4_75_2,2023-09-11T21:04:22.144Z,,0,,,NaN,,,,,,false,,,,635834.5,635834.3000001907,,635834.2000002861,,635865.255,8,400,,,
sequence,flow.Sequence,4_75,2023-09-11T21:04:22.144Z,,0,,,4219.4760001907125,completion,,,,,false,,,,635834.7000002861,635834.3000001907,631598.136,631599.3000001907,631614.824,635865.255,8,400,,,
trial,html.Screen,4_76_0,2023-09-11T21:04:25.593Z,,0,2,,3417.645000095363,response,ISIC_9826778.JPG,6,ISIC_9288923.JPG,ISIC_9826778.JPG,false,1,keypress(m),500,639283.2000002861,639282.9000000954,635848.562,635834.8000001907,635865.255,639315.347,8,400,27,,ISIC_9288923.JPG
break,html.Screen,4_76_1,2023-09-11T21:04:25.593Z,,0,,,NaN,,,,,,false,,,,639284.1000003815,639283.9000000954,,639283.3000001907,,639315.347,8,400,,,
break_continue,html.Screen,4_76_2,2023-09-11T21:04:25.594Z,,0,,,NaN,,,,,,false,,,,639284.5,639284.4000000954,,639284.2000002861,,639315.347,8,400,,,
sequence,flow.Sequence,4_76,2023-09-11T21:04:25.594Z,,0,,,3419.145000095363,completion,,,,,false,,,,639284.7000002861,639284.4000000954,635848.562,635834.7000002861,635865.255,639315.347,8,400,,,
trial,html.Screen,4_77_0,2023-09-11T21:04:28.341Z,,0,2,,2715.6530000000494,response,ISIC_0031598.JPG,5,ISIC_6697332.JPG,ISIC_6697332.JPG,false,0,keypress(z),500,642031.2000002861,642031,639298.714,639284.8000001907,639315.347,642048.868,8,400,28,,ISIC_0031598.JPG
break,html.Screen,4_77_1,2023-09-11T21:04:28.341Z,,0,,,NaN,,,,,,false,,,,642031.6000003815,642031.5,,642031.3000001907,,642048.868,8,400,,,
break_continue,html.Screen,4_77_2,2023-09-11T21:04:28.341Z,,0,,,NaN,,,,,,false,,,,642031.9000000954,642031.9000000954,,642031.7000002861,,642048.868,8,400,,,
sequence,flow.Sequence,4_77,2023-09-11T21:04:28.341Z,,0,,,2716.553000095417,completion,,,,,false,,,,642031.9000000954,642031.9000000954,639298.714,639284.8000001907,639315.347,642048.868,8,400,,,
trial,html.Screen,4_78_0,2023-09-11T21:04:32.391Z,,0,2,,4032.932000190718,response,ISIC_0024512.JPG,8,ISIC_4445729.JPG,ISIC_4445729.JPG,false,0,keypress(z),500,646082.1000003815,646081.8000001907,642032.126,642032,642048.868,646099.084,8,400,29,,ISIC_0024512.JPG
break,html.Screen,4_78_1,2023-09-11T21:04:32.393Z,,0,,,NaN,,,,,,false,,,,646083.5,646083.2000002861,,646082.4000000954,,646099.084,8,400,,,
break_continue,html.Screen,4_78_2,2023-09-11T21:04:32.393Z,,0,,,NaN,,,,,,false,,,,646084,646083.9000000954,,646083.7000002861,,646099.084,8,400,,,
sequence,flow.Sequence,4_78,2023-09-11T21:04:32.394Z,,0,,,4035.0320000953507,completion,,,,,false,,,,646084.2000002861,646083.9000000954,642032.126,642032,642048.868,646099.084,8,400,,,
trial,html.Screen,4_79_0,2023-09-11T21:04:35.057Z,,0,2,,2648.4159999999683,response,ISIC_0014883.JPG,8,ISIC_0011370.JPG,ISIC_0011370.JPG,false,0,keypress(z),500,648747.9000000954,648747.5,646082.452,646084.4000000954,646099.084,648766.255,8,400,30,,ISIC_0014883.JPG
break,html.Screen,4_79_1,2023-09-11T21:04:35.058Z,,0,,,NaN,,,,,,false,,,,648749,648748.8000001907,,648748.1000003815,,648766.255,8,400,,,
break_continue,html.Screen,4_79_2,2023-09-11T21:04:35.059Z,,0,,,NaN,,,,,,false,,,,648749.8000001907,648749.7000002861,,648749.1000003815,,648766.255,8,400,,,
sequence,flow.Sequence,4_79,2023-09-11T21:04:35.059Z,,0,,,2650.6160002860706,completion,,,,,false,,,,648750,648749.7000002861,646082.452,646084.3000001907,646099.084,648766.255,8,400,,,
trial,html.Screen,4_80_0,2023-09-11T21:04:39.094Z,,0,2,,4017.7449999999953,response,ISIC_1628539.JPG,10,ISIC_0000077.JPG,ISIC_1628539.JPG,false,1,keypress(m),500,652784.4000000954,652784,648749.305,648750.2000002861,648766.255,652816.491,8,400,31,,ISIC_0000077.JPG
break,html.Screen,4_80_1,2023-09-11T21:04:39.095Z,,0,,,NaN,,,,,,false,,,,652785.4000000954,652785.1000003815,,652784.5,,652816.491,8,400,,,
break_continue,html.Screen,4_80_2,2023-09-11T21:04:39.095Z,,0,,,NaN,,,,,,false,,,,652785.9000000954,652785.8000001907,,652785.5,,652816.491,8,400,,,
sequence,flow.Sequence,4_80,2023-09-11T21:04:39.095Z,,0,,,4019.54500019073,completion,,,,,false,,,,652786.1000003815,652785.8000001907,648749.305,648750.2000002861,648766.255,652816.491,8,400,,,
trial,html.Screen,4_81_0,2023-09-11T21:04:42.161Z,,0,2,,3034.4090000953292,response,ISIC_0060741.JPG,10,ISIC_0011669.JPG,ISIC_0060741.JPG,false,1,keypress(m),500,655851.2000002861,655850.9000000954,652799.734,652786.3000001907,652816.491,655883.288,8,400,32,,ISIC_0011669.JPG
break,html.Screen,4_81_1,2023-09-11T21:04:42.162Z,,0,,,NaN,,,,,,false,,,,655852.3000001907,655851.9000000954,,655851.5,,655883.288,8,400,,,
break_continue,html.Screen,4_81_2,2023-09-11T21:04:42.162Z,,0,,,NaN,,,,,,false,,,,655852.8000001907,655852.6000003815,,655852.3000001907,,655883.288,8,400,,,
sequence,flow.Sequence,4_81,2023-09-11T21:04:42.162Z,,0,,,3036.1090003814315,completion,,,,,false,,,,655853,655852.6000003815,652799.734,652786.2000002861,652816.491,655883.288,8,400,,,
trial,html.Screen,4_82_0,2023-09-11T21:04:45.353Z,,0,2,,3160.112000095425,response,ISIC_8993666.JPG,12,ISIC_2075121.JPG,ISIC_8993666.JPG,false,1,keypress(m),500,659043.8000001907,659043.4000000954,655866.718,655853.2000002861,655883.288,659066.957,8,400,33,,ISIC_2075121.JPG
break,html.Screen,4_82_1,2023-09-11T21:04:45.354Z,,0,,,NaN,,,,,,false,,,,659045.1000003815,659044.8000001907,,659044.1000003815,,659066.957,8,400,,,
break_continue,html.Screen,4_82_2,2023-09-11T21:04:45.355Z,,0,,,NaN,,,,,,false,,,,659045.5,659045.4000000954,,659045.2000002861,,659066.957,8,400,,,
sequence,flow.Sequence,4_82,2023-09-11T21:04:45.355Z,,0,,,3162.112000095425,completion,,,,,false,,,,659045.8000001907,659045.4000000954,655866.718,655853.1000003815,655883.288,659066.957,8,400,,,
trial,html.Screen,4_83_0,2023-09-11T21:04:50.772Z,,0,2,,5395.042999999947,response,ISIC_4396553.JPG,12,ISIC_0033782.JPG,ISIC_0033782.JPG,false,0,keypress(z),500,664462.2000002861,664462,659050.027,659045.8000001907,659066.957,664483.985,8,400,34,,ISIC_4396553.JPG
break,html.Screen,4_83_1,2023-09-11T21:04:50.772Z,,0,,,NaN,,,,,,false,,,,664462.8000001907,664462.7000002861,,664462.3000001907,,664483.985,8,400,,,
break_continue,html.Screen,4_83_2,2023-09-11T21:04:50.772Z,,0,,,NaN,,,,,,false,,,,664463,664463,,664462.9000000954,,664483.985,8,400,,,
sequence,flow.Sequence,4_83,2023-09-11T21:04:50.773Z,,0,,,5396.042999999947,completion,,,,,false,,,,664463.2000002861,664463,659050.027,659045.8000001907,659066.957,664483.985,8,400,,,
trial,html.Screen,4_84_0,2023-09-11T21:04:56.073Z,,0,2,,5279.815000190749,response,ISIC_6054977.JPG,5,ISIC_0026460.JPG,ISIC_6054977.JPG,false,1,keypress(m),500,669764,669763.8000001907,664467.013,664463.3000001907,664483.985,669784.312,8,400,35,,ISIC_0026460.JPG
break,html.Screen,4_84_1,2023-09-11T21:04:56.074Z,,0,,,NaN,,,,,,false,,,,669765,669764.7000002861,,669764.2000002861,,669784.312,8,400,,,
break_continue,html.Screen,4_84_2,2023-09-11T21:04:56.075Z,,0,,,NaN,,,,,,false,,,,669765.4000000954,669765.3000001907,,669765.1000003815,,669784.312,8,400,,,
sequence,flow.Sequence,4_84,2023-09-11T21:04:56.075Z,,0,,,5281.315000190749,completion,,,,,false,,,,669765.6000003815,669765.3000001907,664467.013,664463.2000002861,664483.985,669784.312,8,400,,,
trial,html.Screen,4_85_0,2023-09-11T21:04:59.423Z,,0,2,,3328.6879999999655,response,ISIC_0016112.JPG,10,ISIC_0028488.JPG,ISIC_0016112.JPG,false,1,keypress(m),500,673113.3000001907,673113,669767.391,669765.7000002861,669784.312,673134.548,8,400,36,,ISIC_0028488.JPG
break,html.Screen,4_85_1,2023-09-11T21:04:59.424Z,,0,,,NaN,,,,,,false,,,,673114.7000002861,673114.4000000954,,673113.6000003815,,673134.548,8,400,,,
break_continue,html.Screen,4_85_2,2023-09-11T21:04:59.425Z,,0,,,NaN,,,,,,false,,,,673115.4000000954,673115.2000002861,,673114.8000001907,,673134.548,8,400,,,
sequence,flow.Sequence,4_85,2023-09-11T21:04:59.425Z,,0,,,3330.888000286068,completion,,,,,false,,,,673115.7000002861,673115.2000002861,669767.391,669765.7000002861,669784.312,673134.548,8,400,,,
trial,html.Screen,4_86_0,2023-09-11T21:05:02.088Z,,0,2,,2643.852000095416,response,ISIC_2757355.JPG,7,ISIC_0011752.JPG,ISIC_2757355.JPG,false,1,keypress(m),500,675778.8000001907,675778.4000000954,673117.614,673115.8000001907,673134.548,675801.414,8,400,37,,ISIC_0011752.JPG
break,html.Screen,4_86_1,2023-09-11T21:05:02.089Z,,0,,,NaN,,,,,,false,,,,675779.9000000954,675779.5,,675779.1000003815,,675801.414,8,400,,,
break_continue,html.Screen,4_86_2,2023-09-11T21:05:02.090Z,,0,,,NaN,,,,,,false,,,,675780.4000000954,675780.3000001907,,675780,,675801.414,8,400,,,
sequence,flow.Sequence,4_86,2023-09-11T21:05:02.090Z,,0,,,2645.7520001907833,completion,,,,,false,,,,675780.5,675780.3000001907,673117.614,673115.7000002861,673134.548,675801.414,8,400,,,
trial,html.Screen,4_87_0,2023-09-11T21:05:04.910Z,,0,2,,2799.2860002861125,response,ISIC_0027839.JPG,11,ISIC_4114269.JPG,ISIC_4114269.JPG,false,0,keypress(z),500,678601,678600.7000002861,675784.733,675780.7000002861,675801.414,678618.142,8,400,38,,ISIC_0027839.JPG
break,html.Screen,4_87_1,2023-09-11T21:05:04.912Z,,0,,,NaN,,,,,,false,,,,678602.3000001907,678602.1000003815,,678601.2000002861,,678618.142,8,400,,,
break_continue,html.Screen,4_87_2,2023-09-11T21:05:04.912Z,,0,,,NaN,,,,,,false,,,,678602.8000001907,678602.7000002861,,678602.5,,678618.142,8,400,,,
sequence,flow.Sequence,4_87,2023-09-11T21:05:04.912Z,,0,,,2801.2860002861125,completion,,,,,false,,,,678603,678602.7000002861,675784.733,675780.6000003815,675801.414,678618.142,8,400,,,
trial,html.Screen,4_88_0,2023-09-11T21:05:07.589Z,,0,2,,2661.5580002861097,response,ISIC_0231745.JPG,10,ISIC_0032165.JPG,ISIC_0231745.JPG,false,1,keypress(m),500,681280,681279.7000002861,678601.311,678603.1000003815,678618.142,681301.468,8,400,39,,ISIC_0032165.JPG
break,html.Screen,4_88_1,2023-09-11T21:05:07.590Z,,0,,,NaN,,,,,,false,,,,681280.8000001907,681280.5,,681280.2000002861,,681301.468,8,400,,,
break_continue,html.Screen,4_88_2,2023-09-11T21:05:07.590Z,,0,,,NaN,,,,,,false,,,,681281,681280.9000000954,,681280.8000001907,,681301.468,8,400,,,
sequence,flow.Sequence,4_88,2023-09-11T21:05:07.591Z,,0,,,2662.758000095375,completion,,,,,false,,,,681281.2000002861,681280.9000000954,678601.311,678603.1000003815,678618.142,681301.468,8,400,,,
trial,html.Screen,4_89_0,2023-09-11T21:05:10.234Z,,0,2,,2623.0320000000065,response,ISIC_6860222.JPG,10,ISIC_0068837.JPG,ISIC_6860222.JPG,false,1,keypress(m),500,683924.9000000954,683924.5,681284.827,681281.3000001907,681301.468,683951.746,8,400,40,,ISIC_0068837.JPG
break,html.Screen,4_89_1,2023-09-11T21:05:10.235Z,,0,,,NaN,,,,,,false,,,,683926,683925.7000002861,,683925.2000002861,,683951.746,8,400,,,
break_continue,html.Screen,4_89_2,2023-09-11T21:05:10.236Z,,0,,,NaN,,,,,,false,,,,683926.5,683926.3000001907,,683926.2000002861,,683951.746,8,400,,,
sequence,flow.Sequence,4_89,2023-09-11T21:05:10.236Z,,0,,,2624.8320001907414,completion,,,,,false,,,,683926.7000002861,683926.3000001907,681284.827,681281.3000001907,681301.468,683951.746,8,400,,,
trial,html.Screen,4_90_0,2023-09-11T21:05:13.958Z,,0,2,,3696.1540000953246,response,ISIC_7278885.JPG,9,ISIC_6392478.JPG,ISIC_7278885.JPG,false,1,keypress(m),500,687648.2000002861,687647.9000000954,683935.174,683926.8000001907,683951.746,687668.879,8,400,41,,ISIC_6392478.JPG
break,html.Screen,4_90_1,2023-09-11T21:05:13.959Z,,0,,,NaN,,,,,,false,,,,687649.3000001907,687649,,687648.5,,687668.879,8,400,,,
break_continue,html.Screen,4_90_2,2023-09-11T21:05:13.959Z,,0,,,NaN,,,,,,false,,,,687649.8000001907,687649.7000002861,,687649.5,,687668.879,8,400,,,
sequence,flow.Sequence,4_90,2023-09-11T21:05:13.959Z,,0,,,3697.9540002860595,completion,,,,,false,,,,687649.9000000954,687649.7000002861,683935.174,683926.8000001907,683951.746,687668.879,8,400,,,
trial,html.Screen,4_91_0,2023-09-11T21:05:16.540Z,,0,2,,2561.121000000043,response,ISIC_7319686.JPG,5,ISIC_9280171.JPG,ISIC_9280171.JPG,false,0,keypress(z),500,690230.4000000954,690230,687652.073,687650.1000003815,687668.879,690252.387,8,400,42,,ISIC_7319686.JPG
break,html.Screen,4_91_1,2023-09-11T21:05:16.541Z,,0,,,NaN,,,,,,false,,,,690231.5,690231.2000002861,,690230.6000003815,,690252.387,8,400,,,
break_continue,html.Screen,4_91_2,2023-09-11T21:05:16.541Z,,0,,,NaN,,,,,,false,,,,690231.9000000954,690231.8000001907,,690231.6000003815,,690252.387,8,400,,,
sequence,flow.Sequence,4_91,2023-09-11T21:05:16.542Z,,0,,,2562.9210001907777,completion,,,,,false,,,,690232.1000003815,690231.8000001907,687652.073,687650.1000003815,687668.879,690252.387,8,400,,,
trial,html.Screen,4_92_0,2023-09-11T21:05:21.691Z,,0,2,,5134.5130000953795,response,ISIC_5910975.JPG,12,ISIC_1081430.JPG,ISIC_5910975.JPG,false,1,keypress(m),500,695387.1000003815,695386.9000000954,690235.594,690232.3000001907,690252.387,695419.208,8,400,43,,ISIC_1081430.JPG
break,html.Screen,4_92_1,2023-09-11T21:05:21.692Z,,0,,,NaN,,,,,,false,,,,695388.1000003815,695387.9000000954,,695387.4000000954,,695419.208,8,400,,,
break_continue,html.Screen,4_92_2,2023-09-11T21:05:21.692Z,,0,,,NaN,,,,,,false,,,,695388.6000003815,695388.5,,695388.3000001907,,695419.208,8,400,,,
sequence,flow.Sequence,4_92,2023-09-11T21:05:21.692Z,,0,,,5136.113000000012,completion,,,,,false,,,,695388.7000002861,695388.5,690235.594,690232.2000002861,690252.387,695419.208,8,400,,,
trial,html.Screen,4_93_0,2023-09-11T21:05:25.749Z,,0,2,,4025.5920001907507,response,ISIC_4653503.JPG,8,ISIC_3234816.JPG,ISIC_4653503.JPG,false,1,keypress(m),500,699445.1000003815,699444.8000001907,695402.716,695388.9000000954,695419.208,699469.373,8,400,44,,ISIC_3234816.JPG
break,html.Screen,4_93_1,2023-09-11T21:05:25.750Z,,0,,,NaN,,,,,,false,,,,699446.2000002861,699446,,699445.4000000954,,699469.373,8,400,,,
break_continue,html.Screen,4_93_2,2023-09-11T21:05:25.750Z,,0,,,NaN,,,,,,false,,,,699446.6000003815,699446.5,,699446.3000001907,,699469.373,8,400,,,
sequence,flow.Sequence,4_93,2023-09-11T21:05:25.750Z,,0,,,4027.292000000016,completion,,,,,false,,,,699446.8000001907,699446.5,695402.716,695388.8000001907,695419.208,699469.373,8,400,,,
trial,html.Screen,4_94_0,2023-09-11T21:05:28.606Z,,0,2,,2832.7270003814483,response,ISIC_7124160.JPG,6,ISIC_6683370.JPG,ISIC_6683370.JPG,false,0,keypress(z),500,702302.3000001907,702302.1000003815,699452.719,699446.9000000954,699469.373,702319.804,8,400,45,,ISIC_7124160.JPG
break,html.Screen,4_94_1,2023-09-11T21:05:28.607Z,,0,,,NaN,,,,,,false,,,,702303.8000001907,702303.4000000954,,702302.7000002861,,702319.804,8,400,,,
break_continue,html.Screen,4_94_2,2023-09-11T21:05:28.608Z,,0,,,NaN,,,,,,false,,,,702304.3000001907,702304.1000003815,,702303.9000000954,,702319.804,8,400,,,
sequence,flow.Sequence,4_94,2023-09-11T21:05:28.608Z,,0,,,2834.7270003814483,completion,,,,,false,,,,702304.5,702304.1000003815,699452.719,699446.9000000954,699469.373,702319.804,8,400,,,
trial,html.Screen,4_95_0,2023-09-11T21:05:31.358Z,,0,2,,2734.3960002860986,response,ISIC_0025956.JPG,5,ISIC_0030546.JPG,ISIC_0030546.JPG,false,0,keypress(z),500,705054.4000000954,705054.2000002861,702302.934,702304.6000003815,702319.804,705086.603,8,400,46,,ISIC_0025956.JPG
break,html.Screen,4_95_1,2023-09-11T21:05:31.359Z,,0,,,NaN,,,,,,false,,,,705055.4000000954,705055.2000002861,,705054.6000003815,,705086.603,8,400,,,
break_continue,html.Screen,4_95_2,2023-09-11T21:05:31.359Z,,0,,,NaN,,,,,,false,,,,705056,705055.8000001907,,705055.5,,705086.603,8,400,,,
sequence,flow.Sequence,4_95,2023-09-11T21:05:31.362Z,,0,,,2735.996000190731,completion,,,,,false,,,,705058.2000002861,705055.8000001907,702302.934,702304.5,702319.804,705086.603,8,400,,,
trial,html.Screen,4_96_0,2023-09-11T21:05:35.748Z,,0,2,,4357.797000095365,response,ISIC_0031742.JPG,9,ISIC_0463755.JPG,ISIC_0031742.JPG,false,1,keypress(m),500,709444.7000002861,709444.4000000954,705070.036,705058.4000000954,705086.603,709470.085,8,400,47,,ISIC_0463755.JPG
break,html.Screen,4_96_1,2023-09-11T21:05:35.749Z,,0,,,NaN,,,,,,false,,,,709445.8000001907,709445.5,,709444.9000000954,,709470.085,8,400,,,
break_continue,html.Screen,4_96_2,2023-09-11T21:05:35.750Z,,0,,,NaN,,,,,,false,,,,709446.3000001907,709446.2000002861,,709445.9000000954,,709470.085,8,400,,,
sequence,flow.Sequence,4_96,2023-09-11T21:05:35.750Z,,0,,,4359.5970002860995,completion,,,,,false,,,,709446.4000000954,709446.2000002861,705070.036,705058.3000001907,705086.603,709470.085,8,400,,,
trial,html.Screen,4_97_0,2023-09-11T21:05:38.458Z,,0,2,,2684.015000381507,response,ISIC_8153123.JPG,7,ISIC_5607702.JPG,ISIC_5607702.JPG,false,0,keypress(z),500,712154.4000000954,712154.1000003815,709453.582,709446.5,709470.085,712170.468,8,400,48,,ISIC_8153123.JPG
break,html.Screen,4_97_1,2023-09-11T21:05:38.459Z,,0,,,NaN,,,,,,false,,,,712155.4000000954,712155.1000003815,,712154.6000003815,,712170.468,8,400,,,
break_continue,html.Screen,4_97_2,2023-09-11T21:05:38.459Z,,0,,,NaN,,,,,,false,,,,712155.8000001907,712155.7000002861,,712155.5,,712170.468,8,400,,,
sequence,flow.Sequence,4_97,2023-09-11T21:05:38.459Z,,0,,,2685.6150002861395,completion,,,,,false,,,,712155.9000000954,712155.7000002861,709453.582,709446.5,709470.085,712170.468,8,400,,,
trial,html.Screen,4_98_0,2023-09-11T21:05:41.408Z,,0,2,,2934.232000286109,response,ISIC_5519357.JPG,10,ISIC_1650523.JPG,ISIC_5519357.JPG,false,1,keypress(m),500,715104.9000000954,715104.7000002861,712153.607,712156.1000003815,712170.468,715137.215,8,400,49,,ISIC_1650523.JPG
break,html.Screen,4_98_1,2023-09-11T21:05:41.409Z,,0,,,NaN,,,,,,false,,,,715105.9000000954,715105.6000003815,,715105.1000003815,,715137.215,8,400,,,
break_continue,html.Screen,4_98_2,2023-09-11T21:05:41.410Z,,0,,,NaN,,,,,,false,,,,715106.6000003815,715106.4000000954,,715106,,715137.215,8,400,,,
sequence,flow.Sequence,4_98,2023-09-11T21:05:41.410Z,,0,,,2935.932000095374,completion,,,,,false,,,,715106.8000001907,715106.4000000954,712153.607,712156,712170.468,715137.215,8,400,,,
trial,html.Screen,4_99_0,2023-09-11T21:05:44.076Z,,0,2,,2635.0850001907675,response,ISIC_0013141.JPG,9,ISIC_0058513.JPG,ISIC_0058513.JPG,false,0,keypress(z),500,717772.6000003815,717772.3000001907,715120.512,715107,715137.215,717787.659,8,400,50,,ISIC_0013141.JPG
break,html.Screen,4_99_1,2023-09-11T21:05:54.076Z,,0,,,10000.570000000065,timeout,,,,,false,,,,727772.5,727771.588,717770.621,717772.7000002861,717787.659,727788.229,8,400,,,
break_continue,html.Screen,4_99_2,2023-09-11T21:05:59.816Z,,0,,,5715.27099999995,response,,,,,false,continue,keypress(Space),,733512.9000000954,733503.5,727771.588,727772.6000003815,727788.229,733521.656,8,400,,,
sequence,flow.Sequence,4_99,2023-09-11T21:05:59.816Z,,0,,,18366.285000000033,completion,,,,,false,,,,733513,733503.5,715120.512,715106.9000000954,715137.215,733521.656,8,400,,,
trial,html.Screen,4_100_0,2023-09-11T21:06:03.793Z,,0,3,,3968.0440002861433,response,ISIC_0428257.JPG,6,ISIC_0027694.JPG,ISIC_0428257.JPG,false,1,keypress(m),500,737490,737489.7000002861,733505.05,733513,733521.656,737522.229,8,400,1,,ISIC_0027694.JPG
break,html.Screen,4_100_1,2023-09-11T21:06:03.794Z,,0,,,NaN,,,,,,false,,,,737491,737490.7000002861,,737490.2000002861,,737522.229,8,400,,,
break_continue,html.Screen,4_100_2,2023-09-11T21:06:03.795Z,,0,,,NaN,,,,,,false,,,,737491.4000000954,737491.3000001907,,737491,,737522.229,8,400,,,
sequence,flow.Sequence,4_100,2023-09-11T21:06:03.795Z,,0,,,3969.644000190776,completion,,,,,false,,,,737491.5,737491.3000001907,733505.05,733513,733521.656,737522.229,8,400,,,
trial,html.Screen,4_101_0,2023-09-11T21:06:06.540Z,,0,3,,2714.471000286052,response,ISIC_5993530.JPG,11,ISIC_8935085.JPG,ISIC_8935085.JPG,false,0,keypress(z),500,740236.9000000954,740236.7000002861,737505.275,737491.6000003815,737522.229,740255.469,8,400,2,,ISIC_5993530.JPG
break,html.Screen,4_101_1,2023-09-11T21:06:06.541Z,,0,,,NaN,,,,,,false,,,,740237.4000000954,740237.3000001907,,740237,,740255.469,8,400,,,
break_continue,html.Screen,4_101_2,2023-09-11T21:06:06.541Z,,0,,,NaN,,,,,,false,,,,740237.7000002861,740237.7000002861,,740237.5,,740255.469,8,400,,,
sequence,flow.Sequence,4_101,2023-09-11T21:06:06.541Z,,0,,,2715.471000286052,completion,,,,,false,,,,740237.8000001907,740237.7000002861,737505.275,737491.6000003815,737522.229,740255.469,8,400,,,
trial,html.Screen,4_102_0,2023-09-11T21:06:10.192Z,,0,3,,3632.331000190694,response,ISIC_0025243.JPG,5,ISIC_0066740.JPG,ISIC_0025243.JPG,false,1,keypress(m),500,743888.2000002861,743887.8000001907,740238.771,740237.8000001907,740255.469,743905.813,8,400,3,,ISIC_0066740.JPG
break,html.Screen,4_102_1,2023-09-11T21:06:10.193Z,,0,,,NaN,,,,,,false,,,,743889.2000002861,743888.9000000954,,743888.3000001907,,743905.813,8,400,,,
break_continue,html.Screen,4_102_2,2023-09-11T21:06:10.193Z,,0,,,NaN,,,,,,false,,,,743889.7000002861,743889.6000003815,,743889.3000001907,,743905.813,8,400,,,
sequence,flow.Sequence,4_102,2023-09-11T21:06:10.193Z,,0,,,3634.1310003814287,completion,,,,,false,,,,743889.9000000954,743889.6000003815,740238.771,740237.8000001907,740255.469,743905.813,8,400,,,
trial,html.Screen,4_103_0,2023-09-11T21:06:13.086Z,,0,3,,2875.9870001907693,response,ISIC_5807608.JPG,8,ISIC_0059864.JPG,ISIC_5807608.JPG,false,1,keypress(m),500,746782.1000003815,746781.8000001907,743889.062,743890.1000003815,743905.813,746806.023,8,400,4,,ISIC_0059864.JPG
break,html.Screen,4_103_1,2023-09-11T21:06:13.087Z,,0,,,NaN,,,,,,false,,,,746783.3000001907,746783,,746782.5,,746806.023,8,400,,,
break_continue,html.Screen,4_103_2,2023-09-11T21:06:13.087Z,,0,,,NaN,,,,,,false,,,,746783.7000002861,746783.5,,746783.4000000954,,746806.023,8,400,,,
sequence,flow.Sequence,4_103,2023-09-11T21:06:13.087Z,,0,,,2877.6870000000345,completion,,,,,false,,,,746783.8000001907,746783.5,743889.062,743890,743905.813,746806.023,8,400,,,
trial,html.Screen,4_104_0,2023-09-11T21:06:15.878Z,,0,3,,2767.9769999999553,response,ISIC_9723646.JPG,6,ISIC_2924968.JPG,ISIC_9723646.JPG,false,1,keypress(m),500,749574.3000001907,749574,746789.445,746784,746806.023,749606.188,8,400,5,,ISIC_2924968.JPG
break,html.Screen,4_104_1,2023-09-11T21:06:15.879Z,,0,,,NaN,,,,,,false,,,,749575.2000002861,749574.9000000954,,749574.4000000954,,749606.188,8,400,,,
break_continue,html.Screen,4_104_2,2023-09-11T21:06:15.879Z,,0,,,NaN,,,,,,false,,,,749575.6000003815,749575.5,,749575.3000001907,,749606.188,8,400,,,
sequence,flow.Sequence,4_104,2023-09-11T21:06:15.879Z,,0,,,2769.4769999999553,completion,,,,,false,,,,749575.8000001907,749575.5,746789.445,746784,746806.023,749606.188,8,400,,,
trial,html.Screen,4_105_0,2023-09-11T21:06:19.343Z,,0,3,,3430.5120002861368,response,ISIC_0026500.JPG,5,ISIC_0056413.JPG,ISIC_0056413.JPG,false,0,keypress(z),500,753037.1000003815,753036.7000002861,749589.73,749575.9000000954,749606.188,753056.524,8,400,6,,ISIC_0026500.JPG
break,html.Screen,4_105_1,2023-09-11T21:06:19.344Z,,0,,,NaN,,,,,,false,,,,753038.1000003815,753037.8000001907,,753037.3000001907,,753056.524,8,400,,,
break_continue,html.Screen,4_105_2,2023-09-11T21:06:19.345Z,,0,,,NaN,,,,,,false,,,,753038.5,753038.4000000954,,753038.1000003815,,753056.524,8,400,,,
sequence,flow.Sequence,4_105,2023-09-11T21:06:19.345Z,,0,,,3432.212000095402,completion,,,,,false,,,,753038.6000003815,753038.4000000954,749589.73,749575.9000000954,749606.188,753056.524,8,400,,,
trial,html.Screen,4_106_0,2023-09-11T21:06:22.024Z,,0,3,,2660.976000000024,response,ISIC_1220154.JPG,5,ISIC_0010658.JPG,ISIC_1220154.JPG,false,1,keypress(m),500,755717.9000000954,755717.5,753039.696,753038.8000001907,753056.524,755740.053,8,400,7,,ISIC_0010658.JPG
break,html.Screen,4_106_1,2023-09-11T21:06:22.025Z,,0,,,NaN,,,,,,false,,,,755719,755718.7000002861,,755718.2000002861,,755740.053,8,400,,,
break_continue,html.Screen,4_106_2,2023-09-11T21:06:22.026Z,,0,,,NaN,,,,,,false,,,,755719.5,755719.3000001907,,755719.1000003815,,755740.053,8,400,,,
sequence,flow.Sequence,4_106,2023-09-11T21:06:22.026Z,,0,,,2662.776000190759,completion,,,,,false,,,,755719.7000002861,755719.3000001907,753039.696,753038.7000002861,753056.524,755740.053,8,400,,,
trial,html.Screen,4_107_0,2023-09-11T21:06:25.748Z,,0,3,,3701.147000286146,response,ISIC_7110699.JPG,11,ISIC_9865097.JPG,ISIC_7110699.JPG,false,1,keypress(m),500,759441.6000003815,759441.2000002861,755723.418,755719.9000000954,755740.053,759473.692,8,400,8,,ISIC_9865097.JPG
break,html.Screen,4_107_1,2023-09-11T21:06:25.749Z,,0,,,NaN,,,,,,false,,,,759443,759442.7000002861,,759441.9000000954,,759473.692,8,400,,,
break_continue,html.Screen,4_107_2,2023-09-11T21:06:25.750Z,,0,,,NaN,,,,,,false,,,,759443.7000002861,759443.5,,759443.2000002861,,759473.692,8,400,,,
sequence,flow.Sequence,4_107,2023-09-11T21:06:25.750Z,,0,,,3703.4470000000438,completion,,,,,false,,,,759443.9000000954,759443.5,755723.418,755719.8000001907,755740.053,759473.692,8,400,,,
trial,html.Screen,4_108_0,2023-09-11T21:06:28.545Z,,0,3,,2764.307999999961,response,ISIC_0014186.JPG,8,ISIC_0028226.JPG,ISIC_0028226.JPG,false,0,keypress(z),500,762238.4000000954,762238,759456.871,759444.2000002861,759473.692,762257.163,8,400,9,,ISIC_0014186.JPG
break,html.Screen,4_108_1,2023-09-11T21:06:28.546Z,,0,,,NaN,,,,,,false,,,,762239.4000000954,762239.2000002861,,762238.6000003815,,762257.163,8,400,,,
break_continue,html.Screen,4_108_2,2023-09-11T21:06:28.546Z,,0,,,NaN,,,,,,false,,,,762239.8000001907,762239.8000001907,,762239.6000003815,,762257.163,8,400,,,
sequence,flow.Sequence,4_108,2023-09-11T21:06:28.546Z,,0,,,2766.1080001906957,completion,,,,,false,,,,762240,762239.8000001907,759456.871,759444.1000003815,759473.692,762257.163,8,400,,,
trial,html.Screen,4_109_0,2023-09-11T21:06:31.178Z,,0,3,,2614.237000095425,response,ISIC_0069933.JPG,7,ISIC_0014926.JPG,ISIC_0069933.JPG,false,1,keypress(m),500,764871.8000001907,764871.4000000954,762240.325,762240.1000003815,762257.163,764890.782,8,400,10,,ISIC_0014926.JPG
break,html.Screen,4_109_1,2023-09-11T21:06:31.179Z,,0,,,NaN,,,,,,false,,,,764872.9000000954,764872.6000003815,,764872,,764890.782,8,400,,,
break_continue,html.Screen,4_109_2,2023-09-11T21:06:31.180Z,,0,,,NaN,,,,,,false,,,,764873.4000000954,764873.2000002861,,764873,,764890.782,8,400,,,
sequence,flow.Sequence,4_109,2023-09-11T21:06:31.180Z,,0,,,2616.03700028616,completion,,,,,false,,,,764873.5,764873.2000002861,762240.325,762240.1000003815,762257.163,764890.782,8,400,,,
trial,html.Screen,4_110_0,2023-09-11T21:06:34.198Z,,0,3,,3000.418000286096,response,ISIC_0033957.JPG,11,ISIC_7053271.JPG,ISIC_7053271.JPG,false,0,keypress(z),500,767891.6000003815,767891.2000002861,764873.843,764873.7000002861,764890.782,767907.437,8,400,11,,ISIC_0033957.JPG
break,html.Screen,4_110_1,2023-09-11T21:06:34.199Z,,0,,,NaN,,,,,,false,,,,767892.7000002861,767892.4000000954,,767891.8000001907,,767907.437,8,400,,,
break_continue,html.Screen,4_110_2,2023-09-11T21:06:34.200Z,,0,,,NaN,,,,,,false,,,,767893.2000002861,767893.1000003815,,767892.8000001907,,767907.437,8,400,,,
sequence,flow.Sequence,4_110,2023-09-11T21:06:34.200Z,,0,,,3002.318000381463,completion,,,,,false,,,,767893.4000000954,767893.1000003815,764873.843,764873.7000002861,764890.782,767907.437,8,400,,,
trial,html.Screen,4_111_0,2023-09-11T21:06:37.222Z,,0,3,,3008.1630003814353,response,ISIC_0072564.JPG,4,ISIC_0028723.JPG,ISIC_0028723.JPG,false,0,keypress(z),500,770915.7000002861,770915.6000003815,767890.747,767893.5,767907.437,770940.846,8,400,12,,ISIC_0072564.JPG
break,html.Screen,4_111_1,2023-09-11T21:06:37.223Z,,0,,,NaN,,,,,,false,,,,770916.4000000954,770916.3000001907,,770915.9000000954,,770940.846,8,400,,,
break_continue,html.Screen,4_111_2,2023-09-11T21:06:37.223Z,,0,,,NaN,,,,,,false,,,,770916.7000002861,770916.6000003815,,770916.5,,770940.846,8,400,,,
sequence,flow.Sequence,4_111,2023-09-11T21:06:37.223Z,,0,,,3009.1630003814353,completion,,,,,false,,,,770916.8000001907,770916.6000003815,767890.747,767893.5,767907.437,770940.846,8,400,,,
trial,html.Screen,4_112_0,2023-09-11T21:06:41.598Z,,0,3,,4350.75400038145,response,ISIC_0032901.JPG,7,ISIC_2860618.JPG,ISIC_2860618.JPG,false,0,keypress(z),500,775291.8000001907,775291.6000003815,770924.211,770916.9000000954,770940.846,775324.523,8,400,13,,ISIC_0032901.JPG
break,html.Screen,4_112_1,2023-09-11T21:06:41.599Z,,0,,,NaN,,,,,,false,,,,775292.3000001907,775292.2000002861,,775291.9000000954,,775324.523,8,400,,,
break_continue,html.Screen,4_112_2,2023-09-11T21:06:41.599Z,,0,,,NaN,,,,,,false,,,,775292.6000003815,775292.6000003815,,775292.4000000954,,775324.523,8,400,,,
sequence,flow.Sequence,4_112,2023-09-11T21:06:41.599Z,,0,,,4351.75400038145,completion,,,,,false,,,,775292.7000002861,775292.6000003815,770924.211,770916.9000000954,770940.846,775324.523,8,400,,,
trial,html.Screen,4_113_0,2023-09-11T21:06:45.224Z,,0,3,,3592.77700019069,response,ISIC_7373074.JPG,8,ISIC_6381981.JPG,ISIC_6381981.JPG,false,0,keypress(z),500,778917.7000002861,778917.3000001907,775307.861,775292.8000001907,775324.523,778941.448,8,400,14,,ISIC_7373074.JPG
break,html.Screen,4_113_1,2023-09-11T21:06:45.225Z,,0,,,NaN,,,,,,false,,,,778918.5,778918.4000000954,,778917.9000000954,,778941.448,8,400,,,
break_continue,html.Screen,4_113_2,2023-09-11T21:06:45.225Z,,0,,,NaN,,,,,,false,,,,778918.6000003815,778918.6000003815,,778918.5,,778941.448,8,400,,,
sequence,flow.Sequence,4_113,2023-09-11T21:06:45.225Z,,0,,,3594.077000381425,completion,,,,,false,,,,778918.8000001907,778918.6000003815,775307.861,775292.8000001907,775324.523,778941.448,8,400,,,
trial,html.Screen,4_114_0,2023-09-11T21:06:48.271Z,,0,3,,3022.652000381495,response,ISIC_5312710.JPG,6,ISIC_0033700.JPG,ISIC_0033700.JPG,false,0,keypress(z),500,781964.3000001907,781964.1000003815,778924.785,778918.8000001907,778941.448,781991.633,8,400,15,,ISIC_5312710.JPG
break,html.Screen,4_114_1,2023-09-11T21:06:48.271Z,,0,,,NaN,,,,,,false,,,,781964.8000001907,781964.6000003815,,781964.4000000954,,781991.633,8,400,,,
break_continue,html.Screen,4_114_2,2023-09-11T21:06:48.271Z,,0,,,NaN,,,,,,false,,,,781964.9000000954,781964.9000000954,,781964.8000001907,,781991.633,8,400,,,
sequence,flow.Sequence,4_114,2023-09-11T21:06:48.271Z,,0,,,3023.4520000953926,completion,,,,,false,,,,781965.1000003815,781964.9000000954,778924.785,778918.8000001907,778941.448,781991.633,8,400,,,
trial,html.Screen,4_115_0,2023-09-11T21:06:51.460Z,,0,3,,3161.8669999999693,response,ISIC_2131962.JPG,5,ISIC_3292151.JPG,ISIC_3292151.JPG,false,0,keypress(z),500,785153.8000001907,785153.5,781974.997,781965.1000003815,781991.633,785175.48,8,400,16,,ISIC_2131962.JPG
break,html.Screen,4_115_1,2023-09-11T21:06:51.461Z,,0,,,NaN,,,,,,false,,,,785154.9000000954,785154.6000003815,,785154,,785175.48,8,400,,,
break_continue,html.Screen,4_115_2,2023-09-11T21:06:51.462Z,,0,,,NaN,,,,,,false,,,,785155.4000000954,785155.3000001907,,785155.1000003815,,785175.48,8,400,,,
sequence,flow.Sequence,4_115,2023-09-11T21:06:51.462Z,,0,,,3163.667000190704,completion,,,,,false,,,,785155.6000003815,785155.3000001907,781974.997,781965.1000003815,781991.633,785175.48,8,400,,,
trial,html.Screen,4_116_0,2023-09-11T21:06:54.731Z,,0,3,,3248.720000286121,response,ISIC_0033966.JPG,11,ISIC_0011642.JPG,ISIC_0033966.JPG,false,1,keypress(m),500,788424.5,788424.2000002861,785158.636,785155.7000002861,785175.48,788442.257,8,400,17,,ISIC_0011642.JPG
break,html.Screen,4_116_1,2023-09-11T21:06:54.732Z,,0,,,NaN,,,,,,false,,,,788425.8000001907,788425.3000001907,,788424.7000002861,,788442.257,8,400,,,
break_continue,html.Screen,4_116_2,2023-09-11T21:06:54.733Z,,0,,,NaN,,,,,,false,,,,788426.3000001907,788426.3000001907,,788426,,788442.257,8,400,,,
sequence,flow.Sequence,4_116,2023-09-11T21:06:54.733Z,,0,,,3250.8200001907535,completion,,,,,false,,,,788426.5,788426.3000001907,785158.636,785155.6000003815,785175.48,788442.257,8,400,,,
trial,html.Screen,4_117_0,2023-09-11T21:06:57.943Z,,0,3,,3193.943000286119,response,ISIC_0029839.JPG,9,ISIC_8727962.JPG,ISIC_8727962.JPG,false,0,keypress(z),500,791636.5,791636.2000002861,788425.44,788426.7000002861,788442.257,791659.258,8,400,18,,ISIC_0029839.JPG
break,html.Screen,4_117_1,2023-09-11T21:06:57.944Z,,0,,,NaN,,,,,,false,,,,791637.6000003815,791637.2000002861,,791636.7000002861,,791659.258,8,400,,,
break_continue,html.Screen,4_117_2,2023-09-11T21:06:57.944Z,,0,,,NaN,,,,,,false,,,,791638.1000003815,791637.9000000954,,791637.7000002861,,791659.258,8,400,,,
sequence,flow.Sequence,4_117,2023-09-11T21:06:57.945Z,,0,,,3195.643000095384,completion,,,,,false,,,,791638.3000001907,791637.9000000954,788425.44,788426.6000003815,788442.257,791659.258,8,400,,,
trial,html.Screen,4_118_0,2023-09-11T21:07:00.600Z,,0,3,,2633.842000381439,response,ISIC_0001129.JPG,12,ISIC_0030238.JPG,ISIC_0030238.JPG,false,0,keypress(z),500,794293.5,794293.1000003815,791642.294,791638.6000003815,791659.258,794309.175,8,400,19,,ISIC_0001129.JPG
break,html.Screen,4_118_1,2023-09-11T21:07:00.601Z,,0,,,NaN,,,,,,false,,,,794294.4000000954,794294.2000002861,,794293.7000002861,,794309.175,8,400,,,
break_continue,html.Screen,4_118_2,2023-09-11T21:07:00.601Z,,0,,,NaN,,,,,,false,,,,794294.9000000954,794294.8000001907,,794294.6000003815,,794309.175,8,400,,,
sequence,flow.Sequence,4_118,2023-09-11T21:07:00.601Z,,0,,,2635.542000190704,completion,,,,,false,,,,794295.1000003815,794294.8000001907,791642.294,791638.5,791659.258,794309.175,8,400,,,
trial,html.Screen,4_119_0,2023-09-11T21:07:06.572Z,,0,3,,5956.425000381423,response,ISIC_8249854.JPG,6,ISIC_0000519.JPG,ISIC_8249854.JPG,false,1,keypress(m),500,800265.9000000954,800265.6000003815,794292.667,794295.3000001907,794309.175,800292.903,8,400,20,,ISIC_0000519.JPG
break,html.Screen,4_119_1,2023-09-11T21:07:06.573Z,,0,,,NaN,,,,,,false,,,,800267,800266.8000001907,,800266.3000001907,,800292.903,8,400,,,
break_continue,html.Screen,4_119_2,2023-09-11T21:07:06.574Z,,0,,,NaN,,,,,,false,,,,800267.5,800267.3000001907,,800267.2000002861,,800292.903,8,400,,,
sequence,flow.Sequence,4_119,2023-09-11T21:07:06.574Z,,0,,,5958.125000190688,completion,,,,,false,,,,800267.7000002861,800267.3000001907,794292.667,794295.1000003815,794309.175,800292.903,8,400,,,
trial,html.Screen,4_120_0,2023-09-11T21:07:13.936Z,,0,3,,7336.3970001906855,response,ISIC_0021442.JPG,5,ISIC_0014469.JPG,ISIC_0014469.JPG,false,0,keypress(Z),500,807629.5,807629.3000001907,800276.489,800267.7000002861,800292.903,807660.208,8,400,21,,ISIC_0021442.JPG
break,html.Screen,4_120_1,2023-09-11T21:07:13.937Z,,0,,,NaN,,,,,,false,,,,807630.7000002861,807630.4000000954,,807629.9000000954,,807660.208,8,400,,,
break_continue,html.Screen,4_120_2,2023-09-11T21:07:13.937Z,,0,,,NaN,,,,,,false,,,,807631.1000003815,807631,,807630.8000001907,,807660.208,8,400,,,
sequence,flow.Sequence,4_120,2023-09-11T21:07:13.938Z,,0,,,7338.096999999951,completion,,,,,false,,,,807631.2000002861,807631,800276.489,800267.7000002861,800292.903,807660.208,8,400,,,
trial,html.Screen,4_121_0,2023-09-11T21:07:19.597Z,,0,3,,5631.092000190751,response,ISIC_4806829.JPG,5,ISIC_4174983.JPG,ISIC_4174983.JPG,false,0,keypress(z),500,813291.7000002861,813291.3000001907,807643.376,807631.4000000954,807660.208,813310.691,8,400,22,,ISIC_4806829.JPG
break,html.Screen,4_121_1,2023-09-11T21:07:19.598Z,,0,,,NaN,,,,,,false,,,,813292.9000000954,813292.6000003815,,813292,,813310.691,8,400,,,
break_continue,html.Screen,4_121_2,2023-09-11T21:07:19.599Z,,0,,,NaN,,,,,,false,,,,813293.3000001907,813293.2000002861,,813293,,813310.691,8,400,,,
sequence,flow.Sequence,4_121,2023-09-11T21:07:19.599Z,,0,,,5632.992000286118,completion,,,,,false,,,,813293.5,813293.2000002861,807643.376,807631.4000000954,807660.208,813310.691,8,400,,,
trial,html.Screen,4_122_0,2023-09-11T21:07:24.492Z,,0,3,,4875.409000381478,response,ISIC_5837098.JPG,8,ISIC_0033977.JPG,ISIC_0033977.JPG,false,0,keypress(z),500,818186.4000000954,818186.1000003815,813293.767,813293.6000003815,813310.691,818210.761,8,400,23,,ISIC_5837098.JPG
break,html.Screen,4_122_1,2023-09-11T21:07:24.493Z,,0,,,NaN,,,,,,false,,,,818187.8000001907,818187.4000000954,,818186.7000002861,,818210.761,8,400,,,
break_continue,html.Screen,4_122_2,2023-09-11T21:07:24.494Z,,0,,,NaN,,,,,,false,,,,818188.4000000954,818188.3000001907,,818187.9000000954,,818210.761,8,400,,,
sequence,flow.Sequence,4_122,2023-09-11T21:07:24.494Z,,0,,,4877.609000190743,completion,,,,,false,,,,818188.6000003815,818188.3000001907,813293.767,813293.5,813310.691,818210.761,8,400,,,
trial,html.Screen,4_123_0,2023-09-11T21:07:32.312Z,,0,3,,7795.839000381413,response,ISIC_9100933.JPG,6,ISIC_6570611.JPG,ISIC_6570611.JPG,false,0,keypress(z),500,826007,826006.6000003815,818194.873,818188.9000000954,818210.761,826028,8,400,24,,ISIC_9100933.JPG
break,html.Screen,4_123_1,2023-09-11T21:07:32.314Z,,0,,,NaN,,,,,,false,,,,826008.1000003815,826007.9000000954,,826007.3000001907,,826028,8,400,,,
break_continue,html.Screen,4_123_2,2023-09-11T21:07:32.314Z,,0,,,NaN,,,,,,false,,,,826008.6000003815,826008.5,,826008.3000001907,,826028,8,400,,,
sequence,flow.Sequence,4_123,2023-09-11T21:07:32.314Z,,0,,,7797.738999999943,completion,,,,,false,,,,826008.8000001907,826008.5,818194.873,818188.9000000954,818210.761,826028,8,400,,,
trial,html.Screen,4_124_0,2023-09-11T21:07:35.773Z,,0,3,,3439.4000000953674,response,ISIC_5754233.JPG,4,ISIC_1687004.JPG,ISIC_1687004.JPG,false,0,keypress(z),500,829467.8000001907,829467.4000000954,826011.3,826009,826028,829494.884,8,400,25,,ISIC_5754233.JPG
break,html.Screen,4_124_1,2023-09-11T21:07:35.774Z,,0,,,NaN,,,,,,false,,,,829468.9000000954,829468.6000003815,,829468,,829494.884,8,400,,,
break_continue,html.Screen,4_124_2,2023-09-11T21:07:35.775Z,,0,,,NaN,,,,,,false,,,,829469.3000001907,829469.3000001907,,829469,,829494.884,8,400,,,
sequence,flow.Sequence,4_124,2023-09-11T21:07:35.775Z,,0,,,3441.300000190735,completion,,,,,false,,,,829469.6000003815,829469.3000001907,826011.3,826009,826028,829494.884,8,400,,,
trial,html.Screen,4_125_0,2023-09-11T21:07:38.835Z,,0,3,,3034.916000190773,response,ISIC_0070254.JPG,9,ISIC_0005655.JPG,ISIC_0005655.JPG,false,0,keypress(z),500,832530.1000003815,832529.8000001907,829478.461,829469.6000003815,829494.884,832561.834,8,400,26,,ISIC_0070254.JPG
break,html.Screen,4_125_1,2023-09-11T21:07:38.837Z,,0,,,NaN,,,,,,false,,,,832531.1000003815,832530.9000000954,,832530.3000001907,,832561.834,8,400,,,
break_continue,html.Screen,4_125_2,2023-09-11T21:07:38.837Z,,0,,,NaN,,,,,,false,,,,832531.6000003815,832531.5,,832531.3000001907,,832561.834,8,400,,,
sequence,flow.Sequence,4_125,2023-09-11T21:07:38.837Z,,0,,,3036.616000000038,completion,,,,,false,,,,832531.8000001907,832531.5,829478.461,829469.6000003815,829494.884,832561.834,8,400,,,
