sender,sender_type,sender_id,timestamp,meta,,blockNo,condition,duration,ended_on,img_left,img_reveal,img_right,loser,practice,response,response_action,selection_duration,time_commit,time_end,time_render,time_run,time_show,time_switch,total_blocks,total_trials,trialNo,url,winner
informed_consent,html.Screen,0,2023-09-08T18:43:45.965Z,"{""labjs_version"":""20.2.4"",""labjs_build"":{""flavor"":""production"",""commit"":""f5b4a49f956347addd546a832a3327688c2c0fef""},""location"":""https://run.pavlovia.org/MurrayBennett/melanoma-2afc/?participant=5ec67c1f9d0f0906b783865f&STUDY_ID=64f8c92207ba404bcb356c90&SESSION_ID=64fb6b47604003b85f7268be&platform=prolific"",""userAgent"":""Mozilla/5.0 (X11; Linux x86_64; rv:109.0) Gecko/20100101 Firefox/116.0"",""platform"":""Linux x86_64"",""language"":""en-US"",""locale"":""en-US"",""timeZone"":""America/Chicago"",""timezoneOffset"":300,""screen_width"":1280,""screen_height"":1024,""scroll_width"":1276,""scroll_height"":801,""window_innerWidth"":1276,""window_innerHeight"":849,""devicePixelRatio"":1}",,,,17545.72,response,,,,,,consent,click button,,20659,20655,3093.28,3087,3109.28,20671.28,,,,"{""participant"":""5ec67c1f9d0f0906b783865f"",""STUDY_ID"":""64f8c92207ba404bcb356c90"",""SESSION_ID"":""64fb6b47604003b85f7268be"",""platform"":""prolific""}",
Welcome,html.Screen,1,2023-09-08T18:44:15.401Z,,,,colourful,29421.72,response,,,,,,continue,click button,,50095,50093,20656.7,20661,20671.28,50095.28,,,,,
trial,html.Screen,2_0_0,2023-09-08T18:44:20.768Z,,0,0,,5367.720000000001,response,ISIC_0025593.JPG,,ISIC_0063388.JPG,ISIC_0063388.JPG,true,0,keypress(z),500,55463,55463,50094.52,50095,50095.28,55477.28,1,6,1,,ISIC_0025593.JPG
sequence,flow.Sequence,2_0,2023-09-08T18:44:20.769Z,,0,,,5367.720000000001,completion,,,,,true,,,,55463,55463,50094.52,50095,50095.28,55477.28,1,6,,,
trial,html.Screen,2_1_0,2023-09-08T18:44:25.221Z,,0,0,,4438.720000000001,response,ISIC_0028178.JPG,,ISIC_1309015.JPG,ISIC_1309015.JPG,true,0,keypress(z),500,59916,59916,55463.16,55464,55477.28,59925.28,1,6,2,,ISIC_0028178.JPG
sequence,flow.Sequence,2_1,2023-09-08T18:44:25.222Z,,0,,,4438.720000000001,completion,,,,,true,,,,59916,59916,55463.16,55463,55477.28,59925.28,1,6,,,
trial,html.Screen,2_2_0,2023-09-08T18:44:29.202Z,,0,0,,3970.720000000001,response,ISIC_0031128.JPG,,ISIC_3314853.JPG,ISIC_3314853.JPG,true,0,keypress(z),500,63896,63896,59915.98,59916,59925.28,63908.28,1,6,3,,ISIC_0031128.JPG
sequence,flow.Sequence,2_2,2023-09-08T18:44:29.202Z,,0,,,3970.720000000001,completion,,,,,true,,,,63896,63896,59915.98,59916,59925.28,63908.28,1,6,,,
trial,html.Screen,2_3_0,2023-09-08T18:44:32.726Z,,0,0,,3512.720000000001,response,ISIC_8980141.JPG,,ISIC_0031612.JPG,ISIC_8980141.JPG,true,1,keypress(m),500,67421,67421,63896.2,63896,63908.28,67423.28,1,6,4,,ISIC_0031612.JPG
sequence,flow.Sequence,2_3,2023-09-08T18:44:32.727Z,,0,,,3512.720000000001,completion,,,,,true,,,,67421,67421,63896.2,63896,63908.28,67423.28,1,6,,,
trial,html.Screen,2_4_0,2023-09-08T18:44:37.833Z,,0,0,,5104.720000000001,response,ISIC_9721604.JPG,,ISIC_1197737.JPG,ISIC_9721604.JPG,true,1,keypress(m),500,72528,72528,67421.36,67421,67423.28,72538.28,1,6,5,,ISIC_1197737.JPG
sequence,flow.Sequence,2_4,2023-09-08T18:44:37.834Z,,0,,,5104.720000000001,completion,,,,,true,,,,72528,72528,67421.36,67421,67423.28,72538.28,1,6,,,
trial,html.Screen,2_5_0,2023-09-08T18:44:41.356Z,,0,0,,3509.720000000001,response,ISIC_0010681.JPG,,ISIC_0025346.JPG,ISIC_0010681.JPG,true,1,keypress(m),500,76050,76048,72528.2,72528,72538.28,76054.28,1,6,6,,ISIC_0025346.JPG
sequence,flow.Sequence,2_5,2023-09-08T18:44:41.358Z,,0,,,3509.720000000001,completion,,,,,true,,,,76052,76048,72528.2,72528,72538.28,76054.28,1,6,,,
loop,flow.Loop,2,2023-09-08T18:44:41.358Z,,,,,25952.72,completion,,,,,true,,,,76052,76048,50094.52,50095,50095.28,76054.28,1,6,,,
exp_instructions,html.Screen,3,2023-09-08T18:44:51.124Z,,,,,9763.720000000001,response,,,,,,continue,keypress(Space),,85819,85818,76052.62,76053,76054.28,85834.28,,,,,
trial,html.Screen,4_0_0,2023-09-08T18:44:54.844Z,,0,1,,3703.720000000001,response,ISIC_6449065.JPG,4,ISIC_0046622.JPG,ISIC_6449065.JPG,false,1,keypress(m),500,89539,89538,85819.24,85819,85834.28,89550.28,8,400,1,,ISIC_0046622.JPG
break,html.Screen,4_0_1,2023-09-08T18:44:54.845Z,,0,,,NaN,,,,,,false,,,,89539,89539,,89539,,89550.28,8,400,,,
break_continue,html.Screen,4_0_2,2023-09-08T18:44:54.846Z,,0,,,NaN,,,,,,false,,,,89540,89540,,89540,,89550.28,8,400,,,
sequence,flow.Sequence,4_0,2023-09-08T18:44:54.846Z,,0,,,3705.720000000001,completion,,,,,false,,,,89541,89540,85819.24,85819,85834.28,89550.28,8,400,,,
trial,html.Screen,4_1_0,2023-09-08T18:44:58.725Z,,0,1,,3868.720000000001,response,ISIC_0070992.JPG,3,ISIC_0014548.JPG,ISIC_0014548.JPG,false,0,keypress(z),500,93419,93419,89538.86,89541,89550.28,93432.28,8,400,2,,ISIC_0070992.JPG
break,html.Screen,4_1_1,2023-09-08T18:44:58.725Z,,0,,,NaN,,,,,,false,,,,93419,93419,,93419,,93432.28,8,400,,,
break_continue,html.Screen,4_1_2,2023-09-08T18:44:58.726Z,,0,,,NaN,,,,,,false,,,,93421,93421,,93420,,93432.28,8,400,,,
sequence,flow.Sequence,4_1,2023-09-08T18:44:58.726Z,,0,,,3870.720000000001,completion,,,,,false,,,,93421,93421,89538.86,89541,89550.28,93432.28,8,400,,,
trial,html.Screen,4_2_0,2023-09-08T18:45:02.575Z,,0,1,,3836.720000000001,response,ISIC_0065283.JPG,3,ISIC_4966865.JPG,ISIC_0065283.JPG,false,1,keypress(m),500,97269,97269,93419.46,93421,93432.28,97281.28,8,400,3,,ISIC_4966865.JPG
break,html.Screen,4_2_1,2023-09-08T18:45:02.576Z,,0,,,NaN,,,,,,false,,,,97270,97270,,97270,,97281.28,8,400,,,
break_continue,html.Screen,4_2_2,2023-09-08T18:45:02.576Z,,0,,,NaN,,,,,,false,,,,97271,97271,,97270,,97281.28,8,400,,,
sequence,flow.Sequence,4_2,2023-09-08T18:45:02.577Z,,0,,,3838.720000000001,completion,,,,,false,,,,97271,97271,93419.46,93421,93432.28,97281.28,8,400,,,
trial,html.Screen,4_3_0,2023-09-08T18:45:05.761Z,,0,1,,3173.720000000001,response,ISIC_6784593.JPG,4,ISIC_0033121.JPG,ISIC_0033121.JPG,false,0,keypress(z),500,100455,100455,97269.5,97271,97281.28,100463.28,8,400,4,,ISIC_6784593.JPG
break,html.Screen,4_3_1,2023-09-08T18:45:05.762Z,,0,,,NaN,,,,,,false,,,,100456,100456,,100456,,100463.28,8,400,,,
break_continue,html.Screen,4_3_2,2023-09-08T18:45:05.763Z,,0,,,NaN,,,,,,false,,,,100457,100457,,100457,,100463.28,8,400,,,
sequence,flow.Sequence,4_3,2023-09-08T18:45:05.763Z,,0,,,3175.720000000001,completion,,,,,false,,,,100457,100457,97269.5,97271,97281.28,100463.28,8,400,,,
trial,html.Screen,4_4_0,2023-09-08T18:45:09.131Z,,0,1,,3362.720000000001,response,ISIC_0000143.JPG,3,ISIC_2299862.JPG,ISIC_2299862.JPG,false,0,keypress(z),500,103826,103826,100456.06,100457,100463.28,103829.28,8,400,5,,ISIC_0000143.JPG
break,html.Screen,4_4_1,2023-09-08T18:45:09.132Z,,0,,,NaN,,,,,,false,,,,103827,103826,,103826,,103829.28,8,400,,,
break_continue,html.Screen,4_4_2,2023-09-08T18:45:09.133Z,,0,,,NaN,,,,,,false,,,,103827,103827,,103827,,103829.28,8,400,,,
sequence,flow.Sequence,4_4,2023-09-08T18:45:09.133Z,,0,,,3363.720000000001,completion,,,,,false,,,,103827,103827,100456.06,100457,100463.28,103829.28,8,400,,,
trial,html.Screen,4_5_0,2023-09-08T18:45:12.260Z,,0,1,,3124.720000000001,response,ISIC_9453737.JPG,2,ISIC_0055378.JPG,ISIC_9453737.JPG,false,1,keypress(m),500,106954,106954,103826.06,103828,103829.28,106961.28,8,400,6,,ISIC_0055378.JPG
break,html.Screen,4_5_1,2023-09-08T18:45:12.260Z,,0,,,NaN,,,,,,false,,,,106954,106954,,106954,,106961.28,8,400,,,
break_continue,html.Screen,4_5_2,2023-09-08T18:45:12.261Z,,0,,,NaN,,,,,,false,,,,106955,106955,,106955,,106961.28,8,400,,,
sequence,flow.Sequence,4_5,2023-09-08T18:45:12.261Z,,0,,,3125.720000000001,completion,,,,,false,,,,106955,106955,103826.06,103828,103829.28,106961.28,8,400,,,
trial,html.Screen,4_6_0,2023-09-08T18:45:15.462Z,,0,1,,3194.720000000001,response,ISIC_2483825.JPG,3,ISIC_0028215.JPG,ISIC_2483825.JPG,false,1,keypress(m),500,110156,110156,106954.04,106955,106961.28,110160.28,8,400,7,,ISIC_0028215.JPG
break,html.Screen,4_6_1,2023-09-08T18:45:15.463Z,,0,,,NaN,,,,,,false,,,,110157,110157,,110157,,110160.28,8,400,,,
break_continue,html.Screen,4_6_2,2023-09-08T18:45:15.463Z,,0,,,NaN,,,,,,false,,,,110157,110157,,110157,,110160.28,8,400,,,
sequence,flow.Sequence,4_6,2023-09-08T18:45:15.463Z,,0,,,3195.720000000001,completion,,,,,false,,,,110157,110157,106954.04,106955,106961.28,110160.28,8,400,,,
trial,html.Screen,4_7_0,2023-09-08T18:45:19.042Z,,0,1,,3574.720000000001,response,ISIC_4442490.JPG,3,ISIC_1369273.JPG,ISIC_4442490.JPG,false,1,keypress(m),500,113736,113735,110156.66,110158,110160.28,113759.28,8,400,8,,ISIC_1369273.JPG
break,html.Screen,4_7_1,2023-09-08T18:45:19.043Z,,0,,,NaN,,,,,,false,,,,113736,113736,,113736,,113759.28,8,400,,,
break_continue,html.Screen,4_7_2,2023-09-08T18:45:19.043Z,,0,,,NaN,,,,,,false,,,,113737,113736,,113736,,113759.28,8,400,,,
sequence,flow.Sequence,4_7,2023-09-08T18:45:19.043Z,,0,,,3575.720000000001,completion,,,,,false,,,,113737,113736,110156.66,110158,110160.28,113759.28,8,400,,,
trial,html.Screen,4_8_0,2023-09-08T18:45:23.409Z,,0,1,,4344.720000000001,response,ISIC_0000159.JPG,2,ISIC_6023504.JPG,ISIC_6023504.JPG,false,0,keypress(z),500,118104,118104,113743.28,113737,113759.28,118108.28,8,400,9,,ISIC_0000159.JPG
break,html.Screen,4_8_1,2023-09-08T18:45:23.411Z,,0,,,NaN,,,,,,false,,,,118105,118105,,118104,,118108.28,8,400,,,
break_continue,html.Screen,4_8_2,2023-09-08T18:45:23.411Z,,0,,,NaN,,,,,,false,,,,118105,118105,,118105,,118108.28,8,400,,,
sequence,flow.Sequence,4_8,2023-09-08T18:45:23.411Z,,0,,,4345.720000000001,completion,,,,,false,,,,118105,118105,113743.28,113737,113759.28,118108.28,8,400,,,
trial,html.Screen,4_9_0,2023-09-08T18:45:26.497Z,,0,1,,3082.720000000001,response,ISIC_0897526.JPG,2,ISIC_0057518.JPG,ISIC_0897526.JPG,false,1,keypress(m),500,121191,121191,118104.22,118105,118108.28,121207.28,8,400,10,,ISIC_0057518.JPG
break,html.Screen,4_9_1,2023-09-08T18:45:26.497Z,,0,,,NaN,,,,,,false,,,,121192,121192,,121191,,121207.28,8,400,,,
break_continue,html.Screen,4_9_2,2023-09-08T18:45:26.498Z,,0,,,NaN,,,,,,false,,,,121192,121192,,121192,,121207.28,8,400,,,
sequence,flow.Sequence,4_9,2023-09-08T18:45:26.498Z,,0,,,3083.720000000001,completion,,,,,false,,,,121193,121192,118104.22,118105,118108.28,121207.28,8,400,,,
trial,html.Screen,4_10_0,2023-09-08T18:45:30.764Z,,0,1,,4250.720000000001,response,ISIC_0072642.JPG,2,ISIC_0029021.JPG,ISIC_0072642.JPG,false,1,keypress(m),500,125458,125458,121191.58,121193,121207.28,125472.28,8,400,11,,ISIC_0029021.JPG
break,html.Screen,4_10_1,2023-09-08T18:45:30.765Z,,0,,,NaN,,,,,,false,,,,125459,125459,,125458,,125472.28,8,400,,,
break_continue,html.Screen,4_10_2,2023-09-08T18:45:30.765Z,,0,,,NaN,,,,,,false,,,,125459,125459,,125459,,125472.28,8,400,,,
sequence,flow.Sequence,4_10,2023-09-08T18:45:30.765Z,,0,,,4251.720000000001,completion,,,,,false,,,,125459,125459,121191.58,121193,121207.28,125472.28,8,400,,,
trial,html.Screen,4_11_0,2023-09-08T18:45:34.011Z,,0,1,,3232.720000000001,response,ISIC_0031507.JPG,3,ISIC_7039203.JPG,ISIC_7039203.JPG,false,0,keypress(z),500,128706,128705,125458.32,125460,125472.28,128721.28,8,400,12,,ISIC_0031507.JPG
break,html.Screen,4_11_1,2023-09-08T18:45:34.012Z,,0,,,NaN,,,,,,false,,,,128706,128706,,128706,,128721.28,8,400,,,
break_continue,html.Screen,4_11_2,2023-09-08T18:45:34.012Z,,0,,,NaN,,,,,,false,,,,128706,128706,,128706,,128721.28,8,400,,,
sequence,flow.Sequence,4_11,2023-09-08T18:45:34.012Z,,0,,,3233.720000000001,completion,,,,,false,,,,128707,128706,125458.32,125460,125472.28,128721.28,8,400,,,
trial,html.Screen,4_12_0,2023-09-08T18:45:38.934Z,,0,1,,4907.720000000001,response,ISIC_5383064.JPG,3,ISIC_5993530.JPG,ISIC_5383064.JPG,false,1,keypress(m),500,133629,133629,128705.66,128707,128721.28,133637.28,8,400,13,,ISIC_5993530.JPG
break,html.Screen,4_12_1,2023-09-08T18:45:38.934Z,,0,,,NaN,,,,,,false,,,,133629,133629,,133629,,133637.28,8,400,,,
break_continue,html.Screen,4_12_2,2023-09-08T18:45:38.935Z,,0,,,NaN,,,,,,false,,,,133630,133629,,133629,,133637.28,8,400,,,
sequence,flow.Sequence,4_12,2023-09-08T18:45:38.935Z,,0,,,4907.720000000001,completion,,,,,false,,,,133630,133629,128705.66,128707,128721.28,133637.28,8,400,,,
trial,html.Screen,4_13_0,2023-09-08T18:45:43.727Z,,0,1,,4782.720000000001,response,ISIC_0054332.JPG,4,ISIC_5821131.JPG,ISIC_5821131.JPG,false,0,keypress(z),500,138422,138420,133628.58,133630,133637.28,138435.28,8,400,14,,ISIC_0054332.JPG
break,html.Screen,4_13_1,2023-09-08T18:45:43.728Z,,0,,,NaN,,,,,,false,,,,138423,138422,,138422,,138435.28,8,400,,,
break_continue,html.Screen,4_13_2,2023-09-08T18:45:43.729Z,,0,,,NaN,,,,,,false,,,,138423,138423,,138423,,138435.28,8,400,,,
sequence,flow.Sequence,4_13,2023-09-08T18:45:43.729Z,,0,,,4785.720000000001,completion,,,,,false,,,,138423,138423,133628.58,133630,133637.28,138435.28,8,400,,,
trial,html.Screen,4_14_0,2023-09-08T18:45:48.219Z,,0,1,,4477.720000000001,response,ISIC_1177153.JPG,2,ISIC_0897526.JPG,ISIC_1177153.JPG,false,1,keypress(m),500,142913,142913,138421.62,138423,138435.28,142917.28,8,400,15,,ISIC_0897526.JPG
break,html.Screen,4_14_1,2023-09-08T18:45:48.220Z,,0,,,NaN,,,,,,false,,,,142914,142914,,142913,,142917.28,8,400,,,
break_continue,html.Screen,4_14_2,2023-09-08T18:45:48.220Z,,0,,,NaN,,,,,,false,,,,142914,142914,,142914,,142917.28,8,400,,,
sequence,flow.Sequence,4_14,2023-09-08T18:45:48.220Z,,0,,,4478.720000000001,completion,,,,,false,,,,142914,142914,138421.62,138423,138435.28,142917.28,8,400,,,
trial,html.Screen,4_15_0,2023-09-08T18:45:51.964Z,,0,1,,3740.720000000001,response,ISIC_4527661.JPG,3,ISIC_5971574.JPG,ISIC_4527661.JPG,false,1,keypress(m),500,146658,146658,142913.6,142915,142917.28,146666.28,8,400,16,,ISIC_5971574.JPG
break,html.Screen,4_15_1,2023-09-08T18:45:51.964Z,,0,,,NaN,,,,,,false,,,,146658,146658,,146658,,146666.28,8,400,,,
break_continue,html.Screen,4_15_2,2023-09-08T18:45:51.964Z,,0,,,NaN,,,,,,false,,,,146658,146658,,146658,,146666.28,8,400,,,
sequence,flow.Sequence,4_15,2023-09-08T18:45:51.965Z,,0,,,3740.720000000001,completion,,,,,false,,,,146659,146658,142913.6,142915,142917.28,146666.28,8,400,,,
trial,html.Screen,4_16_0,2023-09-08T18:45:55.503Z,,0,1,,3530.720000000001,response,ISIC_8310944.JPG,4,ISIC_9259989.JPG,ISIC_9259989.JPG,false,0,keypress(z),500,150197,150197,146658.1,146659,146666.28,150198.28,8,400,17,,ISIC_8310944.JPG
break,html.Screen,4_16_1,2023-09-08T18:45:55.503Z,,0,,,NaN,,,,,,false,,,,150198,150198,,150198,,150198.28,8,400,,,
break_continue,html.Screen,4_16_2,2023-09-08T18:45:55.504Z,,0,,,NaN,,,,,,false,,,,150198,150198,,150198,,150198.28,8,400,,,
sequence,flow.Sequence,4_16,2023-09-08T18:45:55.504Z,,0,,,3531.720000000001,completion,,,,,false,,,,150198,150198,146658.1,146659,146666.28,150198.28,8,400,,,
trial,html.Screen,4_17_0,2023-09-08T18:45:59.674Z,,0,1,,4169.720000000001,response,ISIC_4274519.JPG,3,ISIC_9473492.JPG,ISIC_9473492.JPG,false,0,keypress(z),500,154368,154368,150197.86,150199,150198.28,154380.28,8,400,18,,ISIC_4274519.JPG
break,html.Screen,4_17_1,2023-09-08T18:45:59.675Z,,0,,,NaN,,,,,,false,,,,154369,154369,,154369,,154380.28,8,400,,,
break_continue,html.Screen,4_17_2,2023-09-08T18:45:59.675Z,,0,,,NaN,,,,,,false,,,,154369,154369,,154369,,154380.28,8,400,,,
sequence,flow.Sequence,4_17,2023-09-08T18:45:59.675Z,,0,,,4170.720000000001,completion,,,,,false,,,,154369,154369,150197.86,150199,150198.28,154380.28,8,400,,,
trial,html.Screen,4_18_0,2023-09-08T18:46:03.530Z,,0,1,,3843.720000000001,response,ISIC_5100319.JPG,3,ISIC_0031501.JPG,ISIC_5100319.JPG,false,1,keypress(m),500,158224,158224,154368.54,154370,154380.28,158229.28,8,400,19,,ISIC_0031501.JPG
break,html.Screen,4_18_1,2023-09-08T18:46:03.530Z,,0,,,NaN,,,,,,false,,,,158225,158225,,158224,,158229.28,8,400,,,
break_continue,html.Screen,4_18_2,2023-09-08T18:46:03.531Z,,0,,,NaN,,,,,,false,,,,158225,158225,,158225,,158229.28,8,400,,,
sequence,flow.Sequence,4_18,2023-09-08T18:46:03.531Z,,0,,,3844.720000000001,completion,,,,,false,,,,158225,158225,154368.54,154370,154380.28,158229.28,8,400,,,
trial,html.Screen,4_19_0,2023-09-08T18:46:07.886Z,,0,1,,4350.720000000001,response,ISIC_5242216.JPG,3,ISIC_0025812.JPG,ISIC_5242216.JPG,false,1,keypress(m),500,162581,162580,158224,158225,158229.28,162595.28,8,400,20,,ISIC_0025812.JPG
break,html.Screen,4_19_1,2023-09-08T18:46:07.887Z,,0,,,NaN,,,,,,false,,,,162581,162581,,162581,,162595.28,8,400,,,
break_continue,html.Screen,4_19_2,2023-09-08T18:46:07.887Z,,0,,,NaN,,,,,,false,,,,162581,162581,,162581,,162595.28,8,400,,,
sequence,flow.Sequence,4_19,2023-09-08T18:46:07.888Z,,0,,,4351.720000000001,completion,,,,,false,,,,162582,162581,158224,158225,158229.28,162595.28,8,400,,,
trial,html.Screen,4_20_0,2023-09-08T18:46:14.634Z,,0,1,,6732.720000000001,response,ISIC_5468164.JPG,4,ISIC_1410408.JPG,ISIC_5468164.JPG,false,1,keypress(m),500,169329,169328,162580.56,162582,162595.28,169343.28,8,400,21,,ISIC_1410408.JPG
break,html.Screen,4_20_1,2023-09-08T18:46:14.634Z,,0,,,NaN,,,,,,false,,,,169329,169329,,169329,,169343.28,8,400,,,
break_continue,html.Screen,4_20_2,2023-09-08T18:46:14.635Z,,0,,,NaN,,,,,,false,,,,169329,169329,,169329,,169343.28,8,400,,,
sequence,flow.Sequence,4_20,2023-09-08T18:46:14.635Z,,0,,,6733.720000000001,completion,,,,,false,,,,169329,169329,162580.56,162582,162595.28,169343.28,8,400,,,
trial,html.Screen,4_21_0,2023-09-08T18:46:18.694Z,,0,1,,4044.720000000001,response,ISIC_0010316.JPG,2,ISIC_4885444.JPG,ISIC_4885444.JPG,false,0,keypress(z),500,173388,173388,169328.22,169329,169343.28,173391.28,8,400,22,,ISIC_0010316.JPG
break,html.Screen,4_21_1,2023-09-08T18:46:18.695Z,,0,,,NaN,,,,,,false,,,,173389,173389,,173388,,173391.28,8,400,,,
break_continue,html.Screen,4_21_2,2023-09-08T18:46:18.695Z,,0,,,NaN,,,,,,false,,,,173389,173389,,173389,,173391.28,8,400,,,
sequence,flow.Sequence,4_21,2023-09-08T18:46:18.695Z,,0,,,4045.720000000001,completion,,,,,false,,,,173389,173389,169328.22,169329,169343.28,173391.28,8,400,,,
trial,html.Screen,4_22_0,2023-09-08T18:46:22.550Z,,0,1,,3852.720000000001,response,ISIC_3688407.JPG,3,ISIC_0055438.JPG,ISIC_0055438.JPG,false,0,keypress(z),500,177244,177244,173388.66,173389,173391.28,177257.28,8,400,23,,ISIC_3688407.JPG
break,html.Screen,4_22_1,2023-09-08T18:46:22.551Z,,0,,,NaN,,,,,,false,,,,177245,177245,,177245,,177257.28,8,400,,,
break_continue,html.Screen,4_22_2,2023-09-08T18:46:22.551Z,,0,,,NaN,,,,,,false,,,,177245,177245,,177245,,177257.28,8,400,,,
sequence,flow.Sequence,4_22,2023-09-08T18:46:22.551Z,,0,,,3853.720000000001,completion,,,,,false,,,,177246,177245,173388.66,173389,173391.28,177257.28,8,400,,,
trial,html.Screen,4_23_0,2023-09-08T18:46:26.515Z,,0,1,,3951.720000000001,response,ISIC_0062318.JPG,4,ISIC_9203812.JPG,ISIC_9203812.JPG,false,0,keypress(z),500,181209,181209,177244.42,177246,177257.28,181222.28,8,400,24,,ISIC_0062318.JPG
break,html.Screen,4_23_1,2023-09-08T18:46:26.516Z,,0,,,NaN,,,,,,false,,,,181210,181210,,181209,,181222.28,8,400,,,
break_continue,html.Screen,4_23_2,2023-09-08T18:46:26.516Z,,0,,,NaN,,,,,,false,,,,181210,181210,,181210,,181222.28,8,400,,,
sequence,flow.Sequence,4_23,2023-09-08T18:46:26.516Z,,0,,,3952.720000000001,completion,,,,,false,,,,181210,181210,177244.42,177246,177257.28,181222.28,8,400,,,
trial,html.Screen,4_24_0,2023-09-08T18:46:29.609Z,,0,1,,3080.720000000001,response,ISIC_0054459.JPG,3,ISIC_0046458.JPG,ISIC_0046458.JPG,false,0,keypress(z),500,184303,184303,181209.5,181210,181222.28,184305.28,8,400,25,,ISIC_0054459.JPG
break,html.Screen,4_24_1,2023-09-08T18:46:29.609Z,,0,,,NaN,,,,,,false,,,,184304,184304,,184304,,184305.28,8,400,,,
break_continue,html.Screen,4_24_2,2023-09-08T18:46:29.609Z,,0,,,NaN,,,,,,false,,,,184304,184304,,184304,,184305.28,8,400,,,
sequence,flow.Sequence,4_24,2023-09-08T18:46:29.609Z,,0,,,3081.720000000001,completion,,,,,false,,,,184304,184304,181209.5,181210,181222.28,184305.28,8,400,,,
trial,html.Screen,4_25_0,2023-09-08T18:46:33.188Z,,0,1,,3576.720000000001,response,ISIC_0031213.JPG,3,ISIC_7454512.JPG,ISIC_7454512.JPG,false,0,keypress(z),500,187882,187882,184303.2,184304,184305.28,187887.28,8,400,26,,ISIC_0031213.JPG
break,html.Screen,4_25_1,2023-09-08T18:46:33.188Z,,0,,,NaN,,,,,,false,,,,187883,187883,,187882,,187887.28,8,400,,,
break_continue,html.Screen,4_25_2,2023-09-08T18:46:33.189Z,,0,,,NaN,,,,,,false,,,,187883,187883,,187883,,187887.28,8,400,,,
sequence,flow.Sequence,4_25,2023-09-08T18:46:33.189Z,,0,,,3577.720000000001,completion,,,,,false,,,,187883,187883,184303.2,184304,184305.28,187887.28,8,400,,,
trial,html.Screen,4_26_0,2023-09-08T18:46:37.619Z,,0,1,,4425.720000000001,response,ISIC_7244604.JPG,4,ISIC_0012067.JPG,ISIC_7244604.JPG,false,1,keypress(m),500,192313,192313,187882.76,187883,187887.28,192319.28,8,400,27,,ISIC_0012067.JPG
break,html.Screen,4_26_1,2023-09-08T18:46:37.620Z,,0,,,NaN,,,,,,false,,,,192315,192315,,192314,,192319.28,8,400,,,
break_continue,html.Screen,4_26_2,2023-09-08T18:46:37.620Z,,0,,,NaN,,,,,,false,,,,192315,192315,,192315,,192319.28,8,400,,,
sequence,flow.Sequence,4_26,2023-09-08T18:46:37.620Z,,0,,,4427.720000000001,completion,,,,,false,,,,192315,192315,187882.76,187883,187887.28,192319.28,8,400,,,
trial,html.Screen,4_27_0,2023-09-08T18:46:41.520Z,,0,1,,3894.720000000001,response,ISIC_0030901.JPG,3,ISIC_0013491.JPG,ISIC_0013491.JPG,false,0,keypress(z),500,196214,196214,192314,192315,192319.28,196218.28,8,400,28,,ISIC_0030901.JPG
break,html.Screen,4_27_1,2023-09-08T18:46:41.520Z,,0,,,NaN,,,,,,false,,,,196214,196214,,196214,,196218.28,8,400,,,
break_continue,html.Screen,4_27_2,2023-09-08T18:46:41.521Z,,0,,,NaN,,,,,,false,,,,196215,196215,,196214,,196218.28,8,400,,,
sequence,flow.Sequence,4_27,2023-09-08T18:46:41.521Z,,0,,,3895.720000000001,completion,,,,,false,,,,196215,196215,192314,192315,192319.28,196218.28,8,400,,,
trial,html.Screen,4_28_0,2023-09-08T18:46:45.571Z,,0,1,,4046.720000000001,response,ISIC_0027085.JPG,4,ISIC_5491641.JPG,ISIC_5491641.JPG,false,0,keypress(z),500,200265,200265,196214.5,196215,196218.28,200267.28,8,400,29,,ISIC_0027085.JPG
break,html.Screen,4_28_1,2023-09-08T18:46:45.572Z,,0,,,NaN,,,,,,false,,,,200265,200265,,200265,,200267.28,8,400,,,
break_continue,html.Screen,4_28_2,2023-09-08T18:46:45.572Z,,0,,,NaN,,,,,,false,,,,200266,200266,,200266,,200267.28,8,400,,,
sequence,flow.Sequence,4_28,2023-09-08T18:46:45.572Z,,0,,,4047.720000000001,completion,,,,,false,,,,200266,200266,196214.5,196215,196218.28,200267.28,8,400,,,
trial,html.Screen,4_29_0,2023-09-08T18:46:51.509Z,,0,1,,5935.720000000001,response,ISIC_4329176.JPG,3,ISIC_9472209.JPG,ISIC_4329176.JPG,false,1,keypress(m),500,206204,206203,200265.3,200266,200267.28,206232.28,8,400,30,,ISIC_9472209.JPG
break,html.Screen,4_29_1,2023-09-08T18:46:51.510Z,,0,,,NaN,,,,,,false,,,,206204,206204,,206204,,206232.28,8,400,,,
break_continue,html.Screen,4_29_2,2023-09-08T18:46:51.511Z,,0,,,NaN,,,,,,false,,,,206204,206204,,206204,,206232.28,8,400,,,
sequence,flow.Sequence,4_29,2023-09-08T18:46:51.511Z,,0,,,5936.720000000001,completion,,,,,false,,,,206205,206204,200265.3,200266,200267.28,206232.28,8,400,,,
trial,html.Screen,4_30_0,2023-09-08T18:46:55.170Z,,0,1,,3631.720000000001,response,ISIC_6253295.JPG,3,ISIC_9626241.JPG,ISIC_6253295.JPG,false,1,keypress(m),500,209864,209864,206215.28,206205,206232.28,209880.28,8,400,31,,ISIC_9626241.JPG
break,html.Screen,4_30_1,2023-09-08T18:46:55.171Z,,0,,,NaN,,,,,,false,,,,209865,209865,,209864,,209880.28,8,400,,,
break_continue,html.Screen,4_30_2,2023-09-08T18:46:55.171Z,,0,,,NaN,,,,,,false,,,,209866,209865,,209865,,209880.28,8,400,,,
sequence,flow.Sequence,4_30,2023-09-08T18:46:55.171Z,,0,,,3632.720000000001,completion,,,,,false,,,,209866,209865,206215.28,206205,206232.28,209880.28,8,400,,,
trial,html.Screen,4_31_0,2023-09-08T18:46:59.772Z,,0,1,,4585.720000000001,response,ISIC_0552911.JPG,4,ISIC_0025550.JPG,ISIC_0552911.JPG,false,1,keypress(m),500,214466,214466,209864.74,209866,209880.28,214479.28,8,400,32,,ISIC_0025550.JPG
break,html.Screen,4_31_1,2023-09-08T18:46:59.772Z,,0,,,NaN,,,,,,false,,,,214466,214466,,214466,,214479.28,8,400,,,
break_continue,html.Screen,4_31_2,2023-09-08T18:46:59.772Z,,0,,,NaN,,,,,,false,,,,214467,214467,,214467,,214479.28,8,400,,,
sequence,flow.Sequence,4_31,2023-09-08T18:46:59.772Z,,0,,,4586.720000000001,completion,,,,,false,,,,214467,214467,209864.74,209866,209880.28,214479.28,8,400,,,
trial,html.Screen,4_32_0,2023-09-08T18:47:05.070Z,,0,1,,5285.720000000001,response,ISIC_0034202.JPG,2,ISIC_1280780.JPG,ISIC_1280780.JPG,false,0,keypress(z),500,219765,219765,214466.32,214467,214479.28,219794.28,8,400,33,,ISIC_0034202.JPG
break,html.Screen,4_32_1,2023-09-08T18:47:05.071Z,,0,,,NaN,,,,,,false,,,,219765,219765,,219765,,219794.28,8,400,,,
break_continue,html.Screen,4_32_2,2023-09-08T18:47:05.071Z,,0,,,NaN,,,,,,false,,,,219765,219765,,219765,,219794.28,8,400,,,
sequence,flow.Sequence,4_32,2023-09-08T18:47:05.071Z,,0,,,5285.720000000001,completion,,,,,false,,,,219766,219765,214466.32,214467,214479.28,219794.28,8,400,,,
trial,html.Screen,4_33_0,2023-09-08T18:47:08.409Z,,0,1,,3309.720000000001,response,ISIC_5320483.JPG,3,ISIC_5048571.JPG,ISIC_5320483.JPG,false,1,keypress(m),500,223104,223104,219777.28,219766,219794.28,223110.28,8,400,34,,ISIC_5048571.JPG
break,html.Screen,4_33_1,2023-09-08T18:47:08.410Z,,0,,,NaN,,,,,,false,,,,223105,223105,,223105,,223110.28,8,400,,,
break_continue,html.Screen,4_33_2,2023-09-08T18:47:08.410Z,,0,,,NaN,,,,,,false,,,,223105,223105,,223105,,223110.28,8,400,,,
sequence,flow.Sequence,4_33,2023-09-08T18:47:08.410Z,,0,,,3310.720000000001,completion,,,,,false,,,,223105,223105,219777.28,219766,219794.28,223110.28,8,400,,,
trial,html.Screen,4_34_0,2023-09-08T18:47:12.972Z,,0,1,,4555.720000000001,response,ISIC_0011150.JPG,3,ISIC_1359533.JPG,ISIC_0011150.JPG,false,1,keypress(m),500,227666,227666,223104.1,223105,223110.28,227675.28,8,400,35,,ISIC_1359533.JPG
break,html.Screen,4_34_1,2023-09-08T18:47:12.972Z,,0,,,NaN,,,,,,false,,,,227666,227666,,227666,,227675.28,8,400,,,
break_continue,html.Screen,4_34_2,2023-09-08T18:47:12.973Z,,0,,,NaN,,,,,,false,,,,227667,227667,,227667,,227675.28,8,400,,,
sequence,flow.Sequence,4_34,2023-09-08T18:47:12.973Z,,0,,,4556.720000000001,completion,,,,,false,,,,227667,227667,223104.1,223105,223110.28,227675.28,8,400,,,
trial,html.Screen,4_35_0,2023-09-08T18:47:16.310Z,,0,1,,3328.720000000001,response,ISIC_0226072.JPG,3,ISIC_0029729.JPG,ISIC_0226072.JPG,false,1,keypress(m),500,231004,231004,227666.54,227667,227675.28,231007.28,8,400,36,,ISIC_0029729.JPG
break,html.Screen,4_35_1,2023-09-08T18:47:16.311Z,,0,,,NaN,,,,,,false,,,,231005,231005,,231004,,231007.28,8,400,,,
break_continue,html.Screen,4_35_2,2023-09-08T18:47:16.311Z,,0,,,NaN,,,,,,false,,,,231005,231005,,231005,,231007.28,8,400,,,
sequence,flow.Sequence,4_35,2023-09-08T18:47:16.311Z,,0,,,3329.720000000001,completion,,,,,false,,,,231005,231005,227666.54,227667,227675.28,231007.28,8,400,,,
trial,html.Screen,4_36_0,2023-09-08T18:47:21.114Z,,0,1,,4800.720000000001,response,ISIC_6381785.JPG,3,ISIC_2051564.JPG,ISIC_2051564.JPG,false,0,keypress(z),500,235808,235808,231004.38,231005,231007.28,235823.28,8,400,37,,ISIC_6381785.JPG
break,html.Screen,4_36_1,2023-09-08T18:47:21.114Z,,0,,,NaN,,,,,,false,,,,235808,235808,,235808,,235823.28,8,400,,,
break_continue,html.Screen,4_36_2,2023-09-08T18:47:21.114Z,,0,,,NaN,,,,,,false,,,,235809,235809,,235809,,235823.28,8,400,,,
sequence,flow.Sequence,4_36,2023-09-08T18:47:21.114Z,,0,,,4801.720000000001,completion,,,,,false,,,,235809,235809,231004.38,231005,231007.28,235823.28,8,400,,,
trial,html.Screen,4_37_0,2023-09-08T18:47:24.282Z,,0,1,,3153.720000000001,response,ISIC_0029007.JPG,3,ISIC_0056860.JPG,ISIC_0029007.JPG,false,1,keypress(m),500,238977,238977,235807.9,235809,235823.28,238988.28,8,400,38,,ISIC_0056860.JPG
break,html.Screen,4_37_1,2023-09-08T18:47:24.283Z,,0,,,NaN,,,,,,false,,,,238978,238978,,238977,,238988.28,8,400,,,
break_continue,html.Screen,4_37_2,2023-09-08T18:47:24.283Z,,0,,,NaN,,,,,,false,,,,238978,238978,,238978,,238988.28,8,400,,,
sequence,flow.Sequence,4_37,2023-09-08T18:47:24.283Z,,0,,,3154.720000000001,completion,,,,,false,,,,238978,238978,235807.9,235809,235823.28,238988.28,8,400,,,
trial,html.Screen,4_38_0,2023-09-08T18:47:27.385Z,,0,1,,3091.720000000001,response,ISIC_0014469.JPG,4,ISIC_0032070.JPG,ISIC_0014469.JPG,false,1,keypress(m),500,242080,242080,238977.22,238978,238988.28,242087.28,8,400,39,,ISIC_0032070.JPG
break,html.Screen,4_38_1,2023-09-08T18:47:27.386Z,,0,,,NaN,,,,,,false,,,,242080,242080,,242080,,242087.28,8,400,,,
break_continue,html.Screen,4_38_2,2023-09-08T18:47:27.386Z,,0,,,NaN,,,,,,false,,,,242081,242081,,242081,,242087.28,8,400,,,
sequence,flow.Sequence,4_38,2023-09-08T18:47:27.386Z,,0,,,3092.720000000001,completion,,,,,false,,,,242081,242081,238977.22,238978,238988.28,242087.28,8,400,,,
trial,html.Screen,4_39_0,2023-09-08T18:47:30.394Z,,0,1,,3000.720000000001,response,ISIC_0061647.JPG,2,ISIC_0059891.JPG,ISIC_0059891.JPG,false,0,keypress(z),500,245089,245088,242079.68,242081,242087.28,245103.28,8,400,40,,ISIC_0061647.JPG
break,html.Screen,4_39_1,2023-09-08T18:47:30.395Z,,0,,,NaN,,,,,,false,,,,245089,245089,,245089,,245103.28,8,400,,,
break_continue,html.Screen,4_39_2,2023-09-08T18:47:30.395Z,,0,,,NaN,,,,,,false,,,,245089,245089,,245089,,245103.28,8,400,,,
sequence,flow.Sequence,4_39,2023-09-08T18:47:30.395Z,,0,,,3001.720000000001,completion,,,,,false,,,,245089,245089,242079.68,242081,242087.28,245103.28,8,400,,,
trial,html.Screen,4_40_0,2023-09-08T18:47:33.826Z,,0,1,,3417.720000000001,response,ISIC_0011094.JPG,2,ISIC_0065658.JPG,ISIC_0011094.JPG,false,1,keypress(m),500,248521,248521,245088.74,245089,245103.28,248536.28,8,400,41,,ISIC_0065658.JPG
break,html.Screen,4_40_1,2023-09-08T18:47:33.827Z,,0,,,NaN,,,,,,false,,,,248521,248521,,248521,,248536.28,8,400,,,
break_continue,html.Screen,4_40_2,2023-09-08T18:47:33.827Z,,0,,,NaN,,,,,,false,,,,248522,248521,,248521,,248536.28,8,400,,,
sequence,flow.Sequence,4_40,2023-09-08T18:47:33.827Z,,0,,,3417.720000000001,completion,,,,,false,,,,248522,248521,245088.74,245089,245103.28,248536.28,8,400,,,
trial,html.Screen,4_41_0,2023-09-08T18:47:37.161Z,,0,1,,3318.720000000001,response,ISIC_9334956.JPG,4,ISIC_7806612.JPG,ISIC_7806612.JPG,false,0,keypress(z),500,251855,251855,248521.12,248522,248536.28,251868.28,8,400,42,,ISIC_9334956.JPG
break,html.Screen,4_41_1,2023-09-08T18:47:37.162Z,,0,,,NaN,,,,,,false,,,,251856,251856,,251855,,251868.28,8,400,,,
break_continue,html.Screen,4_41_2,2023-09-08T18:47:37.162Z,,0,,,NaN,,,,,,false,,,,251856,251856,,251856,,251868.28,8,400,,,
sequence,flow.Sequence,4_41,2023-09-08T18:47:37.162Z,,0,,,3319.720000000001,completion,,,,,false,,,,251856,251856,248521.12,248522,248536.28,251868.28,8,400,,,
trial,html.Screen,4_42_0,2023-09-08T18:47:40.646Z,,0,1,,3470.720000000001,response,ISIC_9969263.JPG,3,ISIC_3800541.JPG,ISIC_9969263.JPG,false,1,keypress(m),500,255340,255339,251855.7,251856,251868.28,255350.28,8,400,43,,ISIC_3800541.JPG
break,html.Screen,4_42_1,2023-09-08T18:47:40.646Z,,0,,,NaN,,,,,,false,,,,255340,255340,,255340,,255350.28,8,400,,,
break_continue,html.Screen,4_42_2,2023-09-08T18:47:40.646Z,,0,,,NaN,,,,,,false,,,,255341,255341,,255341,,255350.28,8,400,,,
sequence,flow.Sequence,4_42,2023-09-08T18:47:40.646Z,,0,,,3472.720000000001,completion,,,,,false,,,,255341,255341,251855.7,251856,251868.28,255350.28,8,400,,,
trial,html.Screen,4_43_0,2023-09-08T18:47:45.343Z,,0,1,,4685.720000000001,response,ISIC_1496194.JPG,3,ISIC_2209697.JPG,ISIC_2209697.JPG,false,0,keypress(z),500,260036,260036,255339.82,255341,255350.28,260049.28,8,400,44,,ISIC_1496194.JPG
break,html.Screen,4_43_1,2023-09-08T18:47:45.343Z,,0,,,NaN,,,,,,false,,,,260036,260036,,260036,,260049.28,8,400,,,
break_continue,html.Screen,4_43_2,2023-09-08T18:47:45.343Z,,0,,,NaN,,,,,,false,,,,260038,260037,,260037,,260049.28,8,400,,,
sequence,flow.Sequence,4_43,2023-09-08T18:47:45.343Z,,0,,,4686.720000000001,completion,,,,,false,,,,260038,260037,255339.82,255341,255350.28,260049.28,8,400,,,
trial,html.Screen,4_44_0,2023-09-08T18:47:48.461Z,,0,1,,3105.720000000001,response,ISIC_3374533.JPG,2,ISIC_0010231.JPG,ISIC_3374533.JPG,false,1,keypress(m),500,263155,263155,260036.56,260038,260049.28,263164.28,8,400,45,,ISIC_0010231.JPG
break,html.Screen,4_44_1,2023-09-08T18:47:48.462Z,,0,,,NaN,,,,,,false,,,,263156,263156,,263156,,263164.28,8,400,,,
break_continue,html.Screen,4_44_2,2023-09-08T18:47:48.462Z,,0,,,NaN,,,,,,false,,,,263156,263156,,263156,,263164.28,8,400,,,
sequence,flow.Sequence,4_44,2023-09-08T18:47:48.462Z,,0,,,3106.720000000001,completion,,,,,false,,,,263156,263156,260036.56,260038,260049.28,263164.28,8,400,,,
trial,html.Screen,4_45_0,2023-09-08T18:47:51.513Z,,0,1,,3043.719999999972,response,ISIC_2967024.JPG,2,ISIC_0028489.JPG,ISIC_0028489.JPG,false,0,keypress(z),500,266208,266208,263155.22,263156,263164.28,266214.28,8,400,46,,ISIC_2967024.JPG
break,html.Screen,4_45_1,2023-09-08T18:47:51.514Z,,0,,,NaN,,,,,,false,,,,266208,266208,,266208,,266214.28,8,400,,,
break_continue,html.Screen,4_45_2,2023-09-08T18:47:51.514Z,,0,,,NaN,,,,,,false,,,,266208,266208,,266208,,266214.28,8,400,,,
sequence,flow.Sequence,4_45,2023-09-08T18:47:51.514Z,,0,,,3043.719999999972,completion,,,,,false,,,,266208,266208,263155.22,263156,263164.28,266214.28,8,400,,,
trial,html.Screen,4_46_0,2023-09-08T18:47:54.598Z,,0,1,,3077.719999999972,response,ISIC_0030047.JPG,2,ISIC_0028412.JPG,ISIC_0030047.JPG,false,1,keypress(m),500,269292,269292,266207.54,266208,266214.28,269296.28,8,400,47,,ISIC_0028412.JPG
break,html.Screen,4_46_1,2023-09-08T18:47:54.598Z,,0,,,NaN,,,,,,false,,,,269293,269293,,269292,,269296.28,8,400,,,
break_continue,html.Screen,4_46_2,2023-09-08T18:47:54.598Z,,0,,,NaN,,,,,,false,,,,269293,269293,,269293,,269296.28,8,400,,,
sequence,flow.Sequence,4_46,2023-09-08T18:47:54.598Z,,0,,,3078.719999999972,completion,,,,,false,,,,269293,269293,266207.54,266208,266214.28,269296.28,8,400,,,
trial,html.Screen,4_47_0,2023-09-08T18:47:58.342Z,,0,1,,3739.719999999972,response,ISIC_1616031.JPG,3,ISIC_6272501.JPG,ISIC_6272501.JPG,false,0,keypress(z),500,273036,273036,269292.08,269293,269296.28,273062.28,8,400,48,,ISIC_1616031.JPG
break,html.Screen,4_47_1,2023-09-08T18:47:58.342Z,,0,,,NaN,,,,,,false,,,,273037,273037,,273036,,273062.28,8,400,,,
break_continue,html.Screen,4_47_2,2023-09-08T18:47:58.343Z,,0,,,NaN,,,,,,false,,,,273037,273037,,273037,,273062.28,8,400,,,
sequence,flow.Sequence,4_47,2023-09-08T18:47:58.343Z,,0,,,3740.719999999972,completion,,,,,false,,,,273037,273037,269292.08,269293,269296.28,273062.28,8,400,,,
trial,html.Screen,4_48_0,2023-09-08T18:48:03.169Z,,0,1,,4800.719999999972,response,ISIC_2778131.JPG,4,ISIC_3439215.JPG,ISIC_3439215.JPG,false,0,keypress(z),500,277864,277863,273045.28,273037,273062.28,277877.28,8,400,49,,ISIC_2778131.JPG
break,html.Screen,4_48_1,2023-09-08T18:48:03.170Z,,0,,,NaN,,,,,,false,,,,277864,277864,,277864,,277877.28,8,400,,,
break_continue,html.Screen,4_48_2,2023-09-08T18:48:03.170Z,,0,,,NaN,,,,,,false,,,,277864,277864,,277864,,277877.28,8,400,,,
sequence,flow.Sequence,4_48,2023-09-08T18:48:03.170Z,,0,,,4801.719999999972,completion,,,,,false,,,,277865,277864,273045.28,273037,273062.28,277877.28,8,400,,,
trial,html.Screen,4_49_0,2023-09-08T18:48:07.280Z,,0,1,,4096.719999999972,response,ISIC_0054206.JPG,2,ISIC_4642695.JPG,ISIC_0054206.JPG,false,1,keypress(m),500,281974,281974,277863.44,277865,277877.28,281975.28,8,400,50,,ISIC_4642695.JPG
break,html.Screen,4_49_1,2023-09-08T18:48:17.263Z,,0,,,9998,timeout,,,,,false,,,,291958,291956.28,281973.96,281974,281975.28,291973.28,8,400,,,
break_continue,html.Screen,4_49_2,2023-09-08T18:48:18.471Z,,0,,,1186.719999999972,response,,,,,false,continue,keypress(Space),,293165,293160,291956.28,291958,291973.28,293172.28,8,400,,,
sequence,flow.Sequence,4_49,2023-09-08T18:48:18.471Z,,0,,,15282.719999999972,completion,,,,,false,,,,293165,293160,277863.44,277865,277877.28,293172.28,8,400,,,
trial,html.Screen,4_50_0,2023-09-08T18:48:21.356Z,,0,2,,2878.719999999972,response,ISIC_0065766.JPG,2,ISIC_0062713.JPG,ISIC_0062713.JPG,false,0,keypress(z),500,296051,296051,293165.24,293165,293172.28,296055.28,8,400,1,,ISIC_0065766.JPG
break,html.Screen,4_50_1,2023-09-08T18:48:21.357Z,,0,,,NaN,,,,,,false,,,,296051,296051,,296051,,296055.28,8,400,,,
break_continue,html.Screen,4_50_2,2023-09-08T18:48:21.358Z,,0,,,NaN,,,,,,false,,,,296051,296051,,296051,,296055.28,8,400,,,
sequence,flow.Sequence,4_50,2023-09-08T18:48:21.358Z,,0,,,2878.719999999972,completion,,,,,false,,,,296052,296051,293165.24,293165,293172.28,296055.28,8,400,,,
trial,html.Screen,4_51_0,2023-09-08T18:48:25.764Z,,0,2,,4402.719999999972,response,ISIC_6714923.JPG,3,ISIC_0033238.JPG,ISIC_6714923.JPG,false,1,keypress(m),500,300458,300458,296050.98,296052,296055.28,300470.28,8,400,2,,ISIC_0033238.JPG
break,html.Screen,4_51_1,2023-09-08T18:48:25.764Z,,0,,,NaN,,,,,,false,,,,300458,300458,,300458,,300470.28,8,400,,,
break_continue,html.Screen,4_51_2,2023-09-08T18:48:25.764Z,,0,,,NaN,,,,,,false,,,,300459,300458,,300458,,300470.28,8,400,,,
sequence,flow.Sequence,4_51,2023-09-08T18:48:25.765Z,,0,,,4402.719999999972,completion,,,,,false,,,,300459,300458,296050.98,296052,296055.28,300470.28,8,400,,,
trial,html.Screen,4_52_0,2023-09-08T18:48:28.792Z,,0,2,,3014.719999999972,response,ISIC_7972996.JPG,4,ISIC_8814612.JPG,ISIC_7972996.JPG,false,1,keypress(m),500,303486,303485,300457.94,300459,300470.28,303486.28,8,400,3,,ISIC_8814612.JPG
break,html.Screen,4_52_1,2023-09-08T18:48:28.792Z,,0,,,NaN,,,,,,false,,,,303486,303486,,303486,,303486.28,8,400,,,
break_continue,html.Screen,4_52_2,2023-09-08T18:48:28.792Z,,0,,,NaN,,,,,,false,,,,303486,303486,,303486,,303486.28,8,400,,,
sequence,flow.Sequence,4_52,2023-09-08T18:48:28.792Z,,0,,,3015.719999999972,completion,,,,,false,,,,303487,303486,300457.94,300459,300470.28,303486.28,8,400,,,
trial,html.Screen,4_53_0,2023-09-08T18:48:32.060Z,,0,2,,3267.719999999972,response,ISIC_6973257.JPG,4,ISIC_1470934.JPG,ISIC_1470934.JPG,false,0,keypress(z),500,306754,306754,303485.76,303487,303486.28,306768.28,8,400,4,,ISIC_6973257.JPG
break,html.Screen,4_53_1,2023-09-08T18:48:32.061Z,,0,,,NaN,,,,,,false,,,,306755,306754,,306754,,306768.28,8,400,,,
break_continue,html.Screen,4_53_2,2023-09-08T18:48:32.061Z,,0,,,NaN,,,,,,false,,,,306755,306755,,306755,,306768.28,8,400,,,
sequence,flow.Sequence,4_53,2023-09-08T18:48:32.061Z,,0,,,3268.719999999972,completion,,,,,false,,,,306755,306755,303485.76,303487,303486.28,306768.28,8,400,,,
trial,html.Screen,4_54_0,2023-09-08T18:48:35.209Z,,0,2,,3134.719999999972,response,ISIC_8820668.JPG,2,ISIC_0011289.JPG,ISIC_8820668.JPG,false,1,keypress(m),500,309903,309903,306754.42,306755,306768.28,309917.28,8,400,5,,ISIC_0011289.JPG
break,html.Screen,4_54_1,2023-09-08T18:48:35.209Z,,0,,,NaN,,,,,,false,,,,309903,309903,,309903,,309917.28,8,400,,,
break_continue,html.Screen,4_54_2,2023-09-08T18:48:35.209Z,,0,,,NaN,,,,,,false,,,,309904,309904,,309904,,309917.28,8,400,,,
sequence,flow.Sequence,4_54,2023-09-08T18:48:35.210Z,,0,,,3135.719999999972,completion,,,,,false,,,,309904,309904,306754.42,306755,306768.28,309917.28,8,400,,,
trial,html.Screen,4_55_0,2023-09-08T18:48:38.467Z,,0,2,,3243.719999999972,response,ISIC_3926397.JPG,3,ISIC_0711360.JPG,ISIC_3926397.JPG,false,1,keypress(m),500,313161,313161,309903.14,309904,309917.28,313166.28,8,400,6,,ISIC_0711360.JPG
break,html.Screen,4_55_1,2023-09-08T18:48:38.468Z,,0,,,NaN,,,,,,false,,,,313162,313161,,313161,,313166.28,8,400,,,
break_continue,html.Screen,4_55_2,2023-09-08T18:48:38.468Z,,0,,,NaN,,,,,,false,,,,313162,313162,,313162,,313166.28,8,400,,,
sequence,flow.Sequence,4_55,2023-09-08T18:48:38.468Z,,0,,,3244.719999999972,completion,,,,,false,,,,313162,313162,309903.14,309904,309917.28,313166.28,8,400,,,
trial,html.Screen,4_56_0,2023-09-08T18:48:42.216Z,,0,2,,3744.719999999972,response,ISIC_8393181.JPG,3,ISIC_0028618.JPG,ISIC_0028618.JPG,false,0,keypress(z),500,316911,316911,313161.22,313162,313166.28,316915.28,8,400,7,,ISIC_8393181.JPG
break,html.Screen,4_56_1,2023-09-08T18:48:42.217Z,,0,,,NaN,,,,,,false,,,,316912,316912,,316911,,316915.28,8,400,,,
break_continue,html.Screen,4_56_2,2023-09-08T18:48:42.217Z,,0,,,NaN,,,,,,false,,,,316912,316912,,316912,,316915.28,8,400,,,
sequence,flow.Sequence,4_56,2023-09-08T18:48:42.218Z,,0,,,3745.719999999972,completion,,,,,false,,,,316912,316912,313161.22,313162,313166.28,316915.28,8,400,,,
trial,html.Screen,4_57_0,2023-09-08T18:48:45.531Z,,0,2,,3309.719999999972,response,ISIC_3799267.JPG,3,ISIC_4055833.JPG,ISIC_4055833.JPG,false,0,keypress(z),500,320225,320225,316911.02,316912,316915.28,320231.28,8,400,8,,ISIC_3799267.JPG
break,html.Screen,4_57_1,2023-09-08T18:48:45.531Z,,0,,,NaN,,,,,,false,,,,320225,320225,,320225,,320231.28,8,400,,,
break_continue,html.Screen,4_57_2,2023-09-08T18:48:45.531Z,,0,,,NaN,,,,,,false,,,,320225,320225,,320225,,320231.28,8,400,,,
sequence,flow.Sequence,4_57,2023-09-08T18:48:45.531Z,,0,,,3309.719999999972,completion,,,,,false,,,,320225,320225,316911.02,316912,316915.28,320231.28,8,400,,,
trial,html.Screen,4_58_0,2023-09-08T18:48:48.679Z,,0,2,,3141.719999999972,response,ISIC_6668093.JPG,3,ISIC_8181142.JPG,ISIC_8181142.JPG,false,0,keypress(z),500,323373,323373,320224.48,320225,320231.28,323380.28,8,400,9,,ISIC_6668093.JPG
break,html.Screen,4_58_1,2023-09-08T18:48:48.680Z,,0,,,NaN,,,,,,false,,,,323374,323374,,323373,,323380.28,8,400,,,
break_continue,html.Screen,4_58_2,2023-09-08T18:48:48.680Z,,0,,,NaN,,,,,,false,,,,323374,323374,,323374,,323380.28,8,400,,,
sequence,flow.Sequence,4_58,2023-09-08T18:48:48.680Z,,0,,,3142.719999999972,completion,,,,,false,,,,323374,323374,320224.48,320225,320231.28,323380.28,8,400,,,
trial,html.Screen,4_59_0,2023-09-08T18:48:54.028Z,,0,2,,5341.719999999972,response,ISIC_0026505.JPG,2,ISIC_0057702.JPG,ISIC_0026505.JPG,false,1,keypress(m),500,328722,328722,323373.5,323374,323380.28,328728.28,8,400,10,,ISIC_0057702.JPG
break,html.Screen,4_59_1,2023-09-08T18:48:54.029Z,,0,,,NaN,,,,,,false,,,,328723,328723,,328722,,328728.28,8,400,,,
break_continue,html.Screen,4_59_2,2023-09-08T18:48:54.029Z,,0,,,NaN,,,,,,false,,,,328723,328723,,328723,,328728.28,8,400,,,
sequence,flow.Sequence,4_59,2023-09-08T18:48:54.030Z,,0,,,5342.719999999972,completion,,,,,false,,,,328723,328723,323373.5,323374,323380.28,328728.28,8,400,,,
trial,html.Screen,4_60_0,2023-09-08T18:48:58.184Z,,0,2,,4149.719999999972,response,ISIC_0010900.JPG,1,ISIC_0001110.JPG,ISIC_0010900.JPG,false,1,keypress(m),500,332878,332878,328722.5,328724,328728.28,332894.28,8,400,11,,ISIC_0001110.JPG
break,html.Screen,4_60_1,2023-09-08T18:48:58.185Z,,0,,,NaN,,,,,,false,,,,332879,332879,,332879,,332894.28,8,400,,,
break_continue,html.Screen,4_60_2,2023-09-08T18:48:58.185Z,,0,,,NaN,,,,,,false,,,,332879,332879,,332879,,332894.28,8,400,,,
sequence,flow.Sequence,4_60,2023-09-08T18:48:58.185Z,,0,,,4150.719999999972,completion,,,,,false,,,,332879,332879,328722.5,328723,328728.28,332894.28,8,400,,,
trial,html.Screen,4_61_0,2023-09-08T18:49:01.398Z,,0,2,,3197.719999999972,response,ISIC_0032161.JPG,5,ISIC_3923443.JPG,ISIC_3923443.JPG,false,0,keypress(z),500,336092,336092,332878.38,332879,332894.28,336093.28,8,400,12,,ISIC_0032161.JPG
break,html.Screen,4_61_1,2023-09-08T18:49:01.398Z,,0,,,NaN,,,,,,false,,,,336093,336093,,336092,,336093.28,8,400,,,
break_continue,html.Screen,4_61_2,2023-09-08T18:49:01.399Z,,0,,,NaN,,,,,,false,,,,336093,336093,,336093,,336093.28,8,400,,,
sequence,flow.Sequence,4_61,2023-09-08T18:49:01.399Z,,0,,,3198.719999999972,completion,,,,,false,,,,336093,336093,332878.38,332879,332894.28,336093.28,8,400,,,
trial,html.Screen,4_62_0,2023-09-08T18:49:06.315Z,,0,2,,4915.719999999972,response,ISIC_5616806.JPG,4,ISIC_2850215.JPG,ISIC_5616806.JPG,false,1,keypress(m),500,341010,341009,336092.44,336093,336093.28,341024.28,8,400,13,,ISIC_2850215.JPG
break,html.Screen,4_62_1,2023-09-08T18:49:06.316Z,,0,,,NaN,,,,,,false,,,,341010,341010,,341010,,341024.28,8,400,,,
break_continue,html.Screen,4_62_2,2023-09-08T18:49:06.316Z,,0,,,NaN,,,,,,false,,,,341010,341010,,341010,,341024.28,8,400,,,
sequence,flow.Sequence,4_62,2023-09-08T18:49:06.316Z,,0,,,4916.719999999972,completion,,,,,false,,,,341011,341010,336092.44,336093,336093.28,341024.28,8,400,,,
trial,html.Screen,4_63_0,2023-09-08T18:49:13.173Z,,0,2,,6842.719999999972,response,ISIC_0016013.JPG,8,ISIC_0004996.JPG,ISIC_0004996.JPG,false,0,keypress(z),500,347868,347867,341009.46,341011,341024.28,347872.28,8,400,14,,ISIC_0016013.JPG
break,html.Screen,4_63_1,2023-09-08T18:49:13.174Z,,0,,,NaN,,,,,,false,,,,347868,347868,,347868,,347872.28,8,400,,,
break_continue,html.Screen,4_63_2,2023-09-08T18:49:13.174Z,,0,,,NaN,,,,,,false,,,,347869,347869,,347868,,347872.28,8,400,,,
sequence,flow.Sequence,4_63,2023-09-08T18:49:13.174Z,,0,,,6844.719999999972,completion,,,,,false,,,,347869,347869,341009.46,341011,341024.28,347872.28,8,400,,,
trial,html.Screen,4_64_0,2023-09-08T18:49:16.772Z,,0,2,,3594.719999999972,response,ISIC_0032682.JPG,4,ISIC_0030122.JPG,ISIC_0030122.JPG,false,0,keypress(z),500,351467,351467,347867.82,347869,347872.28,351471.28,8,400,15,,ISIC_0032682.JPG
break,html.Screen,4_64_1,2023-09-08T18:49:16.773Z,,0,,,NaN,,,,,,false,,,,351467,351467,,351467,,351471.28,8,400,,,
break_continue,html.Screen,4_64_2,2023-09-08T18:49:16.773Z,,0,,,NaN,,,,,,false,,,,351468,351468,,351468,,351471.28,8,400,,,
sequence,flow.Sequence,4_64,2023-09-08T18:49:16.773Z,,0,,,3595.719999999972,completion,,,,,false,,,,351468,351468,347867.82,347869,347872.28,351471.28,8,400,,,
trial,html.Screen,4_65_0,2023-09-08T18:49:20.087Z,,0,2,,3310.719999999972,response,ISIC_0025900.JPG,2,ISIC_8048668.JPG,ISIC_8048668.JPG,false,0,keypress(z),500,354782,354782,351466.74,351468,351471.28,354787.28,8,400,16,,ISIC_0025900.JPG
break,html.Screen,4_65_1,2023-09-08T18:49:20.088Z,,0,,,NaN,,,,,,false,,,,354782,354782,,354782,,354787.28,8,400,,,
break_continue,html.Screen,4_65_2,2023-09-08T18:49:20.088Z,,0,,,NaN,,,,,,false,,,,354782,354782,,354782,,354787.28,8,400,,,
sequence,flow.Sequence,4_65,2023-09-08T18:49:20.088Z,,0,,,3310.719999999972,completion,,,,,false,,,,354783,354782,351466.74,351468,351471.28,354787.28,8,400,,,
trial,html.Screen,4_66_0,2023-09-08T18:49:25.165Z,,0,2,,5071.719999999972,response,ISIC_6674653.JPG,3,ISIC_5810196.JPG,ISIC_6674653.JPG,false,1,keypress(m),500,359859,359859,354781.88,354783,354787.28,359869.28,8,400,17,,ISIC_5810196.JPG
break,html.Screen,4_66_1,2023-09-08T18:49:25.166Z,,0,,,NaN,,,,,,false,,,,359860,359860,,359860,,359869.28,8,400,,,
break_continue,html.Screen,4_66_2,2023-09-08T18:49:25.167Z,,0,,,NaN,,,,,,false,,,,359861,359861,,359860,,359869.28,8,400,,,
sequence,flow.Sequence,4_66,2023-09-08T18:49:25.167Z,,0,,,5073.719999999972,completion,,,,,false,,,,359861,359861,354781.88,354783,354787.28,359869.28,8,400,,,
trial,html.Screen,4_67_0,2023-09-08T18:49:29.181Z,,0,2,,4006.719999999972,response,ISIC_2822622.JPG,3,ISIC_0071135.JPG,ISIC_2822622.JPG,false,1,keypress(m),500,363876,363876,359860,359861,359869.28,363884.28,8,400,18,,ISIC_0071135.JPG
break,html.Screen,4_67_1,2023-09-08T18:49:29.182Z,,0,,,NaN,,,,,,false,,,,363876,363876,,363876,,363884.28,8,400,,,
break_continue,html.Screen,4_67_2,2023-09-08T18:49:29.182Z,,0,,,NaN,,,,,,false,,,,363876,363876,,363876,,363884.28,8,400,,,
sequence,flow.Sequence,4_67,2023-09-08T18:49:29.182Z,,0,,,4006.719999999972,completion,,,,,false,,,,363877,363876,359860,359861,359869.28,363884.28,8,400,,,
trial,html.Screen,4_68_0,2023-09-08T18:49:34.779Z,,0,2,,5588.719999999972,response,ISIC_0056440.JPG,4,ISIC_0032190.JPG,ISIC_0056440.JPG,false,1,keypress(m),500,369474,369473,363875.86,363877,363884.28,369483.28,8,400,19,,ISIC_0032190.JPG
break,html.Screen,4_68_1,2023-09-08T18:49:34.780Z,,0,,,NaN,,,,,,false,,,,369475,369475,,369475,,369483.28,8,400,,,
break_continue,html.Screen,4_68_2,2023-09-08T18:49:34.780Z,,0,,,NaN,,,,,,false,,,,369475,369475,,369475,,369483.28,8,400,,,
sequence,flow.Sequence,4_68,2023-09-08T18:49:34.780Z,,0,,,5590.719999999972,completion,,,,,false,,,,369475,369475,363875.86,363877,363884.28,369483.28,8,400,,,
trial,html.Screen,4_69_0,2023-09-08T18:49:38.991Z,,0,2,,4202.719999999972,response,ISIC_4013189.JPG,3,ISIC_1744817.JPG,ISIC_4013189.JPG,false,1,keypress(m),500,373686,373686,369474.22,369476,369483.28,373698.28,8,400,20,,ISIC_1744817.JPG
break,html.Screen,4_69_1,2023-09-08T18:49:38.992Z,,0,,,NaN,,,,,,false,,,,373686,373686,,373686,,373698.28,8,400,,,
break_continue,html.Screen,4_69_2,2023-09-08T18:49:38.992Z,,0,,,NaN,,,,,,false,,,,373686,373686,,373686,,373698.28,8,400,,,
sequence,flow.Sequence,4_69,2023-09-08T18:49:38.992Z,,0,,,4202.719999999972,completion,,,,,false,,,,373686,373686,369474.22,369475,369483.28,373698.28,8,400,,,
trial,html.Screen,4_70_0,2023-09-08T18:49:44.231Z,,0,2,,5226.719999999972,response,ISIC_2680588.JPG,4,ISIC_8297563.JPG,ISIC_8297563.JPG,false,0,keypress(z),500,378925,378925,373685.56,373686,373698.28,378930.28,8,400,21,,ISIC_2680588.JPG
break,html.Screen,4_70_1,2023-09-08T18:49:44.231Z,,0,,,NaN,,,,,,false,,,,378925,378925,,378925,,378930.28,8,400,,,
break_continue,html.Screen,4_70_2,2023-09-08T18:49:44.232Z,,0,,,NaN,,,,,,false,,,,378926,378926,,378926,,378930.28,8,400,,,
sequence,flow.Sequence,4_70,2023-09-08T18:49:44.232Z,,0,,,5227.719999999972,completion,,,,,false,,,,378926,378926,373685.56,373686,373698.28,378930.28,8,400,,,
trial,html.Screen,4_71_0,2023-09-08T18:49:47.133Z,,0,2,,2896.719999999972,response,ISIC_0069193.JPG,3,ISIC_0001480.JPG,ISIC_0001480.JPG,false,0,keypress(z),500,381828,381827,378925.06,378926,378930.28,381829.28,8,400,22,,ISIC_0069193.JPG
break,html.Screen,4_71_1,2023-09-08T18:49:47.133Z,,0,,,NaN,,,,,,false,,,,381828,381828,,381828,,381829.28,8,400,,,
break_continue,html.Screen,4_71_2,2023-09-08T18:49:47.134Z,,0,,,NaN,,,,,,false,,,,381828,381828,,381828,,381829.28,8,400,,,
sequence,flow.Sequence,4_71,2023-09-08T18:49:47.134Z,,0,,,2897.719999999972,completion,,,,,false,,,,381829,381828,378925.06,378926,378930.28,381829.28,8,400,,,
trial,html.Screen,4_72_0,2023-09-08T18:49:50.306Z,,0,2,,3170.719999999972,response,ISIC_0005291.JPG,4,ISIC_0162967.JPG,ISIC_0005291.JPG,false,1,keypress(m),500,385000,385000,381827.36,381829,381829.28,385011.28,8,400,23,,ISIC_0162967.JPG
break,html.Screen,4_72_1,2023-09-08T18:49:50.307Z,,0,,,NaN,,,,,,false,,,,385001,385001,,385001,,385011.28,8,400,,,
break_continue,html.Screen,4_72_2,2023-09-08T18:49:50.307Z,,0,,,NaN,,,,,,false,,,,385001,385001,,385001,,385011.28,8,400,,,
sequence,flow.Sequence,4_72,2023-09-08T18:49:50.307Z,,0,,,3171.719999999972,completion,,,,,false,,,,385001,385001,381827.36,381829,381829.28,385011.28,8,400,,,
trial,html.Screen,4_73_0,2023-09-08T18:49:53.550Z,,0,2,,3232.719999999972,response,ISIC_0059330.JPG,3,ISIC_1745182.JPG,ISIC_1745182.JPG,false,0,keypress(z),500,388244,388244,385000.94,385002,385011.28,388260.28,8,400,24,,ISIC_0059330.JPG
break,html.Screen,4_73_1,2023-09-08T18:49:53.551Z,,0,,,NaN,,,,,,false,,,,388245,388245,,388245,,388260.28,8,400,,,
break_continue,html.Screen,4_73_2,2023-09-08T18:49:53.551Z,,0,,,NaN,,,,,,false,,,,388245,388245,,388245,,388260.28,8,400,,,
sequence,flow.Sequence,4_73,2023-09-08T18:49:53.551Z,,0,,,3233.719999999972,completion,,,,,false,,,,388245,388245,385000.94,385002,385011.28,388260.28,8,400,,,
trial,html.Screen,4_74_0,2023-09-08T18:49:57.140Z,,0,2,,3573.719999999972,response,ISIC_5821293.JPG,4,ISIC_0060707.JPG,ISIC_5821293.JPG,false,1,keypress(m),500,391834,391834,388244.78,388245,388260.28,391843.28,8,400,25,,ISIC_0060707.JPG
break,html.Screen,4_74_1,2023-09-08T18:49:57.141Z,,0,,,NaN,,,,,,false,,,,391835,391835,,391835,,391843.28,8,400,,,
break_continue,html.Screen,4_74_2,2023-09-08T18:49:57.141Z,,0,,,NaN,,,,,,false,,,,391835,391835,,391835,,391843.28,8,400,,,
sequence,flow.Sequence,4_74,2023-09-08T18:49:57.141Z,,0,,,3574.719999999972,completion,,,,,false,,,,391835,391835,388244.78,388245,388260.28,391843.28,8,400,,,
trial,html.Screen,4_75_0,2023-09-08T18:49:59.956Z,,0,2,,2806.719999999972,response,ISIC_0069986.JPG,2,ISIC_4837536.JPG,ISIC_4837536.JPG,false,0,keypress(z),500,394650,394650,391834.68,391835,391843.28,394658.28,8,400,26,,ISIC_0069986.JPG
break,html.Screen,4_75_1,2023-09-08T18:49:59.957Z,,0,,,NaN,,,,,,false,,,,394651,394650,,394650,,394658.28,8,400,,,
break_continue,html.Screen,4_75_2,2023-09-08T18:49:59.957Z,,0,,,NaN,,,,,,false,,,,394651,394651,,394651,,394658.28,8,400,,,
sequence,flow.Sequence,4_75,2023-09-08T18:49:59.957Z,,0,,,2807.719999999972,completion,,,,,false,,,,394651,394651,391834.68,391835,391843.28,394658.28,8,400,,,
trial,html.Screen,4_76_0,2023-09-08T18:50:02.803Z,,0,2,,2839.719999999972,response,ISIC_9723646.JPG,3,ISIC_0064247.JPG,ISIC_9723646.JPG,false,1,keypress(m),500,397498,397498,394650.34,394651,394658.28,397507.28,8,400,27,,ISIC_0064247.JPG
break,html.Screen,4_76_1,2023-09-08T18:50:02.804Z,,0,,,NaN,,,,,,false,,,,397498,397498,,397498,,397507.28,8,400,,,
break_continue,html.Screen,4_76_2,2023-09-08T18:50:02.804Z,,0,,,NaN,,,,,,false,,,,397499,397499,,397498,,397507.28,8,400,,,
sequence,flow.Sequence,4_76,2023-09-08T18:50:02.804Z,,0,,,2840.719999999972,completion,,,,,false,,,,397499,397499,394650.34,394651,394658.28,397507.28,8,400,,,
trial,html.Screen,4_77_0,2023-09-08T18:50:06.845Z,,0,2,,4031.719999999972,response,ISIC_1453899.JPG,3,ISIC_0060978.JPG,ISIC_1453899.JPG,false,1,keypress(m),500,401539,401539,397498.02,397499,397507.28,401540.28,8,400,28,,ISIC_0060978.JPG
break,html.Screen,4_77_1,2023-09-08T18:50:06.845Z,,0,,,NaN,,,,,,false,,,,401540,401540,,401539,,401540.28,8,400,,,
break_continue,html.Screen,4_77_2,2023-09-08T18:50:06.845Z,,0,,,NaN,,,,,,false,,,,401540,401540,,401540,,401540.28,8,400,,,
sequence,flow.Sequence,4_77,2023-09-08T18:50:06.845Z,,0,,,4032.719999999972,completion,,,,,false,,,,401540,401540,397498.02,397499,397507.28,401540.28,8,400,,,
trial,html.Screen,4_78_0,2023-09-08T18:50:10.042Z,,0,2,,3196.719999999972,response,ISIC_0011848.JPG,4,ISIC_8892236.JPG,ISIC_8892236.JPG,false,0,keypress(z),500,404737,404737,401539.22,401540,401540.28,404739.28,8,400,29,,ISIC_0011848.JPG
break,html.Screen,4_78_1,2023-09-08T18:50:10.043Z,,0,,,NaN,,,,,,false,,,,404737,404737,,404737,,404739.28,8,400,,,
break_continue,html.Screen,4_78_2,2023-09-08T18:50:10.043Z,,0,,,NaN,,,,,,false,,,,404737,404737,,404737,,404739.28,8,400,,,
sequence,flow.Sequence,4_78,2023-09-08T18:50:10.044Z,,0,,,3196.719999999972,completion,,,,,false,,,,404738,404737,401539.22,401540,401540.28,404739.28,8,400,,,
trial,html.Screen,4_79_0,2023-09-08T18:50:13.799Z,,0,2,,3753.719999999972,response,ISIC_7787118.JPG,3,ISIC_0156642.JPG,ISIC_0156642.JPG,false,0,keypress(z),500,408493,408493,404737.24,404739,404739.28,408504.28,8,400,30,,ISIC_7787118.JPG
break,html.Screen,4_79_1,2023-09-08T18:50:13.799Z,,0,,,NaN,,,,,,false,,,,408494,408494,,408493,,408504.28,8,400,,,
break_continue,html.Screen,4_79_2,2023-09-08T18:50:13.799Z,,0,,,NaN,,,,,,false,,,,408494,408494,,408494,,408504.28,8,400,,,
sequence,flow.Sequence,4_79,2023-09-08T18:50:13.799Z,,0,,,3754.719999999972,completion,,,,,false,,,,408494,408494,404737.24,404739,404739.28,408504.28,8,400,,,
trial,html.Screen,4_80_0,2023-09-08T18:50:16.520Z,,0,2,,2709.719999999972,response,ISIC_4980656.JPG,4,ISIC_5961092.JPG,ISIC_5961092.JPG,false,0,keypress(z),500,411214,411214,408493.2,408494,408504.28,411220.28,8,400,31,,ISIC_4980656.JPG
break,html.Screen,4_80_1,2023-09-08T18:50:16.520Z,,0,,,NaN,,,,,,false,,,,411215,411215,,411214,,411220.28,8,400,,,
break_continue,html.Screen,4_80_2,2023-09-08T18:50:16.520Z,,0,,,NaN,,,,,,false,,,,411215,411215,,411215,,411220.28,8,400,,,
sequence,flow.Sequence,4_80,2023-09-08T18:50:16.521Z,,0,,,2710.719999999972,completion,,,,,false,,,,411215,411215,408493.2,408494,408504.28,411220.28,8,400,,,
trial,html.Screen,4_81_0,2023-09-08T18:50:19.618Z,,0,2,,3091.719999999972,response,ISIC_0012047.JPG,2,ISIC_8244535.JPG,ISIC_8244535.JPG,false,0,keypress(z),500,414312,414312,411213.96,411215,411220.28,414319.28,8,400,32,,ISIC_0012047.JPG
break,html.Screen,4_81_1,2023-09-08T18:50:19.618Z,,0,,,NaN,,,,,,false,,,,414313,414313,,414312,,414319.28,8,400,,,
break_continue,html.Screen,4_81_2,2023-09-08T18:50:19.619Z,,0,,,NaN,,,,,,false,,,,414313,414313,,414313,,414319.28,8,400,,,
sequence,flow.Sequence,4_81,2023-09-08T18:50:19.619Z,,0,,,3092.719999999972,completion,,,,,false,,,,414313,414313,411213.96,411215,411220.28,414319.28,8,400,,,
trial,html.Screen,4_82_0,2023-09-08T18:50:24.987Z,,0,2,,5362.719999999972,response,ISIC_2563568.JPG,2,ISIC_0028320.JPG,ISIC_0028320.JPG,false,0,keypress(z),500,419682,419682,414312.7,414313,414319.28,419684.28,8,400,33,,ISIC_2563568.JPG
break,html.Screen,4_82_1,2023-09-08T18:50:24.988Z,,0,,,NaN,,,,,,false,,,,419683,419683,,419682,,419684.28,8,400,,,
break_continue,html.Screen,4_82_2,2023-09-08T18:50:24.988Z,,0,,,NaN,,,,,,false,,,,419683,419683,,419683,,419684.28,8,400,,,
sequence,flow.Sequence,4_82,2023-09-08T18:50:24.988Z,,0,,,5363.719999999972,completion,,,,,false,,,,419683,419683,414312.7,414313,414319.28,419684.28,8,400,,,
trial,html.Screen,4_83_0,2023-09-08T18:50:29.299Z,,0,2,,4308.719999999972,response,ISIC_9667908.JPG,4,ISIC_8579575.JPG,ISIC_8579575.JPG,false,0,keypress(z),500,423994,423993,419681.92,419683,419684.28,424000.28,8,400,34,,ISIC_9667908.JPG
break,html.Screen,4_83_1,2023-09-08T18:50:29.300Z,,0,,,NaN,,,,,,false,,,,423994,423994,,423994,,424000.28,8,400,,,
break_continue,html.Screen,4_83_2,2023-09-08T18:50:29.300Z,,0,,,NaN,,,,,,false,,,,423994,423994,,423994,,424000.28,8,400,,,
sequence,flow.Sequence,4_83,2023-09-08T18:50:29.300Z,,0,,,4309.719999999972,completion,,,,,false,,,,423994,423994,419681.92,419683,419684.28,424000.28,8,400,,,
trial,html.Screen,4_84_0,2023-09-08T18:50:32.412Z,,0,2,,3105.719999999972,response,ISIC_3295750.JPG,2,ISIC_0028082.JPG,ISIC_3295750.JPG,false,1,keypress(m),500,427106,427106,423993.96,423994,424000.28,427115.28,8,400,35,,ISIC_0028082.JPG
break,html.Screen,4_84_1,2023-09-08T18:50:32.413Z,,0,,,NaN,,,,,,false,,,,427107,427107,,427107,,427115.28,8,400,,,
break_continue,html.Screen,4_84_2,2023-09-08T18:50:32.413Z,,0,,,NaN,,,,,,false,,,,427107,427107,,427107,,427115.28,8,400,,,
sequence,flow.Sequence,4_84,2023-09-08T18:50:32.413Z,,0,,,3106.719999999972,completion,,,,,false,,,,427107,427107,423993.96,423994,424000.28,427115.28,8,400,,,
trial,html.Screen,4_85_0,2023-09-08T18:50:36.673Z,,0,2,,4251.719999999972,response,ISIC_0053574.JPG,6,ISIC_3652884.JPG,ISIC_0053574.JPG,false,1,keypress(m),500,431367,431367,427106.74,427107,427115.28,431381.28,8,400,36,,ISIC_3652884.JPG
break,html.Screen,4_85_1,2023-09-08T18:50:36.674Z,,0,,,NaN,,,,,,false,,,,431368,431367,,431367,,431381.28,8,400,,,
break_continue,html.Screen,4_85_2,2023-09-08T18:50:36.674Z,,0,,,NaN,,,,,,false,,,,431368,431368,,431368,,431381.28,8,400,,,
sequence,flow.Sequence,4_85,2023-09-08T18:50:36.674Z,,0,,,4252.719999999972,completion,,,,,false,,,,431368,431368,427106.74,427107,427115.28,431381.28,8,400,,,
trial,html.Screen,4_86_0,2023-09-08T18:50:41.317Z,,0,2,,4629.719999999972,response,ISIC_6639094.JPG,4,ISIC_1224329.JPG,ISIC_1224329.JPG,false,0,keypress(z),500,436011,436011,431367.42,431368,431381.28,436013.28,8,400,37,,ISIC_6639094.JPG
break,html.Screen,4_86_1,2023-09-08T18:50:41.317Z,,0,,,NaN,,,,,,false,,,,436011,436011,,436011,,436013.28,8,400,,,
break_continue,html.Screen,4_86_2,2023-09-08T18:50:41.317Z,,0,,,NaN,,,,,,false,,,,436012,436012,,436012,,436013.28,8,400,,,
sequence,flow.Sequence,4_86,2023-09-08T18:50:41.317Z,,0,,,4630.719999999972,completion,,,,,false,,,,436012,436012,431367.42,431368,431381.28,436013.28,8,400,,,
trial,html.Screen,4_87_0,2023-09-08T18:50:44.936Z,,0,2,,3615.719999999972,response,ISIC_0010372.JPG,2,ISIC_0056260.JPG,ISIC_0056260.JPG,false,0,keypress(z),500,439629,439629,436010.84,436012,436013.28,439645.28,8,400,38,,ISIC_0010372.JPG
break,html.Screen,4_87_1,2023-09-08T18:50:44.936Z,,0,,,NaN,,,,,,false,,,,439630,439630,,439629,,439645.28,8,400,,,
break_continue,html.Screen,4_87_2,2023-09-08T18:50:44.937Z,,0,,,NaN,,,,,,false,,,,439630,439630,,439630,,439645.28,8,400,,,
sequence,flow.Sequence,4_87,2023-09-08T18:50:44.937Z,,0,,,3616.719999999972,completion,,,,,false,,,,439630,439630,436010.84,436012,436013.28,439645.28,8,400,,,
trial,html.Screen,4_88_0,2023-09-08T18:50:47.944Z,,0,2,,2992.719999999972,response,ISIC_0031741.JPG,3,ISIC_0032017.JPG,ISIC_0031741.JPG,false,1,keypress(m),500,442638,442638,439629.7,439630,439645.28,442644.28,8,400,39,,ISIC_0032017.JPG
break,html.Screen,4_88_1,2023-09-08T18:50:47.945Z,,0,,,NaN,,,,,,false,,,,442639,442639,,442639,,442644.28,8,400,,,
break_continue,html.Screen,4_88_2,2023-09-08T18:50:47.945Z,,0,,,NaN,,,,,,false,,,,442640,442639,,442639,,442644.28,8,400,,,
sequence,flow.Sequence,4_88,2023-09-08T18:50:47.946Z,,0,,,2993.719999999972,completion,,,,,false,,,,442640,442639,439629.7,439630,439645.28,442644.28,8,400,,,
trial,html.Screen,4_89_0,2023-09-08T18:50:53.216Z,,0,2,,5265.719999999972,response,ISIC_1515947.JPG,3,ISIC_9562442.JPG,ISIC_9562442.JPG,false,0,keypress(z),500,447910,447910,442638.28,442640,442644.28,447926.28,8,400,40,,ISIC_1515947.JPG
break,html.Screen,4_89_1,2023-09-08T18:50:53.217Z,,0,,,NaN,,,,,,false,,,,447911,447911,,447910,,447926.28,8,400,,,
break_continue,html.Screen,4_89_2,2023-09-08T18:50:53.217Z,,0,,,NaN,,,,,,false,,,,447911,447911,,447911,,447926.28,8,400,,,
sequence,flow.Sequence,4_89,2023-09-08T18:50:53.217Z,,0,,,5266.719999999972,completion,,,,,false,,,,447911,447911,442638.28,442640,442644.28,447926.28,8,400,,,
trial,html.Screen,4_90_0,2023-09-08T18:50:57.734Z,,0,2,,4501.719999999972,response,ISIC_0000310.JPG,3,ISIC_8796632.JPG,ISIC_8796632.JPG,false,0,keypress(z),500,452429,452428,447910.42,447911,447926.28,452441.28,8,400,41,,ISIC_0000310.JPG
break,html.Screen,4_90_1,2023-09-08T18:50:57.735Z,,0,,,NaN,,,,,,false,,,,452429,452429,,452429,,452441.28,8,400,,,
break_continue,html.Screen,4_90_2,2023-09-08T18:50:57.735Z,,0,,,NaN,,,,,,false,,,,452430,452430,,452429,,452441.28,8,400,,,
sequence,flow.Sequence,4_90,2023-09-08T18:50:57.735Z,,0,,,4503.719999999972,completion,,,,,false,,,,452430,452430,447910.42,447911,447926.28,452441.28,8,400,,,
trial,html.Screen,4_91_0,2023-09-08T18:51:00.807Z,,0,2,,3059.719999999972,response,ISIC_0031417.JPG,4,ISIC_0055776.JPG,ISIC_0031417.JPG,false,1,keypress(m),500,455501,455501,452428.52,452430,452441.28,455507.28,8,400,42,,ISIC_0055776.JPG
break,html.Screen,4_91_1,2023-09-08T18:51:00.808Z,,0,,,NaN,,,,,,false,,,,455502,455502,,455502,,455507.28,8,400,,,
break_continue,html.Screen,4_91_2,2023-09-08T18:51:00.808Z,,0,,,NaN,,,,,,false,,,,455502,455502,,455502,,455507.28,8,400,,,
sequence,flow.Sequence,4_91,2023-09-08T18:51:00.808Z,,0,,,3060.719999999972,completion,,,,,false,,,,455502,455502,452428.52,452430,452441.28,455507.28,8,400,,,
trial,html.Screen,4_92_0,2023-09-08T18:51:03.915Z,,0,2,,3101.719999999972,response,ISIC_4765919.JPG,3,ISIC_0510617.JPG,ISIC_0510617.JPG,false,0,keypress(z),500,458610,458609,455502,455502,455507.28,458622.28,8,400,43,,ISIC_4765919.JPG
break,html.Screen,4_92_1,2023-09-08T18:51:03.916Z,,0,,,NaN,,,,,,false,,,,458610,458610,,458610,,458622.28,8,400,,,
break_continue,html.Screen,4_92_2,2023-09-08T18:51:03.916Z,,0,,,NaN,,,,,,false,,,,458610,458610,,458610,,458622.28,8,400,,,
sequence,flow.Sequence,4_92,2023-09-08T18:51:03.917Z,,0,,,3102.719999999972,completion,,,,,false,,,,458611,458610,455502,455502,455507.28,458622.28,8,400,,,
trial,html.Screen,4_93_0,2023-09-08T18:51:07.280Z,,0,2,,3351.719999999972,response,ISIC_7948290.JPG,3,ISIC_3065032.JPG,ISIC_3065032.JPG,false,0,keypress(z),500,461974,461974,458609.52,458611,458622.28,461988.28,8,400,44,,ISIC_7948290.JPG
break,html.Screen,4_93_1,2023-09-08T18:51:07.280Z,,0,,,NaN,,,,,,false,,,,461975,461975,,461974,,461988.28,8,400,,,
break_continue,html.Screen,4_93_2,2023-09-08T18:51:07.281Z,,0,,,NaN,,,,,,false,,,,461975,461975,,461975,,461988.28,8,400,,,
sequence,flow.Sequence,4_93,2023-09-08T18:51:07.281Z,,0,,,3352.719999999972,completion,,,,,false,,,,461975,461975,458609.52,458611,458622.28,461988.28,8,400,,,
trial,html.Screen,4_94_0,2023-09-08T18:51:11.014Z,,0,2,,3719.719999999972,response,ISIC_0032939.JPG,2,ISIC_1794249.JPG,ISIC_1794249.JPG,false,0,keypress(z),500,465709,465708,461974.28,461975,461988.28,465720.28,8,400,45,,ISIC_0032939.JPG
break,html.Screen,4_94_1,2023-09-08T18:51:11.015Z,,0,,,NaN,,,,,,false,,,,465709,465709,,465709,,465720.28,8,400,,,
break_continue,html.Screen,4_94_2,2023-09-08T18:51:11.016Z,,0,,,NaN,,,,,,false,,,,465711,465711,,465711,,465720.28,8,400,,,
sequence,flow.Sequence,4_94,2023-09-08T18:51:11.016Z,,0,,,3722.719999999972,completion,,,,,false,,,,465711,465711,461974.28,461975,461988.28,465720.28,8,400,,,
trial,html.Screen,4_95_0,2023-09-08T18:51:14.504Z,,0,2,,3476.719999999972,response,ISIC_7800706.JPG,2,ISIC_0058408.JPG,ISIC_7800706.JPG,false,1,keypress(m),500,469198,469197,465709.34,465711,465720.28,469203.28,8,400,46,,ISIC_0058408.JPG
break,html.Screen,4_95_1,2023-09-08T18:51:14.504Z,,0,,,NaN,,,,,,false,,,,469198,469198,,469198,,469203.28,8,400,,,
break_continue,html.Screen,4_95_2,2023-09-08T18:51:14.504Z,,0,,,NaN,,,,,,false,,,,469198,469198,,469198,,469203.28,8,400,,,
sequence,flow.Sequence,4_95,2023-09-08T18:51:14.505Z,,0,,,3477.719999999972,completion,,,,,false,,,,469198,469198,465709.34,465711,465720.28,469203.28,8,400,,,
trial,html.Screen,4_96_0,2023-09-08T18:51:17.917Z,,0,2,,3408.719999999972,response,ISIC_0010809.JPG,4,ISIC_5854552.JPG,ISIC_5854552.JPG,false,0,keypress(z),500,472612,472612,469197.72,469199,469203.28,472618.28,8,400,47,,ISIC_0010809.JPG
break,html.Screen,4_96_1,2023-09-08T18:51:17.917Z,,0,,,NaN,,,,,,false,,,,472612,472612,,472612,,472618.28,8,400,,,
break_continue,html.Screen,4_96_2,2023-09-08T18:51:17.917Z,,0,,,NaN,,,,,,false,,,,472612,472612,,472612,,472618.28,8,400,,,
sequence,flow.Sequence,4_96,2023-09-08T18:51:17.917Z,,0,,,3408.719999999972,completion,,,,,false,,,,472612,472612,469197.72,469199,469203.28,472618.28,8,400,,,
trial,html.Screen,4_97_0,2023-09-08T18:51:22.364Z,,0,2,,4439.719999999972,response,ISIC_0030913.JPG,3,ISIC_2095347.JPG,ISIC_0030913.JPG,false,1,keypress(m),500,477058,477058,472611.42,472612,472618.28,477067.28,8,400,48,,ISIC_2095347.JPG
break,html.Screen,4_97_1,2023-09-08T18:51:22.365Z,,0,,,NaN,,,,,,false,,,,477059,477059,,477059,,477067.28,8,400,,,
break_continue,html.Screen,4_97_2,2023-09-08T18:51:22.365Z,,0,,,NaN,,,,,,false,,,,477060,477060,,477060,,477067.28,8,400,,,
sequence,flow.Sequence,4_97,2023-09-08T18:51:22.365Z,,0,,,4441.719999999972,completion,,,,,false,,,,477060,477060,472611.42,472612,472618.28,477067.28,8,400,,,
trial,html.Screen,4_98_0,2023-09-08T18:51:25.622Z,,0,2,,3248.719999999972,response,ISIC_3009493.JPG,4,ISIC_9829436.JPG,ISIC_9829436.JPG,false,0,keypress(z),500,480316,480316,477058.54,477060,477067.28,480333.28,8,400,49,,ISIC_3009493.JPG
break,html.Screen,4_98_1,2023-09-08T18:51:25.623Z,,0,,,NaN,,,,,,false,,,,480317,480317,,480317,,480333.28,8,400,,,
break_continue,html.Screen,4_98_2,2023-09-08T18:51:25.623Z,,0,,,NaN,,,,,,false,,,,480317,480317,,480317,,480333.28,8,400,,,
sequence,flow.Sequence,4_98,2023-09-08T18:51:25.624Z,,0,,,3249.719999999972,completion,,,,,false,,,,480318,480317,477058.54,477060,477067.28,480333.28,8,400,,,
trial,html.Screen,4_99_0,2023-09-08T18:51:29.032Z,,0,2,,3392.719999999972,response,ISIC_4397068.JPG,3,ISIC_7788814.JPG,ISIC_4397068.JPG,false,1,keypress(m),500,483726,483726,480316.74,480318,480333.28,483732.28,8,400,50,,ISIC_7788814.JPG
break,html.Screen,4_99_1,2023-09-08T18:51:39.020Z,,0,,,9997,timeout,,,,,false,,,,493714,493712.28,483725.9,483726,483732.28,493729.28,8,400,,,
break_continue,html.Screen,4_99_2,2023-09-08T18:51:41.112Z,,0,,,2067.719999999972,response,,,,,false,continue,keypress(Space),,495807,495797,493712.28,493714,493729.28,495811.28,8,400,,,
sequence,flow.Sequence,4_99,2023-09-08T18:51:41.112Z,,0,,,15463.719999999972,completion,,,,,false,,,,495807,495797,480316.74,480318,480333.28,495811.28,8,400,,,
trial,html.Screen,4_100_0,2023-09-08T18:51:44.704Z,,0,3,,3585.719999999972,response,ISIC_4141315.JPG,2,ISIC_7662993.JPG,ISIC_4141315.JPG,false,1,keypress(m),500,499397,499397,495806.82,495807,495811.28,499410.28,8,400,1,,ISIC_7662993.JPG
break,html.Screen,4_100_1,2023-09-08T18:51:44.704Z,,0,,,NaN,,,,,,false,,,,499398,499398,,499397,,499410.28,8,400,,,
break_continue,html.Screen,4_100_2,2023-09-08T18:51:44.704Z,,0,,,NaN,,,,,,false,,,,499399,499398,,499398,,499410.28,8,400,,,
sequence,flow.Sequence,4_100,2023-09-08T18:51:44.704Z,,0,,,3586.719999999972,completion,,,,,false,,,,499399,499398,495806.82,495807,495811.28,499410.28,8,400,,,
trial,html.Screen,4_101_0,2023-09-08T18:51:48.383Z,,0,3,,3665.719999999972,response,ISIC_0008510.JPG,4,ISIC_0014919.JPG,ISIC_0014919.JPG,false,0,keypress(z),500,503077,503076,499397.84,499399,499410.28,503093.28,8,400,2,,ISIC_0008510.JPG
break,html.Screen,4_101_1,2023-09-08T18:51:48.384Z,,0,,,NaN,,,,,,false,,,,503077,503077,,503077,,503093.28,8,400,,,
break_continue,html.Screen,4_101_2,2023-09-08T18:51:48.384Z,,0,,,NaN,,,,,,false,,,,503078,503078,,503078,,503093.28,8,400,,,
sequence,flow.Sequence,4_101,2023-09-08T18:51:48.384Z,,0,,,3667.719999999972,completion,,,,,false,,,,503078,503078,499397.84,499399,499410.28,503093.28,8,400,,,
trial,html.Screen,4_102_0,2023-09-08T18:51:51.379Z,,0,3,,2980.719999999972,response,ISIC_0033977.JPG,3,ISIC_0032140.JPG,ISIC_0032140.JPG,false,0,keypress(z),500,506074,506074,503077.2,503078,503093.28,506075.28,8,400,3,,ISIC_0033977.JPG
break,html.Screen,4_102_1,2023-09-08T18:51:51.380Z,,0,,,NaN,,,,,,false,,,,506074,506074,,506074,,506075.28,8,400,,,
break_continue,html.Screen,4_102_2,2023-09-08T18:51:51.380Z,,0,,,NaN,,,,,,false,,,,506075,506075,,506075,,506075.28,8,400,,,
sequence,flow.Sequence,4_102,2023-09-08T18:51:51.380Z,,0,,,2981.719999999972,completion,,,,,false,,,,506075,506075,503077.2,503078,503093.28,506075.28,8,400,,,
trial,html.Screen,4_103_0,2023-09-08T18:51:55.661Z,,0,3,,4279.719999999972,response,ISIC_2924968.JPG,12,ISIC_0063930.JPG,ISIC_2924968.JPG,false,1,keypress(m),500,510355,510355,506074.08,506075,506075.28,510357.28,8,400,4,,ISIC_0063930.JPG
break,html.Screen,4_103_1,2023-09-08T18:51:55.661Z,,0,,,NaN,,,,,,false,,,,510356,510356,,510355,,510357.28,8,400,,,
break_continue,html.Screen,4_103_2,2023-09-08T18:51:55.662Z,,0,,,NaN,,,,,,false,,,,510356,510356,,510356,,510357.28,8,400,,,
sequence,flow.Sequence,4_103,2023-09-08T18:51:55.662Z,,0,,,4280.719999999972,completion,,,,,false,,,,510356,510356,506074.08,506075,506075.28,510357.28,8,400,,,
trial,html.Screen,4_104_0,2023-09-08T18:52:00.174Z,,0,3,,4509.719999999972,response,ISIC_0031914.JPG,4,ISIC_8724944.JPG,ISIC_0031914.JPG,false,1,keypress(m),500,514867,514867,510355.52,510356,510357.28,514872.28,8,400,5,,ISIC_8724944.JPG
break,html.Screen,4_104_1,2023-09-08T18:52:00.174Z,,0,,,NaN,,,,,,false,,,,514869,514868,,514868,,514872.28,8,400,,,
break_continue,html.Screen,4_104_2,2023-09-08T18:52:00.175Z,,0,,,NaN,,,,,,false,,,,514869,514869,,514869,,514872.28,8,400,,,
sequence,flow.Sequence,4_104,2023-09-08T18:52:00.175Z,,0,,,4511.719999999972,completion,,,,,false,,,,514869,514869,510355.52,510356,510357.28,514872.28,8,400,,,
trial,html.Screen,4_105_0,2023-09-08T18:52:04.720Z,,0,3,,4542.719999999972,response,ISIC_1216698.JPG,6,ISIC_0439726.JPG,ISIC_0439726.JPG,false,0,keypress(z),500,519415,519415,514867.98,514869,514872.28,519421.28,8,400,6,,ISIC_1216698.JPG
break,html.Screen,4_105_1,2023-09-08T18:52:04.720Z,,0,,,NaN,,,,,,false,,,,519415,519415,,519415,,519421.28,8,400,,,
break_continue,html.Screen,4_105_2,2023-09-08T18:52:04.721Z,,0,,,NaN,,,,,,false,,,,519415,519415,,519415,,519421.28,8,400,,,
sequence,flow.Sequence,4_105,2023-09-08T18:52:04.721Z,,0,,,4542.719999999972,completion,,,,,false,,,,519416,519415,514867.98,514869,514872.28,519421.28,8,400,,,
trial,html.Screen,4_106_0,2023-09-08T18:52:09.929Z,,0,3,,5201.719999999972,response,ISIC_6633906.JPG,4,ISIC_0032583.JPG,ISIC_0032583.JPG,false,0,keypress(z),500,524623,524623,519414.78,519416,519421.28,524636.28,8,400,7,,ISIC_6633906.JPG
break,html.Screen,4_106_1,2023-09-08T18:52:09.929Z,,0,,,NaN,,,,,,false,,,,524624,524623,,524623,,524636.28,8,400,,,
break_continue,html.Screen,4_106_2,2023-09-08T18:52:09.930Z,,0,,,NaN,,,,,,false,,,,524624,524624,,524624,,524636.28,8,400,,,
sequence,flow.Sequence,4_106,2023-09-08T18:52:09.930Z,,0,,,5202.719999999972,completion,,,,,false,,,,524624,524624,519414.78,519416,519421.28,524636.28,8,400,,,
trial,html.Screen,4_107_0,2023-09-08T18:52:14.762Z,,0,3,,4818.719999999972,response,ISIC_4591316.JPG,3,ISIC_0059983.JPG,ISIC_0059983.JPG,false,0,keypress(z),500,529455,529455,524623.42,524624,524636.28,529468.28,8,400,8,,ISIC_4591316.JPG
break,html.Screen,4_107_1,2023-09-08T18:52:14.762Z,,0,,,NaN,,,,,,false,,,,529456,529456,,529455,,529468.28,8,400,,,
break_continue,html.Screen,4_107_2,2023-09-08T18:52:14.763Z,,0,,,NaN,,,,,,false,,,,529456,529456,,529456,,529468.28,8,400,,,
sequence,flow.Sequence,4_107,2023-09-08T18:52:14.763Z,,0,,,4819.719999999972,completion,,,,,false,,,,529457,529456,524623.42,524624,524636.28,529468.28,8,400,,,
trial,html.Screen,4_108_0,2023-09-08T18:52:20.888Z,,0,3,,6112.719999999972,response,ISIC_0070285.JPG,3,ISIC_3767325.JPG,ISIC_3767325.JPG,false,0,keypress(z),500,535581,535581,529455.82,529457,529468.28,535583.28,8,400,9,,ISIC_0070285.JPG
break,html.Screen,4_108_1,2023-09-08T18:52:20.888Z,,0,,,NaN,,,,,,false,,,,535582,535582,,535581,,535583.28,8,400,,,
break_continue,html.Screen,4_108_2,2023-09-08T18:52:20.889Z,,0,,,NaN,,,,,,false,,,,535582,535582,,535582,,535583.28,8,400,,,
sequence,flow.Sequence,4_108,2023-09-08T18:52:20.889Z,,0,,,6113.719999999972,completion,,,,,false,,,,535582,535582,529455.82,529457,529468.28,535583.28,8,400,,,
trial,html.Screen,4_109_0,2023-09-08T18:52:26.279Z,,0,3,,5389.719999999972,response,ISIC_6247668.JPG,3,ISIC_0012260.JPG,ISIC_0012260.JPG,false,0,keypress(z),500,540974,540973,535581.78,535582,535583.28,540981.28,8,400,10,,ISIC_6247668.JPG
break,html.Screen,4_109_1,2023-09-08T18:52:26.279Z,,0,,,NaN,,,,,,false,,,,540974,540974,,540974,,540981.28,8,400,,,
break_continue,html.Screen,4_109_2,2023-09-08T18:52:26.279Z,,0,,,NaN,,,,,,false,,,,540974,540974,,540974,,540981.28,8,400,,,
sequence,flow.Sequence,4_109,2023-09-08T18:52:26.279Z,,0,,,5390.719999999972,completion,,,,,false,,,,540974,540974,535581.78,535582,535583.28,540981.28,8,400,,,
trial,html.Screen,4_110_0,2023-09-08T18:52:31.314Z,,0,3,,5026.719999999972,response,ISIC_9125409.JPG,3,ISIC_3993510.JPG,ISIC_9125409.JPG,false,1,keypress(m),500,546009,546008,540973.38,540975,540981.28,546013.28,8,400,11,,ISIC_3993510.JPG
break,html.Screen,4_110_1,2023-09-08T18:52:31.315Z,,0,,,NaN,,,,,,false,,,,546009,546009,,546009,,546013.28,8,400,,,
break_continue,html.Screen,4_110_2,2023-09-08T18:52:31.315Z,,0,,,NaN,,,,,,false,,,,546009,546009,,546009,,546013.28,8,400,,,
sequence,flow.Sequence,4_110,2023-09-08T18:52:31.315Z,,0,,,5027.719999999972,completion,,,,,false,,,,546009,546009,540973.38,540975,540981.28,546013.28,8,400,,,
trial,html.Screen,4_111_0,2023-09-08T18:52:37.492Z,,0,3,,6171.719999999972,response,ISIC_0056092.JPG,3,ISIC_0025964.JPG,ISIC_0025964.JPG,false,0,keypress(z),500,552186,552185,546008.82,546010,546013.28,552195.28,8,400,12,,ISIC_0056092.JPG
break,html.Screen,4_111_1,2023-09-08T18:52:37.492Z,,0,,,NaN,,,,,,false,,,,552186,552186,,552186,,552195.28,8,400,,,
break_continue,html.Screen,4_111_2,2023-09-08T18:52:37.493Z,,0,,,NaN,,,,,,false,,,,552187,552187,,552186,,552195.28,8,400,,,
sequence,flow.Sequence,4_111,2023-09-08T18:52:37.493Z,,0,,,6173.719999999972,completion,,,,,false,,,,552187,552187,546008.82,546010,546013.28,552195.28,8,400,,,
trial,html.Screen,4_112_0,2023-09-08T18:52:41.773Z,,0,3,,4271.719999999972,response,ISIC_4879187.JPG,3,ISIC_9797578.JPG,ISIC_4879187.JPG,false,1,keypress(m),500,556467,556467,552185.82,552187,552195.28,556476.28,8,400,13,,ISIC_9797578.JPG
break,html.Screen,4_112_1,2023-09-08T18:52:41.773Z,,0,,,NaN,,,,,,false,,,,556468,556468,,556467,,556476.28,8,400,,,
break_continue,html.Screen,4_112_2,2023-09-08T18:52:41.773Z,,0,,,NaN,,,,,,false,,,,556468,556468,,556468,,556476.28,8,400,,,
sequence,flow.Sequence,4_112,2023-09-08T18:52:41.773Z,,0,,,4272.719999999972,completion,,,,,false,,,,556468,556468,552185.82,552187,552195.28,556476.28,8,400,,,
trial,html.Screen,4_113_0,2023-09-08T18:52:45.213Z,,0,3,,3430.719999999972,response,ISIC_7544537.JPG,3,ISIC_0011753.JPG,ISIC_7544537.JPG,false,1,keypress(m),500,559907,559907,556467.16,556468,556476.28,559909.28,8,400,14,,ISIC_0011753.JPG
break,html.Screen,4_113_1,2023-09-08T18:52:45.213Z,,0,,,NaN,,,,,,false,,,,559907,559907,,559907,,559909.28,8,400,,,
break_continue,html.Screen,4_113_2,2023-09-08T18:52:45.213Z,,0,,,NaN,,,,,,false,,,,559907,559907,,559907,,559909.28,8,400,,,
sequence,flow.Sequence,4_113,2023-09-08T18:52:45.214Z,,0,,,3430.719999999972,completion,,,,,false,,,,559907,559907,556467.16,556468,556476.28,559909.28,8,400,,,
trial,html.Screen,4_114_0,2023-09-08T18:52:50.701Z,,0,3,,5485.719999999972,response,ISIC_8414421.JPG,2,ISIC_0054974.JPG,ISIC_8414421.JPG,false,1,keypress(m),500,565396,565395,559906.98,559907,559909.28,565407.28,8,400,15,,ISIC_0054974.JPG
break,html.Screen,4_114_1,2023-09-08T18:52:50.702Z,,0,,,NaN,,,,,,false,,,,565396,565396,,565396,,565407.28,8,400,,,
break_continue,html.Screen,4_114_2,2023-09-08T18:52:50.702Z,,0,,,NaN,,,,,,false,,,,565396,565396,,565396,,565407.28,8,400,,,
sequence,flow.Sequence,4_114,2023-09-08T18:52:50.703Z,,0,,,5486.719999999972,completion,,,,,false,,,,565397,565396,559906.98,559907,559909.28,565407.28,8,400,,,
trial,html.Screen,4_115_0,2023-09-08T18:52:55.423Z,,0,3,,4709.719999999972,response,ISIC_5439597.JPG,3,ISIC_0201767.JPG,ISIC_5439597.JPG,false,1,keypress(m),500,570118,570117,565395.48,565397,565407.28,570122.28,8,400,16,,ISIC_0201767.JPG
break,html.Screen,4_115_1,2023-09-08T18:52:55.424Z,,0,,,NaN,,,,,,false,,,,570118,570118,,570118,,570122.28,8,400,,,
break_continue,html.Screen,4_115_2,2023-09-08T18:52:55.424Z,,0,,,NaN,,,,,,false,,,,570118,570118,,570118,,570122.28,8,400,,,
sequence,flow.Sequence,4_115,2023-09-08T18:52:55.424Z,,0,,,4710.719999999972,completion,,,,,false,,,,570119,570118,565395.48,565397,565407.28,570122.28,8,400,,,
trial,html.Screen,4_116_0,2023-09-08T18:52:58.381Z,,0,3,,2952.719999999972,response,ISIC_0057858.JPG,3,ISIC_2203239.JPG,ISIC_2203239.JPG,false,0,keypress(z),500,573075,573075,570117.38,570119,570122.28,573088.28,8,400,17,,ISIC_0057858.JPG
break,html.Screen,4_116_1,2023-09-08T18:52:58.382Z,,0,,,NaN,,,,,,false,,,,573076,573075,,573075,,573088.28,8,400,,,
break_continue,html.Screen,4_116_2,2023-09-08T18:52:58.382Z,,0,,,NaN,,,,,,false,,,,573076,573076,,573076,,573088.28,8,400,,,
sequence,flow.Sequence,4_116,2023-09-08T18:52:58.382Z,,0,,,2953.719999999972,completion,,,,,false,,,,573076,573076,570117.38,570119,570122.28,573088.28,8,400,,,
trial,html.Screen,4_117_0,2023-09-08T18:53:02.567Z,,0,3,,4173.719999999972,response,ISIC_7536704.JPG,3,ISIC_2092911.JPG,ISIC_2092911.JPG,false,0,keypress(z),500,577262,577262,573075.28,573076,573088.28,577270.28,8,400,18,,ISIC_7536704.JPG
break,html.Screen,4_117_1,2023-09-08T18:53:02.568Z,,0,,,NaN,,,,,,false,,,,577262,577262,,577262,,577270.28,8,400,,,
break_continue,html.Screen,4_117_2,2023-09-08T18:53:02.568Z,,0,,,NaN,,,,,,false,,,,577263,577262,,577262,,577270.28,8,400,,,
sequence,flow.Sequence,4_117,2023-09-08T18:53:02.568Z,,0,,,4173.719999999972,completion,,,,,false,,,,577263,577262,573075.28,573076,573088.28,577270.28,8,400,,,
trial,html.Screen,4_118_0,2023-09-08T18:53:07.656Z,,0,3,,5078.719999999972,response,ISIC_3825641.JPG,3,ISIC_0010768.JPG,ISIC_0010768.JPG,false,0,keypress(z),500,582349,582349,577261.66,577263,577270.28,582352.28,8,400,19,,ISIC_3825641.JPG
break,html.Screen,4_118_1,2023-09-08T18:53:07.656Z,,0,,,NaN,,,,,,false,,,,582350,582350,,582350,,582352.28,8,400,,,
break_continue,html.Screen,4_118_2,2023-09-08T18:53:07.656Z,,0,,,NaN,,,,,,false,,,,582350,582350,,582350,,582352.28,8,400,,,
sequence,flow.Sequence,4_118,2023-09-08T18:53:07.656Z,,0,,,5079.719999999972,completion,,,,,false,,,,582350,582350,577261.66,577263,577270.28,582352.28,8,400,,,
trial,html.Screen,4_119_0,2023-09-08T18:53:11.696Z,,0,3,,4037.719999999972,response,ISIC_0054651.JPG,2,ISIC_9021685.JPG,ISIC_9021685.JPG,false,0,keypress(z),500,586390,586390,582349.72,582351,582352.28,586401.28,8,400,20,,ISIC_0054651.JPG
break,html.Screen,4_119_1,2023-09-08T18:53:11.696Z,,0,,,NaN,,,,,,false,,,,586390,586390,,586390,,586401.28,8,400,,,
break_continue,html.Screen,4_119_2,2023-09-08T18:53:11.696Z,,0,,,NaN,,,,,,false,,,,586390,586390,,586390,,586401.28,8,400,,,
sequence,flow.Sequence,4_119,2023-09-08T18:53:11.697Z,,0,,,4037.719999999972,completion,,,,,false,,,,586391,586390,582349.72,582351,582352.28,586401.28,8,400,,,
trial,html.Screen,4_120_0,2023-09-08T18:53:17.070Z,,0,3,,5362.719999999972,response,ISIC_0014826.JPG,3,ISIC_0029508.JPG,ISIC_0014826.JPG,false,1,keypress(m),500,591764,591764,586390.06,586391,586401.28,591766.28,8,400,21,,ISIC_0029508.JPG
break,html.Screen,4_120_1,2023-09-08T18:53:17.070Z,,0,,,NaN,,,,,,false,,,,591765,591765,,591764,,591766.28,8,400,,,
break_continue,html.Screen,4_120_2,2023-09-08T18:53:17.071Z,,0,,,NaN,,,,,,false,,,,591765,591765,,591765,,591766.28,8,400,,,
sequence,flow.Sequence,4_120,2023-09-08T18:53:17.071Z,,0,,,5363.719999999972,completion,,,,,false,,,,591766,591765,586390.06,586391,586401.28,591766.28,8,400,,,
trial,html.Screen,4_121_0,2023-09-08T18:53:23.614Z,,0,3,,6541.719999999972,response,ISIC_0001743.JPG,3,ISIC_0066321.JPG,ISIC_0001743.JPG,false,1,keypress(m),500,598308,598308,591764.54,591766,591766.28,598314.28,8,400,22,,ISIC_0066321.JPG
break,html.Screen,4_121_1,2023-09-08T18:53:23.614Z,,0,,,NaN,,,,,,false,,,,598309,598308,,598308,,598314.28,8,400,,,
break_continue,html.Screen,4_121_2,2023-09-08T18:53:23.615Z,,0,,,NaN,,,,,,false,,,,598309,598309,,598309,,598314.28,8,400,,,
sequence,flow.Sequence,4_121,2023-09-08T18:53:23.615Z,,0,,,6542.719999999972,completion,,,,,false,,,,598309,598309,591764.54,591766,591766.28,598314.28,8,400,,,
trial,html.Screen,4_122_0,2023-09-08T18:53:29.298Z,,0,3,,5676.719999999972,response,ISIC_9384835.JPG,3,ISIC_2039579.JPG,ISIC_2039579.JPG,false,0,keypress(z),500,603992,603991,598308.08,598309,598314.28,603996.28,8,400,23,,ISIC_9384835.JPG
break,html.Screen,4_122_1,2023-09-08T18:53:29.298Z,,0,,,NaN,,,,,,false,,,,603993,603992,,603992,,603996.28,8,400,,,
break_continue,html.Screen,4_122_2,2023-09-08T18:53:29.299Z,,0,,,NaN,,,,,,false,,,,603993,603993,,603993,,603996.28,8,400,,,
sequence,flow.Sequence,4_122,2023-09-08T18:53:29.299Z,,0,,,5678.719999999972,completion,,,,,false,,,,603993,603993,598308.08,598309,598314.28,603996.28,8,400,,,
trial,html.Screen,4_123_0,2023-09-08T18:53:33.653Z,,0,3,,4350.719999999972,response,ISIC_0010760.JPG,2,ISIC_0024591.JPG,ISIC_0024591.JPG,false,0,keypress(z),500,608347,608347,603991.74,603993,603996.28,608361.28,8,400,24,,ISIC_0010760.JPG
break,html.Screen,4_123_1,2023-09-08T18:53:33.653Z,,0,,,NaN,,,,,,false,,,,608348,608348,,608347,,608361.28,8,400,,,
break_continue,html.Screen,4_123_2,2023-09-08T18:53:33.654Z,,0,,,NaN,,,,,,false,,,,608348,608348,,608348,,608361.28,8,400,,,
sequence,flow.Sequence,4_123,2023-09-08T18:53:33.654Z,,0,,,4351.719999999972,completion,,,,,false,,,,608348,608348,603991.74,603993,603996.28,608361.28,8,400,,,
trial,html.Screen,4_124_0,2023-09-08T18:53:37.870Z,,0,3,,4202.719999999972,response,ISIC_0527350.JPG,4,ISIC_4443373.JPG,ISIC_4443373.JPG,false,0,keypress(z),500,612565,612564,608347.3,608349,608361.28,612577.28,8,400,25,,ISIC_0527350.JPG
break,html.Screen,4_124_1,2023-09-08T18:53:37.871Z,,0,,,NaN,,,,,,false,,,,612565,612565,,612565,,612577.28,8,400,,,
break_continue,html.Screen,4_124_2,2023-09-08T18:53:37.871Z,,0,,,NaN,,,,,,false,,,,612565,612565,,612565,,612577.28,8,400,,,
sequence,flow.Sequence,4_124,2023-09-08T18:53:37.871Z,,0,,,4203.719999999972,completion,,,,,false,,,,612565,612565,608347.3,608348,608361.28,612577.28,8,400,,,
trial,html.Screen,4_125_0,2023-09-08T18:53:42.969Z,,0,3,,5084.719999999972,response,ISIC_0056406.JPG,3,ISIC_2394780.JPG,ISIC_2394780.JPG,false,0,keypress(z),500,617663,617662,612564.52,612565,612577.28,617675.28,8,400,26,,ISIC_0056406.JPG
break,html.Screen,4_125_1,2023-09-08T18:53:42.969Z,,0,,,NaN,,,,,,false,,,,617663,617663,,617663,,617675.28,8,400,,,
break_continue,html.Screen,4_125_2,2023-09-08T18:53:42.969Z,,0,,,NaN,,,,,,false,,,,617663,617663,,617663,,617675.28,8,400,,,
sequence,flow.Sequence,4_125,2023-09-08T18:53:42.969Z,,0,,,5085.719999999972,completion,,,,,false,,,,617663,617663,612564.52,612565,612577.28,617675.28,8,400,,,
trial,html.Screen,4_126_0,2023-09-08T18:53:46.162Z,,0,3,,3180.719999999972,response,ISIC_3544821.JPG,4,ISIC_0033103.JPG,ISIC_3544821.JPG,false,1,keypress(m),500,620856,620856,617662.68,617664,617675.28,620857.28,8,400,27,,ISIC_0033103.JPG
break,html.Screen,4_126_1,2023-09-08T18:53:46.162Z,,0,,,NaN,,,,,,false,,,,620856,620856,,620856,,620857.28,8,400,,,
break_continue,html.Screen,4_126_2,2023-09-08T18:53:46.163Z,,0,,,NaN,,,,,,false,,,,620856,620856,,620856,,620857.28,8,400,,,
sequence,flow.Sequence,4_126,2023-09-08T18:53:46.163Z,,0,,,3180.719999999972,completion,,,,,false,,,,620856,620856,617662.68,617663,617675.28,620857.28,8,400,,,
trial,html.Screen,4_127_0,2023-09-08T18:53:50.408Z,,0,3,,4244.719999999972,response,ISIC_6882582.JPG,5,ISIC_6208708.JPG,ISIC_6208708.JPG,false,0,keypress(z),500,625102,625102,620856.02,620857,620857.28,625106.28,8,400,28,,ISIC_6882582.JPG
break,html.Screen,4_127_1,2023-09-08T18:53:50.409Z,,0,,,NaN,,,,,,false,,,,625102,625102,,625102,,625106.28,8,400,,,
break_continue,html.Screen,4_127_2,2023-09-08T18:53:50.409Z,,0,,,NaN,,,,,,false,,,,625103,625103,,625102,,625106.28,8,400,,,
sequence,flow.Sequence,4_127,2023-09-08T18:53:50.409Z,,0,,,4245.719999999972,completion,,,,,false,,,,625104,625103,620856.02,620857,620857.28,625106.28,8,400,,,
trial,html.Screen,4_128_0,2023-09-08T18:53:55.821Z,,0,3,,5409.719999999972,response,ISIC_0024259.JPG,1,ISIC_0055191.JPG,ISIC_0024259.JPG,false,1,keypress(m),500,630516,630516,625102.54,625104,625106.28,630521.28,8,400,29,,ISIC_0055191.JPG
break,html.Screen,4_128_1,2023-09-08T18:53:55.822Z,,0,,,NaN,,,,,,false,,,,630517,630516,,630516,,630521.28,8,400,,,
break_continue,html.Screen,4_128_2,2023-09-08T18:53:55.822Z,,0,,,NaN,,,,,,false,,,,630517,630517,,630517,,630521.28,8,400,,,
sequence,flow.Sequence,4_128,2023-09-08T18:53:55.822Z,,0,,,5410.719999999972,completion,,,,,false,,,,630517,630517,625102.54,625104,625106.28,630521.28,8,400,,,
trial,html.Screen,4_129_0,2023-09-08T18:54:01.408Z,,0,3,,5579.719999999972,response,ISIC_6234702.JPG,4,ISIC_0008768.JPG,ISIC_0008768.JPG,false,0,keypress(z),500,636102,636101,630516.3,630517,630521.28,636103.28,8,400,30,,ISIC_6234702.JPG
break,html.Screen,4_129_1,2023-09-08T18:54:01.409Z,,0,,,NaN,,,,,,false,,,,636103,636102,,636102,,636103.28,8,400,,,
break_continue,html.Screen,4_129_2,2023-09-08T18:54:01.409Z,,0,,,NaN,,,,,,false,,,,636103,636103,,636103,,636103.28,8,400,,,
sequence,flow.Sequence,4_129,2023-09-08T18:54:01.409Z,,0,,,5581.719999999972,completion,,,,,false,,,,636103,636103,630516.3,630517,630521.28,636103.28,8,400,,,
trial,html.Screen,4_130_0,2023-09-08T18:54:05.413Z,,0,3,,4003.719999999972,response,ISIC_7030404.JPG,3,ISIC_5785408.JPG,ISIC_7030404.JPG,false,1,keypress(m),500,640107,640107,636101.98,636103,636103.28,640118.28,8,400,31,,ISIC_5785408.JPG
break,html.Screen,4_130_1,2023-09-08T18:54:05.413Z,,0,,,NaN,,,,,,false,,,,640108,640108,,640107,,640118.28,8,400,,,
break_continue,html.Screen,4_130_2,2023-09-08T18:54:05.414Z,,0,,,NaN,,,,,,false,,,,640109,640108,,640108,,640118.28,8,400,,,
sequence,flow.Sequence,4_130,2023-09-08T18:54:05.414Z,,0,,,4004.719999999972,completion,,,,,false,,,,640109,640108,636101.98,636103,636103.28,640118.28,8,400,,,
trial,html.Screen,4_131_0,2023-09-08T18:54:08.326Z,,0,3,,2901.719999999972,response,ISIC_0013427.JPG,3,ISIC_6192289.JPG,ISIC_6192289.JPG,false,0,keypress(z),500,643020,643020,640107.5,640109,640118.28,643034.28,8,400,32,,ISIC_0013427.JPG
break,html.Screen,4_131_1,2023-09-08T18:54:08.326Z,,0,,,NaN,,,,,,false,,,,643021,643020,,643020,,643034.28,8,400,,,
break_continue,html.Screen,4_131_2,2023-09-08T18:54:08.326Z,,0,,,NaN,,,,,,false,,,,643021,643021,,643021,,643034.28,8,400,,,
sequence,flow.Sequence,4_131,2023-09-08T18:54:08.327Z,,0,,,2902.719999999972,completion,,,,,false,,,,643021,643021,640107.5,640109,640118.28,643034.28,8,400,,,
trial,html.Screen,4_132_0,2023-09-08T18:54:11.444Z,,0,3,,3103.719999999972,response,ISIC_0028477.JPG,2,ISIC_3391427.JPG,ISIC_0028477.JPG,false,1,keypress(m),500,646138,646138,643019.82,643021,643034.28,646150.28,8,400,33,,ISIC_3391427.JPG
break,html.Screen,4_132_1,2023-09-08T18:54:11.444Z,,0,,,NaN,,,,,,false,,,,646139,646138,,646138,,646150.28,8,400,,,
break_continue,html.Screen,4_132_2,2023-09-08T18:54:11.445Z,,0,,,NaN,,,,,,false,,,,646139,646139,,646139,,646150.28,8,400,,,
sequence,flow.Sequence,4_132,2023-09-08T18:54:11.445Z,,0,,,3104.719999999972,completion,,,,,false,,,,646139,646139,643019.82,643021,643034.28,646150.28,8,400,,,
trial,html.Screen,4_133_0,2023-09-08T18:54:16.874Z,,0,3,,5417.719999999972,response,ISIC_8172822.JPG,2,ISIC_0010978.JPG,ISIC_0010978.JPG,false,0,keypress(z),500,651568,651568,646138.48,646139,646150.28,651581.28,8,400,34,,ISIC_8172822.JPG
break,html.Screen,4_133_1,2023-09-08T18:54:16.874Z,,0,,,NaN,,,,,,false,,,,651568,651568,,651568,,651581.28,8,400,,,
break_continue,html.Screen,4_133_2,2023-09-08T18:54:16.874Z,,0,,,NaN,,,,,,false,,,,651569,651569,,651569,,651581.28,8,400,,,
sequence,flow.Sequence,4_133,2023-09-08T18:54:16.874Z,,0,,,5418.719999999972,completion,,,,,false,,,,651569,651569,646138.48,646139,646150.28,651581.28,8,400,,,
trial,html.Screen,4_134_0,2023-09-08T18:54:20.392Z,,0,3,,3504.719999999972,response,ISIC_1758558.JPG,3,ISIC_5615694.JPG,ISIC_5615694.JPG,false,0,keypress(z),500,655086,655086,651568.12,651569,651581.28,655097.28,8,400,35,,ISIC_1758558.JPG
break,html.Screen,4_134_1,2023-09-08T18:54:20.392Z,,0,,,NaN,,,,,,false,,,,655087,655087,,655087,,655097.28,8,400,,,
break_continue,html.Screen,4_134_2,2023-09-08T18:54:20.392Z,,0,,,NaN,,,,,,false,,,,655087,655087,,655087,,655097.28,8,400,,,
sequence,flow.Sequence,4_134,2023-09-08T18:54:20.393Z,,0,,,3505.719999999972,completion,,,,,false,,,,655087,655087,651568.12,651569,651581.28,655097.28,8,400,,,
trial,html.Screen,4_135_0,2023-09-08T18:54:25.556Z,,0,3,,5152.719999999972,response,ISIC_6208107.JPG,3,ISIC_0014059.JPG,ISIC_6208107.JPG,false,1,keypress(m),500,660250,660250,655086.42,655087,655097.28,660262.28,8,400,36,,ISIC_0014059.JPG
break,html.Screen,4_135_1,2023-09-08T18:54:25.557Z,,0,,,NaN,,,,,,false,,,,660251,660250,,660250,,660262.28,8,400,,,
break_continue,html.Screen,4_135_2,2023-09-08T18:54:25.557Z,,0,,,NaN,,,,,,false,,,,660251,660251,,660251,,660262.28,8,400,,,
sequence,flow.Sequence,4_135,2023-09-08T18:54:25.557Z,,0,,,5153.719999999972,completion,,,,,false,,,,660251,660251,655086.42,655087,655097.28,660262.28,8,400,,,
trial,html.Screen,4_136_0,2023-09-08T18:54:28.805Z,,0,3,,3236.719999999972,response,ISIC_0024288.JPG,3,ISIC_0027749.JPG,ISIC_0024288.JPG,false,1,keypress(m),500,663500,663499,660250.08,660251,660262.28,663511.28,8,400,37,,ISIC_0027749.JPG
break,html.Screen,4_136_1,2023-09-08T18:54:28.805Z,,0,,,NaN,,,,,,false,,,,663500,663500,,663500,,663511.28,8,400,,,
break_continue,html.Screen,4_136_2,2023-09-08T18:54:28.806Z,,0,,,NaN,,,,,,false,,,,663500,663500,,663500,,663511.28,8,400,,,
sequence,flow.Sequence,4_136,2023-09-08T18:54:28.806Z,,0,,,3237.719999999972,completion,,,,,false,,,,663500,663500,660250.08,660251,660262.28,663511.28,8,400,,,
trial,html.Screen,4_137_0,2023-09-08T18:54:32.996Z,,0,3,,4178.719999999972,response,ISIC_0757147.JPG,4,ISIC_0002900.JPG,ISIC_0002900.JPG,false,0,keypress(z),500,667690,667690,663499.36,663501,663511.28,667693.28,8,400,38,,ISIC_0757147.JPG
break,html.Screen,4_137_1,2023-09-08T18:54:32.997Z,,0,,,NaN,,,,,,false,,,,667691,667691,,667690,,667693.28,8,400,,,
break_continue,html.Screen,4_137_2,2023-09-08T18:54:32.997Z,,0,,,NaN,,,,,,false,,,,667691,667691,,667691,,667693.28,8,400,,,
sequence,flow.Sequence,4_137,2023-09-08T18:54:32.997Z,,0,,,4179.719999999972,completion,,,,,false,,,,667691,667691,663499.36,663501,663511.28,667693.28,8,400,,,
trial,html.Screen,4_138_0,2023-09-08T18:54:36.821Z,,0,3,,3821.719999999972,response,ISIC_0032551.JPG,4,ISIC_0021894.JPG,ISIC_0021894.JPG,false,0,keypress(z),500,671515,671515,667691,667691,667693.28,671525.28,8,400,39,,ISIC_0032551.JPG
break,html.Screen,4_138_1,2023-09-08T18:54:36.821Z,,0,,,NaN,,,,,,false,,,,671516,671515,,671515,,671525.28,8,400,,,
break_continue,html.Screen,4_138_2,2023-09-08T18:54:36.822Z,,0,,,NaN,,,,,,false,,,,671516,671516,,671516,,671525.28,8,400,,,
sequence,flow.Sequence,4_138,2023-09-08T18:54:36.823Z,,0,,,3822.719999999972,completion,,,,,false,,,,671516,671516,667691,667691,667693.28,671525.28,8,400,,,
trial,html.Screen,4_139_0,2023-09-08T18:54:42.285Z,,0,3,,5453.719999999972,response,ISIC_7830756.JPG,2,ISIC_0624779.JPG,ISIC_0624779.JPG,false,0,keypress(z),500,676979,676979,671515.24,671517,671525.28,676990.28,8,400,40,,ISIC_7830756.JPG
break,html.Screen,4_139_1,2023-09-08T18:54:42.285Z,,0,,,NaN,,,,,,false,,,,676979,676979,,676979,,676990.28,8,400,,,
break_continue,html.Screen,4_139_2,2023-09-08T18:54:42.285Z,,0,,,NaN,,,,,,false,,,,676979,676979,,676979,,676990.28,8,400,,,
sequence,flow.Sequence,4_139,2023-09-08T18:54:42.285Z,,0,,,5453.719999999972,completion,,,,,false,,,,676980,676979,671515.24,671517,671525.28,676990.28,8,400,,,
trial,html.Screen,4_140_0,2023-09-08T18:54:47.202Z,,0,3,,4905.719999999972,response,ISIC_1216139.JPG,6,ISIC_0057988.JPG,ISIC_1216139.JPG,false,1,keypress(m),500,681896,681896,676978.76,676980,676990.28,681906.28,8,400,41,,ISIC_0057988.JPG
break,html.Screen,4_140_1,2023-09-08T18:54:47.203Z,,0,,,NaN,,,,,,false,,,,681897,681897,,681897,,681906.28,8,400,,,
break_continue,html.Screen,4_140_2,2023-09-08T18:54:47.203Z,,0,,,NaN,,,,,,false,,,,681897,681897,,681897,,681906.28,8,400,,,
sequence,flow.Sequence,4_140,2023-09-08T18:54:47.203Z,,0,,,4906.719999999972,completion,,,,,false,,,,681897,681897,676978.76,676980,676990.28,681906.28,8,400,,,
trial,html.Screen,4_141_0,2023-09-08T18:54:53.199Z,,0,3,,5986.719999999972,response,ISIC_0016137.JPG,2,ISIC_0030831.JPG,ISIC_0016137.JPG,false,1,keypress(m),500,687893,687893,681896.86,681897,681906.28,687904.28,8,400,42,,ISIC_0030831.JPG
break,html.Screen,4_141_1,2023-09-08T18:54:53.199Z,,0,,,NaN,,,,,,false,,,,687894,687894,,687894,,687904.28,8,400,,,
break_continue,html.Screen,4_141_2,2023-09-08T18:54:53.200Z,,0,,,NaN,,,,,,false,,,,687895,687894,,687894,,687904.28,8,400,,,
sequence,flow.Sequence,4_141,2023-09-08T18:54:53.200Z,,0,,,5987.719999999972,completion,,,,,false,,,,687895,687894,681896.86,681897,681906.28,687904.28,8,400,,,
trial,html.Screen,4_142_0,2023-09-08T18:54:57.215Z,,0,3,,4004.719999999972,response,ISIC_7097931.JPG,4,ISIC_8108099.JPG,ISIC_8108099.JPG,false,0,keypress(z),500,691909,691909,687893.34,687895,687904.28,691919.28,8,400,43,,ISIC_7097931.JPG
break,html.Screen,4_142_1,2023-09-08T18:54:57.215Z,,0,,,NaN,,,,,,false,,,,691909,691909,,691909,,691919.28,8,400,,,
break_continue,html.Screen,4_142_2,2023-09-08T18:54:57.215Z,,0,,,NaN,,,,,,false,,,,691910,691910,,691909,,691919.28,8,400,,,
sequence,flow.Sequence,4_142,2023-09-08T18:54:57.216Z,,0,,,4005.719999999972,completion,,,,,false,,,,691910,691910,687893.34,687895,687904.28,691919.28,8,400,,,
trial,html.Screen,4_143_0,2023-09-08T18:55:01.606Z,,0,3,,4380.719999999972,response,ISIC_0066637.JPG,2,ISIC_0027872.JPG,ISIC_0066637.JPG,false,1,keypress(m),500,696300,696300,691908.84,691910,691919.28,696301.28,8,400,44,,ISIC_0027872.JPG
break,html.Screen,4_143_1,2023-09-08T18:55:01.606Z,,0,,,NaN,,,,,,false,,,,696301,696301,,696301,,696301.28,8,400,,,
break_continue,html.Screen,4_143_2,2023-09-08T18:55:01.606Z,,0,,,NaN,,,,,,false,,,,696301,696301,,696301,,696301.28,8,400,,,
sequence,flow.Sequence,4_143,2023-09-08T18:55:01.606Z,,0,,,4381.719999999972,completion,,,,,false,,,,696301,696301,691908.84,691910,691919.28,696301.28,8,400,,,
trial,html.Screen,4_144_0,2023-09-08T18:55:05.126Z,,0,3,,3518.719999999972,response,ISIC_9121369.JPG,4,ISIC_1886756.JPG,ISIC_1886756.JPG,false,0,keypress(z),500,699820,699820,696300.16,696301,696301.28,699834.28,8,400,45,,ISIC_9121369.JPG
break,html.Screen,4_144_1,2023-09-08T18:55:05.126Z,,0,,,NaN,,,,,,false,,,,699820,699820,,699820,,699834.28,8,400,,,
break_continue,html.Screen,4_144_2,2023-09-08T18:55:05.127Z,,0,,,NaN,,,,,,false,,,,699821,699821,,699820,,699834.28,8,400,,,
sequence,flow.Sequence,4_144,2023-09-08T18:55:05.127Z,,0,,,3519.719999999972,completion,,,,,false,,,,699821,699821,696300.16,696301,696301.28,699834.28,8,400,,,
trial,html.Screen,4_145_0,2023-09-08T18:55:11.142Z,,0,3,,6001.719999999972,response,ISIC_0057028.JPG,2,ISIC_6260969.JPG,ISIC_0057028.JPG,false,1,keypress(m),500,705836,705836,699820.1,699821,699834.28,705848.28,8,400,46,,ISIC_6260969.JPG
break,html.Screen,4_145_1,2023-09-08T18:55:11.142Z,,0,,,NaN,,,,,,false,,,,705836,705836,,705836,,705848.28,8,400,,,
break_continue,html.Screen,4_145_2,2023-09-08T18:55:11.142Z,,0,,,NaN,,,,,,false,,,,705836,705836,,705836,,705848.28,8,400,,,
sequence,flow.Sequence,4_145,2023-09-08T18:55:11.142Z,,0,,,6001.719999999972,completion,,,,,false,,,,705837,705836,699820.1,699821,699834.28,705848.28,8,400,,,
trial,html.Screen,4_146_0,2023-09-08T18:55:16.836Z,,0,3,,5681.719999999972,response,ISIC_1869829.JPG,3,ISIC_8779142.JPG,ISIC_1869829.JPG,false,1,keypress(m),500,711530,711530,705835.5,705837,705848.28,711530.28,8,400,47,,ISIC_8779142.JPG
break,html.Screen,4_146_1,2023-09-08T18:55:16.837Z,,0,,,NaN,,,,,,false,,,,711531,711531,,711530,,711530.28,8,400,,,
break_continue,html.Screen,4_146_2,2023-09-08T18:55:16.837Z,,0,,,NaN,,,,,,false,,,,711531,711531,,711531,,711530.28,8,400,,,
sequence,flow.Sequence,4_146,2023-09-08T18:55:16.837Z,,0,,,5682.719999999972,completion,,,,,false,,,,711531,711531,705835.5,705837,705848.28,711530.28,8,400,,,
trial,html.Screen,4_147_0,2023-09-08T18:55:21.915Z,,0,3,,5078.719999999972,response,ISIC_0024292.JPG,3,ISIC_0011125.JPG,ISIC_0024292.JPG,false,1,keypress(m),500,716609,716609,711530.12,711531,711530.28,716612.28,8,400,48,,ISIC_0011125.JPG
break,html.Screen,4_147_1,2023-09-08T18:55:21.915Z,,0,,,NaN,,,,,,false,,,,716610,716609,,716609,,716612.28,8,400,,,
break_continue,html.Screen,4_147_2,2023-09-08T18:55:21.915Z,,0,,,NaN,,,,,,false,,,,716610,716610,,716610,,716612.28,8,400,,,
sequence,flow.Sequence,4_147,2023-09-08T18:55:21.916Z,,0,,,5079.719999999972,completion,,,,,false,,,,716610,716610,711530.12,711531,711530.28,716612.28,8,400,,,
trial,html.Screen,4_148_0,2023-09-08T18:55:25.448Z,,0,3,,3530.719999999972,response,ISIC_7869255.JPG,3,ISIC_6801988.JPG,ISIC_6801988.JPG,false,0,keypress(z),500,720143,720143,716608.94,716610,716612.28,720144.28,8,400,49,,ISIC_7869255.JPG
break,html.Screen,4_148_1,2023-09-08T18:55:25.449Z,,0,,,NaN,,,,,,false,,,,720144,720143,,720143,,720144.28,8,400,,,
break_continue,html.Screen,4_148_2,2023-09-08T18:55:25.449Z,,0,,,NaN,,,,,,false,,,,720144,720144,,720144,,720144.28,8,400,,,
sequence,flow.Sequence,4_148,2023-09-08T18:55:25.449Z,,0,,,3531.719999999972,completion,,,,,false,,,,720144,720144,716608.94,716610,716612.28,720144.28,8,400,,,
trial,html.Screen,4_149_0,2023-09-08T18:55:30.682Z,,0,3,,5231.719999999972,response,ISIC_6901969.JPG,2,ISIC_8967786.JPG,ISIC_8967786.JPG,false,0,keypress(z),500,725376,725376,720143.16,720144,720144.28,725393.28,8,400,50,,ISIC_6901969.JPG
break,html.Screen,4_149_1,2023-09-08T18:55:40.680Z,,0,,,9997,timeout,,,,,false,,,,735374,735373.28,725377.2,725377,725393.28,735390.28,8,400,,,
break_continue,html.Screen,4_149_2,2023-09-08T18:55:41.575Z,,0,,,865.7199999999721,response,,,,,false,continue,keypress(Space),,736269,736256,735373.28,735374,735390.28,736273.28,8,400,,,
sequence,flow.Sequence,4_149,2023-09-08T18:55:41.575Z,,0,,,16111.719999999972,completion,,,,,false,,,,736269,736256,720143.16,720144,720144.28,736273.28,8,400,,,
