sender,sender_type,sender_id,timestamp,meta,,blockNo,condition,duration,ended_on,img_left,img_reveal,img_right,loser,practice,response,response_action,selection_duration,time_commit,time_end,time_render,time_run,time_show,time_switch,total_blocks,total_trials,trialNo,url,winner
informed_consent,html.Screen,0,2023-10-31T21:05:01.147Z,"{""labjs_version"":""20.2.4"",""labjs_build"":{""flavor"":""production"",""commit"":""f5b4a49f956347addd546a832a3327688c2c0fef""},""location"":""https://run.pavlovia.org/MurrayBennett/melanoma-2afc/?participant=66646&platform=sona"",""userAgent"":""Mozilla/5.0 (Windows NT 10.0; Win64; x64) AppleWebKit/537.36 (KHTML, like Gecko) Chrome/118.0.0.0 Safari/537.36"",""platform"":""Win32"",""language"":""es-ES"",""locale"":""es-ES"",""timeZone"":""America/Matamoros"",""timezoneOffset"":300,""screen_width"":1536,""screen_height"":864,""scroll_width"":1536,""scroll_height"":691,""window_innerWidth"":1536,""window_innerHeight"":739,""devicePixelRatio"":1.25}",,,,6985.162999988079,response,,,,,,consent,click button,,9696.5,9693.699999988079,2701.653,2702.5,2708.537,9736.378,,,,"{""participant"":""66646"",""platform"":""sona""}",
Welcome,html.Screen,1,2023-10-31T21:05:56.847Z,,,,symmetry,55661.82199998808,response,,,,,,continue,click button,,65399.799999952316,65398.19999998808,9694.67,9697,9736.378,65409.887,,,,,
trial,html.Screen,2_0_0,2023-10-31T21:06:01.029Z,,0,0,,4172.012999976156,response,ISIC_0069348.JPG,,ISIC_6997061.JPG,ISIC_0069348.JPG,true,1,keypress(m),500,69582.39999997616,69581.89999997616,65395.97,65400.299999952316,65409.887,69590.455,1,6,1,,ISIC_6997061.JPG
sequence,flow.Sequence,2_0,2023-10-31T21:06:01.030Z,,0,,,4172.012999976156,completion,,,,,true,,,,69583.09999996424,69581.89999997616,65395.97,65400.19999998808,65409.887,69590.455,1,6,,,
trial,html.Screen,2_1_0,2023-10-31T21:06:05.946Z,,0,0,,4907.944999976156,response,ISIC_0009529.JPG,,ISIC_0057368.JPG,ISIC_0057368.JPG,true,0,keypress(z),500,74498.69999998808,74498.39999997616,69583.306,69583.29999995232,69590.455,74507.083,1,6,2,,ISIC_0009529.JPG
sequence,flow.Sequence,2_1,2023-10-31T21:06:05.946Z,,0,,,4907.944999976156,completion,,,,,true,,,,74499.19999998808,74498.39999997616,69583.306,69583.29999995232,69590.455,74507.083,1,6,,,
trial,html.Screen,2_2_0,2023-10-31T21:06:10.368Z,,0,0,,4413.61699998808,response,ISIC_9758671.JPG,,ISIC_0064954.JPG,ISIC_9758671.JPG,true,1,keypress(m),500,78921.09999996424,78920.69999998808,74493.53,74499.5,74507.083,78936.316,1,6,3,,ISIC_0064954.JPG
sequence,flow.Sequence,2_2,2023-10-31T21:06:10.369Z,,0,,,4413.61699998808,completion,,,,,true,,,,78921.69999998808,78920.69999998808,74493.53,74499.39999997616,74507.083,78936.316,1,6,,,
trial,html.Screen,2_3_0,2023-10-31T21:06:14.261Z,,0,0,,3877.283999964231,response,ISIC_0000080.JPG,,ISIC_0005785.JPG,ISIC_0005785.JPG,true,0,keypress(z),500,82814.09999996424,82813.59999996424,78917.67,78922,78936.316,82819.578,1,6,4,,ISIC_0000080.JPG
sequence,flow.Sequence,2_3,2023-10-31T21:06:14.262Z,,0,,,3877.283999964231,completion,,,,,true,,,,82814.69999998808,82813.59999996424,78917.67,78921.89999997616,78936.316,82819.578,1,6,,,
trial,html.Screen,2_4_0,2023-10-31T21:06:18.525Z,,0,0,,4257.621999988085,response,ISIC_7944028.JPG,,ISIC_5390060.JPG,ISIC_5390060.JPG,true,0,keypress(z),500,87077.59999996424,87077.19999998808,82812.247,82815.09999996424,82819.578,87083.443,1,6,5,,ISIC_7944028.JPG
sequence,flow.Sequence,2_4,2023-10-31T21:06:18.525Z,,0,,,4257.621999988085,completion,,,,,true,,,,87078.19999998808,87077.19999998808,82812.247,82815,82819.578,87083.443,1,6,,,
trial,html.Screen,2_5_0,2023-10-31T21:06:21.829Z,,0,0,,3298.156999964238,response,ISIC_0010188.JPG,,ISIC_0794216.JPG,ISIC_0010188.JPG,true,1,keypress(m),500,90382.09999996424,90381.59999996424,87075.879,87078.59999996424,87083.443,90389.005,1,6,6,,ISIC_0794216.JPG
sequence,flow.Sequence,2_5,2023-10-31T21:06:21.830Z,,0,,,3298.156999964238,completion,,,,,true,,,,90382.69999998808,90381.59999996424,87075.879,87078.39999997616,87083.443,90389.005,1,6,,,
loop,flow.Loop,2,2023-10-31T21:06:21.830Z,,,,,24971.712999964235,completion,,,,,true,,,,90383.19999998808,90381.59999996424,65395.97,65400.09999996424,65409.887,90389.005,1,6,,,
exp_instructions,html.Screen,3,2023-10-31T21:06:28.200Z,,,,,6362.694999988074,response,,,,,,continue,keypress(Space),,96752.69999998808,96751.69999998808,90381.993,90383.39999997616,90389.005,96757.067,,,,,
trial,html.Screen,4_0_0,2023-10-31T21:06:31.713Z,,0,1,,3508.732999952321,response,ISIC_9424787.JPG,7,ISIC_0056860.JPG,ISIC_0056860.JPG,false,0,keypress(z),500,100266.09999996424,100265.79999995232,96749.85,96753.09999996424,96757.067,100270.938,8,400,1,,ISIC_9424787.JPG
break,html.Screen,4_0_1,2023-10-31T21:06:31.715Z,,0,,,NaN,,,,,,false,,,,100267.5,100267.19999998808,,100266.39999997616,,100270.938,8,400,,,
break_continue,html.Screen,4_0_2,2023-10-31T21:06:31.715Z,,0,,,NaN,,,,,,false,,,,100268.29999995232,100268,,100267.79999995232,,100270.938,8,400,,,
sequence,flow.Sequence,4_0,2023-10-31T21:06:31.716Z,,0,,,3510.9330000000045,completion,,,,,false,,,,100268.69999998808,100268,96749.85,96753.09999996424,96757.067,100270.938,8,400,,,
trial,html.Screen,4_1_0,2023-10-31T21:06:35.340Z,,0,1,,3621.1619999642426,response,ISIC_2523776.JPG,8,ISIC_0033787.JPG,ISIC_0033787.JPG,false,0,keypress(z),500,103892.39999997616,103892.09999996424,100263.888,100268.89999997616,100270.938,103895.96,8,400,2,,ISIC_2523776.JPG
break,html.Screen,4_1_1,2023-10-31T21:06:35.342Z,,0,,,NaN,,,,,,false,,,,103894.79999995232,103894.5,,103894,,103895.96,8,400,,,
break_continue,html.Screen,4_1_2,2023-10-31T21:06:35.342Z,,0,,,NaN,,,,,,false,,,,103895.39999997616,103895.19999998808,,103895,,103895.96,8,400,,,
sequence,flow.Sequence,4_1,2023-10-31T21:06:35.343Z,,0,,,3624.2619999880844,completion,,,,,false,,,,103895.69999998808,103895.19999998808,100263.888,100268.89999997616,100270.938,103895.96,8,400,,,
trial,html.Screen,4_2_0,2023-10-31T21:06:38.610Z,,0,1,,3266.139999964231,response,ISIC_0054134.JPG,8,ISIC_0025987.JPG,ISIC_0054134.JPG,false,1,keypress(m),500,107162.5,107162.09999996424,103889.167,103895.89999997616,103895.96,107166.733,8,400,3,,ISIC_0025987.JPG
break,html.Screen,4_2_1,2023-10-31T21:06:38.611Z,,0,,,NaN,,,,,,false,,,,107163.5,107163.19999998808,,107162.79999995232,,107166.733,8,400,,,
break_continue,html.Screen,4_2_2,2023-10-31T21:06:38.611Z,,0,,,NaN,,,,,,false,,,,107164.09999996424,107163.89999997616,,107163.69999998808,,107166.733,8,400,,,
sequence,flow.Sequence,4_2,2023-10-31T21:06:38.611Z,,0,,,3267.9399999761517,completion,,,,,false,,,,107164.39999997616,107163.89999997616,103889.167,103895.89999997616,103895.96,107166.733,8,400,,,
trial,html.Screen,4_3_0,2023-10-31T21:06:41.833Z,,0,1,,3218.8669999642443,response,ISIC_0065292.JPG,9,ISIC_0067458.JPG,ISIC_0067458.JPG,false,0,keypress(z),500,110386,110385.59999996424,107159.843,107164.59999996424,107166.733,110388.984,8,400,4,,ISIC_0065292.JPG
break,html.Screen,4_3_1,2023-10-31T21:06:41.834Z,,0,,,NaN,,,,,,false,,,,110387,110386.79999995232,,110386.39999997616,,110388.984,8,400,,,
break_continue,html.Screen,4_3_2,2023-10-31T21:06:41.835Z,,0,,,NaN,,,,,,false,,,,110387.69999998808,110387.39999997616,,110387.29999995232,,110388.984,8,400,,,
sequence,flow.Sequence,4_3,2023-10-31T21:06:41.835Z,,0,,,3220.6669999761652,completion,,,,,false,,,,110387.89999997616,110387.39999997616,107159.843,107164.5,107166.733,110388.984,8,400,,,
trial,html.Screen,4_4_0,2023-10-31T21:06:44.993Z,,0,1,,3156.6159999642405,response,ISIC_0061749.JPG,12,ISIC_8234773.JPG,ISIC_8234773.JPG,false,0,keypress(z),500,113546,113545.59999996424,110381.959,110388.19999998808,110388.984,113548.703,8,400,5,,ISIC_0061749.JPG
break,html.Screen,4_4_1,2023-10-31T21:06:44.994Z,,0,,,NaN,,,,,,false,,,,113547,113546.69999998808,,113546.19999998808,,113548.703,8,400,,,
break_continue,html.Screen,4_4_2,2023-10-31T21:06:44.995Z,,0,,,NaN,,,,,,false,,,,113547.59999996424,113547.39999997616,,113547.09999996424,,113548.703,8,400,,,
sequence,flow.Sequence,4_4,2023-10-31T21:06:44.995Z,,0,,,3158.4159999761614,completion,,,,,false,,,,113547.89999997616,113547.39999997616,110381.959,110388.09999996424,110388.984,113548.703,8,400,,,
trial,html.Screen,4_5_0,2023-10-31T21:06:47.980Z,,0,1,,2983.996999988085,response,ISIC_0026746.JPG,12,ISIC_9182285.JPG,ISIC_0026746.JPG,false,1,keypress(m),500,116533,116532.69999998808,113541.691,113548.09999996424,113548.703,116548.545,8,400,6,,ISIC_9182285.JPG
break,html.Screen,4_5_1,2023-10-31T21:06:47.981Z,,0,,,NaN,,,,,,false,,,,116534,116533.69999998808,,116533.19999998808,,116548.545,8,400,,,
break_continue,html.Screen,4_5_2,2023-10-31T21:06:47.982Z,,0,,,NaN,,,,,,false,,,,116534.69999998808,116534.5,,116534.29999995232,,116548.545,8,400,,,
sequence,flow.Sequence,4_5,2023-10-31T21:06:47.982Z,,0,,,2985.797000000006,completion,,,,,false,,,,116535,116534.5,113541.691,113548,113548.703,116548.545,8,400,,,
trial,html.Screen,4_6_0,2023-10-31T21:06:52.135Z,,0,1,,4138.554999964239,response,ISIC_3013569.JPG,8,ISIC_0033644.JPG,ISIC_0033644.JPG,false,0,keypress(z),500,120687.5,120687.09999996424,116527.806,116535.29999995232,116548.545,120694.517,8,400,7,,ISIC_3013569.JPG
break,html.Screen,4_6_1,2023-10-31T21:06:52.136Z,,0,,,NaN,,,,,,false,,,,120688.5,120688.29999995232,,120687.79999995232,,120694.517,8,400,,,
break_continue,html.Screen,4_6_2,2023-10-31T21:06:52.136Z,,0,,,NaN,,,,,,false,,,,120689.09999996424,120689,,120688.79999995232,,120694.517,8,400,,,
sequence,flow.Sequence,4_6,2023-10-31T21:06:52.136Z,,0,,,4140.455000000002,completion,,,,,false,,,,120689.39999997616,120689,116527.806,116535.29999995232,116548.545,120694.517,8,400,,,
trial,html.Screen,4_7_0,2023-10-31T21:06:55.702Z,,0,1,,3556.282999952309,response,ISIC_0028655.JPG,5,ISIC_0000516.JPG,ISIC_0000516.JPG,false,0,keypress(z),500,124251.19999998808,124250.79999995232,120687.558,120689.59999996424,120694.517,124256.942,8,400,8,,ISIC_0028655.JPG
break,html.Screen,4_7_1,2023-10-31T21:06:55.703Z,,0,,,NaN,,,,,,false,,,,124252.09999996424,124251.79999995232,,124251.39999997616,,124256.942,8,400,,,
break_continue,html.Screen,4_7_2,2023-10-31T21:06:55.704Z,,0,,,NaN,,,,,,false,,,,124252.69999998808,124252.5,,124252.29999995232,,124256.942,8,400,,,
sequence,flow.Sequence,4_7,2023-10-31T21:06:55.704Z,,0,,,3557.982999999993,completion,,,,,false,,,,124253,124252.5,120687.558,120689.59999996424,120694.517,124256.942,8,400,,,
trial,html.Screen,4_8_0,2023-10-31T21:06:58.706Z,,0,1,,2997.6579999642418,response,ISIC_8438811.JPG,6,ISIC_3356776.JPG,ISIC_3356776.JPG,false,0,keypress(z),500,127254.79999995232,127254.59999996424,124249.893,124253.19999998808,124256.942,127256.978,8,400,9,,ISIC_8438811.JPG
break,html.Screen,4_8_1,2023-10-31T21:06:58.707Z,,0,,,NaN,,,,,,false,,,,127255.89999997616,127255.59999996424,,127255.19999998808,,127256.978,8,400,,,
break_continue,html.Screen,4_8_2,2023-10-31T21:06:58.707Z,,0,,,NaN,,,,,,false,,,,127256.39999997616,127256.29999995232,,127256.09999996424,,127256.978,8,400,,,
sequence,flow.Sequence,4_8,2023-10-31T21:06:58.708Z,,0,,,2999.357999952321,completion,,,,,false,,,,127256.69999998808,127256.29999995232,124249.893,124253.09999996424,124256.942,127256.978,8,400,,,
trial,html.Screen,4_9_0,2023-10-31T21:07:02.587Z,,0,1,,3878.3219999523135,response,ISIC_0058024.JPG,7,ISIC_0070032.JPG,ISIC_0070032.JPG,false,0,keypress(z),500,131135.79999995232,131135.29999995232,127249.712,127256.89999997616,127256.978,131138.95,8,400,10,,ISIC_0058024.JPG
break,html.Screen,4_9_1,2023-10-31T21:07:02.588Z,,0,,,NaN,,,,,,false,,,,131136.89999997616,131136.5,,131136.09999996424,,131138.95,8,400,,,
break_continue,html.Screen,4_9_2,2023-10-31T21:07:02.588Z,,0,,,NaN,,,,,,false,,,,131137.39999997616,131137.19999998808,,131137,,131138.95,8,400,,,
sequence,flow.Sequence,4_9,2023-10-31T21:07:02.589Z,,0,,,3880.2219999880763,completion,,,,,false,,,,131137.59999996424,131137.19999998808,127249.712,127256.79999995232,127256.978,131138.95,8,400,,,
trial,html.Screen,4_10_0,2023-10-31T21:07:05.941Z,,0,1,,3351.2499999880674,response,ISIC_2717192.JPG,12,ISIC_0031835.JPG,ISIC_2717192.JPG,false,1,keypress(m),500,134490.5,134490.19999998808,131131.936,131137.89999997616,131138.95,134493.079,8,400,11,,ISIC_0031835.JPG
break,html.Screen,4_10_1,2023-10-31T21:07:05.942Z,,0,,,NaN,,,,,,false,,,,134491.5,134491.29999995232,,134490.79999995232,,134493.079,8,400,,,
break_continue,html.Screen,4_10_2,2023-10-31T21:07:05.943Z,,0,,,NaN,,,,,,false,,,,134492.19999998808,134492,,134491.79999995232,,134493.079,8,400,,,
sequence,flow.Sequence,4_10,2023-10-31T21:07:05.943Z,,0,,,3353.0499999999884,completion,,,,,false,,,,134492.5,134492,131131.936,131137.79999995232,131138.95,134493.079,8,400,,,
trial,html.Screen,4_11_0,2023-10-31T21:07:09.373Z,,0,1,,3428.2209999523184,response,ISIC_7587513.JPG,12,ISIC_3950753.JPG,ISIC_7587513.JPG,false,1,keypress(m),500,137921.69999998808,137921.29999995232,134486.057,134492.69999998808,134493.079,137937.463,8,400,12,,ISIC_3950753.JPG
break,html.Screen,4_11_1,2023-10-31T21:07:09.374Z,,0,,,NaN,,,,,,false,,,,137922.69999998808,137922.39999997616,,137921.89999997616,,137937.463,8,400,,,
break_continue,html.Screen,4_11_2,2023-10-31T21:07:09.374Z,,0,,,NaN,,,,,,false,,,,137923.19999998808,137923,,137922.79999995232,,137937.463,8,400,,,
sequence,flow.Sequence,4_11,2023-10-31T21:07:09.374Z,,0,,,3429.921000000002,completion,,,,,false,,,,137923.5,137923,134486.057,134492.59999996424,134493.079,137937.463,8,400,,,
trial,html.Screen,4_12_0,2023-10-31T21:07:13.044Z,,0,1,,3655.1369999642484,response,ISIC_0033233.JPG,9,ISIC_4363398.JPG,ISIC_4363398.JPG,false,0,keypress(z),500,141593,141592.59999996424,137916.94,137923.69999998808,137937.463,141597.23,8,400,13,,ISIC_0033233.JPG
break,html.Screen,4_12_1,2023-10-31T21:07:13.045Z,,0,,,NaN,,,,,,false,,,,141594,141593.79999995232,,141593.29999995232,,141597.23,8,400,,,
break_continue,html.Screen,4_12_2,2023-10-31T21:07:13.046Z,,0,,,NaN,,,,,,false,,,,141594.69999998808,141594.5,,141594.29999995232,,141597.23,8,400,,,
sequence,flow.Sequence,4_12,2023-10-31T21:07:13.046Z,,0,,,3657.037000000011,completion,,,,,false,,,,141595,141594.5,137916.94,137923.69999998808,137937.463,141597.23,8,400,,,
trial,html.Screen,4_13_0,2023-10-31T21:07:17.546Z,,0,1,,4497.2699999999895,response,ISIC_7621412.JPG,6,ISIC_6208762.JPG,ISIC_7621412.JPG,false,1,keypress(m),500,146094.79999995232,146094.5,141590.141,141595.19999998808,141597.23,146097.231,8,400,14,,ISIC_6208762.JPG
break,html.Screen,4_13_1,2023-10-31T21:07:17.547Z,,0,,,NaN,,,,,,false,,,,146095.89999997616,146095.59999996424,,146095.09999996424,,146097.231,8,400,,,
break_continue,html.Screen,4_13_2,2023-10-31T21:07:17.547Z,,0,,,NaN,,,,,,false,,,,146096.5,146096.39999997616,,146096.09999996424,,146097.231,8,400,,,
sequence,flow.Sequence,4_13,2023-10-31T21:07:17.548Z,,0,,,4499.169999976148,completion,,,,,false,,,,146096.79999995232,146096.39999997616,141590.141,141595.09999996424,141597.23,146097.231,8,400,,,
trial,html.Screen,4_14_0,2023-10-31T21:07:21.972Z,,0,1,,4423.0689999523165,response,ISIC_0026559.JPG,6,ISIC_0058781.JPG,ISIC_0058781.JPG,false,0,keypress(z),500,150520.59999996424,150520.29999995232,146089.93,146097.09999996424,146097.231,150527.802,8,400,15,,ISIC_0026559.JPG
break,html.Screen,4_14_1,2023-10-31T21:07:21.973Z,,0,,,NaN,,,,,,false,,,,150521.69999998808,150521.39999997616,,150521,,150527.802,8,400,,,
break_continue,html.Screen,4_14_2,2023-10-31T21:07:21.973Z,,0,,,NaN,,,,,,false,,,,150522.29999995232,150522.09999996424,,150521.89999997616,,150527.802,8,400,,,
sequence,flow.Sequence,4_14,2023-10-31T21:07:21.973Z,,0,,,4424.868999964237,completion,,,,,false,,,,150522.5,150522.09999996424,146089.93,146097,146097.231,150527.802,8,400,,,
trial,html.Screen,4_15_0,2023-10-31T21:07:25.914Z,,0,1,,3934.597999976162,response,ISIC_4105234.JPG,10,ISIC_5223280.JPG,ISIC_4105234.JPG,false,1,keypress(m),500,154462.59999996424,154462.39999997616,150520.722,150522.79999995232,150527.802,154465.297,8,400,16,,ISIC_5223280.JPG
break,html.Screen,4_15_1,2023-10-31T21:07:25.915Z,,0,,,NaN,,,,,,false,,,,154463.59999996424,154463.29999995232,,154462.89999997616,,154465.297,8,400,,,
break_continue,html.Screen,4_15_2,2023-10-31T21:07:25.915Z,,0,,,NaN,,,,,,false,,,,154464.19999998808,154463.89999997616,,154463.79999995232,,154465.297,8,400,,,
sequence,flow.Sequence,4_15,2023-10-31T21:07:25.915Z,,0,,,3936.097999976162,completion,,,,,false,,,,154464.5,154463.89999997616,150520.722,150522.79999995232,150527.802,154465.297,8,400,,,
trial,html.Screen,4_16_0,2023-10-31T21:07:30.452Z,,0,1,,4535.602999976167,response,ISIC_6392461.JPG,7,ISIC_1216201.JPG,ISIC_1216201.JPG,false,0,keypress(z),500,159001.29999995232,159000.89999997616,154458.303,154464.69999998808,154465.297,159006.948,8,400,17,,ISIC_6392461.JPG
break,html.Screen,4_16_1,2023-10-31T21:07:30.453Z,,0,,,NaN,,,,,,false,,,,159002.29999995232,159002.09999996424,,159001.59999996424,,159006.948,8,400,,,
break_continue,html.Screen,4_16_2,2023-10-31T21:07:30.454Z,,0,,,NaN,,,,,,false,,,,159002.79999995232,159002.59999996424,,159002.5,,159006.948,8,400,,,
sequence,flow.Sequence,4_16,2023-10-31T21:07:30.454Z,,0,,,4537.302999964246,completion,,,,,false,,,,159003.09999996424,159002.59999996424,154458.303,154464.59999996424,154465.297,159006.948,8,400,,,
trial,html.Screen,4_17_0,2023-10-31T21:07:34.189Z,,0,1,,3731.1519999642333,response,ISIC_7966295.JPG,11,ISIC_6908183.JPG,ISIC_7966295.JPG,false,1,keypress(m),500,162738.5,162738.09999996424,158999.874,159003.29999995232,159006.948,162743.043,8,400,18,,ISIC_6908183.JPG
break,html.Screen,4_17_1,2023-10-31T21:07:34.190Z,,0,,,NaN,,,,,,false,,,,162739.39999997616,162739.19999998808,,162738.79999995232,,162743.043,8,400,,,
break_continue,html.Screen,4_17_2,2023-10-31T21:07:34.191Z,,0,,,NaN,,,,,,false,,,,162740,162739.89999997616,,162739.59999996424,,162743.043,8,400,,,
sequence,flow.Sequence,4_17,2023-10-31T21:07:34.191Z,,0,,,3732.951999976154,completion,,,,,false,,,,162740.19999998808,162739.89999997616,158999.874,159003.29999995232,159006.948,162743.043,8,400,,,
trial,html.Screen,4_18_0,2023-10-31T21:07:37.781Z,,0,1,,3587.156999988074,response,ISIC_4876193.JPG,10,ISIC_0061623.JPG,ISIC_0061623.JPG,false,0,keypress(z),500,166330.59999996424,166330.19999998808,162735.933,162740.5,162743.043,166333.328,8,400,19,,ISIC_4876193.JPG
break,html.Screen,4_18_1,2023-10-31T21:07:37.782Z,,0,,,NaN,,,,,,false,,,,166331.59999996424,166331.29999995232,,166330.79999995232,,166333.328,8,400,,,
break_continue,html.Screen,4_18_2,2023-10-31T21:07:37.783Z,,0,,,NaN,,,,,,false,,,,166332.19999998808,166331.89999997616,,166331.69999998808,,166333.328,8,400,,,
sequence,flow.Sequence,4_18,2023-10-31T21:07:37.783Z,,0,,,3588.856999976153,completion,,,,,false,,,,166332.39999997616,166331.89999997616,162735.933,162740.39999997616,162743.043,166333.328,8,400,,,
trial,html.Screen,4_19_0,2023-10-31T21:07:43.821Z,,0,1,,6036.171999999991,response,ISIC_7519627.JPG,6,ISIC_0068152.JPG,ISIC_0068152.JPG,false,0,keypress(z),500,172369.79999995232,172369.5,166326.548,166332.59999996424,166333.328,172374.974,8,400,20,,ISIC_7519627.JPG
break,html.Screen,4_19_1,2023-10-31T21:07:43.822Z,,0,,,NaN,,,,,,false,,,,172370.79999995232,172370.59999996424,,172370.09999996424,,172374.974,8,400,,,
break_continue,html.Screen,4_19_2,2023-10-31T21:07:43.822Z,,0,,,NaN,,,,,,false,,,,172371.39999997616,172371.19999998808,,172371,,172374.974,8,400,,,
sequence,flow.Sequence,4_19,2023-10-31T21:07:43.823Z,,0,,,6037.8719999880705,completion,,,,,false,,,,172371.69999998808,172371.19999998808,166326.548,166332.59999996424,166333.328,172374.974,8,400,,,
trial,html.Screen,4_20_0,2023-10-31T21:07:47.189Z,,0,1,,3362.9259999761707,response,ISIC_6717727.JPG,12,ISIC_0000467.JPG,ISIC_0000467.JPG,false,0,keypress(z),500,175738.29999995232,175737.89999997616,172367.911,172371.89999997616,172374.974,175743.031,8,400,21,,ISIC_6717727.JPG
break,html.Screen,4_20_1,2023-10-31T21:07:47.190Z,,0,,,NaN,,,,,,false,,,,175739.19999998808,175738.89999997616,,175738.5,,175743.031,8,400,,,
break_continue,html.Screen,4_20_2,2023-10-31T21:07:47.191Z,,0,,,NaN,,,,,,false,,,,175739.89999997616,175739.59999996424,,175739.39999997616,,175743.031,8,400,,,
sequence,flow.Sequence,4_20,2023-10-31T21:07:47.191Z,,0,,,3364.62599996425,completion,,,,,false,,,,175740.09999996424,175739.59999996424,172367.911,172371.89999997616,172374.974,175743.031,8,400,,,
trial,html.Screen,4_21_0,2023-10-31T21:07:50.574Z,,0,1,,3379.268999952328,response,ISIC_0026943.JPG,8,ISIC_0071180.JPG,ISIC_0071180.JPG,false,0,keypress(z),500,179122.59999996424,179122.29999995232,175736.107,175740.39999997616,175743.031,179124.976,8,400,22,,ISIC_0026943.JPG
break,html.Screen,4_21_1,2023-10-31T21:07:50.575Z,,0,,,NaN,,,,,,false,,,,179123.59999996424,179123.29999995232,,179123,,179124.976,8,400,,,
break_continue,html.Screen,4_21_2,2023-10-31T21:07:50.575Z,,0,,,NaN,,,,,,false,,,,179124.19999998808,179124,,179123.79999995232,,179124.976,8,400,,,
sequence,flow.Sequence,4_21,2023-10-31T21:07:50.576Z,,0,,,3380.969000000012,completion,,,,,false,,,,179124.59999996424,179124,175736.107,175740.29999995232,175743.031,179124.976,8,400,,,
trial,html.Screen,4_22_0,2023-10-31T21:07:53.398Z,,0,1,,2821.223999988084,response,ISIC_0981639.JPG,6,ISIC_0013096.JPG,ISIC_0013096.JPG,false,0,keypress(z),500,181946.59999996424,181946.19999998808,179118.121,179124.89999997616,179124.976,181951.326,8,400,23,,ISIC_0981639.JPG
break,html.Screen,4_22_1,2023-10-31T21:07:53.399Z,,0,,,NaN,,,,,,false,,,,181947.79999995232,181947.5,,181947,,181951.326,8,400,,,
break_continue,html.Screen,4_22_2,2023-10-31T21:07:53.399Z,,0,,,NaN,,,,,,false,,,,181948.29999995232,181948.09999996424,,181948,,181951.326,8,400,,,
sequence,flow.Sequence,4_22,2023-10-31T21:07:53.399Z,,0,,,2823.123999964242,completion,,,,,false,,,,181948.59999996424,181948.09999996424,179118.121,179124.89999997616,179124.976,181951.326,8,400,,,
trial,html.Screen,4_23_0,2023-10-31T21:07:56.620Z,,0,1,,3217.2739999642363,response,ISIC_0010143.JPG,9,ISIC_0046597.JPG,ISIC_0046597.JPG,false,0,keypress(z),500,185168.79999995232,185168.59999996424,181944.504,181948.79999995232,181951.326,185173.559,8,400,24,,ISIC_0010143.JPG
break,html.Screen,4_23_1,2023-10-31T21:07:56.621Z,,0,,,NaN,,,,,,false,,,,185169.89999997616,185169.59999996424,,185169.19999998808,,185173.559,8,400,,,
break_continue,html.Screen,4_23_2,2023-10-31T21:07:56.621Z,,0,,,NaN,,,,,,false,,,,185170.39999997616,185170.29999995232,,185170.09999996424,,185173.559,8,400,,,
sequence,flow.Sequence,4_23,2023-10-31T21:07:56.622Z,,0,,,3218.9739999523154,completion,,,,,false,,,,185170.69999998808,185170.29999995232,181944.504,181948.69999998808,181951.326,185173.559,8,400,,,
trial,html.Screen,4_24_0,2023-10-31T21:07:59.910Z,,0,1,,3285.1409999880707,response,ISIC_2748873.JPG,6,ISIC_0071904.JPG,ISIC_0071904.JPG,false,0,keypress(z),500,188459,188458.69999998808,185166.5,185170.89999997616,185173.559,188465.225,8,400,25,,ISIC_2748873.JPG
break,html.Screen,4_24_1,2023-10-31T21:07:59.911Z,,0,,,NaN,,,,,,false,,,,188460,188459.79999995232,,188459.29999995232,,188465.225,8,400,,,
break_continue,html.Screen,4_24_2,2023-10-31T21:07:59.912Z,,0,,,NaN,,,,,,false,,,,188460.59999996424,188460.39999997616,,188460.19999998808,,188465.225,8,400,,,
sequence,flow.Sequence,4_24,2023-10-31T21:07:59.912Z,,0,,,3286.8409999761498,completion,,,,,false,,,,188460.79999995232,188460.39999997616,185166.5,185170.79999995232,185173.559,188465.225,8,400,,,
trial,html.Screen,4_25_0,2023-10-31T21:08:03.490Z,,0,1,,3573.774999999994,response,ISIC_0765585.JPG,6,ISIC_7052658.JPG,ISIC_0765585.JPG,false,1,keypress(m),500,192039.29999995232,192039,188458.213,188461.09999996424,188465.225,192041.609,8,400,26,,ISIC_7052658.JPG
break,html.Screen,4_25_1,2023-10-31T21:08:03.491Z,,0,,,NaN,,,,,,false,,,,192040.29999995232,192040.09999996424,,192039.59999996424,,192041.609,8,400,,,
break_continue,html.Screen,4_25_2,2023-10-31T21:08:03.492Z,,0,,,NaN,,,,,,false,,,,192040.89999997616,192040.69999998808,,192040.5,,192041.609,8,400,,,
sequence,flow.Sequence,4_25,2023-10-31T21:08:03.492Z,,0,,,3575.4749999880733,completion,,,,,false,,,,192041.09999996424,192040.69999998808,188458.213,188461,188465.225,192041.609,8,400,,,
trial,html.Screen,4_26_0,2023-10-31T21:08:07.022Z,,0,1,,3528.6909999523195,response,ISIC_3495799.JPG,8,ISIC_0058781.JPG,ISIC_0058781.JPG,false,0,keypress(z),500,195570.59999996424,195570.29999995232,192034.697,192041.29999995232,192041.609,195576.321,8,400,27,,ISIC_3495799.JPG
break,html.Screen,4_26_1,2023-10-31T21:08:07.023Z,,0,,,NaN,,,,,,false,,,,195571.59999996424,195571.39999997616,,195571,,195576.321,8,400,,,
break_continue,html.Screen,4_26_2,2023-10-31T21:08:07.023Z,,0,,,NaN,,,,,,false,,,,195572.09999996424,195572,,195571.69999998808,,195576.321,8,400,,,
sequence,flow.Sequence,4_26,2023-10-31T21:08:07.023Z,,0,,,3530.3910000000033,completion,,,,,false,,,,195572.39999997616,195572,192034.697,192041.29999995232,192041.609,195576.321,8,400,,,
trial,html.Screen,4_27_0,2023-10-31T21:08:10.151Z,,0,1,,3123.47899995232,response,ISIC_0561634.JPG,11,ISIC_0026010.JPG,ISIC_0561634.JPG,false,1,keypress(m),500,198700.09999996424,198699.79999995232,195569.339,195572.59999996424,195576.321,198708.264,8,400,28,,ISIC_0026010.JPG
break,html.Screen,4_27_1,2023-10-31T21:08:10.152Z,,0,,,NaN,,,,,,false,,,,198701.09999996424,198700.89999997616,,198700.39999997616,,198708.264,8,400,,,
break_continue,html.Screen,4_27_2,2023-10-31T21:08:10.153Z,,0,,,NaN,,,,,,false,,,,198701.79999995232,198701.59999996424,,198701.39999997616,,198708.264,8,400,,,
sequence,flow.Sequence,4_27,2023-10-31T21:08:10.153Z,,0,,,3125.278999964241,completion,,,,,false,,,,198702,198701.59999996424,195569.339,195572.5,195576.321,198708.264,8,400,,,
trial,html.Screen,4_28_0,2023-10-31T21:08:14.513Z,,0,1,,4353.835999964242,response,ISIC_0011264.JPG,7,ISIC_6126554.JPG,ISIC_6126554.JPG,false,0,keypress(z),500,203062.39999997616,203062.09999996424,198694.444,198702.29999995232,198708.264,203069.361,8,400,29,,ISIC_0011264.JPG
break,html.Screen,4_28_1,2023-10-31T21:08:14.514Z,,0,,,NaN,,,,,,false,,,,203063.39999997616,203063.09999996424,,203062.69999998808,,203069.361,8,400,,,
break_continue,html.Screen,4_28_2,2023-10-31T21:08:14.515Z,,0,,,NaN,,,,,,false,,,,203064,203063.79999995232,,203063.69999998808,,203069.361,8,400,,,
sequence,flow.Sequence,4_28,2023-10-31T21:08:14.515Z,,0,,,4355.535999952321,completion,,,,,false,,,,203064.29999995232,203063.79999995232,198694.444,198702.19999998808,198708.264,203069.361,8,400,,,
trial,html.Screen,4_29_0,2023-10-31T21:08:17.533Z,,0,1,,3011.8389999880746,response,ISIC_0032873.JPG,9,ISIC_0024894.JPG,ISIC_0032873.JPG,false,1,keypress(m),500,206081.59999996424,206081.19999998808,203062.371,203064.39999997616,203069.361,206097.229,8,400,30,,ISIC_0024894.JPG
break,html.Screen,4_29_1,2023-10-31T21:08:17.534Z,,0,,,NaN,,,,,,false,,,,206082.59999996424,206082.29999995232,,206081.89999997616,,206097.229,8,400,,,
break_continue,html.Screen,4_29_2,2023-10-31T21:08:17.534Z,,0,,,NaN,,,,,,false,,,,206083.19999998808,206083,,206082.79999995232,,206097.229,8,400,,,
sequence,flow.Sequence,4_29,2023-10-31T21:08:17.534Z,,0,,,3013.6389999999956,completion,,,,,false,,,,206083.39999997616,206083,203062.371,203064.39999997616,203069.361,206097.229,8,400,,,
trial,html.Screen,4_30_0,2023-10-31T21:08:20.376Z,,0,1,,2827.570999952324,response,ISIC_0025580.JPG,4,ISIC_7583134.JPG,ISIC_0025580.JPG,false,1,keypress(m),500,208925,208924.79999995232,206076.482,206083.59999996424,206097.229,208930.421,8,400,31,,ISIC_7583134.JPG
break,html.Screen,4_30_1,2023-10-31T21:08:20.377Z,,0,,,NaN,,,,,,false,,,,208925.79999995232,208925.59999996424,,208925.29999995232,,208930.421,8,400,,,
break_continue,html.Screen,4_30_2,2023-10-31T21:08:20.377Z,,0,,,NaN,,,,,,false,,,,208926.29999995232,208926.19999998808,,208926,,208930.421,8,400,,,
sequence,flow.Sequence,4_30,2023-10-31T21:08:20.378Z,,0,,,2828.970999988087,completion,,,,,false,,,,208926.59999996424,208926.19999998808,206076.482,206083.5,206097.229,208930.421,8,400,,,
trial,html.Screen,4_31_0,2023-10-31T21:08:23.137Z,,0,1,,2755.478999976156,response,ISIC_0009993.JPG,6,ISIC_8383600.JPG,ISIC_0009993.JPG,false,1,keypress(m),500,211686.29999995232,211685.89999997616,208923.495,208926.79999995232,208930.421,211694.36,8,400,32,,ISIC_8383600.JPG
break,html.Screen,4_31_1,2023-10-31T21:08:23.138Z,,0,,,NaN,,,,,,false,,,,211687.5,211687.09999996424,,211686.69999998808,,211694.36,8,400,,,
break_continue,html.Screen,4_31_2,2023-10-31T21:08:23.139Z,,0,,,NaN,,,,,,false,,,,211688,211687.89999997616,,211687.69999998808,,211694.36,8,400,,,
sequence,flow.Sequence,4_31,2023-10-31T21:08:23.139Z,,0,,,2757.478999976156,completion,,,,,false,,,,211688.29999995232,211687.89999997616,208923.495,208926.69999998808,208930.421,211694.36,8,400,,,
trial,html.Screen,4_32_0,2023-10-31T21:08:26.331Z,,0,1,,3185.739999964251,response,ISIC_0056089.JPG,11,ISIC_7666224.JPG,ISIC_0056089.JPG,false,1,keypress(m),500,214880.39999997616,214880.09999996424,211687.355,211688.5,211694.36,214896.221,8,400,33,,ISIC_7666224.JPG
break,html.Screen,4_32_1,2023-10-31T21:08:26.332Z,,0,,,NaN,,,,,,false,,,,214881.39999997616,214881.09999996424,,214880.69999998808,,214896.221,8,400,,,
break_continue,html.Screen,4_32_2,2023-10-31T21:08:26.333Z,,0,,,NaN,,,,,,false,,,,214882,214881.79999995232,,214881.59999996424,,214896.221,8,400,,,
sequence,flow.Sequence,4_32,2023-10-31T21:08:26.333Z,,0,,,3187.4399999523303,completion,,,,,false,,,,214882.29999995232,214881.79999995232,211687.355,211688.5,211694.36,214896.221,8,400,,,
trial,html.Screen,4_33_0,2023-10-31T21:08:29.607Z,,0,1,,3259.3789999642468,response,ISIC_2333274.JPG,7,ISIC_9611100.JPG,ISIC_9611100.JPG,false,0,keypress(z),500,218155.79999995232,218155.59999996424,214874.906,214882.5,214896.221,218159.592,8,400,34,,ISIC_2333274.JPG
break,html.Screen,4_33_1,2023-10-31T21:08:29.608Z,,0,,,NaN,,,,,,false,,,,218156.89999997616,218156.59999996424,,218156.19999998808,,218159.592,8,400,,,
break_continue,html.Screen,4_33_2,2023-10-31T21:08:29.608Z,,0,,,NaN,,,,,,false,,,,218157.39999997616,218157.19999998808,,218157,,218159.592,8,400,,,
sequence,flow.Sequence,4_33,2023-10-31T21:08:29.609Z,,0,,,3260.9789999880886,completion,,,,,false,,,,218157.69999998808,218157.19999998808,214874.906,214882.39999997616,214896.221,218159.592,8,400,,,
trial,html.Screen,4_34_0,2023-10-31T21:08:32.370Z,,0,1,,2758.607999988075,response,ISIC_0028291.JPG,12,ISIC_4649440.JPG,ISIC_0028291.JPG,false,1,keypress(m),500,220918.59999996424,220918.19999998808,218152.56,218157.89999997616,218159.592,220923.493,8,400,35,,ISIC_4649440.JPG
break,html.Screen,4_34_1,2023-10-31T21:08:32.371Z,,0,,,NaN,,,,,,false,,,,220919.59999996424,220919.29999995232,,220918.89999997616,,220923.493,8,400,,,
break_continue,html.Screen,4_34_2,2023-10-31T21:08:32.371Z,,0,,,NaN,,,,,,false,,,,220920.19999998808,220920,,220919.79999995232,,220923.493,8,400,,,
sequence,flow.Sequence,4_34,2023-10-31T21:08:32.371Z,,0,,,2760.407999999996,completion,,,,,false,,,,220920.39999997616,220920,218152.56,218157.79999995232,218159.592,220923.493,8,400,,,
trial,html.Screen,4_35_0,2023-10-31T21:08:35.629Z,,0,1,,3253.9069999761705,response,ISIC_0010895.JPG,4,ISIC_0026160.JPG,ISIC_0026160.JPG,false,0,keypress(z),500,224177.69999998808,224177.39999997616,220916.434,220920.69999998808,220923.493,224180.441,8,400,36,,ISIC_0010895.JPG
break,html.Screen,4_35_1,2023-10-31T21:08:35.630Z,,0,,,NaN,,,,,,false,,,,224178.69999998808,224178.39999997616,,224178,,224180.441,8,400,,,
break_continue,html.Screen,4_35_2,2023-10-31T21:08:35.630Z,,0,,,NaN,,,,,,false,,,,224179.29999995232,224179.09999996424,,224178.89999997616,,224180.441,8,400,,,
sequence,flow.Sequence,4_35,2023-10-31T21:08:35.630Z,,0,,,3255.6069999642496,completion,,,,,false,,,,224179.5,224179.09999996424,220916.434,220920.59999996424,220923.493,224180.441,8,400,,,
trial,html.Screen,4_36_0,2023-10-31T21:08:39.256Z,,0,1,,3624.1589999642456,response,ISIC_6882733.JPG,12,ISIC_1396573.JPG,ISIC_1396573.JPG,false,0,keypress(z),500,227805,227804.59999996424,224173.399,224179.69999998808,224180.441,227812.288,8,400,37,,ISIC_6882733.JPG
break,html.Screen,4_36_1,2023-10-31T21:08:39.257Z,,0,,,NaN,,,,,,false,,,,227806.09999996424,227805.79999995232,,227805.39999997616,,227812.288,8,400,,,
break_continue,html.Screen,4_36_2,2023-10-31T21:08:39.258Z,,0,,,NaN,,,,,,false,,,,227806.59999996424,227806.39999997616,,227806.19999998808,,227812.288,8,400,,,
sequence,flow.Sequence,4_36,2023-10-31T21:08:39.258Z,,0,,,3625.9589999761665,completion,,,,,false,,,,227806.79999995232,227806.39999997616,224173.399,224179.59999996424,224180.441,227812.288,8,400,,,
trial,html.Screen,4_37_0,2023-10-31T21:08:42.208Z,,0,1,,2945.011999952316,response,ISIC_6323420.JPG,6,ISIC_0057307.JPG,ISIC_6323420.JPG,false,1,keypress(m),500,230757.5,230757.29999995232,227805.456,227807,227812.288,230763.717,8,400,38,,ISIC_0057307.JPG
break,html.Screen,4_37_1,2023-10-31T21:08:42.209Z,,0,,,NaN,,,,,,false,,,,230758.29999995232,230758.19999998808,,230757.79999995232,,230763.717,8,400,,,
break_continue,html.Screen,4_37_2,2023-10-31T21:08:42.210Z,,0,,,NaN,,,,,,false,,,,230758.79999995232,230758.69999998808,,230758.5,,230763.717,8,400,,,
sequence,flow.Sequence,4_37,2023-10-31T21:08:42.210Z,,0,,,2946.4119999880786,completion,,,,,false,,,,230759,230758.69999998808,227805.456,227807,227812.288,230763.717,8,400,,,
trial,html.Screen,4_38_0,2023-10-31T21:08:45.243Z,,0,1,,3027.882999964233,response,ISIC_0057199.JPG,11,ISIC_0006327.JPG,ISIC_0006327.JPG,false,0,keypress(z),500,233792,233791.59999996424,230756.763,230759.19999998808,230763.717,233798.475,8,400,39,,ISIC_0057199.JPG
break,html.Screen,4_38_1,2023-10-31T21:08:45.244Z,,0,,,NaN,,,,,,false,,,,233793,233792.69999998808,,233792.29999995232,,233798.475,8,400,,,
break_continue,html.Screen,4_38_2,2023-10-31T21:08:45.244Z,,0,,,NaN,,,,,,false,,,,233793.39999997616,233793.29999995232,,233793.19999998808,,233798.475,8,400,,,
sequence,flow.Sequence,4_38,2023-10-31T21:08:45.245Z,,0,,,3029.582999952312,completion,,,,,false,,,,233793.69999998808,233793.29999995232,230756.763,230759.09999996424,230763.717,233798.475,8,400,,,
trial,html.Screen,4_39_0,2023-10-31T21:08:48.198Z,,0,1,,2948.1249999642314,response,ISIC_4870676.JPG,6,ISIC_0025941.JPG,ISIC_4870676.JPG,false,1,keypress(m),500,236747,236746.59999996424,233791.464,233794,233798.475,236749.87,8,400,40,,ISIC_0025941.JPG
break,html.Screen,4_39_1,2023-10-31T21:08:48.199Z,,0,,,NaN,,,,,,false,,,,236747.89999997616,236747.69999998808,,236747.29999995232,,236749.87,8,400,,,
break_continue,html.Screen,4_39_2,2023-10-31T21:08:48.199Z,,0,,,NaN,,,,,,false,,,,236748.5,236748.39999997616,,236748.19999998808,,236749.87,8,400,,,
sequence,flow.Sequence,4_39,2023-10-31T21:08:48.200Z,,0,,,2949.9249999761523,completion,,,,,false,,,,236748.79999995232,236748.39999997616,233791.464,233793.89999997616,233798.475,236749.87,8,400,,,
trial,html.Screen,4_40_0,2023-10-31T21:08:51.163Z,,0,1,,2962.529999976163,response,ISIC_0011780.JPG,11,ISIC_0003438.JPG,ISIC_0011780.JPG,false,1,keypress(m),500,239712.5,239712.39999997616,236742.936,236749.09999996424,236749.87,239715.08,8,400,41,,ISIC_0003438.JPG
break,html.Screen,4_40_1,2023-10-31T21:08:51.164Z,,0,,,NaN,,,,,,false,,,,239712.89999997616,239712.79999995232,,239712.59999996424,,239715.08,8,400,,,
break_continue,html.Screen,4_40_2,2023-10-31T21:08:51.164Z,,0,,,NaN,,,,,,false,,,,239713.09999996424,239713,,239712.89999997616,,239715.08,8,400,,,
sequence,flow.Sequence,4_40,2023-10-31T21:08:51.164Z,,0,,,2963.1300000000047,completion,,,,,false,,,,239713.19999998808,239713,236742.936,236749,236749.87,239715.08,8,400,,,
trial,html.Screen,4_41_0,2023-10-31T21:08:54.892Z,,0,1,,3729.319999976171,response,ISIC_7672106.JPG,7,ISIC_0645116.JPG,ISIC_7672106.JPG,false,1,keypress(m),500,243444.79999995232,243444.39999997616,239708.206,239713.29999995232,239715.08,243451.233,8,400,42,,ISIC_0645116.JPG
break,html.Screen,4_41_1,2023-10-31T21:08:54.893Z,,0,,,NaN,,,,,,false,,,,243445.79999995232,243445.5,,243445,,243451.233,8,400,,,
break_continue,html.Screen,4_41_2,2023-10-31T21:08:54.893Z,,0,,,NaN,,,,,,false,,,,243446.29999995232,243446.09999996424,,243446,,243451.233,8,400,,,
sequence,flow.Sequence,4_41,2023-10-31T21:08:54.893Z,,0,,,3731.01999996425,completion,,,,,false,,,,243446.59999996424,243446.09999996424,239708.206,239713.19999998808,239715.08,243451.233,8,400,,,
trial,html.Screen,4_42_0,2023-10-31T21:08:57.990Z,,0,1,,3091.566999952309,response,ISIC_0567814.JPG,12,ISIC_4679971.JPG,ISIC_0567814.JPG,false,1,keypress(m),500,246543.19999998808,246542.79999995232,243444.257,243446.79999995232,243451.233,246548.448,8,400,43,,ISIC_4679971.JPG
break,html.Screen,4_42_1,2023-10-31T21:08:57.991Z,,0,,,NaN,,,,,,false,,,,246544.19999998808,246543.89999997616,,246543.5,,246548.448,8,400,,,
break_continue,html.Screen,4_42_2,2023-10-31T21:08:57.992Z,,0,,,NaN,,,,,,false,,,,246544.69999998808,246544.5,,246544.39999997616,,246548.448,8,400,,,
sequence,flow.Sequence,4_42,2023-10-31T21:08:57.992Z,,0,,,3093.2669999999925,completion,,,,,false,,,,246545,246544.5,243444.257,243446.69999998808,243451.233,246548.448,8,400,,,
trial,html.Screen,4_43_0,2023-10-31T21:09:01.066Z,,0,1,,3070.551999999996,response,ISIC_0883408.JPG,6,ISIC_0058909.JPG,ISIC_0058909.JPG,false,0,keypress(z),500,249619.29999995232,249619,246541.386,246545.19999998808,246548.448,249631.814,8,400,44,,ISIC_0883408.JPG
break,html.Screen,4_43_1,2023-10-31T21:09:01.067Z,,0,,,NaN,,,,,,false,,,,249620.39999997616,249620.19999998808,,249619.69999998808,,249631.814,8,400,,,
break_continue,html.Screen,4_43_2,2023-10-31T21:09:01.068Z,,0,,,NaN,,,,,,false,,,,249621,249620.69999998808,,249620.5,,249631.814,8,400,,,
sequence,flow.Sequence,4_43,2023-10-31T21:09:01.068Z,,0,,,3072.251999988075,completion,,,,,false,,,,249621.19999998808,249620.69999998808,246541.386,246545.19999998808,246548.448,249631.814,8,400,,,
trial,html.Screen,4_44_0,2023-10-31T21:09:03.872Z,,0,1,,2793.285999964224,response,ISIC_0360988.JPG,11,ISIC_5366657.JPG,ISIC_0360988.JPG,false,1,keypress(m),500,252425.39999997616,252425.09999996424,249624.838,249621.39999997616,249631.814,252430.377,8,400,45,,ISIC_5366657.JPG
break,html.Screen,4_44_1,2023-10-31T21:09:03.873Z,,0,,,NaN,,,,,,false,,,,252426.39999997616,252426.19999998808,,252425.69999998808,,252430.377,8,400,,,
break_continue,html.Screen,4_44_2,2023-10-31T21:09:03.874Z,,0,,,NaN,,,,,,false,,,,252426.89999997616,252426.69999998808,,252426.59999996424,,252430.377,8,400,,,
sequence,flow.Sequence,4_44,2023-10-31T21:09:03.874Z,,0,,,2794.885999988066,completion,,,,,false,,,,252427.19999998808,252426.69999998808,249624.838,249621.29999995232,249631.814,252430.377,8,400,,,
trial,html.Screen,4_45_0,2023-10-31T21:09:06.811Z,,0,1,,2933.6229999999923,response,ISIC_0013610.JPG,10,ISIC_7575815.JPG,ISIC_7575815.JPG,false,0,keypress(z),500,255364.29999995232,255364,252423.39,252427.5,252430.377,255367.878,8,400,46,,ISIC_0013610.JPG
break,html.Screen,4_45_1,2023-10-31T21:09:06.812Z,,0,,,NaN,,,,,,false,,,,255365.29999995232,255365.09999996424,,255364.69999998808,,255367.878,8,400,,,
break_continue,html.Screen,4_45_2,2023-10-31T21:09:06.813Z,,0,,,NaN,,,,,,false,,,,255365.89999997616,255365.69999998808,,255365.59999996424,,255367.878,8,400,,,
sequence,flow.Sequence,4_45,2023-10-31T21:09:06.813Z,,0,,,2935.3229999880714,completion,,,,,false,,,,255366.09999996424,255365.69999998808,252423.39,252427.39999997616,252430.377,255367.878,8,400,,,
trial,html.Screen,4_46_0,2023-10-31T21:09:09.556Z,,0,1,,2740.821999988082,response,ISIC_3747979.JPG,9,ISIC_0033696.JPG,ISIC_0033696.JPG,false,0,keypress(z),500,258109.09999996424,258108.69999998808,255361.029,255366.29999995232,255367.878,258124.652,8,400,47,,ISIC_3747979.JPG
break,html.Screen,4_46_1,2023-10-31T21:09:09.557Z,,0,,,NaN,,,,,,false,,,,258110,258109.79999995232,,258109.29999995232,,258124.652,8,400,,,
break_continue,html.Screen,4_46_2,2023-10-31T21:09:09.557Z,,0,,,NaN,,,,,,false,,,,258110.59999996424,258110.5,,258110.19999998808,,258124.652,8,400,,,
sequence,flow.Sequence,4_46,2023-10-31T21:09:09.558Z,,0,,,2742.622000000003,completion,,,,,false,,,,258111,258110.5,255361.029,255366.29999995232,255367.878,258124.652,8,400,,,
trial,html.Screen,4_47_0,2023-10-31T21:09:12.585Z,,0,1,,3013.547999988077,response,ISIC_0056849.JPG,7,ISIC_4646815.JPG,ISIC_4646815.JPG,false,0,keypress(z),500,261138.5,261138.19999998808,258104.009,258111.09999996424,258124.652,261145.617,8,400,48,,ISIC_0056849.JPG
break,html.Screen,4_47_1,2023-10-31T21:09:12.586Z,,0,,,NaN,,,,,,false,,,,261139.59999996424,261139.29999995232,,261138.79999995232,,261145.617,8,400,,,
break_continue,html.Screen,4_47_2,2023-10-31T21:09:12.587Z,,0,,,NaN,,,,,,false,,,,261140.19999998808,261140,,261139.79999995232,,261145.617,8,400,,,
sequence,flow.Sequence,4_47,2023-10-31T21:09:12.587Z,,0,,,3015.347999999998,completion,,,,,false,,,,261140.39999997616,261140,258104.009,258111.09999996424,258124.652,261145.617,8,400,,,
trial,html.Screen,4_48_0,2023-10-31T21:09:15.614Z,,0,1,,3020.982999964239,response,ISIC_2379024.JPG,7,ISIC_8222254.JPG,ISIC_8222254.JPG,false,0,keypress(z),500,264166.89999997616,264166.59999996424,261138.719,261140.69999998808,261145.617,264173.421,8,400,49,,ISIC_2379024.JPG
break,html.Screen,4_48_1,2023-10-31T21:09:15.615Z,,0,,,NaN,,,,,,false,,,,264168,264167.59999996424,,264167.1999999881,,264173.421,8,400,,,
break_continue,html.Screen,4_48_2,2023-10-31T21:09:15.615Z,,0,,,NaN,,,,,,false,,,,264168.5,264168.2999999523,,264168.1999999881,,264173.421,8,400,,,
sequence,flow.Sequence,4_48,2023-10-31T21:09:15.616Z,,0,,,3022.682999952318,completion,,,,,false,,,,264168.6999999881,264168.2999999523,261138.719,261140.59999996424,261145.617,264173.421,8,400,,,
trial,html.Screen,4_49_0,2023-10-31T21:09:18.709Z,,0,1,,3087.978999976185,response,ISIC_0034172.JPG,5,ISIC_1265755.JPG,ISIC_1265755.JPG,false,0,keypress(z),500,267261.6999999881,267261.39999997616,264166.563,264169,264173.421,267276.999,8,400,50,,ISIC_0034172.JPG
break,html.Screen,4_49_1,2023-10-31T21:09:28.718Z,,0,,,10000.569000000018,timeout,,,,,false,,,,277271.5,277270.618,267256.684,267262.09999996424,267276.999,277277.568,8,400,,,
break_continue,html.Screen,4_49_2,2023-10-31T21:10:28.417Z,,0,,,59671.53199996421,response,,,,,false,continue,keypress(Space),,336967.09999996424,336949.09999996424,277270.618,277271.6999999881,277277.568,336971.773,8,400,,,
sequence,flow.Sequence,4_49,2023-10-31T21:10:28.418Z,,0,,,72775.67899996426,completion,,,,,false,,,,336967.39999997616,336949.09999996424,264166.563,264169,264173.421,336971.773,8,400,,,
trial,html.Screen,4_50_0,2023-10-31T21:10:31.204Z,,0,2,,2781.52699995233,response,ISIC_0071972.JPG,5,ISIC_0030660.JPG,ISIC_0030660.JPG,false,0,keypress(z),500,339753.59999996424,339753.2999999523,336967.19,336967.59999996424,336971.773,339756.619,8,400,1,,ISIC_0071972.JPG
break,html.Screen,4_50_1,2023-10-31T21:10:31.205Z,,0,,,NaN,,,,,,false,,,,339754.59999996424,339754.39999997616,,339753.89999997616,,339756.619,8,400,,,
break_continue,html.Screen,4_50_2,2023-10-31T21:10:31.205Z,,0,,,NaN,,,,,,false,,,,339755.1999999881,339755,,339754.7999999523,,339756.619,8,400,,,
sequence,flow.Sequence,4_50,2023-10-31T21:10:31.206Z,,0,,,2783.2270000000135,completion,,,,,false,,,,339755.5,339755,336967.19,336967.59999996424,336971.773,339756.619,8,400,,,
trial,html.Screen,4_51_0,2023-10-31T21:10:34.201Z,,0,2,,2993.6809999523102,response,ISIC_7997132.JPG,5,ISIC_9012513.JPG,ISIC_9012513.JPG,false,0,keypress(z),500,342750.59999996424,342750.2999999523,339749.554,339755.6999999881,339756.619,342756.598,8,400,2,,ISIC_7997132.JPG
break,html.Screen,4_51_1,2023-10-31T21:10:34.202Z,,0,,,NaN,,,,,,false,,,,342751.59999996424,342751.39999997616,,342750.89999997616,,342756.598,8,400,,,
break_continue,html.Screen,4_51_2,2023-10-31T21:10:34.202Z,,0,,,NaN,,,,,,false,,,,342752.1999999881,342752,,342751.7999999523,,342756.598,8,400,,,
sequence,flow.Sequence,4_51,2023-10-31T21:10:34.203Z,,0,,,2995.380999999994,completion,,,,,false,,,,342752.5,342752,339749.554,339755.59999996424,339756.619,342756.598,8,400,,,
trial,html.Screen,4_52_0,2023-10-31T21:10:36.861Z,,0,2,,2653.701999952318,response,ISIC_0067801.JPG,5,ISIC_0011810.JPG,ISIC_0011810.JPG,false,0,keypress(z),500,345410.6999999881,345410.2999999523,342749.486,342752.6999999881,342756.598,345416.228,8,400,3,,ISIC_0067801.JPG
break,html.Screen,4_52_1,2023-10-31T21:10:36.862Z,,0,,,NaN,,,,,,false,,,,345411.6999999881,345411.39999997616,,345411,,345416.228,8,400,,,
break_continue,html.Screen,4_52_2,2023-10-31T21:10:36.863Z,,0,,,NaN,,,,,,false,,,,345412.2999999523,345412.09999996424,,345411.89999997616,,345416.228,8,400,,,
sequence,flow.Sequence,4_52,2023-10-31T21:10:36.863Z,,0,,,2655.501999964239,completion,,,,,false,,,,345412.5,345412.09999996424,342749.486,342752.6999999881,342756.598,345416.228,8,400,,,
trial,html.Screen,4_53_0,2023-10-31T21:10:39.697Z,,0,2,,2830.271999999997,response,ISIC_0595080.JPG,5,ISIC_0687593.JPG,ISIC_0687593.JPG,false,0,keypress(z),500,348246.7999999523,348246.5,345409.464,345412.7999999523,345416.228,348249.667,8,400,4,,ISIC_0595080.JPG
break,html.Screen,4_53_1,2023-10-31T21:10:39.698Z,,0,,,NaN,,,,,,false,,,,348247.89999997616,348247.59999996424,,348247.1999999881,,348249.667,8,400,,,
break_continue,html.Screen,4_53_2,2023-10-31T21:10:39.699Z,,0,,,NaN,,,,,,false,,,,348248.5,348248.2999999523,,348248.09999996424,,348249.667,8,400,,,
sequence,flow.Sequence,4_53,2023-10-31T21:10:39.699Z,,0,,,2832.0719999523135,completion,,,,,false,,,,348248.6999999881,348248.2999999523,345409.464,345412.6999999881,345416.228,348249.667,8,400,,,
trial,html.Screen,4_54_0,2023-10-31T21:10:42.342Z,,0,2,,2641.2329999761423,response,ISIC_8352392.JPG,6,ISIC_9351418.JPG,ISIC_9351418.JPG,false,0,keypress(z),500,350891.2999999523,350890.89999997616,348242.594,348249,348249.667,350895.486,8,400,5,,ISIC_8352392.JPG
break,html.Screen,4_54_1,2023-10-31T21:10:42.343Z,,0,,,NaN,,,,,,false,,,,350892.39999997616,350892.09999996424,,350891.59999996424,,350895.486,8,400,,,
break_continue,html.Screen,4_54_2,2023-10-31T21:10:42.343Z,,0,,,NaN,,,,,,false,,,,350893.09999996424,350892.7999999523,,350892.59999996424,,350895.486,8,400,,,
sequence,flow.Sequence,4_54,2023-10-31T21:10:42.344Z,,0,,,2643.1329999523005,completion,,,,,false,,,,350893.2999999523,350892.7999999523,348242.594,348248.89999997616,348249.667,350895.486,8,400,,,
trial,html.Screen,4_55_0,2023-10-31T21:10:45.210Z,,0,2,,2864.2139999881038,response,ISIC_6801988.JPG,5,ISIC_0027867.JPG,ISIC_6801988.JPG,false,1,keypress(m),500,353760,353759.6999999881,350888.293,350893.59999996424,350895.486,353763.538,8,400,6,,ISIC_0027867.JPG
break,html.Screen,4_55_1,2023-10-31T21:10:45.211Z,,0,,,NaN,,,,,,false,,,,353761.09999996424,353760.89999997616,,353760.2999999523,,353763.538,8,400,,,
break_continue,html.Screen,4_55_2,2023-10-31T21:10:45.212Z,,0,,,NaN,,,,,,false,,,,353761.6999999881,353761.59999996424,,353761.2999999523,,353763.538,8,400,,,
sequence,flow.Sequence,4_55,2023-10-31T21:10:45.212Z,,0,,,2866.113999964262,completion,,,,,false,,,,353762,353761.59999996424,350888.293,350893.5,350895.486,353763.538,8,400,,,
trial,html.Screen,4_56_0,2023-10-31T21:10:47.823Z,,0,2,,2608.6619999880786,response,ISIC_0028082.JPG,5,ISIC_0031926.JPG,ISIC_0028082.JPG,false,1,keypress(m),500,356372.5,356372.1999999881,353756.746,353762.2999999523,353763.538,356382.098,8,400,7,,ISIC_0031926.JPG
break,html.Screen,4_56_1,2023-10-31T21:10:47.824Z,,0,,,NaN,,,,,,false,,,,356373.5,356373.2999999523,,356372.89999997616,,356382.098,8,400,,,
break_continue,html.Screen,4_56_2,2023-10-31T21:10:47.824Z,,0,,,NaN,,,,,,false,,,,356374.09999996424,356373.89999997616,,356373.7999999523,,356382.098,8,400,,,
sequence,flow.Sequence,4_56,2023-10-31T21:10:47.825Z,,0,,,2610.3619999761577,completion,,,,,false,,,,356374.39999997616,356373.89999997616,353756.746,353762.1999999881,353763.538,356382.098,8,400,,,
trial,html.Screen,4_57_0,2023-10-31T21:10:50.276Z,,0,2,,2443.30199997616,response,ISIC_0047004.JPG,5,ISIC_8635889.JPG,ISIC_8635889.JPG,false,0,keypress(z),500,358825.39999997616,358825.39999997616,356367.694,356374.59999996424,356382.098,358839.912,8,400,8,,ISIC_0047004.JPG
break,html.Screen,4_57_1,2023-10-31T21:10:50.276Z,,0,,,NaN,,,,,,false,,,,358825.7999999523,358825.6999999881,,358825.59999996424,,358839.912,8,400,,,
break_continue,html.Screen,4_57_2,2023-10-31T21:10:50.276Z,,0,,,NaN,,,,,,false,,,,358826.09999996424,358825.89999997616,,358825.7999999523,,358839.912,8,400,,,
sequence,flow.Sequence,4_57,2023-10-31T21:10:50.276Z,,0,,,2443.80199997616,completion,,,,,false,,,,358826.1999999881,358825.89999997616,356367.694,356374.59999996424,356382.098,358839.912,8,400,,,
trial,html.Screen,4_58_0,2023-10-31T21:10:52.726Z,,0,2,,2435.887999952305,response,ISIC_0914251.JPG,5,ISIC_6731470.JPG,ISIC_6731470.JPG,false,0,keypress(z),500,361276.09999996424,361275.7999999523,358832.997,358826.2999999523,358839.912,361291.301,8,400,9,,ISIC_0914251.JPG
break,html.Screen,4_58_1,2023-10-31T21:10:52.727Z,,0,,,NaN,,,,,,false,,,,361277.09999996424,361276.7999999523,,361276.39999997616,,361291.301,8,400,,,
break_continue,html.Screen,4_58_2,2023-10-31T21:10:52.728Z,,0,,,NaN,,,,,,false,,,,361277.6999999881,361277.5,,361277.2999999523,,361291.301,8,400,,,
sequence,flow.Sequence,4_58,2023-10-31T21:10:52.728Z,,0,,,2437.587999999989,completion,,,,,false,,,,361278,361277.5,358832.997,358826.2999999523,358839.912,361291.301,8,400,,,
trial,html.Screen,4_59_0,2023-10-31T21:10:55.131Z,,0,2,,2389.2989999642596,response,ISIC_3327201.JPG,4,ISIC_8680266.JPG,ISIC_3327201.JPG,false,1,keypress(m),500,363680.89999997616,363680.59999996424,361284.551,361278.1999999881,361291.301,363687.058,8,400,10,,ISIC_8680266.JPG
break,html.Screen,4_59_1,2023-10-31T21:10:55.132Z,,0,,,NaN,,,,,,false,,,,363681.89999997616,363681.59999996424,,363681.1999999881,,363687.058,8,400,,,
break_continue,html.Screen,4_59_2,2023-10-31T21:10:55.133Z,,0,,,NaN,,,,,,false,,,,363682.5,363682.2999999523,,363682.09999996424,,363687.058,8,400,,,
sequence,flow.Sequence,4_59,2023-10-31T21:10:55.133Z,,0,,,2390.9989999523386,completion,,,,,false,,,,363682.7999999523,363682.2999999523,361284.551,361278.09999996424,361291.301,363687.058,8,400,,,
trial,html.Screen,4_60_0,2023-10-31T21:10:57.632Z,,0,2,,2494.541999964218,response,ISIC_3505339.JPG,5,ISIC_0024333.JPG,ISIC_0024333.JPG,false,0,keypress(z),500,366181.89999997616,366181.59999996424,363680.225,363683.1999999881,363687.058,366187.114,8,400,11,,ISIC_3505339.JPG
break,html.Screen,4_60_1,2023-10-31T21:10:57.633Z,,0,,,NaN,,,,,,false,,,,366182.89999997616,366182.6999999881,,366182.1999999881,,366187.114,8,400,,,
break_continue,html.Screen,4_60_2,2023-10-31T21:10:57.634Z,,0,,,NaN,,,,,,false,,,,366183.5,366183.2999999523,,366183.1999999881,,366187.114,8,400,,,
sequence,flow.Sequence,4_60,2023-10-31T21:10:57.634Z,,0,,,2496.241999952297,completion,,,,,false,,,,366183.7999999523,366183.2999999523,363680.225,363683.09999996424,363687.058,366187.114,8,400,,,
trial,html.Screen,4_61_0,2023-10-31T21:11:00.501Z,,0,2,,2863.485999964236,response,ISIC_5777181.JPG,5,ISIC_0055246.JPG,ISIC_0055246.JPG,false,0,keypress(z),500,369051,369050.59999996424,366180.016,366184,366187.114,369055.163,8,400,12,,ISIC_5777181.JPG
break,html.Screen,4_61_1,2023-10-31T21:11:00.502Z,,0,,,NaN,,,,,,false,,,,369052,369051.6999999881,,369051.2999999523,,369055.163,8,400,,,
break_continue,html.Screen,4_61_2,2023-10-31T21:11:00.503Z,,0,,,NaN,,,,,,false,,,,369052.59999996424,369052.39999997616,,369052.1999999881,,369055.163,8,400,,,
sequence,flow.Sequence,4_61,2023-10-31T21:11:00.503Z,,0,,,2865.2859999761567,completion,,,,,false,,,,369052.89999997616,369052.39999997616,366180.016,366184,366187.114,369055.163,8,400,,,
trial,html.Screen,4_62_0,2023-10-31T21:11:02.954Z,,0,2,,2448.3369999999995,response,ISIC_0013840.JPG,5,ISIC_9223679.JPG,ISIC_9223679.JPG,false,0,keypress(z),500,371503.59999996424,371503.5,369048.186,369053.09999996424,369055.163,371506.463,8,400,13,,ISIC_0013840.JPG
break,html.Screen,4_62_1,2023-10-31T21:11:02.954Z,,0,,,NaN,,,,,,false,,,,371503.89999997616,371503.89999997616,,371503.6999999881,,371506.463,8,400,,,
break_continue,html.Screen,4_62_2,2023-10-31T21:11:02.954Z,,0,,,NaN,,,,,,false,,,,371504.1999999881,371504.09999996424,,371504,,371506.463,8,400,,,
sequence,flow.Sequence,4_62,2023-10-31T21:11:02.955Z,,0,,,2448.9369999642367,completion,,,,,false,,,,371504.1999999881,371504.09999996424,369048.186,369053,369055.163,371506.463,8,400,,,
trial,html.Screen,4_63_0,2023-10-31T21:11:05.516Z,,0,2,,2559.2369999880902,response,ISIC_0058079.JPG,5,ISIC_4136591.JPG,ISIC_4136591.JPG,false,0,keypress(z),500,374066,374065.6999999881,371499.551,371504.2999999523,371506.463,374069.052,8,400,14,,ISIC_0058079.JPG
break,html.Screen,4_63_1,2023-10-31T21:11:05.517Z,,0,,,NaN,,,,,,false,,,,374067.09999996424,374066.7999999523,,374066.2999999523,,374069.052,8,400,,,
break_continue,html.Screen,4_63_2,2023-10-31T21:11:05.518Z,,0,,,NaN,,,,,,false,,,,374067.59999996424,374067.39999997616,,374067.2999999523,,374069.052,8,400,,,
sequence,flow.Sequence,4_63,2023-10-31T21:11:05.518Z,,0,,,2560.9369999761693,completion,,,,,false,,,,374067.89999997616,374067.39999997616,371499.551,371504.2999999523,371506.463,374069.052,8,400,,,
trial,html.Screen,4_64_0,2023-10-31T21:11:08.193Z,,0,2,,2673.447999999975,response,ISIC_7050122.JPG,4,ISIC_0011446.JPG,ISIC_0011446.JPG,false,0,keypress(z),500,376742.89999997616,376742.5,374062.13,374068.1999999881,374069.052,376749.599,8,400,15,,ISIC_7050122.JPG
break,html.Screen,4_64_1,2023-10-31T21:11:08.194Z,,0,,,NaN,,,,,,false,,,,376744,376743.6999999881,,376743.1999999881,,376749.599,8,400,,,
break_continue,html.Screen,4_64_2,2023-10-31T21:11:08.195Z,,0,,,NaN,,,,,,false,,,,376744.5,376744.2999999523,,376744.09999996424,,376749.599,8,400,,,
sequence,flow.Sequence,4_64,2023-10-31T21:11:08.195Z,,0,,,2675.247999952291,completion,,,,,false,,,,376744.7999999523,376744.2999999523,374062.13,374068.09999996424,374069.052,376749.599,8,400,,,
trial,html.Screen,4_65_0,2023-10-31T21:11:10.869Z,,0,2,,2669.200999952329,response,ISIC_2714907.JPG,6,ISIC_0060741.JPG,ISIC_2714907.JPG,false,1,keypress(m),500,379419.09999996424,379418.7999999523,376742.823,376745,376749.599,379423.209,8,400,16,,ISIC_0060741.JPG
break,html.Screen,4_65_1,2023-10-31T21:11:10.870Z,,0,,,NaN,,,,,,false,,,,379420.09999996424,379419.89999997616,,379419.39999997616,,379423.209,8,400,,,
break_continue,html.Screen,4_65_2,2023-10-31T21:11:10.871Z,,0,,,NaN,,,,,,false,,,,379420.6999999881,379420.5,,379420.2999999523,,379423.209,8,400,,,
sequence,flow.Sequence,4_65,2023-10-31T21:11:10.871Z,,0,,,2670.9010000000126,completion,,,,,false,,,,379421,379420.5,376742.823,376745,376749.599,379423.209,8,400,,,
trial,html.Screen,4_66_0,2023-10-31T21:11:13.818Z,,0,2,,2944.090999952343,response,ISIC_0008952.JPG,4,ISIC_0030985.JPG,ISIC_0030985.JPG,false,0,keypress(z),500,382367.6999999881,382367.2999999523,379416.107,379421.1999999881,379423.209,382374.548,8,400,17,,ISIC_0008952.JPG
break,html.Screen,4_66_1,2023-10-31T21:11:13.819Z,,0,,,NaN,,,,,,false,,,,382368.6999999881,382368.39999997616,,382368,,382374.548,8,400,,,
break_continue,html.Screen,4_66_2,2023-10-31T21:11:13.820Z,,0,,,NaN,,,,,,false,,,,382369.1999999881,382369.09999996424,,382368.7999999523,,382374.548,8,400,,,
sequence,flow.Sequence,4_66,2023-10-31T21:11:13.820Z,,0,,,2945.8909999642638,completion,,,,,false,,,,382369.5,382369.09999996424,379416.107,379421.09999996424,379423.209,382374.548,8,400,,,
trial,html.Screen,4_67_0,2023-10-31T21:11:16.447Z,,0,2,,2621.3519999761484,response,ISIC_6609484.JPG,5,ISIC_0732375.JPG,ISIC_6609484.JPG,false,1,keypress(m),500,384996.2999999523,384995.89999997616,382367.51,382369.7999999523,382374.548,384999.59,8,400,18,,ISIC_0732375.JPG
break,html.Screen,4_67_1,2023-10-31T21:11:16.448Z,,0,,,NaN,,,,,,false,,,,384997.2999999523,384997,,384996.5,,384999.59,8,400,,,
break_continue,html.Screen,4_67_2,2023-10-31T21:11:16.448Z,,0,,,NaN,,,,,,false,,,,384998,384997.6999999881,,384997.5,,384999.59,8,400,,,
sequence,flow.Sequence,4_67,2023-10-31T21:11:16.449Z,,0,,,2623.1519999880693,completion,,,,,false,,,,384998.1999999881,384997.6999999881,382367.51,382369.6999999881,382374.548,384999.59,8,400,,,
trial,html.Screen,4_68_0,2023-10-31T21:11:19.091Z,,0,2,,2641.2099999522907,response,ISIC_0065796.JPG,5,ISIC_0033405.JPG,ISIC_0065796.JPG,false,1,keypress(m),500,387641.2999999523,387640.7999999523,384992.753,384998.5,384999.59,387645.408,8,400,19,,ISIC_0033405.JPG
break,html.Screen,4_68_1,2023-10-31T21:11:19.093Z,,0,,,NaN,,,,,,false,,,,387642.2999999523,387642,,387641.5,,387645.408,8,400,,,
break_continue,html.Screen,4_68_2,2023-10-31T21:11:19.093Z,,0,,,NaN,,,,,,false,,,,387643.09999996424,387642.7999999523,,387642.6999999881,,387645.408,8,400,,,
sequence,flow.Sequence,4_68,2023-10-31T21:11:19.094Z,,0,,,2643.2099999522907,completion,,,,,false,,,,387643.2999999523,387642.7999999523,384992.753,384998.39999997616,384999.59,387645.408,8,400,,,
trial,html.Screen,4_69_0,2023-10-31T21:11:21.560Z,,0,2,,2463.8919999523205,response,ISIC_0055826.JPG,5,ISIC_0197584.JPG,ISIC_0197584.JPG,false,0,keypress(z),500,390109.59999996424,390109.2999999523,387638.568,387643.59999996424,387645.408,390117.62,8,400,20,,ISIC_0055826.JPG
break,html.Screen,4_69_1,2023-10-31T21:11:21.561Z,,0,,,NaN,,,,,,false,,,,390110.6999999881,390110.39999997616,,390109.89999997616,,390117.62,8,400,,,
break_continue,html.Screen,4_69_2,2023-10-31T21:11:21.562Z,,0,,,NaN,,,,,,false,,,,390111.1999999881,390111,,390110.89999997616,,390117.62,8,400,,,
sequence,flow.Sequence,4_69,2023-10-31T21:11:21.562Z,,0,,,2465.592000000004,completion,,,,,false,,,,390111.5,390111,387638.568,387643.5,387645.408,390117.62,8,400,,,
trial,html.Screen,4_70_0,2023-10-31T21:11:24.013Z,,0,2,,2444.3800000000047,response,ISIC_7788318.JPG,5,ISIC_4956965.JPG,ISIC_4956965.JPG,false,0,keypress(z),500,392562.2999999523,392562,390110.549,390111.6999999881,390117.62,392569.018,8,400,21,,ISIC_7788318.JPG
break,html.Screen,4_70_1,2023-10-31T21:11:24.014Z,,0,,,NaN,,,,,,false,,,,392563.39999997616,392563.1999999881,,392562.7999999523,,392569.018,8,400,,,
break_continue,html.Screen,4_70_2,2023-10-31T21:11:24.014Z,,0,,,NaN,,,,,,false,,,,392564.09999996424,392563.7999999523,,392563.6999999881,,392569.018,8,400,,,
sequence,flow.Sequence,4_70,2023-10-31T21:11:24.015Z,,0,,,2446.179999952321,completion,,,,,false,,,,392564.2999999523,392563.7999999523,390110.549,390111.6999999881,390117.62,392569.018,8,400,,,
trial,html.Screen,4_71_0,2023-10-31T21:11:26.593Z,,0,2,,2573.2819999523344,response,ISIC_7759376.JPG,5,ISIC_0026700.JPG,ISIC_0026700.JPG,false,0,keypress(z),500,395142.59999996424,395142.2999999523,392562.092,392564.59999996424,392569.018,395145.404,8,400,22,,ISIC_7759376.JPG
break,html.Screen,4_71_1,2023-10-31T21:11:26.594Z,,0,,,NaN,,,,,,false,,,,395143.59999996424,395143.2999999523,,395142.89999997616,,395145.404,8,400,,,
break_continue,html.Screen,4_71_2,2023-10-31T21:11:26.594Z,,0,,,NaN,,,,,,false,,,,395144.1999999881,395144,,395143.7999999523,,395145.404,8,400,,,
sequence,flow.Sequence,4_71,2023-10-31T21:11:26.595Z,,0,,,2574.982000000018,completion,,,,,false,,,,395144.39999997616,395144,392562.092,392564.5,392569.018,395145.404,8,400,,,
trial,html.Screen,4_72_0,2023-10-31T21:11:29.190Z,,0,2,,2593.395999952336,response,ISIC_0026402.JPG,6,ISIC_0952221.JPG,ISIC_0026402.JPG,false,1,keypress(m),500,397739.09999996424,397738.7999999523,395138.428,395144.59999996424,395145.404,397742.623,8,400,23,,ISIC_0952221.JPG
break,html.Screen,4_72_1,2023-10-31T21:11:29.191Z,,0,,,NaN,,,,,,false,,,,397740.09999996424,397739.89999997616,,397739.39999997616,,397742.623,8,400,,,
break_continue,html.Screen,4_72_2,2023-10-31T21:11:29.192Z,,0,,,NaN,,,,,,false,,,,397740.6999999881,397740.59999996424,,397740.2999999523,,397742.623,8,400,,,
sequence,flow.Sequence,4_72,2023-10-31T21:11:29.192Z,,0,,,2595.1959999642568,completion,,,,,false,,,,397741,397740.59999996424,395138.428,395144.59999996424,395145.404,397742.623,8,400,,,
trial,html.Screen,4_73_0,2023-10-31T21:11:32.026Z,,0,2,,2832.176999952295,response,ISIC_0000801.JPG,5,ISIC_0185547.JPG,ISIC_0185547.JPG,false,0,keypress(z),500,400575.09999996424,400574.7999999523,397735.708,397741.1999999881,397742.623,400582.862,8,400,24,,ISIC_0000801.JPG
break,html.Screen,4_73_1,2023-10-31T21:11:32.027Z,,0,,,NaN,,,,,,false,,,,400576.2999999523,400576,,400575.39999997616,,400582.862,8,400,,,
break_continue,html.Screen,4_73_2,2023-10-31T21:11:32.028Z,,0,,,NaN,,,,,,false,,,,400576.89999997616,400576.59999996424,,400576.5,,400582.862,8,400,,,
sequence,flow.Sequence,4_73,2023-10-31T21:11:32.028Z,,0,,,2833.976999964216,completion,,,,,false,,,,400577.09999996424,400576.59999996424,397735.708,397741.1999999881,397742.623,400582.862,8,400,,,
trial,html.Screen,4_74_0,2023-10-31T21:11:34.927Z,,0,2,,2892.7379999642144,response,ISIC_0026231.JPG,5,ISIC_0061188.JPG,ISIC_0061188.JPG,false,0,keypress(z),500,403475.89999997616,403475.59999996424,400575.807,400577.39999997616,400582.862,403478.724,8,400,25,,ISIC_0026231.JPG
break,html.Screen,4_74_1,2023-10-31T21:11:34.928Z,,0,,,NaN,,,,,,false,,,,403476.89999997616,403476.6999999881,,403476.2999999523,,403478.724,8,400,,,
break_continue,html.Screen,4_74_2,2023-10-31T21:11:34.928Z,,0,,,NaN,,,,,,false,,,,403477.59999996424,403477.2999999523,,403477.09999996424,,403478.724,8,400,,,
sequence,flow.Sequence,4_74,2023-10-31T21:11:34.929Z,,0,,,2894.4379999522935,completion,,,,,false,,,,403477.7999999523,403477.2999999523,400575.807,400577.1999999881,400582.862,403478.724,8,400,,,
trial,html.Screen,4_75_0,2023-10-31T21:11:37.603Z,,0,2,,2673.075999952329,response,ISIC_0360367.JPG,5,ISIC_5932383.JPG,ISIC_5932383.JPG,false,0,keypress(z),500,406151.7999999523,406151.7999999523,403471.802,403478,403478.724,406159.325,8,400,26,,ISIC_0360367.JPG
break,html.Screen,4_75_1,2023-10-31T21:11:37.603Z,,0,,,NaN,,,,,,false,,,,406152.1999999881,406152.09999996424,,406151.89999997616,,406159.325,8,400,,,
break_continue,html.Screen,4_75_2,2023-10-31T21:11:37.603Z,,0,,,NaN,,,,,,false,,,,406152.5,406152.39999997616,,406152.2999999523,,406159.325,8,400,,,
sequence,flow.Sequence,4_75,2023-10-31T21:11:37.603Z,,0,,,2673.6759999761707,completion,,,,,false,,,,406152.6999999881,406152.39999997616,403471.802,403478,403478.724,406159.325,8,400,,,
trial,html.Screen,4_76_0,2023-10-31T21:11:40.373Z,,0,2,,2762.7749999642256,response,ISIC_7581199.JPG,4,ISIC_0232101.JPG,ISIC_7581199.JPG,false,1,keypress(m),500,408922.39999997616,408922.09999996424,406152.205,406152.6999999881,406159.325,408930.043,8,400,27,,ISIC_0232101.JPG
break,html.Screen,4_76_1,2023-10-31T21:11:40.374Z,,0,,,NaN,,,,,,false,,,,408923.5,408923.2999999523,,408922.6999999881,,408930.043,8,400,,,
break_continue,html.Screen,4_76_2,2023-10-31T21:11:40.375Z,,0,,,NaN,,,,,,false,,,,408924.09999996424,408923.89999997616,,408923.7999999523,,408930.043,8,400,,,
sequence,flow.Sequence,4_76,2023-10-31T21:11:40.375Z,,0,,,2764.5749999761465,completion,,,,,false,,,,408924.39999997616,408923.89999997616,406152.205,406152.6999999881,406159.325,408930.043,8,400,,,
trial,html.Screen,4_77_0,2023-10-31T21:11:42.970Z,,0,2,,2588.556999964232,response,ISIC_0011007.JPG,4,ISIC_0024961.JPG,ISIC_0011007.JPG,false,1,keypress(m),500,411518.89999997616,411518.59999996424,408923.422,408924.59999996424,408930.043,411534.292,8,400,28,,ISIC_0024961.JPG
break,html.Screen,4_77_1,2023-10-31T21:11:42.971Z,,0,,,NaN,,,,,,false,,,,411519.89999997616,411519.6999999881,,411519.1999999881,,411534.292,8,400,,,
break_continue,html.Screen,4_77_2,2023-10-31T21:11:42.971Z,,0,,,NaN,,,,,,false,,,,411520.59999996424,411520.2999999523,,411520.09999996424,,411534.292,8,400,,,
sequence,flow.Sequence,4_77,2023-10-31T21:11:42.972Z,,0,,,2590.256999952311,completion,,,,,false,,,,411521.09999996424,411520.2999999523,408923.422,408924.59999996424,408930.043,411534.292,8,400,,,
trial,html.Screen,4_78_0,2023-10-31T21:11:45.679Z,,0,2,,2693.707999999984,response,ISIC_6717322.JPG,5,ISIC_0014541.JPG,ISIC_6717322.JPG,false,1,keypress(m),500,414228.39999997616,414228,411527.484,411521.5,411534.292,414235.644,8,400,29,,ISIC_0014541.JPG
break,html.Screen,4_78_1,2023-10-31T21:11:45.680Z,,0,,,NaN,,,,,,false,,,,414229.39999997616,414229.1999999881,,414228.6999999881,,414235.644,8,400,,,
break_continue,html.Screen,4_78_2,2023-10-31T21:11:45.681Z,,0,,,NaN,,,,,,false,,,,414230,414229.7999999523,,414229.59999996424,,414235.644,8,400,,,
sequence,flow.Sequence,4_78,2023-10-31T21:11:45.681Z,,0,,,2695.5079999523005,completion,,,,,false,,,,414230.2999999523,414229.7999999523,411527.484,411521.39999997616,411534.292,414235.644,8,400,,,
trial,html.Screen,4_79_0,2023-10-31T21:11:48.260Z,,0,2,,2573.155999952345,response,ISIC_0027101.JPG,5,ISIC_0024720.JPG,ISIC_0027101.JPG,false,1,keypress(m),500,416808.89999997616,416808.7999999523,414228.65,414230.5,414235.644,416811.979,8,400,30,,ISIC_0024720.JPG
break,html.Screen,4_79_1,2023-10-31T21:11:48.260Z,,0,,,NaN,,,,,,false,,,,416809.1999999881,416809.09999996424,,416809,,416811.979,8,400,,,
break_continue,html.Screen,4_79_2,2023-10-31T21:11:48.260Z,,0,,,NaN,,,,,,false,,,,416809.39999997616,416809.2999999523,,416809.1999999881,,416811.979,8,400,,,
sequence,flow.Sequence,4_79,2023-10-31T21:11:48.260Z,,0,,,2573.655999952345,completion,,,,,false,,,,416809.39999997616,416809.2999999523,414228.65,414230.39999997616,414235.644,416811.979,8,400,,,
trial,html.Screen,4_80_0,2023-10-31T21:11:50.677Z,,0,2,,2414.320999952324,response,ISIC_7131973.JPG,4,ISIC_2307760.JPG,ISIC_2307760.JPG,false,0,keypress(z),500,419226.59999996424,419226.2999999523,416805.097,416809.5,416811.979,419236.695,8,400,31,,ISIC_7131973.JPG
break,html.Screen,4_80_1,2023-10-31T21:11:50.678Z,,0,,,NaN,,,,,,false,,,,419227.59999996424,419227.39999997616,,419227,,419236.695,8,400,,,
break_continue,html.Screen,4_80_2,2023-10-31T21:11:50.679Z,,0,,,NaN,,,,,,false,,,,419228.2999999523,419228,,419227.89999997616,,419236.695,8,400,,,
sequence,flow.Sequence,4_80,2023-10-31T21:11:50.679Z,,0,,,2416.021000000008,completion,,,,,false,,,,419228.5,419228,416805.097,416809.5,416811.979,419236.695,8,400,,,
trial,html.Screen,4_81_0,2023-10-31T21:11:53.194Z,,0,2,,2505.804999999993,response,ISIC_0070940.JPG,4,ISIC_8513112.JPG,ISIC_8513112.JPG,false,0,keypress(z),500,421742.7999999523,421742.5,419221.615,419228.6999999881,419236.695,421749.522,8,400,32,,ISIC_0070940.JPG
break,html.Screen,4_81_1,2023-10-31T21:11:53.195Z,,0,,,NaN,,,,,,false,,,,421743.89999997616,421743.59999996424,,421743.1999999881,,421749.522,8,400,,,
break_continue,html.Screen,4_81_2,2023-10-31T21:11:53.195Z,,0,,,NaN,,,,,,false,,,,421744.39999997616,421744.1999999881,,421744,,421749.522,8,400,,,
sequence,flow.Sequence,4_81,2023-10-31T21:11:53.196Z,,0,,,2507.504999988072,completion,,,,,false,,,,421744.6999999881,421744.1999999881,419221.615,419228.6999999881,419236.695,421749.522,8,400,,,
trial,html.Screen,4_82_0,2023-10-31T21:11:55.645Z,,0,2,,2444.978000000003,response,ISIC_8863344.JPG,5,ISIC_0011870.JPG,ISIC_0011870.JPG,false,0,keypress(z),500,424194.6999999881,424194.5,421742.538,421744.89999997616,421749.522,424207.858,8,400,33,,ISIC_8863344.JPG
break,html.Screen,4_82_1,2023-10-31T21:11:55.646Z,,0,,,NaN,,,,,,false,,,,424195.09999996424,424195,,424194.7999999523,,424207.858,8,400,,,
break_continue,html.Screen,4_82_2,2023-10-31T21:11:55.646Z,,0,,,NaN,,,,,,false,,,,424195.2999999523,424195.1999999881,,424195.1999999881,,424207.858,8,400,,,
sequence,flow.Sequence,4_82,2023-10-31T21:11:55.646Z,,0,,,2445.677999988082,completion,,,,,false,,,,424195.39999997616,424195.1999999881,421742.538,421744.89999997616,421749.522,424207.858,8,400,,,
trial,html.Screen,4_83_0,2023-10-31T21:11:58.048Z,,0,2,,2389.1419999999925,response,ISIC_3495113.JPG,5,ISIC_1124434.JPG,ISIC_3495113.JPG,false,1,keypress(m),500,426597.39999997616,426597,424200.92,424195.5,424207.858,426603.552,8,400,34,,ISIC_1124434.JPG
break,html.Screen,4_83_1,2023-10-31T21:11:58.049Z,,0,,,NaN,,,,,,false,,,,426598.39999997616,426598.1999999881,,426597.6999999881,,426603.552,8,400,,,
break_continue,html.Screen,4_83_2,2023-10-31T21:11:58.050Z,,0,,,NaN,,,,,,false,,,,426599,426598.7999999523,,426598.6999999881,,426603.552,8,400,,,
sequence,flow.Sequence,4_83,2023-10-31T21:11:58.050Z,,0,,,2390.941999952309,completion,,,,,false,,,,426599.2999999523,426598.7999999523,424200.92,424195.39999997616,424207.858,426603.552,8,400,,,
trial,html.Screen,4_84_0,2023-10-31T21:12:00.517Z,,0,2,,2462.047999964212,response,ISIC_4116770.JPG,5,ISIC_7984646.JPG,ISIC_7984646.JPG,false,0,keypress(z),500,429065.7999999523,429065.59999996424,426596.733,426599.59999996424,426603.552,429068.881,8,400,35,,ISIC_4116770.JPG
break,html.Screen,4_84_1,2023-10-31T21:12:00.517Z,,0,,,NaN,,,,,,false,,,,429066.39999997616,429066.1999999881,,429066,,429068.881,8,400,,,
break_continue,html.Screen,4_84_2,2023-10-31T21:12:00.518Z,,0,,,NaN,,,,,,false,,,,429066.6999999881,429066.59999996424,,429066.5,,429068.881,8,400,,,
sequence,flow.Sequence,4_84,2023-10-31T21:12:00.518Z,,0,,,2463.047999964212,completion,,,,,false,,,,429066.7999999523,429066.59999996424,426596.733,426599.39999997616,426603.552,429068.881,8,400,,,
trial,html.Screen,4_85_0,2023-10-31T21:12:02.887Z,,0,2,,2367.018999976164,response,ISIC_0033071.JPG,5,ISIC_0031565.JPG,ISIC_0033071.JPG,false,1,keypress(m),500,431436.1999999881,431435.89999997616,429061.856,429066.89999997616,429068.881,431443.937,8,400,36,,ISIC_0031565.JPG
break,html.Screen,4_85_1,2023-10-31T21:12:02.888Z,,0,,,NaN,,,,,,false,,,,431437.2999999523,431437,,431436.5,,431443.937,8,400,,,
break_continue,html.Screen,4_85_2,2023-10-31T21:12:02.889Z,,0,,,NaN,,,,,,false,,,,431437.7999999523,431437.59999996424,,431437.39999997616,,431443.937,8,400,,,
sequence,flow.Sequence,4_85,2023-10-31T21:12:02.889Z,,0,,,2368.7189999642433,completion,,,,,false,,,,431438.09999996424,431437.59999996424,429061.856,429066.89999997616,429068.881,431443.937,8,400,,,
trial,html.Screen,4_86_0,2023-10-31T21:12:05.435Z,,0,2,,2540.462999976182,response,ISIC_0059432.JPG,5,ISIC_3601224.JPG,ISIC_0059432.JPG,false,1,keypress(m),500,433984.6999999881,433984.39999997616,431437.028,431438.2999999523,431443.937,433992.517,8,400,37,,ISIC_3601224.JPG
break,html.Screen,4_86_1,2023-10-31T21:12:05.437Z,,0,,,NaN,,,,,,false,,,,433985.6999999881,433985.39999997616,,433985,,433992.517,8,400,,,
break_continue,html.Screen,4_86_2,2023-10-31T21:12:05.437Z,,0,,,NaN,,,,,,false,,,,433986.1999999881,433986.09999996424,,433985.89999997616,,433992.517,8,400,,,
sequence,flow.Sequence,4_86,2023-10-31T21:12:05.437Z,,0,,,2542.162999964261,completion,,,,,false,,,,433986.59999996424,433986.09999996424,431437.028,431438.2999999523,431443.937,433992.517,8,400,,,
trial,html.Screen,4_87_0,2023-10-31T21:12:07.888Z,,0,2,,2444.7829999523237,response,ISIC_7180096.JPG,5,ISIC_0071135.JPG,ISIC_0071135.JPG,false,0,keypress(z),500,436437.59999996424,436437.2999999523,433985.62,433986.7999999523,433992.517,436443.853,8,400,38,,ISIC_7180096.JPG
break,html.Screen,4_87_1,2023-10-31T21:12:07.890Z,,0,,,NaN,,,,,,false,,,,436438.6999999881,436438.5,,436438,,436443.853,8,400,,,
break_continue,html.Screen,4_87_2,2023-10-31T21:12:07.890Z,,0,,,NaN,,,,,,false,,,,436439.2999999523,436439.09999996424,,436438.89999997616,,436443.853,8,400,,,
sequence,flow.Sequence,4_87,2023-10-31T21:12:07.890Z,,0,,,2446.5829999642447,completion,,,,,false,,,,436439.59999996424,436439.09999996424,433985.62,433986.6999999881,433992.517,436443.853,8,400,,,
trial,html.Screen,4_88_0,2023-10-31T21:12:10.389Z,,0,2,,2494.0469999761553,response,ISIC_5652135.JPG,4,ISIC_3305055.JPG,ISIC_3305055.JPG,false,0,keypress(z),500,438938.1999999881,438937.89999997616,436436.946,436439.6999999881,436443.853,438950.788,8,400,39,,ISIC_5652135.JPG
break,html.Screen,4_88_1,2023-10-31T21:12:10.390Z,,0,,,NaN,,,,,,false,,,,438939.2999999523,438939.09999996424,,438938.59999996424,,438950.788,8,400,,,
break_continue,html.Screen,4_88_2,2023-10-31T21:12:10.391Z,,0,,,NaN,,,,,,false,,,,438939.89999997616,438939.6999999881,,438939.5,,438950.788,8,400,,,
sequence,flow.Sequence,4_88,2023-10-31T21:12:10.391Z,,0,,,2495.8469999880763,completion,,,,,false,,,,438940.09999996424,438939.6999999881,436436.946,436439.6999999881,436443.853,438950.788,8,400,,,
trial,html.Screen,4_89_0,2023-10-31T21:12:13.018Z,,0,2,,2615.8119999642367,response,ISIC_0057495.JPG,5,ISIC_0046416.JPG,ISIC_0057495.JPG,false,1,keypress(m),500,441566.89999997616,441566.59999996424,438943.946,438940.39999997616,438950.788,441576.082,8,400,40,,ISIC_0046416.JPG
break,html.Screen,4_89_1,2023-10-31T21:12:13.019Z,,0,,,NaN,,,,,,false,,,,441567.89999997616,441567.59999996424,,441567.1999999881,,441576.082,8,400,,,
break_continue,html.Screen,4_89_2,2023-10-31T21:12:13.019Z,,0,,,NaN,,,,,,false,,,,441568.39999997616,441568.1999999881,,441568.09999996424,,441576.082,8,400,,,
sequence,flow.Sequence,4_89,2023-10-31T21:12:13.020Z,,0,,,2617.4119999880786,completion,,,,,false,,,,441568.6999999881,441568.1999999881,438943.946,438940.2999999523,438950.788,441576.082,8,400,,,
trial,html.Screen,4_90_0,2023-10-31T21:12:15.550Z,,0,2,,2522.918000000005,response,ISIC_9271800.JPG,4,ISIC_7167479.JPG,ISIC_7167479.JPG,false,0,keypress(z),500,444099.2999999523,444099,441562.068,441568.89999997616,441576.082,444103.634,8,400,41,,ISIC_9271800.JPG
break,html.Screen,4_90_1,2023-10-31T21:12:15.551Z,,0,,,NaN,,,,,,false,,,,444100.5,444100.09999996424,,444099.59999996424,,444103.634,8,400,,,
break_continue,html.Screen,4_90_2,2023-10-31T21:12:15.552Z,,0,,,NaN,,,,,,false,,,,444101.09999996424,444100.7999999523,,444100.6999999881,,444103.634,8,400,,,
sequence,flow.Sequence,4_90,2023-10-31T21:12:15.552Z,,0,,,2524.7179999523214,completion,,,,,false,,,,444101.2999999523,444100.7999999523,441562.068,441568.89999997616,441576.082,444103.634,8,400,,,
trial,html.Screen,4_91_0,2023-10-31T21:12:18.019Z,,0,2,,2464.065999988059,response,ISIC_0014912.JPG,6,ISIC_1515947.JPG,ISIC_0014912.JPG,false,1,keypress(m),500,446567.89999997616,446567.6999999881,444096.674,444101.5,444103.634,446575.871,8,400,42,,ISIC_1515947.JPG
break,html.Screen,4_91_1,2023-10-31T21:12:18.020Z,,0,,,NaN,,,,,,false,,,,446568.89999997616,446568.6999999881,,446568.2999999523,,446575.871,8,400,,,
break_continue,html.Screen,4_91_2,2023-10-31T21:12:18.020Z,,0,,,NaN,,,,,,false,,,,446569.5,446569.2999999523,,446569.09999996424,,446575.871,8,400,,,
sequence,flow.Sequence,4_91,2023-10-31T21:12:18.021Z,,0,,,2465.6659999522963,completion,,,,,false,,,,446569.7999999523,446569.2999999523,444096.674,444101.5,444103.634,446575.871,8,400,,,
trial,html.Screen,4_92_0,2023-10-31T21:12:20.487Z,,0,2,,2460.5289999761735,response,ISIC_2693412.JPG,4,ISIC_0063845.JPG,ISIC_2693412.JPG,false,1,keypress(m),500,449036.59999996424,449036.39999997616,446568.935,446569.89999997616,446575.871,449041.128,8,400,43,,ISIC_0063845.JPG
break,html.Screen,4_92_1,2023-10-31T21:12:20.488Z,,0,,,NaN,,,,,,false,,,,449037.59999996424,449037.39999997616,,449036.89999997616,,449041.128,8,400,,,
break_continue,html.Screen,4_92_2,2023-10-31T21:12:20.489Z,,0,,,NaN,,,,,,false,,,,449038.2999999523,449038,,449037.89999997616,,449041.128,8,400,,,
sequence,flow.Sequence,4_92,2023-10-31T21:12:20.489Z,,0,,,2462.1290000000154,completion,,,,,false,,,,449038.5,449038,446568.935,446569.7999999523,446575.871,449041.128,8,400,,,
trial,html.Screen,4_93_0,2023-10-31T21:12:22.956Z,,0,2,,2463.771999976132,response,ISIC_7852890.JPG,4,ISIC_7824688.JPG,ISIC_7852890.JPG,false,1,keypress(m),500,451505.1999999881,451504.89999997616,449034.228,449038.7999999523,449041.128,451513.357,8,400,44,,ISIC_7824688.JPG
break,html.Screen,4_93_1,2023-10-31T21:12:22.957Z,,0,,,NaN,,,,,,false,,,,451506.1999999881,451506,,451505.5,,451513.357,8,400,,,
break_continue,html.Screen,4_93_2,2023-10-31T21:12:22.958Z,,0,,,NaN,,,,,,false,,,,451506.7999999523,451506.5,,451506.2999999523,,451513.357,8,400,,,
sequence,flow.Sequence,4_93,2023-10-31T21:12:22.958Z,,0,,,2465.371999999974,completion,,,,,false,,,,451507.09999996424,451506.5,449034.228,449038.6999999881,449041.128,451513.357,8,400,,,
trial,html.Screen,4_94_0,2023-10-31T21:12:25.361Z,,0,2,,2396.04299997614,response,ISIC_3632419.JPG,5,ISIC_3746471.JPG,ISIC_3632419.JPG,false,1,keypress(m),500,453909.7999999523,453909.39999997616,451506.427,451507.2999999523,451513.357,453916.048,8,400,45,,ISIC_3746471.JPG
break,html.Screen,4_94_1,2023-10-31T21:12:25.362Z,,0,,,NaN,,,,,,false,,,,453910.7999999523,453910.59999996424,,453910.09999996424,,453916.048,8,400,,,
break_continue,html.Screen,4_94_2,2023-10-31T21:12:25.362Z,,0,,,NaN,,,,,,false,,,,453911.39999997616,453911.1999999881,,453911.09999996424,,453916.048,8,400,,,
sequence,flow.Sequence,4_94,2023-10-31T21:12:25.362Z,,0,,,2397.842999988061,completion,,,,,false,,,,453911.6999999881,453911.1999999881,451506.427,451507.2999999523,451513.357,453916.048,8,400,,,
trial,html.Screen,4_95_0,2023-10-31T21:12:27.845Z,,0,2,,2478.0519999642274,response,ISIC_0055367.JPG,5,ISIC_4810485.JPG,ISIC_4810485.JPG,false,0,keypress(z),500,456394.5,456394.09999996424,453909.259,453911.89999997616,453916.048,456402.223,8,400,46,,ISIC_0055367.JPG
break,html.Screen,4_95_1,2023-10-31T21:12:27.846Z,,0,,,NaN,,,,,,false,,,,456395.5,456395.1999999881,,456394.7999999523,,456402.223,8,400,,,
break_continue,html.Screen,4_95_2,2023-10-31T21:12:27.847Z,,0,,,NaN,,,,,,false,,,,456396.1999999881,456395.89999997616,,456395.6999999881,,456402.223,8,400,,,
sequence,flow.Sequence,4_95,2023-10-31T21:12:27.847Z,,0,,,2479.8519999761484,completion,,,,,false,,,,456396.39999997616,456395.89999997616,453909.259,453911.7999999523,453916.048,456402.223,8,400,,,
trial,html.Screen,4_96_0,2023-10-31T21:12:30.202Z,,0,2,,2348.976999988081,response,ISIC_0034134.JPG,5,ISIC_0055013.JPG,ISIC_0034134.JPG,false,1,keypress(m),500,458751.39999997616,458751.1999999881,456395.097,456396.59999996424,456402.223,458756.362,8,400,47,,ISIC_0055013.JPG
break,html.Screen,4_96_1,2023-10-31T21:12:30.203Z,,0,,,NaN,,,,,,false,,,,458752,458751.7999999523,,458751.59999996424,,458756.362,8,400,,,
break_continue,html.Screen,4_96_2,2023-10-31T21:12:30.203Z,,0,,,NaN,,,,,,false,,,,458752.2999999523,458752.1999999881,,458752.09999996424,,458756.362,8,400,,,
sequence,flow.Sequence,4_96,2023-10-31T21:12:30.203Z,,0,,,2349.976999988081,completion,,,,,false,,,,458752.59999996424,458752.1999999881,456395.097,456396.59999996424,456402.223,458756.362,8,400,,,
trial,html.Screen,4_97_0,2023-10-31T21:12:33.133Z,,0,2,,2925.637999999977,response,ISIC_7251402.JPG,6,ISIC_1603834.JPG,ISIC_1603834.JPG,false,0,keypress(z),500,461682.09999996424,461682,458749.473,458752.6999999881,458756.362,461687.001,8,400,48,,ISIC_7251402.JPG
break,html.Screen,4_97_1,2023-10-31T21:12:33.133Z,,0,,,NaN,,,,,,false,,,,461682.39999997616,461682.2999999523,,461682.1999999881,,461687.001,8,400,,,
break_continue,html.Screen,4_97_2,2023-10-31T21:12:33.134Z,,0,,,NaN,,,,,,false,,,,461682.7999999523,461682.6999999881,,461682.5,,461687.001,8,400,,,
sequence,flow.Sequence,4_97,2023-10-31T21:12:33.134Z,,0,,,2926.3379999880563,completion,,,,,false,,,,461682.89999997616,461682.6999999881,458749.473,458752.6999999881,458756.362,461687.001,8,400,,,
trial,html.Screen,4_98_0,2023-10-31T21:12:35.535Z,,0,2,,2397.4990000000107,response,ISIC_0058303.JPG,5,ISIC_0032841.JPG,ISIC_0032841.JPG,false,0,keypress(z),500,464084.6999999881,464084.5,461679.968,461683,461687.001,464089.646,8,400,49,,ISIC_0058303.JPG
break,html.Screen,4_98_1,2023-10-31T21:12:35.536Z,,0,,,NaN,,,,,,false,,,,464085,464084.89999997616,,464084.7999999523,,464089.646,8,400,,,
break_continue,html.Screen,4_98_2,2023-10-31T21:12:35.536Z,,0,,,NaN,,,,,,false,,,,464085.5,464085.2999999523,,464085.1999999881,,464089.646,8,400,,,
sequence,flow.Sequence,4_98,2023-10-31T21:12:35.536Z,,0,,,2398.298999952327,completion,,,,,false,,,,464085.59999996424,464085.2999999523,461679.968,461682.89999997616,461687.001,464089.646,8,400,,,
trial,html.Screen,4_99_0,2023-10-31T21:12:38.034Z,,0,2,,2492.9539999642293,response,ISIC_8383600.JPG,5,ISIC_0008881.JPG,ISIC_0008881.JPG,false,0,keypress(z),500,466583,466582.59999996424,464082.724,464085.59999996424,464089.646,466589.65,8,400,50,,ISIC_8383600.JPG
break,html.Screen,4_99_1,2023-10-31T21:12:48.035Z,,0,,,10000.02099999995,timeout,,,,,false,,,,476583.6999999881,476582.812,466582.825,466583.2999999523,466589.65,476589.671,8,400,,,
break_continue,html.Screen,4_99_2,2023-10-31T21:12:48.474Z,,0,,,407.6289999523433,response,,,,,false,continue,keypress(Space),,477023.5,476997.2999999523,476582.812,476583.89999997616,476589.671,477027.101,8,400,,,
sequence,flow.Sequence,4_99,2023-10-31T21:12:48.475Z,,0,,,12907.653999952308,completion,,,,,false,,,,477023.7999999523,476997.2999999523,464082.724,464085.59999996424,464089.646,477027.101,8,400,,,
trial,html.Screen,4_100_0,2023-10-31T21:12:51.085Z,,0,3,,2606.598999988055,response,ISIC_0011665.JPG,5,ISIC_0011529.JPG,ISIC_0011665.JPG,false,1,keypress(m),500,479634,479633.6999999881,477020.215,477023.89999997616,477027.101,479638.295,8,400,1,,ISIC_0011529.JPG
break,html.Screen,4_100_1,2023-10-31T21:12:51.086Z,,0,,,NaN,,,,,,false,,,,479635.09999996424,479634.7999999523,,479634.39999997616,,479638.295,8,400,,,
break_continue,html.Screen,4_100_2,2023-10-31T21:12:51.086Z,,0,,,NaN,,,,,,false,,,,479635.59999996424,479635.39999997616,,479635.2999999523,,479638.295,8,400,,,
sequence,flow.Sequence,4_100,2023-10-31T21:12:51.087Z,,0,,,2608.298999976134,completion,,,,,false,,,,479635.89999997616,479635.39999997616,477020.215,477023.89999997616,477027.101,479638.295,8,400,,,
trial,html.Screen,4_101_0,2023-10-31T21:12:53.601Z,,0,3,,2511.8049999642535,response,ISIC_8171432.JPG,5,ISIC_3663705.JPG,ISIC_3663705.JPG,false,0,keypress(z),500,482150.5,482150.09999996424,479631.384,479636.09999996424,479638.295,482159.382,8,400,2,,ISIC_8171432.JPG
break,html.Screen,4_101_1,2023-10-31T21:12:53.602Z,,0,,,NaN,,,,,,false,,,,482151.5,482151.1999999881,,482150.7999999523,,482159.382,8,400,,,
break_continue,html.Screen,4_101_2,2023-10-31T21:12:53.603Z,,0,,,NaN,,,,,,false,,,,482152.09999996424,482151.7999999523,,482151.59999996424,,482159.382,8,400,,,
sequence,flow.Sequence,4_101,2023-10-31T21:12:53.603Z,,0,,,2513.5049999523326,completion,,,,,false,,,,482152.2999999523,482151.7999999523,479631.384,479636.09999996424,479638.295,482159.382,8,400,,,
trial,html.Screen,4_102_0,2023-10-31T21:12:56.070Z,,0,3,,2459.1180000000168,response,ISIC_0027101.JPG,5,ISIC_4966865.JPG,ISIC_0027101.JPG,false,1,keypress(m),500,484618.7999999523,484618.5,482145.178,482152.59999996424,482159.382,484624.286,8,400,3,,ISIC_4966865.JPG
break,html.Screen,4_102_1,2023-10-31T21:12:56.071Z,,0,,,NaN,,,,,,false,,,,484619.6999999881,484619.5,,484619.09999996424,,484624.286,8,400,,,
break_continue,html.Screen,4_102_2,2023-10-31T21:12:56.071Z,,0,,,NaN,,,,,,false,,,,484620.2999999523,484620.09999996424,,484619.89999997616,,484624.286,8,400,,,
sequence,flow.Sequence,4_102,2023-10-31T21:12:56.071Z,,0,,,2460.717999964254,completion,,,,,false,,,,484620.59999996424,484620.09999996424,482145.178,482152.5,482159.382,484624.286,8,400,,,
trial,html.Screen,4_103_0,2023-10-31T21:12:58.570Z,,0,3,,2494.713999999978,response,ISIC_0033374.JPG,5,ISIC_0033241.JPG,ISIC_0033374.JPG,false,1,keypress(m),500,487119.2999999523,487119,484617.38,484620.7999999523,484624.286,487124.395,8,400,4,,ISIC_0033241.JPG
break,html.Screen,4_103_1,2023-10-31T21:12:58.571Z,,0,,,NaN,,,,,,false,,,,487120.39999997616,487120.09999996424,,487119.6999999881,,487124.395,8,400,,,
break_continue,html.Screen,4_103_2,2023-10-31T21:12:58.572Z,,0,,,NaN,,,,,,false,,,,487121,487120.89999997616,,487120.6999999881,,487124.395,8,400,,,
sequence,flow.Sequence,4_103,2023-10-31T21:12:58.572Z,,0,,,2496.6139999761363,completion,,,,,false,,,,487121.2999999523,487120.89999997616,484617.38,484620.6999999881,484624.286,487124.395,8,400,,,
trial,html.Screen,4_104_0,2023-10-31T21:13:01.071Z,,0,3,,2495.4049999522977,response,ISIC_0058658.JPG,4,ISIC_1305537.JPG,ISIC_0058658.JPG,false,1,keypress(m),500,489620.1999999881,489619.7999999523,487117.478,487121.59999996424,487124.395,489631.372,8,400,5,,ISIC_1305537.JPG
break,html.Screen,4_104_1,2023-10-31T21:13:01.072Z,,0,,,NaN,,,,,,false,,,,489621.1999999881,489620.89999997616,,489620.5,,489631.372,8,400,,,
break_continue,html.Screen,4_104_2,2023-10-31T21:13:01.073Z,,0,,,NaN,,,,,,false,,,,489621.7999999523,489621.59999996424,,489621.2999999523,,489631.372,8,400,,,
sequence,flow.Sequence,4_104,2023-10-31T21:13:01.073Z,,0,,,2497.2049999642186,completion,,,,,false,,,,489622.09999996424,489621.59999996424,487117.478,487121.39999997616,487124.395,489631.372,8,400,,,
trial,html.Screen,4_105_0,2023-10-31T21:13:03.604Z,,0,3,,2521.027999976184,response,ISIC_0011099.JPG,4,ISIC_0057184.JPG,ISIC_0057184.JPG,false,0,keypress(z),500,492152.6999999881,492152.39999997616,489624.409,489622.1999999881,489631.372,492159.109,8,400,6,,ISIC_0011099.JPG
break,html.Screen,4_105_1,2023-10-31T21:13:03.605Z,,0,,,NaN,,,,,,false,,,,492153.6999999881,492153.39999997616,,492153,,492159.109,8,400,,,
break_continue,html.Screen,4_105_2,2023-10-31T21:13:03.605Z,,0,,,NaN,,,,,,false,,,,492154.2999999523,492154,,492153.89999997616,,492159.109,8,400,,,
sequence,flow.Sequence,4_105,2023-10-31T21:13:03.608Z,,0,,,2522.628000000026,completion,,,,,false,,,,492156.6999999881,492154,489624.409,489622.1999999881,489631.372,492159.109,8,400,,,
trial,html.Screen,4_106_0,2023-10-31T21:13:06.363Z,,0,3,,2753.1909999523195,response,ISIC_0061293.JPG,4,ISIC_5044438.JPG,ISIC_0061293.JPG,false,1,keypress(m),500,494912.59999996424,494912.2999999523,492152.189,492157.09999996424,492159.109,494916.056,8,400,7,,ISIC_5044438.JPG
break,html.Screen,4_106_1,2023-10-31T21:13:06.364Z,,0,,,NaN,,,,,,false,,,,494913.59999996424,494913.2999999523,,494912.89999997616,,494916.056,8,400,,,
break_continue,html.Screen,4_106_2,2023-10-31T21:13:06.365Z,,0,,,NaN,,,,,,false,,,,494914.1999999881,494914,,494913.7999999523,,494916.056,8,400,,,
sequence,flow.Sequence,4_106,2023-10-31T21:13:06.365Z,,0,,,2754.8910000000033,completion,,,,,false,,,,494914.5,494914,492152.189,492157,492159.109,494916.056,8,400,,,
trial,html.Screen,4_107_0,2023-10-31T21:13:08.976Z,,0,3,,2608.6439999880968,response,ISIC_0025265.JPG,5,ISIC_3506204.JPG,ISIC_3506204.JPG,false,0,keypress(z),500,497525.09999996424,497524.6999999881,494908.989,494914.6999999881,494916.056,497534.346,8,400,8,,ISIC_0025265.JPG
break,html.Screen,4_107_1,2023-10-31T21:13:08.977Z,,0,,,NaN,,,,,,false,,,,497526.09999996424,497525.89999997616,,497525.39999997616,,497534.346,8,400,,,
break_continue,html.Screen,4_107_2,2023-10-31T21:13:08.978Z,,0,,,NaN,,,,,,false,,,,497526.7999999523,497526.39999997616,,497526.2999999523,,497534.346,8,400,,,
sequence,flow.Sequence,4_107,2023-10-31T21:13:08.978Z,,0,,,2610.343999976176,completion,,,,,false,,,,497527,497526.39999997616,494908.989,494914.59999996424,494916.056,497534.346,8,400,,,
trial,html.Screen,4_108_0,2023-10-31T21:13:11.525Z,,0,3,,2538.9539999522967,response,ISIC_0009927.JPG,4,ISIC_0032473.JPG,ISIC_0009927.JPG,false,1,keypress(m),500,500073.6999999881,500073.2999999523,497520.126,497527.1999999881,497534.346,500082.955,8,400,9,,ISIC_0032473.JPG
break,html.Screen,4_108_1,2023-10-31T21:13:11.526Z,,0,,,NaN,,,,,,false,,,,500074.6999999881,500074.39999997616,,500074,,500082.955,8,400,,,
break_continue,html.Screen,4_108_2,2023-10-31T21:13:11.526Z,,0,,,NaN,,,,,,false,,,,500075.1999999881,500075,,500074.7999999523,,500082.955,8,400,,,
sequence,flow.Sequence,4_108,2023-10-31T21:13:11.526Z,,0,,,2540.6539999999804,completion,,,,,false,,,,500075.5,500075,497520.126,497527.09999996424,497534.346,500082.955,8,400,,,
trial,html.Screen,4_109_0,2023-10-31T21:13:14.329Z,,0,3,,2794.644999964221,response,ISIC_2479134.JPG,4,ISIC_8128335.JPG,ISIC_8128335.JPG,false,0,keypress(z),500,502877.6999999881,502877.59999996424,500068.88,500075.6999999881,500082.955,502881.234,8,400,10,,ISIC_2479134.JPG
break,html.Screen,4_109_1,2023-10-31T21:13:14.329Z,,0,,,NaN,,,,,,false,,,,502878.09999996424,502878,,502877.7999999523,,502881.234,8,400,,,
break_continue,html.Screen,4_109_2,2023-10-31T21:13:14.329Z,,0,,,NaN,,,,,,false,,,,502878.2999999523,502878.1999999881,,502878.09999996424,,502881.234,8,400,,,
sequence,flow.Sequence,4_109,2023-10-31T21:13:14.329Z,,0,,,2795.244999988063,completion,,,,,false,,,,502878.39999997616,502878.1999999881,500068.88,500075.59999996424,500082.955,502881.234,8,400,,,
trial,html.Screen,4_110_0,2023-10-31T21:13:16.859Z,,0,3,,2526.8659999642405,response,ISIC_7167479.JPG,4,ISIC_0010684.JPG,ISIC_7167479.JPG,false,1,keypress(m),500,505408.39999997616,505408.09999996424,502874.344,502878.5,502881.234,505416.017,8,400,11,,ISIC_0010684.JPG
break,html.Screen,4_110_1,2023-10-31T21:13:16.860Z,,0,,,NaN,,,,,,false,,,,505409.5,505409.1999999881,,505408.6999999881,,505416.017,8,400,,,
break_continue,html.Screen,4_110_2,2023-10-31T21:13:16.861Z,,0,,,NaN,,,,,,false,,,,505410,505409.7999999523,,505409.59999996424,,505416.017,8,400,,,
sequence,flow.Sequence,4_110,2023-10-31T21:13:16.861Z,,0,,,2528.5659999523195,completion,,,,,false,,,,505410.2999999523,505409.7999999523,502874.344,502878.5,502881.234,505416.017,8,400,,,
trial,html.Screen,4_111_0,2023-10-31T21:13:19.295Z,,0,3,,2428.2829999523237,response,ISIC_5883331.JPG,6,ISIC_9806131.JPG,ISIC_9806131.JPG,false,0,keypress(z),500,507844.59999996424,507844.2999999523,505409.08,505410.5,505416.017,507853.769,8,400,12,,ISIC_5883331.JPG
break,html.Screen,4_111_1,2023-10-31T21:13:19.296Z,,0,,,NaN,,,,,,false,,,,507845.59999996424,507845.39999997616,,507845,,507853.769,8,400,,,
break_continue,html.Screen,4_111_2,2023-10-31T21:13:19.297Z,,0,,,NaN,,,,,,false,,,,507846.1999999881,507846,,507845.7999999523,,507853.769,8,400,,,
sequence,flow.Sequence,4_111,2023-10-31T21:13:19.297Z,,0,,,2429.9830000000075,completion,,,,,false,,,,507846.5,507846,505409.08,505410.39999997616,505416.017,507853.769,8,400,,,
trial,html.Screen,4_112_0,2023-10-31T21:13:21.844Z,,0,3,,2539.030999952345,response,ISIC_4646815.JPG,4,ISIC_0010852.JPG,ISIC_4646815.JPG,false,1,keypress(m),500,510393.09999996424,510392.7999999523,507839.556,507846.6999999881,507853.769,510402.669,8,400,13,,ISIC_0010852.JPG
break,html.Screen,4_112_1,2023-10-31T21:13:21.845Z,,0,,,NaN,,,,,,false,,,,510394.09999996424,510393.89999997616,,510393.5,,510402.669,8,400,,,
break_continue,html.Screen,4_112_2,2023-10-31T21:13:21.846Z,,0,,,NaN,,,,,,false,,,,510394.6999999881,510394.5,,510394.2999999523,,510402.669,8,400,,,
sequence,flow.Sequence,4_112,2023-10-31T21:13:21.846Z,,0,,,2540.731000000029,completion,,,,,false,,,,510394.89999997616,510394.5,507839.556,507846.6999999881,507853.769,510402.669,8,400,,,
trial,html.Screen,4_113_0,2023-10-31T21:13:26.537Z,,0,3,,4682.730999976164,response,ISIC_0058079.JPG,5,ISIC_0024958.JPG,ISIC_0024958.JPG,false,0,keypress(z),500,515085.6999999881,515085.39999997616,510388.207,510395.1999999881,510402.669,515089.652,8,400,14,,ISIC_0058079.JPG
break,html.Screen,4_113_1,2023-10-31T21:13:26.538Z,,0,,,NaN,,,,,,false,,,,515086.6999999881,515086.5,,515086,,515089.652,8,400,,,
break_continue,html.Screen,4_113_2,2023-10-31T21:13:26.538Z,,0,,,NaN,,,,,,false,,,,515087.2999999523,515087.09999996424,,515086.89999997616,,515089.652,8,400,,,
sequence,flow.Sequence,4_113,2023-10-31T21:13:26.538Z,,0,,,4684.430999964243,completion,,,,,false,,,,515087.59999996424,515087.09999996424,510388.207,510395.09999996424,510402.669,515089.652,8,400,,,
trial,html.Screen,4_114_0,2023-10-31T21:13:29.229Z,,0,3,,2687.847999999998,response,ISIC_0758797.JPG,5,ISIC_8525786.JPG,ISIC_0758797.JPG,false,1,keypress(m),500,517777.89999997616,517777.5,515082.59,515087.89999997616,515089.652,517783.954,8,400,15,,ISIC_8525786.JPG
break,html.Screen,4_114_1,2023-10-31T21:13:29.230Z,,0,,,NaN,,,,,,false,,,,517778.89999997616,517778.6999999881,,517778.1999999881,,517783.954,8,400,,,
break_continue,html.Screen,4_114_2,2023-10-31T21:13:29.230Z,,0,,,NaN,,,,,,false,,,,517779.5,517779.2999999523,,517779.09999996424,,517783.954,8,400,,,
sequence,flow.Sequence,4_114,2023-10-31T21:13:29.231Z,,0,,,2689.6479999523144,completion,,,,,false,,,,517779.6999999881,517779.2999999523,515082.59,515087.7999999523,515089.652,517783.954,8,400,,,
trial,html.Screen,4_115_0,2023-10-31T21:13:31.809Z,,0,3,,2574.14599996421,response,ISIC_9574101.JPG,5,ISIC_3565564.JPG,ISIC_3565564.JPG,false,0,keypress(z),500,520358.39999997616,520358.09999996424,517777.151,517779.89999997616,517783.954,520367.31,8,400,16,,ISIC_9574101.JPG
break,html.Screen,4_115_1,2023-10-31T21:13:31.810Z,,0,,,NaN,,,,,,false,,,,520359.39999997616,520359.1999999881,,520358.7999999523,,520367.31,8,400,,,
break_continue,html.Screen,4_115_2,2023-10-31T21:13:31.811Z,,0,,,NaN,,,,,,false,,,,520359.89999997616,520359.6999999881,,520359.59999996424,,520367.31,8,400,,,
sequence,flow.Sequence,4_115,2023-10-31T21:13:31.811Z,,0,,,2575.745999988052,completion,,,,,false,,,,520360.1999999881,520359.6999999881,517777.151,517779.89999997616,517783.954,520367.31,8,400,,,
trial,html.Screen,4_116_0,2023-10-31T21:13:34.246Z,,0,3,,2427.1900000000023,response,ISIC_6710411.JPG,4,ISIC_9059250.JPG,ISIC_6710411.JPG,false,1,keypress(m),500,522794.89999997616,522794.5,520360.469,520360.5,520367.31,522797.95,8,400,17,,ISIC_9059250.JPG
break,html.Screen,4_116_1,2023-10-31T21:13:34.247Z,,0,,,NaN,,,,,,false,,,,522796,522795.6999999881,,522795.1999999881,,522797.95,8,400,,,
break_continue,html.Screen,4_116_2,2023-10-31T21:13:34.247Z,,0,,,NaN,,,,,,false,,,,522796.59999996424,522796.39999997616,,522796.1999999881,,522797.95,8,400,,,
sequence,flow.Sequence,4_116,2023-10-31T21:13:34.248Z,,0,,,2429.0899999761605,completion,,,,,false,,,,522796.7999999523,522796.39999997616,520360.469,520360.5,520367.31,522797.95,8,400,,,
trial,html.Screen,4_117_0,2023-10-31T21:13:37.083Z,,0,3,,2833.6499999642256,response,ISIC_0072422.JPG,4,ISIC_7637091.JPG,ISIC_0072422.JPG,false,1,keypress(m),500,525631.6999999881,525631.5999999642,522790.682,522797,522797.95,525638.23,8,400,18,,ISIC_7637091.JPG
break,html.Screen,4_117_1,2023-10-31T21:13:37.083Z,,0,,,NaN,,,,,,false,,,,525632.1999999881,525632,,525631.7999999523,,525638.23,8,400,,,
break_continue,html.Screen,4_117_2,2023-10-31T21:13:37.083Z,,0,,,NaN,,,,,,false,,,,525632.3999999762,525632.3999999762,,525632.2999999523,,525638.23,8,400,,,
sequence,flow.Sequence,4_117,2023-10-31T21:13:37.083Z,,0,,,2834.4499999761465,completion,,,,,false,,,,525632.5,525632.3999999762,522790.682,522797,522797.95,525638.23,8,400,,,
trial,html.Screen,4_118_0,2023-10-31T21:13:39.789Z,,0,3,,2699.869999964256,response,ISIC_9918523.JPG,5,ISIC_0046773.JPG,ISIC_9918523.JPG,false,1,keypress(m),500,528338.3999999762,528338.0999999642,525631.466,525632.5,525638.23,528346.528,8,400,19,,ISIC_0046773.JPG
break,html.Screen,4_118_1,2023-10-31T21:13:39.790Z,,0,,,NaN,,,,,,false,,,,528339.3999999762,528339.1999999881,,528338.6999999881,,528346.528,8,400,,,
break_continue,html.Screen,4_118_2,2023-10-31T21:13:39.791Z,,0,,,NaN,,,,,,false,,,,528340,528339.7999999523,,528339.5999999642,,528346.528,8,400,,,
sequence,flow.Sequence,4_118,2023-10-31T21:13:39.791Z,,0,,,2701.569999952335,completion,,,,,false,,,,528340.2999999523,528339.7999999523,525631.466,525632.5,525638.23,528346.528,8,400,,,
trial,html.Screen,4_119_0,2023-10-31T21:13:42.402Z,,0,3,,2604.071999964188,response,ISIC_8194371.JPG,5,ISIC_8295306.JPG,ISIC_8194371.JPG,false,1,keypress(m),500,530950.8999999762,530950.5999999642,528339.322,528340.5,528346.528,530957.651,8,400,20,,ISIC_8295306.JPG
break,html.Screen,4_119_1,2023-10-31T21:13:42.403Z,,0,,,NaN,,,,,,false,,,,530952.0999999642,530951.7999999523,,530951.2999999523,,530957.651,8,400,,,
break_continue,html.Screen,4_119_2,2023-10-31T21:13:42.404Z,,0,,,NaN,,,,,,false,,,,530952.6999999881,530952.5999999642,,530952.2999999523,,530957.651,8,400,,,
sequence,flow.Sequence,4_119,2023-10-31T21:13:42.404Z,,0,,,2606.071999964188,completion,,,,,false,,,,530953,530952.5999999642,528339.322,528340.5,528346.528,530957.651,8,400,,,
trial,html.Screen,4_120_0,2023-10-31T21:13:44.983Z,,0,3,,2574.248999976204,response,ISIC_0028666.JPG,6,ISIC_0046672.JPG,ISIC_0028666.JPG,false,1,keypress(m),500,533532.1999999881,533531.8999999762,530950.574,530953.1999999881,530957.651,533541.591,8,400,21,,ISIC_0046672.JPG
break,html.Screen,4_120_1,2023-10-31T21:13:44.984Z,,0,,,NaN,,,,,,false,,,,533533.1999999881,533533,,533532.5,,533541.591,8,400,,,
break_continue,html.Screen,4_120_2,2023-10-31T21:13:44.985Z,,0,,,NaN,,,,,,false,,,,533533.7999999523,533533.5999999642,,533533.3999999762,,533541.591,8,400,,,
sequence,flow.Sequence,4_120,2023-10-31T21:13:44.985Z,,0,,,2575.948999964283,completion,,,,,false,,,,533534,533533.5999999642,530950.574,530953.1999999881,530957.651,533541.591,8,400,,,
trial,html.Screen,4_121_0,2023-10-31T21:13:47.612Z,,0,3,,2619.608999988064,response,ISIC_4967639.JPG,6,ISIC_0026160.JPG,ISIC_0026160.JPG,false,0,keypress(z),500,536161.5,536161.1999999881,533527.225,533534.3999999762,533541.591,536165.969,8,400,22,,ISIC_4967639.JPG
break,html.Screen,4_121_1,2023-10-31T21:13:47.613Z,,0,,,NaN,,,,,,false,,,,536162.5999999642,536162.2999999523,,536161.8999999762,,536165.969,8,400,,,
break_continue,html.Screen,4_121_2,2023-10-31T21:13:47.614Z,,0,,,NaN,,,,,,false,,,,536163.1999999881,536162.8999999762,,536162.6999999881,,536165.969,8,400,,,
sequence,flow.Sequence,4_121,2023-10-31T21:13:47.614Z,,0,,,2621.3089999761432,completion,,,,,false,,,,536163.5,536162.8999999762,533527.225,533534.2999999523,533541.591,536165.969,8,400,,,
trial,html.Screen,4_122_0,2023-10-31T21:13:50.449Z,,0,3,,2832.030999999959,response,ISIC_0027964.JPG,4,ISIC_0030943.JPG,ISIC_0030943.JPG,false,0,keypress(z),500,538998.1999999881,538998,536159.132,536163.6999999881,536165.969,539006.347,8,400,23,,ISIC_0027964.JPG
break,html.Screen,4_122_1,2023-10-31T21:13:50.450Z,,0,,,NaN,,,,,,false,,,,538998.6999999881,538998.5,,538998.3999999762,,539006.347,8,400,,,
break_continue,html.Screen,4_122_2,2023-10-31T21:13:50.450Z,,0,,,NaN,,,,,,false,,,,538999.0999999642,538998.8999999762,,538998.8999999762,,539006.347,8,400,,,
sequence,flow.Sequence,4_122,2023-10-31T21:13:50.450Z,,0,,,2832.930999976117,completion,,,,,false,,,,538999.2999999523,538998.8999999762,536159.132,536163.6999999881,536165.969,539006.347,8,400,,,
trial,html.Screen,4_123_0,2023-10-31T21:13:53.173Z,,0,3,,2715.2529999642866,response,ISIC_0032820.JPG,5,ISIC_0053659.JPG,ISIC_0032820.JPG,false,1,keypress(m),500,541721.7999999523,541721.5999999642,538992.379,538999.2999999523,539006.347,541728.413,8,400,24,,ISIC_0053659.JPG
break,html.Screen,4_123_1,2023-10-31T21:13:53.173Z,,0,,,NaN,,,,,,false,,,,541722.2999999523,541722.1999999881,,541722,,541728.413,8,400,,,
break_continue,html.Screen,4_123_2,2023-10-31T21:13:53.174Z,,0,,,NaN,,,,,,false,,,,541722.6999999881,541722.5999999642,,541722.5,,541728.413,8,400,,,
sequence,flow.Sequence,4_123,2023-10-31T21:13:53.174Z,,0,,,2716.2529999642866,completion,,,,,false,,,,541723,541722.5999999642,538992.379,538999.2999999523,539006.347,541728.413,8,400,,,
trial,html.Screen,4_124_0,2023-10-31T21:13:55.783Z,,0,3,,2603.886999952374,response,ISIC_0033697.JPG,5,ISIC_3649113.JPG,ISIC_3649113.JPG,false,0,keypress(z),500,544332.5,544332.2999999523,541721.683,541723,541728.413,544339.526,8,400,25,,ISIC_0033697.JPG
break,html.Screen,4_124_1,2023-10-31T21:13:55.784Z,,0,,,NaN,,,,,,false,,,,544333,544332.6999999881,,544332.5999999642,,544339.526,8,400,,,
break_continue,html.Screen,4_124_2,2023-10-31T21:13:55.784Z,,0,,,NaN,,,,,,false,,,,544333.2999999523,544333.0999999642,,544333,,544339.526,8,400,,,
sequence,flow.Sequence,4_124,2023-10-31T21:13:55.784Z,,0,,,2604.686999964295,completion,,,,,false,,,,544333.3999999762,544333.0999999642,541721.683,541723,541728.413,544339.526,8,400,,,
trial,html.Screen,4_125_0,2023-10-31T21:13:58.410Z,,0,3,,2619.773999952362,response,ISIC_0014891.JPG,5,ISIC_0055404.JPG,ISIC_0014891.JPG,false,1,keypress(m),500,546959.5999999642,546959.2999999523,544332.426,544333.5,544339.526,546964.557,8,400,26,,ISIC_0055404.JPG
break,html.Screen,4_125_1,2023-10-31T21:13:58.411Z,,0,,,NaN,,,,,,false,,,,546960.5999999642,546960.2999999523,,546959.8999999762,,546964.557,8,400,,,
