sender,sender_type,sender_id,timestamp,meta,,blockNo,condition,duration,ended_on,img_left,img_reveal,img_right,loser,practice,response,response_action,selection_duration,time_commit,time_end,time_render,time_run,time_show,time_switch,total_blocks,total_trials,trialNo,url,winner
informed_consent,html.Screen,0,2023-05-01T16:04:06.954Z,"{""labjs_version"":""20.2.4"",""labjs_build"":{""flavor"":""production"",""commit"":""f5b4a49f956347addd546a832a3327688c2c0fef""},""location"":""https://run.pavlovia.org/MurrayBennett/melanoma-2afc/?participant=64878"",""userAgent"":""Mozilla/5.0 (Windows NT 10.0; Win64; x64) AppleWebKit/537.36 (KHTML, like Gecko) Chrome/112.0.0.0 Safari/537.36"",""platform"":""Win32"",""language"":""en-US"",""locale"":""en-US"",""timeZone"":""America/Chicago"",""timezoneOffset"":300,""screen_width"":1920,""screen_height"":1080,""scroll_width"":1920,""scroll_height"":913,""window_innerWidth"":1920,""window_innerHeight"":961,""devicePixelRatio"":1}",,,,2633.5339999821185,response,,,,,,continue,click button,,4411.899999976158,4411.299999982119,1770.909,1772,1777.766,4416.718,,,,"{""participant"":""64878""}",
Welcome,html.Screen,1,2023-05-01T16:04:47.836Z,,,,regular,40876.98199998808,response,,,,,,continue,click button,,45294.5,45293.69999998808,4409.838,4412.0999999940395,4416.718,45298.899,,,,,
trial,html.Screen,2_0_0,2023-05-01T16:04:54.213Z,,0,0,,6371.900999982121,response,ISIC_0061792.JPG,,ISIC_4679428.JPG,ISIC_4679428.JPG,true,0,keypress(z),500,51670.89999997616,51670.79999998212,45292.232,45294.59999999404,45298.899,51674.402,1,6,1,,ISIC_0061792.JPG
sequence,flow.Sequence,2_0,2023-05-01T16:04:54.213Z,,0,,,6371.900999982121,completion,,,,,true,,,,51671.19999998808,51670.79999998212,45292.232,45294.59999999404,45298.899,51674.402,1,6,,,
trial,html.Screen,2_1_0,2023-05-01T16:04:59.971Z,,0,0,,5753.997999976156,response,ISIC_0776486.JPG,,ISIC_5199497.JPG,ISIC_5199497.JPG,true,0,keypress(z),500,57428.5,57428.39999997616,51666.84,51671.19999998808,51674.402,57430.98,1,6,2,,ISIC_0776486.JPG
sequence,flow.Sequence,2_1,2023-05-01T16:04:59.971Z,,0,,,5753.997999976156,completion,,,,,true,,,,57428.69999998808,57428.39999997616,51666.84,51671.19999998808,51674.402,57430.98,1,6,,,
trial,html.Screen,2_2_0,2023-05-01T16:05:09.967Z,,0,0,,10006.996999999996,timeout,ISIC_2556187.JPG,,ISIC_8575776.JPG,,true,,,500,67425.39999997616,67425.29999998212,57424.221,57428.69999998808,57430.98,67437.977,1,6,3,,
sequence,flow.Sequence,2_2,2023-05-01T16:05:09.968Z,,0,,,9994.319999982115,completion,,,,,true,,,,67425.59999999404,67425.29999998212,57424.221,57428.69999998808,57430.98,67437.977,1,6,,,
trial,html.Screen,2_3_0,2023-05-01T16:05:13.108Z,,0,0,,3127.922999976159,response,ISIC_8141769.JPG,,ISIC_9238366.JPG,ISIC_8141769.JPG,true,1,keypress(m),500,70566,70565.89999997616,67430.97,67425.59999999404,67437.977,70576.837,1,6,4,,ISIC_9238366.JPG
sequence,flow.Sequence,2_3,2023-05-01T16:05:13.108Z,,0,,,3127.922999976159,completion,,,,,true,,,,70566.19999998808,70565.89999997616,67430.97,67425.59999999404,67437.977,70576.837,1,6,,,
trial,html.Screen,2_4_0,2023-05-01T16:05:19.817Z,,0,0,,6698.1630000000005,response,ISIC_8949026.JPG,,ISIC_9959593.JPG,ISIC_9959593.JPG,true,0,keypress(z),500,77275.19999998808,77275,70569.896,70566.39999997616,70576.837,77278.692,1,6,5,,ISIC_8949026.JPG
sequence,flow.Sequence,2_4,2023-05-01T16:05:19.817Z,,0,,,6698.1630000000005,completion,,,,,true,,,,77275.29999998212,77275,70569.896,70566.39999997616,70576.837,77278.692,1,6,,,
trial,html.Screen,2_5_0,2023-05-01T16:05:27.362Z,,0,0,,7540.707999976163,response,ISIC_0010479.JPG,,ISIC_0460240.JPG,ISIC_0460240.JPG,true,0,keypress(z),500,84819.59999999404,84819.39999997616,77271.223,77275.29999998212,77278.692,84826.941,1,6,6,,ISIC_0010479.JPG
sequence,flow.Sequence,2_5,2023-05-01T16:05:27.362Z,,0,,,7540.707999976163,completion,,,,,true,,,,84819.69999998808,84819.39999997616,77271.223,77275.29999998212,77278.692,84826.941,1,6,,,
loop,flow.Loop,2,2023-05-01T16:05:27.362Z,,,,,39520.50099997616,completion,,,,,true,,,,84819.69999998808,84819.39999997616,45292.232,45294.59999999404,45298.899,84826.941,1,6,,,
exp_instructions,html.Screen,3,2023-05-01T16:05:36.268Z,,,,,8899.358999982112,response,,,,,,continue,keypress(Space),,93726.5,93726.29999998212,84819.963,84819.79999998212,84826.941,93736.778,,,,,
trial,html.Screen,4_0_0,2023-05-01T16:05:43.369Z,,0,1,,7090.621999976152,response,ISIC_4033676.JPG,,ISIC_0065278.JPG,ISIC_4033676.JPG,false,1,keypress(m),500,100827.5,100827.39999997616,93729.805,93726.69999998808,93736.778,100834.425,6,300,1,,ISIC_0065278.JPG
break,html.Screen,4_0_1,2023-05-01T16:05:43.370Z,,0,,,NaN,,,,,,false,,,,100828,100827.89999997616,,100827.59999999404,,100834.425,6,300,,,
break_continue,html.Screen,4_0_2,2023-05-01T16:05:43.370Z,,0,,,NaN,,,,,,false,,,,100828.29999998212,100828.19999998808,,100828.09999999404,,100834.425,6,300,,,
sequence,flow.Sequence,4_0,2023-05-01T16:05:43.370Z,,0,,,7091.421999988073,completion,,,,,false,,,,100828.39999997616,100828.19999998808,93729.805,93726.69999998808,93736.778,100834.425,6,300,,,
trial,html.Screen,4_1_0,2023-05-01T16:05:52.009Z,,0,1,,8632.174999994037,response,ISIC_0060096.JPG,,ISIC_0015250.JPG,ISIC_0060096.JPG,false,1,keypress(m),500,109466.69999998808,109466.59999999404,100821.845,100828.5,100834.425,109472.988,6,300,2,,ISIC_0015250.JPG
break,html.Screen,4_1_1,2023-05-01T16:05:52.009Z,,0,,,NaN,,,,,,false,,,,109467,109467,,109466.79999998212,,109472.988,6,300,,,
break_continue,html.Screen,4_1_2,2023-05-01T16:05:52.009Z,,0,,,NaN,,,,,,false,,,,109467.19999998808,109467.19999998808,,109467.09999999404,,109472.988,6,300,,,
sequence,flow.Sequence,4_1,2023-05-01T16:05:52.009Z,,0,,,8632.774999988076,completion,,,,,false,,,,109467.29999998212,109467.19999998808,100821.845,100828.39999997616,100834.425,109472.988,6,300,,,
trial,html.Screen,4_2_0,2023-05-01T16:05:55.174Z,,0,1,,3159.4119999761606,response,ISIC_9756858.JPG,,ISIC_0490442.JPG,ISIC_0490442.JPG,false,0,keypress(z),500,112632.5,112632.39999997616,109466.919,109467.29999998212,109472.988,112639.642,6,300,3,,ISIC_9756858.JPG
break,html.Screen,4_2_1,2023-05-01T16:05:55.175Z,,0,,,NaN,,,,,,false,,,,112632.89999997616,112632.79999998212,,112632.5,,112639.642,6,300,,,
break_continue,html.Screen,4_2_2,2023-05-01T16:05:55.175Z,,0,,,NaN,,,,,,false,,,,112633.09999999404,112633.09999999404,,112632.89999997616,,112639.642,6,300,,,
sequence,flow.Sequence,4_2,2023-05-01T16:05:55.175Z,,0,,,3160.111999994042,completion,,,,,false,,,,112633.19999998808,112633.09999999404,109466.919,109467.29999998212,109472.988,112639.642,6,300,,,
trial,html.Screen,4_3_0,2023-05-01T16:05:58.550Z,,0,1,,3368.257999976151,response,ISIC_4069690.JPG,,ISIC_0027694.JPG,ISIC_4069690.JPG,false,1,keypress(m),500,116008,116007.89999997616,112631.838,112633.19999998808,112639.642,116015.437,6,300,4,,ISIC_0027694.JPG
break,html.Screen,4_3_1,2023-05-01T16:05:58.550Z,,0,,,NaN,,,,,,false,,,,116008.39999997616,116008.29999998212,,116008.09999999404,,116015.437,6,300,,,
break_continue,html.Screen,4_3_2,2023-05-01T16:05:58.550Z,,0,,,NaN,,,,,,false,,,,116008.69999998808,116008.59999999404,,116008.5,,116015.437,6,300,,,
sequence,flow.Sequence,4_3,2023-05-01T16:05:58.551Z,,0,,,3368.9579999940324,completion,,,,,false,,,,116008.79999998212,116008.59999999404,112631.838,112633.19999998808,112639.642,116015.437,6,300,,,
trial,html.Screen,4_4_0,2023-05-01T16:06:02.356Z,,0,1,,3798.3629999821133,response,ISIC_0046416.JPG,,ISIC_3729849.JPG,ISIC_0046416.JPG,false,1,keypress(m),500,119814,119813.79999998212,116001.891,116008.89999997616,116015.437,119820.667,6,300,5,,ISIC_3729849.JPG
break,html.Screen,4_4_1,2023-05-01T16:06:02.356Z,,0,,,NaN,,,,,,false,,,,119814.39999997616,119814.19999998808,,119814,,119820.667,6,300,,,
break_continue,html.Screen,4_4_2,2023-05-01T16:06:02.356Z,,0,,,NaN,,,,,,false,,,,119814.59999999404,119814.59999999404,,119814.5,,119820.667,6,300,,,
sequence,flow.Sequence,4_4,2023-05-01T16:06:02.356Z,,0,,,3799.162999994034,completion,,,,,false,,,,119814.59999999404,119814.59999999404,116001.891,116008.89999997616,116015.437,119820.667,6,300,,,
trial,html.Screen,4_5_0,2023-05-01T16:06:06.070Z,,0,1,,3707.532999988078,response,ISIC_0016112.JPG,,ISIC_8635849.JPG,ISIC_0016112.JPG,false,1,keypress(m),500,123528.29999998212,123528.19999998808,119812.211,119814.69999998808,119820.667,123536.09,6,300,6,,ISIC_8635849.JPG
break,html.Screen,4_5_1,2023-05-01T16:06:06.071Z,,0,,,NaN,,,,,,false,,,,123528.79999998212,123528.5,,123528.39999997616,,123536.09,6,300,,,
break_continue,html.Screen,4_5_2,2023-05-01T16:06:06.071Z,,0,,,NaN,,,,,,false,,,,123528.89999997616,123528.89999997616,,123528.79999998212,,123536.09,6,300,,,
sequence,flow.Sequence,4_5,2023-05-01T16:06:06.071Z,,0,,,3708.232999976157,completion,,,,,false,,,,123529.09999999404,123528.89999997616,119812.211,119814.59999999404,119820.667,123536.09,6,300,,,
trial,html.Screen,4_6_0,2023-05-01T16:06:10.793Z,,0,1,,4714.9100000000035,response,ISIC_7599444.JPG,,ISIC_0808203.JPG,ISIC_7599444.JPG,false,1,keypress(m),500,128251,128251,123523.36,123529.09999999404,123536.09,128257.803,6,300,7,,ISIC_0808203.JPG
break,html.Screen,4_6_1,2023-05-01T16:06:10.793Z,,0,,,NaN,,,,,,false,,,,128251.39999997616,128251.19999998808,,128251.09999999404,,128257.803,6,300,,,
break_continue,html.Screen,4_6_2,2023-05-01T16:06:10.793Z,,0,,,NaN,,,,,,false,,,,128251.5,128251.39999997616,,128251.39999997616,,128257.803,6,300,,,
sequence,flow.Sequence,4_6,2023-05-01T16:06:10.793Z,,0,,,4715.309999976162,completion,,,,,false,,,,128251.5,128251.39999997616,123523.36,123529.09999999404,123536.09,128257.803,6,300,,,
trial,html.Screen,4_7_0,2023-05-01T16:06:14.435Z,,0,1,,3635.697,response,ISIC_0080539.JPG,,ISIC_4654443.JPG,ISIC_0080539.JPG,false,1,keypress(m),500,131893.59999999404,131893.5,128249.473,128251.59999999404,128257.803,131896.739,6,300,8,,ISIC_4654443.JPG
break,html.Screen,4_7_1,2023-05-01T16:06:14.436Z,,0,,,NaN,,,,,,false,,,,131894,131893.79999998212,,131893.69999998808,,131896.739,6,300,,,
break_continue,html.Screen,4_7_2,2023-05-01T16:06:14.436Z,,0,,,NaN,,,,,,false,,,,131894.19999998808,131894.19999998808,,131894.09999999404,,131896.739,6,300,,,
sequence,flow.Sequence,4_7,2023-05-01T16:06:14.436Z,,0,,,3636.396999988079,completion,,,,,false,,,,131894.29999998212,131894.19999998808,128249.473,128251.5,128257.803,131896.739,6,300,,,
trial,html.Screen,4_8_0,2023-05-01T16:06:17.157Z,,0,1,,2718.2609999999986,response,ISIC_0014486.JPG,,ISIC_0502582.JPG,ISIC_0502582.JPG,false,0,keypress(z),500,134615.09999999404,134615,131890.642,131894.29999998212,131896.739,134618.939,6,300,9,,ISIC_0014486.JPG
break,html.Screen,4_8_1,2023-05-01T16:06:17.157Z,,0,,,NaN,,,,,,false,,,,134615.29999998212,134615.29999998212,,134615.09999999404,,134618.939,6,300,,,
break_continue,html.Screen,4_8_2,2023-05-01T16:06:17.157Z,,0,,,NaN,,,,,,false,,,,134615.59999999404,134615.59999999404,,134615.5,,134618.939,6,300,,,
sequence,flow.Sequence,4_8,2023-05-01T16:06:17.158Z,,0,,,2718.860999994038,completion,,,,,false,,,,134615.79999998212,134615.59999999404,131890.642,131894.29999998212,131896.739,134618.939,6,300,,,
trial,html.Screen,4_9_0,2023-05-01T16:06:20.189Z,,0,1,,3028.060999999987,response,ISIC_7466175.JPG,,ISIC_0032672.JPG,ISIC_7466175.JPG,false,1,keypress(m),500,137647.19999998808,137647,134613.72,134615.89999997616,134618.939,137653.751,6,300,10,,ISIC_0032672.JPG
break,html.Screen,4_9_1,2023-05-01T16:06:20.189Z,,0,,,NaN,,,,,,false,,,,137647.5,137647.29999998212,,137647.29999998212,,137653.751,6,300,,,
break_continue,html.Screen,4_9_2,2023-05-01T16:06:20.189Z,,0,,,NaN,,,,,,false,,,,137647.59999999404,137647.59999999404,,137647.5,,137653.751,6,300,,,
sequence,flow.Sequence,4_9,2023-05-01T16:06:20.189Z,,0,,,3028.6609999940265,completion,,,,,false,,,,137647.69999998808,137647.59999999404,134613.72,134615.89999997616,134618.939,137653.751,6,300,,,
trial,html.Screen,4_10_0,2023-05-01T16:06:22.881Z,,0,1,,2685.44899998809,response,ISIC_3447331.JPG,,ISIC_0028086.JPG,ISIC_0028086.JPG,false,0,keypress(z),500,140339.29999998212,140339.19999998808,137646.943,137647.79999998212,137653.751,140341.193,6,300,11,,ISIC_3447331.JPG
break,html.Screen,4_10_1,2023-05-01T16:06:22.881Z,,0,,,NaN,,,,,,false,,,,140339.59999999404,140339.5,,140339.39999997616,,140341.193,6,300,,,
break_continue,html.Screen,4_10_2,2023-05-01T16:06:22.882Z,,0,,,NaN,,,,,,false,,,,140339.79999998212,140339.79999998212,,140339.69999998808,,140341.193,6,300,,,
sequence,flow.Sequence,4_10,2023-05-01T16:06:22.882Z,,0,,,2686.0489999821293,completion,,,,,false,,,,140339.89999997616,140339.79999998212,137646.943,137647.69999998808,137653.751,140341.193,6,300,,,
trial,html.Screen,4_11_0,2023-05-01T16:06:26.383Z,,0,1,,3499.9069999940402,response,ISIC_0026882.JPG,,ISIC_5182148.JPG,ISIC_0026882.JPG,false,1,keypress(m),500,143841.19999998808,143841.09999999404,140334.847,140339.89999997616,140341.193,143848.563,6,300,12,,ISIC_5182148.JPG
break,html.Screen,4_11_1,2023-05-01T16:06:26.383Z,,0,,,NaN,,,,,,false,,,,143841.59999999404,143841.39999997616,,143841.29999998212,,143848.563,6,300,,,
break_continue,html.Screen,4_11_2,2023-05-01T16:06:26.383Z,,0,,,NaN,,,,,,false,,,,143841.69999998808,143841.69999998808,,143841.59999999404,,143848.563,6,300,,,
sequence,flow.Sequence,4_11,2023-05-01T16:06:26.384Z,,0,,,3500.5069999880798,completion,,,,,false,,,,143841.79999998212,143841.69999998808,140334.847,140339.89999997616,140341.193,143848.563,6,300,,,
trial,html.Screen,4_12_0,2023-05-01T16:06:29.935Z,,0,1,,3544.8369999761635,response,ISIC_0026700.JPG,,ISIC_3945916.JPG,ISIC_0026700.JPG,false,1,keypress(m),500,147393.5,147393.39999997616,143835.677,143841.79999998212,143848.563,147396.95,6,300,13,,ISIC_3945916.JPG
break,html.Screen,4_12_1,2023-05-01T16:06:29.936Z,,0,,,NaN,,,,,,false,,,,147393.79999998212,147393.79999998212,,147393.59999999404,,147396.95,6,300,,,
break_continue,html.Screen,4_12_2,2023-05-01T16:06:29.936Z,,0,,,NaN,,,,,,false,,,,147394.09999999404,147394,,147394,,147396.95,6,300,,,
sequence,flow.Sequence,4_12,2023-05-01T16:06:29.936Z,,0,,,3545.4370000000054,completion,,,,,false,,,,147394.19999998808,147394,143835.677,143841.79999998212,143848.563,147396.95,6,300,,,
trial,html.Screen,4_13_0,2023-05-01T16:06:33.325Z,,0,1,,3385.9499999761465,response,ISIC_8121679.JPG,,ISIC_1668831.JPG,ISIC_1668831.JPG,false,0,keypress(z),500,150783,150782.89999997616,147390.505,147394.19999998808,147396.95,150785.729,6,300,14,,ISIC_8121679.JPG
break,html.Screen,4_13_1,2023-05-01T16:06:33.325Z,,0,,,NaN,,,,,,false,,,,150783.29999998212,150783.19999998808,,150783.09999999404,,150785.729,6,300,,,
break_continue,html.Screen,4_13_2,2023-05-01T16:06:33.325Z,,0,,,NaN,,,,,,false,,,,150783.59999999404,150783.59999999404,,150783.39999997616,,150785.729,6,300,,,
sequence,flow.Sequence,4_13,2023-05-01T16:06:33.325Z,,0,,,3386.649999994028,completion,,,,,false,,,,150783.69999998808,150783.59999999404,147390.505,147394.19999998808,147396.95,150785.729,6,300,,,
trial,html.Screen,4_14_0,2023-05-01T16:06:36.821Z,,0,1,,3493.0709999821265,response,ISIC_7694069.JPG,,ISIC_1761799.JPG,ISIC_7694069.JPG,false,1,keypress(m),500,154279,154278.79999998212,150781.703,150783.79999998212,150785.729,154285.853,6,300,15,,ISIC_1761799.JPG
break,html.Screen,4_14_1,2023-05-01T16:06:36.821Z,,0,,,NaN,,,,,,false,,,,154279.29999998212,154279.19999998808,,154279.09999999404,,154285.853,6,300,,,
break_continue,html.Screen,4_14_2,2023-05-01T16:06:36.821Z,,0,,,NaN,,,,,,false,,,,154279.59999999404,154279.5,,154279.39999997616,,154285.853,6,300,,,
sequence,flow.Sequence,4_14,2023-05-01T16:06:36.821Z,,0,,,3493.771000000008,completion,,,,,false,,,,154279.59999999404,154279.5,150781.703,150783.79999998212,150785.729,154285.853,6,300,,,
trial,html.Screen,4_15_0,2023-05-01T16:06:45.581Z,,0,1,,8753.546999976155,response,ISIC_0032258.JPG,,ISIC_1809444.JPG,ISIC_0032258.JPG,false,1,keypress(m),500,163039.39999997616,163039.39999997616,154272.617,154279.69999998808,154285.853,163042.742,6,300,16,,ISIC_1809444.JPG
break,html.Screen,4_15_1,2023-05-01T16:06:45.581Z,,0,,,NaN,,,,,,false,,,,163039.79999998212,163039.69999998808,,163039.5,,163042.742,6,300,,,
break_continue,html.Screen,4_15_2,2023-05-01T16:06:45.582Z,,0,,,NaN,,,,,,false,,,,163040,163040,,163039.89999997616,,163042.742,6,300,,,
sequence,flow.Sequence,4_15,2023-05-01T16:06:45.582Z,,0,,,8754.146999999997,completion,,,,,false,,,,163040.09999999404,163040,154272.617,154279.69999998808,154285.853,163042.742,6,300,,,
trial,html.Screen,4_16_0,2023-05-01T16:06:48.704Z,,0,1,,3119.7580000000016,response,ISIC_0025754.JPG,,ISIC_1293743.JPG,ISIC_1293743.JPG,false,0,keypress(z),500,166162.69999998808,166162.5,163036.17,163040.09999999404,163042.742,166167.754,6,300,17,,ISIC_0025754.JPG
break,html.Screen,4_16_1,2023-05-01T16:06:48.705Z,,0,,,NaN,,,,,,false,,,,166163.09999999404,166162.89999997616,,166162.69999998808,,166167.754,6,300,,,
break_continue,html.Screen,4_16_2,2023-05-01T16:06:48.705Z,,0,,,NaN,,,,,,false,,,,166163.29999998212,166163.29999998212,,166163.19999998808,,166167.754,6,300,,,
sequence,flow.Sequence,4_16,2023-05-01T16:06:48.705Z,,0,,,3120.5579999821202,completion,,,,,false,,,,166163.39999997616,166163.29999998212,163036.17,163040.09999999404,163042.742,166167.754,6,300,,,
trial,html.Screen,4_17_0,2023-05-01T16:06:51.670Z,,0,1,,2961.0459999821323,response,ISIC_4325452.JPG,,ISIC_0010061.JPG,ISIC_0010061.JPG,false,0,keypress(z),500,169128.79999998212,169128.79999998212,166159.9,166163.5,166167.754,169133.435,6,300,18,,ISIC_4325452.JPG
break,html.Screen,4_17_1,2023-05-01T16:06:51.671Z,,0,,,NaN,,,,,,false,,,,169129.19999998808,169129,,169128.89999997616,,169133.435,6,300,,,
break_continue,html.Screen,4_17_2,2023-05-01T16:06:51.671Z,,0,,,NaN,,,,,,false,,,,169129.5,169129.39999997616,,169129.19999998808,,169133.435,6,300,,,
sequence,flow.Sequence,4_17,2023-05-01T16:06:51.671Z,,0,,,2961.645999976172,completion,,,,,false,,,,169129.5,169129.39999997616,166159.9,166163.5,166167.754,169133.435,6,300,,,
trial,html.Screen,4_18_0,2023-05-01T16:06:54.245Z,,0,1,,2569.7649999880814,response,ISIC_0067443.JPG,,ISIC_7260977.JPG,ISIC_0067443.JPG,false,1,keypress(m),500,171703.29999998212,171703.19999998808,169126.744,169129.59999999404,169133.435,171710.088,6,300,19,,ISIC_7260977.JPG
break,html.Screen,4_18_1,2023-05-01T16:06:54.245Z,,0,,,NaN,,,,,,false,,,,171703.69999998808,171703.59999999404,,171703.39999997616,,171710.088,6,300,,,
break_continue,html.Screen,4_18_2,2023-05-01T16:06:54.246Z,,0,,,NaN,,,,,,false,,,,171704,171703.89999997616,,171703.79999998212,,171710.088,6,300,,,
sequence,flow.Sequence,4_18,2023-05-01T16:06:54.246Z,,0,,,2570.4649999761605,completion,,,,,false,,,,171704,171703.89999997616,169126.744,169129.59999999404,169133.435,171710.088,6,300,,,
trial,html.Screen,4_19_0,2023-05-01T16:06:56.901Z,,0,1,,2649.6119999880902,response,ISIC_5157775.JPG,,ISIC_9483306.JPG,ISIC_9483306.JPG,false,0,keypress(z),500,174359.79999998212,174359.69999998808,171703.46,171704.09999999404,171710.088,174362.312,6,300,20,,ISIC_5157775.JPG
break,html.Screen,4_19_1,2023-05-01T16:06:56.902Z,,0,,,NaN,,,,,,false,,,,174360.19999998808,174360,,174359.89999997616,,174362.312,6,300,,,
break_continue,html.Screen,4_19_2,2023-05-01T16:06:56.902Z,,0,,,NaN,,,,,,false,,,,174360.39999997616,174360.29999998212,,174360.19999998808,,174362.312,6,300,,,
sequence,flow.Sequence,4_19,2023-05-01T16:06:56.902Z,,0,,,2650.21199998213,completion,,,,,false,,,,174360.5,174360.29999998212,171703.46,171704,171710.088,174362.312,6,300,,,
trial,html.Screen,4_20_0,2023-05-01T16:07:00.530Z,,0,1,,3626.087999976153,response,ISIC_7287303.JPG,,ISIC_7545432.JPG,ISIC_7287303.JPG,false,1,keypress(m),500,177988.5,177988.39999997616,174356.946,174360.5,174362.312,177994.221,6,300,21,,ISIC_7545432.JPG
break,html.Screen,4_20_1,2023-05-01T16:07:00.530Z,,0,,,NaN,,,,,,false,,,,177988.79999998212,177988.69999998808,,177988.59999999404,,177994.221,6,300,,,
break_continue,html.Screen,4_20_2,2023-05-01T16:07:00.531Z,,0,,,NaN,,,,,,false,,,,177989.09999999404,177989.09999999404,,177988.89999997616,,177994.221,6,300,,,
sequence,flow.Sequence,4_20,2023-05-01T16:07:00.531Z,,0,,,3626.787999994034,completion,,,,,false,,,,177989.19999998808,177989.09999999404,174356.946,174360.5,174362.312,177994.221,6,300,,,
trial,html.Screen,4_21_0,2023-05-01T16:07:04.231Z,,0,1,,3694.7790000000095,response,ISIC_0054982.JPG,,ISIC_0010131.JPG,ISIC_0054982.JPG,false,1,keypress(m),500,181689.09999999404,181689,177987.53,177989.19999998808,177994.221,181695.671,6,300,22,,ISIC_0010131.JPG
break,html.Screen,4_21_1,2023-05-01T16:07:04.231Z,,0,,,NaN,,,,,,false,,,,181689.5,181689.29999998212,,181689.29999998212,,181695.671,6,300,,,
break_continue,html.Screen,4_21_2,2023-05-01T16:07:04.231Z,,0,,,NaN,,,,,,false,,,,181689.79999998212,181689.59999999404,,181689.59999999404,,181695.671,6,300,,,
sequence,flow.Sequence,4_21,2023-05-01T16:07:04.231Z,,0,,,3695.378999994049,completion,,,,,false,,,,181689.79999998212,181689.59999999404,177987.53,177989.19999998808,177994.221,181695.671,6,300,,,
trial,html.Screen,4_22_0,2023-05-01T16:07:07.015Z,,0,1,,2777.228999976156,response,ISIC_9865097.JPG,,ISIC_0063601.JPG,ISIC_0063601.JPG,false,0,keypress(z),500,184473,184472.89999997616,181684.667,181689.89999997616,181695.671,184480.718,6,300,23,,ISIC_9865097.JPG
break,html.Screen,4_22_1,2023-05-01T16:07:07.015Z,,0,,,NaN,,,,,,false,,,,184473.29999998212,184473.19999998808,,184473,,184480.718,6,300,,,
break_continue,html.Screen,4_22_2,2023-05-01T16:07:07.015Z,,0,,,NaN,,,,,,false,,,,184473.59999999404,184473.5,,184473.39999997616,,184480.718,6,300,,,
sequence,flow.Sequence,4_22,2023-05-01T16:07:07.015Z,,0,,,2777.828999999998,completion,,,,,false,,,,184473.69999998808,184473.5,181684.667,181689.89999997616,181695.671,184480.718,6,300,,,
trial,html.Screen,4_23_0,2023-05-01T16:07:10.371Z,,0,1,,3348.081999982125,response,ISIC_0030089.JPG,,ISIC_0063018.JPG,ISIC_0063018.JPG,false,0,keypress(z),500,187828.89999997616,187828.79999998212,184466.621,184473.69999998808,184480.718,187834.548,6,300,24,,ISIC_0030089.JPG
break,html.Screen,4_23_1,2023-05-01T16:07:10.371Z,,0,,,NaN,,,,,,false,,,,187829.29999998212,187829.09999999404,,187829,,187834.548,6,300,,,
break_continue,html.Screen,4_23_2,2023-05-01T16:07:10.371Z,,0,,,NaN,,,,,,false,,,,187829.39999997616,187829.39999997616,,187829.29999998212,,187834.548,6,300,,,
sequence,flow.Sequence,4_23,2023-05-01T16:07:10.371Z,,0,,,3348.6819999761647,completion,,,,,false,,,,187829.59999999404,187829.39999997616,184466.621,184473.69999998808,184480.718,187834.548,6,300,,,
trial,html.Screen,4_24_0,2023-05-01T16:07:12.999Z,,0,1,,2622.5519999940298,response,ISIC_2119925.JPG,,ISIC_3613012.JPG,ISIC_3613012.JPG,false,0,keypress(z),500,190457.19999998808,190457.09999999404,187827.589,187829.59999999404,187834.548,190459.657,6,300,25,,ISIC_2119925.JPG
break,html.Screen,4_24_1,2023-05-01T16:07:12.999Z,,0,,,NaN,,,,,,false,,,,190457.59999999404,190457.39999997616,,190457.29999998212,,190459.657,6,300,,,
break_continue,html.Screen,4_24_2,2023-05-01T16:07:12.999Z,,0,,,NaN,,,,,,false,,,,190457.79999998212,190457.69999998808,,190457.69999998808,,190459.657,6,300,,,
sequence,flow.Sequence,4_24,2023-05-01T16:07:13.000Z,,0,,,2623.1519999880693,completion,,,,,false,,,,190457.89999997616,190457.69999998808,187827.589,187829.59999999404,187834.548,190459.657,6,300,,,
trial,html.Screen,4_25_0,2023-05-01T16:07:15.937Z,,0,1,,2935.5429999880726,response,ISIC_3288342.JPG,,ISIC_0029363.JPG,ISIC_0029363.JPG,false,0,keypress(z),500,193395.39999997616,193395.19999998808,190453.448,190458,190459.657,193404.258,6,300,26,,ISIC_3288342.JPG
break,html.Screen,4_25_1,2023-05-01T16:07:15.937Z,,0,,,NaN,,,,,,false,,,,193395.59999999404,193395.5,,193395.39999997616,,193404.258,6,300,,,
break_continue,html.Screen,4_25_2,2023-05-01T16:07:15.937Z,,0,,,NaN,,,,,,false,,,,193395.69999998808,193395.69999998808,,193395.59999999404,,193404.258,6,300,,,
sequence,flow.Sequence,4_25,2023-05-01T16:07:15.937Z,,0,,,2936.0429999880726,completion,,,,,false,,,,193395.79999998212,193395.69999998808,190453.448,190458,190459.657,193404.258,6,300,,,
trial,html.Screen,4_26_0,2023-05-01T16:07:18.948Z,,0,1,,3001.541999982117,response,ISIC_0033025.JPG,,ISIC_0072730.JPG,ISIC_0072730.JPG,false,0,keypress(z),500,196405.89999997616,196405.79999998212,193397.362,193395.79999998212,193404.258,196411.044,6,300,27,,ISIC_0033025.JPG
break,html.Screen,4_26_1,2023-05-01T16:07:18.948Z,,0,,,NaN,,,,,,false,,,,196406.29999998212,196406.19999998808,,196406,,196411.044,6,300,,,
break_continue,html.Screen,4_26_2,2023-05-01T16:07:18.948Z,,0,,,NaN,,,,,,false,,,,196406.5,196406.39999997616,,196406.29999998212,,196411.044,6,300,,,
sequence,flow.Sequence,4_26,2023-05-01T16:07:18.948Z,,0,,,3002.1419999761565,completion,,,,,false,,,,196406.5,196406.39999997616,193397.362,193395.79999998212,193404.258,196411.044,6,300,,,
trial,html.Screen,4_27_0,2023-05-01T16:07:21.542Z,,0,1,,2588.8559999761637,response,ISIC_0028883.JPG,,ISIC_0027879.JPG,ISIC_0027879.JPG,false,0,keypress(z),500,199000,198999.89999997616,196404.445,196406.59999999404,196411.044,199015.778,6,300,28,,ISIC_0028883.JPG
break,html.Screen,4_27_1,2023-05-01T16:07:21.542Z,,0,,,NaN,,,,,,false,,,,199000.5,199000.29999998212,,199000.09999999404,,199015.778,6,300,,,
break_continue,html.Screen,4_27_2,2023-05-01T16:07:21.543Z,,0,,,NaN,,,,,,false,,,,199000.89999997616,199000.69999998808,,199000.69999998808,,199015.778,6,300,,,
sequence,flow.Sequence,4_27,2023-05-01T16:07:21.543Z,,0,,,2589.6559999880847,completion,,,,,false,,,,199001,199000.69999998808,196404.445,196406.59999999404,196411.044,199015.778,6,300,,,
trial,html.Screen,4_28_0,2023-05-01T16:07:24.002Z,,0,1,,2444.0219999821275,response,ISIC_1264950.JPG,,ISIC_6668093.JPG,ISIC_6668093.JPG,false,0,keypress(z),500,201459.89999997616,201459.79999998212,198994.521,199001.09999999404,199015.778,201466.617,6,300,29,,ISIC_1264950.JPG
break,html.Screen,4_28_1,2023-05-01T16:07:24.002Z,,0,,,NaN,,,,,,false,,,,201460.19999998808,201460.19999998808,,201460,,201466.617,6,300,,,
break_continue,html.Screen,4_28_2,2023-05-01T16:07:24.002Z,,0,,,NaN,,,,,,false,,,,201460.39999997616,201460.39999997616,,201460.29999998212,,201466.617,6,300,,,
sequence,flow.Sequence,4_28,2023-05-01T16:07:24.002Z,,0,,,2444.621999976167,completion,,,,,false,,,,201460.5,201460.39999997616,198994.521,199001,199015.778,201466.617,6,300,,,
trial,html.Screen,4_29_0,2023-05-01T16:07:26.736Z,,0,1,,2727.6829999821202,response,ISIC_5438156.JPG,,ISIC_3676643.JPG,ISIC_3676643.JPG,false,0,keypress(z),500,204194.5,204194.29999998212,201459.768,201460.5,201466.617,204212.993,6,300,30,,ISIC_5438156.JPG
break,html.Screen,4_29_1,2023-05-01T16:07:26.736Z,,0,,,NaN,,,,,,false,,,,204194.79999998212,204194.69999998808,,204194.59999999404,,204212.993,6,300,,,
break_continue,html.Screen,4_29_2,2023-05-01T16:07:26.737Z,,0,,,NaN,,,,,,false,,,,204195.09999999404,204194.89999997616,,204194.89999997616,,204212.993,6,300,,,
sequence,flow.Sequence,4_29,2023-05-01T16:07:26.737Z,,0,,,2728.2829999761598,completion,,,,,false,,,,204195.09999999404,204194.89999997616,201459.768,201460.5,201466.617,204212.993,6,300,,,
trial,html.Screen,4_30_0,2023-05-01T16:07:29.394Z,,0,1,,2639.106999994052,response,ISIC_0060091.JPG,,ISIC_4810142.JPG,ISIC_0060091.JPG,false,1,keypress(m),500,206852.29999998212,206852.09999999404,204189.129,204195.19999998808,204212.993,206855.593,6,300,31,,ISIC_4810142.JPG
break,html.Screen,4_30_1,2023-05-01T16:07:29.394Z,,0,,,NaN,,,,,,false,,,,206852.59999999404,206852.39999997616,,206852.29999998212,,206855.593,6,300,,,
break_continue,html.Screen,4_30_2,2023-05-01T16:07:29.394Z,,0,,,NaN,,,,,,false,,,,206852.59999999404,206852.59999999404,,206852.59999999404,,206855.593,6,300,,,
sequence,flow.Sequence,4_30,2023-05-01T16:07:29.394Z,,0,,,2639.606999994052,completion,,,,,false,,,,206852.69999998808,206852.59999999404,204189.129,204195.09999999404,204212.993,206855.593,6,300,,,
trial,html.Screen,4_31_0,2023-05-01T16:07:33.566Z,,0,1,,4168.206999982125,response,ISIC_3389704.JPG,,ISIC_0014189.JPG,ISIC_3389704.JPG,false,1,keypress(m),500,211023.89999997616,211023.79999998212,206848.344,206852.69999998808,206855.593,211029.173,6,300,32,,ISIC_0014189.JPG
break,html.Screen,4_31_1,2023-05-01T16:07:33.566Z,,0,,,NaN,,,,,,false,,,,211024.29999998212,211024.19999998808,,211023.89999997616,,211029.173,6,300,,,
break_continue,html.Screen,4_31_2,2023-05-01T16:07:33.566Z,,0,,,NaN,,,,,,false,,,,211024.59999999404,211024.59999999404,,211024.5,,211029.173,6,300,,,
sequence,flow.Sequence,4_31,2023-05-01T16:07:33.566Z,,0,,,4169.006999994046,completion,,,,,false,,,,211024.69999998808,211024.59999999404,206848.344,206852.69999998808,206855.593,211029.173,6,300,,,
trial,html.Screen,4_32_0,2023-05-01T16:07:36.160Z,,0,1,,2588.82699999999,response,ISIC_0032232.JPG,,ISIC_5580000.JPG,ISIC_0032232.JPG,false,1,keypress(m),500,213618.09999999404,213618,211023.02,211024.69999998808,211029.173,213639.889,6,300,33,,ISIC_5580000.JPG
break,html.Screen,4_32_1,2023-05-01T16:07:36.160Z,,0,,,NaN,,,,,,false,,,,213618.39999997616,213618.29999998212,,213618.09999999404,,213639.889,6,300,,,
break_continue,html.Screen,4_32_2,2023-05-01T16:07:36.160Z,,0,,,NaN,,,,,,false,,,,213618.69999998808,213618.59999999404,,213618.39999997616,,213639.889,6,300,,,
sequence,flow.Sequence,4_32,2023-05-01T16:07:36.160Z,,0,,,2589.4269999940298,completion,,,,,false,,,,213618.69999998808,213618.59999999404,211023.02,211024.69999998808,211029.173,213639.889,6,300,,,
trial,html.Screen,4_33_0,2023-05-01T16:07:38.663Z,,0,1,,2480.6110000000044,response,ISIC_3652847.JPG,,ISIC_0071458.JPG,ISIC_0071458.JPG,false,0,keypress(z),500,216120.59999999404,216120.5,213612.306,213618.79999998212,213639.889,216126.562,6,300,34,,ISIC_3652847.JPG
break,html.Screen,4_33_1,2023-05-01T16:07:38.663Z,,0,,,NaN,,,,,,false,,,,216121,216120.89999997616,,216120.79999998212,,216126.562,6,300,,,
break_continue,html.Screen,4_33_2,2023-05-01T16:07:38.663Z,,0,,,NaN,,,,,,false,,,,216121.19999998808,216121.19999998808,,216121.09999999404,,216126.562,6,300,,,
sequence,flow.Sequence,4_33,2023-05-01T16:07:38.663Z,,0,,,2481.3109999880835,completion,,,,,false,,,,216121.39999997616,216121.19999998808,213612.306,213618.69999998808,213639.889,216126.562,6,300,,,
trial,html.Screen,4_34_0,2023-05-01T16:07:41.249Z,,0,1,,2580.4379999999946,response,ISIC_0327225.JPG,,ISIC_0059303.JPG,ISIC_0059303.JPG,false,0,keypress(z),500,218707.09999999404,218707,216119.589,216121.39999997616,216126.562,218709.825,6,300,35,,ISIC_0327225.JPG
break,html.Screen,4_34_1,2023-05-01T16:07:41.249Z,,0,,,NaN,,,,,,false,,,,218707.39999997616,218707.29999998212,,218707.19999998808,,218709.825,6,300,,,
break_continue,html.Screen,4_34_2,2023-05-01T16:07:41.250Z,,0,,,NaN,,,,,,false,,,,218707.79999998212,218707.69999998808,,218707.59999999404,,218709.825,6,300,,,
sequence,flow.Sequence,4_34,2023-05-01T16:07:41.250Z,,0,,,2581.1379999880737,completion,,,,,false,,,,218707.79999998212,218707.69999998808,216119.589,216121.39999997616,216126.562,218709.825,6,300,,,
trial,html.Screen,4_35_0,2023-05-01T16:07:44.167Z,,0,1,,2915.274999994028,response,ISIC_0000072.JPG,,ISIC_9053910.JPG,ISIC_0000072.JPG,false,1,keypress(m),500,221625.19999998808,221625.09999999404,218703.203,218707.79999998212,218709.825,221634.048,6,300,36,,ISIC_9053910.JPG
break,html.Screen,4_35_1,2023-05-01T16:07:44.168Z,,0,,,NaN,,,,,,false,,,,221625.69999998808,221625.59999999404,,221625.29999998212,,221634.048,6,300,,,
break_continue,html.Screen,4_35_2,2023-05-01T16:07:44.168Z,,0,,,NaN,,,,,,false,,,,221625.79999998212,221625.79999998212,,221625.69999998808,,221634.048,6,300,,,
sequence,flow.Sequence,4_35,2023-05-01T16:07:44.168Z,,0,,,2915.974999982107,completion,,,,,false,,,,221625.89999997616,221625.79999998212,218703.203,218707.79999998212,218709.825,221634.048,6,300,,,
trial,html.Screen,4_36_0,2023-05-01T16:07:47.395Z,,0,1,,3218.5519999940298,response,ISIC_6639094.JPG,,ISIC_3565564.JPG,ISIC_6639094.JPG,false,1,keypress(m),500,224852.69999998808,224852.59999999404,221625.557,221625.89999997616,221634.048,224855.653,6,300,37,,ISIC_3565564.JPG
break,html.Screen,4_36_1,2023-05-01T16:07:47.395Z,,0,,,NaN,,,,,,false,,,,224853.09999999404,224853,,224852.79999998212,,224855.653,6,300,,,
break_continue,html.Screen,4_36_2,2023-05-01T16:07:47.395Z,,0,,,NaN,,,,,,false,,,,224853.19999998808,224853.19999998808,,224853.09999999404,,224855.653,6,300,,,
sequence,flow.Sequence,4_36,2023-05-01T16:07:47.395Z,,0,,,3219.1519999880693,completion,,,,,false,,,,224853.29999998212,224853.19999998808,221625.557,221625.89999997616,221634.048,224855.653,6,300,,,
trial,html.Screen,4_37_0,2023-05-01T16:07:50.036Z,,0,1,,2638.546999988088,response,ISIC_1793821.JPG,,ISIC_8409024.JPG,ISIC_1793821.JPG,false,1,keypress(m),500,227494.29999998212,227494.19999998808,224849.638,224853.29999998212,224855.653,227501.817,6,300,38,,ISIC_8409024.JPG
break,html.Screen,4_37_1,2023-05-01T16:07:50.037Z,,0,,,NaN,,,,,,false,,,,227494.59999999404,227494.5,,227494.39999997616,,227501.817,6,300,,,
break_continue,html.Screen,4_37_2,2023-05-01T16:07:50.037Z,,0,,,NaN,,,,,,false,,,,227494.79999998212,227494.69999998808,,227494.69999998808,,227501.817,6,300,,,
sequence,flow.Sequence,4_37,2023-05-01T16:07:50.037Z,,0,,,2639.046999988088,completion,,,,,false,,,,227494.89999997616,227494.69999998808,224849.638,224853.29999998212,224855.653,227501.817,6,300,,,
trial,html.Screen,4_38_0,2023-05-01T16:07:53.444Z,,0,1,,3400.082999976148,response,ISIC_0057892.JPG,,ISIC_0062991.JPG,ISIC_0062991.JPG,false,0,keypress(z),500,230902,230901.89999997616,227493.632,227494.89999997616,227501.817,230904.288,6,300,39,,ISIC_0057892.JPG
break,html.Screen,4_38_1,2023-05-01T16:07:53.444Z,,0,,,NaN,,,,,,false,,,,230902.19999998808,230902.19999998808,,230902.09999999404,,230904.288,6,300,,,
break_continue,html.Screen,4_38_2,2023-05-01T16:07:53.445Z,,0,,,NaN,,,,,,false,,,,230902.5,230902.5,,230902.39999997616,,230904.288,6,300,,,
sequence,flow.Sequence,4_38,2023-05-01T16:07:53.445Z,,0,,,3400.68299999999,completion,,,,,false,,,,230902.59999999404,230902.5,227493.632,227494.89999997616,227501.817,230904.288,6,300,,,
trial,html.Screen,4_39_0,2023-05-01T16:07:56.853Z,,0,1,,3406.6119999761577,response,ISIC_5325805.JPG,,ISIC_6982386.JPG,ISIC_6982386.JPG,false,0,keypress(z),500,234311,234310.89999997616,230897.632,230902.59999999404,230904.288,234314.097,6,300,40,,ISIC_5325805.JPG
break,html.Screen,4_39_1,2023-05-01T16:07:56.853Z,,0,,,NaN,,,,,,false,,,,234311.39999997616,234311.19999998808,,234311,,234314.097,6,300,,,
break_continue,html.Screen,4_39_2,2023-05-01T16:07:56.854Z,,0,,,NaN,,,,,,false,,,,234311.5,234311.5,,234311.39999997616,,234314.097,6,300,,,
sequence,flow.Sequence,4_39,2023-05-01T16:07:56.854Z,,0,,,3407.2119999999995,completion,,,,,false,,,,234311.69999998808,234311.5,230897.632,230902.59999999404,230904.288,234314.097,6,300,,,
trial,html.Screen,4_40_0,2023-05-01T16:07:59.454Z,,0,1,,2597.402999999991,response,ISIC_0228772.JPG,,ISIC_1379405.JPG,ISIC_1379405.JPG,false,0,keypress(z),500,236911.69999998808,236911.5,234307.286,234311.69999998808,234314.097,236918.232,6,300,41,,ISIC_0228772.JPG
break,html.Screen,4_40_1,2023-05-01T16:07:59.454Z,,0,,,NaN,,,,,,false,,,,236911.89999997616,236911.79999998212,,236911.69999998808,,236918.232,6,300,,,
break_continue,html.Screen,4_40_2,2023-05-01T16:07:59.454Z,,0,,,NaN,,,,,,false,,,,236912.09999999404,236912.09999999404,,236911.89999997616,,236918.232,6,300,,,
sequence,flow.Sequence,4_40,2023-05-01T16:07:59.454Z,,0,,,2598.0029999940307,completion,,,,,false,,,,236912.19999998808,236912.09999999404,234307.286,234311.69999998808,234314.097,236918.232,6,300,,,
trial,html.Screen,4_41_0,2023-05-01T16:08:02.822Z,,0,1,,3361.268000000011,response,ISIC_0072694.JPG,,ISIC_0024208.JPG,ISIC_0072694.JPG,false,1,keypress(m),500,240279.59999999404,240279.5,236906.009,236912.19999998808,236918.232,240293.348,6,300,42,,ISIC_0024208.JPG
break,html.Screen,4_41_1,2023-05-01T16:08:02.822Z,,0,,,NaN,,,,,,false,,,,240279.89999997616,240279.79999998212,,240279.59999999404,,240293.348,6,300,,,
break_continue,html.Screen,4_41_2,2023-05-01T16:08:02.822Z,,0,,,NaN,,,,,,false,,,,240280.09999999404,240280.09999999404,,240280,,240293.348,6,300,,,
sequence,flow.Sequence,4_41,2023-05-01T16:08:02.822Z,,0,,,3361.8679999940505,completion,,,,,false,,,,240280.19999998808,240280.09999999404,236906.009,236912.19999998808,236918.232,240293.348,6,300,,,
trial,html.Screen,4_42_0,2023-05-01T16:08:05.416Z,,0,1,,2580.9519999821205,response,ISIC_0032204.JPG,,ISIC_0066399.JPG,ISIC_0066399.JPG,false,0,keypress(z),500,242874.29999998212,242874.29999998212,240286.588,240280.29999998212,240293.348,242876.582,6,300,43,,ISIC_0032204.JPG
break,html.Screen,4_42_1,2023-05-01T16:08:05.417Z,,0,,,NaN,,,,,,false,,,,242874.69999998808,242874.59999999404,,242874.39999997616,,242876.582,6,300,,,
break_continue,html.Screen,4_42_2,2023-05-01T16:08:05.417Z,,0,,,NaN,,,,,,false,,,,242875.09999999404,242874.89999997616,,242874.69999998808,,242876.582,6,300,,,
sequence,flow.Sequence,4_42,2023-05-01T16:08:05.417Z,,0,,,2581.55199997616,completion,,,,,false,,,,242875.19999998808,242874.89999997616,240286.588,240280.29999998212,240293.348,242876.582,6,300,,,
trial,html.Screen,4_43_0,2023-05-01T16:08:07.925Z,,0,1,,2505.918000000005,response,ISIC_0238824.JPG,,ISIC_0029157.JPG,ISIC_0029157.JPG,false,0,keypress(z),500,245382.59999999404,245382.5,242872.606,242875.19999998808,242876.582,245405.227,6,300,44,,ISIC_0238824.JPG
break,html.Screen,4_43_1,2023-05-01T16:08:07.925Z,,0,,,NaN,,,,,,false,,,,245382.89999997616,245382.79999998212,,245382.59999999404,,245405.227,6,300,,,
break_continue,html.Screen,4_43_2,2023-05-01T16:08:07.925Z,,0,,,NaN,,,,,,false,,,,245383.39999997616,245383.29999998212,,245383,,245405.227,6,300,,,
sequence,flow.Sequence,4_43,2023-05-01T16:08:07.925Z,,0,,,2506.7179999821237,completion,,,,,false,,,,245383.5,245383.29999998212,242872.606,242875.19999998808,242876.582,245405.227,6,300,,,
trial,html.Screen,4_44_0,2023-05-01T16:08:10.469Z,,0,1,,2521.7729999999865,response,ISIC_0032430.JPG,,ISIC_0032182.JPG,ISIC_0032182.JPG,false,0,keypress(z),500,247927.09999999404,247927,245377.019,245383.5,245405.227,247932.236,6,300,45,,ISIC_0032430.JPG
break,html.Screen,4_44_1,2023-05-01T16:08:10.469Z,,0,,,NaN,,,,,,false,,,,247927.5,247927.29999998212,,247927.19999998808,,247932.236,6,300,,,
break_continue,html.Screen,4_44_2,2023-05-01T16:08:10.470Z,,0,,,NaN,,,,,,false,,,,247927.69999998808,247927.69999998808,,247927.5,,247932.236,6,300,,,
sequence,flow.Sequence,4_44,2023-05-01T16:08:10.470Z,,0,,,2522.4729999880656,completion,,,,,false,,,,247927.79999998212,247927.69999998808,245377.019,245383.5,245405.227,247932.236,6,300,,,
trial,html.Screen,4_45_0,2023-05-01T16:08:13.972Z,,0,1,,3497.9639999880746,response,ISIC_0069379.JPG,,ISIC_0032504.JPG,ISIC_0032504.JPG,false,0,keypress(z),500,251430.29999998212,251430.19999998808,247925.772,247927.79999998212,247932.236,251432.194,6,300,46,,ISIC_0069379.JPG
break,html.Screen,4_45_1,2023-05-01T16:08:13.973Z,,0,,,NaN,,,,,,false,,,,251430.69999998808,251430.5,,251430.39999997616,,251432.194,6,300,,,
break_continue,html.Screen,4_45_2,2023-05-01T16:08:13.973Z,,0,,,NaN,,,,,,false,,,,251430.89999997616,251430.79999998212,,251430.79999998212,,251432.194,6,300,,,
sequence,flow.Sequence,4_45,2023-05-01T16:08:13.973Z,,0,,,3498.563999982114,completion,,,,,false,,,,251431,251430.79999998212,247925.772,247927.79999998212,247932.236,251432.194,6,300,,,
trial,html.Screen,4_46_0,2023-05-01T16:08:16.926Z,,0,1,,2951.3060000000114,response,ISIC_7484771.JPG,,ISIC_3474681.JPG,ISIC_7484771.JPG,false,1,keypress(m),500,254383.59999999404,254383.5,251425.808,251431,251432.194,254390.59,6,300,47,,ISIC_3474681.JPG
break,html.Screen,4_46_1,2023-05-01T16:08:16.926Z,,0,,,NaN,,,,,,false,,,,254383.89999997616,254383.79999998212,,254383.69999998808,,254390.59,6,300,,,
break_continue,html.Screen,4_46_2,2023-05-01T16:08:16.926Z,,0,,,NaN,,,,,,false,,,,254384,254384,,254383.89999997616,,254390.59,6,300,,,
sequence,flow.Sequence,4_46,2023-05-01T16:08:16.926Z,,0,,,2951.8060000000114,completion,,,,,false,,,,254384.09999999404,254384,251425.808,251431,251432.194,254390.59,6,300,,,
trial,html.Screen,4_47_0,2023-05-01T16:08:19.871Z,,0,1,,2938.209999982122,response,ISIC_0025653.JPG,,ISIC_0004907.JPG,ISIC_0025653.JPG,false,1,keypress(m),500,257328.89999997616,257328.79999998212,254380.332,254384.09999999404,254390.59,257335.398,6,300,48,,ISIC_0004907.JPG
break,html.Screen,4_47_1,2023-05-01T16:08:19.871Z,,0,,,NaN,,,,,,false,,,,257329.09999999404,257329.09999999404,,257328.89999997616,,257335.398,6,300,,,
break_continue,html.Screen,4_47_2,2023-05-01T16:08:19.871Z,,0,,,NaN,,,,,,false,,,,257329.39999997616,257329.39999997616,,257329.19999998808,,257335.398,6,300,,,
sequence,flow.Sequence,4_47,2023-05-01T16:08:19.871Z,,0,,,2938.8099999761616,completion,,,,,false,,,,257329.5,257329.39999997616,254380.332,254384.09999999404,254390.59,257335.398,6,300,,,
trial,html.Screen,4_48_0,2023-05-01T16:08:22.316Z,,0,1,,2438.3019999880926,response,ISIC_1089617.JPG,,ISIC_0026909.JPG,ISIC_0026909.JPG,false,0,keypress(z),500,259773.79999998212,259773.69999998808,257328.798,257329.59999999404,257335.398,259779.887,6,300,49,,ISIC_1089617.JPG
break,html.Screen,4_48_1,2023-05-01T16:08:22.316Z,,0,,,NaN,,,,,,false,,,,259774.09999999404,259774,,259773.89999997616,,259779.887,6,300,,,
break_continue,html.Screen,4_48_2,2023-05-01T16:08:22.316Z,,0,,,NaN,,,,,,false,,,,259774.39999997616,259774.29999998212,,259774.19999998808,,259779.887,6,300,,,
sequence,flow.Sequence,4_48,2023-05-01T16:08:22.316Z,,0,,,2438.901999982132,completion,,,,,false,,,,259774.39999997616,259774.29999998212,257328.798,257329.59999999404,257335.398,259779.887,6,300,,,
trial,html.Screen,4_49_0,2023-05-01T16:08:25.101Z,,0,1,,2779.113000000012,response,ISIC_0826998.JPG,,ISIC_0004789.JPG,ISIC_0004789.JPG,false,0,keypress(z),500,262559.1999999881,262559,259774.028,259774.5,259779.887,262564.266,6,300,50,,ISIC_0826998.JPG
break,html.Screen,4_49_1,2023-05-01T16:08:30.100Z,,0,,,5000.043000000005,timeout,,,,,false,,,,267557.6999999881,267557.353,262557.467,262559.2999999821,262564.266,267564.309,6,300,,,
break_continue,html.Screen,4_49_2,2023-05-01T16:08:31.158Z,,0,,,1047.4909999821102,response,,,,,false,continue,keypress(Space),,268615.7999999821,268611.7999999821,267557.353,267557.7999999821,267564.309,268619.807,6,300,,,
sequence,flow.Sequence,4_49,2023-05-01T16:08:31.158Z,,0,,,8831.91299998213,completion,,,,,false,,,,268615.7999999821,268611.7999999821,259774.028,259774.5,259779.887,268619.807,6,300,,,
trial,html.Screen,4_50_0,2023-05-01T16:08:33.721Z,,0,2,,2559.3929999881075,response,ISIC_3225754.JPG,,ISIC_0028692.JPG,ISIC_0028692.JPG,false,0,keypress(z),500,271179.39999997616,271179.1999999881,268613.324,268615.7999999821,268619.807,271182.447,6,300,1,,ISIC_3225754.JPG
break,html.Screen,4_50_1,2023-05-01T16:08:33.722Z,,0,,,NaN,,,,,,false,,,,271179.59999999404,271179.59999999404,,271179.5,,271182.447,6,300,,,
break_continue,html.Screen,4_50_2,2023-05-01T16:08:33.722Z,,0,,,NaN,,,,,,false,,,,271179.89999997616,271179.7999999821,,271179.6999999881,,271182.447,6,300,,,
sequence,flow.Sequence,4_50,2023-05-01T16:08:33.722Z,,0,,,2559.992999982147,completion,,,,,false,,,,271180,271179.7999999821,268613.324,268615.7999999821,268619.807,271182.447,6,300,,,
trial,html.Screen,4_51_0,2023-05-01T16:08:36.301Z,,0,2,,2576.152999994054,response,ISIC_5216586.JPG,,ISIC_0034237.JPG,ISIC_5216586.JPG,false,1,keypress(m),500,273758.6999999881,273758.59999999404,271175.354,271180,271182.447,273766.313,6,300,2,,ISIC_0034237.JPG
break,html.Screen,4_51_1,2023-05-01T16:08:36.301Z,,0,,,NaN,,,,,,false,,,,273759.09999999404,273759,,273758.7999999821,,273766.313,6,300,,,
break_continue,html.Screen,4_51_2,2023-05-01T16:08:36.301Z,,0,,,NaN,,,,,,false,,,,273759.39999997616,273759.39999997616,,273759.1999999881,,273766.313,6,300,,,
sequence,flow.Sequence,4_51,2023-05-01T16:08:36.301Z,,0,,,2576.9529999761726,completion,,,,,false,,,,273759.5,273759.39999997616,271175.354,271180,271182.447,273766.313,6,300,,,
trial,html.Screen,4_52_0,2023-05-01T16:08:38.866Z,,0,2,,2557.5869999761344,response,ISIC_7266462.JPG,,ISIC_0010478.JPG,ISIC_7266462.JPG,false,1,keypress(m),500,276324,276323.89999997616,273754.506,273759.59999999404,273766.313,276328.467,6,300,3,,ISIC_0010478.JPG
break,html.Screen,4_52_1,2023-05-01T16:08:38.866Z,,0,,,NaN,,,,,,false,,,,276324.2999999821,276324.2999999821,,276324.09999999404,,276328.467,6,300,,,
break_continue,html.Screen,4_52_2,2023-05-01T16:08:38.866Z,,0,,,NaN,,,,,,false,,,,276324.59999999404,276324.5,,276324.39999997616,,276328.467,6,300,,,
sequence,flow.Sequence,4_52,2023-05-01T16:08:38.866Z,,0,,,2558.1869999999763,completion,,,,,false,,,,276324.59999999404,276324.5,273754.506,273759.59999999404,273766.313,276328.467,6,300,,,
trial,html.Screen,4_53_0,2023-05-01T16:08:41.171Z,,0,2,,2300.1329999940353,response,ISIC_0066240.JPG,,ISIC_5611104.JPG,ISIC_0066240.JPG,false,1,keypress(m),500,278628.6999999881,278628.59999999404,276321.627,276324.6999999881,276328.467,278640.689,6,300,4,,ISIC_5611104.JPG
break,html.Screen,4_53_1,2023-05-01T16:08:41.171Z,,0,,,NaN,,,,,,false,,,,278629,278628.89999997616,,278628.7999999821,,278640.689,6,300,,,
break_continue,html.Screen,4_53_2,2023-05-01T16:08:41.171Z,,0,,,NaN,,,,,,false,,,,278629.1999999881,278629.09999999404,,278629.09999999404,,278640.689,6,300,,,
sequence,flow.Sequence,4_53,2023-05-01T16:08:41.171Z,,0,,,2300.6329999940353,completion,,,,,false,,,,278629.1999999881,278629.09999999404,276321.627,276324.6999999881,276328.467,278640.689,6,300,,,
trial,html.Screen,4_54_0,2023-05-01T16:08:43.561Z,,0,2,,2378.010999988066,response,ISIC_8397285.JPG,,ISIC_5620802.JPG,ISIC_5620802.JPG,false,0,keypress(z),500,281018.7999999821,281018.6999999881,278634.188,278629.2999999821,278640.689,281023.513,6,300,5,,ISIC_8397285.JPG
break,html.Screen,4_54_1,2023-05-01T16:08:43.561Z,,0,,,NaN,,,,,,false,,,,281019.09999999404,281019,,281018.89999997616,,281023.513,6,300,,,
break_continue,html.Screen,4_54_2,2023-05-01T16:08:43.561Z,,0,,,NaN,,,,,,false,,,,281019.2999999821,281019.2999999821,,281019.09999999404,,281023.513,6,300,,,
sequence,flow.Sequence,4_54,2023-05-01T16:08:43.561Z,,0,,,2378.6109999821056,completion,,,,,false,,,,281019.39999997616,281019.2999999821,278634.188,278629.2999999821,278640.689,281023.513,6,300,,,
trial,html.Screen,4_55_0,2023-05-01T16:08:46.197Z,,0,2,,2631.886999976181,response,ISIC_6001936.JPG,,ISIC_0472513.JPG,ISIC_6001936.JPG,false,1,keypress(m),500,283655.39999997616,283655.39999997616,281015.884,281019.39999997616,281023.513,283662.007,6,300,6,,ISIC_0472513.JPG
break,html.Screen,4_55_1,2023-05-01T16:08:46.198Z,,0,,,NaN,,,,,,false,,,,283655.7999999821,283655.6999999881,,283655.59999999404,,283662.007,6,300,,,
break_continue,html.Screen,4_55_2,2023-05-01T16:08:46.198Z,,0,,,NaN,,,,,,false,,,,283656.09999999404,283656.09999999404,,283656,,283662.007,6,300,,,
sequence,flow.Sequence,4_55,2023-05-01T16:08:46.198Z,,0,,,2632.5869999940624,completion,,,,,false,,,,283656.1999999881,283656.09999999404,281015.884,281019.39999997616,281023.513,283662.007,6,300,,,
trial,html.Screen,4_56_0,2023-05-01T16:08:48.671Z,,0,2,,2467.4930000000168,response,ISIC_7024807.JPG,,ISIC_0030171.JPG,ISIC_7024807.JPG,false,1,keypress(m),500,286129.59999999404,286129.5,283655.265,283656.1999999881,283662.007,286133.766,6,300,7,,ISIC_0030171.JPG
break,html.Screen,4_56_1,2023-05-01T16:08:48.672Z,,0,,,NaN,,,,,,false,,,,286129.89999997616,286129.7999999821,,286129.6999999881,,286133.766,6,300,,,
break_continue,html.Screen,4_56_2,2023-05-01T16:08:48.672Z,,0,,,NaN,,,,,,false,,,,286130,286130,,286129.89999997616,,286133.766,6,300,,,
sequence,flow.Sequence,4_56,2023-05-01T16:08:48.672Z,,0,,,2467.9930000000168,completion,,,,,false,,,,286130.09999999404,286130,283655.265,283656.1999999881,283662.007,286133.766,6,300,,,
trial,html.Screen,4_57_0,2023-05-01T16:08:51.463Z,,0,2,,2786.933999988076,response,ISIC_0033125.JPG,,ISIC_0059551.JPG,ISIC_0059551.JPG,false,0,keypress(z),500,288920.7999999821,288920.6999999881,286126.891,286130.09999999404,286133.766,288925.491,6,300,8,,ISIC_0033125.JPG
break,html.Screen,4_57_1,2023-05-01T16:08:51.463Z,,0,,,NaN,,,,,,false,,,,288921.09999999404,288921.09999999404,,288920.7999999821,,288925.491,6,300,,,
break_continue,html.Screen,4_57_2,2023-05-01T16:08:51.463Z,,0,,,NaN,,,,,,false,,,,288921.59999999404,288921.5,,288921.1999999881,,288925.491,6,300,,,
sequence,flow.Sequence,4_57,2023-05-01T16:08:51.463Z,,0,,,2787.7339999999967,completion,,,,,false,,,,288921.59999999404,288921.5,286126.891,286130.09999999404,286133.766,288925.491,6,300,,,
trial,html.Screen,4_58_0,2023-05-01T16:08:54.029Z,,0,2,,2561.8089999821386,response,ISIC_7225978.JPG,,ISIC_7980387.JPG,ISIC_7980387.JPG,false,0,keypress(z),500,291487.39999997616,291487.2999999821,288919.352,288921.6999999881,288925.491,291499.861,6,300,9,,ISIC_7225978.JPG
break,html.Screen,4_58_1,2023-05-01T16:08:54.030Z,,0,,,NaN,,,,,,false,,,,291487.7999999821,291487.6999999881,,291487.5,,291499.861,6,300,,,
break_continue,html.Screen,4_58_2,2023-05-01T16:08:54.030Z,,0,,,NaN,,,,,,false,,,,291488,291487.89999997616,,291487.7999999821,,291499.861,6,300,,,
sequence,flow.Sequence,4_58,2023-05-01T16:08:54.030Z,,0,,,2562.408999976178,completion,,,,,false,,,,291488,291487.89999997616,288919.352,288921.6999999881,288925.491,291499.861,6,300,,,
trial,html.Screen,4_59_0,2023-05-01T16:08:56.487Z,,0,2,,2445.3389999881038,response,ISIC_7738955.JPG,,ISIC_0024702.JPG,ISIC_0024702.JPG,false,0,keypress(z),500,293945.2999999821,293945.1999999881,291480.955,291488,291499.861,293959.676,6,300,10,,ISIC_7738955.JPG
break,html.Screen,4_59_1,2023-05-01T16:08:56.487Z,,0,,,NaN,,,,,,false,,,,293945.59999999404,293945.5,,293945.2999999821,,293959.676,6,300,,,
break_continue,html.Screen,4_59_2,2023-05-01T16:08:56.488Z,,0,,,NaN,,,,,,false,,,,293945.89999997616,293945.89999997616,,293945.6999999881,,293959.676,6,300,,,
sequence,flow.Sequence,4_59,2023-05-01T16:08:56.488Z,,0,,,2446.038999976183,completion,,,,,false,,,,293946,293945.89999997616,291480.955,291488,291499.861,293959.676,6,300,,,
trial,html.Screen,4_60_0,2023-05-01T16:08:59.686Z,,0,2,,3184.923999994062,response,ISIC_0071559.JPG,,ISIC_0033068.JPG,ISIC_0033068.JPG,false,0,keypress(z),500,297144.59999999404,297144.59999999404,293939.515,293946,293959.676,297147.86,6,300,11,,ISIC_0071559.JPG
break,html.Screen,4_60_1,2023-05-01T16:08:59.687Z,,0,,,NaN,,,,,,false,,,,297145.09999999404,297145,,297144.6999999881,,297147.86,6,300,,,
break_continue,html.Screen,4_60_2,2023-05-01T16:08:59.687Z,,0,,,NaN,,,,,,false,,,,297145.2999999821,297145.1999999881,,297145.09999999404,,297147.86,6,300,,,
sequence,flow.Sequence,4_60,2023-05-01T16:08:59.687Z,,0,,,3185.5239999881014,completion,,,,,false,,,,297145.39999997616,297145.1999999881,293939.515,293946,293959.676,297147.86,6,300,,,
trial,html.Screen,4_61_0,2023-05-01T16:09:02.225Z,,0,2,,2534.839999988093,response,ISIC_2379024.JPG,,ISIC_0012391.JPG,ISIC_0012391.JPG,false,0,keypress(z),500,299682.7999999821,299682.6999999881,297140.913,297145.39999997616,297147.86,299690.288,6,300,12,,ISIC_2379024.JPG
break,html.Screen,4_61_1,2023-05-01T16:09:02.225Z,,0,,,NaN,,,,,,false,,,,299683.1999999881,299683.09999999404,,299682.89999997616,,299690.288,6,300,,,
break_continue,html.Screen,4_61_2,2023-05-01T16:09:02.225Z,,0,,,NaN,,,,,,false,,,,299683.5,299683.2999999821,,299683.2999999821,,299690.288,6,300,,,
sequence,flow.Sequence,4_61,2023-05-01T16:09:02.225Z,,0,,,2535.4399999821326,completion,,,,,false,,,,299683.5,299683.2999999821,297140.913,297145.39999997616,297147.86,299690.288,6,300,,,
trial,html.Screen,4_62_0,2023-05-01T16:09:04.713Z,,0,2,,2480.511999982118,response,ISIC_2057184.JPG,,ISIC_6209119.JPG,ISIC_2057184.JPG,false,1,keypress(m),500,302170.89999997616,302170.7999999821,299682.61,299683.59999999404,299690.288,302175.66,6,300,13,,ISIC_6209119.JPG
break,html.Screen,4_62_1,2023-05-01T16:09:04.713Z,,0,,,NaN,,,,,,false,,,,302171.1999999881,302171.09999999404,,302171,,302175.66,6,300,,,
break_continue,html.Screen,4_62_2,2023-05-01T16:09:04.713Z,,0,,,NaN,,,,,,false,,,,302171.39999997616,302171.2999999821,,302171.2999999821,,302175.66,6,300,,,
sequence,flow.Sequence,4_62,2023-05-01T16:09:04.713Z,,0,,,2481.011999982118,completion,,,,,false,,,,302171.5,302171.2999999821,299682.61,299683.59999999404,299690.288,302175.66,6,300,,,
trial,html.Screen,4_63_0,2023-05-01T16:09:07.215Z,,0,2,,2497.639999982144,response,ISIC_0033644.JPG,,ISIC_4648593.JPG,ISIC_0033644.JPG,false,1,keypress(m),500,304673.39999997616,304673.2999999821,302169.239,302171.59999999404,302175.66,304683.331,6,300,14,,ISIC_4648593.JPG
break,html.Screen,4_63_1,2023-05-01T16:09:07.215Z,,0,,,NaN,,,,,,false,,,,304673.6999999881,304673.59999999404,,304673.39999997616,,304683.331,6,300,,,
break_continue,html.Screen,4_63_2,2023-05-01T16:09:07.216Z,,0,,,NaN,,,,,,false,,,,304673.7999999821,304673.7999999821,,304673.6999999881,,304683.331,6,300,,,
sequence,flow.Sequence,4_63,2023-05-01T16:09:07.216Z,,0,,,2498.139999982144,completion,,,,,false,,,,304673.89999997616,304673.7999999821,302169.239,302171.59999999404,302175.66,304683.331,6,300,,,
trial,html.Screen,4_64_0,2023-05-01T16:09:09.655Z,,0,2,,2429.468999982113,response,ISIC_4663883.JPG,,ISIC_2680588.JPG,ISIC_4663883.JPG,false,1,keypress(m),500,307112.7999999821,307112.7999999821,304675.633,304673.89999997616,304683.331,307120.305,6,300,15,,ISIC_2680588.JPG
break,html.Screen,4_64_1,2023-05-01T16:09:09.655Z,,0,,,NaN,,,,,,false,,,,307113.1999999881,307113.1999999881,,307112.89999997616,,307120.305,6,300,,,
break_continue,html.Screen,4_64_2,2023-05-01T16:09:09.655Z,,0,,,NaN,,,,,,false,,,,307113.39999997616,307113.39999997616,,307113.39999997616,,307120.305,6,300,,,
sequence,flow.Sequence,4_64,2023-05-01T16:09:09.655Z,,0,,,2430.0689999761526,completion,,,,,false,,,,307113.5,307113.39999997616,304675.633,304673.89999997616,304683.331,307120.305,6,300,,,
trial,html.Screen,4_65_0,2023-05-01T16:09:12.227Z,,0,2,,2564.2949999940465,response,ISIC_0032537.JPG,,ISIC_0013845.JPG,ISIC_0032537.JPG,false,1,keypress(m),500,309684.7999999821,309684.59999999404,307113.117,307113.59999999404,307120.305,309689.539,6,300,16,,ISIC_0013845.JPG
break,html.Screen,4_65_1,2023-05-01T16:09:12.227Z,,0,,,NaN,,,,,,false,,,,309685.09999999404,309685,,309684.7999999821,,309689.539,6,300,,,
break_continue,html.Screen,4_65_2,2023-05-01T16:09:12.227Z,,0,,,NaN,,,,,,false,,,,309685.1999999881,309685.1999999881,,309685.09999999404,,309689.539,6,300,,,
sequence,flow.Sequence,4_65,2023-05-01T16:09:12.227Z,,0,,,2564.894999988086,completion,,,,,false,,,,309685.1999999881,309685.1999999881,307113.117,307113.59999999404,307120.305,309689.539,6,300,,,
trial,html.Screen,4_66_0,2023-05-01T16:09:14.644Z,,0,2,,2413.06099999405,response,ISIC_1294049.JPG,,ISIC_0069373.JPG,ISIC_0069373.JPG,false,0,keypress(z),500,312102.59999999404,312102.59999999404,309683.334,309685.39999997616,309689.539,312113.148,6,300,17,,ISIC_1294049.JPG
break,html.Screen,4_66_1,2023-05-01T16:09:14.645Z,,0,,,NaN,,,,,,false,,,,312103,312102.7999999821,,312102.6999999881,,312113.148,6,300,,,
break_continue,html.Screen,4_66_2,2023-05-01T16:09:14.645Z,,0,,,NaN,,,,,,false,,,,312103.09999999404,312103.09999999404,,312103,,312113.148,6,300,,,
sequence,flow.Sequence,4_66,2023-05-01T16:09:14.645Z,,0,,,2413.56099999405,completion,,,,,false,,,,312103.1999999881,312103.09999999404,309683.334,309685.39999997616,309689.539,312113.148,6,300,,,
trial,html.Screen,4_67_0,2023-05-01T16:09:17.464Z,,0,2,,2808.951999994053,response,ISIC_0033953.JPG,,ISIC_0026347.JPG,ISIC_0026347.JPG,false,0,keypress(z),500,314922.09999999404,314922.09999999404,312106.497,312103.1999999881,312113.148,314925.988,6,300,18,,ISIC_0033953.JPG
break,html.Screen,4_67_1,2023-05-01T16:09:17.464Z,,0,,,NaN,,,,,,false,,,,314922.5,314922.39999997616,,314922.1999999881,,314925.988,6,300,,,
break_continue,html.Screen,4_67_2,2023-05-01T16:09:17.465Z,,0,,,NaN,,,,,,false,,,,314922.89999997616,314922.7999999821,,314922.59999999404,,314925.988,6,300,,,
sequence,flow.Sequence,4_67,2023-05-01T16:09:17.465Z,,0,,,2809.651999982132,completion,,,,,false,,,,314923,314922.7999999821,312106.497,312103.1999999881,312113.148,314925.988,6,300,,,
trial,html.Screen,4_68_0,2023-05-01T16:09:20.101Z,,0,2,,2632.911999976146,response,ISIC_0067012.JPG,,ISIC_5823859.JPG,ISIC_0067012.JPG,false,1,keypress(m),500,317558.89999997616,317558.89999997616,314918.688,314923.09999999404,314925.988,317564.56,6,300,19,,ISIC_5823859.JPG
break,html.Screen,4_68_1,2023-05-01T16:09:20.101Z,,0,,,NaN,,,,,,false,,,,317559.2999999821,317559.1999999881,,317559,,317564.56,6,300,,,
break_continue,html.Screen,4_68_2,2023-05-01T16:09:20.101Z,,0,,,NaN,,,,,,false,,,,317559.59999999404,317559.39999997616,,317559.39999997616,,317564.56,6,300,,,
sequence,flow.Sequence,4_68,2023-05-01T16:09:20.101Z,,0,,,2633.411999976146,completion,,,,,false,,,,317559.6999999881,317559.39999997616,314918.688,314923.09999999404,314925.988,317564.56,6,300,,,
trial,html.Screen,4_69_0,2023-05-01T16:09:22.560Z,,0,2,,2453.739999982121,response,ISIC_7811951.JPG,,ISIC_0033104.JPG,ISIC_0033104.JPG,false,0,keypress(z),500,320018.39999997616,320018.2999999821,317558.071,317559.7999999821,317564.56,320022.897,6,300,20,,ISIC_7811951.JPG
break,html.Screen,4_69_1,2023-05-01T16:09:22.560Z,,0,,,NaN,,,,,,false,,,,320018.6999999881,320018.6999999881,,320018.5,,320022.897,6,300,,,
break_continue,html.Screen,4_69_2,2023-05-01T16:09:22.561Z,,0,,,NaN,,,,,,false,,,,320018.89999997616,320018.89999997616,,320018.7999999821,,320022.897,6,300,,,
sequence,flow.Sequence,4_69,2023-05-01T16:09:22.561Z,,0,,,2454.3399999761605,completion,,,,,false,,,,320019,320018.89999997616,317558.071,317559.6999999881,317564.56,320022.897,6,300,,,
trial,html.Screen,4_70_0,2023-05-01T16:09:25.027Z,,0,2,,2462.4029999821214,response,ISIC_1473511.JPG,,ISIC_6821316.JPG,ISIC_6821316.JPG,false,0,keypress(z),500,322485.39999997616,322485.2999999821,320016.045,320019,320022.897,322495.145,6,300,21,,ISIC_1473511.JPG
break,html.Screen,4_70_1,2023-05-01T16:09:25.027Z,,0,,,NaN,,,,,,false,,,,322485.6999999881,322485.59999999404,,322485.5,,322495.145,6,300,,,
break_continue,html.Screen,4_70_2,2023-05-01T16:09:25.028Z,,0,,,NaN,,,,,,false,,,,322485.89999997616,322485.7999999821,,322485.7999999821,,322495.145,6,300,,,
sequence,flow.Sequence,4_70,2023-05-01T16:09:25.028Z,,0,,,2462.9029999821214,completion,,,,,false,,,,322485.89999997616,322485.7999999821,320016.045,320019,320022.897,322495.145,6,300,,,
trial,html.Screen,4_71_0,2023-05-01T16:09:29.474Z,,0,2,,4437.354999999981,response,ISIC_0010934.JPG,,ISIC_9921747.JPG,ISIC_0010934.JPG,false,1,keypress(m),500,326932.6999999881,326932.5,322488.567,322486,322495.145,326939.721,6,300,22,,ISIC_9921747.JPG
break,html.Screen,4_71_1,2023-05-01T16:09:29.475Z,,0,,,NaN,,,,,,false,,,,326933.09999999404,326933,,326932.7999999821,,326939.721,6,300,,,
break_continue,html.Screen,4_71_2,2023-05-01T16:09:29.475Z,,0,,,NaN,,,,,,false,,,,326933.2999999821,326933.2999999821,,326933.1999999881,,326939.721,6,300,,,
sequence,flow.Sequence,4_71,2023-05-01T16:09:29.475Z,,0,,,4438.1549999821,completion,,,,,false,,,,326933.39999997616,326933.2999999821,322488.567,322486,322495.145,326939.721,6,300,,,
trial,html.Screen,4_72_0,2023-05-01T16:09:32.181Z,,0,2,,2699.7789999999804,response,ISIC_0030784.JPG,,ISIC_0033196.JPG,ISIC_0033196.JPG,false,0,keypress(z),500,329639.59999999404,329639.5,326932.665,326933.5,326939.721,329641.237,6,300,23,,ISIC_0030784.JPG
break,html.Screen,4_72_1,2023-05-01T16:09:32.182Z,,0,,,NaN,,,,,,false,,,,329639.89999997616,329639.7999999821,,329639.6999999881,,329641.237,6,300,,,
break_continue,html.Screen,4_72_2,2023-05-01T16:09:32.182Z,,0,,,NaN,,,,,,false,,,,329640,329640,,329640,,329641.237,6,300,,,
sequence,flow.Sequence,4_72,2023-05-01T16:09:32.182Z,,0,,,2700.2789999999804,completion,,,,,false,,,,329640.09999999404,329640,326932.665,326933.39999997616,326939.721,329641.237,6,300,,,
trial,html.Screen,4_73_0,2023-05-01T16:09:35.058Z,,0,2,,2874.4629999880563,response,ISIC_4624973.JPG,,ISIC_0068528.JPG,ISIC_0068528.JPG,false,0,keypress(z),500,332515.89999997616,332515.6999999881,329634.013,329640.1999999881,329641.237,332523.066,6,300,24,,ISIC_4624973.JPG
break,html.Screen,4_73_1,2023-05-01T16:09:35.058Z,,0,,,NaN,,,,,,false,,,,332516.1999999881,332516.09999999404,,332515.89999997616,,332523.066,6,300,,,
break_continue,html.Screen,4_73_2,2023-05-01T16:09:35.058Z,,0,,,NaN,,,,,,false,,,,332516.1999999881,332516.1999999881,,332516.1999999881,,332523.066,6,300,,,
sequence,flow.Sequence,4_73,2023-05-01T16:09:35.058Z,,0,,,2874.9629999880563,completion,,,,,false,,,,332516.2999999821,332516.1999999881,329634.013,329640.09999999404,329641.237,332523.066,6,300,,,
trial,html.Screen,4_74_0,2023-05-01T16:09:43.120Z,,0,2,,8055.233999982127,response,ISIC_6963954.JPG,,ISIC_0061066.JPG,ISIC_0061066.JPG,false,0,keypress(z),500,340578.39999997616,340578.2999999821,332516.022,332516.39999997616,332523.066,340585.577,6,300,25,,ISIC_6963954.JPG
break,html.Screen,4_74_1,2023-05-01T16:09:43.121Z,,0,,,NaN,,,,,,false,,,,340578.59999999404,340578.59999999404,,340578.39999997616,,340585.577,6,300,,,
break_continue,html.Screen,4_74_2,2023-05-01T16:09:43.121Z,,0,,,NaN,,,,,,false,,,,340578.7999999821,340578.7999999821,,340578.59999999404,,340585.577,6,300,,,
sequence,flow.Sequence,4_74,2023-05-01T16:09:43.121Z,,0,,,8055.733999982127,completion,,,,,false,,,,340578.7999999821,340578.7999999821,332516.022,332516.39999997616,332523.066,340585.577,6,300,,,
trial,html.Screen,4_75_0,2023-05-01T16:09:46.320Z,,0,2,,3192.2229999821284,response,ISIC_4870676.JPG,,ISIC_0027480.JPG,ISIC_4870676.JPG,false,1,keypress(m),500,343777.89999997616,343777.7999999821,340578.569,340578.89999997616,340585.577,343780.049,6,300,26,,ISIC_0027480.JPG
break,html.Screen,4_75_1,2023-05-01T16:09:46.320Z,,0,,,NaN,,,,,,false,,,,343778.1999999881,343778.09999999404,,343778,,343780.049,6,300,,,
break_continue,html.Screen,4_75_2,2023-05-01T16:09:46.321Z,,0,,,NaN,,,,,,false,,,,343778.59999999404,343778.5,,343778.2999999821,,343780.049,6,300,,,
sequence,flow.Sequence,4_75,2023-05-01T16:09:46.321Z,,0,,,3192.92300000001,completion,,,,,false,,,,343778.6999999881,343778.5,340578.569,340578.89999997616,340585.577,343780.049,6,300,,,
trial,html.Screen,4_76_0,2023-05-01T16:09:49.529Z,,0,2,,3206.451000000001,response,ISIC_0053846.JPG,,ISIC_5565517.JPG,ISIC_5565517.JPG,false,0,keypress(z),500,346986.59999999404,346986.5,343772.655,343778.6999999881,343780.049,346988.351,6,300,27,,ISIC_0053846.JPG
break,html.Screen,4_76_1,2023-05-01T16:09:49.529Z,,0,,,NaN,,,,,,false,,,,346987,346986.89999997616,,346986.6999999881,,346988.351,6,300,,,
break_continue,html.Screen,4_76_2,2023-05-01T16:09:49.529Z,,0,,,NaN,,,,,,false,,,,346987.1999999881,346987.09999999404,,346987.09999999404,,346988.351,6,300,,,
sequence,flow.Sequence,4_76,2023-05-01T16:09:49.529Z,,0,,,3207.0509999940405,completion,,,,,false,,,,346987.2999999821,346987.09999999404,343772.655,343778.6999999881,343780.049,346988.351,6,300,,,
trial,html.Screen,4_77_0,2023-05-01T16:09:52.164Z,,0,2,,2633.348999988055,response,ISIC_0059041.JPG,,ISIC_0061252.JPG,ISIC_0061252.JPG,false,0,keypress(z),500,349621.7999999821,349621.6999999881,346981.519,346987.39999997616,346988.351,349627.416,6,300,28,,ISIC_0059041.JPG
break,html.Screen,4_77_1,2023-05-01T16:09:52.164Z,,0,,,NaN,,,,,,false,,,,349622.1999999881,349622,,349621.89999997616,,349627.416,6,300,,,
break_continue,html.Screen,4_77_2,2023-05-01T16:09:52.164Z,,0,,,NaN,,,,,,false,,,,349622.39999997616,349622.2999999821,,349622.1999999881,,349627.416,6,300,,,
sequence,flow.Sequence,4_77,2023-05-01T16:09:52.164Z,,0,,,2633.9489999820944,completion,,,,,false,,,,349622.5,349622.2999999821,346981.519,346987.39999997616,346988.351,349627.416,6,300,,,
trial,html.Screen,4_78_0,2023-05-01T16:09:55.378Z,,0,2,,3208.5839999999735,response,ISIC_0001126.JPG,,ISIC_6385296.JPG,ISIC_6385296.JPG,false,0,keypress(z),500,352836.09999999404,352836,349616.402,349622.59999999404,349627.416,352843.246,6,300,29,,ISIC_0001126.JPG
break,html.Screen,4_78_1,2023-05-01T16:09:55.378Z,,0,,,NaN,,,,,,false,,,,352836.5,352836.39999997616,,352836.1999999881,,352843.246,6,300,,,
break_continue,html.Screen,4_78_2,2023-05-01T16:09:55.379Z,,0,,,NaN,,,,,,false,,,,352836.7999999821,352836.7999999821,,352836.59999999404,,352843.246,6,300,,,
sequence,flow.Sequence,4_78,2023-05-01T16:09:55.379Z,,0,,,3209.383999982092,completion,,,,,false,,,,352836.89999997616,352836.7999999821,349616.402,349622.59999999404,349627.416,352843.246,6,300,,,
trial,html.Screen,4_79_0,2023-05-01T16:09:59.023Z,,0,2,,3637.4539999880944,response,ISIC_8626909.JPG,,ISIC_0000139.JPG,ISIC_8626909.JPG,false,1,keypress(m),500,356480.6999999881,356480.6999999881,352834.334,352837,352843.246,356495.314,6,300,30,,ISIC_0000139.JPG
break,html.Screen,4_79_1,2023-05-01T16:09:59.023Z,,0,,,NaN,,,,,,false,,,,356481.09999999404,356480.89999997616,,356480.7999999821,,356495.314,6,300,,,
break_continue,html.Screen,4_79_2,2023-05-01T16:09:59.023Z,,0,,,NaN,,,,,,false,,,,356481.1999999881,356481.1999999881,,356481.09999999404,,356495.314,6,300,,,
sequence,flow.Sequence,4_79,2023-05-01T16:09:59.023Z,,0,,,3637.9539999880944,completion,,,,,false,,,,356481.2999999821,356481.1999999881,352834.334,352836.89999997616,352843.246,356495.314,6,300,,,
trial,html.Screen,4_80_0,2023-05-01T16:10:01.757Z,,0,2,,2719.2859999940265,response,ISIC_3496800.JPG,,ISIC_3016754.JPG,ISIC_3016754.JPG,false,0,keypress(z),500,359214.7999999821,359214.59999999404,356474.756,356481.2999999821,356495.314,359217.625,6,300,31,,ISIC_3496800.JPG
break,html.Screen,4_80_1,2023-05-01T16:10:01.757Z,,0,,,NaN,,,,,,false,,,,359215.09999999404,359215,,359214.7999999821,,359217.625,6,300,,,
break_continue,html.Screen,4_80_2,2023-05-01T16:10:01.757Z,,0,,,NaN,,,,,,false,,,,359215.39999997616,359215.2999999821,,359215.1999999881,,359217.625,6,300,,,
sequence,flow.Sequence,4_80,2023-05-01T16:10:01.757Z,,0,,,2719.9859999821056,completion,,,,,false,,,,359215.39999997616,359215.2999999821,356474.756,356481.2999999821,356495.314,359217.625,6,300,,,
trial,html.Screen,4_81_0,2023-05-01T16:10:05.717Z,,0,2,,3957.1749999821186,response,ISIC_0010411.JPG,,ISIC_0032372.JPG,ISIC_0032372.JPG,false,0,keypress(z),500,363175,363174.7999999821,359209.954,359215.5,359217.625,363189.619,6,300,32,,ISIC_0010411.JPG
break,html.Screen,4_81_1,2023-05-01T16:10:05.717Z,,0,,,NaN,,,,,,false,,,,363175.39999997616,363175.2999999821,,363175.09999999404,,363189.619,6,300,,,
break_continue,html.Screen,4_81_2,2023-05-01T16:10:05.718Z,,0,,,NaN,,,,,,false,,,,363175.6999999881,363175.59999999404,,363175.5,,363189.619,6,300,,,
sequence,flow.Sequence,4_81,2023-05-01T16:10:05.718Z,,0,,,3957.9749999940395,completion,,,,,false,,,,363175.6999999881,363175.59999999404,359209.954,359215.5,359217.625,363189.619,6,300,,,
trial,html.Screen,4_82_0,2023-05-01T16:10:15.726Z,,0,2,,10007.295999999973,timeout,ISIC_0029250.JPG,,ISIC_0025217.JPG,,false,,,500,373183.59999999404,373183.5,363175.157,363175.7999999821,363189.619,373196.915,6,300,33,,
break,html.Screen,4_82_1,2023-05-01T16:10:15.726Z,,0,,,NaN,,,,,,false,,,,373183.89999997616,373183.7999999821,,373183.59999999404,,373196.915,6,300,,,
break_continue,html.Screen,4_82_2,2023-05-01T16:10:15.726Z,,0,,,NaN,,,,,,false,,,,373184.09999999404,373184,,373184,,373196.915,6,300,,,
sequence,flow.Sequence,4_82,2023-05-01T16:10:15.726Z,,0,,,9994.380999999994,completion,,,,,false,,,,373184.1999999881,373184,363175.157,363175.6999999881,363189.619,373196.915,6,300,,,
trial,html.Screen,4_83_0,2023-05-01T16:10:21.074Z,,0,2,,5335.085000000021,response,ISIC_0033957.JPG,,ISIC_0001120.JPG,ISIC_0033957.JPG,false,1,keypress(m),500,378532.09999999404,378532,373189.929,373184.1999999881,373196.915,378537.191,6,300,34,,ISIC_0001120.JPG
break,html.Screen,4_83_1,2023-05-01T16:10:21.074Z,,0,,,NaN,,,,,,false,,,,378532.39999997616,378532.39999997616,,378532.1999999881,,378537.191,6,300,,,
break_continue,html.Screen,4_83_2,2023-05-01T16:10:21.075Z,,0,,,NaN,,,,,,false,,,,378532.5,378532.5,,378532.5,,378537.191,6,300,,,
sequence,flow.Sequence,4_83,2023-05-01T16:10:21.075Z,,0,,,5335.585000000021,completion,,,,,false,,,,378532.59999999404,378532.5,373189.929,373184.1999999881,373196.915,378537.191,6,300,,,
trial,html.Screen,4_84_0,2023-05-01T16:10:28.862Z,,0,2,,7782.809000000008,response,ISIC_0071335.JPG,,ISIC_0059421.JPG,ISIC_0059421.JPG,false,0,keypress(z),500,386320.09999999404,386320,378529.909,378532.59999999404,378537.191,386321.963,6,300,35,,ISIC_0071335.JPG
break,html.Screen,4_84_1,2023-05-01T16:10:28.862Z,,0,,,NaN,,,,,,false,,,,386320.5,386320.2999999821,,386320.09999999404,,386321.963,6,300,,,
break_continue,html.Screen,4_84_2,2023-05-01T16:10:28.863Z,,0,,,NaN,,,,,,false,,,,386320.89999997616,386320.7999999821,,386320.5,,386321.963,6,300,,,
sequence,flow.Sequence,4_84,2023-05-01T16:10:28.863Z,,0,,,7783.608999982127,completion,,,,,false,,,,386321,386320.7999999821,378529.909,378532.59999999404,378537.191,386321.963,6,300,,,
trial,html.Screen,4_85_0,2023-05-01T16:10:38.857Z,,0,2,,10007.293999999994,timeout,ISIC_0026685.JPG,,ISIC_6496765.JPG,,false,,,500,396315.89999997616,396315.7999999821,386315.46,386321,386321.963,396329.257,6,300,36,,
break,html.Screen,4_85_1,2023-05-01T16:10:38.857Z,,0,,,NaN,,,,,,false,,,,396316.1999999881,396316.09999999404,,396316,,396329.257,6,300,,,
break_continue,html.Screen,4_85_2,2023-05-01T16:10:38.858Z,,0,,,NaN,,,,,,false,,,,396316.39999997616,396316.39999997616,,396316.39999997616,,396329.257,6,300,,,
sequence,flow.Sequence,4_85,2023-05-01T16:10:38.858Z,,0,,,9994.43699997617,completion,,,,,false,,,,396316.5,396316.39999997616,386315.46,386321,386321.963,396329.257,6,300,,,
trial,html.Screen,4_86_0,2023-05-01T16:10:43.861Z,,0,2,,4990.142999976175,response,ISIC_7702483.JPG,,ISIC_0033653.JPG,ISIC_0033653.JPG,false,0,keypress(z),500,401319.5,401319.39999997616,396322.025,396316.5,396329.257,401329.009,6,300,37,,ISIC_7702483.JPG
break,html.Screen,4_86_1,2023-05-01T16:10:43.861Z,,0,,,NaN,,,,,,false,,,,401319.7999999821,401319.7999999821,,401319.59999999404,,401329.009,6,300,,,
break_continue,html.Screen,4_86_2,2023-05-01T16:10:43.861Z,,0,,,NaN,,,,,,false,,,,401320,401319.89999997616,,401319.89999997616,,401329.009,6,300,,,
sequence,flow.Sequence,4_86,2023-05-01T16:10:43.861Z,,0,,,4990.642999976175,completion,,,,,false,,,,401320,401319.89999997616,396322.025,396316.5,396329.257,401329.009,6,300,,,
trial,html.Screen,4_87_0,2023-05-01T16:10:52.580Z,,0,2,,8709.49099999998,response,ISIC_2256461.JPG,,ISIC_0024355.JPG,ISIC_0024355.JPG,false,0,keypress(z),500,410038.59999999404,410038.5,401322.41,401320.09999999404,401329.009,410044.329,6,300,38,,ISIC_2256461.JPG
break,html.Screen,4_87_1,2023-05-01T16:10:52.580Z,,0,,,NaN,,,,,,false,,,,410038.89999997616,410038.7999999821,,410038.6999999881,,410044.329,6,300,,,
break_continue,html.Screen,4_87_2,2023-05-01T16:10:52.580Z,,0,,,NaN,,,,,,false,,,,410039.1999999881,410039.09999999404,,410039,,410044.329,6,300,,,
sequence,flow.Sequence,4_87,2023-05-01T16:10:52.580Z,,0,,,8710.09099999402,completion,,,,,false,,,,410039.1999999881,410039.09999999404,401322.41,401320.09999999404,401329.009,410044.329,6,300,,,
trial,html.Screen,4_88_0,2023-05-01T16:11:01.369Z,,0,2,,8783.270999994013,response,ISIC_6640686.JPG,,ISIC_0070046.JPG,ISIC_0070046.JPG,false,0,keypress(z),500,418827.6999999881,418827.59999999404,410037.951,410039.2999999821,410044.329,418829.09,6,300,39,,ISIC_6640686.JPG
break,html.Screen,4_88_1,2023-05-01T16:11:01.369Z,,0,,,NaN,,,,,,false,,,,418828,418827.89999997616,,418827.6999999881,,418829.09,6,300,,,
break_continue,html.Screen,4_88_2,2023-05-01T16:11:01.369Z,,0,,,NaN,,,,,,false,,,,418828.1999999881,418828.09999999404,,418828,,418829.09,6,300,,,
sequence,flow.Sequence,4_88,2023-05-01T16:11:01.370Z,,0,,,8783.770999994013,completion,,,,,false,,,,418828.2999999821,418828.09999999404,410037.951,410039.2999999821,410044.329,418829.09,6,300,,,
trial,html.Screen,4_89_0,2023-05-01T16:11:04.984Z,,0,2,,3613.6099999880535,response,ISIC_0255997.JPG,,ISIC_4348579.JPG,ISIC_0255997.JPG,false,1,keypress(m),500,422443.1999999881,422442.6999999881,418822.563,418828.2999999821,418829.09,422447.29,6,300,40,,ISIC_4348579.JPG
break,html.Screen,4_89_1,2023-05-01T16:11:04.985Z,,0,,,NaN,,,,,,false,,,,422443.6999999881,422443.5,,422443.2999999821,,422447.29,6,300,,,
break_continue,html.Screen,4_89_2,2023-05-01T16:11:04.985Z,,0,,,NaN,,,,,,false,,,,422443.7999999821,422443.7999999821,,422443.6999999881,,422447.29,6,300,,,
sequence,flow.Sequence,4_89,2023-05-01T16:11:04.985Z,,0,,,3614.709999982093,completion,,,,,false,,,,422443.89999997616,422443.7999999821,418822.563,418828.2999999821,418829.09,422447.29,6,300,,,
trial,html.Screen,4_90_0,2023-05-01T16:11:09.341Z,,0,2,,4352.3099999940605,response,ISIC_0013719.JPG,,ISIC_3884221.JPG,ISIC_0013719.JPG,false,1,keypress(m),500,426799.6999999881,426799.59999999404,422439.721,422443.89999997616,422447.29,426801.406,6,300,41,,ISIC_3884221.JPG
break,html.Screen,4_90_1,2023-05-01T16:11:09.341Z,,0,,,NaN,,,,,,false,,,,426800.09999999404,426800,,426799.89999997616,,426801.406,6,300,,,
break_continue,html.Screen,4_90_2,2023-05-01T16:11:09.342Z,,0,,,NaN,,,,,,false,,,,426800.39999997616,426800.1999999881,,426800.1999999881,,426801.406,6,300,,,
sequence,flow.Sequence,4_90,2023-05-01T16:11:09.342Z,,0,,,4352.9099999881,completion,,,,,false,,,,426800.5,426800.1999999881,422439.721,422443.89999997616,422447.29,426801.406,6,300,,,
trial,html.Screen,4_91_0,2023-05-01T16:11:11.878Z,,0,2,,2535.1939999940223,response,ISIC_0010347.JPG,,ISIC_4756167.JPG,ISIC_4756167.JPG,false,0,keypress(z),500,429336.7999999821,429336.59999999404,426794.961,426800.5,426801.406,429343.104,6,300,42,,ISIC_0010347.JPG
break,html.Screen,4_91_1,2023-05-01T16:11:11.878Z,,0,,,NaN,,,,,,false,,,,429337.09999999404,429336.89999997616,,429336.7999999821,,429343.104,6,300,,,
break_continue,html.Screen,4_91_2,2023-05-01T16:11:11.879Z,,0,,,NaN,,,,,,false,,,,429337.2999999821,429337.1999999881,,429337.09999999404,,429343.104,6,300,,,
sequence,flow.Sequence,4_91,2023-05-01T16:11:11.879Z,,0,,,2535.793999988062,completion,,,,,false,,,,429337.39999997616,429337.1999999881,426794.961,426800.5,426801.406,429343.104,6,300,,,
trial,html.Screen,4_92_0,2023-05-01T16:11:15.192Z,,0,2,,3307.6959999821265,response,ISIC_0008055.JPG,,ISIC_2151178.JPG,ISIC_0008055.JPG,false,1,keypress(m),500,432650.89999997616,432650.7999999821,429336.128,429337.39999997616,429343.104,432655.62,6,300,43,,ISIC_2151178.JPG
break,html.Screen,4_92_1,2023-05-01T16:11:15.192Z,,0,,,NaN,,,,,,false,,,,432651.1999999881,432651.09999999404,,432650.89999997616,,432655.62,6,300,,,
break_continue,html.Screen,4_92_2,2023-05-01T16:11:15.193Z,,0,,,NaN,,,,,,false,,,,432651.5,432651.39999997616,,432651.2999999821,,432655.62,6,300,,,
sequence,flow.Sequence,4_92,2023-05-01T16:11:15.193Z,,0,,,3308.295999976166,completion,,,,,false,,,,432651.59999999404,432651.39999997616,429336.128,429337.39999997616,429343.104,432655.62,6,300,,,
trial,html.Screen,4_93_0,2023-05-01T16:11:17.785Z,,0,2,,2588.279999976163,response,ISIC_0030769.JPG,,ISIC_1798471.JPG,ISIC_0030769.JPG,false,1,keypress(m),500,435244,435243.89999997616,432647.795,432651.59999999404,432655.62,435245.878,6,300,44,,ISIC_1798471.JPG
break,html.Screen,4_93_1,2023-05-01T16:11:17.786Z,,0,,,NaN,,,,,,false,,,,435244.2999999821,435244.09999999404,,435244.09999999404,,435245.878,6,300,,,
break_continue,html.Screen,4_93_2,2023-05-01T16:11:17.786Z,,0,,,NaN,,,,,,false,,,,435244.5,435244.5,,435244.39999997616,,435245.878,6,300,,,
sequence,flow.Sequence,4_93,2023-05-01T16:11:17.786Z,,0,,,2588.8800000000047,completion,,,,,false,,,,435244.6999999881,435244.5,432647.795,432651.59999999404,432655.62,435245.878,6,300,,,
trial,html.Screen,4_94_0,2023-05-01T16:11:27.484Z,,0,2,,9696.221999994013,response,ISIC_0011862.JPG,,ISIC_2517072.JPG,ISIC_0011862.JPG,false,1,keypress(m),500,444942.1999999881,444942.09999999404,435238.381,435244.6999999881,435245.878,444947.679,6,300,45,,ISIC_2517072.JPG
break,html.Screen,4_94_1,2023-05-01T16:11:27.484Z,,0,,,NaN,,,,,,false,,,,444942.59999999404,444942.39999997616,,444942.2999999821,,444947.679,6,300,,,
break_continue,html.Screen,4_94_2,2023-05-01T16:11:27.484Z,,0,,,NaN,,,,,,false,,,,444942.7999999821,444942.6999999881,,444942.6999999881,,444947.679,6,300,,,
sequence,flow.Sequence,4_94,2023-05-01T16:11:27.484Z,,0,,,9696.821999988053,completion,,,,,false,,,,444942.89999997616,444942.6999999881,435238.381,435244.6999999881,435245.878,444947.679,6,300,,,
trial,html.Screen,4_95_0,2023-05-01T16:11:30.642Z,,0,2,,3152.920999994036,response,ISIC_0013792.JPG,,ISIC_0032559.JPG,ISIC_0032559.JPG,false,0,keypress(z),500,448100.59999999404,448100.59999999404,444940.913,444943,444947.679,448107.405,6,300,46,,ISIC_0013792.JPG
break,html.Screen,4_95_1,2023-05-01T16:11:30.642Z,,0,,,NaN,,,,,,false,,,,448101,448100.89999997616,,448100.6999999881,,448107.405,6,300,,,
break_continue,html.Screen,4_95_2,2023-05-01T16:11:30.643Z,,0,,,NaN,,,,,,false,,,,448101.1999999881,448101.1999999881,,448101.09999999404,,448107.405,6,300,,,
sequence,flow.Sequence,4_95,2023-05-01T16:11:30.643Z,,0,,,3153.5209999880753,completion,,,,,false,,,,448101.39999997616,448101.1999999881,444940.913,444943,444947.679,448107.405,6,300,,,
trial,html.Screen,4_96_0,2023-05-01T16:11:33.301Z,,0,2,,2651.99499997613,response,ISIC_0010476.JPG,,ISIC_0009931.JPG,ISIC_0009931.JPG,false,0,keypress(z),500,450759.5,450759.39999997616,448100,448101.39999997616,448107.405,450767.085,6,300,47,,ISIC_0010476.JPG
break,html.Screen,4_96_1,2023-05-01T16:11:33.301Z,,0,,,NaN,,,,,,false,,,,450759.7999999821,450759.7999999821,,450759.59999999404,,450767.085,6,300,,,
break_continue,html.Screen,4_96_2,2023-05-01T16:11:33.301Z,,0,,,NaN,,,,,,false,,,,450760.09999999404,450760.09999999404,,450760,,450767.085,6,300,,,
sequence,flow.Sequence,4_96,2023-05-01T16:11:33.301Z,,0,,,2652.6949999940116,completion,,,,,false,,,,450760.1999999881,450760.09999999404,448100,448101.39999997616,448107.405,450767.085,6,300,,,
trial,html.Screen,4_97_0,2023-05-01T16:11:39.256Z,,0,2,,5947.514999994019,response,ISIC_0000278.JPG,,ISIC_0033129.JPG,ISIC_0033129.JPG,false,0,keypress(z),500,456714.6999999881,456714.59999999404,450753.39,450760.1999999881,450767.085,456718.493,6,300,48,,ISIC_0000278.JPG
break,html.Screen,4_97_1,2023-05-01T16:11:39.257Z,,0,,,NaN,,,,,,false,,,,456715.09999999404,456714.89999997616,,456714.7999999821,,456718.493,6,300,,,
break_continue,html.Screen,4_97_2,2023-05-01T16:11:39.257Z,,0,,,NaN,,,,,,false,,,,456715.1999999881,456715.1999999881,,456715.09999999404,,456718.493,6,300,,,
sequence,flow.Sequence,4_97,2023-05-01T16:11:39.257Z,,0,,,5948.114999988058,completion,,,,,false,,,,456715.39999997616,456715.1999999881,450753.39,450760.1999999881,450767.085,456718.493,6,300,,,
trial,html.Screen,4_98_0,2023-05-01T16:11:46.821Z,,0,2,,7561.106999994023,response,ISIC_0029777.JPG,,ISIC_0072294.JPG,ISIC_0029777.JPG,false,1,keypress(m),500,464279.7999999821,464279.59999999404,456711.27,456715.39999997616,456718.493,464291.721,6,300,49,,ISIC_0072294.JPG
break,html.Screen,4_98_1,2023-05-01T16:11:46.822Z,,0,,,NaN,,,,,,false,,,,464280.09999999404,464280,,464279.7999999821,,464291.721,6,300,,,
break_continue,html.Screen,4_98_2,2023-05-01T16:11:46.822Z,,0,,,NaN,,,,,,false,,,,464280.2999999821,464280.1999999881,,464280.1999999881,,464291.721,6,300,,,
sequence,flow.Sequence,4_98,2023-05-01T16:11:46.822Z,,0,,,7561.706999988062,completion,,,,,false,,,,464280.39999997616,464280.1999999881,456711.27,456715.39999997616,456718.493,464291.721,6,300,,,
trial,html.Screen,4_99_0,2023-05-01T16:11:49.380Z,,0,2,,2546.4789999880595,response,ISIC_0070046.JPG,,ISIC_0032258.JPG,ISIC_0070046.JPG,false,1,keypress(m),500,466838.2999999821,466838.1999999881,464274.184,464280.5,464291.721,466843.303,6,300,50,,ISIC_0032258.JPG
break,html.Screen,4_99_1,2023-05-01T16:11:54.378Z,,0,,,5000.070999999996,timeout,,,,,false,,,,471836.6999999881,471836.442,466836.553,466838.5,466843.303,471843.374,6,300,,,
break_continue,html.Screen,4_99_2,2023-05-01T16:15:50.192Z,,0,,,235800.32599998807,response,,,,,false,continue,keypress(Space),,707650.599999994,707643.6999999881,471836.442,471836.7999999821,471843.374,707657.233,6,300,,,
sequence,flow.Sequence,4_99,2023-05-01T16:15:50.192Z,,0,,,243351.97899998806,completion,,,,,false,,,,707650.6999999881,707643.6999999881,464274.184,464280.5,464291.721,707657.233,6,300,,,
trial,html.Screen,4_100_0,2023-05-01T16:15:53.315Z,,0,3,,3116.366999994032,response,ISIC_0014489.JPG,,ISIC_9096302.JPG,ISIC_9096302.JPG,false,0,keypress(z),500,710773.6999999881,710773.599999994,707646.953,707650.6999999881,707657.233,710775.404,6,300,1,,ISIC_0014489.JPG
break,html.Screen,4_100_1,2023-05-01T16:15:53.316Z,,0,,,NaN,,,,,,false,,,,710774,710774,,710773.6999999881,,710775.404,6,300,,,
break_continue,html.Screen,4_100_2,2023-05-01T16:15:53.316Z,,0,,,NaN,,,,,,false,,,,710774.2999999821,710774.1999999881,,710774.099999994,,710775.404,6,300,,,
sequence,flow.Sequence,4_100,2023-05-01T16:15:53.316Z,,0,,,3116.9669999880716,completion,,,,,false,,,,710774.2999999821,710774.1999999881,707646.953,707650.6999999881,707657.233,710775.404,6,300,,,
trial,html.Screen,4_101_0,2023-05-01T16:15:55.945Z,,0,3,,2627.7959999880986,response,ISIC_0033073.JPG,,ISIC_0012081.JPG,ISIC_0012081.JPG,false,0,keypress(z),500,713403.3999999762,713403.1999999881,710768.384,710774.3999999762,710775.404,713408.144,6,300,2,,ISIC_0033073.JPG
break,html.Screen,4_101_1,2023-05-01T16:15:55.945Z,,0,,,NaN,,,,,,false,,,,713403.7999999821,713403.599999994,,713403.3999999762,,713408.144,6,300,,,
break_continue,html.Screen,4_101_2,2023-05-01T16:15:55.945Z,,0,,,NaN,,,,,,false,,,,713403.8999999762,713403.8999999762,,713403.8999999762,,713408.144,6,300,,,
sequence,flow.Sequence,4_101,2023-05-01T16:15:55.945Z,,0,,,2628.4959999761777,completion,,,,,false,,,,713404,713403.8999999762,710768.384,710774.3999999762,710775.404,713408.144,6,300,,,
trial,html.Screen,4_102_0,2023-05-01T16:15:58.615Z,,0,3,,2665.4559999940684,response,ISIC_1698119.JPG,,ISIC_2440407.JPG,ISIC_1698119.JPG,false,1,keypress(m),500,716073.6999999881,716073.599999994,713400.363,713404,713408.144,716087.934,6,300,3,,ISIC_2440407.JPG
break,html.Screen,4_102_1,2023-05-01T16:15:58.615Z,,0,,,NaN,,,,,,false,,,,716073.8999999762,716073.8999999762,,716073.6999999881,,716087.934,6,300,,,
break_continue,html.Screen,4_102_2,2023-05-01T16:15:58.616Z,,0,,,NaN,,,,,,false,,,,716074.2999999821,716074.1999999881,,716074.099999994,,716087.934,6,300,,,
sequence,flow.Sequence,4_102,2023-05-01T16:15:58.616Z,,0,,,2666.055999988108,completion,,,,,false,,,,716074.3999999762,716074.1999999881,713400.363,713404,713408.144,716087.934,6,300,,,
trial,html.Screen,4_103_0,2023-05-01T16:16:05.679Z,,0,3,,7049.765999988071,response,ISIC_0059840.JPG,,ISIC_0031829.JPG,ISIC_0059840.JPG,false,1,keypress(m),500,723137.7999999821,723137.6999999881,716080.971,716074.3999999762,716087.934,723143.798,6,300,4,,ISIC_0031829.JPG
break,html.Screen,4_103_1,2023-05-01T16:16:05.680Z,,0,,,NaN,,,,,,false,,,,723138.099999994,723138,,723137.7999999821,,723143.798,6,300,,,
break_continue,html.Screen,4_103_2,2023-05-01T16:16:05.680Z,,0,,,NaN,,,,,,false,,,,723138.3999999762,723138.3999999762,,723138.2999999821,,723143.798,6,300,,,
sequence,flow.Sequence,4_103,2023-05-01T16:16:05.680Z,,0,,,7050.46599997615,completion,,,,,false,,,,723138.5,723138.3999999762,716080.971,716074.3999999762,716087.934,723143.798,6,300,,,
trial,html.Screen,4_104_0,2023-05-01T16:16:12.221Z,,0,3,,6535.501999982167,response,ISIC_0028626.JPG,,ISIC_0030718.JPG,ISIC_0030718.JPG,false,0,keypress(z),500,729679.3999999762,729679.2999999821,723131.665,723138.599999994,723143.798,729685.234,6,300,5,,ISIC_0028626.JPG
break,html.Screen,4_104_1,2023-05-01T16:16:12.221Z,,0,,,NaN,,,,,,false,,,,729679.6999999881,729679.599999994,,729679.5,,729685.234,6,300,,,
break_continue,html.Screen,4_104_2,2023-05-01T16:16:12.222Z,,0,,,NaN,,,,,,false,,,,729680,729680,,729679.8999999762,,729685.234,6,300,,,
sequence,flow.Sequence,4_104,2023-05-01T16:16:12.222Z,,0,,,6536.202000000048,completion,,,,,false,,,,729680.1999999881,729680,723131.665,723138.5,723143.798,729685.234,6,300,,,
trial,html.Screen,4_105_0,2023-05-01T16:16:17.106Z,,0,3,,4879.165999976103,response,ISIC_6557642.JPG,,ISIC_0056608.JPG,ISIC_0056608.JPG,false,0,keypress(z),500,734564.5,734564.3999999762,729678.709,729680.1999999881,729685.234,734574.408,6,300,6,,ISIC_6557642.JPG
break,html.Screen,4_105_1,2023-05-01T16:16:17.106Z,,0,,,NaN,,,,,,false,,,,734564.8999999762,734564.7999999821,,734564.599999994,,734574.408,6,300,,,
break_continue,html.Screen,4_105_2,2023-05-01T16:16:17.107Z,,0,,,NaN,,,,,,false,,,,734565,734565,,734564.8999999762,,734574.408,6,300,,,
sequence,flow.Sequence,4_105,2023-05-01T16:16:17.107Z,,0,,,4879.765999999945,completion,,,,,false,,,,734565.099999994,734565,729678.709,729680.1999999881,729685.234,734574.408,6,300,,,
trial,html.Screen,4_106_0,2023-05-01T16:16:20.341Z,,0,3,,3225.091999999946,response,ISIC_0057307.JPG,,ISIC_0055624.JPG,ISIC_0057307.JPG,false,1,keypress(m),500,737799.6999999881,737799.5,734567.489,734565.099999994,734574.408,737803.469,6,300,7,,ISIC_0055624.JPG
break,html.Screen,4_106_1,2023-05-01T16:16:20.341Z,,0,,,NaN,,,,,,false,,,,737799.8999999762,737799.8999999762,,737799.6999999881,,737803.469,6,300,,,
break_continue,html.Screen,4_106_2,2023-05-01T16:16:20.342Z,,0,,,NaN,,,,,,false,,,,737800.099999994,737800.099999994,,737800,,737803.469,6,300,,,
sequence,flow.Sequence,4_106,2023-05-01T16:16:20.342Z,,0,,,3225.6919999939855,completion,,,,,false,,,,737800.1999999881,737800.099999994,734567.489,734565.099999994,734574.408,737803.469,6,300,,,
trial,html.Screen,4_107_0,2023-05-01T16:16:28.222Z,,0,3,,7877.030999999959,response,ISIC_0070248.JPG,,ISIC_8569205.JPG,ISIC_0070248.JPG,false,1,keypress(m),500,745680.599999994,745680.5,737796.666,737800.1999999881,737803.469,745685.732,6,300,8,,ISIC_8569205.JPG
break,html.Screen,4_107_1,2023-05-01T16:16:28.222Z,,0,,,NaN,,,,,,false,,,,745681,745680.8999999762,,745680.6999999881,,745685.732,6,300,,,
break_continue,html.Screen,4_107_2,2023-05-01T16:16:28.223Z,,0,,,NaN,,,,,,false,,,,745681.1999999881,745681.099999994,,745681.099999994,,745685.732,6,300,,,
sequence,flow.Sequence,4_107,2023-05-01T16:16:28.223Z,,0,,,7877.630999993999,completion,,,,,false,,,,745681.2999999821,745681.099999994,737796.666,737800.1999999881,737803.469,745685.732,6,300,,,
trial,html.Screen,4_108_0,2023-05-01T16:16:31.113Z,,0,3,,2885.3679999940796,response,ISIC_2131962.JPG,,ISIC_0068610.JPG,ISIC_0068610.JPG,false,0,keypress(z),500,748571.2999999821,748571.099999994,745678.852,745681.2999999821,745685.732,748574.237,6,300,9,,ISIC_2131962.JPG
break,html.Screen,4_108_1,2023-05-01T16:16:31.113Z,,0,,,NaN,,,,,,false,,,,748571.5,748571.5,,748571.2999999821,,748574.237,6,300,,,
break_continue,html.Screen,4_108_2,2023-05-01T16:16:31.113Z,,0,,,NaN,,,,,,false,,,,748571.6999999881,748571.6999999881,,748571.599999994,,748574.237,6,300,,,
sequence,flow.Sequence,4_108,2023-05-01T16:16:31.113Z,,0,,,2885.967999988119,completion,,,,,false,,,,748571.7999999821,748571.6999999881,745678.852,745681.2999999821,745685.732,748574.237,6,300,,,
trial,html.Screen,4_109_0,2023-05-01T16:16:33.821Z,,0,3,,2705.2630000000354,response,ISIC_0010596.JPG,,ISIC_6768006.JPG,ISIC_0010596.JPG,false,1,keypress(m),500,751279.5,751279.5,748565.117,748571.7999999821,748574.237,751282.511,6,300,10,,ISIC_6768006.JPG
break,html.Screen,4_109_1,2023-05-01T16:16:33.821Z,,0,,,NaN,,,,,,false,,,,751279.7999999821,751279.7999999821,,751279.6999999881,,751282.511,6,300,,,
break_continue,html.Screen,4_109_2,2023-05-01T16:16:33.821Z,,0,,,NaN,,,,,,false,,,,751280,751280,,751279.8999999762,,751282.511,6,300,,,
sequence,flow.Sequence,4_109,2023-05-01T16:16:33.822Z,,0,,,2705.7630000000354,completion,,,,,false,,,,751280,751280,748565.117,748571.7999999821,748574.237,751282.511,6,300,,,
trial,html.Screen,4_110_0,2023-05-01T16:16:36.747Z,,0,3,,2922.788999982062,response,ISIC_0032925.JPG,,ISIC_0033444.JPG,ISIC_0032925.JPG,false,1,keypress(m),500,754205.3999999762,754205.2999999821,751275.559,751280.099999994,751282.511,754227.644,6,300,11,,ISIC_0033444.JPG
break,html.Screen,4_110_1,2023-05-01T16:16:36.747Z,,0,,,NaN,,,,,,false,,,,754205.6999999881,754205.6999999881,,754205.5,,754227.644,6,300,,,
break_continue,html.Screen,4_110_2,2023-05-01T16:16:36.747Z,,0,,,NaN,,,,,,false,,,,754205.8999999762,754205.7999999821,,754205.6999999881,,754227.644,6,300,,,
sequence,flow.Sequence,4_110,2023-05-01T16:16:36.747Z,,0,,,2923.288999982062,completion,,,,,false,,,,754206,754205.7999999821,751275.559,751280.099999994,751282.511,754227.644,6,300,,,
trial,html.Screen,4_111_0,2023-05-01T16:16:39.360Z,,0,3,,2590.555999988108,response,ISIC_0029651.JPG,,ISIC_0070074.JPG,ISIC_0070074.JPG,false,0,keypress(z),500,756818.2999999821,756818.1999999881,754199.19,754206,754227.644,756824.324,6,300,12,,ISIC_0029651.JPG
break,html.Screen,4_111_1,2023-05-01T16:16:39.360Z,,0,,,NaN,,,,,,false,,,,756818.7999999821,756818.599999994,,756818.3999999762,,756824.324,6,300,,,
break_continue,html.Screen,4_111_2,2023-05-01T16:16:39.361Z,,0,,,NaN,,,,,,false,,,,756819.099999994,756819,,756818.8999999762,,756824.324,6,300,,,
sequence,flow.Sequence,4_111,2023-05-01T16:16:39.361Z,,0,,,2591.356000000029,completion,,,,,false,,,,756819.099999994,756819,754199.19,754206,754227.644,756824.324,6,300,,,
trial,html.Screen,4_112_0,2023-05-01T16:16:41.913Z,,0,3,,2546.6759999999776,response,ISIC_0026360.JPG,,ISIC_1202976.JPG,ISIC_0026360.JPG,false,1,keypress(m),500,759371.099999994,759371,756817.662,756819.1999999881,756824.324,759372.883,6,300,13,,ISIC_1202976.JPG
break,html.Screen,4_112_1,2023-05-01T16:16:41.913Z,,0,,,NaN,,,,,,false,,,,759371.2999999821,759371.1999999881,,759371.099999994,,759372.883,6,300,,,
break_continue,html.Screen,4_112_2,2023-05-01T16:16:41.913Z,,0,,,NaN,,,,,,false,,,,759371.5,759371.3999999762,,759371.2999999821,,759372.883,6,300,,,
sequence,flow.Sequence,4_112,2023-05-01T16:16:41.913Z,,0,,,2547.075999976136,completion,,,,,false,,,,759371.5,759371.3999999762,756817.662,756819.1999999881,756824.324,759372.883,6,300,,,
trial,html.Screen,4_113_0,2023-05-01T16:16:44.422Z,,0,3,,2507.6169999999693,response,ISIC_0046344.JPG,,ISIC_3198731.JPG,ISIC_0046344.JPG,false,1,keypress(m),500,761880.599999994,761880.5,759365.86,759371.599999994,759372.883,761887.076,6,300,14,,ISIC_3198731.JPG
break,html.Screen,4_113_1,2023-05-01T16:16:44.422Z,,0,,,NaN,,,,,,false,,,,761881,761880.8999999762,,761880.6999999881,,761887.076,6,300,,,
break_continue,html.Screen,4_113_2,2023-05-01T16:16:44.423Z,,0,,,NaN,,,,,,false,,,,761881.099999994,761881,,761881,,761887.076,6,300,,,
sequence,flow.Sequence,4_113,2023-05-01T16:16:44.423Z,,0,,,2508.1169999999693,completion,,,,,false,,,,761881.099999994,761881,759365.86,759371.599999994,759372.883,761887.076,6,300,,,
trial,html.Screen,4_114_0,2023-05-01T16:16:46.954Z,,0,3,,2525.0239999940386,response,ISIC_1233104.JPG,,ISIC_0030657.JPG,ISIC_0030657.JPG,false,0,keypress(z),500,764412.2999999821,764412.099999994,761880.047,761881.1999999881,761887.076,764421.524,6,300,15,,ISIC_1233104.JPG
break,html.Screen,4_114_1,2023-05-01T16:16:46.954Z,,0,,,NaN,,,,,,false,,,,764412.5,764412.5,,764412.2999999821,,764421.524,6,300,,,
break_continue,html.Screen,4_114_2,2023-05-01T16:16:46.954Z,,0,,,NaN,,,,,,false,,,,764412.6999999881,764412.599999994,,764412.599999994,,764421.524,6,300,,,
sequence,flow.Sequence,4_114,2023-05-01T16:16:46.954Z,,0,,,2525.5239999940386,completion,,,,,false,,,,764412.7999999821,764412.599999994,761880.047,761881.1999999881,761887.076,764421.524,6,300,,,
trial,html.Screen,4_115_0,2023-05-01T16:16:49.914Z,,0,3,,2951.0759999940637,response,ISIC_8579575.JPG,,ISIC_1696516.JPG,ISIC_8579575.JPG,false,1,keypress(m),500,767372.6999999881,767372.599999994,764407.793,764412.7999999821,764421.524,767380.184,6,300,16,,ISIC_1696516.JPG
break,html.Screen,4_115_1,2023-05-01T16:16:49.915Z,,0,,,NaN,,,,,,false,,,,767373,767372.8999999762,,767372.6999999881,,767380.184,6,300,,,
break_continue,html.Screen,4_115_2,2023-05-01T16:16:49.915Z,,0,,,NaN,,,,,,false,,,,767373.1999999881,767373.099999994,,767373.099999994,,767380.184,6,300,,,
sequence,flow.Sequence,4_115,2023-05-01T16:16:49.915Z,,0,,,2951.5759999940637,completion,,,,,false,,,,767373.2999999821,767373.099999994,764407.793,764412.7999999821,764421.524,767380.184,6,300,,,
trial,html.Screen,4_116_0,2023-05-01T16:16:52.509Z,,0,3,,2587.0159999880707,response,ISIC_0025900.JPG,,ISIC_5347806.JPG,ISIC_5347806.JPG,false,0,keypress(z),500,769967.3999999762,769967.1999999881,767366.272,767373.2999999821,767380.184,769970.17,6,300,17,,ISIC_0025900.JPG
break,html.Screen,4_116_1,2023-05-01T16:16:52.510Z,,0,,,NaN,,,,,,false,,,,769967.599999994,769967.5,,769967.3999999762,,769970.17,6,300,,,
break_continue,html.Screen,4_116_2,2023-05-01T16:16:52.510Z,,0,,,NaN,,,,,,false,,,,769967.6999999881,769967.6999999881,,769967.6999999881,,769970.17,6,300,,,
sequence,flow.Sequence,4_116,2023-05-01T16:16:52.510Z,,0,,,2587.5159999880707,completion,,,,,false,,,,769967.7999999821,769967.6999999881,767366.272,767373.2999999821,767380.184,769970.17,6,300,,,
trial,html.Screen,4_117_0,2023-05-01T16:16:55.378Z,,0,3,,2865.829999999958,response,ISIC_7104307.JPG,,ISIC_7365615.JPG,ISIC_7365615.JPG,false,0,keypress(z),500,772836.099999994,772836,769963.219,769967.8999999762,769970.17,772838.301,6,300,18,,ISIC_7104307.JPG
break,html.Screen,4_117_1,2023-05-01T16:16:55.378Z,,0,,,NaN,,,,,,false,,,,772836.5,772836.3999999762,,772836.1999999881,,772838.301,6,300,,,
break_continue,html.Screen,4_117_2,2023-05-01T16:16:55.379Z,,0,,,NaN,,,,,,false,,,,772836.6999999881,772836.6999999881,,772836.5,,772838.301,6,300,,,
sequence,flow.Sequence,4_117,2023-05-01T16:16:55.379Z,,0,,,2866.529999988037,completion,,,,,false,,,,772836.7999999821,772836.6999999881,769963.219,769967.8999999762,769970.17,772838.301,6,300,,,
trial,html.Screen,4_118_0,2023-05-01T16:16:57.916Z,,0,3,,2535.998999982141,response,ISIC_0061231.JPG,,ISIC_9244393.JPG,ISIC_0061231.JPG,false,1,keypress(m),500,775374.2999999821,775374.2999999821,772831.644,772836.8999999762,772838.301,775379.951,6,300,19,,ISIC_9244393.JPG
break,html.Screen,4_118_1,2023-05-01T16:16:57.917Z,,0,,,NaN,,,,,,false,,,,775374.6999999881,775374.599999994,,775374.5,,775379.951,6,300,,,
break_continue,html.Screen,4_118_2,2023-05-01T16:16:57.917Z,,0,,,NaN,,,,,,false,,,,775375,775374.8999999762,,775374.7999999821,,775379.951,6,300,,,
sequence,flow.Sequence,4_118,2023-05-01T16:16:57.917Z,,0,,,2536.5989999761805,completion,,,,,false,,,,775375.099999994,775374.8999999762,772831.644,772836.8999999762,772838.301,775379.951,6,300,,,
trial,html.Screen,4_119_0,2023-05-01T16:17:00.784Z,,0,3,,2862.248999988078,response,ISIC_7912183.JPG,,ISIC_9119549.JPG,ISIC_9119549.JPG,false,0,keypress(z),500,778242.2999999821,778242.1999999881,775373.123,775375.099999994,775379.951,778248.082,6,300,20,,ISIC_7912183.JPG
break,html.Screen,4_119_1,2023-05-01T16:17:00.785Z,,0,,,NaN,,,,,,false,,,,778242.6999999881,778242.599999994,,778242.3999999762,,778248.082,6,300,,,
break_continue,html.Screen,4_119_2,2023-05-01T16:17:00.785Z,,0,,,NaN,,,,,,false,,,,778242.8999999762,778242.7999999821,,778242.7999999821,,778248.082,6,300,,,
sequence,flow.Sequence,4_119,2023-05-01T16:17:00.785Z,,0,,,2862.8489999821177,completion,,,,,false,,,,778242.8999999762,778242.7999999821,775373.123,775375.099999994,775379.951,778248.082,6,300,,,
trial,html.Screen,4_120_0,2023-05-01T16:17:03.972Z,,0,3,,3182.117999988026,response,ISIC_0032903.JPG,,ISIC_0029723.JPG,ISIC_0029723.JPG,false,0,keypress(z),500,781430.3999999762,781430.1999999881,778241.725,778243,778248.082,781435.457,6,300,21,,ISIC_0032903.JPG
break,html.Screen,4_120_1,2023-05-01T16:17:03.973Z,,0,,,NaN,,,,,,false,,,,781430.6999999881,781430.6999999881,,781430.5,,781435.457,6,300,,,
break_continue,html.Screen,4_120_2,2023-05-01T16:17:03.973Z,,0,,,NaN,,,,,,false,,,,781430.8999999762,781430.8999999762,,781430.7999999821,,781435.457,6,300,,,
sequence,flow.Sequence,4_120,2023-05-01T16:17:03.973Z,,0,,,3182.817999976105,completion,,,,,false,,,,781431,781430.8999999762,778241.725,778243,778248.082,781435.457,6,300,,,
trial,html.Screen,4_121_0,2023-05-01T16:17:06.805Z,,0,3,,2827.942999976105,response,ISIC_7130929.JPG,,ISIC_0068477.JPG,ISIC_0068477.JPG,false,0,keypress(z),500,784263.599999994,784263.3999999762,781428.404,781431,781435.457,784268.899,6,300,22,,ISIC_7130929.JPG
break,html.Screen,4_121_1,2023-05-01T16:17:06.806Z,,0,,,NaN,,,,,,false,,,,784263.8999999762,784263.7999999821,,784263.6999999881,,784268.899,6,300,,,
break_continue,html.Screen,4_121_2,2023-05-01T16:17:06.806Z,,0,,,NaN,,,,,,false,,,,784264.099999994,784264.099999994,,784264,,784268.899,6,300,,,
sequence,flow.Sequence,4_121,2023-05-01T16:17:06.806Z,,0,,,2828.6429999939865,completion,,,,,false,,,,784264.1999999881,784264.099999994,781428.404,781431,781435.457,784268.899,6,300,,,
trial,html.Screen,4_122_0,2023-05-01T16:17:09.593Z,,0,3,,2781.601000000024,response,ISIC_6919856.JPG,,ISIC_2271767.JPG,ISIC_6919856.JPG,false,1,keypress(m),500,787050.6999999881,787050.5,784261.899,784264.2999999821,784268.899,787053.638,6,300,23,,ISIC_2271767.JPG
break,html.Screen,4_122_1,2023-05-01T16:17:09.593Z,,0,,,NaN,,,,,,false,,,,787051,787050.8999999762,,787050.6999999881,,787053.638,6,300,,,
break_continue,html.Screen,4_122_2,2023-05-01T16:17:09.593Z,,0,,,NaN,,,,,,false,,,,787051.3999999762,787051.2999999821,,787051.099999994,,787053.638,6,300,,,
sequence,flow.Sequence,4_122,2023-05-01T16:17:09.593Z,,0,,,2782.400999982143,completion,,,,,false,,,,787051.3999999762,787051.2999999821,784261.899,784264.2999999821,784268.899,787053.638,6,300,,,
trial,html.Screen,4_123_0,2023-05-01T16:17:12.270Z,,0,3,,2674.0619999880437,response,ISIC_0065882.JPG,,ISIC_0012018.JPG,ISIC_0012018.JPG,false,0,keypress(z),500,789727.7999999821,789727.6999999881,787049.312,787051.3999999762,787053.638,789734.506,6,300,24,,ISIC_0065882.JPG
break,html.Screen,4_123_1,2023-05-01T16:17:12.270Z,,0,,,NaN,,,,,,false,,,,789728.5,789728.099999994,,789727.7999999821,,789734.506,6,300,,,
break_continue,html.Screen,4_123_2,2023-05-01T16:17:12.271Z,,0,,,NaN,,,,,,false,,,,789728.599999994,789728.599999994,,789728.5,,789734.506,6,300,,,
sequence,flow.Sequence,4_123,2023-05-01T16:17:12.271Z,,0,,,2674.961999994004,completion,,,,,false,,,,789728.7999999821,789728.599999994,787049.312,787051.3999999762,787053.638,789734.506,6,300,,,
trial,html.Screen,4_124_0,2023-05-01T16:17:15.703Z,,0,3,,3425.993999999948,response,ISIC_0055917.JPG,,ISIC_8468512.JPG,ISIC_8468512.JPG,false,0,keypress(z),500,793160.599999994,793160.5,789727.58,789728.7999999821,789734.506,793165.361,6,300,25,,ISIC_0055917.JPG
break,html.Screen,4_124_1,2023-05-01T16:17:15.703Z,,0,,,NaN,,,,,,false,,,,793161,793160.8999999762,,793160.6999999881,,793165.361,6,300,,,
break_continue,html.Screen,4_124_2,2023-05-01T16:17:15.703Z,,0,,,NaN,,,,,,false,,,,793161.1999999881,793161.1999999881,,793161.099999994,,793165.361,6,300,,,
sequence,flow.Sequence,4_124,2023-05-01T16:17:15.703Z,,0,,,3426.693999988027,completion,,,,,false,,,,793161.3999999762,793161.1999999881,789727.58,789728.7999999821,789734.506,793165.361,6,300,,,
trial,html.Screen,4_125_0,2023-05-01T16:17:18.940Z,,0,3,,3232.238999994006,response,ISIC_6208508.JPG,,ISIC_0057655.JPG,ISIC_0057655.JPG,false,0,keypress(z),500,796397.6999999881,796397.599999994,793157.84,793161.3999999762,793165.361,796400.939,6,300,26,,ISIC_6208508.JPG
break,html.Screen,4_125_1,2023-05-01T16:17:18.940Z,,0,,,NaN,,,,,,false,,,,796398.099999994,796397.8999999762,,796397.7999999821,,796400.939,6,300,,,
break_continue,html.Screen,4_125_2,2023-05-01T16:17:18.941Z,,0,,,NaN,,,,,,false,,,,796398.599999994,796398.5,,796398.3999999762,,796400.939,6,300,,,
sequence,flow.Sequence,4_125,2023-05-01T16:17:18.941Z,,0,,,3233.1389999999665,completion,,,,,false,,,,796398.6999999881,796398.5,793157.84,793161.3999999762,793165.361,796400.939,6,300,,,
