sender,sender_type,sender_id,timestamp,meta,,blockNo,condition,duration,ended_on,img_left,img_reveal,img_right,loser,practice,response,response_action,selection_duration,time_commit,time_end,time_render,time_run,time_show,time_switch,total_blocks,total_trials,trialNo,url,winner
informed_consent,html.Screen,0,2023-05-03T17:47:04.285Z,"{""labjs_version"":""20.2.4"",""labjs_build"":{""flavor"":""production"",""commit"":""f5b4a49f956347addd546a832a3327688c2c0fef""},""location"":""https://run.pavlovia.org/MurrayBennett/melanoma-2afc/?participant=65176"",""userAgent"":""Mozilla/5.0 (Windows NT 10.0; Win64; x64) AppleWebKit/537.36 (KHTML, like Gecko) Chrome/112.0.0.0 Safari/537.36"",""platform"":""Win32"",""language"":""en-US"",""locale"":""en-US"",""timeZone"":""America/Chicago"",""timezoneOffset"":300,""screen_width"":2560,""screen_height"":1440,""scroll_width"":1119,""scroll_height"":995,""window_innerWidth"":1119,""window_innerHeight"":1043,""devicePixelRatio"":1}",,,,2860,response,,,,,,consent,click button,,5066,5066,2200,2193,2206,5073,,,,"{""participant"":""65176""}",
Welcome,html.Screen,1,2023-05-03T17:48:16.674Z,,,,irregular,72381,response,,,,,,continue,click button,,77455,77454,5061,5066,5073,77456,,,,,
trial,html.Screen,2_0_0,2023-05-03T17:48:24.420Z,,0,0,,7744,response,ISIC_0061792.JPG,,ISIC_4679428.JPG,ISIC_0061792.JPG,true,1,keypress(m),500,85200,85200,77450,77455,77456,85205,1,6,1,,ISIC_4679428.JPG
sequence,flow.Sequence,2_0,2023-05-03T17:48:24.420Z,,0,,,7744,completion,,,,,true,,,,85200,85200,77450,77455,77456,85205,1,6,,,
trial,html.Screen,2_1_0,2023-05-03T17:48:35.919Z,,0,0,,11506,timeout,ISIC_0776486.JPG,,ISIC_5199497.JPG,,true,,,500,96699,96699,85199,85200,85205,96711,1,6,2,,
sequence,flow.Sequence,2_1,2023-05-03T17:48:35.919Z,,0,,,11494,completion,,,,,true,,,,96699,96699,85199,85200,85205,96711,1,6,,,
trial,html.Screen,2_2_0,2023-05-03T17:48:41.835Z,,0,0,,5904,response,ISIC_2556187.JPG,,ISIC_8575776.JPG,ISIC_8575776.JPG,true,0,keypress(z),500,102615,102615,96705,96699,96711,102623,1,6,3,,ISIC_2556187.JPG
sequence,flow.Sequence,2_2,2023-05-03T17:48:41.835Z,,0,,,5904,completion,,,,,true,,,,102615,102615,96705,96699,96711,102623,1,6,,,
trial,html.Screen,2_3_0,2023-05-03T17:48:45.619Z,,0,0,,3777,response,ISIC_8141769.JPG,,ISIC_9238366.JPG,ISIC_9238366.JPG,true,0,keypress(z),500,106400,106400,102611,102615,102623,106403,1,6,4,,ISIC_8141769.JPG
sequence,flow.Sequence,2_3,2023-05-03T17:48:45.620Z,,0,,,3777,completion,,,,,true,,,,106400,106400,102611,102615,102623,106403,1,6,,,
trial,html.Screen,2_4_0,2023-05-03T17:48:52.775Z,,0,0,,7152,response,ISIC_8949026.JPG,,ISIC_9959593.JPG,ISIC_8949026.JPG,true,1,keypress(m),500,113555,113555,106397,106400,106403,113575,1,6,5,,ISIC_9959593.JPG
sequence,flow.Sequence,2_4,2023-05-03T17:48:52.775Z,,0,,,7152,completion,,,,,true,,,,113555,113555,106397,106400,106403,113575,1,6,,,
trial,html.Screen,2_5_0,2023-05-03T17:48:56.239Z,,0,0,,3444,response,ISIC_0010479.JPG,,ISIC_0460240.JPG,ISIC_0460240.JPG,true,0,keypress(z),500,117019,117019,113551,113555,113575,117025,1,6,6,,ISIC_0010479.JPG
sequence,flow.Sequence,2_5,2023-05-03T17:48:56.239Z,,0,,,3444,completion,,,,,true,,,,117019,117019,113551,113555,113575,117025,1,6,,,
loop,flow.Loop,2,2023-05-03T17:48:56.239Z,,,,,39563,completion,,,,,true,,,,117019,117019,77450,77455,77456,117025,1,6,,,
exp_instructions,html.Screen,3,2023-05-03T17:50:30.663Z,,,,,94416,response,,,,,,continue,keypress(Space),,211442,211441,117019,117019,117025,211448,,,,,
trial,html.Screen,4_0_0,2023-05-03T17:50:34.849Z,,0,1,,4180,response,ISIC_0014229.JPG,,ISIC_0026208.JPG,ISIC_0026208.JPG,false,0,keypress(z),500,215628,215628,211440,211442,211448,215634,8,400,1,,ISIC_0014229.JPG
break,html.Screen,4_0_1,2023-05-03T17:50:34.849Z,,0,,,NaN,,,,,,false,,,,215628,215628,,215628,,215634,8,400,,,
break_continue,html.Screen,4_0_2,2023-05-03T17:50:34.850Z,,0,,,NaN,,,,,,false,,,,215628,215628,,215628,,215634,8,400,,,
sequence,flow.Sequence,4_0,2023-05-03T17:50:34.850Z,,0,,,4180,completion,,,,,false,,,,215628,215628,211440,211442,211448,215634,8,400,,,
trial,html.Screen,4_1_0,2023-05-03T17:50:40.860Z,,0,1,,6004,response,ISIC_0033711.JPG,,ISIC_2183722.JPG,ISIC_0033711.JPG,false,1,keypress(m),500,221638,221638,215628,215628,215634,221657,8,400,2,,ISIC_2183722.JPG
break,html.Screen,4_1_1,2023-05-03T17:50:40.860Z,,0,,,NaN,,,,,,false,,,,221639,221639,,221638,,221657,8,400,,,
break_continue,html.Screen,4_1_2,2023-05-03T17:50:40.860Z,,0,,,NaN,,,,,,false,,,,221639,221639,,221639,,221657,8,400,,,
sequence,flow.Sequence,4_1,2023-05-03T17:50:40.861Z,,0,,,6005,completion,,,,,false,,,,221639,221639,215628,215628,215634,221657,8,400,,,
trial,html.Screen,4_2_0,2023-05-03T17:50:44.353Z,,0,1,,3475,response,ISIC_8790198.JPG,,ISIC_0054528.JPG,ISIC_8790198.JPG,false,1,keypress(m),500,225132,225132,221634,221639,221657,225138,8,400,3,,ISIC_0054528.JPG
break,html.Screen,4_2_1,2023-05-03T17:50:44.353Z,,0,,,NaN,,,,,,false,,,,225132,225132,,225132,,225138,8,400,,,
break_continue,html.Screen,4_2_2,2023-05-03T17:50:44.354Z,,0,,,NaN,,,,,,false,,,,225132,225132,,225132,,225138,8,400,,,
sequence,flow.Sequence,4_2,2023-05-03T17:50:44.354Z,,0,,,3475,completion,,,,,false,,,,225132,225132,221634,221639,221657,225138,8,400,,,
trial,html.Screen,4_3_0,2023-05-03T17:50:48.393Z,,0,1,,4033,response,ISIC_5219334.JPG,,ISIC_0064080.JPG,ISIC_5219334.JPG,false,1,keypress(m),500,229172,229171,225132,225132,225138,229177,8,400,4,,ISIC_0064080.JPG
break,html.Screen,4_3_1,2023-05-03T17:50:48.393Z,,0,,,NaN,,,,,,false,,,,229172,229172,,229172,,229177,8,400,,,
break_continue,html.Screen,4_3_2,2023-05-03T17:50:48.393Z,,0,,,NaN,,,,,,false,,,,229172,229172,,229172,,229177,8,400,,,
sequence,flow.Sequence,4_3,2023-05-03T17:50:48.394Z,,0,,,4034,completion,,,,,false,,,,229172,229172,225132,225132,225138,229177,8,400,,,
trial,html.Screen,4_4_0,2023-05-03T17:50:55.740Z,,0,1,,7342,response,ISIC_5790319.JPG,,ISIC_1745731.JPG,ISIC_1745731.JPG,false,0,keypress(z),500,236519,236519,229171,229172,229177,236525,8,400,5,,ISIC_5790319.JPG
break,html.Screen,4_4_1,2023-05-03T17:50:55.741Z,,0,,,NaN,,,,,,false,,,,236519,236519,,236519,,236525,8,400,,,
break_continue,html.Screen,4_4_2,2023-05-03T17:50:55.741Z,,0,,,NaN,,,,,,false,,,,236519,236519,,236519,,236525,8,400,,,
sequence,flow.Sequence,4_4,2023-05-03T17:50:55.741Z,,0,,,7342,completion,,,,,false,,,,236519,236519,229171,229172,229177,236525,8,400,,,
trial,html.Screen,4_5_0,2023-05-03T17:51:01.895Z,,0,1,,6149,response,ISIC_0025153.JPG,,ISIC_8727731.JPG,ISIC_0025153.JPG,false,1,keypress(m),500,242674,242674,236519,236519,236525,242678,8,400,6,,ISIC_8727731.JPG
break,html.Screen,4_5_1,2023-05-03T17:51:01.895Z,,0,,,NaN,,,,,,false,,,,242674,242674,,242674,,242678,8,400,,,
break_continue,html.Screen,4_5_2,2023-05-03T17:51:01.896Z,,0,,,NaN,,,,,,false,,,,242674,242674,,242674,,242678,8,400,,,
sequence,flow.Sequence,4_5,2023-05-03T17:51:01.896Z,,0,,,6149,completion,,,,,false,,,,242674,242674,236519,236519,236525,242678,8,400,,,
trial,html.Screen,4_6_0,2023-05-03T17:51:11.835Z,,0,1,,9936,response,ISIC_4097868.JPG,,ISIC_9112747.JPG,ISIC_9112747.JPG,false,0,keypress(z),500,252614,252614,242673,242674,242678,252618,8,400,7,,ISIC_4097868.JPG
break,html.Screen,4_6_1,2023-05-03T17:51:11.835Z,,0,,,NaN,,,,,,false,,,,252614,252614,,252614,,252618,8,400,,,
break_continue,html.Screen,4_6_2,2023-05-03T17:51:11.836Z,,0,,,NaN,,,,,,false,,,,252614,252614,,252614,,252618,8,400,,,
sequence,flow.Sequence,4_6,2023-05-03T17:51:11.836Z,,0,,,9936,completion,,,,,false,,,,252614,252614,242673,242674,242678,252618,8,400,,,
trial,html.Screen,4_7_0,2023-05-03T17:51:19.636Z,,0,1,,7797,response,ISIC_8002729.JPG,,ISIC_7268123.JPG,ISIC_8002729.JPG,false,1,keypress(m),500,260415,260415,252612,252614,252618,260419,8,400,8,,ISIC_7268123.JPG
break,html.Screen,4_7_1,2023-05-03T17:51:19.637Z,,0,,,NaN,,,,,,false,,,,260415,260415,,260415,,260419,8,400,,,
break_continue,html.Screen,4_7_2,2023-05-03T17:51:19.637Z,,0,,,NaN,,,,,,false,,,,260415,260415,,260415,,260419,8,400,,,
sequence,flow.Sequence,4_7,2023-05-03T17:51:19.637Z,,0,,,7797,completion,,,,,false,,,,260416,260415,252612,252614,252618,260419,8,400,,,
trial,html.Screen,4_8_0,2023-05-03T17:51:25.772Z,,0,1,,6132,response,ISIC_0030360.JPG,,ISIC_3349562.JPG,ISIC_3349562.JPG,false,0,keypress(z),500,266551,266551,260414,260416,260419,266555,8,400,9,,ISIC_0030360.JPG
break,html.Screen,4_8_1,2023-05-03T17:51:25.772Z,,0,,,NaN,,,,,,false,,,,266551,266551,,266551,,266555,8,400,,,
break_continue,html.Screen,4_8_2,2023-05-03T17:51:25.773Z,,0,,,NaN,,,,,,false,,,,266551,266551,,266551,,266555,8,400,,,
sequence,flow.Sequence,4_8,2023-05-03T17:51:25.773Z,,0,,,6132,completion,,,,,false,,,,266551,266551,260414,260416,260419,266555,8,400,,,
trial,html.Screen,4_9_0,2023-05-03T17:51:35.017Z,,0,1,,9241,response,ISIC_0024317.JPG,,ISIC_4701900.JPG,ISIC_0024317.JPG,false,1,keypress(m),500,275796,275796,266549,266551,266555,275799,8,400,10,,ISIC_4701900.JPG
break,html.Screen,4_9_1,2023-05-03T17:51:35.018Z,,0,,,NaN,,,,,,false,,,,275796,275796,,275796,,275799,8,400,,,
break_continue,html.Screen,4_9_2,2023-05-03T17:51:35.018Z,,0,,,NaN,,,,,,false,,,,275796,275796,,275796,,275799,8,400,,,
sequence,flow.Sequence,4_9,2023-05-03T17:51:35.018Z,,0,,,9241,completion,,,,,false,,,,275796,275796,266549,266551,266555,275799,8,400,,,
trial,html.Screen,4_10_0,2023-05-03T17:51:41.505Z,,0,1,,6485,response,ISIC_0028751.JPG,,ISIC_0067696.JPG,ISIC_0028751.JPG,false,1,keypress(m),500,282284,282284,275793,275796,275799,282288,8,400,11,,ISIC_0067696.JPG
break,html.Screen,4_10_1,2023-05-03T17:51:41.506Z,,0,,,NaN,,,,,,false,,,,282285,282284,,282284,,282288,8,400,,,
break_continue,html.Screen,4_10_2,2023-05-03T17:51:41.506Z,,0,,,NaN,,,,,,false,,,,282285,282285,,282285,,282288,8,400,,,
sequence,flow.Sequence,4_10,2023-05-03T17:51:41.506Z,,0,,,6486,completion,,,,,false,,,,282285,282285,275793,275796,275799,282288,8,400,,,
trial,html.Screen,4_11_0,2023-05-03T17:51:48.986Z,,0,1,,7477,response,ISIC_4264600.JPG,,ISIC_9655520.JPG,ISIC_4264600.JPG,false,1,keypress(m),500,289765,289765,282282,282285,282288,289776,8,400,12,,ISIC_9655520.JPG
break,html.Screen,4_11_1,2023-05-03T17:51:48.987Z,,0,,,NaN,,,,,,false,,,,289765,289765,,289765,,289776,8,400,,,
break_continue,html.Screen,4_11_2,2023-05-03T17:51:48.987Z,,0,,,NaN,,,,,,false,,,,289765,289765,,289765,,289776,8,400,,,
sequence,flow.Sequence,4_11,2023-05-03T17:51:48.987Z,,0,,,7477,completion,,,,,false,,,,289765,289765,282282,282285,282288,289776,8,400,,,
trial,html.Screen,4_12_0,2023-05-03T17:51:58.335Z,,0,1,,9338,response,ISIC_0059597.JPG,,ISIC_0874261.JPG,ISIC_0874261.JPG,false,0,keypress(z),500,299114,299114,289760,289765,289776,299117,8,400,13,,ISIC_0059597.JPG
break,html.Screen,4_12_1,2023-05-03T17:51:58.336Z,,0,,,NaN,,,,,,false,,,,299114,299114,,299114,,299117,8,400,,,
break_continue,html.Screen,4_12_2,2023-05-03T17:51:58.336Z,,0,,,NaN,,,,,,false,,,,299114,299114,,299114,,299117,8,400,,,
sequence,flow.Sequence,4_12,2023-05-03T17:51:58.336Z,,0,,,9338,completion,,,,,false,,,,299114,299114,289760,289765,289776,299117,8,400,,,
trial,html.Screen,4_13_0,2023-05-03T17:52:04.371Z,,0,1,,6033,response,ISIC_0011587.JPG,,ISIC_0033387.JPG,ISIC_0011587.JPG,false,1,keypress(m),500,305150,305150,299111,299114,299117,305152,8,400,14,,ISIC_0033387.JPG
break,html.Screen,4_13_1,2023-05-03T17:52:04.372Z,,0,,,NaN,,,,,,false,,,,305151,305151,,305150,,305152,8,400,,,
break_continue,html.Screen,4_13_2,2023-05-03T17:52:04.372Z,,0,,,NaN,,,,,,false,,,,305151,305151,,305151,,305152,8,400,,,
sequence,flow.Sequence,4_13,2023-05-03T17:52:04.372Z,,0,,,6034,completion,,,,,false,,,,305151,305151,299111,299114,299117,305152,8,400,,,
trial,html.Screen,4_14_0,2023-05-03T17:52:14.655Z,,0,1,,10281,response,ISIC_2620357.JPG,,ISIC_0063692.JPG,ISIC_2620357.JPG,false,1,keypress(m),500,315433,315433,305146,305151,305152,315439,8,400,15,,ISIC_0063692.JPG
break,html.Screen,4_14_1,2023-05-03T17:52:14.656Z,,0,,,NaN,,,,,,false,,,,315434,315434,,315434,,315439,8,400,,,
break_continue,html.Screen,4_14_2,2023-05-03T17:52:14.656Z,,0,,,NaN,,,,,,false,,,,315434,315434,,315434,,315439,8,400,,,
sequence,flow.Sequence,4_14,2023-05-03T17:52:14.656Z,,0,,,10282,completion,,,,,false,,,,315434,315434,305146,305151,305152,315439,8,400,,,
trial,html.Screen,4_15_0,2023-05-03T17:52:32.715Z,,0,1,,18064,timeout,ISIC_0069986.JPG,,ISIC_0011434.JPG,,false,,,500,333493,333493,315433,315434,315439,333503,8,400,16,,
break,html.Screen,4_15_1,2023-05-03T17:52:32.716Z,,0,,,NaN,,,,,,false,,,,333493,333493,,333493,,333503,8,400,,,
break_continue,html.Screen,4_15_2,2023-05-03T17:52:32.716Z,,0,,,NaN,,,,,,false,,,,333493,333493,,333493,,333503,8,400,,,
sequence,flow.Sequence,4_15,2023-05-03T17:52:32.716Z,,0,,,18054,completion,,,,,false,,,,333493,333493,315433,315434,315439,333503,8,400,,,
trial,html.Screen,4_16_0,2023-05-03T17:52:36.898Z,,0,1,,4173,response,ISIC_0032736.JPG,,ISIC_8732757.JPG,ISIC_8732757.JPG,false,0,keypress(z),500,337676,337676,333498,333493,333503,337678,8,400,17,,ISIC_0032736.JPG
break,html.Screen,4_16_1,2023-05-03T17:52:36.899Z,,0,,,NaN,,,,,,false,,,,337676,337676,,337676,,337678,8,400,,,
break_continue,html.Screen,4_16_2,2023-05-03T17:52:36.899Z,,0,,,NaN,,,,,,false,,,,337676,337676,,337676,,337678,8,400,,,
sequence,flow.Sequence,4_16,2023-05-03T17:52:36.899Z,,0,,,4173,completion,,,,,false,,,,337676,337676,333498,333493,333503,337678,8,400,,,
trial,html.Screen,4_17_0,2023-05-03T17:52:42.979Z,,0,1,,6078,response,ISIC_7938688.JPG,,ISIC_0057753.JPG,ISIC_0057753.JPG,false,0,keypress(z),500,343756,343756,337672,337676,337678,343761,8,400,18,,ISIC_7938688.JPG
break,html.Screen,4_17_1,2023-05-03T17:52:42.979Z,,0,,,NaN,,,,,,false,,,,343756,343756,,343756,,343761,8,400,,,
break_continue,html.Screen,4_17_2,2023-05-03T17:52:42.979Z,,0,,,NaN,,,,,,false,,,,343757,343757,,343757,,343761,8,400,,,
sequence,flow.Sequence,4_17,2023-05-03T17:52:42.979Z,,0,,,6079,completion,,,,,false,,,,343757,343757,337672,337676,337678,343761,8,400,,,
trial,html.Screen,4_18_0,2023-05-03T17:52:47.128Z,,0,1,,4145,response,ISIC_0025357.JPG,,ISIC_0012066.JPG,ISIC_0025357.JPG,false,1,keypress(m),500,347906,347906,343755,343757,343761,347912,8,400,19,,ISIC_0012066.JPG
break,html.Screen,4_18_1,2023-05-03T17:52:47.128Z,,0,,,NaN,,,,,,false,,,,347906,347906,,347906,,347912,8,400,,,
break_continue,html.Screen,4_18_2,2023-05-03T17:52:47.129Z,,0,,,NaN,,,,,,false,,,,347906,347906,,347906,,347912,8,400,,,
sequence,flow.Sequence,4_18,2023-05-03T17:52:47.129Z,,0,,,4145,completion,,,,,false,,,,347906,347906,343755,343757,343761,347912,8,400,,,
trial,html.Screen,4_19_0,2023-05-03T17:52:55.881Z,,0,1,,8746,response,ISIC_9498942.JPG,,ISIC_2266857.JPG,ISIC_9498942.JPG,false,1,keypress(m),500,356658,356658,347906,347906,347912,356662,8,400,20,,ISIC_2266857.JPG
break,html.Screen,4_19_1,2023-05-03T17:52:55.881Z,,0,,,NaN,,,,,,false,,,,356659,356659,,356658,,356662,8,400,,,
break_continue,html.Screen,4_19_2,2023-05-03T17:52:55.882Z,,0,,,NaN,,,,,,false,,,,356659,356659,,356659,,356662,8,400,,,
sequence,flow.Sequence,4_19,2023-05-03T17:52:55.882Z,,0,,,8747,completion,,,,,false,,,,356659,356659,347906,347906,347912,356662,8,400,,,
trial,html.Screen,4_20_0,2023-05-03T17:53:02.120Z,,0,1,,6235,response,ISIC_0032784.JPG,,ISIC_0057244.JPG,ISIC_0057244.JPG,false,0,keypress(z),500,362898,362897,356656,356659,356662,362903,8,400,21,,ISIC_0032784.JPG
break,html.Screen,4_20_1,2023-05-03T17:53:02.120Z,,0,,,NaN,,,,,,false,,,,362898,362898,,362898,,362903,8,400,,,
break_continue,html.Screen,4_20_2,2023-05-03T17:53:02.120Z,,0,,,NaN,,,,,,false,,,,362898,362898,,362898,,362903,8,400,,,
sequence,flow.Sequence,4_20,2023-05-03T17:53:02.120Z,,0,,,6236,completion,,,,,false,,,,362898,362898,356656,356659,356662,362903,8,400,,,
trial,html.Screen,4_21_0,2023-05-03T17:53:07.912Z,,0,1,,5787,response,ISIC_0026505.JPG,,ISIC_0026781.JPG,ISIC_0026505.JPG,false,1,keypress(m),500,368690,368690,362897,362898,362903,368707,8,400,22,,ISIC_0026781.JPG
break,html.Screen,4_21_1,2023-05-03T17:53:07.913Z,,0,,,NaN,,,,,,false,,,,368690,368690,,368690,,368707,8,400,,,
break_continue,html.Screen,4_21_2,2023-05-03T17:53:07.913Z,,0,,,NaN,,,,,,false,,,,368690,368690,,368690,,368707,8,400,,,
sequence,flow.Sequence,4_21,2023-05-03T17:53:07.913Z,,0,,,5787,completion,,,,,false,,,,368690,368690,362897,362898,362903,368707,8,400,,,
trial,html.Screen,4_22_0,2023-05-03T17:53:15.856Z,,0,1,,7927,response,ISIC_7824688.JPG,,ISIC_4459528.JPG,ISIC_7824688.JPG,false,1,keypress(m),500,376634,376634,368685,368690,368707,376640,8,400,23,,ISIC_4459528.JPG
break,html.Screen,4_22_1,2023-05-03T17:53:15.857Z,,0,,,NaN,,,,,,false,,,,376634,376634,,376634,,376640,8,400,,,
break_continue,html.Screen,4_22_2,2023-05-03T17:53:15.857Z,,0,,,NaN,,,,,,false,,,,376634,376634,,376634,,376640,8,400,,,
sequence,flow.Sequence,4_22,2023-05-03T17:53:15.857Z,,0,,,7927,completion,,,,,false,,,,376634,376634,368685,368690,368707,376640,8,400,,,
trial,html.Screen,4_23_0,2023-05-03T17:53:23.237Z,,0,1,,7374,response,ISIC_3190566.JPG,,ISIC_0066626.JPG,ISIC_3190566.JPG,false,1,keypress(m),500,384014,384014,376634,376634,376640,384018,8,400,24,,ISIC_0066626.JPG
break,html.Screen,4_23_1,2023-05-03T17:53:23.237Z,,0,,,NaN,,,,,,false,,,,384015,384015,,384015,,384018,8,400,,,
break_continue,html.Screen,4_23_2,2023-05-03T17:53:23.237Z,,0,,,NaN,,,,,,false,,,,384015,384015,,384015,,384018,8,400,,,
sequence,flow.Sequence,4_23,2023-05-03T17:53:23.238Z,,0,,,7375,completion,,,,,false,,,,384015,384015,376634,376634,376640,384018,8,400,,,
trial,html.Screen,4_24_0,2023-05-03T17:53:27.326Z,,0,1,,4086,response,ISIC_0032680.JPG,,ISIC_8028631.JPG,ISIC_8028631.JPG,false,0,keypress(z),500,388104,388104,384012,384015,384018,388116,8,400,25,,ISIC_0032680.JPG
break,html.Screen,4_24_1,2023-05-03T17:53:27.326Z,,0,,,NaN,,,,,,false,,,,388104,388104,,388104,,388116,8,400,,,
break_continue,html.Screen,4_24_2,2023-05-03T17:53:27.327Z,,0,,,NaN,,,,,,false,,,,388104,388104,,388104,,388116,8,400,,,
sequence,flow.Sequence,4_24,2023-05-03T17:53:27.327Z,,0,,,4086,completion,,,,,false,,,,388104,388104,384012,384015,384018,388116,8,400,,,
trial,html.Screen,4_25_0,2023-05-03T17:53:33.796Z,,0,1,,6458,response,ISIC_0061343.JPG,,ISIC_0059773.JPG,ISIC_0061343.JPG,false,1,keypress(m),500,394574,394574,388110,388104,388116,394576,8,400,26,,ISIC_0059773.JPG
break,html.Screen,4_25_1,2023-05-03T17:53:33.797Z,,0,,,NaN,,,,,,false,,,,394574,394574,,394574,,394576,8,400,,,
break_continue,html.Screen,4_25_2,2023-05-03T17:53:33.797Z,,0,,,NaN,,,,,,false,,,,394574,394574,,394574,,394576,8,400,,,
sequence,flow.Sequence,4_25,2023-05-03T17:53:33.797Z,,0,,,6458,completion,,,,,false,,,,394574,394574,388110,388104,388116,394576,8,400,,,
trial,html.Screen,4_26_0,2023-05-03T17:53:40.017Z,,0,1,,6218,response,ISIC_0000848.JPG,,ISIC_0057815.JPG,ISIC_0000848.JPG,false,1,keypress(m),500,400794,400794,394570,394574,394576,400799,8,400,27,,ISIC_0057815.JPG
break,html.Screen,4_26_1,2023-05-03T17:53:40.017Z,,0,,,NaN,,,,,,false,,,,400794,400794,,400794,,400799,8,400,,,
break_continue,html.Screen,4_26_2,2023-05-03T17:53:40.017Z,,0,,,NaN,,,,,,false,,,,400794,400794,,400794,,400799,8,400,,,
sequence,flow.Sequence,4_26,2023-05-03T17:53:40.017Z,,0,,,6218,completion,,,,,false,,,,400794,400794,394570,394574,394576,400799,8,400,,,
trial,html.Screen,4_27_0,2023-05-03T17:53:47.201Z,,0,1,,7179,response,ISIC_0057716.JPG,,ISIC_9051287.JPG,ISIC_9051287.JPG,false,0,keypress(z),500,407978,407978,400793,400794,400799,407983,8,400,28,,ISIC_0057716.JPG
break,html.Screen,4_27_1,2023-05-03T17:53:47.202Z,,0,,,NaN,,,,,,false,,,,407979,407979,,407978,,407983,8,400,,,
break_continue,html.Screen,4_27_2,2023-05-03T17:53:47.202Z,,0,,,NaN,,,,,,false,,,,407980,407980,,407980,,407983,8,400,,,
sequence,flow.Sequence,4_27,2023-05-03T17:53:47.202Z,,0,,,7181,completion,,,,,false,,,,407980,407980,400793,400794,400799,407983,8,400,,,
trial,html.Screen,4_28_0,2023-05-03T17:53:53.394Z,,0,1,,6188,response,ISIC_0024701.JPG,,ISIC_0056228.JPG,ISIC_0056228.JPG,false,0,keypress(z),500,414171,414171,407977,407980,407983,414177,8,400,29,,ISIC_0024701.JPG
break,html.Screen,4_28_1,2023-05-03T17:53:53.395Z,,0,,,NaN,,,,,,false,,,,414172,414172,,414171,,414177,8,400,,,
break_continue,html.Screen,4_28_2,2023-05-03T17:53:53.395Z,,0,,,NaN,,,,,,false,,,,414172,414172,,414172,,414177,8,400,,,
sequence,flow.Sequence,4_28,2023-05-03T17:53:53.395Z,,0,,,6189,completion,,,,,false,,,,414172,414172,407977,407980,407983,414177,8,400,,,
trial,html.Screen,4_29_0,2023-05-03T17:53:59.079Z,,0,1,,5680,response,ISIC_0029225.JPG,,ISIC_9788545.JPG,ISIC_0029225.JPG,false,1,keypress(m),500,419857,419857,414171,414172,414177,419859,8,400,30,,ISIC_9788545.JPG
break,html.Screen,4_29_1,2023-05-03T17:53:59.080Z,,0,,,NaN,,,,,,false,,,,419857,419857,,419857,,419859,8,400,,,
break_continue,html.Screen,4_29_2,2023-05-03T17:53:59.080Z,,0,,,NaN,,,,,,false,,,,419857,419857,,419857,,419859,8,400,,,
sequence,flow.Sequence,4_29,2023-05-03T17:53:59.080Z,,0,,,5680,completion,,,,,false,,,,419857,419857,414171,414172,414177,419859,8,400,,,
trial,html.Screen,4_30_0,2023-05-03T17:54:03.674Z,,0,1,,4592,response,ISIC_0067695.JPG,,ISIC_9579506.JPG,ISIC_9579506.JPG,false,0,keypress(z),500,424451,424451,419853,419857,419859,424458,8,400,31,,ISIC_0067695.JPG
break,html.Screen,4_30_1,2023-05-03T17:54:03.675Z,,0,,,NaN,,,,,,false,,,,424453,424452,,424451,,424458,8,400,,,
break_continue,html.Screen,4_30_2,2023-05-03T17:54:03.675Z,,0,,,NaN,,,,,,false,,,,424453,424453,,424453,,424458,8,400,,,
sequence,flow.Sequence,4_30,2023-05-03T17:54:03.675Z,,0,,,4594,completion,,,,,false,,,,424453,424453,419853,419857,419859,424458,8,400,,,
trial,html.Screen,4_31_0,2023-05-03T17:54:07.248Z,,0,1,,3568,response,ISIC_0063988.JPG,,ISIC_3086579.JPG,ISIC_3086579.JPG,false,0,keypress(z),500,428026,428026,424452,424453,424458,428032,8,400,32,,ISIC_0063988.JPG
break,html.Screen,4_31_1,2023-05-03T17:54:07.249Z,,0,,,NaN,,,,,,false,,,,428026,428026,,428026,,428032,8,400,,,
break_continue,html.Screen,4_31_2,2023-05-03T17:54:07.249Z,,0,,,NaN,,,,,,false,,,,428027,428026,,428026,,428032,8,400,,,
sequence,flow.Sequence,4_31,2023-05-03T17:54:07.249Z,,0,,,3568,completion,,,,,false,,,,428027,428026,424452,424453,424458,428032,8,400,,,
trial,html.Screen,4_32_0,2023-05-03T17:54:10.880Z,,0,1,,3625,response,ISIC_0000159.JPG,,ISIC_0034164.JPG,ISIC_0034164.JPG,false,0,keypress(z),500,431658,431657,428026,428027,428032,431676,8,400,33,,ISIC_0000159.JPG
break,html.Screen,4_32_1,2023-05-03T17:54:10.880Z,,0,,,NaN,,,,,,false,,,,431658,431658,,431658,,431676,8,400,,,
break_continue,html.Screen,4_32_2,2023-05-03T17:54:10.881Z,,0,,,NaN,,,,,,false,,,,431658,431658,,431658,,431676,8,400,,,
sequence,flow.Sequence,4_32,2023-05-03T17:54:10.881Z,,0,,,3626,completion,,,,,false,,,,431658,431658,428026,428027,428032,431676,8,400,,,
trial,html.Screen,4_33_0,2023-05-03T17:54:15.329Z,,0,1,,4430,response,ISIC_7051167.JPG,,ISIC_2757355.JPG,ISIC_7051167.JPG,false,1,keypress(m),500,436106,436106,431653,431658,431676,436111,8,400,34,,ISIC_2757355.JPG
break,html.Screen,4_33_1,2023-05-03T17:54:15.330Z,,0,,,NaN,,,,,,false,,,,436107,436107,,436106,,436111,8,400,,,
break_continue,html.Screen,4_33_2,2023-05-03T17:54:15.330Z,,0,,,NaN,,,,,,false,,,,436107,436107,,436107,,436111,8,400,,,
sequence,flow.Sequence,4_33,2023-05-03T17:54:15.330Z,,0,,,4431,completion,,,,,false,,,,436107,436107,431653,431658,431676,436111,8,400,,,
trial,html.Screen,4_34_0,2023-05-03T17:54:25.713Z,,0,1,,10380,response,ISIC_9354965.JPG,,ISIC_0026296.JPG,ISIC_9354965.JPG,false,1,keypress(m),500,446491,446491,436105,436107,436111,446509,8,400,35,,ISIC_0026296.JPG
break,html.Screen,4_34_1,2023-05-03T17:54:25.714Z,,0,,,NaN,,,,,,false,,,,446492,446491,,446491,,446509,8,400,,,
break_continue,html.Screen,4_34_2,2023-05-03T17:54:25.714Z,,0,,,NaN,,,,,,false,,,,446492,446492,,446492,,446509,8,400,,,
sequence,flow.Sequence,4_34,2023-05-03T17:54:25.714Z,,0,,,10381,completion,,,,,false,,,,446492,446492,436105,436107,436111,446509,8,400,,,
trial,html.Screen,4_35_0,2023-05-03T17:54:37.226Z,,0,1,,11506,timeout,ISIC_3824206.JPG,,ISIC_0071947.JPG,ISIC_3824206.JPG,false,,,500,458002,458002,446507,446492,446509,458015,8,400,36,,ISIC_0071947.JPG
break,html.Screen,4_35_1,2023-05-03T17:54:37.226Z,,0,,,NaN,,,,,,false,,,,458003,458002,,458002,,458015,8,400,,,
break_continue,html.Screen,4_35_2,2023-05-03T17:54:37.226Z,,0,,,NaN,,,,,,false,,,,458003,458003,,458003,,458015,8,400,,,
sequence,flow.Sequence,4_35,2023-05-03T17:54:37.226Z,,0,,,11494,completion,,,,,false,,,,458003,458003,446507,446492,446509,458015,8,400,,,
trial,html.Screen,4_36_0,2023-05-03T17:54:42.752Z,,0,1,,5513,response,ISIC_0010007.JPG,,ISIC_0071257.JPG,ISIC_0010007.JPG,false,1,keypress(m),500,463528,463528,458009,458003,458015,463532,8,400,37,,ISIC_0071257.JPG
break,html.Screen,4_36_1,2023-05-03T17:54:42.752Z,,0,,,NaN,,,,,,false,,,,463529,463529,,463528,,463532,8,400,,,
break_continue,html.Screen,4_36_2,2023-05-03T17:54:42.753Z,,0,,,NaN,,,,,,false,,,,463529,463529,,463529,,463532,8,400,,,
sequence,flow.Sequence,4_36,2023-05-03T17:54:42.753Z,,0,,,5514,completion,,,,,false,,,,463529,463529,458009,458003,458015,463532,8,400,,,
trial,html.Screen,4_37_0,2023-05-03T17:54:48.617Z,,0,1,,5861,response,ISIC_0070061.JPG,,ISIC_9851899.JPG,ISIC_9851899.JPG,false,0,keypress(z),500,469393,469393,463526,463529,463532,469397,8,400,38,,ISIC_0070061.JPG
break,html.Screen,4_37_1,2023-05-03T17:54:48.617Z,,0,,,NaN,,,,,,false,,,,469393,469393,,469393,,469397,8,400,,,
break_continue,html.Screen,4_37_2,2023-05-03T17:54:48.617Z,,0,,,NaN,,,,,,false,,,,469393,469393,,469393,,469397,8,400,,,
sequence,flow.Sequence,4_37,2023-05-03T17:54:48.617Z,,0,,,5861,completion,,,,,false,,,,469393,469393,463526,463529,463532,469397,8,400,,,
trial,html.Screen,4_38_0,2023-05-03T17:54:57.354Z,,0,1,,8734,response,ISIC_3136228.JPG,,ISIC_9989485.JPG,ISIC_9989485.JPG,false,0,keypress(z),500,478131,478131,469391,469393,469397,478135,8,400,39,,ISIC_3136228.JPG
break,html.Screen,4_38_1,2023-05-03T17:54:57.354Z,,0,,,NaN,,,,,,false,,,,478131,478131,,478131,,478135,8,400,,,
break_continue,html.Screen,4_38_2,2023-05-03T17:54:57.354Z,,0,,,NaN,,,,,,false,,,,478131,478131,,478131,,478135,8,400,,,
sequence,flow.Sequence,4_38,2023-05-03T17:54:57.354Z,,0,,,8734,completion,,,,,false,,,,478131,478131,469391,469393,469397,478135,8,400,,,
trial,html.Screen,4_39_0,2023-05-03T17:55:01.246Z,,0,1,,3887,response,ISIC_9562442.JPG,,ISIC_4023381.JPG,ISIC_4023381.JPG,false,0,keypress(z),500,482023,482022,478129,478131,478135,482027,8,400,40,,ISIC_9562442.JPG
break,html.Screen,4_39_1,2023-05-03T17:55:01.246Z,,0,,,NaN,,,,,,false,,,,482023,482023,,482023,,482027,8,400,,,
break_continue,html.Screen,4_39_2,2023-05-03T17:55:01.246Z,,0,,,NaN,,,,,,false,,,,482023,482023,,482023,,482027,8,400,,,
sequence,flow.Sequence,4_39,2023-05-03T17:55:01.246Z,,0,,,3888,completion,,,,,false,,,,482023,482023,478129,478131,478135,482027,8,400,,,
trial,html.Screen,4_40_0,2023-05-03T17:55:10.522Z,,0,1,,9272,response,ISIC_1306790.JPG,,ISIC_7980339.JPG,ISIC_7980339.JPG,false,0,keypress(z),500,491299,491299,482021,482023,482027,491309,8,400,41,,ISIC_1306790.JPG
break,html.Screen,4_40_1,2023-05-03T17:55:10.522Z,,0,,,NaN,,,,,,false,,,,491299,491299,,491299,,491309,8,400,,,
break_continue,html.Screen,4_40_2,2023-05-03T17:55:10.522Z,,0,,,NaN,,,,,,false,,,,491299,491299,,491299,,491309,8,400,,,
sequence,flow.Sequence,4_40,2023-05-03T17:55:10.523Z,,0,,,9272,completion,,,,,false,,,,491299,491299,482021,482023,482027,491309,8,400,,,
trial,html.Screen,4_41_0,2023-05-03T17:55:15.167Z,,0,1,,4635,response,ISIC_4933735.JPG,,ISIC_0031763.JPG,ISIC_0031763.JPG,false,0,keypress(z),500,495944,495944,491295,491299,491309,495946,8,400,42,,ISIC_4933735.JPG
break,html.Screen,4_41_1,2023-05-03T17:55:15.167Z,,0,,,NaN,,,,,,false,,,,495944,495944,,495944,,495946,8,400,,,
break_continue,html.Screen,4_41_2,2023-05-03T17:55:15.167Z,,0,,,NaN,,,,,,false,,,,495944,495944,,495944,,495946,8,400,,,
sequence,flow.Sequence,4_41,2023-05-03T17:55:15.167Z,,0,,,4635,completion,,,,,false,,,,495944,495944,491295,491299,491309,495946,8,400,,,
trial,html.Screen,4_42_0,2023-05-03T17:55:22.274Z,,0,1,,7104,response,ISIC_1850674.JPG,,ISIC_7452503.JPG,ISIC_7452503.JPG,false,0,keypress(z),500,503050,503050,495940,495944,495946,503053,8,400,43,,ISIC_1850674.JPG
break,html.Screen,4_42_1,2023-05-03T17:55:22.274Z,,0,,,NaN,,,,,,false,,,,503051,503051,,503050,,503053,8,400,,,
break_continue,html.Screen,4_42_2,2023-05-03T17:55:22.275Z,,0,,,NaN,,,,,,false,,,,503051,503051,,503051,,503053,8,400,,,
sequence,flow.Sequence,4_42,2023-05-03T17:55:22.275Z,,0,,,7105,completion,,,,,false,,,,503051,503051,495940,495944,495946,503053,8,400,,,
trial,html.Screen,4_43_0,2023-05-03T17:55:29.509Z,,0,1,,7233,response,ISIC_7840728.JPG,,ISIC_0000179.JPG,ISIC_7840728.JPG,false,1,keypress(m),500,510286,510286,503047,503051,503053,510290,8,400,44,,ISIC_0000179.JPG
break,html.Screen,4_43_1,2023-05-03T17:55:29.509Z,,0,,,NaN,,,,,,false,,,,510286,510286,,510286,,510290,8,400,,,
break_continue,html.Screen,4_43_2,2023-05-03T17:55:29.509Z,,0,,,NaN,,,,,,false,,,,510286,510286,,510286,,510290,8,400,,,
sequence,flow.Sequence,4_43,2023-05-03T17:55:29.509Z,,0,,,7233,completion,,,,,false,,,,510286,510286,503047,503051,503053,510290,8,400,,,
trial,html.Screen,4_44_0,2023-05-03T17:55:34.243Z,,0,1,,4729,response,ISIC_0029339.JPG,,ISIC_9295267.JPG,ISIC_0029339.JPG,false,1,keypress(m),500,515019,515019,510284,510287,510290,515024,8,400,45,,ISIC_9295267.JPG
break,html.Screen,4_44_1,2023-05-03T17:55:34.243Z,,0,,,NaN,,,,,,false,,,,515019,515019,,515019,,515024,8,400,,,
break_continue,html.Screen,4_44_2,2023-05-03T17:55:34.243Z,,0,,,NaN,,,,,,false,,,,515020,515020,,515020,,515024,8,400,,,
sequence,flow.Sequence,4_44,2023-05-03T17:55:34.243Z,,0,,,4730,completion,,,,,false,,,,515021,515020,510284,510287,510290,515024,8,400,,,
trial,html.Screen,4_45_0,2023-05-03T17:55:40.511Z,,0,1,,6263,response,ISIC_0027472.JPG,,ISIC_8108090.JPG,ISIC_0027472.JPG,false,1,keypress(m),500,521287,521287,515018,515021,515024,521296,8,400,46,,ISIC_8108090.JPG
break,html.Screen,4_45_1,2023-05-03T17:55:40.511Z,,0,,,NaN,,,,,,false,,,,521287,521287,,521287,,521296,8,400,,,
break_continue,html.Screen,4_45_2,2023-05-03T17:55:40.512Z,,0,,,NaN,,,,,,false,,,,521287,521287,,521287,,521296,8,400,,,
sequence,flow.Sequence,4_45,2023-05-03T17:55:40.512Z,,0,,,6263,completion,,,,,false,,,,521288,521287,515018,515021,515024,521296,8,400,,,
trial,html.Screen,4_46_0,2023-05-03T17:55:44.960Z,,0,1,,4441,response,ISIC_0024967.JPG,,ISIC_9337570.JPG,ISIC_9337570.JPG,false,0,keypress(z),500,525737,525737,521283,521288,521296,525740,8,400,47,,ISIC_0024967.JPG
break,html.Screen,4_46_1,2023-05-03T17:55:44.961Z,,0,,,NaN,,,,,,false,,,,525737,525737,,525737,,525740,8,400,,,
break_continue,html.Screen,4_46_2,2023-05-03T17:55:44.961Z,,0,,,NaN,,,,,,false,,,,525737,525737,,525737,,525740,8,400,,,
sequence,flow.Sequence,4_46,2023-05-03T17:55:44.961Z,,0,,,4441,completion,,,,,false,,,,525737,525737,521283,521288,521296,525740,8,400,,,
trial,html.Screen,4_47_0,2023-05-03T17:55:48.838Z,,0,1,,3874,response,ISIC_9017110.JPG,,ISIC_0061884.JPG,ISIC_9017110.JPG,false,1,keypress(m),500,529614,529614,525735,525737,525740,529621,8,400,48,,ISIC_0061884.JPG
break,html.Screen,4_47_1,2023-05-03T17:55:48.839Z,,0,,,NaN,,,,,,false,,,,529615,529615,,529614,,529621,8,400,,,
break_continue,html.Screen,4_47_2,2023-05-03T17:55:48.839Z,,0,,,NaN,,,,,,false,,,,529615,529615,,529615,,529621,8,400,,,
sequence,flow.Sequence,4_47,2023-05-03T17:55:48.839Z,,0,,,3875,completion,,,,,false,,,,529615,529615,525735,525737,525740,529621,8,400,,,
trial,html.Screen,4_48_0,2023-05-03T17:55:52.006Z,,0,1,,3162,response,ISIC_0066053.JPG,,ISIC_5787312.JPG,ISIC_5787312.JPG,false,0,keypress(z),500,532783,532783,529615,529616,529621,532789,8,400,49,,ISIC_0066053.JPG
break,html.Screen,4_48_1,2023-05-03T17:55:52.006Z,,0,,,NaN,,,,,,false,,,,532783,532783,,532783,,532789,8,400,,,
break_continue,html.Screen,4_48_2,2023-05-03T17:55:52.007Z,,0,,,NaN,,,,,,false,,,,532783,532783,,532783,,532789,8,400,,,
sequence,flow.Sequence,4_48,2023-05-03T17:55:52.007Z,,0,,,3162,completion,,,,,false,,,,532783,532783,529615,529616,529621,532789,8,400,,,
trial,html.Screen,4_49_0,2023-05-03T17:55:58.095Z,,0,1,,6082,response,ISIC_1369967.JPG,,ISIC_0010225.JPG,ISIC_0010225.JPG,false,0,keypress(z),500,538871,538871,532783,532783,532789,538877,8,400,50,,ISIC_1369967.JPG
break,html.Screen,4_49_1,2023-05-03T17:56:03.093Z,,0,,,4999,timeout,,,,,false,,,,543870,543870,538871,538872,538877,543876,8,400,,,
break_continue,html.Screen,4_49_2,2023-05-03T17:56:35.111Z,,0,,,32008,response,,,,,false,continue,keypress(Space),,575887,575884,543870,543870,543876,575890,8,400,,,
sequence,flow.Sequence,4_49,2023-05-03T17:56:35.111Z,,0,,,43095,completion,,,,,false,,,,575887,575884,532783,532783,532789,575890,8,400,,,
trial,html.Screen,4_50_0,2023-05-03T17:56:41.293Z,,0,2,,6178,response,ISIC_3274493.JPG,,ISIC_0998962.JPG,ISIC_3274493.JPG,false,1,keypress(m),500,582068,582068,575883,575887,575890,582073,8,400,1,,ISIC_0998962.JPG
break,html.Screen,4_50_1,2023-05-03T17:56:41.293Z,,0,,,NaN,,,,,,false,,,,582069,582068,,582068,,582073,8,400,,,
break_continue,html.Screen,4_50_2,2023-05-03T17:56:41.293Z,,0,,,NaN,,,,,,false,,,,582069,582069,,582069,,582073,8,400,,,
sequence,flow.Sequence,4_50,2023-05-03T17:56:41.294Z,,0,,,6179,completion,,,,,false,,,,582069,582069,575883,575887,575890,582073,8,400,,,
trial,html.Screen,4_51_0,2023-05-03T17:56:44.503Z,,0,2,,3206,response,ISIC_0014160.JPG,,ISIC_0028528.JPG,ISIC_0014160.JPG,false,1,keypress(m),500,585279,585279,582067,582069,582073,585282,8,400,2,,ISIC_0028528.JPG
break,html.Screen,4_51_1,2023-05-03T17:56:44.503Z,,0,,,NaN,,,,,,false,,,,585279,585279,,585279,,585282,8,400,,,
break_continue,html.Screen,4_51_2,2023-05-03T17:56:44.503Z,,0,,,NaN,,,,,,false,,,,585279,585279,,585279,,585282,8,400,,,
sequence,flow.Sequence,4_51,2023-05-03T17:56:44.503Z,,0,,,3206,completion,,,,,false,,,,585279,585279,582067,582069,582073,585282,8,400,,,
trial,html.Screen,4_52_0,2023-05-03T17:56:48.990Z,,0,2,,4483,response,ISIC_3161477.JPG,,ISIC_0010235.JPG,ISIC_3161477.JPG,false,1,keypress(m),500,589765,589765,585276,585279,585282,589768,8,400,3,,ISIC_0010235.JPG
break,html.Screen,4_52_1,2023-05-03T17:56:48.990Z,,0,,,NaN,,,,,,false,,,,589766,589766,,589765,,589768,8,400,,,
break_continue,html.Screen,4_52_2,2023-05-03T17:56:48.991Z,,0,,,NaN,,,,,,false,,,,589766,589766,,589766,,589768,8,400,,,
sequence,flow.Sequence,4_52,2023-05-03T17:56:48.991Z,,0,,,4484,completion,,,,,false,,,,589766,589766,585276,585279,585282,589768,8,400,,,
trial,html.Screen,4_53_0,2023-05-03T17:56:57.340Z,,0,2,,8347,response,ISIC_4811165.JPG,,ISIC_0192893.JPG,ISIC_4811165.JPG,false,1,keypress(m),500,598115,598115,589763,589766,589768,598118,8,400,4,,ISIC_0192893.JPG
break,html.Screen,4_53_1,2023-05-03T17:56:57.341Z,,0,,,NaN,,,,,,false,,,,598116,598116,,598116,,598118,8,400,,,
break_continue,html.Screen,4_53_2,2023-05-03T17:56:57.341Z,,0,,,NaN,,,,,,false,,,,598116,598116,,598116,,598118,8,400,,,
sequence,flow.Sequence,4_53,2023-05-03T17:56:57.341Z,,0,,,8348,completion,,,,,false,,,,598116,598116,589763,589766,589768,598118,8,400,,,
trial,html.Screen,4_54_0,2023-05-03T17:57:04.065Z,,0,2,,6722,response,ISIC_0034316.JPG,,ISIC_0063234.JPG,ISIC_0063234.JPG,false,0,keypress(z),500,604840,604840,598112,598116,598118,604851,8,400,5,,ISIC_0034316.JPG
break,html.Screen,4_54_1,2023-05-03T17:57:04.066Z,,0,,,NaN,,,,,,false,,,,604842,604842,,604841,,604851,8,400,,,
break_continue,html.Screen,4_54_2,2023-05-03T17:57:04.066Z,,0,,,NaN,,,,,,false,,,,604842,604842,,604842,,604851,8,400,,,
sequence,flow.Sequence,4_54,2023-05-03T17:57:04.066Z,,0,,,6724,completion,,,,,false,,,,604842,604842,598112,598116,598118,604851,8,400,,,
trial,html.Screen,4_55_0,2023-05-03T17:57:08.025Z,,0,2,,3949,response,ISIC_0072768.JPG,,ISIC_0030518.JPG,ISIC_0030518.JPG,false,0,keypress(z),500,608800,608800,604836,604842,604851,608805,8,400,6,,ISIC_0072768.JPG
break,html.Screen,4_55_1,2023-05-03T17:57:08.025Z,,0,,,NaN,,,,,,false,,,,608800,608800,,608800,,608805,8,400,,,
break_continue,html.Screen,4_55_2,2023-05-03T17:57:08.025Z,,0,,,NaN,,,,,,false,,,,608801,608801,,608800,,608805,8,400,,,
sequence,flow.Sequence,4_55,2023-05-03T17:57:08.025Z,,0,,,3950,completion,,,,,false,,,,608801,608801,604836,604842,604851,608805,8,400,,,
trial,html.Screen,4_56_0,2023-05-03T17:57:13.598Z,,0,2,,5569,response,ISIC_3959570.JPG,,ISIC_0029389.JPG,ISIC_3959570.JPG,false,1,keypress(m),500,614374,614374,608799,608801,608805,614392,8,400,7,,ISIC_0029389.JPG
break,html.Screen,4_56_1,2023-05-03T17:57:13.598Z,,0,,,NaN,,,,,,false,,,,614374,614374,,614374,,614392,8,400,,,
break_continue,html.Screen,4_56_2,2023-05-03T17:57:13.598Z,,0,,,NaN,,,,,,false,,,,614374,614374,,614374,,614392,8,400,,,
sequence,flow.Sequence,4_56,2023-05-03T17:57:13.598Z,,0,,,5569,completion,,,,,false,,,,614374,614374,608799,608801,608805,614392,8,400,,,
trial,html.Screen,4_57_0,2023-05-03T17:57:25.111Z,,0,2,,11506,timeout,ISIC_0028698.JPG,,ISIC_0011947.JPG,,false,,,500,625886,625886,614369,614374,614392,625898,8,400,8,,
break,html.Screen,4_57_1,2023-05-03T17:57:25.111Z,,0,,,NaN,,,,,,false,,,,625886,625886,,625886,,625898,8,400,,,
break_continue,html.Screen,4_57_2,2023-05-03T17:57:25.111Z,,0,,,NaN,,,,,,false,,,,625886,625886,,625886,,625898,8,400,,,
sequence,flow.Sequence,4_57,2023-05-03T17:57:25.111Z,,0,,,11494,completion,,,,,false,,,,625886,625886,614369,614374,614392,625898,8,400,,,
trial,html.Screen,4_58_0,2023-05-03T17:57:31.590Z,,0,2,,6467,response,ISIC_8036544.JPG,,ISIC_8431648.JPG,ISIC_8036544.JPG,false,1,keypress(m),500,632366,632365,625892,625886,625898,632369,8,400,9,,ISIC_8431648.JPG
break,html.Screen,4_58_1,2023-05-03T17:57:31.591Z,,0,,,NaN,,,,,,false,,,,632366,632366,,632366,,632369,8,400,,,
break_continue,html.Screen,4_58_2,2023-05-03T17:57:31.591Z,,0,,,NaN,,,,,,false,,,,632366,632366,,632366,,632369,8,400,,,
sequence,flow.Sequence,4_58,2023-05-03T17:57:31.591Z,,0,,,6468,completion,,,,,false,,,,632366,632366,625892,625886,625898,632369,8,400,,,
trial,html.Screen,4_59_0,2023-05-03T17:57:40.599Z,,0,2,,9005,response,ISIC_0034162.JPG,,ISIC_6098768.JPG,ISIC_0034162.JPG,false,1,keypress(m),500,641374,641374,632363,632366,632369,641378,8,400,10,,ISIC_6098768.JPG
break,html.Screen,4_59_1,2023-05-03T17:57:40.599Z,,0,,,NaN,,,,,,false,,,,641375,641375,,641374,,641378,8,400,,,
break_continue,html.Screen,4_59_2,2023-05-03T17:57:40.599Z,,0,,,NaN,,,,,,false,,,,641375,641375,,641375,,641378,8,400,,,
sequence,flow.Sequence,4_59,2023-05-03T17:57:40.599Z,,0,,,9006,completion,,,,,false,,,,641375,641375,632363,632366,632369,641378,8,400,,,
trial,html.Screen,4_60_0,2023-05-03T17:57:46.721Z,,0,2,,6118,response,ISIC_8513112.JPG,,ISIC_0046741.JPG,ISIC_8513112.JPG,false,1,keypress(m),500,647496,647496,641372,641375,641378,647502,8,400,11,,ISIC_0046741.JPG
break,html.Screen,4_60_1,2023-05-03T17:57:46.721Z,,0,,,NaN,,,,,,false,,,,647496,647496,,647496,,647502,8,400,,,
break_continue,html.Screen,4_60_2,2023-05-03T17:57:46.721Z,,0,,,NaN,,,,,,false,,,,647496,647496,,647496,,647502,8,400,,,
sequence,flow.Sequence,4_60,2023-05-03T17:57:46.721Z,,0,,,6118,completion,,,,,false,,,,647496,647496,641372,641375,641378,647502,8,400,,,
trial,html.Screen,4_61_0,2023-05-03T17:57:53.730Z,,0,2,,7003,response,ISIC_8300954.JPG,,ISIC_7521698.JPG,ISIC_8300954.JPG,false,1,keypress(m),500,654505,654505,647496,647496,647502,654509,8,400,12,,ISIC_7521698.JPG
break,html.Screen,4_61_1,2023-05-03T17:57:53.731Z,,0,,,NaN,,,,,,false,,,,654506,654506,,654506,,654509,8,400,,,
break_continue,html.Screen,4_61_2,2023-05-03T17:57:53.731Z,,0,,,NaN,,,,,,false,,,,654506,654506,,654506,,654509,8,400,,,
sequence,flow.Sequence,4_61,2023-05-03T17:57:53.731Z,,0,,,7004,completion,,,,,false,,,,654506,654506,647496,647496,647502,654509,8,400,,,
trial,html.Screen,4_62_0,2023-05-03T17:58:00.157Z,,0,2,,6423,response,ISIC_7323761.JPG,,ISIC_2700320.JPG,ISIC_2700320.JPG,false,0,keypress(z),500,660932,660932,654503,654506,654509,660939,8,400,13,,ISIC_7323761.JPG
break,html.Screen,4_62_1,2023-05-03T17:58:00.158Z,,0,,,NaN,,,,,,false,,,,660932,660932,,660932,,660939,8,400,,,
break_continue,html.Screen,4_62_2,2023-05-03T17:58:00.158Z,,0,,,NaN,,,,,,false,,,,660933,660932,,660932,,660939,8,400,,,
sequence,flow.Sequence,4_62,2023-05-03T17:58:00.158Z,,0,,,6423,completion,,,,,false,,,,660933,660932,654503,654506,654509,660939,8,400,,,
trial,html.Screen,4_63_0,2023-05-03T17:58:08.876Z,,0,2,,8712,response,ISIC_0030916.JPG,,ISIC_9806131.JPG,ISIC_0030916.JPG,false,1,keypress(m),500,669652,669651,660933,660933,660939,669653,8,400,14,,ISIC_9806131.JPG
break,html.Screen,4_63_1,2023-05-03T17:58:08.877Z,,0,,,NaN,,,,,,false,,,,669652,669652,,669652,,669653,8,400,,,
break_continue,html.Screen,4_63_2,2023-05-03T17:58:08.877Z,,0,,,NaN,,,,,,false,,,,669652,669652,,669652,,669653,8,400,,,
sequence,flow.Sequence,4_63,2023-05-03T17:58:08.877Z,,0,,,8713,completion,,,,,false,,,,669652,669652,660933,660933,660939,669653,8,400,,,
trial,html.Screen,4_64_0,2023-05-03T17:58:12.937Z,,0,2,,4059,response,ISIC_0011495.JPG,,ISIC_0011234.JPG,ISIC_0011234.JPG,false,0,keypress(z),500,673712,673712,669647,669652,669653,673716,8,400,15,,ISIC_0011495.JPG
break,html.Screen,4_64_1,2023-05-03T17:58:12.938Z,,0,,,NaN,,,,,,false,,,,673713,673713,,673712,,673716,8,400,,,
break_continue,html.Screen,4_64_2,2023-05-03T17:58:12.938Z,,0,,,NaN,,,,,,false,,,,673713,673713,,673713,,673716,8,400,,,
sequence,flow.Sequence,4_64,2023-05-03T17:58:12.938Z,,0,,,4060,completion,,,,,false,,,,673713,673713,669647,669652,669653,673716,8,400,,,
trial,html.Screen,4_65_0,2023-05-03T17:58:17.232Z,,0,2,,4291,response,ISIC_4086323.JPG,,ISIC_6208708.JPG,ISIC_6208708.JPG,false,0,keypress(z),500,678007,678007,673710,673713,673716,678027,8,400,16,,ISIC_4086323.JPG
break,html.Screen,4_65_1,2023-05-03T17:58:17.233Z,,0,,,NaN,,,,,,false,,,,678007,678007,,678007,,678027,8,400,,,
break_continue,html.Screen,4_65_2,2023-05-03T17:58:17.233Z,,0,,,NaN,,,,,,false,,,,678007,678007,,678007,,678027,8,400,,,
sequence,flow.Sequence,4_65,2023-05-03T17:58:17.233Z,,0,,,4291,completion,,,,,false,,,,678008,678007,673710,673713,673716,678027,8,400,,,
trial,html.Screen,4_66_0,2023-05-03T17:58:25.191Z,,0,2,,7939,response,ISIC_0030435.JPG,,ISIC_3979323.JPG,ISIC_3979323.JPG,false,0,keypress(z),500,685966,685966,678003,678008,678027,685969,8,400,17,,ISIC_0030435.JPG
break,html.Screen,4_66_1,2023-05-03T17:58:25.192Z,,0,,,NaN,,,,,,false,,,,685966,685966,,685966,,685969,8,400,,,
break_continue,html.Screen,4_66_2,2023-05-03T17:58:25.192Z,,0,,,NaN,,,,,,false,,,,685966,685966,,685966,,685969,8,400,,,
sequence,flow.Sequence,4_66,2023-05-03T17:58:25.192Z,,0,,,7939,completion,,,,,false,,,,685967,685966,678003,678008,678027,685969,8,400,,,
trial,html.Screen,4_67_0,2023-05-03T17:58:31.833Z,,0,2,,6639,response,ISIC_6370977.JPG,,ISIC_8931948.JPG,ISIC_6370977.JPG,false,1,keypress(m),500,692608,692608,685963,685967,685969,692611,8,400,18,,ISIC_8931948.JPG
break,html.Screen,4_67_1,2023-05-03T17:58:31.834Z,,0,,,NaN,,,,,,false,,,,692609,692609,,692608,,692611,8,400,,,
break_continue,html.Screen,4_67_2,2023-05-03T17:58:31.834Z,,0,,,NaN,,,,,,false,,,,692609,692609,,692609,,692611,8,400,,,
sequence,flow.Sequence,4_67,2023-05-03T17:58:31.834Z,,0,,,6640,completion,,,,,false,,,,692609,692609,685963,685967,685969,692611,8,400,,,
trial,html.Screen,4_68_0,2023-05-03T17:58:42.242Z,,0,2,,10405,response,ISIC_6774326.JPG,,ISIC_0053929.JPG,ISIC_6774326.JPG,false,1,keypress(m),500,703016,703016,692605,692609,692611,703022,8,400,19,,ISIC_0053929.JPG
break,html.Screen,4_68_1,2023-05-03T17:58:42.242Z,,0,,,NaN,,,,,,false,,,,703016,703016,,703016,,703022,8,400,,,
break_continue,html.Screen,4_68_2,2023-05-03T17:58:42.242Z,,0,,,NaN,,,,,,false,,,,703017,703017,,703016,,703022,8,400,,,
sequence,flow.Sequence,4_68,2023-05-03T17:58:42.242Z,,0,,,10406,completion,,,,,false,,,,703017,703017,692605,692609,692611,703022,8,400,,,
trial,html.Screen,4_69_0,2023-05-03T17:58:48.989Z,,0,2,,6742,response,ISIC_0032604.JPG,,ISIC_0053686.JPG,ISIC_0032604.JPG,false,1,keypress(m),500,709764,709764,703016,703017,703022,709769,8,400,20,,ISIC_0053686.JPG
break,html.Screen,4_69_1,2023-05-03T17:58:48.989Z,,0,,,NaN,,,,,,false,,,,709764,709764,,709764,,709769,8,400,,,
break_continue,html.Screen,4_69_2,2023-05-03T17:58:48.990Z,,0,,,NaN,,,,,,false,,,,709765,709765,,709764,,709769,8,400,,,
sequence,flow.Sequence,4_69,2023-05-03T17:58:48.990Z,,0,,,6743,completion,,,,,false,,,,709765,709765,703016,703017,703022,709769,8,400,,,
trial,html.Screen,4_70_0,2023-05-03T17:58:54.498Z,,0,2,,5504,response,ISIC_7492530.JPG,,ISIC_0033651.JPG,ISIC_0033651.JPG,false,0,keypress(z),500,715273,715273,709763,709765,709769,715275,8,400,21,,ISIC_7492530.JPG
break,html.Screen,4_70_1,2023-05-03T17:58:54.498Z,,0,,,NaN,,,,,,false,,,,715273,715273,,715273,,715275,8,400,,,
break_continue,html.Screen,4_70_2,2023-05-03T17:58:54.498Z,,0,,,NaN,,,,,,false,,,,715273,715273,,715273,,715275,8,400,,,
sequence,flow.Sequence,4_70,2023-05-03T17:58:54.498Z,,0,,,5504,completion,,,,,false,,,,715273,715273,709763,709765,709769,715275,8,400,,,
trial,html.Screen,4_71_0,2023-05-03T17:58:59.034Z,,0,2,,4533,response,ISIC_4266533.JPG,,ISIC_2364150.JPG,ISIC_4266533.JPG,false,1,keypress(m),500,719808,719808,715269,715273,715275,719815,8,400,22,,ISIC_2364150.JPG
break,html.Screen,4_71_1,2023-05-03T17:58:59.034Z,,0,,,NaN,,,,,,false,,,,719809,719809,,719809,,719815,8,400,,,
break_continue,html.Screen,4_71_2,2023-05-03T17:58:59.034Z,,0,,,NaN,,,,,,false,,,,719809,719809,,719809,,719815,8,400,,,
sequence,flow.Sequence,4_71,2023-05-03T17:58:59.035Z,,0,,,4534,completion,,,,,false,,,,719809,719809,715269,715273,715275,719815,8,400,,,
trial,html.Screen,4_72_0,2023-05-03T17:59:07.343Z,,0,2,,8302,response,ISIC_6681802.JPG,,ISIC_0014151.JPG,ISIC_0014151.JPG,false,0,keypress(z),500,728117,728117,719809,719809,719815,728123,8,400,23,,ISIC_6681802.JPG
break,html.Screen,4_72_1,2023-05-03T17:59:07.343Z,,0,,,NaN,,,,,,false,,,,728118,728118,,728118,,728123,8,400,,,
break_continue,html.Screen,4_72_2,2023-05-03T17:59:07.343Z,,0,,,NaN,,,,,,false,,,,728118,728118,,728118,,728123,8,400,,,
sequence,flow.Sequence,4_72,2023-05-03T17:59:07.343Z,,0,,,8303,completion,,,,,false,,,,728118,728118,719809,719809,719815,728123,8,400,,,
trial,html.Screen,4_73_0,2023-05-03T17:59:15.635Z,,0,2,,8286,response,ISIC_6974830.JPG,,ISIC_1461507.JPG,ISIC_6974830.JPG,false,1,keypress(m),500,736409,736409,728117,728118,728123,736413,8,400,24,,ISIC_1461507.JPG
break,html.Screen,4_73_1,2023-05-03T17:59:15.635Z,,0,,,NaN,,,,,,false,,,,736409,736409,,736409,,736413,8,400,,,
break_continue,html.Screen,4_73_2,2023-05-03T17:59:15.635Z,,0,,,NaN,,,,,,false,,,,736410,736410,,736409,,736413,8,400,,,
sequence,flow.Sequence,4_73,2023-05-03T17:59:15.635Z,,0,,,8287,completion,,,,,false,,,,736410,736410,728117,728118,728123,736413,8,400,,,
trial,html.Screen,4_74_0,2023-05-03T17:59:19.483Z,,0,2,,3844,response,ISIC_3727059.JPG,,ISIC_0011031.JPG,ISIC_3727059.JPG,false,1,keypress(m),500,740257,740257,736407,736410,736413,740267,8,400,25,,ISIC_0011031.JPG
break,html.Screen,4_74_1,2023-05-03T17:59:19.483Z,,0,,,NaN,,,,,,false,,,,740258,740258,,740257,,740267,8,400,,,
break_continue,html.Screen,4_74_2,2023-05-03T17:59:19.483Z,,0,,,NaN,,,,,,false,,,,740258,740258,,740258,,740267,8,400,,,
sequence,flow.Sequence,4_74,2023-05-03T17:59:19.483Z,,0,,,3845,completion,,,,,false,,,,740258,740258,736407,736410,736413,740267,8,400,,,
trial,html.Screen,4_75_0,2023-05-03T17:59:28.208Z,,0,2,,8715,response,ISIC_0069432.JPG,,ISIC_4362713.JPG,ISIC_0069432.JPG,false,1,keypress(m),500,748982,748982,740252,740258,740267,748985,8,400,26,,ISIC_4362713.JPG
break,html.Screen,4_75_1,2023-05-03T17:59:28.208Z,,0,,,NaN,,,,,,false,,,,748983,748983,,748982,,748985,8,400,,,
break_continue,html.Screen,4_75_2,2023-05-03T17:59:28.208Z,,0,,,NaN,,,,,,false,,,,748983,748983,,748983,,748985,8,400,,,
sequence,flow.Sequence,4_75,2023-05-03T17:59:28.208Z,,0,,,8716,completion,,,,,false,,,,748983,748983,740252,740258,740267,748985,8,400,,,
trial,html.Screen,4_76_0,2023-05-03T17:59:35.342Z,,0,2,,7131,response,ISIC_8960223.JPG,,ISIC_0011073.JPG,ISIC_8960223.JPG,false,1,keypress(m),500,756116,756116,748979,748983,748985,756121,8,400,27,,ISIC_0011073.JPG
break,html.Screen,4_76_1,2023-05-03T17:59:35.342Z,,0,,,NaN,,,,,,false,,,,756117,756117,,756116,,756121,8,400,,,
break_continue,html.Screen,4_76_2,2023-05-03T17:59:35.342Z,,0,,,NaN,,,,,,false,,,,756117,756117,,756117,,756121,8,400,,,
sequence,flow.Sequence,4_76,2023-05-03T17:59:35.342Z,,0,,,7132,completion,,,,,false,,,,756117,756117,748979,748983,748985,756121,8,400,,,
trial,html.Screen,4_77_0,2023-05-03T17:59:46.840Z,,0,2,,11506,timeout,ISIC_0006730.JPG,,ISIC_0011931.JPG,ISIC_0006730.JPG,false,,,500,767614,767614,756115,756117,756121,767627,8,400,28,,ISIC_0011931.JPG
break,html.Screen,4_77_1,2023-05-03T17:59:46.841Z,,0,,,NaN,,,,,,false,,,,767615,767615,,767614,,767627,8,400,,,
break_continue,html.Screen,4_77_2,2023-05-03T17:59:46.841Z,,0,,,NaN,,,,,,false,,,,767615,767615,,767615,,767627,8,400,,,
sequence,flow.Sequence,4_77,2023-05-03T17:59:46.841Z,,0,,,11494,completion,,,,,false,,,,767615,767615,756115,756117,756121,767627,8,400,,,
trial,html.Screen,4_78_0,2023-05-03T17:59:58.346Z,,0,2,,11505,timeout,ISIC_0013232.JPG,,ISIC_6731470.JPG,,false,,,500,779120,779120,767621,767615,767627,779132,8,400,29,,
break,html.Screen,4_78_1,2023-05-03T17:59:58.346Z,,0,,,NaN,,,,,,false,,,,779120,779120,,779120,,779132,8,400,,,
break_continue,html.Screen,4_78_2,2023-05-03T17:59:58.346Z,,0,,,NaN,,,,,,false,,,,779120,779120,,779120,,779132,8,400,,,
sequence,flow.Sequence,4_78,2023-05-03T17:59:58.346Z,,0,,,11493,completion,,,,,false,,,,779120,779120,767621,767615,767627,779132,8,400,,,
trial,html.Screen,4_79_0,2023-05-03T18:00:07.252Z,,0,2,,8894,response,ISIC_0010792.JPG,,ISIC_0026081.JPG,ISIC_0010792.JPG,false,1,keypress(m),500,788026,788026,779126,779120,779132,788029,8,400,30,,ISIC_0026081.JPG
break,html.Screen,4_79_1,2023-05-03T18:00:07.253Z,,0,,,NaN,,,,,,false,,,,788027,788027,,788027,,788029,8,400,,,
break_continue,html.Screen,4_79_2,2023-05-03T18:00:07.253Z,,0,,,NaN,,,,,,false,,,,788027,788027,,788027,,788029,8,400,,,
sequence,flow.Sequence,4_79,2023-05-03T18:00:07.253Z,,0,,,8895,completion,,,,,false,,,,788027,788027,779126,779120,779132,788029,8,400,,,
trial,html.Screen,4_80_0,2023-05-03T18:00:11.557Z,,0,2,,4302,response,ISIC_0009879.JPG,,ISIC_3922602.JPG,ISIC_3922602.JPG,false,0,keypress(z),500,792331,792331,788023,788027,788029,792333,8,400,31,,ISIC_0009879.JPG
break,html.Screen,4_80_1,2023-05-03T18:00:11.557Z,,0,,,NaN,,,,,,false,,,,792331,792331,,792331,,792333,8,400,,,
break_continue,html.Screen,4_80_2,2023-05-03T18:00:11.557Z,,0,,,NaN,,,,,,false,,,,792331,792331,,792331,,792333,8,400,,,
sequence,flow.Sequence,4_80,2023-05-03T18:00:11.557Z,,0,,,4302,completion,,,,,false,,,,792331,792331,788023,788027,788029,792333,8,400,,,
trial,html.Screen,4_81_0,2023-05-03T18:00:20.206Z,,0,2,,8648,response,ISIC_5282642.JPG,,ISIC_3418978.JPG,ISIC_3418978.JPG,false,0,keypress(z),500,800981,800981,792327,792331,792333,800983,8,400,32,,ISIC_5282642.JPG
break,html.Screen,4_81_1,2023-05-03T18:00:20.207Z,,0,,,NaN,,,,,,false,,,,800981,800981,,800981,,800983,8,400,,,
break_continue,html.Screen,4_81_2,2023-05-03T18:00:20.207Z,,0,,,NaN,,,,,,false,,,,800981,800981,,800981,,800983,8,400,,,
sequence,flow.Sequence,4_81,2023-05-03T18:00:20.207Z,,0,,,8648,completion,,,,,false,,,,800981,800981,792327,792331,792333,800983,8,400,,,
trial,html.Screen,4_82_0,2023-05-03T18:00:26.385Z,,0,2,,6176,response,ISIC_0033679.JPG,,ISIC_0033729.JPG,ISIC_0033679.JPG,false,1,keypress(m),500,807159,807159,800977,800981,800983,807166,8,400,33,,ISIC_0033729.JPG
break,html.Screen,4_82_1,2023-05-03T18:00:26.386Z,,0,,,NaN,,,,,,false,,,,807160,807160,,807159,,807166,8,400,,,
break_continue,html.Screen,4_82_2,2023-05-03T18:00:26.386Z,,0,,,NaN,,,,,,false,,,,807160,807160,,807160,,807166,8,400,,,
sequence,flow.Sequence,4_82,2023-05-03T18:00:26.386Z,,0,,,6177,completion,,,,,false,,,,807160,807160,800977,800981,800983,807166,8,400,,,
trial,html.Screen,4_83_0,2023-05-03T18:00:33.145Z,,0,2,,6753,response,ISIC_0031965.JPG,,ISIC_0061643.JPG,ISIC_0031965.JPG,false,1,keypress(m),500,813919,813919,807160,807160,807166,813925,8,400,34,,ISIC_0061643.JPG
break,html.Screen,4_83_1,2023-05-03T18:00:33.145Z,,0,,,NaN,,,,,,false,,,,813920,813920,,813919,,813925,8,400,,,
break_continue,html.Screen,4_83_2,2023-05-03T18:00:33.145Z,,0,,,NaN,,,,,,false,,,,813920,813920,,813920,,813925,8,400,,,
sequence,flow.Sequence,4_83,2023-05-03T18:00:33.145Z,,0,,,6754,completion,,,,,false,,,,813920,813920,807160,807160,807166,813925,8,400,,,
trial,html.Screen,4_84_0,2023-05-03T18:00:38.464Z,,0,2,,5314,response,ISIC_8207162.JPG,,ISIC_0066588.JPG,ISIC_8207162.JPG,false,1,keypress(m),500,819239,819239,813919,813920,813925,819242,8,400,35,,ISIC_0066588.JPG
break,html.Screen,4_84_1,2023-05-03T18:00:38.464Z,,0,,,NaN,,,,,,false,,,,819239,819239,,819239,,819242,8,400,,,
break_continue,html.Screen,4_84_2,2023-05-03T18:00:38.465Z,,0,,,NaN,,,,,,false,,,,819239,819239,,819239,,819242,8,400,,,
sequence,flow.Sequence,4_84,2023-05-03T18:00:38.465Z,,0,,,5314,completion,,,,,false,,,,819239,819239,813919,813920,813925,819242,8,400,,,
trial,html.Screen,4_85_0,2023-05-03T18:00:43.445Z,,0,2,,4977,response,ISIC_9772383.JPG,,ISIC_5313574.JPG,ISIC_9772383.JPG,false,1,keypress(m),500,824219,824219,819236,819239,819242,824230,8,400,36,,ISIC_5313574.JPG
break,html.Screen,4_85_1,2023-05-03T18:00:43.445Z,,0,,,NaN,,,,,,false,,,,824219,824219,,824219,,824230,8,400,,,
break_continue,html.Screen,4_85_2,2023-05-03T18:00:43.445Z,,0,,,NaN,,,,,,false,,,,824219,824219,,824219,,824230,8,400,,,
sequence,flow.Sequence,4_85,2023-05-03T18:00:43.445Z,,0,,,4977,completion,,,,,false,,,,824219,824219,819236,819239,819242,824230,8,400,,,
trial,html.Screen,4_86_0,2023-05-03T18:00:47.851Z,,0,2,,4395,response,ISIC_0013867.JPG,,ISIC_5768032.JPG,ISIC_0013867.JPG,false,1,keypress(m),500,828625,828625,824224,824219,824230,828628,8,400,37,,ISIC_5768032.JPG
break,html.Screen,4_86_1,2023-05-03T18:00:47.852Z,,0,,,NaN,,,,,,false,,,,828626,828626,,828625,,828628,8,400,,,
break_continue,html.Screen,4_86_2,2023-05-03T18:00:47.852Z,,0,,,NaN,,,,,,false,,,,828626,828626,,828626,,828628,8,400,,,
sequence,flow.Sequence,4_86,2023-05-03T18:00:47.852Z,,0,,,4396,completion,,,,,false,,,,828626,828626,824224,824219,824230,828628,8,400,,,
trial,html.Screen,4_87_0,2023-05-03T18:00:55.863Z,,0,2,,8009,response,ISIC_9142818.JPG,,ISIC_0025751.JPG,ISIC_9142818.JPG,false,1,keypress(m),500,836637,836637,828622,828626,828628,836642,8,400,38,,ISIC_0025751.JPG
break,html.Screen,4_87_1,2023-05-03T18:00:55.864Z,,0,,,NaN,,,,,,false,,,,836637,836637,,836637,,836642,8,400,,,
break_continue,html.Screen,4_87_2,2023-05-03T18:00:55.864Z,,0,,,NaN,,,,,,false,,,,836637,836637,,836637,,836642,8,400,,,
sequence,flow.Sequence,4_87,2023-05-03T18:00:55.864Z,,0,,,8009,completion,,,,,false,,,,836637,836637,828622,828626,828628,836642,8,400,,,
trial,html.Screen,4_88_0,2023-05-03T18:01:02.989Z,,0,2,,7121,response,ISIC_7024807.JPG,,ISIC_3868662.JPG,ISIC_7024807.JPG,false,1,keypress(m),500,843763,843763,836636,836637,836642,843766,8,400,39,,ISIC_3868662.JPG
break,html.Screen,4_88_1,2023-05-03T18:01:02.990Z,,0,,,NaN,,,,,,false,,,,843763,843763,,843763,,843766,8,400,,,
break_continue,html.Screen,4_88_2,2023-05-03T18:01:02.990Z,,0,,,NaN,,,,,,false,,,,843764,843764,,843763,,843766,8,400,,,
sequence,flow.Sequence,4_88,2023-05-03T18:01:02.990Z,,0,,,7122,completion,,,,,false,,,,843764,843764,836636,836637,836642,843766,8,400,,,
trial,html.Screen,4_89_0,2023-05-03T18:01:10.564Z,,0,2,,7572,response,ISIC_1131588.JPG,,ISIC_0054080.JPG,ISIC_0054080.JPG,false,0,keypress(z),500,851338,851338,843761,843764,843766,851345,8,400,40,,ISIC_1131588.JPG
break,html.Screen,4_89_1,2023-05-03T18:01:10.565Z,,0,,,NaN,,,,,,false,,,,851338,851338,,851338,,851345,8,400,,,
break_continue,html.Screen,4_89_2,2023-05-03T18:01:10.565Z,,0,,,NaN,,,,,,false,,,,851338,851338,,851338,,851345,8,400,,,
sequence,flow.Sequence,4_89,2023-05-03T18:01:10.565Z,,0,,,7572,completion,,,,,false,,,,851338,851338,843761,843764,843766,851345,8,400,,,
trial,html.Screen,4_90_0,2023-05-03T18:01:15.181Z,,0,2,,4610,response,ISIC_0001148.JPG,,ISIC_8036544.JPG,ISIC_8036544.JPG,false,0,keypress(z),500,855955,855955,851339,851339,851345,855961,8,400,41,,ISIC_0001148.JPG
break,html.Screen,4_90_1,2023-05-03T18:01:15.182Z,,0,,,NaN,,,,,,false,,,,855956,855956,,855956,,855961,8,400,,,
break_continue,html.Screen,4_90_2,2023-05-03T18:01:15.182Z,,0,,,NaN,,,,,,false,,,,855956,855956,,855956,,855961,8,400,,,
sequence,flow.Sequence,4_90,2023-05-03T18:01:15.182Z,,0,,,4611,completion,,,,,false,,,,855956,855956,851339,851339,851345,855961,8,400,,,
trial,html.Screen,4_91_0,2023-05-03T18:01:22.136Z,,0,2,,6949,response,ISIC_1208705.JPG,,ISIC_8732757.JPG,ISIC_8732757.JPG,false,0,keypress(z),500,862910,862910,855955,855956,855961,862915,8,400,42,,ISIC_1208705.JPG
break,html.Screen,4_91_1,2023-05-03T18:01:22.137Z,,0,,,NaN,,,,,,false,,,,862910,862910,,862910,,862915,8,400,,,
break_continue,html.Screen,4_91_2,2023-05-03T18:01:22.137Z,,0,,,NaN,,,,,,false,,,,862910,862910,,862910,,862915,8,400,,,
sequence,flow.Sequence,4_91,2023-05-03T18:01:22.137Z,,0,,,6949,completion,,,,,false,,,,862910,862910,855955,855956,855961,862915,8,400,,,
trial,html.Screen,4_92_0,2023-05-03T18:01:25.513Z,,0,2,,3372,response,ISIC_0032034.JPG,,ISIC_1937197.JPG,ISIC_1937197.JPG,false,0,keypress(z),500,866287,866287,862909,862910,862915,866297,8,400,43,,ISIC_0032034.JPG
break,html.Screen,4_92_1,2023-05-03T18:01:25.514Z,,0,,,NaN,,,,,,false,,,,866287,866287,,866287,,866297,8,400,,,
break_continue,html.Screen,4_92_2,2023-05-03T18:01:25.514Z,,0,,,NaN,,,,,,false,,,,866287,866287,,866287,,866297,8,400,,,
sequence,flow.Sequence,4_92,2023-05-03T18:01:25.514Z,,0,,,3372,completion,,,,,false,,,,866287,866287,862909,862910,862915,866297,8,400,,,
trial,html.Screen,4_93_0,2023-05-03T18:01:34.142Z,,0,2,,8619,response,ISIC_5182148.JPG,,ISIC_0013839.JPG,ISIC_5182148.JPG,false,1,keypress(m),500,874916,874916,866283,866287,866297,874921,8,400,44,,ISIC_0013839.JPG
break,html.Screen,4_93_1,2023-05-03T18:01:34.142Z,,0,,,NaN,,,,,,false,,,,874916,874916,,874916,,874921,8,400,,,
break_continue,html.Screen,4_93_2,2023-05-03T18:01:34.142Z,,0,,,NaN,,,,,,false,,,,874916,874916,,874916,,874921,8,400,,,
sequence,flow.Sequence,4_93,2023-05-03T18:01:34.142Z,,0,,,8619,completion,,,,,false,,,,874916,874916,866283,866287,866297,874921,8,400,,,
trial,html.Screen,4_94_0,2023-05-03T18:01:40.095Z,,0,2,,5948,response,ISIC_3430953.JPG,,ISIC_6385296.JPG,ISIC_3430953.JPG,false,1,keypress(m),500,880869,880869,874915,874916,874921,880874,8,400,45,,ISIC_6385296.JPG
break,html.Screen,4_94_1,2023-05-03T18:01:40.096Z,,0,,,NaN,,,,,,false,,,,880869,880869,,880869,,880874,8,400,,,
break_continue,html.Screen,4_94_2,2023-05-03T18:01:40.096Z,,0,,,NaN,,,,,,false,,,,880869,880869,,880869,,880874,8,400,,,
sequence,flow.Sequence,4_94,2023-05-03T18:01:40.096Z,,0,,,5948,completion,,,,,false,,,,880869,880869,874915,874916,874921,880874,8,400,,,
trial,html.Screen,4_95_0,2023-05-03T18:01:48.543Z,,0,2,,8442,response,ISIC_0027981.JPG,,ISIC_8002729.JPG,ISIC_8002729.JPG,false,0,keypress(z),500,889316,889316,880868,880869,880874,889334,8,400,46,,ISIC_0027981.JPG
break,html.Screen,4_95_1,2023-05-03T18:01:48.544Z,,0,,,NaN,,,,,,false,,,,889316,889316,,889316,,889334,8,400,,,
break_continue,html.Screen,4_95_2,2023-05-03T18:01:48.544Z,,0,,,NaN,,,,,,false,,,,889317,889316,,889316,,889334,8,400,,,
sequence,flow.Sequence,4_95,2023-05-03T18:01:48.544Z,,0,,,8442,completion,,,,,false,,,,889317,889316,880868,880869,880874,889334,8,400,,,
trial,html.Screen,4_96_0,2023-05-03T18:01:59.641Z,,0,2,,11081,response,ISIC_0010775.JPG,,ISIC_0239949.JPG,ISIC_0239949.JPG,false,0,keypress(z),500,900415,900415,889311,889317,889334,900417,8,400,47,,ISIC_0010775.JPG
break,html.Screen,4_96_1,2023-05-03T18:01:59.642Z,,0,,,NaN,,,,,,false,,,,900415,900415,,900415,,900417,8,400,,,
break_continue,html.Screen,4_96_2,2023-05-03T18:01:59.642Z,,0,,,NaN,,,,,,false,,,,900415,900415,,900415,,900417,8,400,,,
sequence,flow.Sequence,4_96,2023-05-03T18:01:59.642Z,,0,,,11081,completion,,,,,false,,,,900415,900415,889311,889317,889334,900417,8,400,,,
trial,html.Screen,4_97_0,2023-05-03T18:02:08.135Z,,0,2,,8491,response,ISIC_5182148.JPG,,ISIC_0024952.JPG,ISIC_0024952.JPG,false,0,keypress(z),500,908908,908908,900411,900415,900417,908913,8,400,48,,ISIC_5182148.JPG
break,html.Screen,4_97_1,2023-05-03T18:02:08.136Z,,0,,,NaN,,,,,,false,,,,908909,908909,,908908,,908913,8,400,,,
break_continue,html.Screen,4_97_2,2023-05-03T18:02:08.136Z,,0,,,NaN,,,,,,false,,,,908909,908909,,908909,,908913,8,400,,,
sequence,flow.Sequence,4_97,2023-05-03T18:02:08.136Z,,0,,,8492,completion,,,,,false,,,,908909,908909,900411,900415,900417,908913,8,400,,,
trial,html.Screen,4_98_0,2023-05-03T18:02:13.349Z,,0,2,,5209,response,ISIC_0033975.JPG,,ISIC_1241817.JPG,ISIC_0033975.JPG,false,1,keypress(m),500,914122,914122,908907,908909,908913,914124,8,400,49,,ISIC_1241817.JPG
break,html.Screen,4_98_1,2023-05-03T18:02:13.349Z,,0,,,NaN,,,,,,false,,,,914123,914123,,914122,,914124,8,400,,,
break_continue,html.Screen,4_98_2,2023-05-03T18:02:13.350Z,,0,,,NaN,,,,,,false,,,,914123,914123,,914123,,914124,8,400,,,
sequence,flow.Sequence,4_98,2023-05-03T18:02:13.350Z,,0,,,5210,completion,,,,,false,,,,914123,914123,908907,908909,908913,914124,8,400,,,
trial,html.Screen,4_99_0,2023-05-03T18:02:21.008Z,,0,2,,7657,response,ISIC_8709211.JPG,,ISIC_6805527.JPG,ISIC_6805527.JPG,false,0,keypress(z),500,921781,921781,914118,914123,914124,921785,8,400,50,,ISIC_8709211.JPG
break,html.Screen,4_99_1,2023-05-03T18:02:26.005Z,,0,,,4999,timeout,,,,,false,,,,926778,926778,921779,921781,921785,926784,8,400,,,
break_continue,html.Screen,4_99_2,2023-05-03T18:02:32.593Z,,0,,,6575,response,,,,,false,continue,keypress(Space),,933366,933359,926778,926778,926784,933373,8,400,,,
sequence,flow.Sequence,4_99,2023-05-03T18:02:32.593Z,,0,,,19235,completion,,,,,false,,,,933366,933359,914118,914123,914124,933373,8,400,,,
trial,html.Screen,4_100_0,2023-05-03T18:02:35.910Z,,0,3,,3310,response,ISIC_6546981.JPG,,ISIC_5468164.JPG,ISIC_5468164.JPG,false,0,keypress(z),500,936683,936683,933367,933366,933373,936688,8,400,1,,ISIC_6546981.JPG
break,html.Screen,4_100_1,2023-05-03T18:02:35.910Z,,0,,,NaN,,,,,,false,,,,936684,936684,,936683,,936688,8,400,,,
break_continue,html.Screen,4_100_2,2023-05-03T18:02:35.911Z,,0,,,NaN,,,,,,false,,,,936684,936684,,936684,,936688,8,400,,,
sequence,flow.Sequence,4_100,2023-05-03T18:02:35.911Z,,0,,,3311,completion,,,,,false,,,,936684,936684,933367,933366,933373,936688,8,400,,,
trial,html.Screen,4_101_0,2023-05-03T18:02:40.244Z,,0,3,,4329,response,ISIC_2208006.JPG,,ISIC_0034222.JPG,ISIC_0034222.JPG,false,0,keypress(z),500,941017,941017,936682,936684,936688,941021,8,400,2,,ISIC_2208006.JPG
break,html.Screen,4_101_1,2023-05-03T18:02:40.245Z,,0,,,NaN,,,,,,false,,,,941018,941018,,941017,,941021,8,400,,,
break_continue,html.Screen,4_101_2,2023-05-03T18:02:40.245Z,,0,,,NaN,,,,,,false,,,,941018,941018,,941018,,941021,8,400,,,
sequence,flow.Sequence,4_101,2023-05-03T18:02:40.245Z,,0,,,4330,completion,,,,,false,,,,941018,941018,936682,936684,936688,941021,8,400,,,
trial,html.Screen,4_102_0,2023-05-03T18:02:44.840Z,,0,3,,4592,response,ISIC_4563766.JPG,,ISIC_0032549.JPG,ISIC_4563766.JPG,false,1,keypress(m),500,945614,945613,941015,941018,941021,945632,8,400,3,,ISIC_0032549.JPG
break,html.Screen,4_102_1,2023-05-03T18:02:44.840Z,,0,,,NaN,,,,,,false,,,,945614,945614,,945614,,945632,8,400,,,
break_continue,html.Screen,4_102_2,2023-05-03T18:02:44.841Z,,0,,,NaN,,,,,,false,,,,945614,945614,,945614,,945632,8,400,,,
sequence,flow.Sequence,4_102,2023-05-03T18:02:44.841Z,,0,,,4593,completion,,,,,false,,,,945614,945614,941015,941018,941021,945632,8,400,,,
trial,html.Screen,4_103_0,2023-05-03T18:02:49.263Z,,0,3,,4404,response,ISIC_9476244.JPG,,ISIC_0032462.JPG,ISIC_9476244.JPG,false,1,keypress(m),500,950036,950036,945608,945614,945632,950042,8,400,4,,ISIC_0032462.JPG
break,html.Screen,4_103_1,2023-05-03T18:02:49.264Z,,0,,,NaN,,,,,,false,,,,950036,950036,,950036,,950042,8,400,,,
break_continue,html.Screen,4_103_2,2023-05-03T18:02:49.264Z,,0,,,NaN,,,,,,false,,,,950036,950036,,950036,,950042,8,400,,,
sequence,flow.Sequence,4_103,2023-05-03T18:02:49.264Z,,0,,,4404,completion,,,,,false,,,,950036,950036,945608,945614,945632,950042,8,400,,,
trial,html.Screen,4_104_0,2023-05-03T18:02:54.190Z,,0,3,,4920,response,ISIC_0057328.JPG,,ISIC_0029189.JPG,ISIC_0029189.JPG,false,0,keypress(z),500,954962,954962,950036,950036,950042,954970,8,400,5,,ISIC_0057328.JPG
break,html.Screen,4_104_1,2023-05-03T18:02:54.190Z,,0,,,NaN,,,,,,false,,,,954962,954962,,954962,,954970,8,400,,,
break_continue,html.Screen,4_104_2,2023-05-03T18:02:54.190Z,,0,,,NaN,,,,,,false,,,,954962,954962,,954962,,954970,8,400,,,
sequence,flow.Sequence,4_104,2023-05-03T18:02:54.190Z,,0,,,4920,completion,,,,,false,,,,954962,954962,950036,950036,950042,954970,8,400,,,
trial,html.Screen,4_105_0,2023-05-03T18:02:59.177Z,,0,3,,4980,response,ISIC_0060937.JPG,,ISIC_1373468.JPG,ISIC_0060937.JPG,false,1,keypress(m),500,959950,959950,954965,954962,954970,959958,8,400,6,,ISIC_1373468.JPG
break,html.Screen,4_105_1,2023-05-03T18:02:59.177Z,,0,,,NaN,,,,,,false,,,,959950,959950,,959950,,959958,8,400,,,
break_continue,html.Screen,4_105_2,2023-05-03T18:02:59.177Z,,0,,,NaN,,,,,,false,,,,959950,959950,,959950,,959958,8,400,,,
sequence,flow.Sequence,4_105,2023-05-03T18:02:59.177Z,,0,,,4980,completion,,,,,false,,,,959950,959950,954965,954962,954970,959958,8,400,,,
trial,html.Screen,4_106_0,2023-05-03T18:03:03.405Z,,0,3,,4220,response,ISIC_0029718.JPG,,ISIC_0027247.JPG,ISIC_0027247.JPG,false,0,keypress(z),500,964178,964178,959952,959950,959958,964186,8,400,7,,ISIC_0029718.JPG
break,html.Screen,4_106_1,2023-05-03T18:03:03.406Z,,0,,,NaN,,,,,,false,,,,964178,964178,,964178,,964186,8,400,,,
break_continue,html.Screen,4_106_2,2023-05-03T18:03:03.406Z,,0,,,NaN,,,,,,false,,,,964178,964178,,964178,,964186,8,400,,,
sequence,flow.Sequence,4_106,2023-05-03T18:03:03.406Z,,0,,,4220,completion,,,,,false,,,,964178,964178,959952,959950,959958,964186,8,400,,,
trial,html.Screen,4_107_0,2023-05-03T18:03:06.496Z,,0,3,,3082,response,ISIC_7586566.JPG,,ISIC_1735204.JPG,ISIC_1735204.JPG,false,0,keypress(z),500,967268,967268,964174,964178,964186,967271,8,400,8,,ISIC_7586566.JPG
break,html.Screen,4_107_1,2023-05-03T18:03:06.496Z,,0,,,NaN,,,,,,false,,,,967269,967269,,967268,,967271,8,400,,,
break_continue,html.Screen,4_107_2,2023-05-03T18:03:06.496Z,,0,,,NaN,,,,,,false,,,,967269,967269,,967269,,967271,8,400,,,
sequence,flow.Sequence,4_107,2023-05-03T18:03:06.496Z,,0,,,3083,completion,,,,,false,,,,967269,967269,964174,964178,964186,967271,8,400,,,
trial,html.Screen,4_108_0,2023-05-03T18:03:11.999Z,,0,3,,5501,response,ISIC_4191202.JPG,,ISIC_6606767.JPG,ISIC_6606767.JPG,false,0,keypress(z),500,972772,972772,967265,967269,967271,972776,8,400,9,,ISIC_4191202.JPG
break,html.Screen,4_108_1,2023-05-03T18:03:12.000Z,,0,,,NaN,,,,,,false,,,,972773,972773,,972772,,972776,8,400,,,
break_continue,html.Screen,4_108_2,2023-05-03T18:03:12.000Z,,0,,,NaN,,,,,,false,,,,972773,972773,,972773,,972776,8,400,,,
sequence,flow.Sequence,4_108,2023-05-03T18:03:12.000Z,,0,,,5502,completion,,,,,false,,,,972773,972773,967265,967269,967271,972776,8,400,,,
trial,html.Screen,4_109_0,2023-05-03T18:03:18.073Z,,0,3,,6069,response,ISIC_0065882.JPG,,ISIC_4798962.JPG,ISIC_4798962.JPG,false,0,keypress(z),500,978845,978845,972770,972773,972776,978862,8,400,10,,ISIC_0065882.JPG
break,html.Screen,4_109_1,2023-05-03T18:03:18.073Z,,0,,,NaN,,,,,,false,,,,978846,978846,,978845,,978862,8,400,,,
break_continue,html.Screen,4_109_2,2023-05-03T18:03:18.073Z,,0,,,NaN,,,,,,false,,,,978846,978846,,978846,,978862,8,400,,,
sequence,flow.Sequence,4_109,2023-05-03T18:03:18.074Z,,0,,,6070,completion,,,,,false,,,,978846,978846,972770,972773,972776,978862,8,400,,,
trial,html.Screen,4_110_0,2023-05-03T18:03:28.414Z,,0,3,,10324,response,ISIC_1452549.JPG,,ISIC_0026727.JPG,ISIC_1452549.JPG,false,1,keypress(m),500,989187,989186,978841,978846,978862,989193,8,400,11,,ISIC_0026727.JPG
break,html.Screen,4_110_1,2023-05-03T18:03:28.415Z,,0,,,NaN,,,,,,false,,,,989187,989187,,989187,,989193,8,400,,,
break_continue,html.Screen,4_110_2,2023-05-03T18:03:28.415Z,,0,,,NaN,,,,,,false,,,,989187,989187,,989187,,989193,8,400,,,
sequence,flow.Sequence,4_110,2023-05-03T18:03:28.415Z,,0,,,10325,completion,,,,,false,,,,989187,989187,978841,978846,978862,989193,8,400,,,
trial,html.Screen,4_111_0,2023-05-03T18:03:39.298Z,,0,3,,10878,response,ISIC_1388297.JPG,,ISIC_9445053.JPG,ISIC_1388297.JPG,false,1,keypress(m),500,1000071,1000071,989187,989187,989193,1000074,8,400,12,,ISIC_9445053.JPG
break,html.Screen,4_111_1,2023-05-03T18:03:39.298Z,,0,,,NaN,,,,,,false,,,,1000071,1000071,,1000071,,1000074,8,400,,,
break_continue,html.Screen,4_111_2,2023-05-03T18:03:39.298Z,,0,,,NaN,,,,,,false,,,,1000071,1000071,,1000071,,1000074,8,400,,,
sequence,flow.Sequence,4_111,2023-05-03T18:03:39.298Z,,0,,,10878,completion,,,,,false,,,,1000071,1000071,989187,989187,989193,1000074,8,400,,,
trial,html.Screen,4_112_0,2023-05-03T18:03:43.988Z,,0,3,,4687,response,ISIC_0013204.JPG,,ISIC_9906378.JPG,ISIC_9906378.JPG,false,0,keypress(z),500,1004761,1004761,1000068,1000071,1000074,1004767,8,400,13,,ISIC_0013204.JPG
break,html.Screen,4_112_1,2023-05-03T18:03:43.989Z,,0,,,NaN,,,,,,false,,,,1004761,1004761,,1004761,,1004767,8,400,,,
break_continue,html.Screen,4_112_2,2023-05-03T18:03:43.989Z,,0,,,NaN,,,,,,false,,,,1004761,1004761,,1004761,,1004767,8,400,,,
sequence,flow.Sequence,4_112,2023-05-03T18:03:43.989Z,,0,,,4687,completion,,,,,false,,,,1004761,1004761,1000068,1000071,1000074,1004767,8,400,,,
trial,html.Screen,4_113_0,2023-05-03T18:03:47.758Z,,0,3,,3763,response,ISIC_0032699.JPG,,ISIC_4793961.JPG,ISIC_4793961.JPG,false,0,keypress(z),500,1008530,1008530,1004756,1004761,1004767,1008535,8,400,14,,ISIC_0032699.JPG
break,html.Screen,4_113_1,2023-05-03T18:03:47.758Z,,0,,,NaN,,,,,,false,,,,1008531,1008531,,1008530,,1008535,8,400,,,
break_continue,html.Screen,4_113_2,2023-05-03T18:03:47.758Z,,0,,,NaN,,,,,,false,,,,1008531,1008531,,1008531,,1008535,8,400,,,
sequence,flow.Sequence,4_113,2023-05-03T18:03:47.758Z,,0,,,3764,completion,,,,,false,,,,1008531,1008531,1004756,1004761,1004767,1008535,8,400,,,
trial,html.Screen,4_114_0,2023-05-03T18:03:52.806Z,,0,3,,5043,response,ISIC_0010714.JPG,,ISIC_0062087.JPG,ISIC_0062087.JPG,false,0,keypress(z),500,1013579,1013578,1008529,1008531,1008535,1013581,8,400,15,,ISIC_0010714.JPG
break,html.Screen,4_114_1,2023-05-03T18:03:52.807Z,,0,,,NaN,,,,,,false,,,,1013579,1013579,,1013579,,1013581,8,400,,,
break_continue,html.Screen,4_114_2,2023-05-03T18:03:52.807Z,,0,,,NaN,,,,,,false,,,,1013579,1013579,,1013579,,1013581,8,400,,,
sequence,flow.Sequence,4_114,2023-05-03T18:03:52.807Z,,0,,,5044,completion,,,,,false,,,,1013579,1013579,1008529,1008531,1008535,1013581,8,400,,,
trial,html.Screen,4_115_0,2023-05-03T18:04:01.180Z,,0,3,,8371,response,ISIC_0066105.JPG,,ISIC_0013691.JPG,ISIC_0013691.JPG,false,0,keypress(z),500,1021952,1021952,1013575,1013579,1013581,1021954,8,400,16,,ISIC_0066105.JPG
break,html.Screen,4_115_1,2023-05-03T18:04:01.180Z,,0,,,NaN,,,,,,false,,,,1021952,1021952,,1021952,,1021954,8,400,,,
break_continue,html.Screen,4_115_2,2023-05-03T18:04:01.180Z,,0,,,NaN,,,,,,false,,,,1021953,1021953,,1021952,,1021954,8,400,,,
sequence,flow.Sequence,4_115,2023-05-03T18:04:01.180Z,,0,,,8372,completion,,,,,false,,,,1021953,1021953,1013575,1013579,1013581,1021954,8,400,,,
trial,html.Screen,4_116_0,2023-05-03T18:04:06.444Z,,0,3,,5263,response,ISIC_8901133.JPG,,ISIC_7246852.JPG,ISIC_7246852.JPG,false,0,keypress(z),500,1027217,1027217,1021948,1021953,1021954,1027218,8,400,17,,ISIC_8901133.JPG
break,html.Screen,4_116_1,2023-05-03T18:04:06.444Z,,0,,,NaN,,,,,,false,,,,1027217,1027217,,1027217,,1027218,8,400,,,
break_continue,html.Screen,4_116_2,2023-05-03T18:04:06.444Z,,0,,,NaN,,,,,,false,,,,1027217,1027217,,1027217,,1027218,8,400,,,
sequence,flow.Sequence,4_116,2023-05-03T18:04:06.444Z,,0,,,5263,completion,,,,,false,,,,1027217,1027217,1021948,1021953,1021954,1027218,8,400,,,
trial,html.Screen,4_117_0,2023-05-03T18:04:11.134Z,,0,3,,4688,response,ISIC_4536407.JPG,,ISIC_8253326.JPG,ISIC_8253326.JPG,false,0,keypress(z),500,1031906,1031906,1027212,1027217,1027218,1031911,8,400,18,,ISIC_4536407.JPG
break,html.Screen,4_117_1,2023-05-03T18:04:11.134Z,,0,,,NaN,,,,,,false,,,,1031906,1031906,,1031906,,1031911,8,400,,,
break_continue,html.Screen,4_117_2,2023-05-03T18:04:11.134Z,,0,,,NaN,,,,,,false,,,,1031906,1031906,,1031906,,1031911,8,400,,,
sequence,flow.Sequence,4_117,2023-05-03T18:04:11.135Z,,0,,,4688,completion,,,,,false,,,,1031906,1031906,1027212,1027217,1027218,1031911,8,400,,,
trial,html.Screen,4_118_0,2023-05-03T18:04:17.194Z,,0,3,,6055,response,ISIC_0028444.JPG,,ISIC_5754070.JPG,ISIC_0028444.JPG,false,1,keypress(m),500,1037966,1037966,1031905,1031906,1031911,1037970,8,400,19,,ISIC_5754070.JPG
break,html.Screen,4_118_1,2023-05-03T18:04:17.194Z,,0,,,NaN,,,,,,false,,,,1037966,1037966,,1037966,,1037970,8,400,,,
break_continue,html.Screen,4_118_2,2023-05-03T18:04:17.194Z,,0,,,NaN,,,,,,false,,,,1037966,1037966,,1037966,,1037970,8,400,,,
sequence,flow.Sequence,4_118,2023-05-03T18:04:17.194Z,,0,,,6055,completion,,,,,false,,,,1037966,1037966,1031905,1031906,1031911,1037970,8,400,,,
trial,html.Screen,4_119_0,2023-05-03T18:04:28.691Z,,0,3,,11506,timeout,ISIC_0067412.JPG,,ISIC_0046361.JPG,,false,,,500,1049463,1049463,1037964,1037966,1037970,1049476,8,400,20,,
break,html.Screen,4_119_1,2023-05-03T18:04:28.692Z,,0,,,NaN,,,,,,false,,,,1049463,1049463,,1049463,,1049476,8,400,,,
break_continue,html.Screen,4_119_2,2023-05-03T18:04:28.692Z,,0,,,NaN,,,,,,false,,,,1049464,1049463,,1049463,,1049476,8,400,,,
sequence,flow.Sequence,4_119,2023-05-03T18:04:28.692Z,,0,,,11493,completion,,,,,false,,,,1049464,1049463,1037964,1037966,1037970,1049476,8,400,,,
trial,html.Screen,4_120_0,2023-05-03T18:04:37.435Z,,0,3,,8731,response,ISIC_1216139.JPG,,ISIC_3207651.JPG,ISIC_1216139.JPG,false,1,keypress(m),500,1058207,1058207,1049470,1049464,1049476,1058214,8,400,21,,ISIC_3207651.JPG
break,html.Screen,4_120_1,2023-05-03T18:04:37.435Z,,0,,,NaN,,,,,,false,,,,1058207,1058207,,1058207,,1058214,8,400,,,
break_continue,html.Screen,4_120_2,2023-05-03T18:04:37.436Z,,0,,,NaN,,,,,,false,,,,1058207,1058207,,1058207,,1058214,8,400,,,
sequence,flow.Sequence,4_120,2023-05-03T18:04:37.436Z,,0,,,8731,completion,,,,,false,,,,1058207,1058207,1049470,1049464,1049476,1058214,8,400,,,
trial,html.Screen,4_121_0,2023-05-03T18:04:41.077Z,,0,3,,3634,response,ISIC_0013626.JPG,,ISIC_0031627.JPG,ISIC_0031627.JPG,false,0,keypress(z),500,1061848,1061848,1058208,1058207,1058214,1061853,8,400,22,,ISIC_0013626.JPG
break,html.Screen,4_121_1,2023-05-03T18:04:41.077Z,,0,,,NaN,,,,,,false,,,,1061850,1061850,,1061849,,1061853,8,400,,,
break_continue,html.Screen,4_121_2,2023-05-03T18:04:41.077Z,,0,,,NaN,,,,,,false,,,,1061850,1061850,,1061850,,1061853,8,400,,,
sequence,flow.Sequence,4_121,2023-05-03T18:04:41.077Z,,0,,,3636,completion,,,,,false,,,,1061850,1061850,1058208,1058207,1058214,1061853,8,400,,,
trial,html.Screen,4_122_0,2023-05-03T18:04:46.405Z,,0,3,,5324,response,ISIC_0033479.JPG,,ISIC_9801917.JPG,ISIC_9801917.JPG,false,0,keypress(z),500,1067177,1067177,1061847,1061850,1061853,1067181,8,400,23,,ISIC_0033479.JPG
break,html.Screen,4_122_1,2023-05-03T18:04:46.405Z,,0,,,NaN,,,,,,false,,,,1067177,1067177,,1067177,,1067181,8,400,,,
break_continue,html.Screen,4_122_2,2023-05-03T18:04:46.405Z,,0,,,NaN,,,,,,false,,,,1067177,1067177,,1067177,,1067181,8,400,,,
sequence,flow.Sequence,4_122,2023-05-03T18:04:46.405Z,,0,,,5324,completion,,,,,false,,,,1067177,1067177,1061847,1061850,1061853,1067181,8,400,,,
trial,html.Screen,4_123_0,2023-05-03T18:04:50.329Z,,0,3,,3919,response,ISIC_1693572.JPG,,ISIC_0033384.JPG,ISIC_0033384.JPG,false,0,keypress(z),500,1071100,1071100,1067175,1067177,1067181,1071103,8,400,24,,ISIC_1693572.JPG
break,html.Screen,4_123_1,2023-05-03T18:04:50.330Z,,0,,,NaN,,,,,,false,,,,1071102,1071101,,1071100,,1071103,8,400,,,
break_continue,html.Screen,4_123_2,2023-05-03T18:04:50.330Z,,0,,,NaN,,,,,,false,,,,1071102,1071102,,1071102,,1071103,8,400,,,
sequence,flow.Sequence,4_123,2023-05-03T18:04:50.330Z,,0,,,3921,completion,,,,,false,,,,1071102,1071102,1067175,1067177,1067181,1071103,8,400,,,
trial,html.Screen,4_124_0,2023-05-03T18:05:00.394Z,,0,3,,10063,response,ISIC_2085855.JPG,,ISIC_4348994.JPG,ISIC_4348994.JPG,false,0,keypress(z),500,1081166,1081166,1071097,1071102,1071103,1081172,8,400,25,,ISIC_2085855.JPG
break,html.Screen,4_124_1,2023-05-03T18:05:00.395Z,,0,,,NaN,,,,,,false,,,,1081167,1081167,,1081166,,1081172,8,400,,,
break_continue,html.Screen,4_124_2,2023-05-03T18:05:00.395Z,,0,,,NaN,,,,,,false,,,,1081167,1081167,,1081167,,1081172,8,400,,,
sequence,flow.Sequence,4_124,2023-05-03T18:05:00.395Z,,0,,,10064,completion,,,,,false,,,,1081167,1081167,1071097,1071102,1071103,1081172,8,400,,,
trial,html.Screen,4_125_0,2023-05-03T18:05:06.100Z,,0,3,,5700,response,ISIC_4436342.JPG,,ISIC_8790198.JPG,ISIC_8790198.JPG,false,0,keypress(z),500,1086872,1086872,1081166,1081167,1081172,1086877,8,400,26,,ISIC_4436342.JPG
break,html.Screen,4_125_1,2023-05-03T18:05:06.101Z,,0,,,NaN,,,,,,false,,,,1086872,1086872,,1086872,,1086877,8,400,,,
break_continue,html.Screen,4_125_2,2023-05-03T18:05:06.101Z,,0,,,NaN,,,,,,false,,,,1086872,1086872,,1086872,,1086877,8,400,,,
sequence,flow.Sequence,4_125,2023-05-03T18:05:06.101Z,,0,,,5700,completion,,,,,false,,,,1086872,1086872,1081166,1081167,1081172,1086877,8,400,,,
trial,html.Screen,4_126_0,2023-05-03T18:05:13.922Z,,0,3,,7817,response,ISIC_5098778.JPG,,ISIC_0010081.JPG,ISIC_5098778.JPG,false,1,keypress(m),500,1094694,1094694,1086871,1086872,1086877,1094697,8,400,27,,ISIC_0010081.JPG
break,html.Screen,4_126_1,2023-05-03T18:05:13.923Z,,0,,,NaN,,,,,,false,,,,1094694,1094694,,1094694,,1094697,8,400,,,
break_continue,html.Screen,4_126_2,2023-05-03T18:05:13.923Z,,0,,,NaN,,,,,,false,,,,1094694,1094694,,1094694,,1094697,8,400,,,
sequence,flow.Sequence,4_126,2023-05-03T18:05:13.923Z,,0,,,7817,completion,,,,,false,,,,1094694,1094694,1086871,1086872,1086877,1094697,8,400,,,
trial,html.Screen,4_127_0,2023-05-03T18:05:18.810Z,,0,3,,4884,response,ISIC_0403458.JPG,,ISIC_9685480.JPG,ISIC_9685480.JPG,false,0,keypress(z),500,1099581,1099581,1094691,1094694,1094697,1099590,8,400,28,,ISIC_0403458.JPG
break,html.Screen,4_127_1,2023-05-03T18:05:18.810Z,,0,,,NaN,,,,,,false,,,,1099581,1099581,,1099581,,1099590,8,400,,,
break_continue,html.Screen,4_127_2,2023-05-03T18:05:18.810Z,,0,,,NaN,,,,,,false,,,,1099581,1099581,,1099581,,1099590,8,400,,,
sequence,flow.Sequence,4_127,2023-05-03T18:05:18.810Z,,0,,,4884,completion,,,,,false,,,,1099581,1099581,1094691,1094694,1094697,1099590,8,400,,,
trial,html.Screen,4_128_0,2023-05-03T18:05:25.989Z,,0,3,,7171,response,ISIC_5437785.JPG,,ISIC_3063260.JPG,ISIC_5437785.JPG,false,1,keypress(m),500,1106761,1106761,1099584,1099582,1099590,1106768,8,400,29,,ISIC_3063260.JPG
break,html.Screen,4_128_1,2023-05-03T18:05:25.990Z,,0,,,NaN,,,,,,false,,,,1106761,1106761,,1106761,,1106768,8,400,,,
break_continue,html.Screen,4_128_2,2023-05-03T18:05:25.990Z,,0,,,NaN,,,,,,false,,,,1106761,1106761,,1106761,,1106768,8,400,,,
sequence,flow.Sequence,4_128,2023-05-03T18:05:25.990Z,,0,,,7171,completion,,,,,false,,,,1106761,1106761,1099584,1099582,1099590,1106768,8,400,,,
trial,html.Screen,4_129_0,2023-05-03T18:05:34.024Z,,0,3,,8028,response,ISIC_0025418.JPG,,ISIC_0062161.JPG,ISIC_0025418.JPG,false,1,keypress(m),500,1114796,1114796,1106762,1106761,1106768,1114799,8,400,30,,ISIC_0062161.JPG
break,html.Screen,4_129_1,2023-05-03T18:05:34.024Z,,0,,,NaN,,,,,,false,,,,1114796,1114796,,1114796,,1114799,8,400,,,
break_continue,html.Screen,4_129_2,2023-05-03T18:05:34.025Z,,0,,,NaN,,,,,,false,,,,1114796,1114796,,1114796,,1114799,8,400,,,
sequence,flow.Sequence,4_129,2023-05-03T18:05:34.025Z,,0,,,8028,completion,,,,,false,,,,1114796,1114796,1106762,1106761,1106768,1114799,8,400,,,
trial,html.Screen,4_130_0,2023-05-03T18:05:40.492Z,,0,3,,6465,response,ISIC_2167209.JPG,,ISIC_8622204.JPG,ISIC_2167209.JPG,false,1,keypress(m),500,1121264,1121264,1114793,1114796,1114799,1121270,8,400,31,,ISIC_8622204.JPG
break,html.Screen,4_130_1,2023-05-03T18:05:40.493Z,,0,,,NaN,,,,,,false,,,,1121265,1121265,,1121264,,1121270,8,400,,,
break_continue,html.Screen,4_130_2,2023-05-03T18:05:40.493Z,,0,,,NaN,,,,,,false,,,,1121265,1121265,,1121265,,1121270,8,400,,,
sequence,flow.Sequence,4_130,2023-05-03T18:05:40.493Z,,0,,,6466,completion,,,,,false,,,,1121265,1121265,1114793,1114796,1114799,1121270,8,400,,,
trial,html.Screen,4_131_0,2023-05-03T18:05:47.658Z,,0,3,,7160,response,ISIC_2583592.JPG,,ISIC_3445468.JPG,ISIC_2583592.JPG,false,1,keypress(m),500,1128430,1128430,1121264,1121265,1121270,1128436,8,400,32,,ISIC_3445468.JPG
break,html.Screen,4_131_1,2023-05-03T18:05:47.659Z,,0,,,NaN,,,,,,false,,,,1128430,1128430,,1128430,,1128436,8,400,,,
break_continue,html.Screen,4_131_2,2023-05-03T18:05:47.659Z,,0,,,NaN,,,,,,false,,,,1128431,1128431,,1128430,,1128436,8,400,,,
sequence,flow.Sequence,4_131,2023-05-03T18:05:47.659Z,,0,,,7161,completion,,,,,false,,,,1128431,1128431,1121264,1121265,1121270,1128436,8,400,,,
trial,html.Screen,4_132_0,2023-05-03T18:05:59.158Z,,0,3,,11505,timeout,ISIC_0056326.JPG,,ISIC_5327271.JPG,ISIC_0056326.JPG,false,,,500,1139930,1139930,1128430,1128431,1128436,1139941,8,400,33,,ISIC_5327271.JPG
break,html.Screen,4_132_1,2023-05-03T18:05:59.159Z,,0,,,NaN,,,,,,false,,,,1139930,1139930,,1139930,,1139941,8,400,,,
break_continue,html.Screen,4_132_2,2023-05-03T18:05:59.159Z,,0,,,NaN,,,,,,false,,,,1139930,1139930,,1139930,,1139941,8,400,,,
sequence,flow.Sequence,4_132,2023-05-03T18:05:59.159Z,,0,,,11494,completion,,,,,false,,,,1139930,1139930,1128430,1128431,1128436,1139941,8,400,,,
trial,html.Screen,4_133_0,2023-05-03T18:06:05.980Z,,0,3,,6811,response,ISIC_0011510.JPG,,ISIC_7763831.JPG,ISIC_7763831.JPG,false,0,keypress(z),500,1146752,1146752,1139936,1139930,1139941,1146754,8,400,34,,ISIC_0011510.JPG
break,html.Screen,4_133_1,2023-05-03T18:06:05.981Z,,0,,,NaN,,,,,,false,,,,1146752,1146752,,1146752,,1146754,8,400,,,
break_continue,html.Screen,4_133_2,2023-05-03T18:06:05.981Z,,0,,,NaN,,,,,,false,,,,1146752,1146752,,1146752,,1146754,8,400,,,
sequence,flow.Sequence,4_133,2023-05-03T18:06:05.981Z,,0,,,6811,completion,,,,,false,,,,1146752,1146752,1139936,1139930,1139941,1146754,8,400,,,
trial,html.Screen,4_134_0,2023-05-03T18:06:15.498Z,,0,3,,9515,response,ISIC_8663971.JPG,,ISIC_0014160.JPG,ISIC_8663971.JPG,false,1,keypress(m),500,1156269,1156269,1146748,1146752,1146754,1156275,8,400,35,,ISIC_0014160.JPG
break,html.Screen,4_134_1,2023-05-03T18:06:15.498Z,,0,,,NaN,,,,,,false,,,,1156269,1156269,,1156269,,1156275,8,400,,,
break_continue,html.Screen,4_134_2,2023-05-03T18:06:15.498Z,,0,,,NaN,,,,,,false,,,,1156270,1156270,,1156269,,1156275,8,400,,,
sequence,flow.Sequence,4_134,2023-05-03T18:06:15.498Z,,0,,,9516,completion,,,,,false,,,,1156270,1156270,1146748,1146752,1146754,1156275,8,400,,,
trial,html.Screen,4_135_0,2023-05-03T18:06:22.610Z,,0,3,,7106,response,ISIC_5039396.JPG,,ISIC_2298440.JPG,ISIC_2298440.JPG,false,0,keypress(z),500,1163381,1163381,1156269,1156270,1156275,1163392,8,400,36,,ISIC_5039396.JPG
break,html.Screen,4_135_1,2023-05-03T18:06:22.610Z,,0,,,NaN,,,,,,false,,,,1163381,1163381,,1163381,,1163392,8,400,,,
break_continue,html.Screen,4_135_2,2023-05-03T18:06:22.610Z,,0,,,NaN,,,,,,false,,,,1163382,1163381,,1163381,,1163392,8,400,,,
sequence,flow.Sequence,4_135,2023-05-03T18:06:22.610Z,,0,,,7106,completion,,,,,false,,,,1163382,1163381,1156269,1156270,1156275,1163392,8,400,,,
trial,html.Screen,4_136_0,2023-05-03T18:06:33.750Z,,0,3,,11129,response,ISIC_0946787.JPG,,ISIC_4271108.JPG,ISIC_0946787.JPG,false,1,keypress(m),500,1174521,1174521,1163376,1163382,1163392,1174531,8,400,37,,ISIC_4271108.JPG
break,html.Screen,4_136_1,2023-05-03T18:06:33.750Z,,0,,,NaN,,,,,,false,,,,1174521,1174521,,1174521,,1174531,8,400,,,
break_continue,html.Screen,4_136_2,2023-05-03T18:06:33.751Z,,0,,,NaN,,,,,,false,,,,1174522,1174522,,1174521,,1174531,8,400,,,
sequence,flow.Sequence,4_136,2023-05-03T18:06:33.751Z,,0,,,11130,completion,,,,,false,,,,1174522,1174522,1163376,1163382,1163392,1174531,8,400,,,
trial,html.Screen,4_137_0,2023-05-03T18:06:45.251Z,,0,3,,11503,timeout,ISIC_0032072.JPG,,ISIC_8866896.JPG,,false,,,500,1186022,1186022,1174517,1174522,1174531,1186034,8,400,38,,
break,html.Screen,4_137_1,2023-05-03T18:06:45.251Z,,0,,,NaN,,,,,,false,,,,1186023,1186023,,1186022,,1186034,8,400,,,
break_continue,html.Screen,4_137_2,2023-05-03T18:06:45.251Z,,0,,,NaN,,,,,,false,,,,1186023,1186023,,1186023,,1186034,8,400,,,
sequence,flow.Sequence,4_137,2023-05-03T18:06:45.251Z,,0,,,11492,completion,,,,,false,,,,1186023,1186023,1174517,1174522,1174531,1186034,8,400,,,
trial,html.Screen,4_138_0,2023-05-03T18:06:55.367Z,,0,3,,10103,response,ISIC_8048162.JPG,,ISIC_0068616.JPG,ISIC_8048162.JPG,false,1,keypress(m),500,1196137,1196137,1186028,1186023,1186034,1196144,8,400,39,,ISIC_0068616.JPG
break,html.Screen,4_138_1,2023-05-03T18:06:55.367Z,,0,,,NaN,,,,,,false,,,,1196138,1196138,,1196137,,1196144,8,400,,,
break_continue,html.Screen,4_138_2,2023-05-03T18:06:55.367Z,,0,,,NaN,,,,,,false,,,,1196139,1196139,,1196139,,1196144,8,400,,,
sequence,flow.Sequence,4_138,2023-05-03T18:06:55.367Z,,0,,,10105,completion,,,,,false,,,,1196139,1196139,1186028,1186023,1186034,1196144,8,400,,,
trial,html.Screen,4_139_0,2023-05-03T18:06:58.483Z,,0,3,,3110,response,ISIC_0063568.JPG,,ISIC_0005360.JPG,ISIC_0005360.JPG,false,0,keypress(z),500,1199254,1199254,1196138,1196139,1196144,1199259,8,400,40,,ISIC_0063568.JPG
break,html.Screen,4_139_1,2023-05-03T18:06:58.483Z,,0,,,NaN,,,,,,false,,,,1199254,1199254,,1199254,,1199259,8,400,,,
break_continue,html.Screen,4_139_2,2023-05-03T18:06:58.483Z,,0,,,NaN,,,,,,false,,,,1199254,1199254,,1199254,,1199259,8,400,,,
sequence,flow.Sequence,4_139,2023-05-03T18:06:58.484Z,,0,,,3110,completion,,,,,false,,,,1199254,1199254,1196138,1196139,1196144,1199259,8,400,,,
trial,html.Screen,4_140_0,2023-05-03T18:07:05.520Z,,0,3,,7031,response,ISIC_4474352.JPG,,ISIC_8082988.JPG,ISIC_4474352.JPG,false,1,keypress(m),500,1206291,1206290,1199253,1199254,1199259,1206295,8,400,41,,ISIC_8082988.JPG
break,html.Screen,4_140_1,2023-05-03T18:07:05.520Z,,0,,,NaN,,,,,,false,,,,1206291,1206291,,1206291,,1206295,8,400,,,
break_continue,html.Screen,4_140_2,2023-05-03T18:07:05.521Z,,0,,,NaN,,,,,,false,,,,1206291,1206291,,1206291,,1206295,8,400,,,
sequence,flow.Sequence,4_140,2023-05-03T18:07:05.521Z,,0,,,7032,completion,,,,,false,,,,1206291,1206291,1199253,1199254,1199259,1206295,8,400,,,
trial,html.Screen,4_141_0,2023-05-03T18:07:09.043Z,,0,3,,3519,response,ISIC_0029898.JPG,,ISIC_9764973.JPG,ISIC_9764973.JPG,false,0,keypress(z),500,1209814,1209814,1206289,1206292,1206295,1209816,8,400,42,,ISIC_0029898.JPG
break,html.Screen,4_141_1,2023-05-03T18:07:09.044Z,,0,,,NaN,,,,,,false,,,,1209814,1209814,,1209814,,1209816,8,400,,,
break_continue,html.Screen,4_141_2,2023-05-03T18:07:09.044Z,,0,,,NaN,,,,,,false,,,,1209814,1209814,,1209814,,1209816,8,400,,,
sequence,flow.Sequence,4_141,2023-05-03T18:07:09.044Z,,0,,,3519,completion,,,,,false,,,,1209814,1209814,1206289,1206292,1206295,1209816,8,400,,,
trial,html.Screen,4_142_0,2023-05-03T18:07:20.539Z,,0,3,,11506,timeout,ISIC_3193774.JPG,,ISIC_8760203.JPG,,false,,,500,1221309,1221309,1209811,1209814,1209816,1221322,8,400,43,,
break,html.Screen,4_142_1,2023-05-03T18:07:20.539Z,,0,,,NaN,,,,,,false,,,,1221310,1221310,,1221309,,1221322,8,400,,,
break_continue,html.Screen,4_142_2,2023-05-03T18:07:20.539Z,,0,,,NaN,,,,,,false,,,,1221310,1221310,,1221310,,1221322,8,400,,,
sequence,flow.Sequence,4_142,2023-05-03T18:07:20.539Z,,0,,,11494,completion,,,,,false,,,,1221311,1221310,1209811,1209814,1209816,1221322,8,400,,,
trial,html.Screen,4_143_0,2023-05-03T18:07:25.989Z,,0,3,,5438,response,ISIC_0624498.JPG,,ISIC_1850196.JPG,ISIC_0624498.JPG,false,1,keypress(m),500,1226760,1226760,1221316,1221311,1221322,1226763,8,400,44,,ISIC_1850196.JPG
break,html.Screen,4_143_1,2023-05-03T18:07:25.989Z,,0,,,NaN,,,,,,false,,,,1226760,1226760,,1226760,,1226763,8,400,,,
break_continue,html.Screen,4_143_2,2023-05-03T18:07:25.990Z,,0,,,NaN,,,,,,false,,,,1226760,1226760,,1226760,,1226763,8,400,,,
sequence,flow.Sequence,4_143,2023-05-03T18:07:25.990Z,,0,,,5438,completion,,,,,false,,,,1226760,1226760,1221316,1221311,1221322,1226763,8,400,,,
trial,html.Screen,4_144_0,2023-05-03T18:07:35.822Z,,0,3,,9830,response,ISIC_0067696.JPG,,ISIC_0011958.JPG,ISIC_0067696.JPG,false,1,keypress(m),500,1236593,1236593,1226757,1226760,1226763,1236596,8,400,45,,ISIC_0011958.JPG
break,html.Screen,4_144_1,2023-05-03T18:07:35.822Z,,0,,,NaN,,,,,,false,,,,1236593,1236593,,1236593,,1236596,8,400,,,
break_continue,html.Screen,4_144_2,2023-05-03T18:07:35.823Z,,0,,,NaN,,,,,,false,,,,1236593,1236593,,1236593,,1236596,8,400,,,
sequence,flow.Sequence,4_144,2023-05-03T18:07:35.823Z,,0,,,9830,completion,,,,,false,,,,1236593,1236593,1226757,1226760,1226763,1236596,8,400,,,
trial,html.Screen,4_145_0,2023-05-03T18:07:42.237Z,,0,3,,6412,response,ISIC_8344196.JPG,,ISIC_0066626.JPG,ISIC_0066626.JPG,false,0,keypress(z),500,1243008,1243008,1236590,1236593,1236596,1243014,8,400,46,,ISIC_8344196.JPG
break,html.Screen,4_145_1,2023-05-03T18:07:42.237Z,,0,,,NaN,,,,,,false,,,,1243008,1243008,,1243008,,1243014,8,400,,,
break_continue,html.Screen,4_145_2,2023-05-03T18:07:42.238Z,,0,,,NaN,,,,,,false,,,,1243008,1243008,,1243008,,1243014,8,400,,,
sequence,flow.Sequence,4_145,2023-05-03T18:07:42.238Z,,0,,,6412,completion,,,,,false,,,,1243008,1243008,1236590,1236593,1236596,1243014,8,400,,,
trial,html.Screen,4_146_0,2023-05-03T18:07:46.683Z,,0,3,,4440,response,ISIC_5397483.JPG,,ISIC_4076162.JPG,ISIC_4076162.JPG,false,0,keypress(z),500,1247454,1247454,1243008,1243008,1243014,1247459,8,400,47,,ISIC_5397483.JPG
break,html.Screen,4_146_1,2023-05-03T18:07:46.684Z,,0,,,NaN,,,,,,false,,,,1247455,1247454,,1247454,,1247459,8,400,,,
break_continue,html.Screen,4_146_2,2023-05-03T18:07:46.684Z,,0,,,NaN,,,,,,false,,,,1247455,1247455,,1247455,,1247459,8,400,,,
sequence,flow.Sequence,4_146,2023-05-03T18:07:46.684Z,,0,,,4441,completion,,,,,false,,,,1247455,1247455,1243008,1243008,1243014,1247459,8,400,,,
trial,html.Screen,4_147_0,2023-05-03T18:07:51.829Z,,0,3,,5141,response,ISIC_7180418.JPG,,ISIC_0010773.JPG,ISIC_7180418.JPG,false,1,keypress(m),500,1252600,1252600,1247454,1247455,1247459,1252606,8,400,48,,ISIC_0010773.JPG
break,html.Screen,4_147_1,2023-05-03T18:07:51.830Z,,0,,,NaN,,,,,,false,,,,1252601,1252601,,1252600,,1252606,8,400,,,
break_continue,html.Screen,4_147_2,2023-05-03T18:07:51.830Z,,0,,,NaN,,,,,,false,,,,1252601,1252601,,1252601,,1252606,8,400,,,
sequence,flow.Sequence,4_147,2023-05-03T18:07:51.830Z,,0,,,5142,completion,,,,,false,,,,1252601,1252601,1247454,1247455,1247459,1252606,8,400,,,
trial,html.Screen,4_148_0,2023-05-03T18:08:02.743Z,,0,3,,10907,response,ISIC_5457229.JPG,,ISIC_0013213.JPG,ISIC_0013213.JPG,false,0,keypress(z),500,1263513,1263513,1252600,1252601,1252606,1263517,8,400,49,,ISIC_5457229.JPG
break,html.Screen,4_148_1,2023-05-03T18:08:02.743Z,,0,,,NaN,,,,,,false,,,,1263513,1263513,,1263513,,1263517,8,400,,,
break_continue,html.Screen,4_148_2,2023-05-03T18:08:02.743Z,,0,,,NaN,,,,,,false,,,,1263513,1263513,,1263513,,1263517,8,400,,,
sequence,flow.Sequence,4_148,2023-05-03T18:08:02.743Z,,0,,,10907,completion,,,,,false,,,,1263513,1263513,1252600,1252601,1252606,1263517,8,400,,,
trial,html.Screen,4_149_0,2023-05-03T18:08:10.313Z,,0,3,,7566,response,ISIC_0033320.JPG,,ISIC_5039895.JPG,ISIC_0033320.JPG,false,1,keypress(m),500,1271083,1271083,1263511,1263514,1263517,1271089,8,400,50,,ISIC_5039895.JPG
break,html.Screen,4_149_1,2023-05-03T18:08:15.311Z,,0,,,4999,timeout,,,,,false,,,,1276081,1276082,1271083,1271083,1271089,1276088,8,400,,,
break_continue,html.Screen,4_149_2,2023-05-03T18:08:18.643Z,,0,,,3318,response,,,,,false,continue,keypress(Space),,1279414,1279406,1276082,1276082,1276088,1279432,8,400,,,
sequence,flow.Sequence,4_149,2023-05-03T18:08:18.643Z,,0,,,15889,completion,,,,,false,,,,1279414,1279406,1263511,1263513,1263517,1279432,8,400,,,
trial,html.Screen,4_150_0,2023-05-03T18:08:21.947Z,,0,4,,3285,response,ISIC_0071133.JPG,,ISIC_0028444.JPG,ISIC_0028444.JPG,false,0,keypress(z),500,1282717,1282717,1279409,1279414,1279432,1282736,8,400,1,,ISIC_0071133.JPG
break,html.Screen,4_150_1,2023-05-03T18:08:21.947Z,,0,,,NaN,,,,,,false,,,,1282717,1282717,,1282717,,1282736,8,400,,,
break_continue,html.Screen,4_150_2,2023-05-03T18:08:21.947Z,,0,,,NaN,,,,,,false,,,,1282717,1282717,,1282717,,1282736,8,400,,,
sequence,flow.Sequence,4_150,2023-05-03T18:08:21.947Z,,0,,,3285,completion,,,,,false,,,,1282717,1282717,1279409,1279414,1279432,1282736,8,400,,,
trial,html.Screen,4_151_0,2023-05-03T18:08:25.433Z,,0,4,,3467,response,ISIC_0000441.JPG,,ISIC_7533983.JPG,ISIC_7533983.JPG,false,0,keypress(z),500,1286203,1286203,1282712,1282717,1282736,1286210,8,400,2,,ISIC_0000441.JPG
break,html.Screen,4_151_1,2023-05-03T18:08:25.433Z,,0,,,NaN,,,,,,false,,,,1286203,1286203,,1286203,,1286210,8,400,,,
break_continue,html.Screen,4_151_2,2023-05-03T18:08:25.433Z,,0,,,NaN,,,,,,false,,,,1286203,1286203,,1286203,,1286210,8,400,,,
sequence,flow.Sequence,4_151,2023-05-03T18:08:25.433Z,,0,,,3467,completion,,,,,false,,,,1286203,1286203,1282712,1282717,1282736,1286210,8,400,,,
trial,html.Screen,4_152_0,2023-05-03T18:08:30.811Z,,0,4,,5371,response,ISIC_0034076.JPG,,ISIC_0028230.JPG,ISIC_0028230.JPG,false,0,keypress(z),500,1291581,1291581,1286204,1286203,1286210,1291585,8,400,3,,ISIC_0034076.JPG
break,html.Screen,4_152_1,2023-05-03T18:08:30.812Z,,0,,,NaN,,,,,,false,,,,1291582,1291582,,1291581,,1291585,8,400,,,
break_continue,html.Screen,4_152_2,2023-05-03T18:08:30.812Z,,0,,,NaN,,,,,,false,,,,1291582,1291582,,1291582,,1291585,8,400,,,
sequence,flow.Sequence,4_152,2023-05-03T18:08:30.812Z,,0,,,5372,completion,,,,,false,,,,1291582,1291582,1286204,1286203,1286210,1291585,8,400,,,
trial,html.Screen,4_153_0,2023-05-03T18:08:34.919Z,,0,4,,4104,response,ISIC_0011176.JPG,,ISIC_0046670.JPG,ISIC_0046670.JPG,false,0,keypress(z),500,1295689,1295689,1291580,1291582,1291585,1295695,8,400,4,,ISIC_0011176.JPG
break,html.Screen,4_153_1,2023-05-03T18:08:34.920Z,,0,,,NaN,,,,,,false,,,,1295690,1295690,,1295689,,1295695,8,400,,,
break_continue,html.Screen,4_153_2,2023-05-03T18:08:34.920Z,,0,,,NaN,,,,,,false,,,,1295691,1295690,,1295690,,1295695,8,400,,,
sequence,flow.Sequence,4_153,2023-05-03T18:08:34.920Z,,0,,,4105,completion,,,,,false,,,,1295691,1295690,1291580,1291582,1291585,1295695,8,400,,,
trial,html.Screen,4_154_0,2023-05-03T18:08:40.273Z,,0,4,,5348,response,ISIC_8481979.JPG,,ISIC_0489267.JPG,ISIC_8481979.JPG,false,1,keypress(m),500,1301043,1301043,1295689,1295691,1295695,1301048,8,400,5,,ISIC_0489267.JPG
break,html.Screen,4_154_1,2023-05-03T18:08:40.273Z,,0,,,NaN,,,,,,false,,,,1301044,1301044,,1301043,,1301048,8,400,,,
break_continue,html.Screen,4_154_2,2023-05-03T18:08:40.273Z,,0,,,NaN,,,,,,false,,,,1301044,1301044,,1301044,,1301048,8,400,,,
sequence,flow.Sequence,4_154,2023-05-03T18:08:40.274Z,,0,,,5349,completion,,,,,false,,,,1301044,1301044,1295689,1295691,1295695,1301048,8,400,,,
trial,html.Screen,4_155_0,2023-05-03T18:08:45.005Z,,0,4,,4727,response,ISIC_0027863.JPG,,ISIC_8374889.JPG,ISIC_8374889.JPG,false,0,keypress(z),500,1305775,1305775,1301042,1301044,1301048,1305789,8,400,6,,ISIC_0027863.JPG
break,html.Screen,4_155_1,2023-05-03T18:08:45.005Z,,0,,,NaN,,,,,,false,,,,1305776,1305775,,1305775,,1305789,8,400,,,
break_continue,html.Screen,4_155_2,2023-05-03T18:08:45.005Z,,0,,,NaN,,,,,,false,,,,1305776,1305776,,1305776,,1305789,8,400,,,
sequence,flow.Sequence,4_155,2023-05-03T18:08:45.005Z,,0,,,4728,completion,,,,,false,,,,1305776,1305776,1301042,1301044,1301048,1305789,8,400,,,
trial,html.Screen,4_156_0,2023-05-03T18:08:50.011Z,,0,4,,4992,response,ISIC_8917755.JPG,,ISIC_9933790.JPG,ISIC_8917755.JPG,false,1,keypress(m),500,1310781,1310781,1305770,1305776,1305789,1310793,8,400,7,,ISIC_9933790.JPG
break,html.Screen,4_156_1,2023-05-03T18:08:50.011Z,,0,,,NaN,,,,,,false,,,,1310782,1310782,,1310781,,1310793,8,400,,,
break_continue,html.Screen,4_156_2,2023-05-03T18:08:50.012Z,,0,,,NaN,,,,,,false,,,,1310782,1310782,,1310782,,1310793,8,400,,,
sequence,flow.Sequence,4_156,2023-05-03T18:08:50.012Z,,0,,,4993,completion,,,,,false,,,,1310782,1310782,1305770,1305776,1305789,1310793,8,400,,,
trial,html.Screen,4_157_0,2023-05-03T18:09:01.516Z,,0,4,,11505,timeout,ISIC_2241388.JPG,,ISIC_0012048.JPG,,false,,,500,1322286,1322286,1310787,1310782,1310793,1322298,8,400,8,,
break,html.Screen,4_157_1,2023-05-03T18:09:01.517Z,,0,,,NaN,,,,,,false,,,,1322286,1322286,,1322286,,1322298,8,400,,,
break_continue,html.Screen,4_157_2,2023-05-03T18:09:01.517Z,,0,,,NaN,,,,,,false,,,,1322286,1322286,,1322286,,1322298,8,400,,,
sequence,flow.Sequence,4_157,2023-05-03T18:09:01.517Z,,0,,,11493,completion,,,,,false,,,,1322286,1322286,1310787,1310782,1310793,1322298,8,400,,,
trial,html.Screen,4_158_0,2023-05-03T18:09:07.623Z,,0,4,,6094,response,ISIC_3193774.JPG,,ISIC_7605678.JPG,ISIC_7605678.JPG,false,0,keypress(z),500,1328392,1328392,1322292,1322286,1322298,1328398,8,400,9,,ISIC_3193774.JPG
break,html.Screen,4_158_1,2023-05-03T18:09:07.623Z,,0,,,NaN,,,,,,false,,,,1328393,1328392,,1328392,,1328398,8,400,,,
break_continue,html.Screen,4_158_2,2023-05-03T18:09:07.623Z,,0,,,NaN,,,,,,false,,,,1328393,1328393,,1328393,,1328398,8,400,,,
sequence,flow.Sequence,4_158,2023-05-03T18:09:07.623Z,,0,,,6095,completion,,,,,false,,,,1328393,1328393,1322292,1322286,1322298,1328398,8,400,,,
trial,html.Screen,4_159_0,2023-05-03T18:09:11.415Z,,0,4,,3787,response,ISIC_1735204.JPG,,ISIC_3009493.JPG,ISIC_3009493.JPG,false,0,keypress(z),500,1332185,1332185,1328392,1328393,1328398,1332190,8,400,10,,ISIC_1735204.JPG
break,html.Screen,4_159_1,2023-05-03T18:09:11.415Z,,0,,,NaN,,,,,,false,,,,1332186,1332186,,1332185,,1332190,8,400,,,
break_continue,html.Screen,4_159_2,2023-05-03T18:09:11.416Z,,0,,,NaN,,,,,,false,,,,1332186,1332186,,1332186,,1332190,8,400,,,
sequence,flow.Sequence,4_159,2023-05-03T18:09:11.416Z,,0,,,3788,completion,,,,,false,,,,1332186,1332186,1328392,1328393,1328398,1332190,8,400,,,
trial,html.Screen,4_160_0,2023-05-03T18:09:17.209Z,,0,4,,5789,response,ISIC_0009927.JPG,,ISIC_0031278.JPG,ISIC_0031278.JPG,false,0,keypress(z),500,1337979,1337979,1332184,1332186,1332190,1337984,8,400,11,,ISIC_0009927.JPG
break,html.Screen,4_160_1,2023-05-03T18:09:17.209Z,,0,,,NaN,,,,,,false,,,,1337979,1337979,,1337979,,1337984,8,400,,,
break_continue,html.Screen,4_160_2,2023-05-03T18:09:17.210Z,,0,,,NaN,,,,,,false,,,,1337979,1337979,,1337979,,1337984,8,400,,,
sequence,flow.Sequence,4_160,2023-05-03T18:09:17.210Z,,0,,,5789,completion,,,,,false,,,,1337979,1337979,1332184,1332186,1332190,1337984,8,400,,,
trial,html.Screen,4_161_0,2023-05-03T18:09:26.884Z,,0,4,,9669,response,ISIC_0032726.JPG,,ISIC_0055826.JPG,ISIC_0055826.JPG,false,0,keypress(z),500,1347653,1347653,1337978,1337979,1337984,1347658,8,400,12,,ISIC_0032726.JPG
break,html.Screen,4_161_1,2023-05-03T18:09:26.884Z,,0,,,NaN,,,,,,false,,,,1347654,1347654,,1347653,,1347658,8,400,,,
break_continue,html.Screen,4_161_2,2023-05-03T18:09:26.884Z,,0,,,NaN,,,,,,false,,,,1347654,1347654,,1347654,,1347658,8,400,,,
sequence,flow.Sequence,4_161,2023-05-03T18:09:26.884Z,,0,,,9670,completion,,,,,false,,,,1347654,1347654,1337978,1337979,1337984,1347658,8,400,,,
trial,html.Screen,4_162_0,2023-05-03T18:09:34.494Z,,0,4,,7605,response,ISIC_7306535.JPG,,ISIC_1872823.JPG,ISIC_7306535.JPG,false,1,keypress(m),500,1355263,1355263,1347653,1347654,1347658,1355266,8,400,13,,ISIC_1872823.JPG
break,html.Screen,4_162_1,2023-05-03T18:09:34.494Z,,0,,,NaN,,,,,,false,,,,1355264,1355264,,1355263,,1355266,8,400,,,
break_continue,html.Screen,4_162_2,2023-05-03T18:09:34.494Z,,0,,,NaN,,,,,,false,,,,1355264,1355264,,1355264,,1355266,8,400,,,
