sender,sender_type,sender_id,timestamp,meta,,blockNo,condition,duration,ended_on,img_left,img_reveal,img_right,loser,practice,response,response_action,selection_duration,time_commit,time_end,time_render,time_run,time_show,time_switch,total_blocks,total_trials,trialNo,url,winner
informed_consent,html.Screen,0,2023-11-01T08:05:36.678Z,"{""labjs_version"":""20.2.4"",""labjs_build"":{""flavor"":""production"",""commit"":""f5b4a49f956347addd546a832a3327688c2c0fef""},""location"":""https://run.pavlovia.org/MurrayBennett/melanoma-2afc/?participant=67453&platform=sona"",""userAgent"":""Mozilla/5.0 (Windows NT 10.0; Win64; x64) AppleWebKit/537.36 (KHTML, like Gecko) Chrome/118.0.0.0 Safari/537.36"",""platform"":""Win32"",""language"":""en-US"",""locale"":""en-US"",""timeZone"":""America/Chicago"",""timezoneOffset"":300,""screen_width"":1920,""screen_height"":1080,""scroll_width"":1920,""scroll_height"":915,""window_innerWidth"":1920,""window_innerHeight"":963,""devicePixelRatio"":1}",,,,4485.669999856949,response,,,,,,consent,click button,,15781,15779.899999856949,11287.289,11284,11294.23,15787.224,,,,"{""participant"":""67453"",""platform"":""sona""}",
Welcome,html.Screen,1,2023-11-01T08:06:07.967Z,,,,uniform,31282.87599990463,response,,,,,,continue,click button,,47070.699999809265,47070.09999990463,15780.29,15781.199999809265,15787.224,47071.738,,,,,
trial,html.Screen,2_0_0,2023-11-01T08:06:14.849Z,,0,0,,6880.461999809268,response,ISIC_0025593.JPG,,ISIC_0063388.JPG,ISIC_0025593.JPG,true,1,keypress(m),500,53952.39999985695,53952.199999809265,47064.771,47070.89999985695,47071.738,53961.119,1,6,1,,ISIC_0063388.JPG
sequence,flow.Sequence,2_0,2023-11-01T08:06:14.849Z,,0,,,6880.461999809268,completion,,,,,true,,,,53952.59999990463,53952.199999809265,47064.771,47070.799999952316,47071.738,53961.119,1,6,,,
trial,html.Screen,2_1_0,2023-11-01T08:06:22.099Z,,0,0,,7240.6809999523175,response,ISIC_1309015.JPG,,ISIC_0028178.JPG,ISIC_0028178.JPG,true,0,keypress(z),500,61201.89999985695,61201.799999952316,53946.648,53952.699999809265,53961.119,61203.583,1,6,2,,ISIC_1309015.JPG
sequence,flow.Sequence,2_1,2023-11-01T08:06:22.099Z,,0,,,7240.6809999523175,completion,,,,,true,,,,61202,61201.799999952316,53946.648,53952.699999809265,53961.119,61203.583,1,6,,,
trial,html.Screen,2_2_0,2023-11-01T08:06:27.189Z,,0,0,,5088.016999904634,response,ISIC_3314853.JPG,,ISIC_0031128.JPG,ISIC_0031128.JPG,true,0,keypress(z),500,66291.69999980927,66291.59999990463,61196.64,61202.09999990463,61203.583,66293.876,1,6,3,,ISIC_3314853.JPG
sequence,flow.Sequence,2_2,2023-11-01T08:06:27.189Z,,0,,,5088.016999904634,completion,,,,,true,,,,66291.89999985695,66291.59999990463,61196.64,61202,61203.583,66293.876,1,6,,,
trial,html.Screen,2_3_0,2023-11-01T08:06:34.550Z,,0,0,,7359.023999856945,response,ISIC_0031612.JPG,,ISIC_8980141.JPG,ISIC_0031612.JPG,true,1,keypress(m),500,73653.09999990463,73652.89999985695,66286.836,66291.89999985695,66293.876,73654.916,1,6,4,,ISIC_8980141.JPG
sequence,flow.Sequence,2_3,2023-11-01T08:06:34.551Z,,0,,,7359.023999856945,completion,,,,,true,,,,73653.19999980927,73652.89999985695,66286.836,66291.89999985695,66293.876,73654.916,1,6,,,
trial,html.Screen,2_4_0,2023-11-01T08:06:40.008Z,,0,0,,5455.084000000003,response,ISIC_1197737.JPG,,ISIC_9721604.JPG,ISIC_1197737.JPG,true,1,keypress(m),500,79110.19999980927,79110,73647.921,73653.29999995232,73654.916,79113.19,1,6,5,,ISIC_9721604.JPG
sequence,flow.Sequence,2_4,2023-11-01T08:06:40.008Z,,0,,,5455.084000000003,completion,,,,,true,,,,79110.39999985695,79110,73647.921,73653.29999995232,73654.916,79113.19,1,6,,,
trial,html.Screen,2_5_0,2023-11-01T08:06:46.168Z,,0,0,,6157.809999999998,response,ISIC_0025346.JPG,,ISIC_0010681.JPG,ISIC_0025346.JPG,true,1,keypress(m),500,85271.09999990463,85271,79106.199,79110.39999985695,79113.19,85272.878,1,6,6,,ISIC_0010681.JPG
sequence,flow.Sequence,2_5,2023-11-01T08:06:46.169Z,,0,,,6157.809999999998,completion,,,,,true,,,,85271.29999995232,85271,79106.199,79110.39999985695,79113.19,85272.878,1,6,,,
loop,flow.Loop,2,2023-11-01T08:06:46.169Z,,,,,38199.262,completion,,,,,true,,,,85271.39999985695,85271,47064.771,47070.799999952316,47071.738,85272.878,1,6,,,
exp_instructions,html.Screen,3,2023-11-01T08:06:59.409Z,,,,,13238.622000000003,response,,,,,,continue,keypress(Space),,98511.89999985695,98511.5,85265.874,85271.39999985695,85272.878,98515.802,,,,,
trial,html.Screen,4_0_0,2023-11-01T08:07:06.180Z,,0,1,,6766.698000000004,response,ISIC_2349994.JPG,5,ISIC_0033812.JPG,ISIC_2349994.JPG,false,1,keypress(m),500,105282.59999990463,105282.5,98508.118,98512.09999990463,98515.802,105286.606,8,400,1,,ISIC_0033812.JPG
break,html.Screen,4_0_1,2023-11-01T08:07:06.181Z,,0,,,NaN,,,,,,false,,,,105283.19999980927,105283.09999990463,,105282.69999980927,,105286.606,8,400,,,
break_continue,html.Screen,4_0_2,2023-11-01T08:07:06.181Z,,0,,,NaN,,,,,,false,,,,105283.39999985695,105283.39999985695,,105283.29999995232,,105286.606,8,400,,,
sequence,flow.Sequence,4_0,2023-11-01T08:07:06.181Z,,0,,,6767.597999856953,completion,,,,,false,,,,105283.89999985695,105283.39999985695,98508.118,98512.09999990463,98515.802,105286.606,8,400,,,
trial,html.Screen,4_1_0,2023-11-01T08:07:14.071Z,,0,1,,7886.894,response,ISIC_2506200.JPG,4,ISIC_0062318.JPG,ISIC_0062318.JPG,false,0,keypress(z),500,113173.59999990463,113173.5,105279.632,105284,105286.606,113175.467,8,400,2,,ISIC_2506200.JPG
break,html.Screen,4_1_1,2023-11-01T08:07:14.071Z,,0,,,NaN,,,,,,false,,,,113174.09999990463,113174,,113173.69999980927,,113175.467,8,400,,,
break_continue,html.Screen,4_1_2,2023-11-01T08:07:14.072Z,,0,,,NaN,,,,,,false,,,,113174.29999995232,113174.29999995232,,113174.09999990463,,113175.467,8,400,,,
sequence,flow.Sequence,4_1,2023-11-01T08:07:14.072Z,,0,,,7887.6939999523165,completion,,,,,false,,,,113174.29999995232,113174.29999995232,105279.632,105284,105286.606,113175.467,8,400,,,
trial,html.Screen,4_2_0,2023-11-01T08:07:22.473Z,,0,1,,8399.932999856945,response,ISIC_8023705.JPG,4,ISIC_4266533.JPG,ISIC_4266533.JPG,false,0,keypress(z),500,121575.59999990463,121575.39999985695,113168.472,113174.39999985695,113175.467,121578.184,8,400,3,,ISIC_8023705.JPG
break,html.Screen,4_2_1,2023-11-01T08:07:22.473Z,,0,,,NaN,,,,,,false,,,,121575.89999985695,121575.89999985695,,121575.59999990463,,121578.184,8,400,,,
break_continue,html.Screen,4_2_2,2023-11-01T08:07:22.473Z,,0,,,NaN,,,,,,false,,,,121576.09999990463,121576.09999990463,,121576,,121578.184,8,400,,,
sequence,flow.Sequence,4_2,2023-11-01T08:07:22.474Z,,0,,,8400.632999904628,completion,,,,,false,,,,121576.19999980927,121576.09999990463,113168.472,113174.39999985695,113175.467,121578.184,8,400,,,
trial,html.Screen,4_3_0,2023-11-01T08:07:31.643Z,,0,1,,9167.316000000006,response,ISIC_1440377.JPG,4,ISIC_0064925.JPG,ISIC_0064925.JPG,false,0,keypress(z),500,130745.59999990463,130745.5,121571.196,121576.19999980927,121578.184,130751.694,8,400,4,,ISIC_1440377.JPG
break,html.Screen,4_3_1,2023-11-01T08:07:31.643Z,,0,,,NaN,,,,,,false,,,,130746,130746,,130745.69999980927,,130751.694,8,400,,,
break_continue,html.Screen,4_3_2,2023-11-01T08:07:31.644Z,,0,,,NaN,,,,,,false,,,,130746.19999980927,130746.09999990463,,130746.09999990463,,130751.694,8,400,,,
sequence,flow.Sequence,4_3,2023-11-01T08:07:31.644Z,,0,,,9167.915999904639,completion,,,,,false,,,,130746.29999995232,130746.09999990463,121571.196,121576.19999980927,121578.184,130751.694,8,400,,,
trial,html.Screen,4_4_0,2023-11-01T08:07:39.021Z,,0,1,,7371.405999904629,response,ISIC_8253326.JPG,4,ISIC_4705662.JPG,ISIC_8253326.JPG,false,1,keypress(m),500,138123.29999995232,138123.09999990463,130744.735,130746.29999995232,130751.694,138126.658,8,400,5,,ISIC_4705662.JPG
break,html.Screen,4_4_1,2023-11-01T08:07:39.021Z,,0,,,NaN,,,,,,false,,,,138123.69999980927,138123.59999990463,,138123.39999985695,,138126.658,8,400,,,
break_continue,html.Screen,4_4_2,2023-11-01T08:07:39.021Z,,0,,,NaN,,,,,,false,,,,138123.89999985695,138123.79999995232,,138123.69999980927,,138126.658,8,400,,,
sequence,flow.Sequence,4_4,2023-11-01T08:07:39.022Z,,0,,,7372.105999952313,completion,,,,,false,,,,138124.5,138123.79999995232,130744.735,130746.29999995232,130751.694,138126.658,8,400,,,
trial,html.Screen,4_5_0,2023-11-01T08:07:49.999Z,,0,1,,10974.441999904637,response,ISIC_7278885.JPG,4,ISIC_0032828.JPG,ISIC_0032828.JPG,false,0,keypress(z),500,149101.29999995232,149101.09999990463,138119.699,138124.5,138126.658,149105.752,8,400,6,,ISIC_7278885.JPG
break,html.Screen,4_5_1,2023-11-01T08:07:49.999Z,,0,,,NaN,,,,,,false,,,,149101.69999980927,149101.59999990463,,149101.29999995232,,149105.752,8,400,,,
break_continue,html.Screen,4_5_2,2023-11-01T08:07:49.999Z,,0,,,NaN,,,,,,false,,,,149101.89999985695,149101.89999985695,,149101.69999980927,,149105.752,8,400,,,
sequence,flow.Sequence,4_5,2023-11-01T08:07:49.999Z,,0,,,10975.241999856953,completion,,,,,false,,,,149101.89999985695,149101.89999985695,138119.699,138124.5,138126.658,149105.752,8,400,,,
trial,html.Screen,4_6_0,2023-11-01T08:07:59.521Z,,0,1,,9517.447999809257,response,ISIC_6801988.JPG,4,ISIC_0633835.JPG,ISIC_6801988.JPG,false,1,keypress(m),500,158623.39999985695,158623.19999980927,149098.771,149102,149105.752,158626.53,8,400,7,,ISIC_0633835.JPG
break,html.Screen,4_6_1,2023-11-01T08:07:59.521Z,,0,,,NaN,,,,,,false,,,,158623.79999995232,158623.69999980927,,158623.5,,158626.53,8,400,,,
break_continue,html.Screen,4_6_2,2023-11-01T08:07:59.521Z,,0,,,NaN,,,,,,false,,,,158623.89999985695,158623.89999985695,,158623.79999995232,,158626.53,8,400,,,
sequence,flow.Sequence,4_6,2023-11-01T08:07:59.521Z,,0,,,9518.147999856941,completion,,,,,false,,,,158624,158623.89999985695,149098.771,149101.89999985695,149105.752,158626.53,8,400,,,
trial,html.Screen,4_7_0,2023-11-01T08:08:09.459Z,,0,1,,9934.569999904634,response,ISIC_0028886.JPG,4,ISIC_0061199.JPG,ISIC_0061199.JPG,false,0,keypress(z),500,168561.19999980927,168561.09999990463,158619.547,158624,158626.53,168570.886,8,400,8,,ISIC_0028886.JPG
break,html.Screen,4_7_1,2023-11-01T08:08:09.459Z,,0,,,NaN,,,,,,false,,,,168561.59999990463,168561.5,,168561.29999995232,,168570.886,8,400,,,
break_continue,html.Screen,4_7_2,2023-11-01T08:08:09.459Z,,0,,,NaN,,,,,,false,,,,168561.79999995232,168561.79999995232,,168561.59999990463,,168570.886,8,400,,,
sequence,flow.Sequence,4_7,2023-11-01T08:08:09.459Z,,0,,,9935.269999952317,completion,,,,,false,,,,168561.79999995232,168561.79999995232,158619.547,158624,158626.53,168570.886,8,400,,,
trial,html.Screen,4_8_0,2023-11-01T08:08:18.645Z,,0,1,,9176.114000000001,response,ISIC_0708542.JPG,5,ISIC_4951035.JPG,ISIC_0708542.JPG,false,1,keypress(m),500,177747.19999980927,177747,168563.924,168561.89999985695,168570.886,177751.374,8,400,9,,ISIC_4951035.JPG
break,html.Screen,4_8_1,2023-11-01T08:08:18.645Z,,0,,,NaN,,,,,,false,,,,177747.59999990463,177747.5,,177747.19999980927,,177751.374,8,400,,,
break_continue,html.Screen,4_8_2,2023-11-01T08:08:18.645Z,,0,,,NaN,,,,,,false,,,,177747.79999995232,177747.69999980927,,177747.59999990463,,177751.374,8,400,,,
sequence,flow.Sequence,4_8,2023-11-01T08:08:18.645Z,,0,,,9176.813999809267,completion,,,,,false,,,,177747.79999995232,177747.69999980927,168563.924,168561.79999995232,168570.886,177751.374,8,400,,,
trial,html.Screen,4_9_0,2023-11-01T08:08:30.142Z,,0,1,,11506.883999999991,timeout,ISIC_5555700.JPG,5,ISIC_0062684.JPG,ISIC_0062684.JPG,false,,,500,189244.69999980927,189244.5,177744.409,177747.89999985695,177751.374,189258.258,8,400,10,,ISIC_5555700.JPG
break,html.Screen,4_9_1,2023-11-01T08:08:30.142Z,,0,,,NaN,,,,,,false,,,,189245.19999980927,189245,,189244.79999995232,,189258.258,8,400,,,
break_continue,html.Screen,4_9_2,2023-11-01T08:08:30.143Z,,0,,,NaN,,,,,,false,,,,189245.29999995232,189245.29999995232,,189245.19999980927,,189258.258,8,400,,,
sequence,flow.Sequence,4_9,2023-11-01T08:08:30.143Z,,0,,,11493.925999952306,completion,,,,,false,,,,189245.39999985695,189245.29999995232,177744.409,177747.89999985695,177751.374,189258.258,8,400,,,
trial,html.Screen,4_10_0,2023-11-01T08:08:37.264Z,,0,1,,7108.541999952315,response,ISIC_2458609.JPG,5,ISIC_9445053.JPG,ISIC_2458609.JPG,false,1,keypress(m),500,196366.89999985695,196366.79999995232,189251.305,189245.39999985695,189258.258,196369.317,8,400,11,,ISIC_9445053.JPG
break,html.Screen,4_10_1,2023-11-01T08:08:37.265Z,,0,,,NaN,,,,,,false,,,,196367.39999985695,196367.29999995232,,196367,,196369.317,8,400,,,
break_continue,html.Screen,4_10_2,2023-11-01T08:08:37.265Z,,0,,,NaN,,,,,,false,,,,196367.5,196367.5,,196367.39999985695,,196369.317,8,400,,,
sequence,flow.Sequence,4_10,2023-11-01T08:08:37.265Z,,0,,,7109.241999999998,completion,,,,,false,,,,196367.59999990463,196367.5,189251.305,189245.39999985695,189258.258,196369.317,8,400,,,
trial,html.Screen,4_11_0,2023-11-01T08:08:43.122Z,,0,1,,5854.782999904623,response,ISIC_0065351.JPG,4,ISIC_8265105.JPG,ISIC_0065351.JPG,false,1,keypress(m),500,202224.29999995232,202224.09999990463,196362.336,196367.69999980927,196369.317,202230.369,8,400,12,,ISIC_8265105.JPG
break,html.Screen,4_11_1,2023-11-01T08:08:43.122Z,,0,,,NaN,,,,,,false,,,,202224.69999980927,202224.59999990463,,202224.29999995232,,202230.369,8,400,,,
break_continue,html.Screen,4_11_2,2023-11-01T08:08:43.122Z,,0,,,NaN,,,,,,false,,,,202224.79999995232,202224.79999995232,,202224.69999980927,,202230.369,8,400,,,
sequence,flow.Sequence,4_11,2023-11-01T08:08:43.122Z,,0,,,5855.482999952306,completion,,,,,false,,,,202224.89999985695,202224.79999995232,196362.336,196367.69999980927,196369.317,202230.369,8,400,,,
trial,html.Screen,4_12_0,2023-11-01T08:08:48.612Z,,0,1,,5483.93099995231,response,ISIC_5716385.JPG,4,ISIC_7520843.JPG,ISIC_7520843.JPG,false,0,keypress(z),500,207715,207714.29999995232,202223.41,202225,202230.369,207716.447,8,400,13,,ISIC_5716385.JPG
break,html.Screen,4_12_1,2023-11-01T08:08:48.613Z,,0,,,NaN,,,,,,false,,,,207715.29999995232,207715.29999995232,,207715.09999990463,,207716.447,8,400,,,
break_continue,html.Screen,4_12_2,2023-11-01T08:08:48.613Z,,0,,,NaN,,,,,,false,,,,207715.5,207715.5,,207715.29999995232,,207716.447,8,400,,,
sequence,flow.Sequence,4_12,2023-11-01T08:08:48.613Z,,0,,,5485.130999999994,completion,,,,,false,,,,207715.5,207715.5,202223.41,202225,202230.369,207716.447,8,400,,,
trial,html.Screen,4_13_0,2023-11-01T08:08:55.302Z,,0,1,,6687.952999856963,response,ISIC_0027407.JPG,5,ISIC_3440813.JPG,ISIC_0027407.JPG,false,1,keypress(m),500,214404.59999990463,214404.39999985695,207709.474,207715.59999990463,207716.447,214410.85,8,400,14,,ISIC_3440813.JPG
break,html.Screen,4_13_1,2023-11-01T08:08:55.302Z,,0,,,NaN,,,,,,false,,,,214405.09999990463,214405,,214404.69999980927,,214410.85,8,400,,,
break_continue,html.Screen,4_13_2,2023-11-01T08:08:55.303Z,,0,,,NaN,,,,,,false,,,,214405.19999980927,214405.19999980927,,214405.09999990463,,214410.85,8,400,,,
sequence,flow.Sequence,4_13,2023-11-01T08:08:55.303Z,,0,,,6688.75299980928,completion,,,,,false,,,,214405.19999980927,214405.19999980927,207709.474,207715.59999990463,207716.447,214410.85,8,400,,,
trial,html.Screen,4_14_0,2023-11-01T08:08:59.608Z,,0,1,,4299.249999904627,response,ISIC_0002026.JPG,5,ISIC_1668831.JPG,ISIC_1668831.JPG,false,0,keypress(z),500,218710.29999995232,218710.09999990463,214403.876,214405.29999995232,214410.85,218716.365,8,400,15,,ISIC_0002026.JPG
break,html.Screen,4_14_1,2023-11-01T08:08:59.608Z,,0,,,NaN,,,,,,false,,,,218710.89999985695,218710.79999995232,,218710.5,,218716.365,8,400,,,
break_continue,html.Screen,4_14_2,2023-11-01T08:08:59.608Z,,0,,,NaN,,,,,,false,,,,218711,218710.89999985695,,218710.89999985695,,218716.365,8,400,,,
sequence,flow.Sequence,4_14,2023-11-01T08:08:59.608Z,,0,,,4300.049999856943,completion,,,,,false,,,,218711,218710.89999985695,214403.876,214405.19999980927,214410.85,218716.365,8,400,,,
trial,html.Screen,4_15_0,2023-11-01T08:09:05.225Z,,0,1,,5611.334999809274,response,ISIC_0070051.JPG,5,ISIC_2479512.JPG,ISIC_0070051.JPG,false,1,keypress(m),500,224327.79999995232,224327.69999980927,218709.408,218711.09999990463,218716.365,224341.333,8,400,16,,ISIC_2479512.JPG
break,html.Screen,4_15_1,2023-11-01T08:09:05.226Z,,0,,,NaN,,,,,,false,,,,224328.19999980927,224328.19999980927,,224327.89999985695,,224341.333,8,400,,,
break_continue,html.Screen,4_15_2,2023-11-01T08:09:05.226Z,,0,,,NaN,,,,,,false,,,,224328.39999985695,224328.39999985695,,224328.29999995232,,224341.333,8,400,,,
sequence,flow.Sequence,4_15,2023-11-01T08:09:05.226Z,,0,,,5612.034999856958,completion,,,,,false,,,,224328.5,224328.39999985695,218709.408,218711,218716.365,224341.333,8,400,,,
trial,html.Screen,4_16_0,2023-11-01T08:09:15.003Z,,0,1,,9764.466999952303,response,ISIC_9543945.JPG,5,ISIC_3624318.JPG,ISIC_9543945.JPG,false,1,keypress(m),500,234105.89999985695,234105.79999995232,224334.39,224328.5,224341.333,234112.127,8,400,17,,ISIC_3624318.JPG
break,html.Screen,4_16_1,2023-11-01T08:09:15.004Z,,0,,,NaN,,,,,,false,,,,234106.29999995232,234106.29999995232,,234106,,234112.127,8,400,,,
break_continue,html.Screen,4_16_2,2023-11-01T08:09:15.004Z,,0,,,NaN,,,,,,false,,,,234106.5,234106.5,,234106.39999985695,,234112.127,8,400,,,
sequence,flow.Sequence,4_16,2023-11-01T08:09:15.004Z,,0,,,9765.166999999987,completion,,,,,false,,,,234106.59999990463,234106.5,224334.39,224328.5,224341.333,234112.127,8,400,,,
trial,html.Screen,4_17_0,2023-11-01T08:09:21.069Z,,0,1,,6059.072999809257,response,ISIC_4731791.JPG,4,ISIC_0054185.JPG,ISIC_0054185.JPG,false,0,keypress(z),500,240171.39999985695,240171.19999980927,234105.136,234106.59999990463,234112.127,240174.587,8,400,18,,ISIC_4731791.JPG
break,html.Screen,4_17_1,2023-11-01T08:09:21.069Z,,0,,,NaN,,,,,,false,,,,240171.79999995232,240171.69999980927,,240171.39999985695,,240174.587,8,400,,,
break_continue,html.Screen,4_17_2,2023-11-01T08:09:21.069Z,,0,,,NaN,,,,,,false,,,,240172.09999990463,240171.89999985695,,240171.79999995232,,240174.587,8,400,,,
sequence,flow.Sequence,4_17,2023-11-01T08:09:21.069Z,,0,,,6059.772999856941,completion,,,,,false,,,,240172.09999990463,240171.89999985695,234105.136,234106.59999990463,234112.127,240174.587,8,400,,,
trial,html.Screen,4_18_0,2023-11-01T08:09:26.143Z,,0,1,,5070.312999856949,response,ISIC_0027749.JPG,4,ISIC_0289478.JPG,ISIC_0027749.JPG,false,1,keypress(m),500,245245.09999990463,245244.89999985695,240167.591,240172.09999990463,240174.587,245250.921,8,400,19,,ISIC_0289478.JPG
break,html.Screen,4_18_1,2023-11-01T08:09:26.143Z,,0,,,NaN,,,,,,false,,,,245245.69999980927,245245.5,,245245.19999980927,,245250.921,8,400,,,
break_continue,html.Screen,4_18_2,2023-11-01T08:09:26.143Z,,0,,,NaN,,,,,,false,,,,245245.79999995232,245245.79999995232,,245245.69999980927,,245250.921,8,400,,,
sequence,flow.Sequence,4_18,2023-11-01T08:09:26.143Z,,0,,,5071.212999952317,completion,,,,,false,,,,245245.89999985695,245245.79999995232,240167.591,240172.09999990463,240174.587,245250.921,8,400,,,
trial,html.Screen,4_19_0,2023-11-01T08:09:33.025Z,,0,1,,6876.378999952314,response,ISIC_0394030.JPG,5,ISIC_3232329.JPG,ISIC_3232329.JPG,false,0,keypress(z),500,252127.39999985695,252127.29999995232,245243.949,245245.89999985695,245250.921,252132.805,8,400,20,,ISIC_0394030.JPG
break,html.Screen,4_19_1,2023-11-01T08:09:33.025Z,,0,,,NaN,,,,,,false,,,,252127.79999995232,252127.79999995232,,252127.5,,252132.805,8,400,,,
break_continue,html.Screen,4_19_2,2023-11-01T08:09:33.025Z,,0,,,NaN,,,,,,false,,,,252128,252127.89999985695,,252127.89999985695,,252132.805,8,400,,,
sequence,flow.Sequence,4_19,2023-11-01T08:09:33.025Z,,0,,,6876.978999856947,completion,,,,,false,,,,252128,252127.89999985695,245243.949,245245.89999985695,245250.921,252132.805,8,400,,,
trial,html.Screen,4_20_0,2023-11-01T08:09:40.338Z,,0,1,,7307.79499990464,response,ISIC_0030150.JPG,4,ISIC_0072876.JPG,ISIC_0030150.JPG,false,1,keypress(m),500,259440.69999980927,259440.59999990463,252125.833,252128,252132.805,259445.252,8,400,21,,ISIC_0072876.JPG
break,html.Screen,4_20_1,2023-11-01T08:09:40.338Z,,0,,,NaN,,,,,,false,,,,259441,259441,,259440.79999995232,,259445.252,8,400,,,
break_continue,html.Screen,4_20_2,2023-11-01T08:09:40.339Z,,0,,,NaN,,,,,,false,,,,259441.19999980927,259441.19999980927,,259441.09999990463,,259445.252,8,400,,,
sequence,flow.Sequence,4_20,2023-11-01T08:09:40.339Z,,0,,,7308.394999809272,completion,,,,,false,,,,259441.29999995232,259441.19999980927,252125.833,252128,252132.805,259445.252,8,400,,,
trial,html.Screen,4_21_0,2023-11-01T08:09:45.795Z,,0,1,,5452.747999999992,response,ISIC_9048840.JPG,5,ISIC_1732527.JPG,ISIC_1732527.JPG,false,0,keypress(z),500,264898,264898,259438.305,259441.29999995232,259445.252,264903.568,8,400,22,,ISIC_9048840.JPG
break,html.Screen,4_21_1,2023-11-01T08:09:45.796Z,,0,,,NaN,,,,,,false,,,,264898.39999985695,264898.39999985695,,264898.09999990463,,264903.568,8,400,,,
break_continue,html.Screen,4_21_2,2023-11-01T08:09:45.796Z,,0,,,NaN,,,,,,false,,,,264898.69999980927,264898.69999980927,,264898.5,,264903.568,8,400,,,
sequence,flow.Sequence,4_21,2023-11-01T08:09:45.796Z,,0,,,5453.447999809257,completion,,,,,false,,,,264898.7999999523,264898.69999980927,259438.305,259441.29999995232,259445.252,264903.568,8,400,,,
trial,html.Screen,4_22_0,2023-11-01T08:09:51.861Z,,0,1,,6060.131999809237,response,ISIC_5296963.JPG,6,ISIC_0071508.JPG,ISIC_0071508.JPG,false,0,keypress(z),500,270963.69999980927,270963.69999980927,264896.606,264898.89999985695,264903.568,270966.011,8,400,23,,ISIC_5296963.JPG
break,html.Screen,4_22_1,2023-11-01T08:09:51.862Z,,0,,,NaN,,,,,,false,,,,270964.69999980927,270964.09999990463,,270963.7999999523,,270966.011,8,400,,,
break_continue,html.Screen,4_22_2,2023-11-01T08:09:51.862Z,,0,,,NaN,,,,,,false,,,,270964.7999999523,270964.7999999523,,270964.7999999523,,270966.011,8,400,,,
sequence,flow.Sequence,4_22,2023-11-01T08:09:51.862Z,,0,,,6061.231999952288,completion,,,,,false,,,,270964.89999985695,270964.7999999523,264896.606,264898.7999999523,264903.568,270966.011,8,400,,,
trial,html.Screen,4_23_0,2023-11-01T08:09:58.167Z,,0,1,,6303.88899985695,response,ISIC_0011288.JPG,4,ISIC_7452503.JPG,ISIC_0011288.JPG,false,1,keypress(m),500,277270,277269.89999985695,270959.041,270965,270966.011,277271.547,8,400,24,,ISIC_7452503.JPG
break,html.Screen,4_23_1,2023-11-01T08:09:58.168Z,,0,,,NaN,,,,,,false,,,,277270.5,277270.39999985695,,277270.19999980927,,277271.547,8,400,,,
break_continue,html.Screen,4_23_2,2023-11-01T08:09:58.168Z,,0,,,NaN,,,,,,false,,,,277270.59999990463,277270.59999990463,,277270.5,,277271.547,8,400,,,
sequence,flow.Sequence,4_23,2023-11-01T08:09:58.168Z,,0,,,6304.588999904634,completion,,,,,false,,,,277270.69999980927,277270.59999990463,270959.041,270965,270966.011,277271.547,8,400,,,
trial,html.Screen,4_24_0,2023-11-01T08:10:09.662Z,,0,1,,11506.829999999958,timeout,ISIC_0013165.JPG,5,ISIC_7162343.JPG,ISIC_0013165.JPG,false,,,500,288764.7999999523,288764.5,277264.541,277270.69999980927,277271.547,288778.377,8,400,25,,ISIC_7162343.JPG
break,html.Screen,4_24_1,2023-11-01T08:10:09.663Z,,0,,,NaN,,,,,,false,,,,288765.09999990463,288765,,288764.7999999523,,288778.377,8,400,,,
break_continue,html.Screen,4_24_2,2023-11-01T08:10:09.663Z,,0,,,NaN,,,,,,false,,,,288765.2999999523,288765.2999999523,,288765.19999980927,,288778.377,8,400,,,
sequence,flow.Sequence,4_24,2023-11-01T08:10:09.663Z,,0,,,11493.752999952296,completion,,,,,false,,,,288765.2999999523,288765.2999999523,277264.541,277270.69999980927,277271.547,288778.377,8,400,,,
trial,html.Screen,4_25_0,2023-11-01T08:10:13.776Z,,0,1,,4100.422999952338,response,ISIC_0016080.JPG,5,ISIC_7032028.JPG,ISIC_7032028.JPG,false,0,keypress(z),500,292878.89999985695,292878.7999999523,288771.457,288765.39999985695,288778.377,292882.52,8,400,26,,ISIC_0016080.JPG
break,html.Screen,4_25_1,2023-11-01T08:10:13.777Z,,0,,,NaN,,,,,,false,,,,292879.5,292879.39999985695,,292879.09999990463,,292882.52,8,400,,,
break_continue,html.Screen,4_25_2,2023-11-01T08:10:13.777Z,,0,,,NaN,,,,,,false,,,,292879.59999990463,292879.5,,292879.5,,292882.52,8,400,,,
sequence,flow.Sequence,4_25,2023-11-01T08:10:13.777Z,,0,,,4101.123000000021,completion,,,,,false,,,,292879.59999990463,292879.5,288771.457,288765.39999985695,288778.377,292882.52,8,400,,,
trial,html.Screen,4_26_0,2023-11-01T08:10:20.562Z,,0,1,,6782.279999952298,response,ISIC_0000469.JPG,5,ISIC_4066094.JPG,ISIC_0000469.JPG,false,1,keypress(m),500,299664.89999985695,299664.7999999523,292875.558,292879.59999990463,292882.52,299667.208,8,400,27,,ISIC_4066094.JPG
break,html.Screen,4_26_1,2023-11-01T08:10:20.563Z,,0,,,NaN,,,,,,false,,,,299665.2999999523,299665.2999999523,,299665,,299667.208,8,400,,,
break_continue,html.Screen,4_26_2,2023-11-01T08:10:20.563Z,,0,,,NaN,,,,,,false,,,,299665.5,299665.39999985695,,299665.2999999523,,299667.208,8,400,,,
sequence,flow.Sequence,4_26,2023-11-01T08:10:20.563Z,,0,,,6782.87999985693,completion,,,,,false,,,,299665.5,299665.39999985695,292875.558,292879.59999990463,292882.52,299667.208,8,400,,,
trial,html.Screen,4_27_0,2023-11-01T08:10:26.371Z,,0,1,,5807.491999809281,response,ISIC_7798403.JPG,5,ISIC_8353090.JPG,ISIC_7798403.JPG,false,1,keypress(m),500,305474.7999999523,305474.69999980927,299660.236,299666.09999990463,299667.208,305479.665,8,400,28,,ISIC_8353090.JPG
break,html.Screen,4_27_1,2023-11-01T08:10:26.372Z,,0,,,NaN,,,,,,false,,,,305475.2999999523,305475.19999980927,,305474.89999985695,,305479.665,8,400,,,
break_continue,html.Screen,4_27_2,2023-11-01T08:10:26.372Z,,0,,,NaN,,,,,,false,,,,305475.5,305475.5,,305475.39999985695,,305479.665,8,400,,,
sequence,flow.Sequence,4_27,2023-11-01T08:10:26.372Z,,0,,,5808.292000000016,completion,,,,,false,,,,305475.59999990463,305475.5,299660.236,299666.09999990463,299667.208,305479.665,8,400,,,
trial,html.Screen,4_28_0,2023-11-01T08:10:31.126Z,,0,1,,4749.4349999046535,response,ISIC_8578732.JPG,5,ISIC_9640145.JPG,ISIC_9640145.JPG,false,0,keypress(z),500,310229.2999999523,310229.09999990463,305472.697,305475.69999980927,305479.665,310236.576,8,400,29,,ISIC_8578732.JPG
break,html.Screen,4_28_1,2023-11-01T08:10:31.126Z,,0,,,NaN,,,,,,false,,,,310229.69999980927,310229.69999980927,,310229.39999985695,,310236.576,8,400,,,
break_continue,html.Screen,4_28_2,2023-11-01T08:10:31.127Z,,0,,,NaN,,,,,,false,,,,310230.09999990463,310229.89999985695,,310229.69999980927,,310236.576,8,400,,,
sequence,flow.Sequence,4_28,2023-11-01T08:10:31.127Z,,0,,,4750.23499985697,completion,,,,,false,,,,310230.19999980927,310229.89999985695,305472.697,305475.69999980927,305479.665,310236.576,8,400,,,
trial,html.Screen,4_29_0,2023-11-01T08:10:37.656Z,,0,1,,6522.523999904632,response,ISIC_0059976.JPG,5,ISIC_9364740.JPG,ISIC_9364740.JPG,false,0,keypress(z),500,316759.19999980927,316759.09999990463,310229.595,310230.39999985695,310236.576,316764.311,8,400,30,,ISIC_0059976.JPG
break,html.Screen,4_29_1,2023-11-01T08:10:37.656Z,,0,,,NaN,,,,,,false,,,,316759.59999990463,316759.5,,316759.2999999523,,316764.311,8,400,,,
break_continue,html.Screen,4_29_2,2023-11-01T08:10:37.656Z,,0,,,NaN,,,,,,false,,,,316759.69999980927,316759.69999980927,,316759.69999980927,,316764.311,8,400,,,
sequence,flow.Sequence,4_29,2023-11-01T08:10:37.656Z,,0,,,6523.123999809264,completion,,,,,false,,,,316759.7999999523,316759.69999980927,310229.595,310230.2999999523,310236.576,316764.311,8,400,,,
trial,html.Screen,4_30_0,2023-11-01T08:10:46.426Z,,0,1,,8764.888999809278,response,ISIC_0007351.JPG,4,ISIC_7702483.JPG,ISIC_7702483.JPG,false,0,keypress(z),500,325529.39999985695,325529.19999980927,316757.33,316759.89999985695,316764.311,325535.094,8,400,31,,ISIC_0007351.JPG
break,html.Screen,4_30_1,2023-11-01T08:10:46.426Z,,0,,,NaN,,,,,,false,,,,325529.7999999523,325529.7999999523,,325529.39999985695,,325535.094,8,400,,,
break_continue,html.Screen,4_30_2,2023-11-01T08:10:46.427Z,,0,,,NaN,,,,,,false,,,,325530,325530,,325529.89999985695,,325535.094,8,400,,,
sequence,flow.Sequence,4_30,2023-11-01T08:10:46.427Z,,0,,,8765.689000000013,completion,,,,,false,,,,325530.09999990463,325530,316757.33,316759.89999985695,316764.311,325535.094,8,400,,,
trial,html.Screen,4_31_0,2023-11-01T08:10:51.068Z,,0,1,,4636.305999856966,response,ISIC_0027190.JPG,4,ISIC_8316125.JPG,ISIC_0027190.JPG,false,1,keypress(m),500,330171.5,330171.39999985695,325528.117,325530.09999990463,325535.094,330173.944,8,400,32,,ISIC_8316125.JPG
break,html.Screen,4_31_1,2023-11-01T08:10:51.069Z,,0,,,NaN,,,,,,false,,,,330172,330172,,330171.59999990463,,330173.944,8,400,,,
break_continue,html.Screen,4_31_2,2023-11-01T08:10:51.069Z,,0,,,NaN,,,,,,false,,,,330172.09999990463,330172.09999990463,,330172,,330173.944,8,400,,,
sequence,flow.Sequence,4_31,2023-11-01T08:10:51.069Z,,0,,,4637.00599990465,completion,,,,,false,,,,330172.09999990463,330172.09999990463,325528.117,325530.09999990463,325535.094,330173.944,8,400,,,
trial,html.Screen,4_32_0,2023-11-01T08:10:55.534Z,,0,1,,4463.055999999982,response,ISIC_0783513.JPG,6,ISIC_4933735.JPG,ISIC_4933735.JPG,false,0,keypress(z),500,334637.19999980927,334637,330166.974,330172.19999980927,330173.944,334639.217,8,400,33,,ISIC_0783513.JPG
break,html.Screen,4_32_1,2023-11-01T08:10:55.534Z,,0,,,NaN,,,,,,false,,,,334637.59999990463,334637.5,,334637.19999980927,,334639.217,8,400,,,
break_continue,html.Screen,4_32_2,2023-11-01T08:10:55.534Z,,0,,,NaN,,,,,,false,,,,334637.69999980927,334637.69999980927,,334637.59999990463,,334639.217,8,400,,,
sequence,flow.Sequence,4_32,2023-11-01T08:10:55.534Z,,0,,,4463.755999809247,completion,,,,,false,,,,334637.69999980927,334637.69999980927,330166.974,330172.19999980927,330173.944,334639.217,8,400,,,
trial,html.Screen,4_33_0,2023-11-01T08:11:02.064Z,,0,1,,6527.482999809261,response,ISIC_0034222.JPG,4,ISIC_0015443.JPG,ISIC_0015443.JPG,false,0,keypress(z),500,341166.89999985695,341166.69999980927,334632.22,334637.69999980927,334639.217,341173.874,8,400,34,,ISIC_0034222.JPG
break,html.Screen,4_33_1,2023-11-01T08:11:02.064Z,,0,,,NaN,,,,,,false,,,,341167.59999990463,341167.39999985695,,341167.09999990463,,341173.874,8,400,,,
break_continue,html.Screen,4_33_2,2023-11-01T08:11:02.064Z,,0,,,NaN,,,,,,false,,,,341167.89999985695,341167.7999999523,,341167.59999990463,,341173.874,8,400,,,
sequence,flow.Sequence,4_33,2023-11-01T08:11:02.064Z,,0,,,6528.582999952312,completion,,,,,false,,,,341167.89999985695,341167.7999999523,334632.22,334637.69999980927,334639.217,341173.874,8,400,,,
trial,html.Screen,4_34_0,2023-11-01T08:11:07.649Z,,0,1,,5578.825999809254,response,ISIC_0059170.JPG,5,ISIC_2603420.JPG,ISIC_0059170.JPG,false,1,keypress(m),500,346752.89999985695,346752.69999980927,341166.888,341168,341173.874,346757.173,8,400,35,,ISIC_2603420.JPG
break,html.Screen,4_34_1,2023-11-01T08:11:07.650Z,,0,,,NaN,,,,,,false,,,,346753.2999999523,346753.19999980927,,346752.89999985695,,346757.173,8,400,,,
break_continue,html.Screen,4_34_2,2023-11-01T08:11:07.650Z,,0,,,NaN,,,,,,false,,,,346753.39999985695,346753.39999985695,,346753.2999999523,,346757.173,8,400,,,
sequence,flow.Sequence,4_34,2023-11-01T08:11:07.650Z,,0,,,5579.525999856938,completion,,,,,false,,,,346753.5,346753.39999985695,341166.888,341167.89999985695,341173.874,346757.173,8,400,,,
trial,html.Screen,4_35_0,2023-11-01T08:11:12.051Z,,0,1,,4396.82699999999,response,ISIC_0058177.JPG,5,ISIC_0029150.JPG,ISIC_0058177.JPG,false,1,keypress(m),500,351154.19999980927,351154,346750.204,346753.5,346757.173,351166.85,8,400,36,,ISIC_0029150.JPG
break,html.Screen,4_35_1,2023-11-01T08:11:12.051Z,,0,,,NaN,,,,,,false,,,,351154.59999990463,351154.59999990463,,351154.2999999523,,351166.85,8,400,,,
break_continue,html.Screen,4_35_2,2023-11-01T08:11:12.051Z,,0,,,NaN,,,,,,false,,,,351154.7999999523,351154.69999980927,,351154.69999980927,,351166.85,8,400,,,
sequence,flow.Sequence,4_35,2023-11-01T08:11:12.051Z,,0,,,4397.526999809255,completion,,,,,false,,,,351154.89999985695,351154.69999980927,346750.204,346753.5,346757.173,351166.85,8,400,,,
trial,html.Screen,4_36_0,2023-11-01T08:11:18.437Z,,0,1,,6373.549999856972,response,ISIC_1008609.JPG,4,ISIC_0029993.JPG,ISIC_1008609.JPG,false,1,keypress(m),500,357540.5,357540.39999985695,351159.964,351154.89999985695,351166.85,357549.244,8,400,37,,ISIC_0029993.JPG
break,html.Screen,4_36_1,2023-11-01T08:11:18.438Z,,0,,,NaN,,,,,,false,,,,357541,357540.7999999523,,357540.59999990463,,357549.244,8,400,,,
break_continue,html.Screen,4_36_2,2023-11-01T08:11:18.438Z,,0,,,NaN,,,,,,false,,,,357541,357541,,357541,,357549.244,8,400,,,
sequence,flow.Sequence,4_36,2023-11-01T08:11:18.438Z,,0,,,6374.150000000023,completion,,,,,false,,,,357541.09999990463,357541,351159.964,351154.89999985695,351166.85,357549.244,8,400,,,
trial,html.Screen,4_37_0,2023-11-01T08:11:27.096Z,,0,1,,8649.255999999994,response,ISIC_4163843.JPG,4,ISIC_0033278.JPG,ISIC_0033278.JPG,false,0,keypress(z),500,366198.59999990463,366198.5,357534.852,357541.09999990463,357549.244,366201.495,8,400,38,,ISIC_4163843.JPG
break,html.Screen,4_37_1,2023-11-01T08:11:27.096Z,,0,,,NaN,,,,,,false,,,,366199.09999990463,366199,,366198.69999980927,,366201.495,8,400,,,
break_continue,html.Screen,4_37_2,2023-11-01T08:11:27.097Z,,0,,,NaN,,,,,,false,,,,366199.19999980927,366199.09999990463,,366199.09999990463,,366201.495,8,400,,,
sequence,flow.Sequence,4_37,2023-11-01T08:11:27.097Z,,0,,,8649.855999904627,completion,,,,,false,,,,366199.19999980927,366199.09999990463,357534.852,357541.09999990463,357549.244,366201.495,8,400,,,
trial,html.Screen,4_38_0,2023-11-01T08:11:35.161Z,,0,1,,8062.20499980927,response,ISIC_0011793.JPG,4,ISIC_5204796.JPG,ISIC_5204796.JPG,false,0,keypress(z),500,374263.7999999523,374263.69999980927,366194.51,366199.2999999523,366201.495,374270.878,8,400,39,,ISIC_0011793.JPG
break,html.Screen,4_38_1,2023-11-01T08:11:35.162Z,,0,,,NaN,,,,,,false,,,,374264.2999999523,374264.2999999523,,374263.89999985695,,374270.878,8,400,,,
break_continue,html.Screen,4_38_2,2023-11-01T08:11:35.162Z,,0,,,NaN,,,,,,false,,,,374264.69999980927,374264.69999980927,,374264.39999985695,,374270.878,8,400,,,
sequence,flow.Sequence,4_38,2023-11-01T08:11:35.162Z,,0,,,8063.20499980927,completion,,,,,false,,,,374264.69999980927,374264.69999980927,366194.51,366199.2999999523,366201.495,374270.878,8,400,,,
trial,html.Screen,4_39_0,2023-11-01T08:11:40.076Z,,0,1,,4907.321999809239,response,ISIC_5705973.JPG,5,ISIC_5576354.JPG,ISIC_5576354.JPG,false,0,keypress(z),500,379178.2999999523,379178.19999980927,374263.887,374264.7999999523,374270.878,379180.548,8,400,40,,ISIC_5705973.JPG
break,html.Screen,4_39_1,2023-11-01T08:11:40.076Z,,0,,,NaN,,,,,,false,,,,379178.69999980927,379178.69999980927,,379178.39999985695,,379180.548,8,400,,,
break_continue,html.Screen,4_39_2,2023-11-01T08:11:40.076Z,,0,,,NaN,,,,,,false,,,,379178.7999999523,379178.7999999523,,379178.7999999523,,379180.548,8,400,,,
sequence,flow.Sequence,4_39,2023-11-01T08:11:40.076Z,,0,,,4907.92199995229,completion,,,,,false,,,,379178.89999985695,379178.7999999523,374263.887,374264.7999999523,374270.878,379180.548,8,400,,,
trial,html.Screen,4_40_0,2023-11-01T08:11:44.654Z,,0,1,,4575.851999856939,response,ISIC_0000585.JPG,4,ISIC_0033029.JPG,ISIC_0033029.JPG,false,0,keypress(z),500,383756.5,383756.39999985695,379173.605,379178.89999985695,379180.548,383764.302,8,400,41,,ISIC_0000585.JPG
break,html.Screen,4_40_1,2023-11-01T08:11:44.654Z,,0,,,NaN,,,,,,false,,,,383756.7999999523,383756.7999999523,,383756.5,,383764.302,8,400,,,
break_continue,html.Screen,4_40_2,2023-11-01T08:11:44.654Z,,0,,,NaN,,,,,,false,,,,383757.09999990463,383757,,383757,,383764.302,8,400,,,
sequence,flow.Sequence,4_40,2023-11-01T08:11:44.654Z,,0,,,4576.45199999999,completion,,,,,false,,,,383757.09999990463,383757,379173.605,379178.89999985695,379180.548,383764.302,8,400,,,
trial,html.Screen,4_41_0,2023-11-01T08:11:48.768Z,,0,1,,4105.89799980924,response,ISIC_0004558.JPG,4,ISIC_4099428.JPG,ISIC_4099428.JPG,false,0,keypress(z),500,387870.39999985695,387870.19999980927,383749.934,383757.19999980927,383764.302,387874.937,8,400,42,,ISIC_0004558.JPG
break,html.Screen,4_41_1,2023-11-01T08:11:48.768Z,,0,,,NaN,,,,,,false,,,,387870.69999980927,387870.69999980927,,387870.39999985695,,387874.937,8,400,,,
break_continue,html.Screen,4_41_2,2023-11-01T08:11:48.768Z,,0,,,NaN,,,,,,false,,,,387870.89999985695,387870.89999985695,,387870.7999999523,,387874.937,8,400,,,
sequence,flow.Sequence,4_41,2023-11-01T08:11:48.768Z,,0,,,4106.597999856924,completion,,,,,false,,,,387870.89999985695,387870.89999985695,383749.934,383757.09999990463,383764.302,387874.937,8,400,,,
trial,html.Screen,4_42_0,2023-11-01T08:11:53.170Z,,0,1,,4397.262999809289,response,ISIC_8687105.JPG,4,ISIC_0072182.JPG,ISIC_0072182.JPG,false,0,keypress(z),500,392272.2999999523,392272.19999980927,387867.973,387871,387874.937,392277.665,8,400,43,,ISIC_8687105.JPG
break,html.Screen,4_42_1,2023-11-01T08:11:53.170Z,,0,,,NaN,,,,,,false,,,,392272.69999980927,392272.69999980927,,392272.39999985695,,392277.665,8,400,,,
break_continue,html.Screen,4_42_2,2023-11-01T08:11:53.170Z,,0,,,NaN,,,,,,false,,,,392272.89999985695,392272.89999985695,,392272.7999999523,,392277.665,8,400,,,
sequence,flow.Sequence,4_42,2023-11-01T08:11:53.170Z,,0,,,4397.962999856973,completion,,,,,false,,,,392273,392272.89999985695,387867.973,387871,387874.937,392277.665,8,400,,,
trial,html.Screen,4_43_0,2023-11-01T08:12:00.116Z,,0,1,,6940.835000000021,response,ISIC_6090057.JPG,5,ISIC_9738202.JPG,ISIC_9738202.JPG,false,0,keypress(z),500,399218.69999980927,399218.5,392270.701,392273,392277.665,399222.095,8,400,44,,ISIC_6090057.JPG
break,html.Screen,4_43_1,2023-11-01T08:12:00.116Z,,0,,,NaN,,,,,,false,,,,399219.09999990463,399219,,399218.7999999523,,399222.095,8,400,,,
break_continue,html.Screen,4_43_2,2023-11-01T08:12:00.117Z,,0,,,NaN,,,,,,false,,,,399219.19999980927,399219.19999980927,,399219.09999990463,,399222.095,8,400,,,
sequence,flow.Sequence,4_43,2023-11-01T08:12:00.117Z,,0,,,6941.534999809286,completion,,,,,false,,,,399219.2999999523,399219.19999980927,392270.701,392273,392277.665,399222.095,8,400,,,
trial,html.Screen,4_44_0,2023-11-01T08:12:04.070Z,,0,1,,3950.0049999046605,response,ISIC_0953317.JPG,4,ISIC_8742407.JPG,ISIC_0953317.JPG,false,1,keypress(m),500,403172.2999999523,403172.09999990463,399215.163,399219.2999999523,399222.095,403181.043,8,400,45,,ISIC_8742407.JPG
break,html.Screen,4_44_1,2023-11-01T08:12:04.070Z,,0,,,NaN,,,,,,false,,,,403172.59999990463,403172.59999990463,,403172.2999999523,,403181.043,8,400,,,
break_continue,html.Screen,4_44_2,2023-11-01T08:12:04.070Z,,0,,,NaN,,,,,,false,,,,403172.69999980927,403172.69999980927,,403172.59999990463,,403181.043,8,400,,,
sequence,flow.Sequence,4_44,2023-11-01T08:12:04.070Z,,0,,,3950.604999809293,completion,,,,,false,,,,403172.7999999523,403172.69999980927,399215.163,399219.2999999523,399222.095,403181.043,8,400,,,
trial,html.Screen,4_45_0,2023-11-01T08:12:10.503Z,,0,1,,6424.456999999995,response,ISIC_0066429.JPG,5,ISIC_0009984.JPG,ISIC_0009984.JPG,false,0,keypress(z),500,409605.59999990463,409605.5,403166.471,403172.89999985695,403181.043,409610.887,8,400,46,,ISIC_0066429.JPG
break,html.Screen,4_45_1,2023-11-01T08:12:10.503Z,,0,,,NaN,,,,,,false,,,,409606,409605.89999985695,,409605.69999980927,,409610.887,8,400,,,
break_continue,html.Screen,4_45_2,2023-11-01T08:12:10.504Z,,0,,,NaN,,,,,,false,,,,409606.19999980927,409606.19999980927,,409606.09999990463,,409610.887,8,400,,,
sequence,flow.Sequence,4_45,2023-11-01T08:12:10.504Z,,0,,,6425.15699980926,completion,,,,,false,,,,409606.19999980927,409606.19999980927,403166.471,403172.7999999523,403181.043,409610.887,8,400,,,
trial,html.Screen,4_46_0,2023-11-01T08:12:15.993Z,,0,1,,5484.512999856961,response,ISIC_0069379.JPG,4,ISIC_0032603.JPG,ISIC_0032603.JPG,false,0,keypress(z),500,415095.59999990463,415095.39999985695,409603.939,409606.19999980927,409610.887,415104.415,8,400,47,,ISIC_0069379.JPG
break,html.Screen,4_46_1,2023-11-01T08:12:15.993Z,,0,,,NaN,,,,,,false,,,,415096,415096,,415095.69999980927,,415104.415,8,400,,,
break_continue,html.Screen,4_46_2,2023-11-01T08:12:15.994Z,,0,,,NaN,,,,,,false,,,,415096.19999980927,415096.19999980927,,415096.09999990463,,415104.415,8,400,,,
sequence,flow.Sequence,4_46,2023-11-01T08:12:15.994Z,,0,,,5485.312999809277,completion,,,,,false,,,,415096.2999999523,415096.19999980927,409603.939,409606.19999980927,409610.887,415104.415,8,400,,,
trial,html.Screen,4_47_0,2023-11-01T08:12:22.794Z,,0,1,,6792.48499985697,response,ISIC_9244047.JPG,5,ISIC_0029513.JPG,ISIC_0029513.JPG,false,0,keypress(z),500,421897,421896.89999985695,415090.003,415096.2999999523,415104.415,421902.488,8,400,48,,ISIC_9244047.JPG
break,html.Screen,4_47_1,2023-11-01T08:12:22.795Z,,0,,,NaN,,,,,,false,,,,421897.39999985695,421897.39999985695,,421897.09999990463,,421902.488,8,400,,,
break_continue,html.Screen,4_47_2,2023-11-01T08:12:22.796Z,,0,,,NaN,,,,,,false,,,,421898.2999999523,421898.19999980927,,421897.5,,421902.488,8,400,,,
sequence,flow.Sequence,4_47,2023-11-01T08:12:22.796Z,,0,,,6793.784999809286,completion,,,,,false,,,,421898.2999999523,421898.19999980927,415090.003,415096.2999999523,415104.415,421902.488,8,400,,,
trial,html.Screen,4_48_0,2023-11-01T08:12:29.005Z,,0,1,,6204.411999856937,response,ISIC_5705973.JPG,5,ISIC_0014150.JPG,ISIC_0014150.JPG,false,0,keypress(z),500,428107.09999990463,428106.89999985695,421895.541,421898.2999999523,421902.488,428110.77,8,400,49,,ISIC_5705973.JPG
break,html.Screen,4_48_1,2023-11-01T08:12:29.005Z,,0,,,NaN,,,,,,false,,,,428107.59999990463,428107.5,,428107.19999980927,,428110.77,8,400,,,
break_continue,html.Screen,4_48_2,2023-11-01T08:12:29.005Z,,0,,,NaN,,,,,,false,,,,428107.69999980927,428107.69999980927,,428107.59999990463,,428110.77,8,400,,,
sequence,flow.Sequence,4_48,2023-11-01T08:12:29.005Z,,0,,,6205.211999809253,completion,,,,,false,,,,428107.69999980927,428107.69999980927,421895.541,421898.2999999523,421902.488,428110.77,8,400,,,
trial,html.Screen,4_49_0,2023-11-01T08:12:33.118Z,,0,1,,4109.729999999981,response,ISIC_0010108.JPG,5,ISIC_9709101.JPG,ISIC_0010108.JPG,false,1,keypress(m),500,432220.69999980927,432220.5,428103.791,428107.7999999523,428110.77,432229.495,8,400,50,,ISIC_9709101.JPG
break,html.Screen,4_49_1,2023-11-01T08:12:43.120Z,,0,,,9999.237000000023,timeout,,,,,false,,,,442222.19999980927,442221.8,432214.897,432220.69999980927,432229.495,442228.732,8,400,,,
break_continue,html.Screen,4_49_2,2023-11-01T08:12:44.096Z,,0,,,965.967999809247,response,,,,,false,continue,keypress(Space),,443198.39999985695,443194.69999980927,442221.8,442222.19999980927,442228.732,443200.949,8,400,,,
sequence,flow.Sequence,4_49,2023-11-01T08:12:44.096Z,,0,,,15083.929999809247,completion,,,,,false,,,,443198.5,443194.69999980927,428103.791,428107.7999999523,428110.77,443200.949,8,400,,,
trial,html.Screen,4_50_0,2023-11-01T08:12:47.553Z,,0,2,,3454.350999952294,response,ISIC_4961708.JPG,5,ISIC_8909545.JPG,ISIC_4961708.JPG,false,1,keypress(m),500,446655.39999985695,446655.2999999523,443193.965,443198.59999990463,443200.949,446659.264,8,400,1,,ISIC_8909545.JPG
break,html.Screen,4_50_1,2023-11-01T08:12:47.553Z,,0,,,NaN,,,,,,false,,,,446655.7999999523,446655.7999999523,,446655.5,,446659.264,8,400,,,
break_continue,html.Screen,4_50_2,2023-11-01T08:12:47.553Z,,0,,,NaN,,,,,,false,,,,446656,446656,,446655.89999985695,,446659.264,8,400,,,
sequence,flow.Sequence,4_50,2023-11-01T08:12:47.553Z,,0,,,3455.0509999999776,completion,,,,,false,,,,446656.09999990463,446656,443193.965,443198.5,443200.949,446659.264,8,400,,,
trial,html.Screen,4_51_0,2023-11-01T08:12:51.043Z,,0,2,,3486.2359999999753,response,ISIC_0055367.JPG,4,ISIC_9815788.JPG,ISIC_0055367.JPG,false,1,keypress(m),500,450145.69999980927,450145.5,446652.285,446656.09999990463,446659.264,450152.294,8,400,2,,ISIC_9815788.JPG
break,html.Screen,4_51_1,2023-11-01T08:12:51.044Z,,0,,,NaN,,,,,,false,,,,450146.2999999523,450146.19999980927,,450145.89999985695,,450152.294,8,400,,,
break_continue,html.Screen,4_51_2,2023-11-01T08:12:51.044Z,,0,,,NaN,,,,,,false,,,,450146.5,450146.5,,450146.2999999523,,450152.294,8,400,,,
sequence,flow.Sequence,4_51,2023-11-01T08:12:51.044Z,,0,,,3487.2359999999753,completion,,,,,false,,,,450146.5,450146.5,446652.285,446656.09999990463,446659.264,450152.294,8,400,,,
trial,html.Screen,4_52_0,2023-11-01T08:12:55.765Z,,0,2,,4715.505999952322,response,ISIC_3295750.JPG,5,ISIC_0046729.JPG,ISIC_3295750.JPG,false,1,keypress(m),500,454868,454867.7999999523,450145.313,450146.59999990463,450152.294,454874.482,8,400,3,,ISIC_0046729.JPG
break,html.Screen,4_52_1,2023-11-01T08:12:55.766Z,,0,,,NaN,,,,,,false,,,,454868.5,454868.5,,454868.19999980927,,454874.482,8,400,,,
break_continue,html.Screen,4_52_2,2023-11-01T08:12:55.766Z,,0,,,NaN,,,,,,false,,,,454868.59999990463,454868.59999990463,,454868.59999990463,,454874.482,8,400,,,
sequence,flow.Sequence,4_52,2023-11-01T08:12:55.766Z,,0,,,4716.305999904638,completion,,,,,false,,,,454868.69999980927,454868.59999990463,450145.313,450146.59999990463,450152.294,454874.482,8,400,,,
trial,html.Screen,4_53_0,2023-11-01T08:13:02.103Z,,0,2,,6331.017999999982,response,ISIC_0030974.JPG,4,ISIC_7487840.JPG,ISIC_0030974.JPG,false,1,keypress(m),500,461205.69999980927,461205.5,454867.513,454868.7999999523,454874.482,461207.773,8,400,4,,ISIC_7487840.JPG
break,html.Screen,4_53_1,2023-11-01T08:13:02.104Z,,0,,,NaN,,,,,,false,,,,461206.09999990463,461206.09999990463,,461205.7999999523,,461207.773,8,400,,,
break_continue,html.Screen,4_53_2,2023-11-01T08:13:02.104Z,,0,,,NaN,,,,,,false,,,,461206.2999999523,461206.2999999523,,461206.09999990463,,461207.773,8,400,,,
sequence,flow.Sequence,4_53,2023-11-01T08:13:02.104Z,,0,,,6331.817999952298,completion,,,,,false,,,,461206.2999999523,461206.2999999523,454867.513,454868.7999999523,454874.482,461207.773,8,400,,,
trial,html.Screen,4_54_0,2023-11-01T08:13:06.233Z,,0,2,,4127.52699995233,response,ISIC_3312201.JPG,4,ISIC_6101007.JPG,ISIC_6101007.JPG,false,0,keypress(z),500,465335.39999985695,465335.2999999523,461200.818,461206.39999985695,461207.773,465339.698,8,400,5,,ISIC_3312201.JPG
break,html.Screen,4_54_1,2023-11-01T08:13:06.233Z,,0,,,NaN,,,,,,false,,,,465335.89999985695,465335.7999999523,,465335.5,,465339.698,8,400,,,
break_continue,html.Screen,4_54_2,2023-11-01T08:13:06.234Z,,0,,,NaN,,,,,,false,,,,465336.09999990463,465336.09999990463,,465336,,465339.698,8,400,,,
sequence,flow.Sequence,4_54,2023-11-01T08:13:06.234Z,,0,,,4128.326999904646,completion,,,,,false,,,,465336.19999980927,465336.09999990463,461200.818,461206.39999985695,461207.773,465339.698,8,400,,,
trial,html.Screen,4_55_0,2023-11-01T08:13:09.947Z,,0,2,,3709.9019999046577,response,ISIC_5907931.JPG,5,ISIC_0033619.JPG,ISIC_0033619.JPG,false,0,keypress(z),500,469049.69999980927,469049.59999990463,465332.708,465336.19999980927,465339.698,469054.945,8,400,6,,ISIC_5907931.JPG
break,html.Screen,4_55_1,2023-11-01T08:13:09.948Z,,0,,,NaN,,,,,,false,,,,469050.19999980927,469050.09999990463,,469049.89999985695,,469054.945,8,400,,,
break_continue,html.Screen,4_55_2,2023-11-01T08:13:09.948Z,,0,,,NaN,,,,,,false,,,,469050.2999999523,469050.2999999523,,469050.2999999523,,469054.945,8,400,,,
sequence,flow.Sequence,4_55,2023-11-01T08:13:09.948Z,,0,,,3710.6019999523414,completion,,,,,false,,,,469050.39999985695,469050.2999999523,465332.708,465336.19999980927,465339.698,469054.945,8,400,,,
trial,html.Screen,4_56_0,2023-11-01T08:13:14.109Z,,0,2,,4156.454999856942,response,ISIC_6174156.JPG,4,ISIC_4943797.JPG,ISIC_6174156.JPG,false,1,keypress(m),500,473211.59999990463,473211.39999985695,469047.97,469050.39999985695,469054.945,473214.632,8,400,7,,ISIC_4943797.JPG
break,html.Screen,4_56_1,2023-11-01T08:13:14.109Z,,0,,,NaN,,,,,,false,,,,473212,473211.89999985695,,473211.69999980927,,473214.632,8,400,,,
break_continue,html.Screen,4_56_2,2023-11-01T08:13:14.110Z,,0,,,NaN,,,,,,false,,,,473212.09999990463,473212.09999990463,,473212,,473214.632,8,400,,,
sequence,flow.Sequence,4_56,2023-11-01T08:13:14.110Z,,0,,,4157.154999904626,completion,,,,,false,,,,473212.19999980927,473212.09999990463,469047.97,469050.39999985695,469054.945,473214.632,8,400,,,
trial,html.Screen,4_57_0,2023-11-01T08:13:18.831Z,,0,2,,4718.868000000017,response,ISIC_2245069.JPG,4,ISIC_7409889.JPG,ISIC_2245069.JPG,false,1,keypress(m),500,477933.69999980927,477933.5,473207.676,473212.2999999523,473214.632,477936.838,8,400,8,,ISIC_7409889.JPG
break,html.Screen,4_57_1,2023-11-01T08:13:18.832Z,,0,,,NaN,,,,,,false,,,,477934.09999990463,477934,,477933.7999999523,,477936.838,8,400,,,
break_continue,html.Screen,4_57_2,2023-11-01T08:13:18.832Z,,0,,,NaN,,,,,,false,,,,477934.2999999523,477934.19999980927,,477934.19999980927,,477936.838,8,400,,,
sequence,flow.Sequence,4_57,2023-11-01T08:13:18.832Z,,0,,,4719.567999809282,completion,,,,,false,,,,477934.39999985695,477934.19999980927,473207.676,473212.2999999523,473214.632,477936.838,8,400,,,
trial,html.Screen,4_58_0,2023-11-01T08:13:25.713Z,,0,2,,6878.861999809276,response,ISIC_7503950.JPG,5,ISIC_5520533.JPG,ISIC_7503950.JPG,false,1,keypress(m),500,484815.7999999523,484815.69999980927,477929.849,477934.5,477936.838,484818.732,8,400,9,,ISIC_5520533.JPG
break,html.Screen,4_58_1,2023-11-01T08:13:25.714Z,,0,,,NaN,,,,,,false,,,,484816.19999980927,484816.19999980927,,484815.89999985695,,484818.732,8,400,,,
break_continue,html.Screen,4_58_2,2023-11-01T08:13:25.714Z,,0,,,NaN,,,,,,false,,,,484816.5,484816.5,,484816.2999999523,,484818.732,8,400,,,
sequence,flow.Sequence,4_58,2023-11-01T08:13:25.714Z,,0,,,6879.662000000011,completion,,,,,false,,,,484816.59999990463,484816.5,477929.849,477934.39999985695,477936.838,484818.732,8,400,,,
trial,html.Screen,4_59_0,2023-11-01T08:13:31.956Z,,0,2,,6239.367999904614,response,ISIC_2563568.JPG,5,ISIC_5240648.JPG,ISIC_5240648.JPG,false,0,keypress(z),500,491058.09999990463,491058.09999990463,484811.762,484816.69999980927,484818.732,491061.747,8,400,10,,ISIC_2563568.JPG
break,html.Screen,4_59_1,2023-11-01T08:13:31.956Z,,0,,,NaN,,,,,,false,,,,491058.59999990463,491058.5,,491058.2999999523,,491061.747,8,400,,,
break_continue,html.Screen,4_59_2,2023-11-01T08:13:31.956Z,,0,,,NaN,,,,,,false,,,,491058.7999999523,491058.69999980927,,491058.59999990463,,491061.747,8,400,,,
sequence,flow.Sequence,4_59,2023-11-01T08:13:31.956Z,,0,,,6239.967999809247,completion,,,,,false,,,,491058.7999999523,491058.69999980927,484811.762,484816.69999980927,484818.732,491061.747,8,400,,,
trial,html.Screen,4_60_0,2023-11-01T08:13:38.742Z,,0,2,,6782.452999809291,response,ISIC_7672106.JPG,4,ISIC_9799596.JPG,ISIC_9799596.JPG,false,0,keypress(z),500,497844.39999985695,497844.19999980927,491054.773,491058.89999985695,491061.747,497846.405,8,400,11,,ISIC_7672106.JPG
break,html.Screen,4_60_1,2023-11-01T08:13:38.742Z,,0,,,NaN,,,,,,false,,,,497844.7999999523,497844.69999980927,,497844.5,,497846.405,8,400,,,
break_continue,html.Screen,4_60_2,2023-11-01T08:13:38.742Z,,0,,,NaN,,,,,,false,,,,497845,497844.89999985695,,497844.7999999523,,497846.405,8,400,,,
sequence,flow.Sequence,4_60,2023-11-01T08:13:38.742Z,,0,,,6783.152999856975,completion,,,,,false,,,,497845,497844.89999985695,491054.773,491058.89999985695,491061.747,497846.405,8,400,,,
trial,html.Screen,4_61_0,2023-11-01T08:13:47.848Z,,0,2,,9103.794999809237,response,ISIC_0000462.JPG,4,ISIC_0034100.JPG,ISIC_0000462.JPG,false,1,keypress(m),500,506950.39999985695,506950.19999980927,497839.444,497845,497846.405,506957.472,8,400,12,,ISIC_0034100.JPG
break,html.Screen,4_61_1,2023-11-01T08:13:47.848Z,,0,,,NaN,,,,,,false,,,,506950.7999999523,506950.7999999523,,506950.5,,506957.472,8,400,,,
break_continue,html.Screen,4_61_2,2023-11-01T08:13:47.848Z,,0,,,NaN,,,,,,false,,,,506951,506951,,506950.89999985695,,506957.472,8,400,,,
sequence,flow.Sequence,4_61,2023-11-01T08:13:47.848Z,,0,,,9104.594999999972,completion,,,,,false,,,,506951.09999990463,506951,497839.444,497845,497846.405,506957.472,8,400,,,
trial,html.Screen,4_62_0,2023-11-01T08:13:52.010Z,,0,2,,4155.027999999991,response,ISIC_0030695.JPG,4,ISIC_7840728.JPG,ISIC_0030695.JPG,false,1,keypress(m),500,511112.69999980927,511112.5,506950.49,506951.19999980927,506957.472,511117.155,8,400,13,,ISIC_7840728.JPG
break,html.Screen,4_62_1,2023-11-01T08:13:52.010Z,,0,,,NaN,,,,,,false,,,,511113.09999990463,511113,,511112.69999980927,,511117.155,8,400,,,
break_continue,html.Screen,4_62_2,2023-11-01T08:13:52.011Z,,0,,,NaN,,,,,,false,,,,511113.19999980927,511113.19999980927,,511113.09999990463,,511117.155,8,400,,,
sequence,flow.Sequence,4_62,2023-11-01T08:13:52.011Z,,0,,,4155.727999809256,completion,,,,,false,,,,511113.2999999523,511113.19999980927,506950.49,506951.19999980927,506957.472,511117.155,8,400,,,
trial,html.Screen,4_63_0,2023-11-01T08:13:55.308Z,,0,2,,3293.4449999046046,response,ISIC_8086526.JPG,4,ISIC_3609379.JPG,ISIC_8086526.JPG,false,1,keypress(m),500,514410.69999980927,514410.59999990463,511110.18,511113.2999999523,511117.155,514415.752,8,400,14,,ISIC_3609379.JPG
break,html.Screen,4_63_1,2023-11-01T08:13:55.308Z,,0,,,NaN,,,,,,false,,,,514411,514411,,514410.69999980927,,514415.752,8,400,,,
break_continue,html.Screen,4_63_2,2023-11-01T08:13:55.309Z,,0,,,NaN,,,,,,false,,,,514411.2999999523,514411.19999980927,,514411.09999990463,,514415.752,8,400,,,
sequence,flow.Sequence,4_63,2023-11-01T08:13:55.309Z,,0,,,3294.044999809237,completion,,,,,false,,,,514411.2999999523,514411.19999980927,511110.18,511113.2999999523,511117.155,514415.752,8,400,,,
trial,html.Screen,4_64_0,2023-11-01T08:14:02.078Z,,0,2,,6764.347999904654,response,ISIC_0025812.JPG,4,ISIC_0033318.JPG,ISIC_0033318.JPG,false,0,keypress(z),500,521180.2999999523,521180.09999990463,514408.779,514411.39999985695,514415.752,521186.552,8,400,15,,ISIC_0025812.JPG
break,html.Screen,4_64_1,2023-11-01T08:14:02.079Z,,0,,,NaN,,,,,,false,,,,521181.39999985695,521180.7999999523,,521180.39999985695,,521186.552,8,400,,,
break_continue,html.Screen,4_64_2,2023-11-01T08:14:02.079Z,,0,,,NaN,,,,,,false,,,,521181.5,521181.5,,521181.39999985695,,521186.552,8,400,,,
sequence,flow.Sequence,4_64,2023-11-01T08:14:02.079Z,,0,,,6765.748000000021,completion,,,,,false,,,,521181.59999990463,521181.5,514408.779,514411.39999985695,514415.752,521186.552,8,400,,,
trial,html.Screen,4_65_0,2023-11-01T08:14:09.104Z,,0,2,,7019.947999999975,response,ISIC_4249893.JPG,5,ISIC_1258763.JPG,ISIC_1258763.JPG,false,0,keypress(z),500,528206.5999999046,528206.5,521179.584,521181.59999990463,521186.552,528214.384,8,400,16,,ISIC_4249893.JPG
break,html.Screen,4_65_1,2023-11-01T08:14:09.104Z,,0,,,NaN,,,,,,false,,,,528207.0999999046,528207,,528206.6999998093,,528214.384,8,400,,,
break_continue,html.Screen,4_65_2,2023-11-01T08:14:09.105Z,,0,,,NaN,,,,,,false,,,,528207.0999999046,528207.0999999046,,528207.0999999046,,528214.384,8,400,,,
sequence,flow.Sequence,4_65,2023-11-01T08:14:09.105Z,,0,,,7020.547999904607,completion,,,,,false,,,,528207.1999998093,528207.0999999046,521179.584,521181.59999990463,521186.552,528214.384,8,400,,,
trial,html.Screen,4_66_0,2023-11-01T08:14:13.569Z,,0,2,,4457.515999856987,response,ISIC_0011012.JPG,5,ISIC_0005854.JPG,ISIC_0011012.JPG,false,1,keypress(m),500,532672,532671.899999857,528200.354,528207.1999998093,528214.384,532679.829,8,400,17,,ISIC_0005854.JPG
break,html.Screen,4_66_1,2023-11-01T08:14:13.570Z,,0,,,NaN,,,,,,false,,,,532672.399999857,532672.399999857,,532672.0999999046,,532679.829,8,400,,,
break_continue,html.Screen,4_66_2,2023-11-01T08:14:13.570Z,,0,,,NaN,,,,,,false,,,,532672.5999999046,532672.5,,532672.5,,532679.829,8,400,,,
sequence,flow.Sequence,4_66,2023-11-01T08:14:13.570Z,,0,,,4458.116000000038,completion,,,,,false,,,,532672.5999999046,532672.5,528200.354,528207.1999998093,528214.384,532679.829,8,400,,,
trial,html.Screen,4_67_0,2023-11-01T08:14:20.003Z,,0,2,,6426.070999856922,response,ISIC_0982757.JPG,5,ISIC_1735204.JPG,ISIC_1735204.JPG,false,0,keypress(z),500,539106,539105.899999857,532665.602,532672.6999998093,532679.829,539110.007,8,400,18,,ISIC_0982757.JPG
break,html.Screen,4_67_1,2023-11-01T08:14:20.004Z,,0,,,NaN,,,,,,false,,,,539106.5999999046,539106.5,,539106.0999999046,,539110.007,8,400,,,
break_continue,html.Screen,4_67_2,2023-11-01T08:14:20.004Z,,0,,,NaN,,,,,,false,,,,539106.7999999523,539106.6999998093,,539106.5999999046,,539110.007,8,400,,,
sequence,flow.Sequence,4_67,2023-11-01T08:14:20.004Z,,0,,,6426.870999809238,completion,,,,,false,,,,539106.7999999523,539106.6999998093,532665.602,532672.6999998093,532679.829,539110.007,8,400,,,
trial,html.Screen,4_68_0,2023-11-01T08:14:24.469Z,,0,2,,4461.493000000017,response,ISIC_6945634.JPG,5,ISIC_9495211.JPG,ISIC_9495211.JPG,false,0,keypress(z),500,543571.6999998093,543571.5,539103.067,539106.899999857,539110.007,543575.32,8,400,19,,ISIC_6945634.JPG
break,html.Screen,4_68_1,2023-11-01T08:14:24.470Z,,0,,,NaN,,,,,,false,,,,543572.1999998093,543572.0999999046,,543571.7999999523,,543575.32,8,400,,,
break_continue,html.Screen,4_68_2,2023-11-01T08:14:24.470Z,,0,,,NaN,,,,,,false,,,,543572.2999999523,543572.2999999523,,543572.1999998093,,543575.32,8,400,,,
sequence,flow.Sequence,4_68,2023-11-01T08:14:24.470Z,,0,,,4462.292999952333,completion,,,,,false,,,,543572.399999857,543572.2999999523,539103.067,539106.899999857,539110.007,543575.32,8,400,,,
trial,html.Screen,4_69_0,2023-11-01T08:14:27.512Z,,0,2,,3038.9799999523675,response,ISIC_0011099.JPG,4,ISIC_2681497.JPG,ISIC_0011099.JPG,false,1,keypress(m),500,546614.5,546614.2999999523,543568.296,543572.5,543575.32,546616.909,8,400,20,,ISIC_2681497.JPG
break,html.Screen,4_69_1,2023-11-01T08:14:27.512Z,,0,,,NaN,,,,,,false,,,,546614.7999999523,546614.7999999523,,546614.5,,546616.909,8,400,,,
break_continue,html.Screen,4_69_2,2023-11-01T08:14:27.512Z,,0,,,NaN,,,,,,false,,,,546614.899999857,546614.899999857,,546614.899999857,,546616.909,8,400,,,
sequence,flow.Sequence,4_69,2023-11-01T08:14:27.512Z,,0,,,3039.579999857,completion,,,,,false,,,,546615,546614.899999857,543568.296,543572.399999857,543575.32,546616.909,8,400,,,
trial,html.Screen,4_70_0,2023-11-01T08:14:30.553Z,,0,2,,3038.6909999046475,response,ISIC_3183782.JPG,4,ISIC_0024805.JPG,ISIC_0024805.JPG,false,0,keypress(z),500,549655.6999998093,549655.5999999046,546609.938,546615.0999999046,546616.909,549658.584,8,400,21,,ISIC_3183782.JPG
break,html.Screen,4_70_1,2023-11-01T08:14:30.553Z,,0,,,NaN,,,,,,false,,,,549656.1999998093,549656,,549655.7999999523,,549658.584,8,400,,,
break_continue,html.Screen,4_70_2,2023-11-01T08:14:30.554Z,,0,,,NaN,,,,,,false,,,,549656.2999999523,549656.2999999523,,549656.1999998093,,549658.584,8,400,,,
sequence,flow.Sequence,4_70,2023-11-01T08:14:30.554Z,,0,,,3039.390999952331,completion,,,,,false,,,,549656.2999999523,549656.2999999523,546609.938,546615.0999999046,546616.909,549658.584,8,400,,,
trial,html.Screen,4_71_0,2023-11-01T08:14:34.235Z,,0,2,,3679.015999904601,response,ISIC_0034170.JPG,5,ISIC_5852396.JPG,ISIC_0034170.JPG,false,1,keypress(m),500,553337.6999998093,553337.5999999046,549651.6,549656.2999999523,549658.584,553346.487,8,400,22,,ISIC_5852396.JPG
break,html.Screen,4_71_1,2023-11-01T08:14:34.236Z,,0,,,NaN,,,,,,false,,,,553338.1999998093,553338.0999999046,,553337.899999857,,553346.487,8,400,,,
break_continue,html.Screen,4_71_2,2023-11-01T08:14:34.236Z,,0,,,NaN,,,,,,false,,,,553338.2999999523,553338.2999999523,,553338.1999998093,,553346.487,8,400,,,
sequence,flow.Sequence,4_71,2023-11-01T08:14:34.236Z,,0,,,3679.7159999522846,completion,,,,,false,,,,553338.399999857,553338.2999999523,549651.6,549656.2999999523,549658.584,553346.487,8,400,,,
trial,html.Screen,4_72_0,2023-11-01T08:14:37.549Z,,0,2,,3305.112999904668,response,ISIC_1285870.JPG,4,ISIC_0073075.JPG,ISIC_0073075.JPG,false,0,keypress(z),500,556651.7999999523,556651.5999999046,553332.119,553338.399999857,553346.487,556658.531,8,400,23,,ISIC_1285870.JPG
break,html.Screen,4_72_1,2023-11-01T08:14:37.550Z,,0,,,NaN,,,,,,false,,,,556652.399999857,556652.399999857,,556651.899999857,,556658.531,8,400,,,
break_continue,html.Screen,4_72_2,2023-11-01T08:14:37.550Z,,0,,,NaN,,,,,,false,,,,556652.5999999046,556652.5999999046,,556652.5,,556658.531,8,400,,,
sequence,flow.Sequence,4_72,2023-11-01T08:14:37.550Z,,0,,,3306.112999904668,completion,,,,,false,,,,556652.6999998093,556652.5999999046,553332.119,553338.399999857,553346.487,556658.531,8,400,,,
trial,html.Screen,4_73_0,2023-11-01T08:14:43.216Z,,0,2,,5659.768999952357,response,ISIC_4566439.JPG,4,ISIC_1026382.JPG,ISIC_1026382.JPG,false,0,keypress(z),500,562318.5,562318.2999999523,556651.602,556652.7999999523,556658.531,562325.126,8,400,24,,ISIC_4566439.JPG
break,html.Screen,4_73_1,2023-11-01T08:14:43.216Z,,0,,,NaN,,,,,,false,,,,562319,562318.899999857,,562318.5999999046,,562325.126,8,400,,,
break_continue,html.Screen,4_73_2,2023-11-01T08:14:43.217Z,,0,,,NaN,,,,,,false,,,,562319.0999999046,562319.0999999046,,562319,,562325.126,8,400,,,
sequence,flow.Sequence,4_73,2023-11-01T08:14:43.217Z,,0,,,5660.568999904674,completion,,,,,false,,,,562319.1999998093,562319.0999999046,556651.602,556652.7999999523,556658.531,562325.126,8,400,,,
trial,html.Screen,4_74_0,2023-11-01T08:14:47.698Z,,0,2,,4475.073999809218,response,ISIC_0046623.JPG,5,ISIC_3059367.JPG,ISIC_0046623.JPG,false,1,keypress(m),500,566800.2999999523,566800.1999998093,562318.166,562319.1999998093,562325.126,566804.281,8,400,25,,ISIC_3059367.JPG
break,html.Screen,4_74_1,2023-11-01T08:14:47.698Z,,0,,,NaN,,,,,,false,,,,566800.7999999523,566800.6999998093,,566800.5,,566804.281,8,400,,,
break_continue,html.Screen,4_74_2,2023-11-01T08:14:47.698Z,,0,,,NaN,,,,,,false,,,,566801,566800.899999857,,566800.7999999523,,566804.281,8,400,,,
sequence,flow.Sequence,4_74,2023-11-01T08:14:47.698Z,,0,,,4475.773999856901,completion,,,,,false,,,,566801,566800.899999857,562318.166,562319.1999998093,562325.126,566804.281,8,400,,,
trial,html.Screen,4_75_0,2023-11-01T08:14:51.987Z,,0,2,,4285.318999904674,response,ISIC_6710082.JPG,4,ISIC_2222879.JPG,ISIC_2222879.JPG,false,0,keypress(z),500,571089.7999999523,571089.5999999046,566797.307,566801,566804.281,571095.903,8,400,26,,ISIC_6710082.JPG
break,html.Screen,4_75_1,2023-11-01T08:14:51.988Z,,0,,,NaN,,,,,,false,,,,571090.1999998093,571090.0999999046,,571089.899999857,,571095.903,8,400,,,
break_continue,html.Screen,4_75_2,2023-11-01T08:14:51.988Z,,0,,,NaN,,,,,,false,,,,571090.2999999523,571090.2999999523,,571090.1999998093,,571095.903,8,400,,,
sequence,flow.Sequence,4_75,2023-11-01T08:14:51.988Z,,0,,,4286.018999952357,completion,,,,,false,,,,571090.399999857,571090.2999999523,566797.307,566801,566804.281,571095.903,8,400,,,
trial,html.Screen,4_76_0,2023-11-01T08:14:54.949Z,,0,2,,2955.696999904583,response,ISIC_0010194.JPG,4,ISIC_3777798.JPG,ISIC_0010194.JPG,false,1,keypress(m),500,574051.6999998093,574051.5999999046,571088.951,571090.5,571095.903,574054.253,8,400,27,,ISIC_3777798.JPG
break,html.Screen,4_76_1,2023-11-01T08:14:54.950Z,,0,,,NaN,,,,,,false,,,,574052.1999998093,574052.0999999046,,574051.7999999523,,574054.253,8,400,,,
break_continue,html.Screen,4_76_2,2023-11-01T08:14:54.950Z,,0,,,NaN,,,,,,false,,,,574052.399999857,574052.399999857,,574052.1999998093,,574054.253,8,400,,,
sequence,flow.Sequence,4_76,2023-11-01T08:14:54.950Z,,0,,,2956.4969998568995,completion,,,,,false,,,,574052.5,574052.399999857,571088.951,571090.5,571095.903,574054.253,8,400,,,
trial,html.Screen,4_77_0,2023-11-01T08:15:00.950Z,,0,2,,5998.646999856923,response,ISIC_6383486.JPG,5,ISIC_6002694.JPG,ISIC_6002694.JPG,false,0,keypress(z),500,580053.0999999046,580052.899999857,574047.248,574052.5,574054.253,580061.885,8,400,28,,ISIC_6383486.JPG
break,html.Screen,4_77_1,2023-11-01T08:15:00.951Z,,0,,,NaN,,,,,,false,,,,580053.5,580053.2999999523,,580053.0999999046,,580061.885,8,400,,,
break_continue,html.Screen,4_77_2,2023-11-01T08:15:00.951Z,,0,,,NaN,,,,,,false,,,,580053.5999999046,580053.5999999046,,580053.5,,580061.885,8,400,,,
sequence,flow.Sequence,4_77,2023-11-01T08:15:00.951Z,,0,,,5999.3469999046065,completion,,,,,false,,,,580053.6999998093,580053.5999999046,574047.248,574052.5,574054.253,580061.885,8,400,,,
trial,html.Screen,4_78_0,2023-11-01T08:15:07.528Z,,0,2,,6568.214999904623,response,ISIC_0058823.JPG,5,ISIC_0011086.JPG,ISIC_0011086.JPG,false,0,keypress(z),500,586630.2999999523,586630.0999999046,580047.226,580053.6999998093,580061.885,586637.47,8,400,29,,ISIC_0058823.JPG
break,html.Screen,4_78_1,2023-11-01T08:15:07.528Z,,0,,,NaN,,,,,,false,,,,586630.6999998093,586630.6999998093,,586630.399999857,,586637.47,8,400,,,
break_continue,html.Screen,4_78_2,2023-11-01T08:15:07.528Z,,0,,,NaN,,,,,,false,,,,586630.7999999523,586630.7999999523,,586630.7999999523,,586637.47,8,400,,,
sequence,flow.Sequence,4_78,2023-11-01T08:15:07.528Z,,0,,,6568.914999952307,completion,,,,,false,,,,586630.899999857,586630.7999999523,580047.226,580053.6999998093,580061.885,586637.47,8,400,,,
trial,html.Screen,4_79_0,2023-11-01T08:15:10.906Z,,0,2,,3370.829999952344,response,ISIC_8009880.JPG,4,ISIC_6099476.JPG,ISIC_6099476.JPG,false,0,keypress(z),500,590008.399999857,590008.2999999523,586630.506,586631,586637.47,590019.408,8,400,30,,ISIC_8009880.JPG
break,html.Screen,4_79_1,2023-11-01T08:15:10.906Z,,0,,,NaN,,,,,,false,,,,590008.6999998093,590008.6999998093,,590008.399999857,,590019.408,8,400,,,
break_continue,html.Screen,4_79_2,2023-11-01T08:15:10.906Z,,0,,,NaN,,,,,,false,,,,590008.899999857,590008.899999857,,590008.7999999523,,590019.408,8,400,,,
sequence,flow.Sequence,4_79,2023-11-01T08:15:10.906Z,,0,,,3371.429999856977,completion,,,,,false,,,,590009,590008.899999857,586630.506,586630.899999857,586637.47,590019.408,8,400,,,
trial,html.Screen,4_80_0,2023-11-01T08:15:18.268Z,,0,2,,7350.691999904579,response,ISIC_1619470.JPG,4,ISIC_0059501.JPG,ISIC_0059501.JPG,false,0,keypress(z),500,597370.1999998093,597370.0999999046,590012.455,590009,590019.408,597373.535,8,400,31,,ISIC_1619470.JPG
break,html.Screen,4_80_1,2023-11-01T08:15:18.268Z,,0,,,NaN,,,,,,false,,,,597370.5999999046,597370.5,,597370.2999999523,,597373.535,8,400,,,
break_continue,html.Screen,4_80_2,2023-11-01T08:15:18.268Z,,0,,,NaN,,,,,,false,,,,597370.7999999523,597370.6999998093,,597370.5999999046,,597373.535,8,400,,,
sequence,flow.Sequence,4_80,2023-11-01T08:15:18.268Z,,0,,,7351.291999809211,completion,,,,,false,,,,597370.7999999523,597370.6999998093,590012.455,590009,590019.408,597373.535,8,400,,,
trial,html.Screen,4_81_0,2023-11-01T08:15:25.357Z,,0,2,,7085.864999856916,response,ISIC_0012064.JPG,5,ISIC_0000283.JPG,ISIC_0000283.JPG,false,0,keypress(z),500,604459.5999999046,604459.399999857,597366.536,597370.899999857,597373.535,604463.729,8,400,32,,ISIC_0012064.JPG
break,html.Screen,4_81_1,2023-11-01T08:15:25.357Z,,0,,,NaN,,,,,,false,,,,604460,604460,,604459.5999999046,,604463.729,8,400,,,
break_continue,html.Screen,4_81_2,2023-11-01T08:15:25.358Z,,0,,,NaN,,,,,,false,,,,604460.1999998093,604460.1999998093,,604460.0999999046,,604463.729,8,400,,,
sequence,flow.Sequence,4_81,2023-11-01T08:15:25.358Z,,0,,,7086.6649998092325,completion,,,,,false,,,,604460.1999998093,604460.1999998093,597366.536,597370.899999857,597373.535,604463.729,8,400,,,
trial,html.Screen,4_82_0,2023-11-01T08:15:29.647Z,,0,2,,4285.470999809215,response,ISIC_0000546.JPG,4,ISIC_0026497.JPG,ISIC_0026497.JPG,false,0,keypress(z),500,608749.2999999523,608749.1999998093,604456.769,604460.2999999523,604463.729,608755.399,8,400,33,,ISIC_0000546.JPG
break,html.Screen,4_82_1,2023-11-01T08:15:29.647Z,,0,,,NaN,,,,,,false,,,,608749.6999998093,608749.6999998093,,608749.399999857,,608755.399,8,400,,,
break_continue,html.Screen,4_82_2,2023-11-01T08:15:29.647Z,,0,,,NaN,,,,,,false,,,,608749.7999999523,608749.7999999523,,608749.6999998093,,608755.399,8,400,,,
sequence,flow.Sequence,4_82,2023-11-01T08:15:29.647Z,,0,,,4286.070999952266,completion,,,,,false,,,,608749.899999857,608749.7999999523,604456.769,604460.1999998093,604463.729,608755.399,8,400,,,
trial,html.Screen,4_83_0,2023-11-01T08:15:33.456Z,,0,2,,3803.3009998092894,response,ISIC_5857303.JPG,4,ISIC_0029244.JPG,ISIC_0029244.JPG,false,0,keypress(z),500,612558.7999999523,612558.6999998093,608748.413,608750,608755.399,612560.901,8,400,34,,ISIC_5857303.JPG
break,html.Screen,4_83_1,2023-11-01T08:15:33.457Z,,0,,,NaN,,,,,,false,,,,612559.1999998093,612559.1999998093,,612558.7999999523,,612560.901,8,400,,,
break_continue,html.Screen,4_83_2,2023-11-01T08:15:33.457Z,,0,,,NaN,,,,,,false,,,,612559.399999857,612559.2999999523,,612559.2999999523,,612560.901,8,400,,,
sequence,flow.Sequence,4_83,2023-11-01T08:15:33.457Z,,0,,,3803.9009999523405,completion,,,,,false,,,,612559.399999857,612559.2999999523,608748.413,608749.899999857,608755.399,612560.901,8,400,,,
trial,html.Screen,4_84_0,2023-11-01T08:15:36.882Z,,0,2,,3423.7989998093108,response,ISIC_0013674.JPG,4,ISIC_0032684.JPG,ISIC_0032684.JPG,false,0,keypress(z),500,615984.899999857,615984.6999998093,612553.954,612559.5,612560.901,615991.452,8,400,35,,ISIC_0013674.JPG
break,html.Screen,4_84_1,2023-11-01T08:15:36.883Z,,0,,,NaN,,,,,,false,,,,615985.5,615985.399999857,,615985,,615991.452,8,400,,,
break_continue,html.Screen,4_84_2,2023-11-01T08:15:36.883Z,,0,,,NaN,,,,,,false,,,,615985.7999999523,615985.6999998093,,615985.5,,615991.452,8,400,,,
sequence,flow.Sequence,4_84,2023-11-01T08:15:36.883Z,,0,,,3424.7989998093108,completion,,,,,false,,,,615985.7999999523,615985.6999998093,612553.954,612559.5,612560.901,615991.452,8,400,,,
trial,html.Screen,4_85_0,2023-11-01T08:15:40.340Z,,0,2,,3451.4479998569004,response,ISIC_9418196.JPG,5,ISIC_1520897.JPG,ISIC_1520897.JPG,false,0,keypress(z),500,619443.0999999046,619442.899999857,615984.476,615985.7999999523,615991.452,619449.76,8,400,36,,ISIC_9418196.JPG
break,html.Screen,4_85_1,2023-11-01T08:15:40.341Z,,0,,,NaN,,,,,,false,,,,619443.5999999046,619443.399999857,,619443.1999998093,,619449.76,8,400,,,
break_continue,html.Screen,4_85_2,2023-11-01T08:15:40.341Z,,0,,,NaN,,,,,,false,,,,619443.6999998093,619443.5999999046,,619443.5999999046,,619449.76,8,400,,,
sequence,flow.Sequence,4_85,2023-11-01T08:15:40.341Z,,0,,,3452.147999904584,completion,,,,,false,,,,619443.7999999523,619443.5999999046,615984.476,615985.7999999523,615991.452,619449.76,8,400,,,
trial,html.Screen,4_86_0,2023-11-01T08:15:43.943Z,,0,2,,3595.3399999046233,response,ISIC_0028306.JPG,5,ISIC_0013032.JPG,ISIC_0028306.JPG,false,1,keypress(m),500,623045.1999998093,623045.0999999046,619442.773,619443.7999999523,619449.76,623046.946,8,400,37,,ISIC_0013032.JPG
break,html.Screen,4_86_1,2023-11-01T08:15:43.943Z,,0,,,NaN,,,,,,false,,,,623045.5999999046,623045.5,,623045.1999998093,,623046.946,8,400,,,
break_continue,html.Screen,4_86_2,2023-11-01T08:15:43.943Z,,0,,,NaN,,,,,,false,,,,623045.6999998093,623045.6999998093,,623045.6999998093,,623046.946,8,400,,,
sequence,flow.Sequence,4_86,2023-11-01T08:15:43.943Z,,0,,,3595.939999809256,completion,,,,,false,,,,623045.7999999523,623045.6999998093,619442.773,619443.7999999523,619449.76,623046.946,8,400,,,
trial,html.Screen,4_87_0,2023-11-01T08:15:47.385Z,,0,2,,3440.35399995232,response,ISIC_9745562.JPG,4,ISIC_0062114.JPG,ISIC_0062114.JPG,false,0,keypress(z),500,626487.5999999046,626487.2999999523,623039.97,623045.899999857,623046.946,626491.379,8,400,38,,ISIC_9745562.JPG
break,html.Screen,4_87_1,2023-11-01T08:15:47.385Z,,0,,,NaN,,,,,,false,,,,626488,626487.899999857,,626487.5999999046,,626491.379,8,400,,,
break_continue,html.Screen,4_87_2,2023-11-01T08:15:47.385Z,,0,,,NaN,,,,,,false,,,,626488.0999999046,626488,,626488,,626491.379,8,400,,,
sequence,flow.Sequence,4_87,2023-11-01T08:15:47.386Z,,0,,,3441.0540000000037,completion,,,,,false,,,,626488.1999998093,626488,623039.97,623045.899999857,623046.946,626491.379,8,400,,,
trial,html.Screen,4_88_0,2023-11-01T08:15:54.091Z,,0,2,,6702.121000000043,response,ISIC_4613437.JPG,4,ISIC_0062530.JPG,ISIC_4613437.JPG,false,1,keypress(m),500,633193.6999998093,633193.5,626484.398,626488.1999998093,626491.379,633199.662,8,400,39,,ISIC_0062530.JPG
break,html.Screen,4_88_1,2023-11-01T08:15:54.092Z,,0,,,NaN,,,,,,false,,,,633194.1999998093,633194.0999999046,,633193.7999999523,,633199.662,8,400,,,
break_continue,html.Screen,4_88_2,2023-11-01T08:15:54.092Z,,0,,,NaN,,,,,,false,,,,633194.5,633194.399999857,,633194.2999999523,,633199.662,8,400,,,
sequence,flow.Sequence,4_88,2023-11-01T08:15:54.092Z,,0,,,6703.020999856992,completion,,,,,false,,,,633194.5,633194.399999857,626484.398,626488.1999998093,626491.379,633199.662,8,400,,,
trial,html.Screen,4_89_0,2023-11-01T08:16:01.693Z,,0,2,,7595.637999952305,response,ISIC_2054066.JPG,5,ISIC_1068686.JPG,ISIC_1068686.JPG,false,0,keypress(z),500,640795.5999999046,640795.2999999523,633192.706,633194.5999999046,633199.662,640804.282,8,400,40,,ISIC_2054066.JPG
break,html.Screen,4_89_1,2023-11-01T08:16:01.693Z,,0,,,NaN,,,,,,false,,,,640796,640795.899999857,,640795.6999998093,,640804.282,8,400,,,
break_continue,html.Screen,4_89_2,2023-11-01T08:16:01.694Z,,0,,,NaN,,,,,,false,,,,640796.1999998093,640796.0999999046,,640796,,640804.282,8,400,,,
sequence,flow.Sequence,4_89,2023-11-01T08:16:01.694Z,,0,,,7596.437999904621,completion,,,,,false,,,,640796.1999998093,640796.0999999046,633192.706,633194.5999999046,633199.662,640804.282,8,400,,,
trial,html.Screen,4_90_0,2023-11-01T08:16:11.039Z,,0,2,,9337.217999999993,response,ISIC_0062235.JPG,4,ISIC_0033024.JPG,ISIC_0033024.JPG,false,0,keypress(z),500,650141.5,650141.5,640789.853,640796.2999999523,640804.282,650143.986,8,400,41,,ISIC_0062235.JPG
break,html.Screen,4_90_1,2023-11-01T08:16:11.039Z,,0,,,NaN,,,,,,false,,,,650142,650141.899999857,,650141.5999999046,,650143.986,8,400,,,
break_continue,html.Screen,4_90_2,2023-11-01T08:16:11.040Z,,0,,,NaN,,,,,,false,,,,650142.1999998093,650142.1999998093,,650142.0999999046,,650143.986,8,400,,,
sequence,flow.Sequence,4_90,2023-11-01T08:16:11.040Z,,0,,,9337.917999809259,completion,,,,,false,,,,650142.2999999523,650142.1999998093,640789.853,640796.2999999523,640804.282,650143.986,8,400,,,
trial,html.Screen,4_91_0,2023-11-01T08:16:15.169Z,,0,2,,4127.713999809232,response,ISIC_0069891.JPG,4,ISIC_1794249.JPG,ISIC_0069891.JPG,false,1,keypress(m),500,654271.7999999523,654271.6999998093,650137.009,650142.2999999523,650143.986,654275.908,8,400,42,,ISIC_1794249.JPG
break,html.Screen,4_91_1,2023-11-01T08:16:15.170Z,,0,,,NaN,,,,,,false,,,,654272.2999999523,654272.2999999523,,654271.899999857,,654275.908,8,400,,,
break_continue,html.Screen,4_91_2,2023-11-01T08:16:15.170Z,,0,,,NaN,,,,,,false,,,,654272.399999857,654272.399999857,,654272.2999999523,,654275.908,8,400,,,
sequence,flow.Sequence,4_91,2023-11-01T08:16:15.170Z,,0,,,4128.413999856915,completion,,,,,false,,,,654272.5,654272.399999857,650137.009,650142.2999999523,650143.986,654275.908,8,400,,,
trial,html.Screen,4_92_0,2023-11-01T08:16:21.010Z,,0,2,,5837.091999999946,response,ISIC_0026901.JPG,4,ISIC_4856536.JPG,ISIC_0026901.JPG,false,1,keypress(m),500,660113.0999999046,660113,654268.924,654272.5999999046,654275.908,660123.104,8,400,43,,ISIC_4856536.JPG
break,html.Screen,4_92_1,2023-11-01T08:16:21.011Z,,0,,,NaN,,,,,,false,,,,660113.5,660113.399999857,,660113.1999998093,,660123.104,8,400,,,
break_continue,html.Screen,4_92_2,2023-11-01T08:16:21.011Z,,0,,,NaN,,,,,,false,,,,660113.7999999523,660113.6999998093,,660113.5,,660123.104,8,400,,,
sequence,flow.Sequence,4_92,2023-11-01T08:16:21.011Z,,0,,,5837.791999809211,completion,,,,,false,,,,660113.7999999523,660113.6999998093,654268.924,654272.5999999046,654275.908,660123.104,8,400,,,
trial,html.Screen,4_93_0,2023-11-01T08:16:25.460Z,,0,2,,4439.595999809215,response,ISIC_6609379.JPG,4,ISIC_4018813.JPG,ISIC_6609379.JPG,false,1,keypress(m),500,664562.899999857,664562.6999998093,660116.148,660113.899999857,660123.104,664567.493,8,400,44,,ISIC_4018813.JPG
break,html.Screen,4_93_1,2023-11-01T08:16:25.461Z,,0,,,NaN,,,,,,false,,,,664563.1999998093,664563.1999998093,,664562.899999857,,664567.493,8,400,,,
break_continue,html.Screen,4_93_2,2023-11-01T08:16:25.461Z,,0,,,NaN,,,,,,false,,,,664563.399999857,664563.2999999523,,664563.2999999523,,664567.493,8,400,,,
sequence,flow.Sequence,4_93,2023-11-01T08:16:25.461Z,,0,,,4440.195999952266,completion,,,,,false,,,,664563.5,664563.2999999523,660116.148,660113.7999999523,660123.104,664567.493,8,400,,,
trial,html.Screen,4_94_0,2023-11-01T08:16:28.454Z,,0,2,,2989.0069999999832,response,ISIC_0011501.JPG,4,ISIC_7980387.JPG,ISIC_0011501.JPG,false,1,keypress(m),500,667556.6999998093,667556.5,664560.538,664563.5,664567.493,667560.534,8,400,45,,ISIC_7980387.JPG
break,html.Screen,4_94_1,2023-11-01T08:16:28.455Z,,0,,,NaN,,,,,,false,,,,667557.0999999046,667557,,667556.7999999523,,667560.534,8,400,,,
break_continue,html.Screen,4_94_2,2023-11-01T08:16:28.455Z,,0,,,NaN,,,,,,false,,,,667557.1999998093,667557.1999998093,,667557.1999998093,,667560.534,8,400,,,
sequence,flow.Sequence,4_94,2023-11-01T08:16:28.455Z,,0,,,2989.7069998092484,completion,,,,,false,,,,667557.2999999523,667557.1999998093,664560.538,664563.5,664567.493,667560.534,8,400,,,
trial,html.Screen,4_95_0,2023-11-01T08:16:35.416Z,,0,2,,6957.966000000015,response,ISIC_5610222.JPG,4,ISIC_0386664.JPG,ISIC_5610222.JPG,false,1,keypress(m),500,674518.5999999046,674518.5,667553.555,667557.2999999523,667560.534,674525.748,8,400,46,,ISIC_0386664.JPG
break,html.Screen,4_95_1,2023-11-01T08:16:35.416Z,,0,,,NaN,,,,,,false,,,,674519,674518.899999857,,674518.6999998093,,674525.748,8,400,,,
break_continue,html.Screen,4_95_2,2023-11-01T08:16:35.417Z,,0,,,NaN,,,,,,false,,,,674519.1999998093,674519.0999999046,,674519.0999999046,,674525.748,8,400,,,
sequence,flow.Sequence,4_95,2023-11-01T08:16:35.417Z,,0,,,6958.5659999046475,completion,,,,,false,,,,674519.1999998093,674519.0999999046,667553.555,667557.2999999523,667560.534,674525.748,8,400,,,
trial,html.Screen,4_96_0,2023-11-01T08:16:39.722Z,,0,2,,4298.651999856927,response,ISIC_3882374.JPG,4,ISIC_0740449.JPG,ISIC_0740449.JPG,false,0,keypress(z),500,678824.5999999046,678824.399999857,674518.819,674519.1999998093,674525.748,678831.286,8,400,47,,ISIC_3882374.JPG
break,html.Screen,4_96_1,2023-11-01T08:16:39.722Z,,0,,,NaN,,,,,,false,,,,678825,678824.899999857,,678824.6999998093,,678831.286,8,400,,,
break_continue,html.Screen,4_96_2,2023-11-01T08:16:39.723Z,,0,,,NaN,,,,,,false,,,,678825.1999998093,678825.1999998093,,678825,,678831.286,8,400,,,
sequence,flow.Sequence,4_96,2023-11-01T08:16:39.723Z,,0,,,4299.451999809244,completion,,,,,false,,,,678825.2999999523,678825.1999998093,674518.819,674519.1999998093,674525.748,678831.286,8,400,,,
trial,html.Screen,4_97_0,2023-11-01T08:16:45.244Z,,0,2,,5515.4139998093015,response,ISIC_4425766.JPG,5,ISIC_0010380.JPG,ISIC_0010380.JPG,false,0,keypress(z),500,684346.7999999523,684346.6999998093,678824.318,678825.2999999523,678831.286,684352.096,8,400,48,,ISIC_4425766.JPG
break,html.Screen,4_97_1,2023-11-01T08:16:45.245Z,,0,,,NaN,,,,,,false,,,,684347.1999998093,684347.0999999046,,684346.899999857,,684352.096,8,400,,,
break_continue,html.Screen,4_97_2,2023-11-01T08:16:45.245Z,,0,,,NaN,,,,,,false,,,,684347.399999857,684347.399999857,,684347.2999999523,,684352.096,8,400,,,
sequence,flow.Sequence,4_97,2023-11-01T08:16:45.245Z,,0,,,5516.113999856985,completion,,,,,false,,,,684347.5,684347.399999857,678824.318,678825.2999999523,678831.286,684352.096,8,400,,,
trial,html.Screen,4_98_0,2023-11-01T08:16:48.046Z,,0,2,,2796.6039998092456,response,ISIC_2638895.JPG,5,ISIC_0071771.JPG,ISIC_0071771.JPG,false,0,keypress(z),500,687148.899999857,687148.6999998093,684345.122,684347.5,684352.096,687150.683,8,400,49,,ISIC_2638895.JPG
break,html.Screen,4_98_1,2023-11-01T08:16:48.047Z,,0,,,NaN,,,,,,false,,,,687149.2999999523,687149.2999999523,,687149.0999999046,,687150.683,8,400,,,
break_continue,html.Screen,4_98_2,2023-11-01T08:16:48.047Z,,0,,,NaN,,,,,,false,,,,687149.5999999046,687149.5,,687149.399999857,,687150.683,8,400,,,
sequence,flow.Sequence,4_98,2023-11-01T08:16:48.047Z,,0,,,2797.4039999999804,completion,,,,,false,,,,687149.6999998093,687149.5,684345.122,684347.5,684352.096,687150.683,8,400,,,
trial,html.Screen,4_99_0,2023-11-01T08:16:59.541Z,,0,2,,11506.852000000072,timeout,ISIC_8497457.JPG,4,ISIC_0437978.JPG,,false,,,500,698643.899999857,698643.7999999523,687143.72,687149.6999998093,687150.683,698657.535,8,400,50,,
break,html.Screen,4_99_1,2023-11-01T08:17:09.548Z,,0,,,9999.996999999974,timeout,,,,,false,,,,708651,708650.576,698650.615,698644.0999999046,698657.535,708657.532,8,400,,,
break_continue,html.Screen,4_99_2,2023-11-01T08:17:14.166Z,,0,,,4603.76799995231,response,,,,,false,continue,keypress(Space),,713268.5,713261.2999999523,708650.576,708651,708657.532,713275.581,8,400,,,
sequence,flow.Sequence,4_99,2023-11-01T08:17:14.166Z,,0,,,26110.616999952355,completion,,,,,false,,,,713268.6999998093,713261.2999999523,687143.72,687149.6999998093,687150.683,713275.581,8,400,,,
trial,html.Screen,4_100_0,2023-11-01T08:17:17.064Z,,0,3,,2890.7189999523107,response,ISIC_5581936.JPG,4,ISIC_0009713.JPG,ISIC_0009713.JPG,false,0,keypress(z),500,716166.399999857,716166.2999999523,713268.633,713268.6999998093,713275.581,716171.39,8,400,1,,ISIC_5581936.JPG
break,html.Screen,4_100_1,2023-11-01T08:17:17.064Z,,0,,,NaN,,,,,,false,,,,716166.899999857,716166.7999999523,,716166.5,,716171.39,8,400,,,
break_continue,html.Screen,4_100_2,2023-11-01T08:17:17.064Z,,0,,,NaN,,,,,,false,,,,716167.0999999046,716167.0999999046,,716166.899999857,,716171.39,8,400,,,
sequence,flow.Sequence,4_100,2023-11-01T08:17:17.065Z,,0,,,2891.518999904627,completion,,,,,false,,,,716167.0999999046,716167.0999999046,713268.633,713268.6999998093,713275.581,716171.39,8,400,,,
trial,html.Screen,4_101_0,2023-11-01T08:17:20.601Z,,0,3,,3532.509999856935,response,ISIC_0002549.JPG,4,ISIC_0013917.JPG,ISIC_0013917.JPG,false,0,keypress(z),500,719704,719703.899999857,716164.349,716167.0999999046,716171.39,719706.052,8,400,2,,ISIC_0002549.JPG
break,html.Screen,4_101_1,2023-11-01T08:17:20.602Z,,0,,,NaN,,,,,,false,,,,719704.5999999046,719704.399999857,,719704.0999999046,,719706.052,8,400,,,
break_continue,html.Screen,4_101_2,2023-11-01T08:17:20.602Z,,0,,,NaN,,,,,,false,,,,719704.6999998093,719704.6999998093,,719704.5999999046,,719706.052,8,400,,,
sequence,flow.Sequence,4_101,2023-11-01T08:17:20.602Z,,0,,,3533.309999809251,completion,,,,,false,,,,719704.6999998093,719704.6999998093,716164.349,716167.0999999046,716171.39,719706.052,8,400,,,
trial,html.Screen,4_102_0,2023-11-01T08:17:23.547Z,,0,3,,2943.947999999975,response,ISIC_0013777.JPG,5,ISIC_7070020.JPG,ISIC_7070020.JPG,false,0,keypress(z),500,722650.0999999046,722650,719699.052,719704.7999999523,719706.052,722657.378,8,400,3,,ISIC_0013777.JPG
break,html.Screen,4_102_1,2023-11-01T08:17:23.548Z,,0,,,NaN,,,,,,false,,,,722650.5,722650.399999857,,722650.1999998093,,722657.378,8,400,,,
break_continue,html.Screen,4_102_2,2023-11-01T08:17:23.548Z,,0,,,NaN,,,,,,false,,,,722650.6999998093,722650.5999999046,,722650.5999999046,,722657.378,8,400,,,
sequence,flow.Sequence,4_102,2023-11-01T08:17:23.548Z,,0,,,2944.5479999046074,completion,,,,,false,,,,722650.7999999523,722650.5999999046,719699.052,719704.7999999523,719706.052,722657.378,8,400,,,
trial,html.Screen,4_103_0,2023-11-01T08:17:26.653Z,,0,3,,3098.42199995229,response,ISIC_0012164.JPG,5,ISIC_0031472.JPG,ISIC_0031472.JPG,false,0,keypress(z),500,725756,725755.7999999523,722650.409,722650.7999999523,722657.378,725761.526,8,400,4,,ISIC_0012164.JPG
break,html.Screen,4_103_1,2023-11-01T08:17:26.654Z,,0,,,NaN,,,,,,false,,,,725756.399999857,725756.2999999523,,725756.0999999046,,725761.526,8,400,,,
break_continue,html.Screen,4_103_2,2023-11-01T08:17:26.654Z,,0,,,NaN,,,,,,false,,,,725756.5,725756.5,,725756.399999857,,725761.526,8,400,,,
sequence,flow.Sequence,4_103,2023-11-01T08:17:26.654Z,,0,,,3099.121999999974,completion,,,,,false,,,,725756.5999999046,725756.5,722650.409,722650.7999999523,722657.378,725761.526,8,400,,,
trial,html.Screen,4_104_0,2023-11-01T08:17:29.631Z,,0,3,,2971.9740000000456,response,ISIC_0010044.JPG,5,ISIC_0059170.JPG,ISIC_0010044.JPG,false,1,keypress(m),500,728733.5999999046,728733.5,725754.569,725756.5999999046,725761.526,728740.672,8,400,5,,ISIC_0059170.JPG
break,html.Screen,4_104_1,2023-11-01T08:17:29.632Z,,0,,,NaN,,,,,,false,,,,728734.0999999046,728734.0999999046,,728733.7999999523,,728740.672,8,400,,,
break_continue,html.Screen,4_104_2,2023-11-01T08:17:29.632Z,,0,,,NaN,,,,,,false,,,,728734.2999999523,728734.1999998093,,728734.0999999046,,728740.672,8,400,,,
sequence,flow.Sequence,4_104,2023-11-01T08:17:29.632Z,,0,,,2972.6739998093108,completion,,,,,false,,,,728734.2999999523,728734.1999998093,725754.569,725756.5999999046,725761.526,728740.672,8,400,,,
trial,html.Screen,4_105_0,2023-11-01T08:17:33.041Z,,0,3,,3402.5279998092446,response,ISIC_0013244.JPG,4,ISIC_0069633.JPG,ISIC_0069633.JPG,false,0,keypress(z),500,732143.2999999523,732143.1999998093,728733.707,728734.399999857,728740.672,732150.387,8,400,6,,ISIC_0013244.JPG
break,html.Screen,4_105_1,2023-11-01T08:17:33.041Z,,0,,,NaN,,,,,,false,,,,732143.7999999523,732143.6999998093,,732143.399999857,,732150.387,8,400,,,
break_continue,html.Screen,4_105_2,2023-11-01T08:17:33.041Z,,0,,,NaN,,,,,,false,,,,732143.899999857,732143.899999857,,732143.7999999523,,732150.387,8,400,,,
sequence,flow.Sequence,4_105,2023-11-01T08:17:33.041Z,,0,,,3403.2279998569284,completion,,,,,false,,,,732144,732143.899999857,728733.707,728734.399999857,728740.672,732150.387,8,400,,,
trial,html.Screen,4_106_0,2023-11-01T08:17:36.099Z,,0,3,,3050.7129999046447,response,ISIC_0588855.JPG,5,ISIC_5482426.JPG,ISIC_5482426.JPG,false,0,keypress(z),500,735201.2999999523,735201.0999999046,732143.412,732144,732150.387,735205.914,8,400,7,,ISIC_0588855.JPG
break,html.Screen,4_106_1,2023-11-01T08:17:36.099Z,,0,,,NaN,,,,,,false,,,,735201.6999998093,735201.6999998093,,735201.2999999523,,735205.914,8,400,,,
break_continue,html.Screen,4_106_2,2023-11-01T08:17:36.099Z,,0,,,NaN,,,,,,false,,,,735201.899999857,735201.899999857,,735201.6999998093,,735205.914,8,400,,,
sequence,flow.Sequence,4_106,2023-11-01T08:17:36.099Z,,0,,,3051.512999856961,completion,,,,,false,,,,735201.899999857,735201.899999857,732143.412,732144,732150.387,735205.914,8,400,,,
trial,html.Screen,4_107_0,2023-11-01T08:17:39.700Z,,0,3,,3596.485999856959,response,ISIC_4396553.JPG,4,ISIC_0059547.JPG,ISIC_0059547.JPG,false,0,keypress(z),500,738802.5999999046,738802.399999857,735198.934,735202,735205.914,738810.358,8,400,8,,ISIC_4396553.JPG
break,html.Screen,4_107_1,2023-11-01T08:17:39.700Z,,0,,,NaN,,,,,,false,,,,738802.899999857,738802.899999857,,738802.5999999046,,738810.358,8,400,,,
break_continue,html.Screen,4_107_2,2023-11-01T08:17:39.700Z,,0,,,NaN,,,,,,false,,,,738803.0999999046,738803,,738803,,738810.358,8,400,,,
sequence,flow.Sequence,4_107,2023-11-01T08:17:39.701Z,,0,,,3597.0860000000102,completion,,,,,false,,,,738803.0999999046,738803,735198.934,735202,735205.914,738810.358,8,400,,,
trial,html.Screen,4_108_0,2023-11-01T08:17:42.406Z,,0,3,,2697.741999904625,response,ISIC_6966001.JPG,4,ISIC_8181142.JPG,ISIC_6966001.JPG,false,1,keypress(m),500,741508.399999857,741508.0999999046,738796.158,738803.0999999046,738810.358,741511.445,8,400,9,,ISIC_8181142.JPG
break,html.Screen,4_108_1,2023-11-01T08:17:42.406Z,,0,,,NaN,,,,,,false,,,,741508.899999857,741508.7999999523,,741508.399999857,,741511.445,8,400,,,
break_continue,html.Screen,4_108_2,2023-11-01T08:17:42.406Z,,0,,,NaN,,,,,,false,,,,741509,741509,,741509,,741511.445,8,400,,,
sequence,flow.Sequence,4_108,2023-11-01T08:17:42.407Z,,0,,,2698.6419999999925,completion,,,,,false,,,,741509.1999998093,741509,738796.158,738803.0999999046,738810.358,741511.445,8,400,,,
trial,html.Screen,4_109_0,2023-11-01T08:17:48.407Z,,0,3,,5998.454999857,response,ISIC_2868199.JPG,4,ISIC_3771332.JPG,ISIC_2868199.JPG,false,1,keypress(m),500,747510.0999999046,747509.899999857,741504.452,741509.1999998093,741511.445,747518.865,8,400,10,,ISIC_3771332.JPG
break,html.Screen,4_109_1,2023-11-01T08:17:48.408Z,,0,,,NaN,,,,,,false,,,,747510.399999857,747510.399999857,,747510.0999999046,,747518.865,8,400,,,
break_continue,html.Screen,4_109_2,2023-11-01T08:17:48.408Z,,0,,,NaN,,,,,,false,,,,747510.6999998093,747510.6999998093,,747510.5,,747518.865,8,400,,,
sequence,flow.Sequence,4_109,2023-11-01T08:17:48.408Z,,0,,,5999.254999809316,completion,,,,,false,,,,747510.7999999523,747510.6999998093,741504.452,741509.1999998093,741511.445,747518.865,8,400,,,
trial,html.Screen,4_110_0,2023-11-01T08:17:51.978Z,,0,3,,3561.3349998092744,response,ISIC_0004000.JPG,5,ISIC_0011130.JPG,ISIC_0011130.JPG,false,0,keypress(z),500,751080.2999999523,751080.1999998093,747504.407,747510.7999999523,747518.865,751088.124,8,400,11,,ISIC_0004000.JPG
break,html.Screen,4_110_1,2023-11-01T08:17:51.978Z,,0,,,NaN,,,,,,false,,,,751080.7999999523,751080.5999999046,,751080.399999857,,751088.124,8,400,,,
break_continue,html.Screen,4_110_2,2023-11-01T08:17:51.978Z,,0,,,NaN,,,,,,false,,,,751080.899999857,751080.899999857,,751080.7999999523,,751088.124,8,400,,,
sequence,flow.Sequence,4_110,2023-11-01T08:17:51.978Z,,0,,,3562.034999856958,completion,,,,,false,,,,751080.899999857,751080.899999857,747504.407,747510.7999999523,747518.865,751088.124,8,400,,,
trial,html.Screen,4_111_0,2023-11-01T08:17:54.940Z,,0,3,,2954.3760000000475,response,ISIC_5028203.JPG,4,ISIC_5868291.JPG,ISIC_5868291.JPG,false,0,keypress(z),500,754042.5999999046,754042.5,751073.851,751081,751088.124,754046.052,8,400,12,,ISIC_5028203.JPG
break,html.Screen,4_111_1,2023-11-01T08:17:54.940Z,,0,,,NaN,,,,,,false,,,,754043,754043,,754042.6999998093,,754046.052,8,400,,,
break_continue,html.Screen,4_111_2,2023-11-01T08:17:54.941Z,,0,,,NaN,,,,,,false,,,,754043.1999998093,754043.0999999046,,754043.0999999046,,754046.052,8,400,,,
sequence,flow.Sequence,4_111,2023-11-01T08:17:54.941Z,,0,,,2954.97599990468,completion,,,,,false,,,,754043.1999998093,754043.0999999046,751073.851,751081,751088.124,754046.052,8,400,,,
trial,html.Screen,4_112_0,2023-11-01T08:17:57.902Z,,0,3,,2958.14799980924,response,ISIC_3098750.JPG,4,ISIC_0057484.JPG,ISIC_0057484.JPG,false,0,keypress(z),500,757004.399999857,757004.1999998093,754039.092,754043.1999998093,754046.052,757011.318,8,400,13,,ISIC_3098750.JPG
break,html.Screen,4_112_1,2023-11-01T08:17:57.902Z,,0,,,NaN,,,,,,false,,,,757004.899999857,757004.7999999523,,757004.5,,757011.318,8,400,,,
break_continue,html.Screen,4_112_2,2023-11-01T08:17:57.903Z,,0,,,NaN,,,,,,false,,,,757005.1999998093,757005.0999999046,,757005,,757011.318,8,400,,,
sequence,flow.Sequence,4_112,2023-11-01T08:17:57.903Z,,0,,,2959.0479999046074,completion,,,,,false,,,,757005.1999998093,757005.0999999046,754039.092,754043.1999998093,754046.052,757011.318,8,400,,,
trial,html.Screen,4_113_0,2023-11-01T08:18:01.040Z,,0,3,,3130.68200000003,response,ISIC_0064623.JPG,5,ISIC_6673956.JPG,ISIC_0064623.JPG,false,1,keypress(m),500,760142.0999999046,760142,757004.344,757005.1999998093,757011.318,760150.948,8,400,14,,ISIC_6673956.JPG
break,html.Screen,4_113_1,2023-11-01T08:18:01.040Z,,0,,,NaN,,,,,,false,,,,760142.5,760142.5,,760142.1999998093,,760150.948,8,400,,,
break_continue,html.Screen,4_113_2,2023-11-01T08:18:01.040Z,,0,,,NaN,,,,,,false,,,,760142.6999998093,760142.6999998093,,760142.5999999046,,760150.948,8,400,,,
sequence,flow.Sequence,4_113,2023-11-01T08:18:01.040Z,,0,,,3131.381999809295,completion,,,,,false,,,,760142.6999998093,760142.6999998093,757004.344,757005.1999998093,757011.318,760150.948,8,400,,,
trial,html.Screen,4_114_0,2023-11-01T08:18:04.737Z,,0,3,,3688.3519999523414,response,ISIC_9302863.JPG,5,ISIC_1192835.JPG,ISIC_1192835.JPG,false,0,keypress(z),500,763839.5,763839.2999999523,760136.285,760142.6999998093,760150.948,763844.6,8,400,15,,ISIC_9302863.JPG
break,html.Screen,4_114_1,2023-11-01T08:18:04.737Z,,0,,,NaN,,,,,,false,,,,763840,763839.899999857,,763839.5999999046,,763844.6,8,400,,,
break_continue,html.Screen,4_114_2,2023-11-01T08:18:04.737Z,,0,,,NaN,,,,,,false,,,,763840.0999999046,763840.0999999046,,763840,,763844.6,8,400,,,
sequence,flow.Sequence,4_114,2023-11-01T08:18:04.738Z,,0,,,3689.1519999046577,completion,,,,,false,,,,763840.0999999046,763840.0999999046,760136.285,760142.6999998093,760150.948,763844.6,8,400,,,
trial,html.Screen,4_115_0,2023-11-01T08:18:09.555Z,,0,3,,4812.900000000023,response,ISIC_4981135.JPG,4,ISIC_0009236.JPG,ISIC_0009236.JPG,false,0,keypress(z),500,768657.6999998093,768657.5,763837.654,763840.1999998093,763844.6,768664.015,8,400,16,,ISIC_4981135.JPG
break,html.Screen,4_115_1,2023-11-01T08:18:09.556Z,,0,,,NaN,,,,,,false,,,,768658.0999999046,768658.0999999046,,768657.7999999523,,768664.015,8,400,,,
break_continue,html.Screen,4_115_2,2023-11-01T08:18:09.556Z,,0,,,NaN,,,,,,false,,,,768658.2999999523,768658.2999999523,,768658.1999998093,,768664.015,8,400,,,
sequence,flow.Sequence,4_115,2023-11-01T08:18:09.556Z,,0,,,4813.69999995234,completion,,,,,false,,,,768658.399999857,768658.2999999523,763837.654,763840.0999999046,763844.6,768664.015,8,400,,,
trial,html.Screen,4_116_0,2023-11-01T08:18:14.293Z,,0,3,,4731.784999952302,response,ISIC_0010322.JPG,4,ISIC_4731791.JPG,ISIC_0010322.JPG,false,1,keypress(m),500,773395.899999857,773395.7999999523,768657.072,768658.399999857,768664.015,773400.113,8,400,17,,ISIC_4731791.JPG
break,html.Screen,4_116_1,2023-11-01T08:18:14.294Z,,0,,,NaN,,,,,,false,,,,773396.2999999523,773396.1999998093,,773396,,773400.113,8,400,,,
break_continue,html.Screen,4_116_2,2023-11-01T08:18:14.294Z,,0,,,NaN,,,,,,false,,,,773396.399999857,773396.399999857,,773396.2999999523,,773400.113,8,400,,,
sequence,flow.Sequence,4_116,2023-11-01T08:18:14.294Z,,0,,,4732.384999856935,completion,,,,,false,,,,773396.5,773396.399999857,768657.072,768658.399999857,768664.015,773400.113,8,400,,,
trial,html.Screen,4_117_0,2023-11-01T08:18:17.543Z,,0,3,,3245.586999809253,response,ISIC_8685259.JPG,4,ISIC_0046450.JPG,ISIC_0046450.JPG,false,0,keypress(z),500,776645.899999857,776645.6999998093,773393.112,773396.5999999046,773400.113,776650.077,8,400,18,,ISIC_8685259.JPG
break,html.Screen,4_117_1,2023-11-01T08:18:17.544Z,,0,,,NaN,,,,,,false,,,,776646.1999998093,776646.1999998093,,776646,,776650.077,8,400,,,
break_continue,html.Screen,4_117_2,2023-11-01T08:18:17.544Z,,0,,,NaN,,,,,,false,,,,776646.399999857,776646.399999857,,776646.2999999523,,776650.077,8,400,,,
sequence,flow.Sequence,4_117,2023-11-01T08:18:17.544Z,,0,,,3246.2869998569367,completion,,,,,false,,,,776646.399999857,776646.399999857,773393.112,773396.5,773400.113,776650.077,8,400,,,
trial,html.Screen,4_118_0,2023-11-01T08:18:22.297Z,,0,3,,4749.8229998569,response,ISIC_0012435.JPG,5,ISIC_6253295.JPG,ISIC_6253295.JPG,false,0,keypress(z),500,781400.0999999046,781399.899999857,776643.091,776646.399999857,776650.077,781407.016,8,400,19,,ISIC_0012435.JPG
break,html.Screen,4_118_1,2023-11-01T08:18:22.298Z,,0,,,NaN,,,,,,false,,,,781400.5999999046,781400.5,,781400.1999998093,,781407.016,8,400,,,
break_continue,html.Screen,4_118_2,2023-11-01T08:18:22.298Z,,0,,,NaN,,,,,,false,,,,781400.6999998093,781400.6999998093,,781400.5999999046,,781407.016,8,400,,,
sequence,flow.Sequence,4_118,2023-11-01T08:18:22.298Z,,0,,,4750.622999809217,completion,,,,,false,,,,781400.7999999523,781400.6999998093,776643.091,776646.399999857,776650.077,781407.016,8,400,,,
trial,html.Screen,4_119_0,2023-11-01T08:18:26.395Z,,0,3,,4090.68399980932,response,ISIC_0028666.JPG,5,ISIC_0024586.JPG,ISIC_0028666.JPG,false,1,keypress(m),500,785497.899999857,785497.6999998093,781400.019,781400.7999999523,781407.016,785504.19,8,400,20,,ISIC_0024586.JPG
break,html.Screen,4_119_1,2023-11-01T08:18:26.396Z,,0,,,NaN,,,,,,false,,,,785498.399999857,785498.2999999523,,785498,,785504.19,8,400,,,
break_continue,html.Screen,4_119_2,2023-11-01T08:18:26.396Z,,0,,,NaN,,,,,,false,,,,785498.5999999046,785498.5,,785498.5,,785504.19,8,400,,,
sequence,flow.Sequence,4_119,2023-11-01T08:18:26.396Z,,0,,,4091.484000000055,completion,,,,,false,,,,785498.6999998093,785498.5,781400.019,781400.7999999523,781407.016,785504.19,8,400,,,
trial,html.Screen,4_120_0,2023-11-01T08:18:29.885Z,,0,3,,3483.109999952372,response,ISIC_2051278.JPG,5,ISIC_0002900.JPG,ISIC_2051278.JPG,false,1,keypress(m),500,788987.5,788987.2999999523,785497.214,785498.7999999523,785504.19,788990.313,8,400,21,,ISIC_0002900.JPG
break,html.Screen,4_120_1,2023-11-01T08:18:29.885Z,,0,,,NaN,,,,,,false,,,,788987.899999857,788987.899999857,,788987.5999999046,,788990.313,8,400,,,
break_continue,html.Screen,4_120_2,2023-11-01T08:18:29.886Z,,0,,,NaN,,,,,,false,,,,788988.0999999046,788988.0999999046,,788988,,788990.313,8,400,,,
sequence,flow.Sequence,4_120,2023-11-01T08:18:29.886Z,,0,,,3483.9099999046884,completion,,,,,false,,,,788988.1999998093,788988.0999999046,785497.214,785498.7999999523,785504.19,788990.313,8,400,,,
trial,html.Screen,4_121_0,2023-11-01T08:18:32.863Z,,0,3,,2974.6870000000345,response,ISIC_9232153.JPG,5,ISIC_0058024.JPG,ISIC_0058024.JPG,false,0,keypress(z),500,791965.1999998093,791965,788983.294,788988.2999999523,788990.313,791969.426,8,400,22,,ISIC_9232153.JPG
break,html.Screen,4_121_1,2023-11-01T08:18:32.863Z,,0,,,NaN,,,,,,false,,,,791965.6999998093,791965.5999999046,,791965.2999999523,,791969.426,8,400,,,
break_continue,html.Screen,4_121_2,2023-11-01T08:18:32.863Z,,0,,,NaN,,,,,,false,,,,791965.7999999523,791965.7999999523,,791965.6999998093,,791969.426,8,400,,,
sequence,flow.Sequence,4_121,2023-11-01T08:18:32.863Z,,0,,,2975.4869999523507,completion,,,,,false,,,,791965.7999999523,791965.7999999523,788983.294,788988.2999999523,788990.313,791969.426,8,400,,,
trial,html.Screen,4_122_0,2023-11-01T08:18:37.473Z,,0,3,,4605.873999952339,response,ISIC_0021271.JPG,4,ISIC_2059085.JPG,ISIC_0021271.JPG,false,1,keypress(m),500,796575.399999857,796575.2999999523,791962.449,791965.899999857,791969.426,796580.488,8,400,23,,ISIC_2059085.JPG
break,html.Screen,4_122_1,2023-11-01T08:18:37.473Z,,0,,,NaN,,,,,,false,,,,796575.899999857,796575.899999857,,796575.5999999046,,796580.488,8,400,,,
break_continue,html.Screen,4_122_2,2023-11-01T08:18:37.474Z,,0,,,NaN,,,,,,false,,,,796576.0999999046,796576.0999999046,,796576,,796580.488,8,400,,,
sequence,flow.Sequence,4_122,2023-11-01T08:18:37.474Z,,0,,,4606.673999904655,completion,,,,,false,,,,796576.1999998093,796576.0999999046,791962.449,791965.899999857,791969.426,796580.488,8,400,,,
trial,html.Screen,4_123_0,2023-11-01T08:18:40.371Z,,0,3,,2892.9119998569367,response,ISIC_6023518.JPG,4,ISIC_0033956.JPG,ISIC_0033956.JPG,false,0,keypress(z),500,799473.5999999046,799473.399999857,796573.521,796576.2999999523,796580.488,799476.305,8,400,24,,ISIC_6023518.JPG
break,html.Screen,4_123_1,2023-11-01T08:18:40.371Z,,0,,,NaN,,,,,,false,,,,799474,799474,,799473.6999998093,,799476.305,8,400,,,
break_continue,html.Screen,4_123_2,2023-11-01T08:18:40.372Z,,0,,,NaN,,,,,,false,,,,799474.1999998093,799474.1999998093,,799474.0999999046,,799476.305,8,400,,,
sequence,flow.Sequence,4_123,2023-11-01T08:18:40.372Z,,0,,,2893.711999809253,completion,,,,,false,,,,799474.1999998093,799474.1999998093,796573.521,796576.2999999523,796580.488,799476.305,8,400,,,
trial,html.Screen,4_124_0,2023-11-01T08:18:44.213Z,,0,3,,3838.694999999949,response,ISIC_0031741.JPG,4,ISIC_0030237.JPG,ISIC_0031741.JPG,false,1,keypress(m),500,803315.1999998093,803315,799469.349,799474.2999999523,799476.305,803323.975,8,400,25,,ISIC_0030237.JPG
break,html.Screen,4_124_1,2023-11-01T08:18:44.213Z,,0,,,NaN,,,,,,false,,,,803315.5999999046,803315.5999999046,,803315.2999999523,,803323.975,8,400,,,
break_continue,html.Screen,4_124_2,2023-11-01T08:18:44.213Z,,0,,,NaN,,,,,,false,,,,803315.7999999523,803315.6999998093,,803315.6999998093,,803323.975,8,400,,,
sequence,flow.Sequence,4_124,2023-11-01T08:18:44.213Z,,0,,,3839.394999809214,completion,,,,,false,,,,803315.899999857,803315.6999998093,799469.349,799474.2999999523,799476.305,803323.975,8,400,,,
trial,html.Screen,4_125_0,2023-11-01T08:18:47.398Z,,0,3,,3177.0250000000233,response,ISIC_0007084.JPG,4,ISIC_0014114.JPG,ISIC_0014114.JPG,false,0,keypress(z),500,806501.0999999046,806501,803309.584,803316,803323.975,806510.988,8,400,26,,ISIC_0007084.JPG
break,html.Screen,4_125_1,2023-11-01T08:18:47.399Z,,0,,,NaN,,,,,,false,,,,806501.5,806501.399999857,,806501.1999998093,,806510.988,8,400,,,
break_continue,html.Screen,4_125_2,2023-11-01T08:18:47.399Z,,0,,,NaN,,,,,,false,,,,806501.6999998093,806501.6999998093,,806501.5,,806510.988,8,400,,,
sequence,flow.Sequence,4_125,2023-11-01T08:18:47.399Z,,0,,,3177.7249998092884,completion,,,,,false,,,,806501.7999999523,806501.6999998093,803309.584,803315.899999857,803323.975,806510.988,8,400,,,
