sender,sender_type,sender_id,timestamp,meta,,blockNo,condition,duration,ended_on,img_left,img_reveal,img_right,loser,practice,response,response_action,selection_duration,time_commit,time_end,time_render,time_run,time_show,time_switch,total_blocks,total_trials,trialNo,url,winner
informed_consent,html.Screen,0,2023-10-31T23:31:59.532Z,"{""labjs_version"":""20.2.4"",""labjs_build"":{""flavor"":""production"",""commit"":""f5b4a49f956347addd546a832a3327688c2c0fef""},""location"":""https://run.pavlovia.org/MurrayBennett/melanoma-2afc/?participant=66780&platform=sona"",""userAgent"":""Mozilla/5.0 (Macintosh; Intel Mac OS X 10_15_7) AppleWebKit/537.36 (KHTML, like Gecko) Chrome/118.0.0.0 Safari/537.36"",""platform"":""MacIntel"",""language"":""en-US"",""locale"":""en-US"",""timeZone"":""America/Chicago"",""timezoneOffset"":300,""screen_width"":1440,""screen_height"":900,""scroll_width"":1440,""scroll_height"":735,""window_innerWidth"":1440,""window_innerHeight"":783,""devicePixelRatio"":2}",,,,30039.294,response,,,,,,consent,click button,,31888.60000014305,31884,1728.044,1857,1844.706,31894.945,,,,"{""participant"":""66780"",""platform"":""sona""}",
Welcome,html.Screen,1,2023-10-31T23:32:30.930Z,,,,colourful,31390.255000047684,response,,,,,,continue,click button,,63288.200000047684,63285.200000047684,31878.279,31888.799999952316,31894.945,63297.006,,,,,
trial,html.Screen,2_0_0,2023-10-31T23:32:38.711Z,,0,0,,7771.793999952315,response,ISIC_0025593.JPG,,ISIC_0063388.JPG,ISIC_0063388.JPG,true,0,keypress(z),500,71069.29999995232,71068.79999995232,63280.34,63288.5,63297.006,71080.028,1,6,1,,ISIC_0025593.JPG
sequence,flow.Sequence,2_0,2023-10-31T23:32:38.712Z,,0,,,7771.793999952315,completion,,,,,true,,,,71069.70000004768,71068.79999995232,63280.34,63288.5,63297.006,71080.028,1,6,,,
trial,html.Screen,2_1_0,2023-10-31T23:32:50.213Z,,0,0,,11517.885999999999,timeout,ISIC_0028178.JPG,,ISIC_1309015.JPG,,true,,,500,82571.20000004768,82570.79999995232,71063.362,71069.70000004768,71080.028,82597.914,1,6,2,,
sequence,flow.Sequence,2_1,2023-10-31T23:32:50.213Z,,0,,,11490.77199995231,completion,,,,,true,,,,82571.5,82570.79999995232,71063.362,71069.70000004768,71080.028,82597.914,1,6,,,
trial,html.Screen,2_2_0,2023-10-31T23:32:54.425Z,,0,0,,4185.486000095363,response,ISIC_3314853.JPG,,ISIC_0031128.JPG,ISIC_3314853.JPG,true,1,keypress(m),500,86784.10000014305,86783.40000009537,82581.248,82571.60000014305,82597.914,86797.746,1,6,3,,ISIC_0031128.JPG
sequence,flow.Sequence,2_2,2023-10-31T23:32:54.426Z,,0,,,4185.486000095363,completion,,,,,true,,,,86784.5,86783.40000009537,82581.248,82571.5,82597.914,86797.746,1,6,,,
trial,html.Screen,2_3_0,2023-10-31T23:32:58.350Z,,0,0,,3911.1540000953682,response,ISIC_8980141.JPG,,ISIC_0031612.JPG,ISIC_0031612.JPG,true,0,keypress(z),500,90709.40000009537,90708.90000009537,86781.08,86784.70000004768,86797.746,90714.256,1,6,4,,ISIC_8980141.JPG
sequence,flow.Sequence,2_3,2023-10-31T23:32:58.351Z,,0,,,3911.1540000953682,completion,,,,,true,,,,90709.90000009537,90708.90000009537,86781.08,86784.60000014305,86797.746,90714.256,1,6,,,
trial,html.Screen,2_4_0,2023-10-31T23:33:02.565Z,,0,0,,4208.94400004769,response,ISIC_1197737.JPG,,ISIC_9721604.JPG,ISIC_1197737.JPG,true,1,keypress(m),500,94923.79999995232,94923.20000004768,90697.59,90710.10000014305,90714.256,94931.808,1,6,5,,ISIC_9721604.JPG
sequence,flow.Sequence,2_4,2023-10-31T23:33:02.565Z,,0,,,4208.94400004769,completion,,,,,true,,,,94924.20000004768,94923.20000004768,90697.59,90710.10000014305,90714.256,94931.808,1,6,,,
trial,html.Screen,2_5_0,2023-10-31T23:33:06.891Z,,0,0,,4317.892000047679,response,ISIC_0010681.JPG,,ISIC_0025346.JPG,ISIC_0010681.JPG,true,1,keypress(m),500,99250.10000014305,99249.70000004768,94915.142,94924.40000009537,94931.808,99264.968,1,6,6,,ISIC_0025346.JPG
sequence,flow.Sequence,2_5,2023-10-31T23:33:06.891Z,,0,,,4317.892000047679,completion,,,,,true,,,,99250.5,99249.70000004768,94915.142,94924.40000009537,94931.808,99264.968,1,6,,,
loop,flow.Loop,2,2023-10-31T23:33:06.891Z,,,,,35952.69400004768,completion,,,,,true,,,,99250.79999995232,99249.70000004768,63280.34,63288.40000009537,63297.006,99264.968,1,6,,,
exp_instructions,html.Screen,3,2023-10-31T23:33:56.579Z,,,,,49670.63200014306,response,,,,,,continue,keypress(Space),,148940,148935.60000014305,99248.302,99250.90000009537,99264.968,148946.314,,,,,
trial,html.Screen,4_0_0,2023-10-31T23:34:00.985Z,,0,1,,4400.286000143038,response,ISIC_0061224.JPG,8,ISIC_0010555.JPG,ISIC_0061224.JPG,false,1,keypress(m),500,153347.10000014305,153346.60000014305,148929.648,148940.40000009537,148946.314,153349.061,8,400,1,,ISIC_0010555.JPG
break,html.Screen,4_0_1,2023-10-31T23:34:00.987Z,,0,,,NaN,,,,,,false,,,,153348.40000009537,153348.10000014305,,153347.29999995232,,153349.061,8,400,,,
break_continue,html.Screen,4_0_2,2023-10-31T23:34:00.987Z,,0,,,NaN,,,,,,false,,,,153348.79999995232,153348.60000014305,,153348.5,,153349.061,8,400,,,
sequence,flow.Sequence,4_0,2023-10-31T23:34:00.987Z,,0,,,4402.286000143038,completion,,,,,false,,,,153348.79999995232,153348.60000014305,148929.648,148940.29999995232,148946.314,153349.061,8,400,,,
trial,html.Screen,4_1_0,2023-10-31T23:34:06.097Z,,0,1,,5109.738999952329,response,ISIC_0026043.JPG,8,ISIC_3826102.JPG,ISIC_3826102.JPG,false,0,keypress(z),500,158459.29999995232,158458.79999995232,153332.395,153349,153349.061,158465.523,8,400,2,,ISIC_0026043.JPG
break,html.Screen,4_1_1,2023-10-31T23:34:06.098Z,,0,,,NaN,,,,,,false,,,,158460.20000004768,158460,,158459.60000014305,,158465.523,8,400,,,
break_continue,html.Screen,4_1_2,2023-10-31T23:34:06.099Z,,0,,,NaN,,,,,,false,,,,158460.60000014305,158460.40000009537,,158460.29999995232,,158465.523,8,400,,,
sequence,flow.Sequence,4_1,2023-10-31T23:34:06.099Z,,0,,,5111.3390000953805,completion,,,,,false,,,,158460.70000004768,158460.40000009537,153332.395,153348.90000009537,153349.061,158465.523,8,400,,,
trial,html.Screen,4_2_0,2023-10-31T23:34:10.056Z,,0,1,,3951.677000047697,response,ISIC_3576066.JPG,8,ISIC_0008934.JPG,ISIC_3576066.JPG,false,1,keypress(m),500,162417.60000014305,162417.20000004768,158448.857,158460.79999995232,158465.523,162433.88,8,400,3,,ISIC_0008934.JPG
break,html.Screen,4_2_1,2023-10-31T23:34:10.057Z,,0,,,NaN,,,,,,false,,,,162418.60000014305,162418.40000009537,,162418,,162433.88,8,400,,,
break_continue,html.Screen,4_2_2,2023-10-31T23:34:10.057Z,,0,,,NaN,,,,,,false,,,,162419,162418.90000009537,,162418.79999995232,,162433.88,8,400,,,
sequence,flow.Sequence,4_2,2023-10-31T23:34:10.057Z,,0,,,3953.377000095381,completion,,,,,false,,,,162419.20000004768,162418.90000009537,158448.857,158460.79999995232,158465.523,162433.88,8,400,,,
trial,html.Screen,4_3_0,2023-10-31T23:34:13.517Z,,0,1,,3445.320000047679,response,ISIC_4477599.JPG,7,ISIC_0033299.JPG,ISIC_4477599.JPG,false,1,keypress(m),500,165879.60000014305,165879.20000004768,162417.214,162419.40000009537,162433.88,165883.742,8,400,4,,ISIC_0033299.JPG
break,html.Screen,4_3_1,2023-10-31T23:34:13.518Z,,0,,,NaN,,,,,,false,,,,165880.5,165880.40000009537,,165879.90000009537,,165883.742,8,400,,,
break_continue,html.Screen,4_3_2,2023-10-31T23:34:13.519Z,,0,,,NaN,,,,,,false,,,,165881,165880.79999995232,,165880.70000004768,,165883.742,8,400,,,
sequence,flow.Sequence,4_3,2023-10-31T23:34:13.519Z,,0,,,3446.9199999523116,completion,,,,,false,,,,165881.10000014305,165880.79999995232,162417.214,162419.29999995232,162433.88,165883.742,8,400,,,
trial,html.Screen,4_4_0,2023-10-31T23:34:17.330Z,,0,1,,3808.557999952318,response,ISIC_2843245.JPG,7,ISIC_0030029.JPG,ISIC_0030029.JPG,false,0,keypress(z),500,169692.79999995232,169692.29999995232,165867.076,165881.29999995232,165883.742,169700.256,8,400,5,,ISIC_2843245.JPG
break,html.Screen,4_4_1,2023-10-31T23:34:17.331Z,,0,,,NaN,,,,,,false,,,,169693.70000004768,169693.5,,169693,,169700.256,8,400,,,
break_continue,html.Screen,4_4_2,2023-10-31T23:34:17.332Z,,0,,,NaN,,,,,,false,,,,169694,169694,,169693.79999995232,,169700.256,8,400,,,
sequence,flow.Sequence,4_4,2023-10-31T23:34:17.332Z,,0,,,3810.2580000000016,completion,,,,,false,,,,169694.29999995232,169694,165867.076,165881.20000004768,165883.742,169700.256,8,400,,,
trial,html.Screen,4_5_0,2023-10-31T23:34:20.889Z,,0,1,,3550.9440000476898,response,ISIC_0033500.JPG,5,ISIC_9241599.JPG,ISIC_9241599.JPG,false,0,keypress(z),500,173251.60000014305,173251.20000004768,169683.59,169694.40000009537,169700.256,173267.576,8,400,6,,ISIC_0033500.JPG
break,html.Screen,4_5_1,2023-10-31T23:34:20.890Z,,0,,,NaN,,,,,,false,,,,173252.70000004768,173252.5,,173251.90000009537,,173267.576,8,400,,,
break_continue,html.Screen,4_5_2,2023-10-31T23:34:20.891Z,,0,,,NaN,,,,,,false,,,,173254,173253.90000009537,,173253.79999995232,,173267.576,8,400,,,
sequence,flow.Sequence,4_5,2023-10-31T23:34:20.892Z,,0,,,3553.6440000953735,completion,,,,,false,,,,173254.20000004768,173253.90000009537,169683.59,169694.29999995232,169700.256,173267.576,8,400,,,
trial,html.Screen,4_6_0,2023-10-31T23:34:24.288Z,,0,1,,3382.7239999523154,response,ISIC_0025277.JPG,6,ISIC_0011343.JPG,ISIC_0011343.JPG,false,0,keypress(z),500,176650.70000004768,176650.29999995232,173250.91,173254.20000004768,173267.576,176667.44,8,400,7,,ISIC_0025277.JPG
break,html.Screen,4_6_1,2023-10-31T23:34:24.289Z,,0,,,NaN,,,,,,false,,,,176651.60000014305,176651.5,,176650.90000009537,,176667.44,8,400,,,
break_continue,html.Screen,4_6_2,2023-10-31T23:34:24.289Z,,0,,,NaN,,,,,,false,,,,176651.90000009537,176651.79999995232,,176651.70000004768,,176667.44,8,400,,,
sequence,flow.Sequence,4_6,2023-10-31T23:34:24.289Z,,0,,,3384.2239999523154,completion,,,,,false,,,,176652.20000004768,176651.79999995232,173250.91,173254.20000004768,173267.576,176667.44,8,400,,,
trial,html.Screen,4_7_0,2023-10-31T23:34:28.360Z,,0,1,,4054.7600000476814,response,ISIC_2670619.JPG,8,ISIC_8352392.JPG,ISIC_8352392.JPG,false,0,keypress(z),500,180722.40000009537,180722.20000004768,176650.774,176652.29999995232,176667.44,180734.614,8,400,8,,ISIC_2670619.JPG
break,html.Screen,4_7_1,2023-10-31T23:34:28.360Z,,0,,,NaN,,,,,,false,,,,180723.20000004768,180723.10000014305,,180722.70000004768,,180734.614,8,400,,,
break_continue,html.Screen,4_7_2,2023-10-31T23:34:28.360Z,,0,,,NaN,,,,,,false,,,,180723.40000009537,180723.29999995232,,180723.29999995232,,180734.614,8,400,,,
sequence,flow.Sequence,4_7,2023-10-31T23:34:28.361Z,,0,,,4055.859999952314,completion,,,,,false,,,,180723.40000009537,180723.29999995232,176650.774,176652.29999995232,176667.44,180734.614,8,400,,,
trial,html.Screen,4_8_0,2023-10-31T23:34:31.582Z,,0,1,,3209.4860001430498,response,ISIC_0011924.JPG,6,ISIC_0068886.JPG,ISIC_0011924.JPG,false,1,keypress(m),500,183944.60000014305,183944.10000014305,180717.948,180723.60000014305,180734.614,183951.152,8,400,9,,ISIC_0068886.JPG
break,html.Screen,4_8_1,2023-10-31T23:34:31.583Z,,0,,,NaN,,,,,,false,,,,183945.60000014305,183945.40000009537,,183944.90000009537,,183951.152,8,400,,,
break_continue,html.Screen,4_8_2,2023-10-31T23:34:31.583Z,,0,,,NaN,,,,,,false,,,,183945.90000009537,183945.90000009537,,183945.70000004768,,183951.152,8,400,,,
sequence,flow.Sequence,4_8,2023-10-31T23:34:31.583Z,,0,,,3211.286000095366,completion,,,,,false,,,,183946.10000014305,183945.90000009537,180717.948,180723.5,180734.614,183951.152,8,400,,,
trial,html.Screen,4_9_0,2023-10-31T23:34:35.273Z,,0,1,,3684.7480000953656,response,ISIC_2560463.JPG,8,ISIC_1831600.JPG,ISIC_1831600.JPG,false,0,keypress(z),500,187636.40000009537,187635.90000009537,183934.486,183946.20000004768,183951.152,187651.004,8,400,10,,ISIC_2560463.JPG
break,html.Screen,4_9_1,2023-10-31T23:34:35.274Z,,0,,,NaN,,,,,,false,,,,187637.5,187637.29999995232,,187636.70000004768,,187651.004,8,400,,,
break_continue,html.Screen,4_9_2,2023-10-31T23:34:35.275Z,,0,,,NaN,,,,,,false,,,,187637.79999995232,187637.79999995232,,187637.70000004768,,187651.004,8,400,,,
sequence,flow.Sequence,4_9,2023-10-31T23:34:35.275Z,,0,,,3686.6479999523144,completion,,,,,false,,,,187638,187637.79999995232,183934.486,183946.20000004768,183951.152,187651.004,8,400,,,
trial,html.Screen,4_10_0,2023-10-31T23:34:38.751Z,,0,1,,3463.1960000476975,response,ISIC_7960321.JPG,7,ISIC_0254447.JPG,ISIC_7960321.JPG,false,1,keypress(m),500,191114.60000014305,191114.20000004768,187634.338,187638.20000004768,187651.004,191118.351,8,400,11,,ISIC_0254447.JPG
break,html.Screen,4_10_1,2023-10-31T23:34:38.752Z,,0,,,NaN,,,,,,false,,,,191115.20000004768,191115.10000014305,,191114.79999995232,,191118.351,8,400,,,
break_continue,html.Screen,4_10_2,2023-10-31T23:34:38.752Z,,0,,,NaN,,,,,,false,,,,191115.40000009537,191115.40000009537,,191115.40000009537,,191118.351,8,400,,,
sequence,flow.Sequence,4_10,2023-10-31T23:34:38.752Z,,0,,,3464.396000095381,completion,,,,,false,,,,191115.60000014305,191115.40000009537,187634.338,187638.20000004768,187651.004,191118.351,8,400,,,
trial,html.Screen,4_11_0,2023-10-31T23:34:42.259Z,,0,1,,3504.149000000005,response,ISIC_8150108.JPG,7,ISIC_0644590.JPG,ISIC_8150108.JPG,false,1,keypress(m),500,194622.90000009537,194622.5,191101.685,191115.60000014305,191118.351,194634.877,8,400,12,,ISIC_0644590.JPG
break,html.Screen,4_11_1,2023-10-31T23:34:42.260Z,,0,,,NaN,,,,,,false,,,,194623.79999995232,194623.70000004768,,194623.29999995232,,194634.877,8,400,,,
break_continue,html.Screen,4_11_2,2023-10-31T23:34:42.261Z,,0,,,NaN,,,,,,false,,,,194624.20000004768,194624.10000014305,,194623.90000009537,,194634.877,8,400,,,
sequence,flow.Sequence,4_11,2023-10-31T23:34:42.261Z,,0,,,3505.749000143056,completion,,,,,false,,,,194624.40000009537,194624.10000014305,191101.685,191115.60000014305,191118.351,194634.877,8,400,,,
trial,html.Screen,4_12_0,2023-10-31T23:34:45.770Z,,0,1,,3498.7230001430435,response,ISIC_0032130.JPG,5,ISIC_8325226.JPG,ISIC_8325226.JPG,false,0,keypress(z),500,198134.10000014305,198133.60000014305,194618.211,194624.60000014305,194634.877,198151.403,8,400,13,,ISIC_0032130.JPG
break,html.Screen,4_12_1,2023-10-31T23:34:45.771Z,,0,,,NaN,,,,,,false,,,,198135.10000014305,198134.90000009537,,198134.29999995232,,198151.403,8,400,,,
break_continue,html.Screen,4_12_2,2023-10-31T23:34:45.772Z,,0,,,NaN,,,,,,false,,,,198135.29999995232,198135.29999995232,,198135.10000014305,,198151.403,8,400,,,
sequence,flow.Sequence,4_12,2023-10-31T23:34:45.772Z,,0,,,3500.4229999523086,completion,,,,,false,,,,198135.5,198135.29999995232,194618.211,194624.5,194634.877,198151.403,8,400,,,
trial,html.Screen,4_13_0,2023-10-31T23:34:49.201Z,,0,1,,3413.2970000476926,response,ISIC_0028878.JPG,7,ISIC_0033473.JPG,ISIC_0028878.JPG,false,1,keypress(m),500,201565.20000004768,201564.70000004768,198134.737,198135.70000004768,198151.403,201568.715,8,400,14,,ISIC_0033473.JPG
break,html.Screen,4_13_1,2023-10-31T23:34:49.202Z,,0,,,NaN,,,,,,false,,,,201566.20000004768,201566,,201565.5,,201568.715,8,400,,,
break_continue,html.Screen,4_13_2,2023-10-31T23:34:49.203Z,,0,,,NaN,,,,,,false,,,,201566.60000014305,201566.40000009537,,201566.29999995232,,201568.715,8,400,,,
sequence,flow.Sequence,4_13,2023-10-31T23:34:49.203Z,,0,,,3414.9970000953763,completion,,,,,false,,,,201566.70000004768,201566.40000009537,198134.737,198135.70000004768,198151.403,201568.715,8,400,,,
trial,html.Screen,4_14_0,2023-10-31T23:34:52.328Z,,0,1,,3122.58499995232,response,ISIC_3190566.JPG,5,ISIC_0059983.JPG,ISIC_3190566.JPG,false,1,keypress(m),500,204691.79999995232,204691.29999995232,201552.049,201566.90000009537,201568.715,204701.923,8,400,15,,ISIC_0059983.JPG
break,html.Screen,4_14_1,2023-10-31T23:34:52.329Z,,0,,,NaN,,,,,,false,,,,204692.60000014305,204692.5,,204692.10000014305,,204701.923,8,400,,,
break_continue,html.Screen,4_14_2,2023-10-31T23:34:52.329Z,,0,,,NaN,,,,,,false,,,,204693,204693,,204692.70000004768,,204701.923,8,400,,,
sequence,flow.Sequence,4_14,2023-10-31T23:34:52.329Z,,0,,,3124.2850000000035,completion,,,,,false,,,,204693.20000004768,204693,201552.049,201566.90000009537,201568.715,204701.923,8,400,,,
trial,html.Screen,4_15_0,2023-10-31T23:34:55.598Z,,0,1,,3259.9770000953577,response,ISIC_8344196.JPG,8,ISIC_0028379.JPG,ISIC_8344196.JPG,false,1,keypress(m),500,207962.29999995232,207961.90000009537,204685.257,204693.29999995232,204701.923,207968.459,8,400,16,,ISIC_0028379.JPG
break,html.Screen,4_15_1,2023-10-31T23:34:55.599Z,,0,,,NaN,,,,,,false,,,,207963.29999995232,207963.10000014305,,207962.70000004768,,207968.459,8,400,,,
break_continue,html.Screen,4_15_2,2023-10-31T23:34:55.600Z,,0,,,NaN,,,,,,false,,,,207963.70000004768,207963.60000014305,,207963.5,,207968.459,8,400,,,
sequence,flow.Sequence,4_15,2023-10-31T23:34:55.600Z,,0,,,3261.6770001430414,completion,,,,,false,,,,207963.90000009537,207963.60000014305,204685.257,204693.29999995232,204701.923,207968.459,8,400,,,
trial,html.Screen,4_16_0,2023-10-31T23:34:58.886Z,,0,1,,3281.441000095365,response,ISIC_7140778.JPG,8,ISIC_4645995.JPG,ISIC_4645995.JPG,false,0,keypress(z),500,211250.29999995232,211249.90000009537,207951.793,207964,207968.459,211251.661,8,400,17,,ISIC_7140778.JPG
break,html.Screen,4_16_1,2023-10-31T23:34:58.887Z,,0,,,NaN,,,,,,false,,,,211251.29999995232,211251.10000014305,,211250.60000014305,,211251.661,8,400,,,
break_continue,html.Screen,4_16_2,2023-10-31T23:34:58.887Z,,0,,,NaN,,,,,,false,,,,211251.70000004768,211251.5,,211251.40000009537,,211251.661,8,400,,,
sequence,flow.Sequence,4_16,2023-10-31T23:34:58.888Z,,0,,,3283.0409999999974,completion,,,,,false,,,,211251.79999995232,211251.5,207951.793,207964,207968.459,211251.661,8,400,,,
trial,html.Screen,4_17_0,2023-10-31T23:35:02.717Z,,0,1,,3829.339000000007,response,ISIC_1258763.JPG,7,ISIC_0030407.JPG,ISIC_1258763.JPG,false,1,keypress(m),500,215081.29999995232,215081,211234.995,211252,211251.661,215085.665,8,400,18,,ISIC_0030407.JPG
break,html.Screen,4_17_1,2023-10-31T23:35:02.718Z,,0,,,NaN,,,,,,false,,,,215082.20000004768,215082.10000014305,,215081.70000004768,,215085.665,8,400,,,
break_continue,html.Screen,4_17_2,2023-10-31T23:35:02.718Z,,0,,,NaN,,,,,,false,,,,215082.60000014305,215082.5,,215082.40000009537,,215085.665,8,400,,,
sequence,flow.Sequence,4_17,2023-10-31T23:35:02.718Z,,0,,,3830.839000000007,completion,,,,,false,,,,215082.79999995232,215082.5,211234.995,211251.90000009537,211251.661,215085.665,8,400,,,
trial,html.Screen,4_18_0,2023-10-31T23:35:05.969Z,,0,1,,3247.5350000476756,response,ISIC_5611010.JPG,8,ISIC_4789377.JPG,ISIC_4789377.JPG,false,0,keypress(z),500,218333.70000004768,218333.20000004768,215068.999,215083,215085.665,218335.535,8,400,19,,ISIC_5611010.JPG
break,html.Screen,4_18_1,2023-10-31T23:35:05.970Z,,0,,,NaN,,,,,,false,,,,218334.5,218334.40000009537,,218333.90000009537,,218335.535,8,400,,,
break_continue,html.Screen,4_18_2,2023-10-31T23:35:05.970Z,,0,,,NaN,,,,,,false,,,,218335,218334.79999995232,,218334.79999995232,,218335.535,8,400,,,
sequence,flow.Sequence,4_18,2023-10-31T23:35:05.971Z,,0,,,3249.134999952308,completion,,,,,false,,,,218335.20000004768,218334.79999995232,215068.999,215082.90000009537,215085.665,218335.535,8,400,,,
trial,html.Screen,4_19_0,2023-10-31T23:35:09.113Z,,0,1,,3141.5650001430477,response,ISIC_0025238.JPG,8,ISIC_0062443.JPG,ISIC_0025238.JPG,false,1,keypress(m),500,221477.5,221477.10000014305,218318.869,218335.29999995232,218335.535,221485.409,8,400,20,,ISIC_0062443.JPG
break,html.Screen,4_19_1,2023-10-31T23:35:09.114Z,,0,,,NaN,,,,,,false,,,,221478.5,221478.29999995232,,221477.79999995232,,221485.409,8,400,,,
break_continue,html.Screen,4_19_2,2023-10-31T23:35:09.114Z,,0,,,NaN,,,,,,false,,,,221478.90000009537,221478.79999995232,,221478.60000014305,,221485.409,8,400,,,
sequence,flow.Sequence,4_19,2023-10-31T23:35:09.114Z,,0,,,3143.264999952313,completion,,,,,false,,,,221479.10000014305,221478.79999995232,218318.869,218335.20000004768,218335.535,221485.409,8,400,,,
trial,html.Screen,4_20_0,2023-10-31T23:35:13.071Z,,0,1,,3950.390999952302,response,ISIC_7505369.JPG,6,ISIC_0025755.JPG,ISIC_0025755.JPG,false,0,keypress(z),500,225436.40000009537,225435.79999995232,221468.743,221479.29999995232,221485.409,225452.678,8,400,21,,ISIC_7505369.JPG
break,html.Screen,4_20_1,2023-10-31T23:35:13.072Z,,0,,,NaN,,,,,,false,,,,225437.29999995232,225437.20000004768,,225436.60000014305,,225452.678,8,400,,,
break_continue,html.Screen,4_20_2,2023-10-31T23:35:13.073Z,,0,,,NaN,,,,,,false,,,,225437.60000014305,225437.5,,225437.40000009537,,225452.678,8,400,,,
sequence,flow.Sequence,4_20,2023-10-31T23:35:13.073Z,,0,,,3952.090999999986,completion,,,,,false,,,,225437.79999995232,225437.5,221468.743,221479.20000004768,221485.409,225452.678,8,400,,,
trial,html.Screen,4_21_0,2023-10-31T23:35:16.438Z,,0,1,,3349.5220000476693,response,ISIC_0014059.JPG,7,ISIC_3959570.JPG,ISIC_3959570.JPG,false,0,keypress(z),500,228802.60000014305,228802.20000004768,225436.012,225437.90000009537,225452.678,228819.21,8,400,22,,ISIC_0014059.JPG
break,html.Screen,4_21_1,2023-10-31T23:35:16.439Z,,0,,,NaN,,,,,,false,,,,228803.5,228803.40000009537,,228803,,228819.21,8,400,,,
break_continue,html.Screen,4_21_2,2023-10-31T23:35:16.439Z,,0,,,NaN,,,,,,false,,,,228803.90000009537,228803.79999995232,,228803.70000004768,,228819.21,8,400,,,
sequence,flow.Sequence,4_21,2023-10-31T23:35:16.439Z,,0,,,3351.121999952302,completion,,,,,false,,,,228804.10000014305,228803.79999995232,225436.012,225437.90000009537,225452.678,228819.21,8,400,,,
trial,html.Screen,4_22_0,2023-10-31T23:35:19.725Z,,0,1,,3270.0899999523244,response,ISIC_0055820.JPG,8,ISIC_9122215.JPG,ISIC_9122215.JPG,false,0,keypress(z),500,232089.79999995232,232089.29999995232,228802.544,228804.40000009537,228819.21,232103.202,8,400,23,,ISIC_0055820.JPG
break,html.Screen,4_22_1,2023-10-31T23:35:19.725Z,,0,,,NaN,,,,,,false,,,,232090.70000004768,232090.5,,232090,,232103.202,8,400,,,
break_continue,html.Screen,4_22_2,2023-10-31T23:35:19.726Z,,0,,,NaN,,,,,,false,,,,232090.90000009537,232090.79999995232,,232090.79999995232,,232103.202,8,400,,,
sequence,flow.Sequence,4_22,2023-10-31T23:35:19.726Z,,0,,,3271.5899999523244,completion,,,,,false,,,,232091.10000014305,232090.79999995232,228802.544,228804.29999995232,228819.21,232103.202,8,400,,,
trial,html.Screen,4_23_0,2023-10-31T23:35:23.029Z,,0,1,,3291.198000095377,response,ISIC_0061630.JPG,7,ISIC_0025523.JPG,ISIC_0061630.JPG,false,1,keypress(m),500,235394.79999995232,235394.40000009537,232086.536,232091.29999995232,232103.202,235419.736,8,400,24,,ISIC_0025523.JPG
break,html.Screen,4_23_1,2023-10-31T23:35:23.030Z,,0,,,NaN,,,,,,false,,,,235395.70000004768,235395.5,,235395.10000014305,,235419.736,8,400,,,
break_continue,html.Screen,4_23_2,2023-10-31T23:35:23.031Z,,0,,,NaN,,,,,,false,,,,235396.10000014305,235395.90000009537,,235395.79999995232,,235419.736,8,400,,,
sequence,flow.Sequence,4_23,2023-10-31T23:35:23.031Z,,0,,,3292.698000095377,completion,,,,,false,,,,235396.20000004768,235395.90000009537,232086.536,232091.29999995232,232103.202,235419.736,8,400,,,
trial,html.Screen,4_24_0,2023-10-31T23:35:26.747Z,,0,1,,3692.2639999999956,response,ISIC_0034199.JPG,8,ISIC_5122220.JPG,ISIC_5122220.JPG,false,0,keypress(z),500,239112.40000009537,239112,235403.07,235396.29999995232,235419.736,239119.588,8,400,25,,ISIC_0034199.JPG
break,html.Screen,4_24_1,2023-10-31T23:35:26.748Z,,0,,,NaN,,,,,,false,,,,239113.29999995232,239113.20000004768,,239112.70000004768,,239119.588,8,400,,,
break_continue,html.Screen,4_24_2,2023-10-31T23:35:26.748Z,,0,,,NaN,,,,,,false,,,,239113.70000004768,239113.60000014305,,239113.5,,239119.588,8,400,,,
sequence,flow.Sequence,4_24,2023-10-31T23:35:26.748Z,,0,,,3693.8640001430467,completion,,,,,false,,,,239113.79999995232,239113.60000014305,235403.07,235396.29999995232,235419.736,239119.588,8,400,,,
trial,html.Screen,4_25_0,2023-10-31T23:35:30.465Z,,0,1,,3710.3120000953786,response,ISIC_8253317.JPG,8,ISIC_0682543.JPG,ISIC_0682543.JPG,false,0,keypress(z),500,242830.29999995232,242829.90000009537,239102.922,239114,239119.588,242836.78,8,400,26,,ISIC_8253317.JPG
break,html.Screen,4_25_1,2023-10-31T23:35:30.466Z,,0,,,NaN,,,,,,false,,,,242831.29999995232,242831.20000004768,,242830.70000004768,,242836.78,8,400,,,
break_continue,html.Screen,4_25_2,2023-10-31T23:35:30.466Z,,0,,,NaN,,,,,,false,,,,242831.79999995232,242831.60000014305,,242831.40000009537,,242836.78,8,400,,,
sequence,flow.Sequence,4_25,2023-10-31T23:35:30.466Z,,0,,,3712.0120001430623,completion,,,,,false,,,,242831.90000009537,242831.60000014305,239102.922,239113.90000009537,239119.588,242836.78,8,400,,,
trial,html.Screen,4_26_0,2023-10-31T23:35:33.894Z,,0,1,,3422.720000000001,response,ISIC_5065360.JPG,8,ISIC_0064141.JPG,ISIC_0064141.JPG,false,0,keypress(z),500,246260,246259.5,242820.114,242832,242836.78,246269.976,8,400,27,,ISIC_5065360.JPG
break,html.Screen,4_26_1,2023-10-31T23:35:33.895Z,,0,,,NaN,,,,,,false,,,,246260.70000004768,246260.60000014305,,246260.29999995232,,246269.976,8,400,,,
break_continue,html.Screen,4_26_2,2023-10-31T23:35:33.895Z,,0,,,NaN,,,,,,false,,,,246260.90000009537,246260.90000009537,,246260.79999995232,,246269.976,8,400,,,
sequence,flow.Sequence,4_26,2023-10-31T23:35:33.895Z,,0,,,3424.1200000953686,completion,,,,,false,,,,246261,246260.90000009537,242820.114,242832,242836.78,246269.976,8,400,,,
trial,html.Screen,4_27_0,2023-10-31T23:35:37.134Z,,0,1,,3229.823999952321,response,ISIC_0032265.JPG,8,ISIC_0919467.JPG,ISIC_0919467.JPG,false,0,keypress(z),500,249500.10000014305,249499.79999995232,246253.31,246261.10000014305,246269.976,249503.18,8,400,28,,ISIC_0032265.JPG
break,html.Screen,4_27_1,2023-10-31T23:35:37.135Z,,0,,,NaN,,,,,,false,,,,249500.79999995232,249500.70000004768,,249500.40000009537,,249503.18,8,400,,,
break_continue,html.Screen,4_27_2,2023-10-31T23:35:37.135Z,,0,,,NaN,,,,,,false,,,,249501.10000014305,249500.90000009537,,249500.90000009537,,249503.18,8,400,,,
sequence,flow.Sequence,4_27,2023-10-31T23:35:37.135Z,,0,,,3230.9240000953723,completion,,,,,false,,,,249501.10000014305,249500.90000009537,246253.31,246261.10000014305,246269.976,249503.18,8,400,,,
trial,html.Screen,4_28_0,2023-10-31T23:35:40.647Z,,0,1,,3509.0200000476907,response,ISIC_3234908.JPG,8,ISIC_0029322.JPG,ISIC_0029322.JPG,false,0,keypress(z),500,253012.70000004768,253012.20000004768,249486.514,249501.20000004768,249503.18,253020.48,8,400,29,,ISIC_3234908.JPG
break,html.Screen,4_28_1,2023-10-31T23:35:40.648Z,,0,,,NaN,,,,,,false,,,,253013.70000004768,253013.5,,253013.10000014305,,253020.48,8,400,,,
break_continue,html.Screen,4_28_2,2023-10-31T23:35:40.648Z,,0,,,NaN,,,,,,false,,,,253014,253014,,253013.90000009537,,253020.48,8,400,,,
sequence,flow.Sequence,4_28,2023-10-31T23:35:40.648Z,,0,,,3510.820000000007,completion,,,,,false,,,,253014.29999995232,253014,249486.514,249501.20000004768,249503.18,253020.48,8,400,,,
trial,html.Screen,4_29_0,2023-10-31T23:35:44.365Z,,0,1,,3710.7200000476732,response,ISIC_0010308.JPG,8,ISIC_0162967.JPG,ISIC_0162967.JPG,false,0,keypress(z),500,256731.60000014305,256731.20000004768,253003.814,253014.40000009537,253020.48,256736.998,8,400,30,,ISIC_0010308.JPG
break,html.Screen,4_29_1,2023-10-31T23:35:44.366Z,,0,,,NaN,,,,,,false,,,,256732.5,256732.40000009537,,256731.79999995232,,256736.998,8,400,,,
break_continue,html.Screen,4_29_2,2023-10-31T23:35:44.367Z,,0,,,NaN,,,,,,false,,,,256732.90000009537,256732.79999995232,,256732.60000014305,,256736.998,8,400,,,
sequence,flow.Sequence,4_29,2023-10-31T23:35:44.367Z,,0,,,3712.319999952306,completion,,,,,false,,,,256733.10000014305,256732.79999995232,253003.814,253014.29999995232,253020.48,256736.998,8,400,,,
trial,html.Screen,4_30_0,2023-10-31T23:35:47.634Z,,0,1,,3263.102000143059,response,ISIC_5877410.JPG,5,ISIC_2801008.JPG,ISIC_2801008.JPG,false,0,keypress(z),500,260000.60000014305,260000.10000014305,256720.332,256733.20000004768,256736.998,260003.534,8,400,31,,ISIC_5877410.JPG
break,html.Screen,4_30_1,2023-10-31T23:35:47.635Z,,0,,,NaN,,,,,,false,,,,260001.5,260001.40000009537,,260000.79999995232,,260003.534,8,400,,,
break_continue,html.Screen,4_30_2,2023-10-31T23:35:47.635Z,,0,,,NaN,,,,,,false,,,,260001.90000009537,260001.79999995232,,260001.60000014305,,260003.534,8,400,,,
sequence,flow.Sequence,4_30,2023-10-31T23:35:47.636Z,,0,,,3264.801999952324,completion,,,,,false,,,,260002.10000014305,260001.79999995232,256720.332,256733.10000014305,256736.998,260003.534,8,400,,,
trial,html.Screen,4_31_0,2023-10-31T23:35:51.431Z,,0,1,,3793.066000143037,response,ISIC_5484086.JPG,5,ISIC_0001101.JPG,ISIC_5484086.JPG,false,1,keypress(m),500,263797.10000014305,263796.60000014305,259986.868,260002.10000014305,260003.534,263804.163,8,400,32,,ISIC_0001101.JPG
break,html.Screen,4_31_1,2023-10-31T23:35:51.431Z,,0,,,NaN,,,,,,false,,,,263798,263797.90000009537,,263797.2999999523,,263804.163,8,400,,,
break_continue,html.Screen,4_31_2,2023-10-31T23:35:51.432Z,,0,,,NaN,,,,,,false,,,,263798.40000009537,263798.2000000477,,263798.2000000477,,263804.163,8,400,,,
sequence,flow.Sequence,4_31,2023-10-31T23:35:51.432Z,,0,,,3794.6660000476695,completion,,,,,false,,,,263798.5,263798.2000000477,259986.868,260002.10000014305,260003.534,263804.163,8,400,,,
trial,html.Screen,4_32_0,2023-10-31T23:35:55.470Z,,0,1,,4032.3369999999995,response,ISIC_1985436.JPG,8,ISIC_2160913.JPG,ISIC_2160913.JPG,false,0,keypress(z),500,267836.7999999523,267836.5,263787.497,263798.7000000477,263804.163,267854.001,8,400,33,,ISIC_1985436.JPG
break,html.Screen,4_32_1,2023-10-31T23:35:55.471Z,,0,,,NaN,,,,,,false,,,,267837.5,267837.40000009537,,267837,,267854.001,8,400,,,
break_continue,html.Screen,4_32_2,2023-10-31T23:35:55.471Z,,0,,,NaN,,,,,,false,,,,267837.7000000477,267837.7000000477,,267837.60000014305,,267854.001,8,400,,,
sequence,flow.Sequence,4_32,2023-10-31T23:35:55.471Z,,0,,,4033.5370000476833,completion,,,,,false,,,,267837.90000009537,267837.7000000477,263787.497,263798.60000014305,263804.163,267854.001,8,400,,,
trial,html.Screen,4_33_0,2023-10-31T23:35:58.723Z,,0,1,,3235.1990000476944,response,ISIC_0031310.JPG,6,ISIC_0028949.JPG,ISIC_0028949.JPG,false,0,keypress(z),500,271089.5,271089.2000000477,267837.335,267837.90000009537,267854.001,271103.871,8,400,34,,ISIC_0031310.JPG
break,html.Screen,4_33_1,2023-10-31T23:35:58.723Z,,0,,,NaN,,,,,,false,,,,271090.2000000477,271090.10000014305,,271089.7000000477,,271103.871,8,400,,,
break_continue,html.Screen,4_33_2,2023-10-31T23:35:58.724Z,,0,,,NaN,,,,,,false,,,,271090.5,271090.40000009537,,271090.2999999523,,271103.871,8,400,,,
sequence,flow.Sequence,4_33,2023-10-31T23:35:58.724Z,,0,,,3236.399000095378,completion,,,,,false,,,,271090.60000014305,271090.40000009537,267837.335,267837.90000009537,267854.001,271103.871,8,400,,,
trial,html.Screen,4_34_0,2023-10-31T23:36:02.651Z,,0,1,,3914.2290001430665,response,ISIC_7604870.JPG,8,ISIC_0262770.JPG,ISIC_7604870.JPG,false,1,keypress(m),500,275018.40000009537,275018.10000014305,271087.205,271090.60000014305,271103.871,275021.238,8,400,35,,ISIC_0262770.JPG
break,html.Screen,4_34_1,2023-10-31T23:36:02.652Z,,0,,,NaN,,,,,,false,,,,275019.10000014305,275019,,275018.7000000477,,275021.238,8,400,,,
break_continue,html.Screen,4_34_2,2023-10-31T23:36:02.652Z,,0,,,NaN,,,,,,false,,,,275019.2999999523,275019.2000000477,,275019.10000014305,,275021.238,8,400,,,
sequence,flow.Sequence,4_34,2023-10-31T23:36:02.652Z,,0,,,3915.329000047699,completion,,,,,false,,,,275019.40000009537,275019.2000000477,271087.205,271090.60000014305,271103.871,275021.238,8,400,,,
trial,html.Screen,4_35_0,2023-10-31T23:36:05.984Z,,0,1,,3329.261999999988,response,ISIC_3180213.JPG,8,ISIC_5194331.JPG,ISIC_3180213.JPG,false,1,keypress(m),500,278351,278350.5,275004.572,275019.40000009537,275021.238,278354.438,8,400,36,,ISIC_5194331.JPG
break,html.Screen,4_35_1,2023-10-31T23:36:05.985Z,,0,,,NaN,,,,,,false,,,,278352,278351.7999999523,,278351.2999999523,,278354.438,8,400,,,
break_continue,html.Screen,4_35_2,2023-10-31T23:36:05.985Z,,0,,,NaN,,,,,,false,,,,278352.2999999523,278352.2000000477,,278352.10000014305,,278354.438,8,400,,,
sequence,flow.Sequence,4_35,2023-10-31T23:36:05.985Z,,0,,,3330.9620000476716,completion,,,,,false,,,,278352.5,278352.2000000477,275004.572,275019.40000009537,275021.238,278354.438,8,400,,,
trial,html.Screen,4_36_0,2023-10-31T23:36:09.061Z,,0,1,,3073.8619999522925,response,ISIC_0025751.JPG,6,ISIC_0033881.JPG,ISIC_0033881.JPG,false,0,keypress(z),500,281428.7999999523,281428.2999999523,278337.772,278352.60000014305,278354.438,281437.648,8,400,37,,ISIC_0025751.JPG
break,html.Screen,4_36_1,2023-10-31T23:36:09.062Z,,0,,,NaN,,,,,,false,,,,281429.7999999523,281429.7000000477,,281429.2000000477,,281437.648,8,400,,,
break_continue,html.Screen,4_36_2,2023-10-31T23:36:09.063Z,,0,,,NaN,,,,,,false,,,,281430.2000000477,281430.10000014305,,281429.90000009537,,281437.648,8,400,,,
sequence,flow.Sequence,4_36,2023-10-31T23:36:09.063Z,,0,,,3075.6620001430274,completion,,,,,false,,,,281430.40000009537,281430.10000014305,278337.772,278352.60000014305,278354.438,281437.648,8,400,,,
trial,html.Screen,4_37_0,2023-10-31T23:36:12.348Z,,0,1,,3277.252000095381,response,ISIC_8135931.JPG,6,ISIC_6344073.JPG,ISIC_6344073.JPG,false,0,keypress(z),500,284715.2999999523,284714.90000009537,281420.982,281430.40000009537,281437.648,284721.589,8,400,38,,ISIC_8135931.JPG
break,html.Screen,4_37_1,2023-10-31T23:36:12.349Z,,0,,,NaN,,,,,,false,,,,284716.2999999523,284716.10000014305,,284715.7000000477,,284721.589,8,400,,,
break_continue,html.Screen,4_37_2,2023-10-31T23:36:12.349Z,,0,,,NaN,,,,,,false,,,,284716.60000014305,284716.5,,284716.40000009537,,284721.589,8,400,,,
sequence,flow.Sequence,4_37,2023-10-31T23:36:12.349Z,,0,,,3278.8520000000135,completion,,,,,false,,,,284716.7000000477,284716.5,281420.982,281430.40000009537,281437.648,284721.589,8,400,,,
trial,html.Screen,4_38_0,2023-10-31T23:36:16.115Z,,0,1,,3760.710999952338,response,ISIC_0479264.JPG,6,ISIC_3212781.JPG,ISIC_3212781.JPG,false,0,keypress(z),500,288482.7999999523,288482.2999999523,284704.923,284716.90000009537,284721.589,288488.105,8,400,39,,ISIC_0479264.JPG
break,html.Screen,4_38_1,2023-10-31T23:36:16.116Z,,0,,,NaN,,,,,,false,,,,288483.7000000477,288483.60000014305,,288483,,288488.105,8,400,,,
break_continue,html.Screen,4_38_2,2023-10-31T23:36:16.116Z,,0,,,NaN,,,,,,false,,,,288484.2000000477,288484.10000014305,,288483.90000009537,,288488.105,8,400,,,
sequence,flow.Sequence,4_38,2023-10-31T23:36:16.117Z,,0,,,3762.511000143073,completion,,,,,false,,,,288484.2999999523,288484.10000014305,284704.923,284716.90000009537,284721.589,288488.105,8,400,,,
trial,html.Screen,4_39_0,2023-10-31T23:36:19.530Z,,0,1,,3409.194999952335,response,ISIC_6443700.JPG,6,ISIC_9335652.JPG,ISIC_9335652.JPG,false,0,keypress(z),500,291897.7999999523,291897.2999999523,288471.439,288484.40000009537,288488.105,291904.635,8,400,40,,ISIC_6443700.JPG
break,html.Screen,4_39_1,2023-10-31T23:36:19.531Z,,0,,,NaN,,,,,,false,,,,291898.7999999523,291898.7000000477,,291898.10000014305,,291904.635,8,400,,,
break_continue,html.Screen,4_39_2,2023-10-31T23:36:19.531Z,,0,,,NaN,,,,,,false,,,,291899.10000014305,291899,,291898.90000009537,,291904.635,8,400,,,
sequence,flow.Sequence,4_39,2023-10-31T23:36:19.531Z,,0,,,3410.8950000000186,completion,,,,,false,,,,291899.2999999523,291899,288471.439,288484.40000009537,288488.105,291904.635,8,400,,,
trial,html.Screen,4_40_0,2023-10-31T23:36:22.704Z,,0,1,,3167.465000143042,response,ISIC_2161819.JPG,8,ISIC_3897960.JPG,ISIC_2161819.JPG,false,1,keypress(m),500,295072.2999999523,295072.10000014305,291887.969,291899.40000009537,291904.635,295088.62,8,400,41,,ISIC_3897960.JPG
break,html.Screen,4_40_1,2023-10-31T23:36:22.705Z,,0,,,NaN,,,,,,false,,,,295072.7999999523,295072.7000000477,,295072.40000009537,,295088.62,8,400,,,
break_continue,html.Screen,4_40_2,2023-10-31T23:36:22.705Z,,0,,,NaN,,,,,,false,,,,295073,295072.90000009537,,295072.90000009537,,295088.62,8,400,,,
sequence,flow.Sequence,4_40,2023-10-31T23:36:22.705Z,,0,,,3168.265000095358,completion,,,,,false,,,,295073.10000014305,295072.90000009537,291887.969,291899.2999999523,291904.635,295088.62,8,400,,,
trial,html.Screen,4_41_0,2023-10-31T23:36:25.925Z,,0,1,,3203.980000143056,response,ISIC_0033154.JPG,7,ISIC_1983754.JPG,ISIC_1983754.JPG,false,0,keypress(z),500,298293.10000014305,298292.60000014305,295071.954,295073.2000000477,295088.62,298305.158,8,400,42,,ISIC_0033154.JPG
break,html.Screen,4_41_1,2023-10-31T23:36:25.926Z,,0,,,NaN,,,,,,false,,,,298294,298293.7999999523,,298293.40000009537,,298305.158,8,400,,,
break_continue,html.Screen,4_41_2,2023-10-31T23:36:25.926Z,,0,,,NaN,,,,,,false,,,,298294.2999999523,298294.2999999523,,298294.10000014305,,298305.158,8,400,,,
sequence,flow.Sequence,4_41,2023-10-31T23:36:25.926Z,,0,,,3205.679999952321,completion,,,,,false,,,,298294.5,298294.2999999523,295071.954,295073.2000000477,295088.62,298305.158,8,400,,,
trial,html.Screen,4_42_0,2023-10-31T23:36:29.948Z,,0,1,,4011.1419999523205,response,ISIC_1020369.JPG,8,ISIC_0813342.JPG,ISIC_0813342.JPG,false,0,keypress(z),500,302316.7000000477,302316.2999999523,298288.492,298294.7000000477,298305.158,302321.664,8,400,43,,ISIC_1020369.JPG
break,html.Screen,4_42_1,2023-10-31T23:36:29.949Z,,0,,,NaN,,,,,,false,,,,302317.60000014305,302317.40000009537,,302316.90000009537,,302321.664,8,400,,,
break_continue,html.Screen,4_42_2,2023-10-31T23:36:29.950Z,,0,,,NaN,,,,,,false,,,,302318,302317.7999999523,,302317.7000000477,,302321.664,8,400,,,
sequence,flow.Sequence,4_42,2023-10-31T23:36:29.950Z,,0,,,4012.6419999523205,completion,,,,,false,,,,302318.2000000477,302317.7999999523,298288.492,298294.60000014305,298305.158,302321.664,8,400,,,
trial,html.Screen,4_43_0,2023-10-31T23:36:33.619Z,,0,1,,3664.9360001430614,response,ISIC_2948811.JPG,7,ISIC_8384985.JPG,ISIC_8384985.JPG,false,0,keypress(z),500,305987.10000014305,305986.60000014305,302304.998,302318.2999999523,302321.664,305988.959,8,400,44,,ISIC_2948811.JPG
break,html.Screen,4_43_1,2023-10-31T23:36:33.620Z,,0,,,NaN,,,,,,false,,,,305988.2000000477,305988,,305987.40000009537,,305988.959,8,400,,,
break_continue,html.Screen,4_43_2,2023-10-31T23:36:33.620Z,,0,,,NaN,,,,,,false,,,,305988.60000014305,305988.5,,305988.40000009537,,305988.959,8,400,,,
sequence,flow.Sequence,4_43,2023-10-31T23:36:33.620Z,,0,,,3666.8360000000102,completion,,,,,false,,,,305988.7000000477,305988.5,302304.998,302318.2999999523,302321.664,305988.959,8,400,,,
trial,html.Screen,4_44_0,2023-10-31T23:36:37.558Z,,0,1,,3937.340999952343,response,ISIC_3181358.JPG,8,ISIC_7956417.JPG,ISIC_7956417.JPG,false,0,keypress(z),500,309926.7999999523,309926.2999999523,305972.293,305988.7999999523,305988.959,309938.801,8,400,45,,ISIC_3181358.JPG
break,html.Screen,4_44_1,2023-10-31T23:36:37.559Z,,0,,,NaN,,,,,,false,,,,309927.7000000477,309927.5,,309927,,309938.801,8,400,,,
break_continue,html.Screen,4_44_2,2023-10-31T23:36:37.559Z,,0,,,NaN,,,,,,false,,,,309928.10000014305,309927.90000009537,,309927.7999999523,,309938.801,8,400,,,
sequence,flow.Sequence,4_44,2023-10-31T23:36:37.560Z,,0,,,3938.941000095394,completion,,,,,false,,,,309928.2000000477,309927.90000009537,305972.293,305988.7999999523,305988.959,309938.801,8,400,,,
trial,html.Screen,4_45_0,2023-10-31T23:36:40.672Z,,0,1,,3101.2990001430735,response,ISIC_9499787.JPG,8,ISIC_0013953.JPG,ISIC_0013953.JPG,false,0,keypress(z),500,313040.60000014305,313040.10000014305,309922.135,309928.40000009537,309938.801,313055.343,8,400,46,,ISIC_9499787.JPG
break,html.Screen,4_45_1,2023-10-31T23:36:40.673Z,,0,,,NaN,,,,,,false,,,,313041.5,313041.2999999523,,313040.90000009537,,313055.343,8,400,,,
break_continue,html.Screen,4_45_2,2023-10-31T23:36:40.673Z,,0,,,NaN,,,,,,false,,,,313041.90000009537,313041.7999999523,,313041.7000000477,,313055.343,8,400,,,
sequence,flow.Sequence,4_45,2023-10-31T23:36:40.673Z,,0,,,3102.9989999523386,completion,,,,,false,,,,313042.10000014305,313041.7999999523,309922.135,309928.2999999523,309938.801,313055.343,8,400,,,
trial,html.Screen,4_46_0,2023-10-31T23:36:44.630Z,,0,1,,3943.6570000000065,response,ISIC_2275181.JPG,6,ISIC_1937197.JPG,ISIC_1937197.JPG,false,0,keypress(z),500,316999.40000009537,316999,313038.677,313042.2000000477,313055.343,317005.984,8,400,47,,ISIC_2275181.JPG
break,html.Screen,4_46_1,2023-10-31T23:36:44.631Z,,0,,,NaN,,,,,,false,,,,317000.40000009537,317000.2000000477,,316999.7000000477,,317005.984,8,400,,,
break_continue,html.Screen,4_46_2,2023-10-31T23:36:44.632Z,,0,,,NaN,,,,,,false,,,,317000.7000000477,317000.60000014305,,317000.40000009537,,317005.984,8,400,,,
sequence,flow.Sequence,4_46,2023-10-31T23:36:44.632Z,,0,,,3945.2570001430577,completion,,,,,false,,,,317000.90000009537,317000.60000014305,313038.677,313042.10000014305,313055.343,317005.984,8,400,,,
trial,html.Screen,4_47_0,2023-10-31T23:36:48.238Z,,0,1,,3600.216000047687,response,ISIC_0026509.JPG,7,ISIC_2998367.JPG,ISIC_2998367.JPG,false,0,keypress(z),500,320606.7000000477,320606.2000000477,316989.318,317001,317005.984,320622.506,8,400,48,,ISIC_0026509.JPG
break,html.Screen,4_47_1,2023-10-31T23:36:48.239Z,,0,,,NaN,,,,,,false,,,,320607.60000014305,320607.5,,320606.90000009537,,320622.506,8,400,,,
break_continue,html.Screen,4_47_2,2023-10-31T23:36:48.239Z,,0,,,NaN,,,,,,false,,,,320607.90000009537,320607.7999999523,,320607.7999999523,,320622.506,8,400,,,
sequence,flow.Sequence,4_47,2023-10-31T23:36:48.239Z,,0,,,3601.8159999523195,completion,,,,,false,,,,320608.10000014305,320607.7999999523,316989.318,317001,317005.984,320622.506,8,400,,,
trial,html.Screen,4_48_0,2023-10-31T23:36:51.445Z,,0,1,,3190.6940000476898,response,ISIC_0010792.JPG,5,ISIC_0060705.JPG,ISIC_0010792.JPG,false,1,keypress(m),500,323813.7000000477,323813.2000000477,320605.84,320608.2999999523,320622.506,323822.378,8,400,49,,ISIC_0060705.JPG
break,html.Screen,4_48_1,2023-10-31T23:36:51.445Z,,0,,,NaN,,,,,,false,,,,323814.7000000477,323814.60000014305,,323814,,323822.378,8,400,,,
break_continue,html.Screen,4_48_2,2023-10-31T23:36:51.446Z,,0,,,NaN,,,,,,false,,,,323815.10000014305,323814.90000009537,,323814.90000009537,,323822.378,8,400,,,
sequence,flow.Sequence,4_48,2023-10-31T23:36:51.446Z,,0,,,3192.3940000953735,completion,,,,,false,,,,323815.2999999523,323814.90000009537,320605.84,320608.2000000477,320622.506,323822.378,8,400,,,
trial,html.Screen,4_49_0,2023-10-31T23:36:55.804Z,,0,1,,4350.121999999974,response,ISIC_8551124.JPG,8,ISIC_0014826.JPG,ISIC_8551124.JPG,false,1,keypress(m),500,328172.90000009537,328172.5,323805.712,323815.40000009537,323822.378,328189.671,8,400,50,,ISIC_0014826.JPG
break,html.Screen,4_49_1,2023-10-31T23:37:05.806Z,,0,,,10000.46100000001,timeout,,,,,false,,,,338176.2000000477,338173.466,328173.005,328173.2000000477,328189.671,338190.132,8,400,,,
break_continue,html.Screen,4_49_2,2023-10-31T23:37:06.933Z,,0,,,1098.5680000477005,response,,,,,false,continue,keypress(Space),,339303.10000014305,339288.7000000477,338173.466,338176.40000009537,338190.132,339306.754,8,400,,,
sequence,flow.Sequence,4_49,2023-10-31T23:37:06.933Z,,0,,,15466.322000047658,completion,,,,,false,,,,339303.2999999523,339288.7000000477,323805.712,323815.2999999523,323822.378,339306.754,8,400,,,
trial,html.Screen,4_50_0,2023-10-31T23:37:10.552Z,,0,2,,3615.2459999999846,response,ISIC_0069668.JPG,8,ISIC_0702876.JPG,ISIC_0702876.JPG,false,0,keypress(z),500,342922.5,342922,339290.088,339303.2999999523,339306.754,342939.942,8,400,1,,ISIC_0069668.JPG
break,html.Screen,4_50_1,2023-10-31T23:37:10.553Z,,0,,,NaN,,,,,,false,,,,342923.5,342923.2000000477,,342922.7999999523,,342939.942,8,400,,,
break_continue,html.Screen,4_50_2,2023-10-31T23:37:10.554Z,,0,,,NaN,,,,,,false,,,,342923.7999999523,342923.60000014305,,342923.60000014305,,342939.942,8,400,,,
sequence,flow.Sequence,4_50,2023-10-31T23:37:10.554Z,,0,,,3616.846000143036,completion,,,,,false,,,,342923.90000009537,342923.60000014305,339290.088,339303.2999999523,339306.754,342939.942,8,400,,,
trial,html.Screen,4_51_0,2023-10-31T23:37:13.892Z,,0,2,,3321.3579999523354,response,ISIC_0056127.JPG,7,ISIC_0070974.JPG,ISIC_0070974.JPG,false,0,keypress(z),500,346261.7999999523,346261.2999999523,342923.276,342924.10000014305,342939.942,346273.142,8,400,2,,ISIC_0056127.JPG
break,html.Screen,4_51_1,2023-10-31T23:37:13.893Z,,0,,,NaN,,,,,,false,,,,346262.7000000477,346262.60000014305,,346262,,346273.142,8,400,,,
break_continue,html.Screen,4_51_2,2023-10-31T23:37:13.893Z,,0,,,NaN,,,,,,false,,,,346263.2000000477,346263,,346262.7999999523,,346273.142,8,400,,,
sequence,flow.Sequence,4_51,2023-10-31T23:37:13.893Z,,0,,,3323.058000000019,completion,,,,,false,,,,346263.2999999523,346263,342923.276,342924.10000014305,342939.942,346273.142,8,400,,,
trial,html.Screen,4_52_0,2023-10-31T23:37:17.916Z,,0,2,,4012.758000095375,response,ISIC_3566243.JPG,8,ISIC_0033876.JPG,ISIC_3566243.JPG,false,1,keypress(m),500,350286.40000009537,350285.90000009537,346256.476,346263.40000009537,346273.142,350290.42,8,400,3,,ISIC_0033876.JPG
break,html.Screen,4_52_1,2023-10-31T23:37:17.917Z,,0,,,NaN,,,,,,false,,,,350287.40000009537,350287.2000000477,,350286.7000000477,,350290.42,8,400,,,
break_continue,html.Screen,4_52_2,2023-10-31T23:37:17.917Z,,0,,,NaN,,,,,,false,,,,350287.7000000477,350287.60000014305,,350287.5,,350290.42,8,400,,,
sequence,flow.Sequence,4_52,2023-10-31T23:37:17.917Z,,0,,,4014.4580001430586,completion,,,,,false,,,,350287.90000009537,350287.60000014305,346256.476,346263.40000009537,346273.142,350290.42,8,400,,,
trial,html.Screen,4_53_0,2023-10-31T23:37:20.884Z,,0,2,,2963.2800000477,response,ISIC_5820693.JPG,8,ISIC_0067597.JPG,ISIC_5820693.JPG,false,1,keypress(m),500,353254.10000014305,353253.7000000477,350273.754,350288,350290.42,353256.968,8,400,4,,ISIC_0067597.JPG
break,html.Screen,4_53_1,2023-10-31T23:37:20.884Z,,0,,,NaN,,,,,,false,,,,353254.7999999523,353254.7000000477,,353254.2999999523,,353256.968,8,400,,,
break_continue,html.Screen,4_53_2,2023-10-31T23:37:20.885Z,,0,,,NaN,,,,,,false,,,,353255,353254.90000009537,,353254.7999999523,,353256.968,8,400,,,
sequence,flow.Sequence,4_53,2023-10-31T23:37:20.885Z,,0,,,2964.4800000953837,completion,,,,,false,,,,353255.2000000477,353254.90000009537,350273.754,350287.90000009537,350290.42,353256.968,8,400,,,
trial,html.Screen,4_54_0,2023-10-31T23:37:24.681Z,,0,2,,3794.331999952323,response,ISIC_8796968.JPG,7,ISIC_7853136.JPG,ISIC_7853136.JPG,false,0,keypress(z),500,357051.7999999523,357051.2999999523,353240.302,353255.2000000477,353256.968,357056.816,8,400,5,,ISIC_8796968.JPG
break,html.Screen,4_54_1,2023-10-31T23:37:24.682Z,,0,,,NaN,,,,,,false,,,,357052.90000009537,357052.7000000477,,357052.10000014305,,357056.816,8,400,,,
break_continue,html.Screen,4_54_2,2023-10-31T23:37:24.683Z,,0,,,NaN,,,,,,false,,,,357053.2000000477,357053.10000014305,,357053,,357056.816,8,400,,,
sequence,flow.Sequence,4_54,2023-10-31T23:37:24.683Z,,0,,,3796.1320001430577,completion,,,,,false,,,,357053.40000009537,357053.10000014305,353240.302,353255.2000000477,353256.968,357056.816,8,400,,,
trial,html.Screen,4_55_0,2023-10-31T23:37:27.791Z,,0,2,,3104.2840001430595,response,ISIC_8613657.JPG,4,ISIC_0067027.JPG,ISIC_8613657.JPG,false,1,keypress(m),500,360161.60000014305,360161.10000014305,357040.15,357053.5,357056.816,360174.113,8,400,6,,ISIC_0067027.JPG
break,html.Screen,4_55_1,2023-10-31T23:37:27.792Z,,0,,,NaN,,,,,,false,,,,360162.5,360162.40000009537,,360161.90000009537,,360174.113,8,400,,,
break_continue,html.Screen,4_55_2,2023-10-31T23:37:27.792Z,,0,,,NaN,,,,,,false,,,,360162.90000009537,360162.7999999523,,360162.60000014305,,360174.113,8,400,,,
sequence,flow.Sequence,4_55,2023-10-31T23:37:27.792Z,,0,,,3105.9839999523247,completion,,,,,false,,,,360163,360162.7999999523,357040.15,357053.5,357056.816,360174.113,8,400,,,
trial,html.Screen,4_56_0,2023-10-31T23:37:31.190Z,,0,2,,3386.5870000476716,response,ISIC_0056531.JPG,9,ISIC_7181296.JPG,ISIC_0056531.JPG,false,1,keypress(m),500,363561.2000000477,363560.7000000477,360157.447,360163.10000014305,360174.113,363573.977,8,400,7,,ISIC_7181296.JPG
break,html.Screen,4_56_1,2023-10-31T23:37:31.191Z,,0,,,NaN,,,,,,false,,,,363562.2999999523,363562.10000014305,,363561.5,,363573.977,8,400,,,
break_continue,html.Screen,4_56_2,2023-10-31T23:37:31.192Z,,0,,,NaN,,,,,,false,,,,363562.7000000477,363562.5,,363562.40000009537,,363573.977,8,400,,,
sequence,flow.Sequence,4_56,2023-10-31T23:37:31.192Z,,0,,,3388.386999999988,completion,,,,,false,,,,363562.7999999523,363562.5,360157.447,360163.10000014305,360174.113,363573.977,8,400,,,
trial,html.Screen,4_57_0,2023-10-31T23:37:34.543Z,,0,2,,3339.22300004767,response,ISIC_9622250.JPG,7,ISIC_6978997.JPG,ISIC_9622250.JPG,false,1,keypress(m),500,366913.7000000477,366913.2000000477,363557.311,363562.90000009537,363573.977,366940.509,8,400,8,,ISIC_6978997.JPG
break,html.Screen,4_57_1,2023-10-31T23:37:34.544Z,,0,,,NaN,,,,,,false,,,,366914.7000000477,366914.5,,366914,,366940.509,8,400,,,
break_continue,html.Screen,4_57_2,2023-10-31T23:37:34.544Z,,0,,,NaN,,,,,,false,,,,366915,366914.90000009537,,366914.7999999523,,366940.509,8,400,,,
sequence,flow.Sequence,4_57,2023-10-31T23:37:34.544Z,,0,,,3340.923000095354,completion,,,,,false,,,,366915.2000000477,366914.90000009537,363557.311,363562.90000009537,363573.977,366940.509,8,400,,,
trial,html.Screen,4_58_0,2023-10-31T23:37:37.556Z,,0,2,,2986.3910000953474,response,ISIC_0000168.JPG,7,ISIC_7642500.JPG,ISIC_7642500.JPG,false,0,keypress(z),500,369927.2999999523,369926.90000009537,366923.843,366915.40000009537,366940.509,369941.171,8,400,9,,ISIC_0000168.JPG
break,html.Screen,4_58_1,2023-10-31T23:37:37.557Z,,0,,,NaN,,,,,,false,,,,369928.2000000477,369928,,369927.5,,369941.171,8,400,,,
break_continue,html.Screen,4_58_2,2023-10-31T23:37:37.557Z,,0,,,NaN,,,,,,false,,,,369928.60000014305,369928.40000009537,,369928.2999999523,,369941.171,8,400,,,
sequence,flow.Sequence,4_58,2023-10-31T23:37:37.558Z,,0,,,2987.8910000953474,completion,,,,,false,,,,369928.7000000477,369928.40000009537,366923.843,366915.2999999523,366940.509,369941.171,8,400,,,
trial,html.Screen,4_59_0,2023-10-31T23:37:41.439Z,,0,2,,3868.7290000953944,response,ISIC_0000558.JPG,8,ISIC_1871890.JPG,ISIC_1871890.JPG,false,0,keypress(z),500,373810.40000009537,373809.90000009537,369924.505,369928.90000009537,369941.171,373824.349,8,400,10,,ISIC_0000558.JPG
break,html.Screen,4_59_1,2023-10-31T23:37:41.440Z,,0,,,NaN,,,,,,false,,,,373811,373810.90000009537,,373810.60000014305,,373824.349,8,400,,,
break_continue,html.Screen,4_59_2,2023-10-31T23:37:41.440Z,,0,,,NaN,,,,,,false,,,,373811.2000000477,373811.2000000477,,373811.10000014305,,373824.349,8,400,,,
sequence,flow.Sequence,4_59,2023-10-31T23:37:41.440Z,,0,,,3870.0290000477107,completion,,,,,false,,,,373811.40000009537,373811.2000000477,369924.505,369928.90000009537,369941.171,373824.349,8,400,,,
trial,html.Screen,4_60_0,2023-10-31T23:37:44.615Z,,0,2,,3161.7510001430637,response,ISIC_0063842.JPG,8,ISIC_4303228.JPG,ISIC_4303228.JPG,false,0,keypress(z),500,376986.40000009537,376986.10000014305,373807.683,373811.40000009537,373824.349,376990.889,8,400,11,,ISIC_0063842.JPG
break,html.Screen,4_60_1,2023-10-31T23:37:44.616Z,,0,,,NaN,,,,,,false,,,,376987.40000009537,376987.2000000477,,376986.7000000477,,376990.889,8,400,,,
break_continue,html.Screen,4_60_2,2023-10-31T23:37:44.616Z,,0,,,NaN,,,,,,false,,,,376987.7000000477,376987.60000014305,,376987.5,,376990.889,8,400,,,
sequence,flow.Sequence,4_60,2023-10-31T23:37:44.616Z,,0,,,3163.2510001430637,completion,,,,,false,,,,376987.7999999523,376987.60000014305,373807.683,373811.40000009537,373824.349,376990.889,8,400,,,
trial,html.Screen,4_61_0,2023-10-31T23:37:47.920Z,,0,2,,3300.1109999999753,response,ISIC_0031422.JPG,8,ISIC_0024586.JPG,ISIC_0031422.JPG,false,1,keypress(m),500,380291.40000009537,380291,376974.223,376988,376990.889,380308.211,8,400,12,,ISIC_0024586.JPG
break,html.Screen,4_61_1,2023-10-31T23:37:47.920Z,,0,,,NaN,,,,,,false,,,,380292.10000014305,380292,,380291.7000000477,,380308.211,8,400,,,
break_continue,html.Screen,4_61_2,2023-10-31T23:37:47.921Z,,0,,,NaN,,,,,,false,,,,380292.2999999523,380292.2999999523,,380292.2000000477,,380308.211,8,400,,,
sequence,flow.Sequence,4_61,2023-10-31T23:37:47.921Z,,0,,,3301.4109999522916,completion,,,,,false,,,,380292.40000009537,380292.2999999523,376974.223,376987.90000009537,376990.889,380308.211,8,400,,,
trial,html.Screen,4_62_0,2023-10-31T23:37:51.029Z,,0,2,,3092.588999952306,response,ISIC_0069918.JPG,8,ISIC_5167209.JPG,ISIC_0069918.JPG,false,1,keypress(m),500,383401.2000000477,383400.7999999523,380291.545,380292.5,380308.211,383408.087,8,400,13,,ISIC_5167209.JPG
break,html.Screen,4_62_1,2023-10-31T23:37:51.030Z,,0,,,NaN,,,,,,false,,,,383402.10000014305,383401.7999999523,,383401.5,,383408.087,8,400,,,
break_continue,html.Screen,4_62_2,2023-10-31T23:37:51.031Z,,0,,,NaN,,,,,,false,,,,383402.2999999523,383402.2999999523,,383402.2000000477,,383408.087,8,400,,,
sequence,flow.Sequence,4_62,2023-10-31T23:37:51.031Z,,0,,,3094.088999952306,completion,,,,,false,,,,383402.40000009537,383402.2999999523,380291.545,380292.5,380308.211,383408.087,8,400,,,
trial,html.Screen,4_63_0,2023-10-31T23:37:54.843Z,,0,2,,3806.4130000000005,response,ISIC_0067873.JPG,8,ISIC_0061870.JPG,ISIC_0061870.JPG,false,0,keypress(z),500,387215.10000014305,387214.5,383391.421,383402.60000014305,383408.087,387224.601,8,400,14,,ISIC_0067873.JPG
break,html.Screen,4_63_1,2023-10-31T23:37:54.844Z,,0,,,NaN,,,,,,false,,,,387216.10000014305,387215.7999999523,,387215.40000009537,,387224.601,8,400,,,
break_continue,html.Screen,4_63_2,2023-10-31T23:37:54.844Z,,0,,,NaN,,,,,,false,,,,387216.5,387216.2999999523,,387216.2000000477,,387224.601,8,400,,,
sequence,flow.Sequence,4_63,2023-10-31T23:37:54.845Z,,0,,,3808.2129999523167,completion,,,,,false,,,,387216.60000014305,387216.2999999523,383391.421,383402.5,383408.087,387224.601,8,400,,,
trial,html.Screen,4_64_0,2023-10-31T23:37:58.706Z,,0,2,,3852.799000095343,response,ISIC_5718805.JPG,6,ISIC_2027392.JPG,ISIC_5718805.JPG,false,1,keypress(m),500,391077.7999999523,391077.40000009537,387207.935,387216.7000000477,387224.601,391091.874,8,400,15,,ISIC_2027392.JPG
break,html.Screen,4_64_1,2023-10-31T23:37:58.706Z,,0,,,NaN,,,,,,false,,,,391078.40000009537,391078.2999999523,,391078,,391091.874,8,400,,,
break_continue,html.Screen,4_64_2,2023-10-31T23:37:58.706Z,,0,,,NaN,,,,,,false,,,,391078.60000014305,391078.60000014305,,391078.5,,391091.874,8,400,,,
sequence,flow.Sequence,4_64,2023-10-31T23:37:58.707Z,,0,,,3853.999000143027,completion,,,,,false,,,,391078.7000000477,391078.60000014305,387207.935,387216.7000000477,387224.601,391091.874,8,400,,,
trial,html.Screen,4_65_0,2023-10-31T23:38:02.024Z,,0,2,,3303.7260001430404,response,ISIC_7503950.JPG,7,ISIC_0000026.JPG,ISIC_0000026.JPG,false,0,keypress(z),500,394396,394395.60000014305,391075.208,391078.7000000477,391091.874,394408.408,8,400,16,,ISIC_7503950.JPG
break,html.Screen,4_65_1,2023-10-31T23:38:02.025Z,,0,,,NaN,,,,,,false,,,,394397,394396.90000009537,,394396.40000009537,,394408.408,8,400,,,
break_continue,html.Screen,4_65_2,2023-10-31T23:38:02.025Z,,0,,,NaN,,,,,,false,,,,394397.40000009537,394397.2999999523,,394397.10000014305,,394408.408,8,400,,,
sequence,flow.Sequence,4_65,2023-10-31T23:38:02.025Z,,0,,,3305.4259999523056,completion,,,,,false,,,,394397.5,394397.2999999523,391075.208,391078.7000000477,391091.874,394408.408,8,400,,,
trial,html.Screen,4_66_0,2023-10-31T23:38:05.840Z,,0,2,,3803.8919999523205,response,ISIC_0010213.JPG,7,ISIC_0000516.JPG,ISIC_0000516.JPG,false,0,keypress(z),500,398212.7999999523,398212.2999999523,394391.742,394397.60000014305,394408.408,398224.922,8,400,17,,ISIC_0010213.JPG
break,html.Screen,4_66_1,2023-10-31T23:38:05.841Z,,0,,,NaN,,,,,,false,,,,398213.7999999523,398213.60000014305,,398213.10000014305,,398224.922,8,400,,,
break_continue,html.Screen,4_66_2,2023-10-31T23:38:05.842Z,,0,,,NaN,,,,,,false,,,,398214.10000014305,398214,,398213.90000009537,,398224.922,8,400,,,
sequence,flow.Sequence,4_66,2023-10-31T23:38:05.842Z,,0,,,3805.592000000004,completion,,,,,false,,,,398214.2999999523,398214,394391.742,394397.60000014305,394408.408,398224.922,8,400,,,
trial,html.Screen,4_67_0,2023-10-31T23:38:09.307Z,,0,2,,3453.778000047663,response,ISIC_0069591.JPG,7,ISIC_0010838.JPG,ISIC_0010838.JPG,false,0,keypress(z),500,401679.10000014305,401678.7000000477,398208.256,398214.40000009537,398224.922,401692.231,8,400,18,,ISIC_0069591.JPG
break,html.Screen,4_67_1,2023-10-31T23:38:09.308Z,,0,,,NaN,,,,,,false,,,,401680.2000000477,401679.90000009537,,401679.40000009537,,401692.231,8,400,,,
break_continue,html.Screen,4_67_2,2023-10-31T23:38:09.308Z,,0,,,NaN,,,,,,false,,,,401680.5,401680.40000009537,,401680.2999999523,,401692.231,8,400,,,
sequence,flow.Sequence,4_67,2023-10-31T23:38:09.308Z,,0,,,3455.478000095347,completion,,,,,false,,,,401680.7000000477,401680.40000009537,398208.256,398214.40000009537,398224.922,401692.231,8,400,,,
trial,html.Screen,4_68_0,2023-10-31T23:38:12.416Z,,0,2,,3096.268999999971,response,ISIC_7137773.JPG,7,ISIC_0027085.JPG,ISIC_0027085.JPG,false,0,keypress(z),500,404789,404788.5,401675.565,401680.90000009537,401692.231,404792.107,8,400,19,,ISIC_7137773.JPG
break,html.Screen,4_68_1,2023-10-31T23:38:12.417Z,,0,,,NaN,,,,,,false,,,,404790,404789.90000009537,,404789.2999999523,,404792.107,8,400,,,
break_continue,html.Screen,4_68_2,2023-10-31T23:38:12.418Z,,0,,,NaN,,,,,,false,,,,404790.2999999523,404790.2999999523,,404790.2000000477,,404792.107,8,400,,,
sequence,flow.Sequence,4_68,2023-10-31T23:38:12.418Z,,0,,,3098.0689999522874,completion,,,,,false,,,,404790.5,404790.2999999523,401675.565,401680.7999999523,401692.231,404792.107,8,400,,,
trial,html.Screen,4_69_0,2023-10-31T23:38:15.669Z,,0,2,,3249.7930000953493,response,ISIC_0026586.JPG,8,ISIC_0786233.JPG,ISIC_0786233.JPG,false,0,keypress(z),500,408042.2999999523,408041.90000009537,404775.441,404790.60000014305,404792.107,408058.643,8,400,20,,ISIC_0026586.JPG
break,html.Screen,4_69_1,2023-10-31T23:38:15.670Z,,0,,,NaN,,,,,,false,,,,408043.40000009537,408043.2000000477,,408042.60000014305,,408058.643,8,400,,,
break_continue,html.Screen,4_69_2,2023-10-31T23:38:15.671Z,,0,,,NaN,,,,,,false,,,,408043.7999999523,408043.60000014305,,408043.40000009537,,408058.643,8,400,,,
sequence,flow.Sequence,4_69,2023-10-31T23:38:15.671Z,,0,,,3251.493000143033,completion,,,,,false,,,,408043.90000009537,408043.60000014305,404775.441,404790.5,404792.107,408058.643,8,400,,,
trial,html.Screen,4_70_0,2023-10-31T23:38:19.130Z,,0,2,,3443.4570001430693,response,ISIC_0059768.JPG,7,ISIC_0060032.JPG,ISIC_0060032.JPG,false,0,keypress(z),500,411502.5,411502.10000014305,408041.977,408044.10000014305,408058.643,411509.237,8,400,21,,ISIC_0059768.JPG
break,html.Screen,4_70_1,2023-10-31T23:38:19.130Z,,0,,,NaN,,,,,,false,,,,411503.60000014305,411503.2999999523,,411502.7999999523,,411509.237,8,400,,,
break_continue,html.Screen,4_70_2,2023-10-31T23:38:19.131Z,,0,,,NaN,,,,,,false,,,,411503.90000009537,411503.7000000477,,411503.60000014305,,411509.237,8,400,,,
sequence,flow.Sequence,4_70,2023-10-31T23:38:19.131Z,,0,,,3445.057000047702,completion,,,,,false,,,,411504,411503.7000000477,408041.977,408043.90000009537,408058.643,411509.237,8,400,,,
trial,html.Screen,4_71_0,2023-10-31T23:38:23.024Z,,0,2,,3887.6630000953446,response,ISIC_0032844.JPG,8,ISIC_9512048.JPG,ISIC_0032844.JPG,false,1,keypress(m),500,415397.40000009537,415396.90000009537,411492.571,411504.2000000477,411509.237,415409.081,8,400,22,,ISIC_9512048.JPG
break,html.Screen,4_71_1,2023-10-31T23:38:23.025Z,,0,,,NaN,,,,,,false,,,,415398.40000009537,415398.2000000477,,415397.7000000477,,415409.081,8,400,,,
break_continue,html.Screen,4_71_2,2023-10-31T23:38:23.025Z,,0,,,NaN,,,,,,false,,,,415398.7000000477,415398.60000014305,,415398.60000014305,,415409.081,8,400,,,
sequence,flow.Sequence,4_71,2023-10-31T23:38:23.026Z,,0,,,3889.3630001430283,completion,,,,,false,,,,415398.7999999523,415398.60000014305,411492.571,411504.10000014305,411509.237,415409.081,8,400,,,
trial,html.Screen,4_72_0,2023-10-31T23:38:26.021Z,,0,2,,2985.2189999523107,response,ISIC_7394897.JPG,8,ISIC_0031246.JPG,ISIC_7394897.JPG,false,1,keypress(m),500,418394.7000000477,418394.2999999523,415392.415,415398.90000009537,415409.081,418408.961,8,400,23,,ISIC_0031246.JPG
break,html.Screen,4_72_1,2023-10-31T23:38:26.022Z,,0,,,NaN,,,,,,false,,,,418395.7000000477,418395.5,,418395,,418408.961,8,400,,,
break_continue,html.Screen,4_72_2,2023-10-31T23:38:26.023Z,,0,,,NaN,,,,,,false,,,,418396.10000014305,418395.90000009537,,418395.7999999523,,418408.961,8,400,,,
sequence,flow.Sequence,4_72,2023-10-31T23:38:26.023Z,,0,,,2986.819000095362,completion,,,,,false,,,,418396.2999999523,418395.90000009537,415392.415,415398.90000009537,415409.081,418408.961,8,400,,,
trial,html.Screen,4_73_0,2023-10-31T23:38:29.466Z,,0,2,,3430.5389999999898,response,ISIC_0026552.JPG,5,ISIC_8986997.JPG,ISIC_8986997.JPG,false,0,keypress(z),500,421840,421839.5,418392.295,418396.2999999523,418408.961,421842.927,8,400,24,,ISIC_0026552.JPG
break,html.Screen,4_73_1,2023-10-31T23:38:29.467Z,,0,,,NaN,,,,,,false,,,,421841,421840.7999999523,,421840.2000000477,,421842.927,8,400,,,
break_continue,html.Screen,4_73_2,2023-10-31T23:38:29.468Z,,0,,,NaN,,,,,,false,,,,421841.2999999523,421841.10000014305,,421841.10000014305,,421842.927,8,400,,,
sequence,flow.Sequence,4_73,2023-10-31T23:38:29.468Z,,0,,,3432.139000143041,completion,,,,,false,,,,421841.40000009537,421841.10000014305,418392.295,418396.2999999523,418408.961,421842.927,8,400,,,
trial,html.Screen,4_74_0,2023-10-31T23:38:32.751Z,,0,2,,3281.572999999975,response,ISIC_0027696.JPG,7,ISIC_8194371.JPG,ISIC_8194371.JPG,false,0,keypress(z),500,425125,425124.5,421826.261,421841.5,421842.927,425126.129,8,400,25,,ISIC_0027696.JPG
break,html.Screen,4_74_1,2023-10-31T23:38:32.752Z,,0,,,NaN,,,,,,false,,,,425126,425125.7999999523,,425125.2999999523,,425126.129,8,400,,,
break_continue,html.Screen,4_74_2,2023-10-31T23:38:32.753Z,,0,,,NaN,,,,,,false,,,,425126.40000009537,425126.2000000477,,425126.2000000477,,425126.129,8,400,,,
sequence,flow.Sequence,4_74,2023-10-31T23:38:32.753Z,,0,,,3283.2730000476586,completion,,,,,false,,,,425126.5,425126.2000000477,421826.261,421841.5,421842.927,425126.129,8,400,,,
trial,html.Screen,4_75_0,2023-10-31T23:38:35.924Z,,0,2,,3171.170999952301,response,ISIC_7658276.JPG,7,ISIC_0014782.JPG,ISIC_7658276.JPG,false,1,keypress(m),500,428297.7000000477,428297.2999999523,425109.463,425126.60000014305,425126.129,428326.001,8,400,26,,ISIC_0014782.JPG
break,html.Screen,4_75_1,2023-10-31T23:38:35.925Z,,0,,,NaN,,,,,,false,,,,428298.5,428298.2999999523,,428297.90000009537,,428326.001,8,400,,,
break_continue,html.Screen,4_75_2,2023-10-31T23:38:35.925Z,,0,,,NaN,,,,,,false,,,,428298.7000000477,428298.7000000477,,428298.5,,428326.001,8,400,,,
sequence,flow.Sequence,4_75,2023-10-31T23:38:35.925Z,,0,,,3172.5710000476683,completion,,,,,false,,,,428298.7999999523,428298.7000000477,425109.463,425126.60000014305,425126.129,428326.001,8,400,,,
trial,html.Screen,4_76_0,2023-10-31T23:38:40.234Z,,0,2,,4281.599000143062,response,ISIC_0009893.JPG,8,ISIC_7288818.JPG,ISIC_7288818.JPG,false,0,keypress(z),500,432607.7999999523,432607.60000014305,428309.335,428298.90000009537,428326.001,432609.939,8,400,27,,ISIC_0009893.JPG
break,html.Screen,4_76_1,2023-10-31T23:38:40.234Z,,0,,,NaN,,,,,,false,,,,432608.2000000477,432608.10000014305,,432607.90000009537,,432609.939,8,400,,,
break_continue,html.Screen,4_76_2,2023-10-31T23:38:40.234Z,,0,,,NaN,,,,,,false,,,,432608.2999999523,432608.2000000477,,432608.2000000477,,432609.939,8,400,,,
sequence,flow.Sequence,4_76,2023-10-31T23:38:40.234Z,,0,,,4282.199000047694,completion,,,,,false,,,,432608.40000009537,432608.2000000477,428309.335,428298.90000009537,428326.001,432609.939,8,400,,,
trial,html.Screen,4_77_0,2023-10-31T23:38:44.079Z,,0,2,,3843.161000143038,response,ISIC_0069056.JPG,8,ISIC_0011733.JPG,ISIC_0011733.JPG,false,0,keypress(z),500,436453.60000014305,436453.10000014305,432593.273,432608.40000009537,432609.939,436459.785,8,400,28,,ISIC_0069056.JPG
break,html.Screen,4_77_1,2023-10-31T23:38:44.080Z,,0,,,NaN,,,,,,false,,,,436454.5,436454.2999999523,,436453.90000009537,,436459.785,8,400,,,
break_continue,html.Screen,4_77_2,2023-10-31T23:38:44.081Z,,0,,,NaN,,,,,,false,,,,436454.7999999523,436454.7999999523,,436454.60000014305,,436459.785,8,400,,,
sequence,flow.Sequence,4_77,2023-10-31T23:38:44.081Z,,0,,,3844.8609999523032,completion,,,,,false,,,,436455,436454.7999999523,432593.273,432608.40000009537,432609.939,436459.785,8,400,,,
trial,html.Screen,4_78_0,2023-10-31T23:38:47.780Z,,0,2,,3694.3150001430768,response,ISIC_0066750.JPG,8,ISIC_3218227.JPG,ISIC_3218227.JPG,false,0,keypress(z),500,440154.60000014305,440154.10000014305,436443.119,436455.10000014305,436459.785,440159.637,8,400,29,,ISIC_0066750.JPG
break,html.Screen,4_78_1,2023-10-31T23:38:47.781Z,,0,,,NaN,,,,,,false,,,,440155.5,440155.40000009537,,440154.90000009537,,440159.637,8,400,,,
break_continue,html.Screen,4_78_2,2023-10-31T23:38:47.782Z,,0,,,NaN,,,,,,false,,,,440156,440155.90000009537,,440155.7000000477,,440159.637,8,400,,,
sequence,flow.Sequence,4_78,2023-10-31T23:38:47.782Z,,0,,,3696.115000095393,completion,,,,,false,,,,440156.2000000477,440155.90000009537,436443.119,436455.10000014305,436459.785,440159.637,8,400,,,
trial,html.Screen,4_79_0,2023-10-31T23:38:51.260Z,,0,2,,3473.863000000012,response,ISIC_3877643.JPG,8,ISIC_0147869.JPG,ISIC_0147869.JPG,false,0,keypress(z),500,443634,443633.5,440142.971,440156.2999999523,440159.637,443643.713,8,400,30,,ISIC_3877643.JPG
break,html.Screen,4_79_1,2023-10-31T23:38:51.261Z,,0,,,NaN,,,,,,false,,,,443635,443634.7999999523,,443634.2999999523,,443643.713,8,400,,,
break_continue,html.Screen,4_79_2,2023-10-31T23:38:51.261Z,,0,,,NaN,,,,,,false,,,,443635.40000009537,443635.2000000477,,443635.10000014305,,443643.713,8,400,,,
sequence,flow.Sequence,4_79,2023-10-31T23:38:51.261Z,,0,,,3475.563000047696,completion,,,,,false,,,,443635.5,443635.2000000477,440142.971,440156.2000000477,440159.637,443643.713,8,400,,,
trial,html.Screen,4_80_0,2023-10-31T23:38:55.621Z,,0,2,,4351.787000000011,response,ISIC_6209119.JPG,5,ISIC_3046905.JPG,ISIC_3046905.JPG,false,0,keypress(z),500,447996.10000014305,447995.5,443627.047,443635.60000014305,443643.713,448010.205,8,400,31,,ISIC_6209119.JPG
break,html.Screen,4_80_1,2023-10-31T23:38:55.622Z,,0,,,NaN,,,,,,false,,,,447997,447996.7999999523,,447996.40000009537,,448010.205,8,400,,,
break_continue,html.Screen,4_80_2,2023-10-31T23:38:55.623Z,,0,,,NaN,,,,,,false,,,,447997.40000009537,447997.2999999523,,447997.2000000477,,448010.205,8,400,,,
sequence,flow.Sequence,4_80,2023-10-31T23:38:55.623Z,,0,,,4353.5869999523275,completion,,,,,false,,,,447997.60000014305,447997.2999999523,443627.047,443635.5,443643.713,448010.205,8,400,,,
trial,html.Screen,4_81_0,2023-10-31T23:39:00.683Z,,0,2,,5046.695000095351,response,ISIC_4142019.JPG,8,ISIC_0013497.JPG,ISIC_4142019.JPG,false,1,keypress(m),500,453057.5,453056.90000009537,447993.539,447997.7000000477,448010.205,453060.809,8,400,32,,ISIC_0013497.JPG
break,html.Screen,4_81_1,2023-10-31T23:39:00.684Z,,0,,,NaN,,,,,,false,,,,453058.5,453058.2000000477,,453057.7999999523,,453060.809,8,400,,,
break_continue,html.Screen,4_81_2,2023-10-31T23:39:00.684Z,,0,,,NaN,,,,,,false,,,,453058.7999999523,453058.7000000477,,453058.60000014305,,453060.809,8,400,,,
sequence,flow.Sequence,4_81,2023-10-31T23:39:00.684Z,,0,,,5048.495000047667,completion,,,,,false,,,,453059,453058.7000000477,447993.539,447997.60000014305,448010.205,453060.809,8,400,,,
trial,html.Screen,4_82_0,2023-10-31T23:39:04.353Z,,0,2,,3666.7910001430428,response,ISIC_0031611.JPG,9,ISIC_0013898.JPG,ISIC_0013898.JPG,false,0,keypress(z),500,456728.10000014305,456727.60000014305,453044.143,453059.10000014305,453060.809,456743.995,8,400,33,,ISIC_0031611.JPG
break,html.Screen,4_82_1,2023-10-31T23:39:04.354Z,,0,,,NaN,,,,,,false,,,,456729.2999999523,456729,,456728.60000014305,,456743.995,8,400,,,
break_continue,html.Screen,4_82_2,2023-10-31T23:39:04.355Z,,0,,,NaN,,,,,,false,,,,456729.60000014305,456729.5,,456729.2999999523,,456743.995,8,400,,,
sequence,flow.Sequence,4_82,2023-10-31T23:39:04.355Z,,0,,,3668.6909999999916,completion,,,,,false,,,,456729.7000000477,456729.5,453044.143,453059.10000014305,453060.809,456743.995,8,400,,,
trial,html.Screen,4_83_0,2023-10-31T23:39:07.530Z,,0,2,,3160.605000143056,response,ISIC_0031101.JPG,8,ISIC_0010714.JPG,ISIC_0031101.JPG,false,1,keypress(m),500,459905.10000014305,459904.60000014305,456727.329,456729.90000009537,456743.995,459910.535,8,400,34,,ISIC_0010714.JPG
break,html.Screen,4_83_1,2023-10-31T23:39:07.531Z,,0,,,NaN,,,,,,false,,,,459906,459905.90000009537,,459905.2999999523,,459910.535,8,400,,,
break_continue,html.Screen,4_83_2,2023-10-31T23:39:07.531Z,,0,,,NaN,,,,,,false,,,,459906.40000009537,459906.2999999523,,459906.2000000477,,459910.535,8,400,,,
sequence,flow.Sequence,4_83,2023-10-31T23:39:07.531Z,,0,,,3162.304999952321,completion,,,,,false,,,,459906.60000014305,459906.2999999523,456727.329,456729.7999999523,456743.995,459910.535,8,400,,,
trial,html.Screen,4_84_0,2023-10-31T23:39:12.241Z,,0,2,,4705.365000095393,response,ISIC_0914251.JPG,9,ISIC_4298624.JPG,ISIC_0914251.JPG,false,1,keypress(m),500,464616.2999999523,464615.90000009537,459893.869,459906.7000000477,459910.535,464627.677,8,400,35,,ISIC_4298624.JPG
break,html.Screen,4_84_1,2023-10-31T23:39:12.242Z,,0,,,NaN,,,,,,false,,,,464616.90000009537,464616.7999999523,,464616.5,,464627.677,8,400,,,
break_continue,html.Screen,4_84_2,2023-10-31T23:39:12.242Z,,0,,,NaN,,,,,,false,,,,464617.10000014305,464617,,464616.90000009537,,464627.677,8,400,,,
sequence,flow.Sequence,4_84,2023-10-31T23:39:12.242Z,,0,,,4706.465000000026,completion,,,,,false,,,,464617.2000000477,464617,459893.869,459906.7000000477,459910.535,464627.677,8,400,,,
trial,html.Screen,4_85_0,2023-10-31T23:39:15.526Z,,0,2,,3273.622999952291,response,ISIC_0025327.JPG,7,ISIC_6544382.JPG,ISIC_6544382.JPG,false,0,keypress(z),500,467901.7999999523,467901.2999999523,464611.011,464617.2999999523,464627.677,467910.879,8,400,36,,ISIC_0025327.JPG
break,html.Screen,4_85_1,2023-10-31T23:39:15.527Z,,0,,,NaN,,,,,,false,,,,467902.7000000477,467902.5,,467902,,467910.879,8,400,,,
break_continue,html.Screen,4_85_2,2023-10-31T23:39:15.527Z,,0,,,NaN,,,,,,false,,,,467903,467902.90000009537,,467902.7999999523,,467910.879,8,400,,,
sequence,flow.Sequence,4_85,2023-10-31T23:39:15.528Z,,0,,,3275.2230000953423,completion,,,,,false,,,,467903.10000014305,467902.90000009537,464611.011,464617.2999999523,464627.677,467910.879,8,400,,,
trial,html.Screen,4_86_0,2023-10-31T23:39:18.812Z,,0,2,,3276.6209999999846,response,ISIC_6703027.JPG,4,ISIC_0004728.JPG,ISIC_6703027.JPG,false,1,keypress(m),500,471187.90000009537,471187.5,467894.213,467903.2999999523,467910.879,471194.081,8,400,37,,ISIC_0004728.JPG
break,html.Screen,4_86_1,2023-10-31T23:39:18.813Z,,0,,,NaN,,,,,,false,,,,471188.90000009537,471188.7000000477,,471188.2000000477,,471194.081,8,400,,,
break_continue,html.Screen,4_86_2,2023-10-31T23:39:18.814Z,,0,,,NaN,,,,,,false,,,,471189.2999999523,471189.10000014305,,471189,,471194.081,8,400,,,
sequence,flow.Sequence,4_86,2023-10-31T23:39:18.814Z,,0,,,3278.221000143036,completion,,,,,false,,,,471189.60000014305,471189.10000014305,467894.213,467903.2999999523,467910.879,471194.081,8,400,,,
trial,html.Screen,4_87_0,2023-10-31T23:39:22.113Z,,0,2,,3294.319000095362,response,ISIC_0071245.JPG,7,ISIC_0071050.JPG,ISIC_0071245.JPG,false,1,keypress(m),500,474488.90000009537,474488.40000009537,471177.415,471189.60000014305,471194.081,474511.549,8,400,38,,ISIC_0071050.JPG
break,html.Screen,4_87_1,2023-10-31T23:39:22.114Z,,0,,,NaN,,,,,,false,,,,474489.90000009537,474489.7000000477,,474489.2000000477,,474511.549,8,400,,,
break_continue,html.Screen,4_87_2,2023-10-31T23:39:22.114Z,,0,,,NaN,,,,,,false,,,,474490.2000000477,474490.10000014305,,474489.90000009537,,474511.549,8,400,,,
sequence,flow.Sequence,4_87,2023-10-31T23:39:22.115Z,,0,,,3296.0190001430456,completion,,,,,false,,,,474490.40000009537,474490.10000014305,471177.415,471189.60000014305,471194.081,474511.549,8,400,,,
trial,html.Screen,4_88_0,2023-10-31T23:39:25.960Z,,0,2,,3823.750999952317,response,ISIC_0016033.JPG,8,ISIC_0000078.JPG,ISIC_0000078.JPG,false,0,keypress(z),500,478335.7999999523,478335.2999999523,474494.883,474490.5,474511.549,478344.729,8,400,39,,ISIC_0016033.JPG
break,html.Screen,4_88_1,2023-10-31T23:39:25.961Z,,0,,,NaN,,,,,,false,,,,478336.7999999523,478336.60000014305,,478336,,478344.729,8,400,,,
break_continue,html.Screen,4_88_2,2023-10-31T23:39:25.961Z,,0,,,NaN,,,,,,false,,,,478337.2000000477,478337.10000014305,,478336.90000009537,,478344.729,8,400,,,
sequence,flow.Sequence,4_88,2023-10-31T23:39:25.961Z,,0,,,3825.551000143052,completion,,,,,false,,,,478337.2999999523,478337.10000014305,474494.883,474490.40000009537,474511.549,478344.729,8,400,,,
trial,html.Screen,4_89_0,2023-10-31T23:39:29.039Z,,0,2,,3069.4710000476916,response,ISIC_0653633.JPG,6,ISIC_0034000.JPG,ISIC_0653633.JPG,false,1,keypress(m),500,481414.7000000477,481414.2000000477,478328.063,478337.40000009537,478344.729,481427.939,8,400,40,,ISIC_0034000.JPG
break,html.Screen,4_89_1,2023-10-31T23:39:29.040Z,,0,,,NaN,,,,,,false,,,,481415.7000000477,481415.5,,481415,,481427.939,8,400,,,
break_continue,html.Screen,4_89_2,2023-10-31T23:39:29.040Z,,0,,,NaN,,,,,,false,,,,481416,481415.90000009537,,481415.7000000477,,481427.939,8,400,,,
sequence,flow.Sequence,4_89,2023-10-31T23:39:29.040Z,,0,,,3071.1710000953753,completion,,,,,false,,,,481416.10000014305,481415.90000009537,478328.063,478337.40000009537,478344.729,481427.939,8,400,,,
trial,html.Screen,4_90_0,2023-10-31T23:39:32.389Z,,0,2,,3336.9610000953544,response,ISIC_0013702.JPG,9,ISIC_0032383.JPG,ISIC_0013702.JPG,false,1,keypress(m),500,484765.2999999523,484764.90000009537,481411.273,481416.2999999523,481427.939,484778.473,8,400,41,,ISIC_0032383.JPG
break,html.Screen,4_90_1,2023-10-31T23:39:32.390Z,,0,,,NaN,,,,,,false,,,,484766.2999999523,484766.10000014305,,484765.7000000477,,484778.473,8,400,,,
break_continue,html.Screen,4_90_2,2023-10-31T23:39:32.390Z,,0,,,NaN,,,,,,false,,,,484766.7000000477,484766.60000014305,,484766.40000009537,,484778.473,8,400,,,
sequence,flow.Sequence,4_90,2023-10-31T23:39:32.391Z,,0,,,3338.661000143038,completion,,,,,false,,,,484766.90000009537,484766.60000014305,481411.273,481416.2999999523,481427.939,484778.473,8,400,,,
trial,html.Screen,4_91_0,2023-10-31T23:39:36.059Z,,0,2,,3656.527000000002,response,ISIC_0059432.JPG,9,ISIC_0033998.JPG,ISIC_0033998.JPG,false,0,keypress(z),500,488435.40000009537,488435,484761.807,484767,484778.473,488444.993,8,400,42,,ISIC_0059432.JPG
break,html.Screen,4_91_1,2023-10-31T23:39:36.060Z,,0,,,NaN,,,,,,false,,,,488436,488435.90000009537,,488435.60000014305,,488444.993,8,400,,,
break_continue,html.Screen,4_91_2,2023-10-31T23:39:36.060Z,,0,,,NaN,,,,,,false,,,,488436.2000000477,488436.2000000477,,488436.10000014305,,488444.993,8,400,,,
sequence,flow.Sequence,4_91,2023-10-31T23:39:36.060Z,,0,,,3657.7270000476856,completion,,,,,false,,,,488436.2999999523,488436.2000000477,484761.807,484767,484778.473,488444.993,8,400,,,
trial,html.Screen,4_92_0,2023-10-31T23:39:39.859Z,,0,2,,3789.707000047667,response,ISIC_0305928.JPG,8,ISIC_0058047.JPG,ISIC_0058047.JPG,false,0,keypress(z),500,492235.2000000477,492234.7000000477,488428.327,488436.40000009537,488444.993,492244.841,8,400,43,,ISIC_0305928.JPG
break,html.Screen,4_92_1,2023-10-31T23:39:39.859Z,,0,,,NaN,,,,,,false,,,,492236.2000000477,492235.90000009537,,492235.40000009537,,492244.841,8,400,,,
break_continue,html.Screen,4_92_2,2023-10-31T23:39:39.860Z,,0,,,NaN,,,,,,false,,,,492236.5,492236.2999999523,,492236.2999999523,,492244.841,8,400,,,
sequence,flow.Sequence,4_92,2023-10-31T23:39:39.860Z,,0,,,3791.3069999522995,completion,,,,,false,,,,492236.60000014305,492236.2999999523,488428.327,488436.2999999523,488444.993,492244.841,8,400,,,
trial,html.Screen,4_93_0,2023-10-31T23:39:43.498Z,,0,2,,3629.2590001430362,response,ISIC_0708542.JPG,8,ISIC_6595186.JPG,ISIC_6595186.JPG,false,0,keypress(z),500,495874.60000014305,495874.10000014305,492228.175,492236.7000000477,492244.841,495878.834,8,400,44,,ISIC_0708542.JPG
break,html.Screen,4_93_1,2023-10-31T23:39:43.499Z,,0,,,NaN,,,,,,false,,,,495875.5,495875.40000009537,,495874.90000009537,,495878.834,8,400,,,
break_continue,html.Screen,4_93_2,2023-10-31T23:39:43.499Z,,0,,,NaN,,,,,,false,,,,495875.90000009537,495875.7999999523,,495875.7000000477,,495878.834,8,400,,,
sequence,flow.Sequence,4_93,2023-10-31T23:39:43.499Z,,0,,,3630.9589999523014,completion,,,,,false,,,,495876.10000014305,495875.7999999523,492228.175,492236.7000000477,492244.841,495878.834,8,400,,,
trial,html.Screen,4_94_0,2023-10-31T23:39:46.543Z,,0,2,,3040.8660000477103,response,ISIC_9876515.JPG,8,ISIC_1925623.JPG,ISIC_1925623.JPG,false,0,keypress(z),500,498920.2000000477,498919.7000000477,495862.168,495876.2000000477,495878.834,498928.712,8,400,45,,ISIC_9876515.JPG
break,html.Screen,4_94_1,2023-10-31T23:39:46.544Z,,0,,,NaN,,,,,,false,,,,498921.2000000477,498921,,498920.5,,498928.712,8,400,,,
break_continue,html.Screen,4_94_2,2023-10-31T23:39:46.545Z,,0,,,NaN,,,,,,false,,,,498921.60000014305,498921.5,,498921.40000009537,,498928.712,8,400,,,
sequence,flow.Sequence,4_94,2023-10-31T23:39:46.545Z,,0,,,3042.6660000000265,completion,,,,,false,,,,498921.7000000477,498921.5,495862.168,495876.2000000477,495878.834,498928.712,8,400,,,
trial,html.Screen,4_95_0,2023-10-31T23:39:49.784Z,,0,2,,3232.2880000000005,response,ISIC_0862745.JPG,7,ISIC_0067933.JPG,ISIC_0862745.JPG,false,1,keypress(m),500,502161.5,502161,498912.046,498921.90000009537,498928.712,502178.582,8,400,46,,ISIC_0067933.JPG
break,html.Screen,4_95_1,2023-10-31T23:39:49.785Z,,0,,,NaN,,,,,,false,,,,502162.5,502162.2999999523,,502161.7999999523,,502178.582,8,400,,,
break_continue,html.Screen,4_95_2,2023-10-31T23:39:49.786Z,,0,,,NaN,,,,,,false,,,,502162.90000009537,502162.7999999523,,502162.7000000477,,502178.582,8,400,,,
sequence,flow.Sequence,4_95,2023-10-31T23:39:49.786Z,,0,,,3234.0879999523167,completion,,,,,false,,,,502163.10000014305,502162.7999999523,498912.046,498921.7999999523,498928.712,502178.582,8,400,,,
trial,html.Screen,4_96_0,2023-10-31T23:39:52.911Z,,0,2,,3108.918000000005,response,ISIC_0000043.JPG,7,ISIC_0009947.JPG,ISIC_0009947.JPG,false,0,keypress(z),500,505288.10000014305,505287.5,502161.916,502163.2000000477,502178.582,505295.944,8,400,47,,ISIC_0000043.JPG
break,html.Screen,4_96_1,2023-10-31T23:39:52.912Z,,0,,,NaN,,,,,,false,,,,505289.10000014305,505288.90000009537,,505288.40000009537,,505295.944,8,400,,,
break_continue,html.Screen,4_96_2,2023-10-31T23:39:52.912Z,,0,,,NaN,,,,,,false,,,,505289.5,505289.40000009537,,505289.2000000477,,505295.944,8,400,,,
sequence,flow.Sequence,4_96,2023-10-31T23:39:52.912Z,,0,,,3110.8180000953726,completion,,,,,false,,,,505289.60000014305,505289.40000009537,502161.916,502163.2000000477,502178.582,505295.944,8,400,,,
trial,html.Screen,4_97_0,2023-10-31T23:39:56.132Z,,0,2,,3213.0559999999823,response,ISIC_0033901.JPG,8,ISIC_0012391.JPG,ISIC_0012391.JPG,false,0,keypress(z),500,508509.60000014305,508509,505279.278,505289.7000000477,505295.944,508512.482,8,400,48,,ISIC_0033901.JPG
break,html.Screen,4_97_1,2023-10-31T23:39:56.133Z,,0,,,NaN,,,,,,false,,,,508510.5,508510.40000009537,,508509.90000009537,,508512.482,8,400,,,
break_continue,html.Screen,4_97_2,2023-10-31T23:39:56.134Z,,0,,,NaN,,,,,,false,,,,508510.90000009537,508510.7999999523,,508510.7000000477,,508512.482,8,400,,,
sequence,flow.Sequence,4_97,2023-10-31T23:39:56.134Z,,0,,,3214.8559999522986,completion,,,,,false,,,,508511,508510.7999999523,505279.278,505289.60000014305,505295.944,508512.482,8,400,,,
trial,html.Screen,4_98_0,2023-10-31T23:39:59.804Z,,0,2,,3668.2180000476656,response,ISIC_0013691.JPG,8,ISIC_0033752.JPG,ISIC_0033752.JPG,false,0,keypress(z),500,512181,512180.7000000477,508495.816,508511.2000000477,508512.482,512195.668,8,400,49,,ISIC_0013691.JPG
break,html.Screen,4_98_1,2023-10-31T23:39:59.804Z,,0,,,NaN,,,,,,false,,,,512181.7000000477,512181.60000014305,,512181.2000000477,,512195.668,8,400,,,
break_continue,html.Screen,4_98_2,2023-10-31T23:39:59.804Z,,0,,,NaN,,,,,,false,,,,512181.90000009537,512181.90000009537,,512181.7999999523,,512195.668,8,400,,,
sequence,flow.Sequence,4_98,2023-10-31T23:39:59.805Z,,0,,,3669.4180000953493,completion,,,,,false,,,,512182,512181.90000009537,508495.816,508511.2000000477,508512.482,512195.668,8,400,,,
trial,html.Screen,4_99_0,2023-10-31T23:40:02.944Z,,0,2,,3125.932000143046,response,ISIC_0030718.JPG,6,ISIC_6199335.JPG,ISIC_6199335.JPG,false,0,keypress(z),500,515322.10000014305,515321.60000014305,512179.002,512182.2000000477,512195.668,515329.623,8,400,50,,ISIC_0030718.JPG
break,html.Screen,4_99_1,2023-10-31T23:40:12.939Z,,0,,,10000.34899999993,timeout,,,,,false,,,,525317.4000000954,525313.306,515312.957,515322.2999999523,515329.623,525329.972,8,400,,,
break_continue,html.Screen,4_99_2,2023-10-31T23:40:32.403Z,,0,,,19430.428000095417,response,,,,,false,continue,keypress(Space),,544781.600000143,544760.4000000954,525313.306,525317.600000143,525329.972,544795.86,8,400,,,
sequence,flow.Sequence,4_99,2023-10-31T23:40:32.403Z,,0,,,32564.732000095362,completion,,,,,false,,,,544781.7999999523,544760.4000000954,512179.002,512182.2000000477,512195.668,544795.86,8,400,,,
trial,html.Screen,4_100_0,2023-10-31T23:40:36.007Z,,0,3,,3589.740000143065,response,ISIC_6741865.JPG,8,ISIC_9086288.JPG,ISIC_6741865.JPG,false,1,keypress(m),500,548386.2000000477,548385.600000143,544779.194,544781.9000000954,544795.86,548397.162,8,400,1,,ISIC_9086288.JPG
break,html.Screen,4_100_1,2023-10-31T23:40:36.008Z,,0,,,NaN,,,,,,false,,,,548387.100000143,548386.9000000954,,548386.5,,548397.162,8,400,,,
break_continue,html.Screen,4_100_2,2023-10-31T23:40:36.008Z,,0,,,NaN,,,,,,false,,,,548387.5,548387.4000000954,,548387.2999999523,,548397.162,8,400,,,
sequence,flow.Sequence,4_100,2023-10-31T23:40:36.009Z,,0,,,3591.5400000953814,completion,,,,,false,,,,548387.7000000477,548387.4000000954,544779.194,544781.7999999523,544795.86,548397.162,8,400,,,
trial,html.Screen,4_101_0,2023-10-31T23:40:39.745Z,,0,3,,3726.2380000953563,response,ISIC_0030291.JPG,9,ISIC_1208705.JPG,ISIC_0030291.JPG,false,1,keypress(m),500,552123.7999999523,552123.4000000954,548380.496,548387.7999999523,548397.162,552130.346,8,400,2,,ISIC_1208705.JPG
break,html.Screen,4_101_1,2023-10-31T23:40:39.745Z,,0,,,NaN,,,,,,false,,,,552124.5,552124.4000000954,,552124,,552130.346,8,400,,,
break_continue,html.Screen,4_101_2,2023-10-31T23:40:39.746Z,,0,,,NaN,,,,,,false,,,,552124.7999999523,552124.7000000477,,552124.7000000477,,552130.346,8,400,,,
sequence,flow.Sequence,4_101,2023-10-31T23:40:39.746Z,,0,,,3727.5380000476725,completion,,,,,false,,,,552124.9000000954,552124.7000000477,548380.496,548387.7000000477,548397.162,552130.346,8,400,,,
trial,html.Screen,4_102_0,2023-10-31T23:40:42.709Z,,0,3,,2957.6539999999804,response,ISIC_7189490.JPG,8,ISIC_0031545.JPG,ISIC_7189490.JPG,false,1,keypress(m),500,555088.5,555088,552113.68,552125,552130.346,555096.894,8,400,3,,ISIC_0031545.JPG
break,html.Screen,4_102_1,2023-10-31T23:40:42.710Z,,0,,,NaN,,,,,,false,,,,555089.5,555089.2999999523,,555088.7999999523,,555096.894,8,400,,,
break_continue,html.Screen,4_102_2,2023-10-31T23:40:42.710Z,,0,,,NaN,,,,,,false,,,,555089.9000000954,555089.7000000477,,555089.600000143,,555096.894,8,400,,,
sequence,flow.Sequence,4_102,2023-10-31T23:40:42.711Z,,0,,,2959.354000047664,completion,,,,,false,,,,555090,555089.7000000477,552113.68,552124.9000000954,552130.346,555096.894,8,400,,,
trial,html.Screen,4_103_0,2023-10-31T23:40:45.803Z,,0,3,,3085.3060000477126,response,ISIC_0071783.JPG,7,ISIC_0063081.JPG,ISIC_0071783.JPG,false,1,keypress(m),500,558182.7000000477,558182.2000000477,555080.228,555090.2000000477,555096.894,558197.535,8,400,4,,ISIC_0063081.JPG
break,html.Screen,4_103_1,2023-10-31T23:40:45.804Z,,0,,,NaN,,,,,,false,,,,558183.7000000477,558183.600000143,,558183,,558197.535,8,400,,,
break_continue,html.Screen,4_103_2,2023-10-31T23:40:45.805Z,,0,,,NaN,,,,,,false,,,,558184.100000143,558184,,558183.7999999523,,558197.535,8,400,,,
sequence,flow.Sequence,4_103,2023-10-31T23:40:45.805Z,,0,,,3087.106000000029,completion,,,,,false,,,,558184.2999999523,558184,555080.228,555090.2000000477,555096.894,558197.535,8,400,,,
trial,html.Screen,4_104_0,2023-10-31T23:40:49.794Z,,0,3,,3976.165000047651,response,ISIC_0072730.JPG,6,ISIC_0008423.JPG,ISIC_0072730.JPG,false,1,keypress(m),500,562174.100000143,562173.7000000477,558180.869,558184.4000000954,558197.535,562180.709,8,400,5,,ISIC_0008423.JPG
break,html.Screen,4_104_1,2023-10-31T23:40:49.795Z,,0,,,NaN,,,,,,false,,,,562175,562174.7999999523,,562174.4000000954,,562180.709,8,400,,,
break_continue,html.Screen,4_104_2,2023-10-31T23:40:49.796Z,,0,,,NaN,,,,,,false,,,,562175.4000000954,562175.2999999523,,562175.2000000477,,562180.709,8,400,,,
sequence,flow.Sequence,4_104,2023-10-31T23:40:49.796Z,,0,,,3977.7649999522837,completion,,,,,false,,,,562175.600000143,562175.2999999523,558180.869,558184.4000000954,558197.535,562180.709,8,400,,,
trial,html.Screen,4_105_0,2023-10-31T23:40:53.736Z,,0,3,,3934.6910000953358,response,ISIC_9030482.JPG,8,ISIC_0028780.JPG,ISIC_9030482.JPG,false,1,keypress(m),500,566115.9000000954,566115.4000000954,562164.043,562175.7000000477,562180.709,566131.23,8,400,6,,ISIC_0028780.JPG
break,html.Screen,4_105_1,2023-10-31T23:40:53.737Z,,0,,,NaN,,,,,,false,,,,566116.9000000954,566116.600000143,,566116.2000000477,,566131.23,8,400,,,
break_continue,html.Screen,4_105_2,2023-10-31T23:40:53.737Z,,0,,,NaN,,,,,,false,,,,566117.2000000477,566117.100000143,,566117,,566131.23,8,400,,,
sequence,flow.Sequence,4_105,2023-10-31T23:40:53.738Z,,0,,,3936.3910001430195,completion,,,,,false,,,,566117.2999999523,566117.100000143,562164.043,562175.7000000477,562180.709,566131.23,8,400,,,
trial,html.Screen,4_106_0,2023-10-31T23:40:58.942Z,,0,3,,5190.37000014307,response,ISIC_0021713.JPG,8,ISIC_3913709.JPG,ISIC_3913709.JPG,false,0,keypress(z),500,571322.100000143,571321.600000143,566114.564,566117.600000143,566131.23,571331.022,8,400,7,,ISIC_0021713.JPG
break,html.Screen,4_106_1,2023-10-31T23:40:58.943Z,,0,,,NaN,,,,,,false,,,,571323.100000143,571322.9000000954,,571322.4000000954,,571331.022,8,400,,,
break_continue,html.Screen,4_106_2,2023-10-31T23:40:58.943Z,,0,,,NaN,,,,,,false,,,,571323.4000000954,571323.2999999523,,571323.2000000477,,571331.022,8,400,,,
sequence,flow.Sequence,4_106,2023-10-31T23:40:58.944Z,,0,,,5192.069999952335,completion,,,,,false,,,,571323.5,571323.2999999523,566114.564,566117.5,566131.23,571331.022,8,400,,,
trial,html.Screen,4_107_0,2023-10-31T23:41:01.976Z,,0,3,,3024.6780000476865,response,ISIC_0028422.JPG,8,ISIC_0034202.JPG,ISIC_0028422.JPG,false,1,keypress(m),500,574356.2000000477,574355.7000000477,571314.356,571323.7000000477,571331.022,574364.234,8,400,8,,ISIC_0034202.JPG
break,html.Screen,4_107_1,2023-10-31T23:41:01.977Z,,0,,,NaN,,,,,,false,,,,574357.100000143,574356.9000000954,,574356.4000000954,,574364.234,8,400,,,
break_continue,html.Screen,4_107_2,2023-10-31T23:41:01.977Z,,0,,,NaN,,,,,,false,,,,574357.5,574357.4000000954,,574357.2000000477,,574364.234,8,400,,,
sequence,flow.Sequence,4_107,2023-10-31T23:41:01.977Z,,0,,,3026.37800009537,completion,,,,,false,,,,574357.7000000477,574357.4000000954,571314.356,571323.7000000477,571331.022,574364.234,8,400,,,
trial,html.Screen,4_108_0,2023-10-31T23:41:05.060Z,,0,3,,3075.265999999945,response,ISIC_0010960.JPG,7,ISIC_0059597.JPG,ISIC_0010960.JPG,false,1,keypress(m),500,577440,577439.5,574347.568,574357.7999999523,574364.234,577448.35,8,400,9,,ISIC_0059597.JPG
break,html.Screen,4_108_1,2023-10-31T23:41:05.061Z,,0,,,NaN,,,,,,false,,,,577441,577440.7999999523,,577440.2999999523,,577448.35,8,400,,,
break_continue,html.Screen,4_108_2,2023-10-31T23:41:05.061Z,,0,,,NaN,,,,,,false,,,,577441.4000000954,577441.2000000477,,577441.100000143,,577448.35,8,400,,,
sequence,flow.Sequence,4_108,2023-10-31T23:41:05.061Z,,0,,,3076.9660000476288,completion,,,,,false,,,,577441.5,577441.2000000477,574347.568,574357.7999999523,574364.234,577448.35,8,400,,,
trial,html.Screen,4_109_0,2023-10-31T23:41:08.138Z,,0,3,,3069.6500000000233,response,ISIC_0033104.JPG,6,ISIC_0067521.JPG,ISIC_0033104.JPG,false,1,keypress(m),500,580518.5,580518,577431.684,577441.7000000477,577448.35,580531.56,8,400,10,,ISIC_0067521.JPG
break,html.Screen,4_109_1,2023-10-31T23:41:08.139Z,,0,,,NaN,,,,,,false,,,,580519.5,580519.4000000954,,580518.9000000954,,580531.56,8,400,,,
break_continue,html.Screen,4_109_2,2023-10-31T23:41:08.139Z,,0,,,NaN,,,,,,false,,,,580519.9000000954,580519.7999999523,,580519.7000000477,,580531.56,8,400,,,
sequence,flow.Sequence,4_109,2023-10-31T23:41:08.140Z,,0,,,3071.4499999523396,completion,,,,,false,,,,580520.100000143,580519.7999999523,577431.684,577441.600000143,577448.35,580531.56,8,400,,,
trial,html.Screen,4_110_0,2023-10-31T23:41:12.112Z,,0,3,,3961.140000047628,response,ISIC_5583159.JPG,7,ISIC_5564757.JPG,ISIC_5564757.JPG,false,0,keypress(z),500,584493.100000143,584492.7000000477,580514.894,580520.2000000477,580531.56,584498.068,8,400,11,,ISIC_5583159.JPG
break,html.Screen,4_110_1,2023-10-31T23:41:12.113Z,,0,,,NaN,,,,,,false,,,,584494.100000143,584493.9000000954,,584493.4000000954,,584498.068,8,400,,,
break_continue,html.Screen,4_110_2,2023-10-31T23:41:12.114Z,,0,,,NaN,,,,,,false,,,,584494.4000000954,584494.2999999523,,584494.2000000477,,584498.068,8,400,,,
sequence,flow.Sequence,4_110,2023-10-31T23:41:12.114Z,,0,,,3962.7399999522604,completion,,,,,false,,,,584494.600000143,584494.2999999523,580514.894,580520.2000000477,580531.56,584498.068,8,400,,,
trial,html.Screen,4_111_0,2023-10-31T23:41:15.748Z,,0,3,,3630.3320000953972,response,ISIC_0061583.JPG,7,ISIC_2808622.JPG,ISIC_2808622.JPG,false,0,keypress(z),500,588128.7999999523,588128.4000000954,584481.402,584494.7000000477,584498.068,588132.01,8,400,12,,ISIC_0061583.JPG
break,html.Screen,4_111_1,2023-10-31T23:41:15.749Z,,0,,,NaN,,,,,,false,,,,588129.9000000954,588129.7000000477,,588129.100000143,,588132.01,8,400,,,
break_continue,html.Screen,4_111_2,2023-10-31T23:41:15.749Z,,0,,,NaN,,,,,,false,,,,588130.2999999523,588130.100000143,,588130,,588132.01,8,400,,,
sequence,flow.Sequence,4_111,2023-10-31T23:41:15.750Z,,0,,,3632.032000143081,completion,,,,,false,,,,588130.4000000954,588130.100000143,584481.402,584494.7000000477,584498.068,588132.01,8,400,,,
trial,html.Screen,4_112_0,2023-10-31T23:41:18.795Z,,0,3,,3043.090000143042,response,ISIC_0695029.JPG,5,ISIC_0034287.JPG,ISIC_0695029.JPG,false,1,keypress(m),500,591175.600000143,591175.100000143,588115.344,588130.600000143,588132.01,591181.888,8,400,13,,ISIC_0034287.JPG
break,html.Screen,4_112_1,2023-10-31T23:41:18.795Z,,0,,,NaN,,,,,,false,,,,591176.2999999523,591176.100000143,,591175.7999999523,,591181.888,8,400,,,
break_continue,html.Screen,4_112_2,2023-10-31T23:41:18.795Z,,0,,,NaN,,,,,,false,,,,591176.4000000954,591176.4000000954,,591176.2999999523,,591181.888,8,400,,,
sequence,flow.Sequence,4_112,2023-10-31T23:41:18.796Z,,0,,,3044.390000095358,completion,,,,,false,,,,591176.5,591176.4000000954,588115.344,588130.600000143,588132.01,591181.888,8,400,,,
trial,html.Screen,4_113_0,2023-10-31T23:41:22.021Z,,0,3,,3220.012000095332,response,ISIC_0015411.JPG,7,ISIC_0010651.JPG,ISIC_0010651.JPG,false,0,keypress(z),500,594402.2999999523,594401.9000000954,591165.222,591176.600000143,591181.888,594415.092,8,400,14,,ISIC_0015411.JPG
break,html.Screen,4_113_1,2023-10-31T23:41:22.022Z,,0,,,NaN,,,,,,false,,,,594403.100000143,594402.9000000954,,594402.5,,594415.092,8,400,,,
break_continue,html.Screen,4_113_2,2023-10-31T23:41:22.022Z,,0,,,NaN,,,,,,false,,,,594403.2000000477,594403.2000000477,,594403.100000143,,594415.092,8,400,,,
sequence,flow.Sequence,4_113,2023-10-31T23:41:22.022Z,,0,,,3221.3120000476483,completion,,,,,false,,,,594403.2999999523,594403.2000000477,591165.222,591176.600000143,591181.888,594415.092,8,400,,,
trial,html.Screen,4_114_0,2023-10-31T23:41:26.607Z,,0,3,,4572.808000095421,response,ISIC_0068234.JPG,6,ISIC_0528044.JPG,ISIC_0068234.JPG,false,1,keypress(m),500,598988.4000000954,598987.9000000954,594398.426,594403.4000000954,594415.092,598998.98,8,400,15,,ISIC_0528044.JPG
break,html.Screen,4_114_1,2023-10-31T23:41:26.608Z,,0,,,NaN,,,,,,false,,,,598989.5,598989.2999999523,,598988.7000000477,,598998.98,8,400,,,
break_continue,html.Screen,4_114_2,2023-10-31T23:41:26.609Z,,0,,,NaN,,,,,,false,,,,598989.9000000954,598989.7000000477,,598989.600000143,,598998.98,8,400,,,
sequence,flow.Sequence,4_114,2023-10-31T23:41:26.609Z,,0,,,4574.608000047738,completion,,,,,false,,,,598990,598989.7000000477,594398.426,594403.4000000954,594415.092,598998.98,8,400,,,
trial,html.Screen,4_115_0,2023-10-31T23:41:30.247Z,,0,3,,3628.5200000000186,response,ISIC_0945844.JPG,8,ISIC_0068152.JPG,ISIC_0068152.JPG,false,0,keypress(z),500,602628,602627.5,598982.314,598990,598998.98,602632.168,8,400,16,,ISIC_0945844.JPG
break,html.Screen,4_115_1,2023-10-31T23:41:30.247Z,,0,,,NaN,,,,,,false,,,,602629,602628.7000000477,,602628.2000000477,,602632.168,8,400,,,
break_continue,html.Screen,4_115_2,2023-10-31T23:41:30.248Z,,0,,,NaN,,,,,,false,,,,602629.2999999523,602629.100000143,,602629.100000143,,602632.168,8,400,,,
sequence,flow.Sequence,4_115,2023-10-31T23:41:30.248Z,,0,,,3630.12000014307,completion,,,,,false,,,,602629.5,602629.100000143,598982.314,598990,598998.98,602632.168,8,400,,,
trial,html.Screen,4_116_0,2023-10-31T23:41:33.376Z,,0,3,,3125.032000047737,response,ISIC_0025603.JPG,8,ISIC_0033424.JPG,ISIC_0033424.JPG,false,0,keypress(z),500,605757.7000000477,605757.2000000477,602615.502,602629.600000143,602632.168,605765.376,8,400,17,,ISIC_0025603.JPG
break,html.Screen,4_116_1,2023-10-31T23:41:33.377Z,,0,,,NaN,,,,,,false,,,,605758.7999999523,605758.600000143,,605758,,605765.376,8,400,,,
break_continue,html.Screen,4_116_2,2023-10-31T23:41:33.378Z,,0,,,NaN,,,,,,false,,,,605759.100000143,605758.9000000954,,605758.7999999523,,605765.376,8,400,,,
sequence,flow.Sequence,4_116,2023-10-31T23:41:33.378Z,,0,,,3126.7320000954205,completion,,,,,false,,,,605759.2999999523,605758.9000000954,602615.502,602629.600000143,602632.168,605765.376,8,400,,,
trial,html.Screen,4_117_0,2023-10-31T23:41:36.998Z,,0,3,,3614.02400009532,response,ISIC_0025941.JPG,8,ISIC_7373074.JPG,ISIC_0025941.JPG,false,1,keypress(m),500,609379.9000000954,609379.4000000954,605748.71,605759.2999999523,605765.376,609382.743,8,400,18,,ISIC_7373074.JPG
break,html.Screen,4_117_1,2023-10-31T23:41:36.999Z,,0,,,NaN,,,,,,false,,,,609380.9000000954,609380.7000000477,,609380.2000000477,,609382.743,8,400,,,
break_continue,html.Screen,4_117_2,2023-10-31T23:41:37.000Z,,0,,,NaN,,,,,,false,,,,609381.2999999523,609381.2000000477,,609381,,609382.743,8,400,,,
sequence,flow.Sequence,4_117,2023-10-31T23:41:37.000Z,,0,,,3615.824000047636,completion,,,,,false,,,,609381.5,609381.2000000477,605748.71,605759.2999999523,605765.376,609382.743,8,400,,,
trial,html.Screen,4_118_0,2023-10-31T23:41:40.093Z,,0,3,,3091.8570001430344,response,ISIC_1344537.JPG,7,ISIC_0001480.JPG,ISIC_1344537.JPG,false,1,keypress(m),500,612475,612474.600000143,609366.077,609381.600000143,609382.743,612482.619,8,400,19,,ISIC_0001480.JPG
break,html.Screen,4_118_1,2023-10-31T23:41:40.094Z,,0,,,NaN,,,,,,false,,,,612476,612475.7999999523,,612475.2999999523,,612482.619,8,400,,,
break_continue,html.Screen,4_118_2,2023-10-31T23:41:40.094Z,,0,,,NaN,,,,,,false,,,,612476.2999999523,612476.2000000477,,612476.100000143,,612482.619,8,400,,,
sequence,flow.Sequence,4_118,2023-10-31T23:41:40.095Z,,0,,,3093.457000047667,completion,,,,,false,,,,612476.5,612476.2000000477,609366.077,609381.5,609382.743,612482.619,8,400,,,
trial,html.Screen,4_119_0,2023-10-31T23:41:43.605Z,,0,3,,3504.381000000052,response,ISIC_0002811.JPG,8,ISIC_8773478.JPG,ISIC_8773478.JPG,false,0,keypress(z),500,615987.4000000954,615987,612465.953,612476.7000000477,612482.619,615999.145,8,400,20,,ISIC_0002811.JPG
break,html.Screen,4_119_1,2023-10-31T23:41:43.606Z,,0,,,NaN,,,,,,false,,,,615988.4000000954,615988.2999999523,,615987.7999999523,,615999.145,8,400,,,
break_continue,html.Screen,4_119_2,2023-10-31T23:41:43.607Z,,0,,,NaN,,,,,,false,,,,615988.7999999523,615988.7000000477,,615988.600000143,,615999.145,8,400,,,
sequence,flow.Sequence,4_119,2023-10-31T23:41:43.607Z,,0,,,3506.081000047736,completion,,,,,false,,,,615988.9000000954,615988.7000000477,612465.953,612476.5,612482.619,615999.145,8,400,,,
trial,html.Screen,4_120_0,2023-10-31T23:41:46.843Z,,0,3,,3225.3549999999814,response,ISIC_0012722.JPG,7,ISIC_0033129.JPG,ISIC_0033129.JPG,false,0,keypress(z),500,619224.9000000954,619224.5,615982.479,615989.100000143,615999.145,619249.866,8,400,21,,ISIC_0012722.JPG
break,html.Screen,4_120_1,2023-10-31T23:41:46.844Z,,0,,,NaN,,,,,,false,,,,619226,619225.7000000477,,619225.2000000477,,619249.866,8,400,,,
break_continue,html.Screen,4_120_2,2023-10-31T23:41:46.844Z,,0,,,NaN,,,,,,false,,,,619226.2999999523,619226.100000143,,619226.100000143,,619249.866,8,400,,,
sequence,flow.Sequence,4_120,2023-10-31T23:41:46.844Z,,0,,,3226.9550001430325,completion,,,,,false,,,,619226.5,619226.100000143,615982.479,615989.100000143,615999.145,619249.866,8,400,,,
trial,html.Screen,4_121_0,2023-10-31T23:41:50.276Z,,0,3,,3407.933999952278,response,ISIC_4024062.JPG,8,ISIC_7416587.JPG,ISIC_4024062.JPG,false,1,keypress(m),500,622658.2999999523,622657.7999999523,619232.349,619226.600000143,619249.866,622666.396,8,400,22,,ISIC_7416587.JPG
break,html.Screen,4_121_1,2023-10-31T23:41:50.277Z,,0,,,NaN,,,,,,false,,,,622659.2999999523,622659.100000143,,622658.5,,622666.396,8,400,,,
break_continue,html.Screen,4_121_2,2023-10-31T23:41:50.277Z,,0,,,NaN,,,,,,false,,,,622659.7000000477,622659.600000143,,622659.4000000954,,622666.396,8,400,,,
sequence,flow.Sequence,4_121,2023-10-31T23:41:50.278Z,,0,,,3409.734000143013,completion,,,,,false,,,,622659.9000000954,622659.600000143,619232.349,619226.600000143,619249.866,622666.396,8,400,,,
trial,html.Screen,4_122_0,2023-10-31T23:41:53.544Z,,0,3,,3259.804000047734,response,ISIC_7030404.JPG,8,ISIC_0059707.JPG,ISIC_7030404.JPG,false,1,keypress(m),500,625926.7999999523,625926.2000000477,622649.73,622660,622666.396,625949.598,8,400,23,,ISIC_0059707.JPG
break,html.Screen,4_122_1,2023-10-31T23:41:53.545Z,,0,,,NaN,,,,,,false,,,,625927.7000000477,625927.5,,625927,,625949.598,8,400,,,
break_continue,html.Screen,4_122_2,2023-10-31T23:41:53.546Z,,0,,,NaN,,,,,,false,,,,625928.100000143,625928,,625927.7999999523,,625949.598,8,400,,,
sequence,flow.Sequence,4_122,2023-10-31T23:41:53.546Z,,0,,,3261.6040000000503,completion,,,,,false,,,,625928.2000000477,625928,622649.73,622659.9000000954,622666.396,625949.598,8,400,,,
trial,html.Screen,4_123_0,2023-10-31T23:41:56.814Z,,0,3,,3246.8020000953693,response,ISIC_1608727.JPG,8,ISIC_0060219.JPG,ISIC_1608727.JPG,false,1,keypress(m),500,629196.9000000954,629196.4000000954,625932.932,625928.2999999523,625949.598,629216.134,8,400,24,,ISIC_0060219.JPG
break,html.Screen,4_123_1,2023-10-31T23:41:56.815Z,,0,,,NaN,,,,,,false,,,,629197.9000000954,629197.600000143,,629197.2000000477,,629216.134,8,400,,,
break_continue,html.Screen,4_123_2,2023-10-31T23:41:56.816Z,,0,,,NaN,,,,,,false,,,,629198.2999999523,629198.100000143,,629198,,629216.134,8,400,,,
sequence,flow.Sequence,4_123,2023-10-31T23:41:56.816Z,,0,,,3248.502000143053,completion,,,,,false,,,,629198.5,629198.100000143,625932.932,625928.2999999523,625949.598,629216.134,8,400,,,
trial,html.Screen,4_124_0,2023-10-31T23:42:00.936Z,,0,3,,4101.966000143089,response,ISIC_4151356.JPG,8,ISIC_3842916.JPG,ISIC_3842916.JPG,false,0,keypress(z),500,633318.600000143,633318.100000143,629199.468,629198.5,629216.134,633333.417,8,400,25,,ISIC_4151356.JPG
break,html.Screen,4_124_1,2023-10-31T23:42:00.936Z,,0,,,NaN,,,,,,false,,,,633319.2999999523,633319.100000143,,633318.7000000477,,633333.417,8,400,,,
break_continue,html.Screen,4_124_2,2023-10-31T23:42:00.937Z,,0,,,NaN,,,,,,false,,,,633319.5,633319.4000000954,,633319.2999999523,,633333.417,8,400,,,
sequence,flow.Sequence,4_124,2023-10-31T23:42:00.937Z,,0,,,4103.266000095406,completion,,,,,false,,,,633319.600000143,633319.4000000954,629199.468,629198.5,629216.134,633333.417,8,400,,,
trial,html.Screen,4_125_0,2023-10-31T23:42:04.028Z,,0,3,,3076.582999999984,response,ISIC_0046917.JPG,8,ISIC_7128811.JPG,ISIC_7128811.JPG,false,0,keypress(z),500,636410.600000143,636410,633316.751,633319.7000000477,633333.417,636416.627,8,400,26,,ISIC_0046917.JPG
