sender,sender_type,sender_id,timestamp,meta,,blockNo,condition,duration,ended_on,img_left,img_reveal,img_right,loser,practice,response,response_action,selection_duration,time_commit,time_end,time_render,time_run,time_show,time_switch,total_blocks,total_trials,trialNo,url,winner
informed_consent,html.Screen,0,2023-05-02T16:36:51.796Z,"{""labjs_version"":""20.2.4"",""labjs_build"":{""flavor"":""production"",""commit"":""f5b4a49f956347addd546a832a3327688c2c0fef""},""location"":""https://run.pavlovia.org/MurrayBennett/melanoma-2afc/?participant=64853"",""userAgent"":""Mozilla/5.0 (Windows NT 10.0; Win64; x64) AppleWebKit/537.36 (KHTML, like Gecko) Chrome/112.0.0.0 Safari/537.36"",""platform"":""Win32"",""language"":""en-US"",""locale"":""en-US"",""timeZone"":""America/Chicago"",""timezoneOffset"":300,""screen_width"":1280,""screen_height"":720,""scroll_width"":1280,""scroll_height"":569,""window_innerWidth"":1280,""window_innerHeight"":569,""devicePixelRatio"":1.5}",,,,3422.4709999046327,response,,,,,,consent,click button,,7749,7747.099999904633,4307.872,4311.800000190735,4324.629,7757.772,,,,"{""participant"":""64853""}",
Welcome,html.Screen,1,2023-05-02T16:37:00.207Z,,,,regular,8401.427999809264,response,,,,,,continue,click button,,16160,16159.199999809265,7741.03,7749.199999809265,7757.772,16174.038,,,,,
trial,html.Screen,2_0_0,2023-05-02T16:37:09.061Z,,0,0,,8839.362000095367,response,ISIC_0061792.JPG,,ISIC_4679428.JPG,ISIC_0061792.JPG,true,1,keypress(m),500,25013.900000095367,25013.400000095367,16157.35,16160.199999809265,16174.038,25023.632,1,6,1,,ISIC_4679428.JPG
sequence,flow.Sequence,2_0,2023-05-02T16:37:09.062Z,,0,,,8839.362000095367,completion,,,,,true,,,,25014.5,25013.400000095367,16157.35,16160.099999904633,16174.038,25023.632,1,6,,,
trial,html.Screen,2_1_0,2023-05-02T16:37:14.152Z,,0,0,,5080.268000095366,response,ISIC_0776486.JPG,,ISIC_5199497.JPG,ISIC_0776486.JPG,true,1,keypress(m),500,30104.199999809265,30103.900000095367,25010.494,25014.699999809265,25023.632,30106.644,1,6,2,,ISIC_5199497.JPG
sequence,flow.Sequence,2_1,2023-05-02T16:37:14.152Z,,0,,,5080.268000095366,completion,,,,,true,,,,30104.5,30103.900000095367,25010.494,25014.699999809265,25023.632,30106.644,1,6,,,
trial,html.Screen,2_2_0,2023-05-02T16:37:25.638Z,,0,0,,11516.434000000001,timeout,ISIC_2556187.JPG,,ISIC_8575776.JPG,,true,,,500,41591,41590.5,30090.368,30104.599999904633,30106.644,41623.078,1,6,3,,
sequence,flow.Sequence,2_2,2023-05-02T16:37:25.639Z,,0,,,11483.856,completion,,,,,true,,,,41591.300000190735,41590.5,30090.368,30104.599999904633,30106.644,41623.078,1,6,,,
trial,html.Screen,2_3_0,2023-05-02T16:37:29.674Z,,0,0,,4003.621999809264,response,ISIC_8141769.JPG,,ISIC_9238366.JPG,ISIC_8141769.JPG,true,1,keypress(m),500,45627.09999990463,45626.699999809265,41606.405,41591.5,41623.078,45639.518,1,6,4,,ISIC_9238366.JPG
sequence,flow.Sequence,2_3,2023-05-02T16:37:29.675Z,,0,,,4003.621999809264,completion,,,,,true,,,,45627.5,45626.699999809265,41606.405,41591.5,41623.078,45639.518,1,6,,,
trial,html.Screen,2_4_0,2023-05-02T16:37:34.092Z,,0,0,,4404.181999809269,response,ISIC_8949026.JPG,,ISIC_9959593.JPG,ISIC_8949026.JPG,true,1,keypress(m),500,50044.09999990463,50043.699999809265,45622.965,45627.800000190735,45639.518,50056.036,1,6,5,,ISIC_9959593.JPG
sequence,flow.Sequence,2_4,2023-05-02T16:37:34.092Z,,0,,,4404.181999809269,completion,,,,,true,,,,50044.59999990463,50043.699999809265,45622.965,45627.699999809265,45639.518,50056.036,1,6,,,
trial,html.Screen,2_5_0,2023-05-02T16:37:37.585Z,,0,0,,3481.663999809265,response,ISIC_0010479.JPG,,ISIC_0460240.JPG,ISIC_0010479.JPG,true,1,keypress(m),500,53538.09999990463,53537.699999809265,50039.328,50044.90000009537,50056.036,53555.711,1,6,6,,ISIC_0460240.JPG
sequence,flow.Sequence,2_5,2023-05-02T16:37:37.586Z,,0,,,3481.663999809265,completion,,,,,true,,,,53538.40000009537,53537.699999809265,50039.328,50044.699999809265,50056.036,53555.711,1,6,,,
loop,flow.Loop,2,2023-05-02T16:37:37.586Z,,,,,37363.661999809265,completion,,,,,true,,,,53538.59999990463,53537.699999809265,16157.35,16160.099999904633,16174.038,53555.711,1,6,,,
exp_instructions,html.Screen,3,2023-05-02T16:37:39.408Z,,,,,1803.6890000953645,response,,,,,,continue,keypress(Space),,55360.59999990463,55359.40000009537,53538.697,53538.800000190735,53555.711,55372.272,,,,,
trial,html.Screen,4_0_0,2023-05-02T16:37:43.845Z,,0,1,,4425.427999809268,response,ISIC_9772383.JPG,,ISIC_2287083.JPG,ISIC_2287083.JPG,false,0,keypress(z),500,59797.90000009537,59797.699999809265,55355.962,55360.90000009537,55372.272,59805.408,8,400,1,,ISIC_9772383.JPG
break,html.Screen,4_0_1,2023-05-02T16:37:43.847Z,,0,,,NaN,,,,,,false,,,,59799.59999990463,59799.09999990463,,59798.09999990463,,59805.408,8,400,,,
break_continue,html.Screen,4_0_2,2023-05-02T16:37:43.848Z,,0,,,NaN,,,,,,false,,,,59800.40000009537,59800.09999990463,,59799.90000009537,,59805.408,8,400,,,
sequence,flow.Sequence,4_0,2023-05-02T16:37:43.848Z,,0,,,4427.827999904635,completion,,,,,false,,,,59800.5,59800.09999990463,55355.962,55360.800000190735,55372.272,59805.408,8,400,,,
trial,html.Screen,4_1_0,2023-05-02T16:37:47.804Z,,0,1,,3946.392000190732,response,ISIC_4266533.JPG,,ISIC_0010754.JPG,ISIC_4266533.JPG,false,1,keypress(m),500,63752.199999809265,63751.800000190735,59788.74,59800.699999809265,59805.408,63755.072,8,400,2,,ISIC_0010754.JPG
break,html.Screen,4_1_1,2023-05-02T16:37:47.806Z,,0,,,NaN,,,,,,false,,,,63753.59999990463,63753.300000190735,,63752.5,,63755.072,8,400,,,
break_continue,html.Screen,4_1_2,2023-05-02T16:37:47.806Z,,0,,,NaN,,,,,,false,,,,63754,63753.90000009537,,63753.800000190735,,63755.072,8,400,,,
sequence,flow.Sequence,4_1,2023-05-02T16:37:47.806Z,,0,,,3948.4920000953643,completion,,,,,false,,,,63754.300000190735,63753.90000009537,59788.74,59800.59999990463,59805.408,63755.072,8,400,,,
trial,html.Screen,4_2_0,2023-05-02T16:37:51.364Z,,0,1,,3556.5279999046325,response,ISIC_6618652.JPG,,ISIC_0010760.JPG,ISIC_6618652.JPG,false,1,keypress(m),500,67312,67311.59999990463,63738.818,63754.40000009537,63755.072,67321.697,8,400,3,,ISIC_0010760.JPG
break,html.Screen,4_2_1,2023-05-02T16:37:51.365Z,,0,,,NaN,,,,,,false,,,,67313.5,67313,,67312.30000019073,,67321.697,8,400,,,
break_continue,html.Screen,4_2_2,2023-05-02T16:37:51.366Z,,0,,,NaN,,,,,,false,,,,67314.09999990463,67313.90000009537,,67313.69999980927,,67321.697,8,400,,,
sequence,flow.Sequence,4_2,2023-05-02T16:37:51.366Z,,0,,,3558.8280000953673,completion,,,,,false,,,,67314.19999980927,67313.90000009537,63738.818,63754.40000009537,63755.072,67321.697,8,400,,,
trial,html.Screen,4_3_0,2023-05-02T16:37:55.356Z,,0,1,,3981.7030000953673,response,ISIC_1315123.JPG,,ISIC_8737794.JPG,ISIC_8737794.JPG,false,0,keypress(z),500,71303.80000019073,71303.40000009537,67308.566,67314.40000009537,67321.697,71335.382,8,400,4,,ISIC_1315123.JPG
break,html.Screen,4_3_1,2023-05-02T16:37:55.357Z,,0,,,NaN,,,,,,false,,,,71305.09999990463,71304.80000019073,,71303.90000009537,,71335.382,8,400,,,
break_continue,html.Screen,4_3_2,2023-05-02T16:37:55.358Z,,0,,,NaN,,,,,,false,,,,71305.59999990463,71305.5,,71305.30000019073,,71335.382,8,400,,,
sequence,flow.Sequence,4_3,2023-05-02T16:37:55.358Z,,0,,,3983.803,completion,,,,,false,,,,71305.69999980927,71305.5,67308.566,67314.30000019073,67321.697,71335.382,8,400,,,
trial,html.Screen,4_4_0,2023-05-02T16:38:00.743Z,,0,1,,5355.217999904635,response,ISIC_0032441.JPG,,ISIC_0060297.JPG,ISIC_0060297.JPG,false,0,keypress(z),500,76690.90000009537,76690.59999990463,71288.308,71305.90000009537,71335.382,76704.452,8,400,5,,ISIC_0032441.JPG
break,html.Screen,4_4_1,2023-05-02T16:38:00.744Z,,0,,,NaN,,,,,,false,,,,76692.40000009537,76692.09999990463,,76691.09999990463,,76704.452,8,400,,,
break_continue,html.Screen,4_4_2,2023-05-02T16:38:00.745Z,,0,,,NaN,,,,,,false,,,,76692.90000009537,76692.80000019073,,76692.59999990463,,76704.452,8,400,,,
sequence,flow.Sequence,4_4,2023-05-02T16:38:00.745Z,,0,,,5357.418000190737,completion,,,,,false,,,,76693.09999990463,76692.80000019073,71288.308,71305.80000019073,71335.382,76704.452,8,400,,,
trial,html.Screen,4_5_0,2023-05-02T16:38:03.646Z,,0,1,,2889.047999999995,response,ISIC_0025357.JPG,,ISIC_6854940.JPG,ISIC_6854940.JPG,false,0,keypress(z),500,79593.80000019073,79593.5,76688.082,76693.30000019073,76704.452,79604.491,8,400,6,,ISIC_0025357.JPG
break,html.Screen,4_5_1,2023-05-02T16:38:03.647Z,,0,,,NaN,,,,,,false,,,,79595.09999990463,79594.90000009537,,79594,,79604.491,8,400,,,
break_continue,html.Screen,4_5_2,2023-05-02T16:38:03.648Z,,0,,,NaN,,,,,,false,,,,79595.59999990463,79595.40000009537,,79595.30000019073,,79604.491,8,400,,,
sequence,flow.Sequence,4_5,2023-05-02T16:38:03.648Z,,0,,,2890.9480000953627,completion,,,,,false,,,,79595.80000019073,79595.40000009537,76688.082,76693.30000019073,76704.452,79604.491,8,400,,,
trial,html.Screen,4_6_0,2023-05-02T16:38:06.685Z,,0,1,,3028.608999904638,response,ISIC_2924968.JPG,,ISIC_0029905.JPG,ISIC_0029905.JPG,false,0,keypress(z),500,82633.40000009537,82633.09999990463,79577.767,79595.90000009537,79604.491,82637.486,8,400,7,,ISIC_2924968.JPG
break,html.Screen,4_6_1,2023-05-02T16:38:06.687Z,,0,,,NaN,,,,,,false,,,,82634.69999980927,82634.5,,82633.69999980927,,82637.486,8,400,,,
break_continue,html.Screen,4_6_2,2023-05-02T16:38:06.687Z,,0,,,NaN,,,,,,false,,,,82635.30000019073,82635.09999990463,,82634.90000009537,,82637.486,8,400,,,
sequence,flow.Sequence,4_6,2023-05-02T16:38:06.688Z,,0,,,3030.608999904638,completion,,,,,false,,,,82635.5,82635.09999990463,79577.767,79595.90000009537,79604.491,82637.486,8,400,,,
trial,html.Screen,4_7_0,2023-05-02T16:38:09.569Z,,0,1,,2879.5139999999956,response,ISIC_0068176.JPG,,ISIC_0033775.JPG,ISIC_0068176.JPG,false,1,keypress(m),500,85517.19999980927,85517,82620.942,82635.59999990463,82637.486,85520.722,8,400,8,,ISIC_0033775.JPG
break,html.Screen,4_7_1,2023-05-02T16:38:09.570Z,,0,,,NaN,,,,,,false,,,,85518.09999990463,85517.80000019073,,85517.5,,85520.722,8,400,,,
break_continue,html.Screen,4_7_2,2023-05-02T16:38:09.571Z,,0,,,NaN,,,,,,false,,,,85518.59999990463,85518.40000009537,,85518.19999980927,,85520.722,8,400,,,
sequence,flow.Sequence,4_7,2023-05-02T16:38:09.571Z,,0,,,2880.914000095363,completion,,,,,false,,,,85518.80000019073,85518.40000009537,82620.942,82635.59999990463,82637.486,85520.722,8,400,,,
trial,html.Screen,4_8_0,2023-05-02T16:38:13.828Z,,0,1,,4255.377999904638,response,ISIC_0056413.JPG,,ISIC_0011626.JPG,ISIC_0011626.JPG,false,0,keypress(z),500,89776.40000009537,89776.09999990463,85504.043,85518.90000009537,85520.722,89787.269,8,400,9,,ISIC_0056413.JPG
break,html.Screen,4_8_1,2023-05-02T16:38:13.830Z,,0,,,NaN,,,,,,false,,,,89777.69999980927,89777.40000009537,,89776.5,,89787.269,8,400,,,
break_continue,html.Screen,4_8_2,2023-05-02T16:38:13.830Z,,0,,,NaN,,,,,,false,,,,89778,89777.90000009537,,89777.80000019073,,89787.269,8,400,,,
sequence,flow.Sequence,4_8,2023-05-02T16:38:13.830Z,,0,,,4257.178000095373,completion,,,,,false,,,,89778.19999980927,89777.90000009537,85504.043,85518.90000009537,85520.722,89787.269,8,400,,,
trial,html.Screen,4_9_0,2023-05-02T16:38:19.724Z,,0,1,,5884.330999904632,response,ISIC_0025748.JPG,,ISIC_0024380.JPG,ISIC_0024380.JPG,false,0,keypress(z),500,95671.80000019073,95671.59999990463,89770.912,89778.40000009537,89787.269,95687.134,8,400,10,,ISIC_0025748.JPG
break,html.Screen,4_9_1,2023-05-02T16:38:19.725Z,,0,,,NaN,,,,,,false,,,,95673.09999990463,95672.80000019073,,95672.09999990463,,95687.134,8,400,,,
break_continue,html.Screen,4_9_2,2023-05-02T16:38:19.726Z,,0,,,NaN,,,,,,false,,,,95673.59999990463,95673.5,,95673.19999980927,,95687.134,8,400,,,
sequence,flow.Sequence,4_9,2023-05-02T16:38:19.726Z,,0,,,5886.231,completion,,,,,false,,,,95673.80000019073,95673.5,89770.912,89778.30000019073,89787.269,95687.134,8,400,,,
trial,html.Screen,4_10_0,2023-05-02T16:38:22.917Z,,0,1,,3177.8659999999945,response,ISIC_0030829.JPG,,ISIC_0029328.JPG,ISIC_0030829.JPG,false,1,keypress(m),500,98865.30000019073,98865,95660.442,95674.09999990463,95687.134,98870.052,8,400,11,,ISIC_0029328.JPG
break,html.Screen,4_10_1,2023-05-02T16:38:22.919Z,,0,,,NaN,,,,,,false,,,,98867.09999990463,98866.69999980927,,98865.59999990463,,98870.052,8,400,,,
break_continue,html.Screen,4_10_2,2023-05-02T16:38:22.920Z,,0,,,NaN,,,,,,false,,,,98867.69999980927,98867.59999990463,,98867.30000019073,,98870.052,8,400,,,
sequence,flow.Sequence,4_10,2023-05-02T16:38:22.920Z,,0,,,3180.465999904627,completion,,,,,false,,,,98868,98867.59999990463,95660.442,95674,95687.134,98870.052,8,400,,,
trial,html.Screen,4_11_0,2023-05-02T16:38:25.952Z,,0,1,,3029.948000000004,response,ISIC_0027033.JPG,,ISIC_0011665.JPG,ISIC_0011665.JPG,false,0,keypress(z),500,101900.09999990463,101900,98853.58,98868.19999980927,98870.052,101903.171,8,400,12,,ISIC_0027033.JPG
break,html.Screen,4_11_1,2023-05-02T16:38:25.953Z,,0,,,NaN,,,,,,false,,,,101900.69999980927,101900.5,,101900.30000019073,,101903.171,8,400,,,
break_continue,html.Screen,4_11_2,2023-05-02T16:38:25.953Z,,0,,,NaN,,,,,,false,,,,101901,101901,,101900.80000019073,,101903.171,8,400,,,
sequence,flow.Sequence,4_11,2023-05-02T16:38:25.953Z,,0,,,3030.948000000004,completion,,,,,false,,,,101901.09999990463,101901,98853.58,98868.09999990463,98870.052,101903.171,8,400,,,
trial,html.Screen,4_12_0,2023-05-02T16:38:28.933Z,,0,1,,2977.7290000953653,response,ISIC_0030929.JPG,,ISIC_0032695.JPG,ISIC_0030929.JPG,false,1,keypress(m),500,104881.30000019073,104880.90000009537,101886.349,101901.19999980927,101903.171,104886.395,8,400,13,,ISIC_0032695.JPG
break,html.Screen,4_12_1,2023-05-02T16:38:28.935Z,,0,,,NaN,,,,,,false,,,,104882.69999980927,104882.30000019073,,104881.5,,104886.395,8,400,,,
break_continue,html.Screen,4_12_2,2023-05-02T16:38:28.935Z,,0,,,NaN,,,,,,false,,,,104883.19999980927,104883,,104882.80000019073,,104886.395,8,400,,,
sequence,flow.Sequence,4_12,2023-05-02T16:38:28.935Z,,0,,,2979.828999999998,completion,,,,,false,,,,104883.40000009537,104883,101886.349,101901.09999990463,101903.171,104886.395,8,400,,,
trial,html.Screen,4_13_0,2023-05-02T16:38:31.568Z,,0,1,,2629.604999999996,response,ISIC_0033336.JPG,,ISIC_7775535.JPG,ISIC_7775535.JPG,false,0,keypress(z),500,107516.30000019073,107516,104870.119,104883.5,104886.395,107519.628,8,400,14,,ISIC_0033336.JPG
break,html.Screen,4_13_1,2023-05-02T16:38:31.570Z,,0,,,NaN,,,,,,false,,,,107517.69999980927,107517.40000009537,,107516.5,,107519.628,8,400,,,
break_continue,html.Screen,4_13_2,2023-05-02T16:38:31.570Z,,0,,,NaN,,,,,,false,,,,107518.19999980927,107518,,107517.90000009537,,107519.628,8,400,,,
sequence,flow.Sequence,4_13,2023-05-02T16:38:31.570Z,,0,,,2631.604999999996,completion,,,,,false,,,,107518.30000019073,107518,104870.119,104883.5,104886.395,107519.628,8,400,,,
trial,html.Screen,4_14_0,2023-05-02T16:38:34.403Z,,0,1,,2830.9719999046356,response,ISIC_8406262.JPG,,ISIC_3786438.JPG,ISIC_8406262.JPG,false,1,keypress(m),500,110351,110350.59999990463,107509.998,107518.5,107519.628,110375.37,8,400,15,,ISIC_3786438.JPG
break,html.Screen,4_14_1,2023-05-02T16:38:34.405Z,,0,,,NaN,,,,,,false,,,,110352.69999980927,110352.40000009537,,110351.19999980927,,110375.37,8,400,,,
break_continue,html.Screen,4_14_2,2023-05-02T16:38:34.405Z,,0,,,NaN,,,,,,false,,,,110353.19999980927,110353.09999990463,,110352.90000009537,,110375.37,8,400,,,
sequence,flow.Sequence,4_14,2023-05-02T16:38:34.405Z,,0,,,2833.4719999046356,completion,,,,,false,,,,110353.5,110353.09999990463,107509.998,107518.5,107519.628,110375.37,8,400,,,
trial,html.Screen,4_15_0,2023-05-02T16:38:38.482Z,,0,1,,4054.6300000000047,response,ISIC_3764173.JPG,,ISIC_0026930.JPG,ISIC_0026930.JPG,false,0,keypress(z),500,114430.30000019073,114430,110336.313,110353.59999990463,110375.37,114435.99,8,400,16,,ISIC_3764173.JPG
break,html.Screen,4_15_1,2023-05-02T16:38:38.484Z,,0,,,NaN,,,,,,false,,,,114431.59999990463,114431.30000019073,,114430.5,,114435.99,8,400,,,
break_continue,html.Screen,4_15_2,2023-05-02T16:38:38.484Z,,0,,,NaN,,,,,,false,,,,114432.19999980927,114432.09999990463,,114431.80000019073,,114435.99,8,400,,,
sequence,flow.Sequence,4_15,2023-05-02T16:38:38.484Z,,0,,,4056.729999904637,completion,,,,,false,,,,114432.30000019073,114432.09999990463,110336.313,110353.5,110375.37,114435.99,8,400,,,
trial,html.Screen,4_16_0,2023-05-02T16:38:41.448Z,,0,1,,2960.20999980926,response,ISIC_5219334.JPG,,ISIC_0065013.JPG,ISIC_0065013.JPG,false,0,keypress(z),500,117396.40000009537,117396.19999980927,114419.678,114432.5,114435.99,117402.48,8,400,17,,ISIC_5219334.JPG
break,html.Screen,4_16_1,2023-05-02T16:38:41.450Z,,0,,,NaN,,,,,,false,,,,117397.69999980927,117397.5,,117396.69999980927,,117402.48,8,400,,,
break_continue,html.Screen,4_16_2,2023-05-02T16:38:41.450Z,,0,,,NaN,,,,,,false,,,,117398.19999980927,117398.09999990463,,117397.90000009537,,117402.48,8,400,,,
sequence,flow.Sequence,4_16,2023-05-02T16:38:41.450Z,,0,,,2962.1099999046273,completion,,,,,false,,,,117398.40000009537,117398.09999990463,114419.678,114432.5,114435.99,117402.48,8,400,,,
trial,html.Screen,4_17_0,2023-05-02T16:38:48.118Z,,0,1,,6664.619999904637,response,ISIC_0055022.JPG,,ISIC_0011435.JPG,ISIC_0055022.JPG,false,1,keypress(m),500,124067.40000009537,124067.09999990463,117386.273,117398.69999980927,117402.48,124091.585,8,400,18,,ISIC_0011435.JPG
break,html.Screen,4_17_1,2023-05-02T16:38:48.119Z,,0,,,NaN,,,,,,false,,,,124068.80000019073,124068.40000009537,,124067.59999990463,,124091.585,8,400,,,
break_continue,html.Screen,4_17_2,2023-05-02T16:38:48.120Z,,0,,,NaN,,,,,,false,,,,124069.30000019073,124069.19999980927,,124069.09999990463,,124091.585,8,400,,,
sequence,flow.Sequence,4_17,2023-05-02T16:38:48.120Z,,0,,,6666.719999809269,completion,,,,,false,,,,124069.59999990463,124069.19999980927,117386.273,117398.59999990463,117402.48,124091.585,8,400,,,
trial,html.Screen,4_18_0,2023-05-02T16:38:51.532Z,,0,1,,3389.1149998092587,response,ISIC_0011641.JPG,,ISIC_0064623.JPG,ISIC_0064623.JPG,false,0,keypress(z),500,127481,127480.69999980927,124058.999,124069.69999980927,124091.585,127485.441,8,400,19,,ISIC_0011641.JPG
break,html.Screen,4_18_1,2023-05-02T16:38:51.533Z,,0,,,NaN,,,,,,false,,,,127482.09999990463,127481.59999990463,,127481.19999980927,,127485.441,8,400,,,
break_continue,html.Screen,4_18_2,2023-05-02T16:38:51.533Z,,0,,,NaN,,,,,,false,,,,127482.5,127482.40000009537,,127482.19999980927,,127485.441,8,400,,,
sequence,flow.Sequence,4_18,2023-05-02T16:38:51.533Z,,0,,,3390.815000095361,completion,,,,,false,,,,127482.69999980927,127482.40000009537,124058.999,124069.59999990463,124091.585,127485.441,8,400,,,
trial,html.Screen,4_19_0,2023-05-02T16:38:54.514Z,,0,1,,2977.6589999046264,response,ISIC_5545874.JPG,,ISIC_7896667.JPG,ISIC_7896667.JPG,false,0,keypress(z),500,130463.40000009537,130463.09999990463,127468.962,127482.80000019073,127485.441,130468.532,8,400,20,,ISIC_5545874.JPG
break,html.Screen,4_19_1,2023-05-02T16:38:54.515Z,,0,,,NaN,,,,,,false,,,,130464.59999990463,130464.19999980927,,130463.59999990463,,130468.532,8,400,,,
break_continue,html.Screen,4_19_2,2023-05-02T16:38:54.516Z,,0,,,NaN,,,,,,false,,,,130465.09999990463,130464.90000009537,,130464.69999980927,,130468.532,8,400,,,
sequence,flow.Sequence,4_19,2023-05-02T16:38:54.516Z,,0,,,2979.4590000953613,completion,,,,,false,,,,130465.30000019073,130464.90000009537,127468.962,127482.69999980927,127485.441,130468.532,8,400,,,
trial,html.Screen,4_20_0,2023-05-02T16:38:59.443Z,,0,1,,4923.067999904626,response,ISIC_3151260.JPG,,ISIC_0072553.JPG,ISIC_3151260.JPG,false,1,keypress(m),500,135392,135391.59999990463,130451.864,130465.40000009537,130468.532,135418.596,8,400,21,,ISIC_0072553.JPG
break,html.Screen,4_20_1,2023-05-02T16:38:59.443Z,,0,,,NaN,,,,,,false,,,,135392.90000009537,135392.59999990463,,135392.19999980927,,135418.596,8,400,,,
break_continue,html.Screen,4_20_2,2023-05-02T16:38:59.444Z,,0,,,NaN,,,,,,false,,,,135393.19999980927,135393.09999990463,,135393,,135418.596,8,400,,,
sequence,flow.Sequence,4_20,2023-05-02T16:38:59.444Z,,0,,,4924.567999904626,completion,,,,,false,,,,135393.40000009537,135393.09999990463,130451.864,130465.30000019073,130468.532,135418.596,8,400,,,
trial,html.Screen,4_21_0,2023-05-02T16:39:04.818Z,,0,1,,5348.603999809275,response,ISIC_5960641.JPG,,ISIC_0059005.JPG,ISIC_5960641.JPG,false,1,keypress(m),500,140767.5,140767.19999980927,135401.889,135393.5,135418.596,140784.919,8,400,22,,ISIC_0059005.JPG
break,html.Screen,4_21_1,2023-05-02T16:39:04.820Z,,0,,,NaN,,,,,,false,,,,140769.19999980927,140768.90000009537,,140767.69999980927,,140784.919,8,400,,,
break_continue,html.Screen,4_21_2,2023-05-02T16:39:04.820Z,,0,,,NaN,,,,,,false,,,,140769.90000009537,140769.69999980927,,140769.40000009537,,140784.919,8,400,,,
sequence,flow.Sequence,4_21,2023-05-02T16:39:04.821Z,,0,,,5351.103999809275,completion,,,,,false,,,,140770.09999990463,140769.69999980927,135401.889,135393.5,135418.596,140784.919,8,400,,,
trial,html.Screen,4_22_0,2023-05-02T16:39:10.439Z,,0,1,,5602.780999809271,response,ISIC_3936223.JPG,,ISIC_0014103.JPG,ISIC_0014103.JPG,false,0,keypress(z),500,146388,146387.69999980927,140768.37,140770.19999980927,140784.919,146401.135,8,400,23,,ISIC_3936223.JPG
break,html.Screen,4_22_1,2023-05-02T16:39:10.440Z,,0,,,NaN,,,,,,false,,,,146389.30000019073,146389.09999990463,,146388.19999980927,,146401.135,8,400,,,
break_continue,html.Screen,4_22_2,2023-05-02T16:39:10.440Z,,0,,,NaN,,,,,,false,,,,146389.80000019073,146389.59999990463,,146389.5,,146401.135,8,400,,,
sequence,flow.Sequence,4_22,2023-05-02T16:39:10.441Z,,0,,,5604.680999904638,completion,,,,,false,,,,146389.90000009537,146389.59999990463,140768.37,140770.09999990463,140784.919,146401.135,8,400,,,
trial,html.Screen,4_23_0,2023-05-02T16:39:13.643Z,,0,1,,3190.6650001907256,response,ISIC_2410736.JPG,,ISIC_0064785.JPG,ISIC_0064785.JPG,false,0,keypress(z),500,149592,149591.80000019073,146384.539,146390.09999990463,146401.135,149600.954,8,400,24,,ISIC_2410736.JPG
break,html.Screen,4_23_1,2023-05-02T16:39:13.644Z,,0,,,NaN,,,,,,false,,,,149593.19999980927,149592.69999980927,,149592.19999980927,,149600.954,8,400,,,
break_continue,html.Screen,4_23_2,2023-05-02T16:39:13.644Z,,0,,,NaN,,,,,,false,,,,149593.69999980927,149593.5,,149593.30000019073,,149600.954,8,400,,,
sequence,flow.Sequence,4_23,2023-05-02T16:39:13.644Z,,0,,,3192.3649999999907,completion,,,,,false,,,,149593.80000019073,149593.5,146384.539,146390,146401.135,149600.954,8,400,,,
trial,html.Screen,4_24_0,2023-05-02T16:39:16.801Z,,0,1,,3149.2459998092672,response,ISIC_2698722.JPG,,ISIC_0062471.JPG,ISIC_0062471.JPG,false,0,keypress(z),500,152750.5,152750.19999980927,149584.596,149594,149600.954,152767.649,8,400,25,,ISIC_2698722.JPG
break,html.Screen,4_24_1,2023-05-02T16:39:16.802Z,,0,,,NaN,,,,,,false,,,,152751.90000009537,152751.40000009537,,152750.69999980927,,152767.649,8,400,,,
break_continue,html.Screen,4_24_2,2023-05-02T16:39:16.803Z,,0,,,NaN,,,,,,false,,,,152752.30000019073,152752.19999980927,,152752.09999990463,,152767.649,8,400,,,
sequence,flow.Sequence,4_24,2023-05-02T16:39:16.803Z,,0,,,3151.2459998092672,completion,,,,,false,,,,152752.59999990463,152752.19999980927,149584.596,149594,149600.954,152767.649,8,400,,,
trial,html.Screen,4_25_0,2023-05-02T16:39:19.988Z,,0,1,,3169.5509998092602,response,ISIC_0013844.JPG,,ISIC_8592235.JPG,ISIC_0013844.JPG,false,1,keypress(m),500,155937.5,155937.19999980927,152750.919,152752.59999990463,152767.649,155950.835,8,400,26,,ISIC_8592235.JPG
break,html.Screen,4_25_1,2023-05-02T16:39:19.989Z,,0,,,NaN,,,,,,false,,,,155938.69999980927,155938.40000009537,,155937.69999980927,,155950.835,8,400,,,
break_continue,html.Screen,4_25_2,2023-05-02T16:39:19.990Z,,0,,,NaN,,,,,,false,,,,155939.19999980927,155939.09999990463,,155938.90000009537,,155950.835,8,400,,,
sequence,flow.Sequence,4_25,2023-05-02T16:39:19.990Z,,0,,,3171.4509999046277,completion,,,,,false,,,,155939.40000009537,155939.09999990463,152750.919,152752.59999990463,152767.649,155950.835,8,400,,,
trial,html.Screen,4_26_0,2023-05-02T16:39:22.907Z,,0,1,,2905.0650000953756,response,ISIC_7923008.JPG,,ISIC_7694069.JPG,ISIC_7923008.JPG,false,1,keypress(m),500,158856.19999980927,158855.90000009537,155934.356,155939.5,155950.835,158867.323,8,400,27,,ISIC_7694069.JPG
break,html.Screen,4_26_1,2023-05-02T16:39:22.908Z,,0,,,NaN,,,,,,false,,,,158857.5,158857.30000019073,,158856.5,,158867.323,8,400,,,
break_continue,html.Screen,4_26_2,2023-05-02T16:39:22.908Z,,0,,,NaN,,,,,,false,,,,158857.69999980927,158857.69999980927,,158857.59999990463,,158867.323,8,400,,,
sequence,flow.Sequence,4_26,2023-05-02T16:39:22.908Z,,0,,,2906.8649998092733,completion,,,,,false,,,,158857.69999980927,158857.69999980927,155934.356,155939.5,155950.835,158867.323,8,400,,,
trial,html.Screen,4_27_0,2023-05-02T16:39:27.149Z,,0,1,,4231.0770000953635,response,ISIC_0014108.JPG,,ISIC_4130167.JPG,ISIC_0014108.JPG,false,1,keypress(m),500,163098.69999980927,163098.40000009537,158850.782,158857.80000019073,158867.323,163122.339,8,400,28,,ISIC_4130167.JPG
break,html.Screen,4_27_1,2023-05-02T16:39:27.150Z,,0,,,NaN,,,,,,false,,,,163099.59999990463,163099.40000009537,,163098.90000009537,,163122.339,8,400,,,
break_continue,html.Screen,4_27_2,2023-05-02T16:39:27.151Z,,0,,,NaN,,,,,,false,,,,163100.09999990463,163099.90000009537,,163099.80000019073,,163122.339,8,400,,,
sequence,flow.Sequence,4_27,2023-05-02T16:39:27.151Z,,0,,,4232.5770000953635,completion,,,,,false,,,,163100.19999980927,163099.90000009537,158850.782,158857.69999980927,158867.323,163122.339,8,400,,,
trial,html.Screen,4_28_0,2023-05-02T16:39:30.431Z,,0,1,,3257.56100009536,response,ISIC_2937642.JPG,,ISIC_0012072.JPG,ISIC_2937642.JPG,false,1,keypress(m),500,166380.30000019073,166379.90000009537,163083.868,163100.40000009537,163122.339,166383.483,8,400,29,,ISIC_0012072.JPG
break,html.Screen,4_28_1,2023-05-02T16:39:30.432Z,,0,,,NaN,,,,,,false,,,,166381.59999990463,166381.30000019073,,166380.5,,166383.483,8,400,,,
break_continue,html.Screen,4_28_2,2023-05-02T16:39:30.433Z,,0,,,NaN,,,,,,false,,,,166382.09999990463,166382,,166381.69999980927,,166383.483,8,400,,,
sequence,flow.Sequence,4_28,2023-05-02T16:39:30.433Z,,0,,,3259.660999999993,completion,,,,,false,,,,166382.30000019073,166382,163083.868,163100.30000019073,163122.339,166383.483,8,400,,,
trial,html.Screen,4_29_0,2023-05-02T16:39:34.706Z,,0,1,,4271.216999809258,response,ISIC_0025904.JPG,,ISIC_2545299.JPG,ISIC_0025904.JPG,false,1,keypress(m),500,170654.90000009537,170654.69999980927,166367.173,166382.40000009537,166383.483,170666.56,8,400,30,,ISIC_2545299.JPG
break,html.Screen,4_29_1,2023-05-02T16:39:34.707Z,,0,,,NaN,,,,,,false,,,,170656.19999980927,170655.90000009537,,170655.19999980927,,170666.56,8,400,,,
break_continue,html.Screen,4_29_2,2023-05-02T16:39:34.707Z,,0,,,NaN,,,,,,false,,,,170656.59999990463,170656.5,,170656.40000009537,,170666.56,8,400,,,
sequence,flow.Sequence,4_29,2023-05-02T16:39:34.707Z,,0,,,4273.016999999993,completion,,,,,false,,,,170656.80000019073,170656.5,166367.173,166382.40000009537,166383.483,170666.56,8,400,,,
trial,html.Screen,4_30_0,2023-05-02T16:39:38.230Z,,0,1,,3512.8400000953698,response,ISIC_1077375.JPG,,ISIC_9048507.JPG,ISIC_9048507.JPG,false,0,keypress(z),500,174179.69999980927,174179.40000009537,170650.274,170656.90000009537,170666.56,174183.088,8,400,31,,ISIC_1077375.JPG
break,html.Screen,4_30_1,2023-05-02T16:39:38.232Z,,0,,,NaN,,,,,,false,,,,174181,174180.69999980927,,174179.90000009537,,174183.088,8,400,,,
break_continue,html.Screen,4_30_2,2023-05-02T16:39:38.232Z,,0,,,NaN,,,,,,false,,,,174181.30000019073,174181.19999980927,,174181.09999990463,,174183.088,8,400,,,
sequence,flow.Sequence,4_30,2023-05-02T16:39:38.232Z,,0,,,3514.6399998092675,completion,,,,,false,,,,174181.5,174181.19999980927,170650.274,170656.90000009537,170666.56,174183.088,8,400,,,
trial,html.Screen,4_31_0,2023-05-02T16:39:41.011Z,,0,1,,2777.212000190746,response,ISIC_0032960.JPG,,ISIC_2769292.JPG,ISIC_0032960.JPG,false,1,keypress(m),500,176960.80000019073,176960.30000019073,174166.823,174181.69999980927,174183.088,176966.274,8,400,32,,ISIC_2769292.JPG
break,html.Screen,4_31_1,2023-05-02T16:39:41.013Z,,0,,,NaN,,,,,,false,,,,176962.09999990463,176961.80000019073,,176961.09999990463,,176966.274,8,400,,,
break_continue,html.Screen,4_31_2,2023-05-02T16:39:41.013Z,,0,,,NaN,,,,,,false,,,,176962.5,176962.30000019073,,176962.19999980927,,176966.274,8,400,,,
sequence,flow.Sequence,4_31,2023-05-02T16:39:41.013Z,,0,,,2779.212000190746,completion,,,,,false,,,,176962.59999990463,176962.30000019073,174166.823,174181.59999990463,174183.088,176966.274,8,400,,,
trial,html.Screen,4_32_0,2023-05-02T16:39:44.016Z,,0,1,,2999.1260000953625,response,ISIC_5170766.JPG,,ISIC_2783450.JPG,ISIC_5170766.JPG,false,1,keypress(m),500,179965.59999990463,179965.40000009537,176949.859,176962.80000019073,176966.274,179983.023,8,400,33,,ISIC_2783450.JPG
break,html.Screen,4_32_1,2023-05-02T16:39:44.018Z,,0,,,NaN,,,,,,false,,,,179966.80000019073,179966.59999990463,,179965.80000019073,,179983.023,8,400,,,
break_continue,html.Screen,4_32_2,2023-05-02T16:39:44.018Z,,0,,,NaN,,,,,,false,,,,179967.30000019073,179967.19999980927,,179967.09999990463,,179983.023,8,400,,,
sequence,flow.Sequence,4_32,2023-05-02T16:39:44.018Z,,0,,,3000.9259998092602,completion,,,,,false,,,,179967.5,179967.19999980927,176949.859,176962.80000019073,176966.274,179983.023,8,400,,,
trial,html.Screen,4_33_0,2023-05-02T16:39:47.208Z,,0,1,,3174.4770000000135,response,ISIC_5230371.JPG,,ISIC_0428257.JPG,ISIC_5230371.JPG,false,1,keypress(m),500,183157.69999980927,183157.5,179966.329,179967.59999990463,179983.023,183165.998,8,400,34,,ISIC_0428257.JPG
break,html.Screen,4_33_1,2023-05-02T16:39:47.210Z,,0,,,NaN,,,,,,false,,,,183158.90000009537,183158.69999980927,,183158,,183165.998,8,400,,,
break_continue,html.Screen,4_33_2,2023-05-02T16:39:47.210Z,,0,,,NaN,,,,,,false,,,,183159.40000009537,183159.30000019073,,183159.09999990463,,183165.998,8,400,,,
sequence,flow.Sequence,4_33,2023-05-02T16:39:47.210Z,,0,,,3176.2770001907484,completion,,,,,false,,,,183159.5,183159.30000019073,179966.329,179967.59999990463,179983.023,183165.998,8,400,,,
trial,html.Screen,4_34_0,2023-05-02T16:39:51.784Z,,0,1,,4565.302000190743,response,ISIC_5616806.JPG,,ISIC_0057593.JPG,ISIC_0057593.JPG,false,0,keypress(z),500,187731.59999990463,187731.30000019073,183149.616,183159.69999980927,183165.998,187766.084,8,400,35,,ISIC_5616806.JPG
break,html.Screen,4_34_1,2023-05-02T16:39:51.785Z,,0,,,NaN,,,,,,false,,,,187733.09999990463,187732.69999980927,,187731.90000009537,,187766.084,8,400,,,
break_continue,html.Screen,4_34_2,2023-05-02T16:39:51.786Z,,0,,,NaN,,,,,,false,,,,187733.5,187733.30000019073,,187733.19999980927,,187766.084,8,400,,,
sequence,flow.Sequence,4_34,2023-05-02T16:39:51.786Z,,0,,,4567.302000190743,completion,,,,,false,,,,187733.69999980927,187733.30000019073,183149.616,183159.59999990463,183165.998,187766.084,8,400,,,
trial,html.Screen,4_35_0,2023-05-02T16:39:54.512Z,,0,1,,2693.2160001907323,response,ISIC_7301963.JPG,,ISIC_0011507.JPG,ISIC_7301963.JPG,false,1,keypress(m),500,190459.5,190459.30000019073,187749.408,187733.80000019073,187766.084,190465.638,8,400,36,,ISIC_0011507.JPG
break,html.Screen,4_35_1,2023-05-02T16:39:54.513Z,,0,,,NaN,,,,,,false,,,,190460.80000019073,190460.40000009537,,190459.80000019073,,190465.638,8,400,,,
break_continue,html.Screen,4_35_2,2023-05-02T16:39:54.514Z,,0,,,NaN,,,,,,false,,,,190461.09999990463,190461.09999990463,,190460.90000009537,,190465.638,8,400,,,
sequence,flow.Sequence,4_35,2023-05-02T16:39:54.514Z,,0,,,2695.01599990463,completion,,,,,false,,,,190461.30000019073,190461.09999990463,187749.408,187733.80000019073,187766.084,190465.638,8,400,,,
trial,html.Screen,4_36_0,2023-05-02T16:39:57.761Z,,0,1,,3242.6620001907286,response,ISIC_0030006.JPG,,ISIC_2211136.JPG,ISIC_0030006.JPG,false,1,keypress(m),500,193708.69999980927,193708.30000019073,190449.181,190461.40000009537,190465.638,193715.539,8,400,37,,ISIC_2211136.JPG
break,html.Screen,4_36_1,2023-05-02T16:39:57.762Z,,0,,,NaN,,,,,,false,,,,193710,193709.69999980927,,193709,,193715.539,8,400,,,
break_continue,html.Screen,4_36_2,2023-05-02T16:39:57.763Z,,0,,,NaN,,,,,,false,,,,193710.40000009537,193710.30000019073,,193710.19999980927,,193715.539,8,400,,,
sequence,flow.Sequence,4_36,2023-05-02T16:39:57.763Z,,0,,,3244.6620001907286,completion,,,,,false,,,,193710.59999990463,193710.30000019073,190449.181,190461.40000009537,190465.638,193715.539,8,400,,,
trial,html.Screen,4_37_0,2023-05-02T16:40:00.740Z,,0,1,,2971.4610000000102,response,ISIC_4201891.JPG,,ISIC_1461507.JPG,ISIC_4201891.JPG,false,1,keypress(m),500,196687.30000019073,196687,193698.814,193710.69999980927,193715.539,196698.654,8,400,38,,ISIC_1461507.JPG
break,html.Screen,4_37_1,2023-05-02T16:40:00.741Z,,0,,,NaN,,,,,,false,,,,196688.40000009537,196687.90000009537,,196687.40000009537,,196698.654,8,400,,,
break_continue,html.Screen,4_37_2,2023-05-02T16:40:00.741Z,,0,,,NaN,,,,,,false,,,,196688.90000009537,196688.69999980927,,196688.5,,196698.654,8,400,,,
sequence,flow.Sequence,4_37,2023-05-02T16:40:00.741Z,,0,,,2973.1609998092754,completion,,,,,false,,,,196689,196688.69999980927,193698.814,193710.69999980927,193715.539,196698.654,8,400,,,
trial,html.Screen,4_38_0,2023-05-02T16:40:04.403Z,,0,1,,3651.1460001907253,response,ISIC_0029652.JPG,,ISIC_2805634.JPG,ISIC_2805634.JPG,false,0,keypress(z),500,200350.19999980927,200349.80000019073,196682.301,196689.19999980927,196698.654,200365.34,8,400,39,,ISIC_0029652.JPG
break,html.Screen,4_38_1,2023-05-02T16:40:04.404Z,,0,,,NaN,,,,,,false,,,,200351.5,200351.19999980927,,200350.40000009537,,200365.34,8,400,,,
break_continue,html.Screen,4_38_2,2023-05-02T16:40:04.404Z,,0,,,NaN,,,,,,false,,,,200351.90000009537,200351.80000019073,,200351.69999980927,,200365.34,8,400,,,
sequence,flow.Sequence,4_38,2023-05-02T16:40:04.404Z,,0,,,3653.1460001907253,completion,,,,,false,,,,200352.09999990463,200351.80000019073,196682.301,196689.09999990463,196698.654,200365.34,8,400,,,
trial,html.Screen,4_39_0,2023-05-02T16:40:13.903Z,,0,1,,9484.660000000003,response,ISIC_0031039.JPG,,ISIC_0071904.JPG,ISIC_0031039.JPG,false,1,keypress(m),500,209850.40000009537,209850,200348.69,200352.19999980927,200365.34,209864.797,8,400,40,,ISIC_0071904.JPG
break,html.Screen,4_39_1,2023-05-02T16:40:13.905Z,,0,,,NaN,,,,,,false,,,,209852.59999990463,209852.19999980927,,209850.90000009537,,209864.797,8,400,,,
break_continue,html.Screen,4_39_2,2023-05-02T16:40:13.906Z,,0,,,NaN,,,,,,false,,,,209853.90000009537,209853.19999980927,,209852.90000009537,,209864.797,8,400,,,
sequence,flow.Sequence,4_39,2023-05-02T16:40:13.907Z,,0,,,9487.859999809269,completion,,,,,false,,,,209854.30000019073,209853.19999980927,200348.69,200352.19999980927,200365.34,209864.797,8,400,,,
trial,html.Screen,4_40_0,2023-05-02T16:40:17.713Z,,0,1,,3795.802999904641,response,ISIC_0011546.JPG,,ISIC_0031203.JPG,ISIC_0031203.JPG,false,0,keypress(z),500,213661,213660.59999990463,209848.476,209854.5,209864.797,213664.525,8,400,41,,ISIC_0011546.JPG
break,html.Screen,4_40_1,2023-05-02T16:40:17.714Z,,0,,,NaN,,,,,,false,,,,213662.09999990463,213661.80000019073,,213661.19999980927,,213664.525,8,400,,,
break_continue,html.Screen,4_40_2,2023-05-02T16:40:17.715Z,,0,,,NaN,,,,,,false,,,,213662.5,213662.40000009537,,213662.19999980927,,213664.525,8,400,,,
sequence,flow.Sequence,4_40,2023-05-02T16:40:17.715Z,,0,,,3797.603000095376,completion,,,,,false,,,,213662.69999980927,213662.40000009537,209848.476,209854.5,209864.797,213664.525,8,400,,,
trial,html.Screen,4_41_0,2023-05-02T16:40:21.706Z,,0,1,,3989.174999809271,response,ISIC_0011717.JPG,,ISIC_9112747.JPG,ISIC_9112747.JPG,false,0,keypress(z),500,217653.90000009537,217653.69999980927,213648.13,213662.80000019073,213664.525,217664.626,8,400,42,,ISIC_0011717.JPG
break,html.Screen,4_41_1,2023-05-02T16:40:21.707Z,,0,,,NaN,,,,,,false,,,,217654.59999990463,217654.5,,217654,,217664.626,8,400,,,
break_continue,html.Screen,4_41_2,2023-05-02T16:40:21.707Z,,0,,,NaN,,,,,,false,,,,217654.80000019073,217654.69999980927,,217654.59999990463,,217664.626,8,400,,,
sequence,flow.Sequence,4_41,2023-05-02T16:40:21.707Z,,0,,,3990.174999809271,completion,,,,,false,,,,217654.90000009537,217654.69999980927,213648.13,213662.69999980927,213664.525,217664.626,8,400,,,
trial,html.Screen,4_42_0,2023-05-02T16:40:24.694Z,,0,1,,2976.1740001907456,response,ISIC_8796968.JPG,,ISIC_0030952.JPG,ISIC_8796968.JPG,false,1,keypress(m),500,220641.30000019073,220640.80000019073,217647.842,217655,217664.626,220664.39,8,400,43,,ISIC_0030952.JPG
break,html.Screen,4_42_1,2023-05-02T16:40:24.695Z,,0,,,NaN,,,,,,false,,,,220643,220642.59999990463,,220641.59999990463,,220664.39,8,400,,,
break_continue,html.Screen,4_42_2,2023-05-02T16:40:24.696Z,,0,,,NaN,,,,,,false,,,,220643.69999980927,220643.5,,220643.19999980927,,220664.39,8,400,,,
sequence,flow.Sequence,4_42,2023-05-02T16:40:24.696Z,,0,,,2978.8740000000107,completion,,,,,false,,,,220643.90000009537,220643.5,217647.842,217654.90000009537,217664.626,220664.39,8,400,,,
trial,html.Screen,4_43_0,2023-05-02T16:40:27.610Z,,0,1,,2892.5100000953535,response,ISIC_0032522.JPG,,ISIC_0029395.JPG,ISIC_0032522.JPG,false,1,keypress(m),500,223557.19999980927,223556.90000009537,220647.542,220644.09999990463,220664.39,223564.09,8,400,44,,ISIC_0029395.JPG
break,html.Screen,4_43_1,2023-05-02T16:40:27.611Z,,0,,,NaN,,,,,,false,,,,223558.5,223558.19999980927,,223557.5,,223564.09,8,400,,,
break_continue,html.Screen,4_43_2,2023-05-02T16:40:27.611Z,,0,,,NaN,,,,,,false,,,,223558.90000009537,223558.80000019073,,223558.69999980927,,223564.09,8,400,,,
sequence,flow.Sequence,4_43,2023-05-02T16:40:27.611Z,,0,,,2894.410000190721,completion,,,,,false,,,,223559.09999990463,223558.80000019073,220647.542,220644,220664.39,223564.09,8,400,,,
trial,html.Screen,4_44_0,2023-05-02T16:40:30.455Z,,0,1,,2838.6099998092686,response,ISIC_9050826.JPG,,ISIC_6697332.JPG,ISIC_6697332.JPG,false,0,keypress(z),500,226403,226402.69999980927,223547.717,223559.19999980927,223564.09,226413.972,8,400,45,,ISIC_9050826.JPG
break,html.Screen,4_44_1,2023-05-02T16:40:30.457Z,,0,,,NaN,,,,,,false,,,,226404.30000019073,226404,,226403.19999980927,,226413.972,8,400,,,
break_continue,html.Screen,4_44_2,2023-05-02T16:40:30.457Z,,0,,,NaN,,,,,,false,,,,226404.80000019073,226404.59999990463,,226404.5,,226413.972,8,400,,,
sequence,flow.Sequence,4_44,2023-05-02T16:40:30.457Z,,0,,,2840.509999904636,completion,,,,,false,,,,226404.90000009537,226404.59999990463,223547.717,223559.19999980927,223564.09,226413.972,8,400,,,
trial,html.Screen,4_45_0,2023-05-02T16:40:33.158Z,,0,1,,2691.328000190726,response,ISIC_1460932.JPG,,ISIC_7167811.JPG,ISIC_7167811.JPG,false,0,keypress(z),500,229105.69999980927,229105.30000019073,226397.515,226405.09999990463,226413.972,229113.754,8,400,46,,ISIC_1460932.JPG
break,html.Screen,4_45_1,2023-05-02T16:40:33.159Z,,0,,,NaN,,,,,,false,,,,229106.40000009537,229106.30000019073,,229105.80000019073,,229113.754,8,400,,,
break_continue,html.Screen,4_45_2,2023-05-02T16:40:33.159Z,,0,,,NaN,,,,,,false,,,,229106.80000019073,229106.69999980927,,229106.5,,229113.754,8,400,,,
sequence,flow.Sequence,4_45,2023-05-02T16:40:33.159Z,,0,,,2692.7279998092563,completion,,,,,false,,,,229107,229106.69999980927,226397.515,226405,226413.972,229113.754,8,400,,,
trial,html.Screen,4_46_0,2023-05-02T16:40:36.101Z,,0,1,,2934.146000095381,response,ISIC_0025970.JPG,,ISIC_1251811.JPG,ISIC_0025970.JPG,false,1,keypress(m),500,232048.09999990463,232047.90000009537,229097.189,229107.09999990463,229113.754,232063.659,8,400,47,,ISIC_1251811.JPG
break,html.Screen,4_46_1,2023-05-02T16:40:36.102Z,,0,,,NaN,,,,,,false,,,,232049.5,232049,,232048.30000019073,,232063.659,8,400,,,
break_continue,html.Screen,4_46_2,2023-05-02T16:40:36.102Z,,0,,,NaN,,,,,,false,,,,232050,232049.90000009537,,232049.59999990463,,232063.659,8,400,,,
sequence,flow.Sequence,4_46,2023-05-02T16:40:36.103Z,,0,,,2936.146000095381,completion,,,,,false,,,,232050.30000019073,232049.90000009537,229097.189,229107.09999990463,229113.754,232063.659,8,400,,,
trial,html.Screen,4_47_0,2023-05-02T16:40:38.649Z,,0,1,,2533.040999809251,response,ISIC_0028976.JPG,,ISIC_0068382.JPG,ISIC_0068382.JPG,false,0,keypress(z),500,234597,234596.69999980927,232047.334,232050.40000009537,232063.659,234613.719,8,400,48,,ISIC_0028976.JPG
break,html.Screen,4_47_1,2023-05-02T16:40:38.651Z,,0,,,NaN,,,,,,false,,,,234598.19999980927,234597.90000009537,,234597.19999980927,,234613.719,8,400,,,
break_continue,html.Screen,4_47_2,2023-05-02T16:40:38.651Z,,0,,,NaN,,,,,,false,,,,234598.59999990463,234598.5,,234598.30000019073,,234613.719,8,400,,,
sequence,flow.Sequence,4_47,2023-05-02T16:40:38.651Z,,0,,,2534.840999999986,completion,,,,,false,,,,234598.69999980927,234598.5,232047.334,232050.30000019073,232063.659,234613.719,8,400,,,
trial,html.Screen,4_48_0,2023-05-02T16:40:41.724Z,,0,1,,3057.1810000953556,response,ISIC_9596721.JPG,,ISIC_0072553.JPG,ISIC_9596721.JPG,false,1,keypress(m),500,237671.40000009537,237670.90000009537,234597.01,234598.80000019073,234613.719,237680.04,8,400,49,,ISIC_0072553.JPG
break,html.Screen,4_48_1,2023-05-02T16:40:41.725Z,,0,,,NaN,,,,,,false,,,,237672.5,237672.19999980927,,237671.69999980927,,237680.04,8,400,,,
break_continue,html.Screen,4_48_2,2023-05-02T16:40:41.725Z,,0,,,NaN,,,,,,false,,,,237673,237672.90000009537,,237672.69999980927,,237680.04,8,400,,,
sequence,flow.Sequence,4_48,2023-05-02T16:40:41.726Z,,0,,,3059.1810000953556,completion,,,,,false,,,,237673.30000019073,237672.90000009537,234597.01,234598.69999980927,234613.719,237680.04,8,400,,,
trial,html.Screen,4_49_0,2023-05-02T16:40:45.445Z,,0,1,,3712.659999809257,response,ISIC_0372902.JPG,,ISIC_4131353.JPG,ISIC_0372902.JPG,false,1,keypress(m),500,241393.09999990463,241392.69999980927,237663.674,237673.40000009537,237680.04,241396.541,8,400,50,,ISIC_4131353.JPG
break,html.Screen,4_49_1,2023-05-02T16:40:50.430Z,,0,,,4999.915999999997,timeout,,,,,false,,,,246380.80000019073,246379.886,241382.874,241393.30000019073,241396.541,246396.457,8,400,,,
break_continue,html.Screen,4_49_2,2023-05-02T16:40:53.230Z,,0,,,2765.543000000005,response,,,,,false,continue,keypress(Space),,249180.5,249162,246379.886,246381,246396.457,249196.394,8,400,,,
sequence,flow.Sequence,4_49,2023-05-02T16:40:53.230Z,,0,,,11481.959999999992,completion,,,,,false,,,,249180.69999980927,249162,237663.674,237673.40000009537,237680.04,249196.394,8,400,,,
trial,html.Screen,4_50_0,2023-05-02T16:40:57.530Z,,0,2,,4283.305999809265,response,ISIC_0011884.JPG,,ISIC_8021960.JPG,ISIC_8021960.JPG,false,0,keypress(z),500,253480,253479.69999980927,249174.609,249180.69999980927,249196.394,253495.978,8,400,1,,ISIC_0011884.JPG
break,html.Screen,4_50_1,2023-05-02T16:40:57.530Z,,0,,,NaN,,,,,,false,,,,253480.80000019073,253480.59999990463,,253480.09999990463,,253495.978,8,400,,,
break_continue,html.Screen,4_50_2,2023-05-02T16:40:57.531Z,,0,,,NaN,,,,,,false,,,,253481,253481,,253480.80000019073,,253495.978,8,400,,,
sequence,flow.Sequence,4_50,2023-05-02T16:40:57.531Z,,0,,,4284.606,completion,,,,,false,,,,253481,253481,249174.609,249180.69999980927,249196.394,253495.978,8,400,,,
trial,html.Screen,4_51_0,2023-05-02T16:41:01.222Z,,0,2,,3676.2219998092623,response,ISIC_8298434.JPG,,ISIC_0057307.JPG,ISIC_8298434.JPG,false,1,keypress(m),500,257172.59999990463,257172.19999980927,253479.301,253481.09999990463,253495.978,257179.046,8,400,2,,ISIC_0057307.JPG
break,html.Screen,4_51_1,2023-05-02T16:41:01.224Z,,0,,,NaN,,,,,,false,,,,257173.80000019073,257173.59999990463,,257172.80000019073,,257179.046,8,400,,,
break_continue,html.Screen,4_51_2,2023-05-02T16:41:01.224Z,,0,,,NaN,,,,,,false,,,,257174.30000019073,257174.19999980927,,257173.90000009537,,257179.046,8,400,,,
sequence,flow.Sequence,4_51,2023-05-02T16:41:01.224Z,,0,,,3678.2219998092623,completion,,,,,false,,,,257174.40000009537,257174.19999980927,253479.301,253481.09999990463,253495.978,257179.046,8,400,,,
trial,html.Screen,4_52_0,2023-05-02T16:41:04.371Z,,0,2,,3142.2540001907328,response,ISIC_8073036.JPG,,ISIC_0026738.JPG,ISIC_0026738.JPG,false,0,keypress(z),500,260321.59999990463,260321.30000019073,257162.775,257174.59999990463,257179.046,260328.942,8,400,3,,ISIC_8073036.JPG
break,html.Screen,4_52_1,2023-05-02T16:41:04.372Z,,0,,,NaN,,,,,,false,,,,260322.80000019073,260322.5,,260321.80000019073,,260328.942,8,400,,,
break_continue,html.Screen,4_52_2,2023-05-02T16:41:04.373Z,,0,,,NaN,,,,,,false,,,,260323.19999980927,260323.09999990463,,260323,,260328.942,8,400,,,
sequence,flow.Sequence,4_52,2023-05-02T16:41:04.373Z,,0,,,3144.0539999046305,completion,,,,,false,,,,260323.40000009537,260323.09999990463,257162.775,257174.59999990463,257179.046,260328.942,8,400,,,
trial,html.Screen,4_53_0,2023-05-02T16:41:07.036Z,,0,2,,2656.858000190725,response,ISIC_0014366.JPG,,ISIC_0056991.JPG,ISIC_0014366.JPG,false,1,keypress(m),500,262986.09999990463,262985.80000019073,260312.467,260323.5,260328.942,262995.5,8,400,4,,ISIC_0056991.JPG
break,html.Screen,4_53_1,2023-05-02T16:41:07.037Z,,0,,,NaN,,,,,,false,,,,262987.30000019073,262987.09999990463,,262986.40000009537,,262995.5,8,400,,,
break_continue,html.Screen,4_53_2,2023-05-02T16:41:07.038Z,,0,,,NaN,,,,,,false,,,,262987.80000019073,262987.69999980927,,262987.5,,262995.5,8,400,,,
sequence,flow.Sequence,4_53,2023-05-02T16:41:07.038Z,,0,,,2658.757999809255,completion,,,,,false,,,,262988,262987.69999980927,260312.467,260323.5,260328.942,262995.5,8,400,,,
trial,html.Screen,4_54_0,2023-05-02T16:41:09.517Z,,0,2,,2471.9000000953674,response,ISIC_0034106.JPG,,ISIC_3429835.JPG,ISIC_3429835.JPG,false,0,keypress(z),500,265467.59999990463,265467.40000009537,262979.008,262988.09999990463,262995.5,265478.812,8,400,5,,ISIC_0034106.JPG
break,html.Screen,4_54_1,2023-05-02T16:41:09.518Z,,0,,,NaN,,,,,,false,,,,265468.5,265468.40000009537,,265467.69999980927,,265478.812,8,400,,,
break_continue,html.Screen,4_54_2,2023-05-02T16:41:09.519Z,,0,,,NaN,,,,,,false,,,,265469,265469,,265468.59999990463,,265478.812,8,400,,,
sequence,flow.Sequence,4_54,2023-05-02T16:41:09.519Z,,0,,,2473.5,completion,,,,,false,,,,265469.30000019073,265469,262979.008,262988.09999990463,262995.5,265478.812,8,400,,,
trial,html.Screen,4_55_0,2023-05-02T16:41:14.176Z,,0,2,,4647.387999809289,response,ISIC_9412963.JPG,,ISIC_7501061.JPG,ISIC_7501061.JPG,false,0,keypress(z),500,270126.40000009537,270126.19999980927,265462.242,265469.30000019073,265478.812,270128.473,8,400,6,,ISIC_9412963.JPG
break,html.Screen,4_55_1,2023-05-02T16:41:14.177Z,,0,,,NaN,,,,,,false,,,,270127.59999990463,270127.30000019073,,270126.69999980927,,270128.473,8,400,,,
break_continue,html.Screen,4_55_2,2023-05-02T16:41:14.178Z,,0,,,NaN,,,,,,false,,,,270128,270128,,270127.80000019073,,270128.473,8,400,,,
sequence,flow.Sequence,4_55,2023-05-02T16:41:14.178Z,,0,,,4649.188000000024,completion,,,,,false,,,,270128.30000019073,270128,265462.242,265469.30000019073,265478.812,270128.473,8,400,,,
trial,html.Screen,4_56_0,2023-05-02T16:41:18.013Z,,0,2,,3834.4270000953693,response,ISIC_0010398.JPG,,ISIC_5498651.JPG,ISIC_0010398.JPG,false,1,keypress(m),500,273963,273962.90000009537,270112.114,270128.40000009537,270128.473,273978.386,8,400,7,,ISIC_5498651.JPG
break,html.Screen,4_56_1,2023-05-02T16:41:18.013Z,,0,,,NaN,,,,,,false,,,,273963.30000019073,273963.19999980927,,273963,,273978.386,8,400,,,
break_continue,html.Screen,4_56_2,2023-05-02T16:41:18.013Z,,0,,,NaN,,,,,,false,,,,273963.59999990463,273963.59999990463,,273963.40000009537,,273978.386,8,400,,,
sequence,flow.Sequence,4_56,2023-05-02T16:41:18.013Z,,0,,,3835.1269999046344,completion,,,,,false,,,,273963.59999990463,273963.59999990463,270112.114,270128.30000019073,270128.473,273978.386,8,400,,,
trial,html.Screen,4_57_0,2023-05-02T16:41:21.974Z,,0,2,,3945.9140001907363,response,ISIC_7507286.JPG,,ISIC_0014708.JPG,ISIC_0014708.JPG,false,0,keypress(z),500,277924.40000009537,277924.30000019073,273961.871,273963.80000019073,273978.386,277928.051,8,400,8,,ISIC_7507286.JPG
break,html.Screen,4_57_1,2023-05-02T16:41:21.975Z,,0,,,NaN,,,,,,false,,,,277925.30000019073,277925.19999980927,,277924.59999990463,,277928.051,8,400,,,
break_continue,html.Screen,4_57_2,2023-05-02T16:41:21.975Z,,0,,,NaN,,,,,,false,,,,277925.5,277925.40000009537,,277925.40000009537,,277928.051,8,400,,,
sequence,flow.Sequence,4_57,2023-05-02T16:41:21.975Z,,0,,,3947.014000095369,completion,,,,,false,,,,277925.59999990463,277925.40000009537,273961.871,273963.69999980927,273978.386,277928.051,8,400,,,
trial,html.Screen,4_58_0,2023-05-02T16:41:26.096Z,,0,2,,4117.84900009539,response,ISIC_0025791.JPG,,ISIC_0027993.JPG,ISIC_0025791.JPG,false,1,keypress(m),500,282046.09999990463,282045.90000009537,277911.621,277925.69999980927,277928.051,282061.542,8,400,9,,ISIC_0027993.JPG
break,html.Screen,4_58_1,2023-05-02T16:41:26.097Z,,0,,,NaN,,,,,,false,,,,282047.40000009537,282047.09999990463,,282046.40000009537,,282061.542,8,400,,,
break_continue,html.Screen,4_58_2,2023-05-02T16:41:26.098Z,,0,,,NaN,,,,,,false,,,,282047.80000019073,282047.69999980927,,282047.5,,282061.542,8,400,,,
sequence,flow.Sequence,4_58,2023-05-02T16:41:26.098Z,,0,,,4119.6489998092875,completion,,,,,false,,,,282048,282047.69999980927,277911.621,277925.69999980927,277928.051,282061.542,8,400,,,
trial,html.Screen,4_59_0,2023-05-02T16:41:29.135Z,,0,2,,3023.8580000953516,response,ISIC_0064337.JPG,,ISIC_0014150.JPG,ISIC_0064337.JPG,false,1,keypress(m),500,285085.69999980927,285085.40000009537,282044.919,282048.19999980927,282061.542,285094.432,8,400,10,,ISIC_0014150.JPG
break,html.Screen,4_59_1,2023-05-02T16:41:29.136Z,,0,,,NaN,,,,,,false,,,,285086.59999990463,285086.40000009537,,285085.90000009537,,285094.432,8,400,,,
break_continue,html.Screen,4_59_2,2023-05-02T16:41:29.137Z,,0,,,NaN,,,,,,false,,,,285086.90000009537,285086.90000009537,,285086.69999980927,,285094.432,8,400,,,
sequence,flow.Sequence,4_59,2023-05-02T16:41:29.137Z,,0,,,3025.3580000953516,completion,,,,,false,,,,285087.09999990463,285086.90000009537,282044.919,282048.09999990463,282061.542,285094.432,8,400,,,
trial,html.Screen,4_60_0,2023-05-02T16:41:34.253Z,,0,2,,5108.7679998092935,response,ISIC_2565986.JPG,,ISIC_0031214.JPG,ISIC_2565986.JPG,false,1,keypress(m),500,290203.69999980927,290203.19999980927,285077.909,285087.19999980927,285094.432,290210.84,8,400,11,,ISIC_0031214.JPG
break,html.Screen,4_60_1,2023-05-02T16:41:34.255Z,,0,,,NaN,,,,,,false,,,,290205.30000019073,290204.90000009537,,290204,,290210.84,8,400,,,
break_continue,html.Screen,4_60_2,2023-05-02T16:41:34.256Z,,0,,,NaN,,,,,,false,,,,290206,290205.80000019073,,290205.59999990463,,290210.84,8,400,,,
sequence,flow.Sequence,4_60,2023-05-02T16:41:34.256Z,,0,,,5111.368000190763,completion,,,,,false,,,,290206.30000019073,290205.80000019073,285077.909,285087.09999990463,285094.432,290210.84,8,400,,,
trial,html.Screen,4_61_0,2023-05-02T16:41:39.463Z,,0,2,,5202.060000095342,response,ISIC_0056155.JPG,,ISIC_0071906.JPG,ISIC_0056155.JPG,false,1,keypress(m),500,295413.19999980927,295412.90000009537,290194.42,290206.5,290210.84,295427.326,8,400,12,,ISIC_0071906.JPG
break,html.Screen,4_61_1,2023-05-02T16:41:39.464Z,,0,,,NaN,,,,,,false,,,,295414.59999990463,295414.30000019073,,295413.40000009537,,295427.326,8,400,,,
break_continue,html.Screen,4_61_2,2023-05-02T16:41:39.465Z,,0,,,NaN,,,,,,false,,,,295415.19999980927,295415,,295414.80000019073,,295427.326,8,400,,,
sequence,flow.Sequence,4_61,2023-05-02T16:41:39.465Z,,0,,,5204.159999999974,completion,,,,,false,,,,295415.5,295415,290194.42,290206.5,290210.84,295427.326,8,400,,,
trial,html.Screen,4_62_0,2023-05-02T16:41:42.633Z,,0,2,,3156.0740000953665,response,ISIC_0061806.JPG,,ISIC_6766153.JPG,ISIC_0061806.JPG,false,1,keypress(m),500,298583.69999980927,298583.40000009537,295410.8,295415.69999980927,295427.326,298593.856,8,400,13,,ISIC_6766153.JPG
break,html.Screen,4_62_1,2023-05-02T16:41:42.635Z,,0,,,NaN,,,,,,false,,,,298585.09999990463,298584.80000019073,,298584,,298593.856,8,400,,,
break_continue,html.Screen,4_62_2,2023-05-02T16:41:42.635Z,,0,,,NaN,,,,,,false,,,,298585.59999990463,298585.40000009537,,298585.19999980927,,298593.856,8,400,,,
sequence,flow.Sequence,4_62,2023-05-02T16:41:42.635Z,,0,,,3158.0740000953665,completion,,,,,false,,,,298585.80000019073,298585.40000009537,295410.8,295415.59999990463,295427.326,298593.856,8,400,,,
trial,html.Screen,4_63_0,2023-05-02T16:41:48.349Z,,0,2,,5705.044000095339,response,ISIC_5518595.JPG,,ISIC_0067801.JPG,ISIC_5518595.JPG,false,1,keypress(m),500,304299.19999980927,304298.90000009537,298577.332,298585.90000009537,298593.856,304310.471,8,400,14,,ISIC_0067801.JPG
break,html.Screen,4_63_1,2023-05-02T16:41:48.350Z,,0,,,NaN,,,,,,false,,,,304300.59999990463,304300.19999980927,,304299.5,,304310.471,8,400,,,
break_continue,html.Screen,4_63_2,2023-05-02T16:41:48.351Z,,0,,,NaN,,,,,,false,,,,304301.09999990463,304301,,304300.80000019073,,304310.471,8,400,,,
sequence,flow.Sequence,4_63,2023-05-02T16:41:48.351Z,,0,,,5707.143999999971,completion,,,,,false,,,,304301.30000019073,304301,298577.332,298585.80000019073,298593.856,304310.471,8,400,,,
trial,html.Screen,4_64_0,2023-05-02T16:41:51.228Z,,0,2,,2866.429000095348,response,ISIC_6410859.JPG,,ISIC_1137915.JPG,ISIC_6410859.JPG,false,1,keypress(m),500,307177.19999980927,307176.90000009537,304293.776,304301.5,304310.471,307193.527,8,400,15,,ISIC_1137915.JPG
break,html.Screen,4_64_1,2023-05-02T16:41:51.230Z,,0,,,NaN,,,,,,false,,,,307178.40000009537,307178.09999990463,,307177.40000009537,,307193.527,8,400,,,
break_continue,html.Screen,4_64_2,2023-05-02T16:41:51.230Z,,0,,,NaN,,,,,,false,,,,307178.80000019073,307178.59999990463,,307178.5,,307193.527,8,400,,,
sequence,flow.Sequence,4_64,2023-05-02T16:41:51.230Z,,0,,,2868.128999904613,completion,,,,,false,,,,307178.90000009537,307178.59999990463,304293.776,304301.40000009537,304310.471,307193.527,8,400,,,
trial,html.Screen,4_65_0,2023-05-02T16:41:53.835Z,,0,2,,2590.273000190733,response,ISIC_5323725.JPG,,ISIC_0032586.JPG,ISIC_0032586.JPG,false,0,keypress(z),500,309784.19999980927,309783.80000019073,307176.87,307179.19999980927,307193.527,309793.385,8,400,16,,ISIC_5323725.JPG
break,html.Screen,4_65_1,2023-05-02T16:41:53.837Z,,0,,,NaN,,,,,,false,,,,309786.09999990463,309785.69999980927,,309784.59999990463,,309793.385,8,400,,,
break_continue,html.Screen,4_65_2,2023-05-02T16:41:53.838Z,,0,,,NaN,,,,,,false,,,,309786.80000019073,309786.59999990463,,309786.30000019073,,309793.385,8,400,,,
sequence,flow.Sequence,4_65,2023-05-02T16:41:53.839Z,,0,,,2593.0729999046307,completion,,,,,false,,,,309787.30000019073,309786.59999990463,307176.87,307179.19999980927,307193.527,309793.385,8,400,,,
trial,html.Screen,4_66_0,2023-05-02T16:41:57.189Z,,0,2,,3343.7149999046233,response,ISIC_0029478.JPG,,ISIC_0053473.JPG,ISIC_0053473.JPG,false,0,keypress(z),500,313137.5,313137.09999990463,309776.786,309787.5,309793.385,313143.082,8,400,17,,ISIC_0029478.JPG
break,html.Screen,4_66_1,2023-05-02T16:41:57.190Z,,0,,,NaN,,,,,,false,,,,313139,313138.5,,313137.80000019073,,313143.082,8,400,,,
break_continue,html.Screen,4_66_2,2023-05-02T16:41:57.191Z,,0,,,NaN,,,,,,false,,,,313139.5,313139.19999980927,,313139.09999990463,,313143.082,8,400,,,
sequence,flow.Sequence,4_66,2023-05-02T16:41:57.191Z,,0,,,3345.814999809256,completion,,,,,false,,,,313139.69999980927,313139.19999980927,309776.786,309787.40000009537,309793.385,313143.082,8,400,,,
trial,html.Screen,4_67_0,2023-05-02T16:42:02.260Z,,0,2,,5065.418000000005,response,ISIC_4252887.JPG,,ISIC_0000558.JPG,ISIC_4252887.JPG,false,1,keypress(m),500,318208.80000019073,318208.5,313126.476,313139.80000019073,313143.082,318226.476,8,400,18,,ISIC_0000558.JPG
break,html.Screen,4_67_1,2023-05-02T16:42:02.261Z,,0,,,NaN,,,,,,false,,,,318210.19999980927,318209.80000019073,,318209.09999990463,,318226.476,8,400,,,
break_continue,html.Screen,4_67_2,2023-05-02T16:42:02.262Z,,0,,,NaN,,,,,,false,,,,318210.59999990463,318210.5,,318210.30000019073,,318226.476,8,400,,,
sequence,flow.Sequence,4_67,2023-05-02T16:42:02.262Z,,0,,,5067.418000000005,completion,,,,,false,,,,318210.80000019073,318210.5,313126.476,313139.69999980927,313143.082,318226.476,8,400,,,
trial,html.Screen,4_68_0,2023-05-02T16:42:06.081Z,,0,2,,3802.723999809241,response,ISIC_0054914.JPG,,ISIC_0027234.JPG,ISIC_0027234.JPG,false,0,keypress(z),500,322029.40000009537,322029.19999980927,318209.501,318210.90000009537,318226.476,322042.691,8,400,19,,ISIC_0054914.JPG
break,html.Screen,4_68_1,2023-05-02T16:42:06.082Z,,0,,,NaN,,,,,,false,,,,322030.69999980927,322030.40000009537,,322029.69999980927,,322042.691,8,400,,,
break_continue,html.Screen,4_68_2,2023-05-02T16:42:06.082Z,,0,,,NaN,,,,,,false,,,,322031.09999990463,322031,,322030.80000019073,,322042.691,8,400,,,
sequence,flow.Sequence,4_68,2023-05-02T16:42:06.083Z,,0,,,3804.523999999976,completion,,,,,false,,,,322031.30000019073,322031,318209.501,318210.80000019073,318226.476,322042.691,8,400,,,
trial,html.Screen,4_69_0,2023-05-02T16:42:08.789Z,,0,2,,2694.8090000000084,response,ISIC_0046394.JPG,,ISIC_0032610.JPG,ISIC_0046394.JPG,false,1,keypress(m),500,324737.69999980927,324737.5,322025.974,322031.40000009537,322042.691,324742.537,8,400,20,,ISIC_0032610.JPG
break,html.Screen,4_69_1,2023-05-02T16:42:08.790Z,,0,,,NaN,,,,,,false,,,,324739,324738.69999980927,,324737.90000009537,,324742.537,8,400,,,
break_continue,html.Screen,4_69_2,2023-05-02T16:42:08.791Z,,0,,,NaN,,,,,,false,,,,324739.69999980927,324739.40000009537,,324739.30000019073,,324742.537,8,400,,,
sequence,flow.Sequence,4_69,2023-05-02T16:42:08.791Z,,0,,,2696.709000095376,completion,,,,,false,,,,324740,324739.40000009537,322025.974,322031.40000009537,322042.691,324742.537,8,400,,,
trial,html.Screen,4_70_0,2023-05-02T16:42:15.754Z,,0,2,,6959.562999904621,response,ISIC_0001745.JPG,,ISIC_0028065.JPG,ISIC_0028065.JPG,false,0,keypress(z),500,331702.5,331702.09999990463,324726.026,324740,324742.537,331709.098,8,400,21,,ISIC_0001745.JPG
break,html.Screen,4_70_1,2023-05-02T16:42:15.755Z,,0,,,NaN,,,,,,false,,,,331703.80000019073,331703.5,,331702.80000019073,,331709.098,8,400,,,
break_continue,html.Screen,4_70_2,2023-05-02T16:42:15.755Z,,0,,,NaN,,,,,,false,,,,331704.19999980927,331704.09999990463,,331703.90000009537,,331709.098,8,400,,,
sequence,flow.Sequence,4_70,2023-05-02T16:42:15.756Z,,0,,,6961.562999904621,completion,,,,,false,,,,331704.40000009537,331704.09999990463,324726.026,324740,324742.537,331709.098,8,400,,,
trial,html.Screen,4_71_0,2023-05-02T16:42:18.754Z,,0,2,,2993.101999809267,response,ISIC_7498132.JPG,,ISIC_0003122.JPG,ISIC_7498132.JPG,false,1,keypress(m),500,334702.40000009537,334702.19999980927,331692.441,331704.5,331709.098,334708.722,8,400,22,,ISIC_0003122.JPG
break,html.Screen,4_71_1,2023-05-02T16:42:18.755Z,,0,,,NaN,,,,,,false,,,,334703.59999990463,334703.30000019073,,334702.59999990463,,334708.722,8,400,,,
break_continue,html.Screen,4_71_2,2023-05-02T16:42:18.755Z,,0,,,NaN,,,,,,false,,,,334703.90000009537,334703.80000019073,,334703.69999980927,,334708.722,8,400,,,
sequence,flow.Sequence,4_71,2023-05-02T16:42:18.755Z,,0,,,2994.7020001907367,completion,,,,,false,,,,334704.19999980927,334703.80000019073,331692.441,331704.5,331709.098,334708.722,8,400,,,
trial,html.Screen,4_72_0,2023-05-02T16:42:23.709Z,,0,2,,4948.678000095359,response,ISIC_0760740.JPG,,ISIC_6458982.JPG,ISIC_6458982.JPG,false,0,keypress(z),500,339657.69999980927,339657.40000009537,334692.187,334704.30000019073,334708.722,339675.45,8,400,23,,ISIC_0760740.JPG
break,html.Screen,4_72_1,2023-05-02T16:42:23.710Z,,0,,,NaN,,,,,,false,,,,339658.90000009537,339658.40000009537,,339658,,339675.45,8,400,,,
break_continue,html.Screen,4_72_2,2023-05-02T16:42:23.711Z,,0,,,NaN,,,,,,false,,,,339659.40000009537,339659.19999980927,,339659,,339675.45,8,400,,,
sequence,flow.Sequence,4_72,2023-05-02T16:42:23.711Z,,0,,,4950.477999809256,completion,,,,,false,,,,339659.5,339659.19999980927,334692.187,334704.19999980927,334708.722,339675.45,8,400,,,
trial,html.Screen,4_73_0,2023-05-02T16:42:26.724Z,,0,2,,2996.5499999999884,response,ISIC_0032602.JPG,,ISIC_4081632.JPG,ISIC_0032602.JPG,false,1,keypress(m),500,342672.30000019073,342672,339658.478,339659.69999980927,339675.45,342674.992,8,400,24,,ISIC_4081632.JPG
break,html.Screen,4_73_1,2023-05-02T16:42:26.725Z,,0,,,NaN,,,,,,false,,,,342673.5,342673.19999980927,,342672.5,,342674.992,8,400,,,
break_continue,html.Screen,4_73_2,2023-05-02T16:42:26.725Z,,0,,,NaN,,,,,,false,,,,342673.90000009537,342673.80000019073,,342673.59999990463,,342674.992,8,400,,,
sequence,flow.Sequence,4_73,2023-05-02T16:42:26.725Z,,0,,,2998.350000190723,completion,,,,,false,,,,342674,342673.80000019073,339658.478,339659.59999990463,339675.45,342674.992,8,400,,,
trial,html.Screen,4_74_0,2023-05-02T16:42:31.400Z,,0,2,,4673.207999809238,response,ISIC_0067696.JPG,,ISIC_0053996.JPG,ISIC_0067696.JPG,false,1,keypress(m),500,347348.5,347348.19999980927,342658.474,342674.19999980927,342674.992,347358.099,8,400,25,,ISIC_0053996.JPG
break,html.Screen,4_74_1,2023-05-02T16:42:31.401Z,,0,,,NaN,,,,,,false,,,,347349.90000009537,347349.59999990463,,347348.90000009537,,347358.099,8,400,,,
break_continue,html.Screen,4_74_2,2023-05-02T16:42:31.402Z,,0,,,NaN,,,,,,false,,,,347350.59999990463,347350.40000009537,,347350.09999990463,,347358.099,8,400,,,
sequence,flow.Sequence,4_74,2023-05-02T16:42:31.402Z,,0,,,4675.40800009534,completion,,,,,false,,,,347350.69999980927,347350.40000009537,342658.474,342674.19999980927,342674.992,347358.099,8,400,,,
trial,html.Screen,4_75_0,2023-05-02T16:42:34.795Z,,0,2,,3384.9010000000126,response,ISIC_0029033.JPG,,ISIC_5288404.JPG,ISIC_5288404.JPG,false,0,keypress(z),500,350743.40000009537,350743,347341.767,347350.80000019073,347358.099,350757.899,8,400,26,,ISIC_0029033.JPG
break,html.Screen,4_75_1,2023-05-02T16:42:34.796Z,,0,,,NaN,,,,,,false,,,,350745,350744.59999990463,,350743.69999980927,,350757.899,8,400,,,
break_continue,html.Screen,4_75_2,2023-05-02T16:42:34.797Z,,0,,,NaN,,,,,,false,,,,350745.59999990463,350745.40000009537,,350745.09999990463,,350757.899,8,400,,,
sequence,flow.Sequence,4_75,2023-05-02T16:42:34.797Z,,0,,,3387.30100009538,completion,,,,,false,,,,350745.69999980927,350745.40000009537,347341.767,347350.80000019073,347358.099,350757.899,8,400,,,
trial,html.Screen,4_76_0,2023-05-02T16:42:37.841Z,,0,2,,3031.5010000953916,response,ISIC_3380212.JPG,,ISIC_8406262.JPG,ISIC_8406262.JPG,false,0,keypress(z),500,353789.69999980927,353789.40000009537,350741.607,350745.90000009537,350757.899,353821.184,8,400,27,,ISIC_3380212.JPG
break,html.Screen,4_76_1,2023-05-02T16:42:37.842Z,,0,,,NaN,,,,,,false,,,,353791.09999990463,353790.69999980927,,353790,,353821.184,8,400,,,
break_continue,html.Screen,4_76_2,2023-05-02T16:42:37.843Z,,0,,,NaN,,,,,,false,,,,353791.59999990463,353791.40000009537,,353791.19999980927,,353821.184,8,400,,,
sequence,flow.Sequence,4_76,2023-05-02T16:42:37.843Z,,0,,,3033.5010000953916,completion,,,,,false,,,,353791.80000019073,353791.40000009537,350741.607,350745.80000019073,350757.899,353821.184,8,400,,,
trial,html.Screen,4_77_0,2023-05-02T16:42:40.831Z,,0,2,,2957.8159999999916,response,ISIC_0065883.JPG,,ISIC_4810485.JPG,ISIC_0065883.JPG,false,1,keypress(m),500,356779.30000019073,356779,353774.626,353791.90000009537,353821.184,356791.034,8,400,28,,ISIC_4810485.JPG
break,html.Screen,4_77_1,2023-05-02T16:42:40.831Z,,0,,,NaN,,,,,,false,,,,356780,356779.80000019073,,356779.5,,356791.034,8,400,,,
break_continue,html.Screen,4_77_2,2023-05-02T16:42:40.832Z,,0,,,NaN,,,,,,false,,,,356780.90000009537,356780.69999980927,,356780.40000009537,,356791.034,8,400,,,
sequence,flow.Sequence,4_77,2023-05-02T16:42:40.832Z,,0,,,2959.5159998092568,completion,,,,,false,,,,356781,356780.69999980927,353774.626,353791.90000009537,353821.184,356791.034,8,400,,,
trial,html.Screen,4_78_0,2023-05-02T16:42:43.862Z,,0,2,,3018.8660000953823,response,ISIC_7226381.JPG,,ISIC_0028986.JPG,ISIC_0028986.JPG,false,0,keypress(z),500,359810.19999980927,359809.90000009537,356774.48,356781.09999990463,356791.034,359824.422,8,400,29,,ISIC_7226381.JPG
break,html.Screen,4_78_1,2023-05-02T16:42:43.863Z,,0,,,NaN,,,,,,false,,,,359811.5,359811.19999980927,,359810.5,,359824.422,8,400,,,
break_continue,html.Screen,4_78_2,2023-05-02T16:42:43.863Z,,0,,,NaN,,,,,,false,,,,359811.80000019073,359811.80000019073,,359811.59999990463,,359824.422,8,400,,,
sequence,flow.Sequence,4_78,2023-05-02T16:42:43.863Z,,0,,,3020.7660001907498,completion,,,,,false,,,,359812,359811.80000019073,356774.48,356781.09999990463,356791.034,359824.422,8,400,,,
trial,html.Screen,4_79_0,2023-05-02T16:42:47.474Z,,0,2,,3598.3780001907144,response,ISIC_0068259.JPG,,ISIC_0057759.JPG,ISIC_0068259.JPG,false,1,keypress(m),500,363423.09999990463,363422.80000019073,359807.721,359812.19999980927,359824.422,363440.807,8,400,30,,ISIC_0057759.JPG
break,html.Screen,4_79_1,2023-05-02T16:42:47.476Z,,0,,,NaN,,,,,,false,,,,363424.5,363424.19999980927,,363423.30000019073,,363440.807,8,400,,,
break_continue,html.Screen,4_79_2,2023-05-02T16:42:47.476Z,,0,,,NaN,,,,,,false,,,,363425.19999980927,363425,,363424.69999980927,,363440.807,8,400,,,
sequence,flow.Sequence,4_79,2023-05-02T16:42:47.477Z,,0,,,3600.5779999999795,completion,,,,,false,,,,363425.30000019073,363425,359807.721,359812.09999990463,359824.422,363440.807,8,400,,,
trial,html.Screen,4_80_0,2023-05-02T16:42:50.626Z,,0,2,,3133.8929998092935,response,ISIC_0001832.JPG,,ISIC_5615694.JPG,ISIC_5615694.JPG,false,0,keypress(z),500,366575,366574.69999980927,363407.522,363425.5,363440.807,366590.799,8,400,31,,ISIC_0001832.JPG
break,html.Screen,4_80_1,2023-05-02T16:42:50.628Z,,0,,,NaN,,,,,,false,,,,366576.40000009537,366576.09999990463,,366575.19999980927,,366590.799,8,400,,,
break_continue,html.Screen,4_80_2,2023-05-02T16:42:50.628Z,,0,,,NaN,,,,,,false,,,,366576.90000009537,366576.69999980927,,366576.5,,366590.799,8,400,,,
sequence,flow.Sequence,4_80,2023-05-02T16:42:50.628Z,,0,,,3135.8929998092935,completion,,,,,false,,,,366577,366576.69999980927,363407.522,363425.40000009537,363440.807,366590.799,8,400,,,
trial,html.Screen,4_81_0,2023-05-02T16:42:53.755Z,,0,2,,3113.8009999046335,response,ISIC_0067695.JPG,,ISIC_4732684.JPG,ISIC_4732684.JPG,false,0,keypress(z),500,369705,369704.59999990463,366573.851,366577.19999980927,366590.799,369707.027,8,400,32,,ISIC_0067695.JPG
break,html.Screen,4_81_1,2023-05-02T16:42:53.757Z,,0,,,NaN,,,,,,false,,,,369706.40000009537,369706.09999990463,,369705.40000009537,,369707.027,8,400,,,
break_continue,html.Screen,4_81_2,2023-05-02T16:42:53.757Z,,0,,,NaN,,,,,,false,,,,369706.80000019073,369706.69999980927,,369706.5,,369707.027,8,400,,,
sequence,flow.Sequence,4_81,2023-05-02T16:42:53.757Z,,0,,,3115.900999809266,completion,,,,,false,,,,369707.19999980927,369706.69999980927,366573.851,366577.09999990463,366590.799,369707.027,8,400,,,
trial,html.Screen,4_82_0,2023-05-02T16:42:56.277Z,,0,2,,2519.6729998092633,response,ISIC_9254641.JPG,,ISIC_0010124.JPG,ISIC_0010124.JPG,false,0,keypress(z),500,372227,372226.69999980927,369690.499,369707.40000009537,369707.027,372240.481,8,400,33,,ISIC_9254641.JPG
break,html.Screen,4_82_1,2023-05-02T16:42:56.278Z,,0,,,NaN,,,,,,false,,,,372228.09999990463,372227.90000009537,,372227.19999980927,,372240.481,8,400,,,
break_continue,html.Screen,4_82_2,2023-05-02T16:42:56.279Z,,0,,,NaN,,,,,,false,,,,372228.59999990463,372228.5,,372228.30000019073,,372240.481,8,400,,,
sequence,flow.Sequence,4_82,2023-05-02T16:42:56.279Z,,0,,,2521.472999999998,completion,,,,,false,,,,372228.80000019073,372228.5,369690.499,369707.40000009537,369707.027,372240.481,8,400,,,
trial,html.Screen,4_83_0,2023-05-02T16:42:59.312Z,,0,2,,3020.9190000953386,response,ISIC_0004857.JPG,,ISIC_0071951.JPG,ISIC_0071951.JPG,false,0,keypress(z),500,375261.69999980927,375261.40000009537,372223.839,372228.90000009537,372240.481,375273.63,8,400,34,,ISIC_0004857.JPG
break,html.Screen,4_83_1,2023-05-02T16:42:59.313Z,,0,,,NaN,,,,,,false,,,,375262.90000009537,375262.5,,375261.90000009537,,375273.63,8,400,,,
break_continue,html.Screen,4_83_2,2023-05-02T16:42:59.314Z,,0,,,NaN,,,,,,false,,,,375263.40000009537,375263.19999980927,,375263.09999990463,,375273.63,8,400,,,
sequence,flow.Sequence,4_83,2023-05-02T16:42:59.314Z,,0,,,3022.7189998092363,completion,,,,,false,,,,375263.5,375263.19999980927,372223.839,372228.80000019073,372240.481,375273.63,8,400,,,
trial,html.Screen,4_84_0,2023-05-02T16:43:02.439Z,,0,2,,3115.0699998092605,response,ISIC_0056655.JPG,,ISIC_9417004.JPG,ISIC_0056655.JPG,false,1,keypress(m),500,378389.09999990463,378388.69999980927,375256.917,375263.69999980927,375273.63,378406.915,8,400,35,,ISIC_9417004.JPG
break,html.Screen,4_84_1,2023-05-02T16:43:02.441Z,,0,,,NaN,,,,,,false,,,,378390.5,378390.19999980927,,378389.30000019073,,378406.915,8,400,,,
break_continue,html.Screen,4_84_2,2023-05-02T16:43:02.441Z,,0,,,NaN,,,,,,false,,,,378391,378390.90000009537,,378390.80000019073,,378406.915,8,400,,,
sequence,flow.Sequence,4_84,2023-05-02T16:43:02.441Z,,0,,,3117.270000095363,completion,,,,,false,,,,378391.19999980927,378390.90000009537,375256.917,375263.69999980927,375273.63,378406.915,8,400,,,
trial,html.Screen,4_85_0,2023-05-02T16:43:05.167Z,,0,2,,2708.9850000953884,response,ISIC_6455702.JPG,,ISIC_0010768.JPG,ISIC_6455702.JPG,false,1,keypress(m),500,381116.30000019073,381115.90000009537,378373.462,378391.30000019073,378406.915,381123.146,8,400,36,,ISIC_0010768.JPG
break,html.Screen,4_85_1,2023-05-02T16:43:05.168Z,,0,,,NaN,,,,,,false,,,,381117.59999990463,381117.09999990463,,381116.5,,381123.146,8,400,,,
break_continue,html.Screen,4_85_2,2023-05-02T16:43:05.168Z,,0,,,NaN,,,,,,false,,,,381118,381117.80000019073,,381117.69999980927,,381123.146,8,400,,,
sequence,flow.Sequence,4_85,2023-05-02T16:43:05.168Z,,0,,,2710.885000190756,completion,,,,,false,,,,381118.09999990463,381117.80000019073,378373.462,378391.30000019073,378406.915,381123.146,8,400,,,
trial,html.Screen,4_86_0,2023-05-02T16:43:08.571Z,,0,2,,3397.2540000953595,response,ISIC_8468512.JPG,,ISIC_0032718.JPG,ISIC_0032718.JPG,false,0,keypress(z),500,384520.69999980927,384520.40000009537,381107.583,381118.30000019073,381123.146,384523.051,8,400,37,,ISIC_8468512.JPG
break,html.Screen,4_86_1,2023-05-02T16:43:08.572Z,,0,,,NaN,,,,,,false,,,,384521.80000019073,384521.30000019073,,384520.90000009537,,384523.051,8,400,,,
break_continue,html.Screen,4_86_2,2023-05-02T16:43:08.572Z,,0,,,NaN,,,,,,false,,,,384522.19999980927,384522.09999990463,,384521.90000009537,,384523.051,8,400,,,
sequence,flow.Sequence,4_86,2023-05-02T16:43:08.573Z,,0,,,3398.9539999046247,completion,,,,,false,,,,384522.40000009537,384522.09999990463,381107.583,381118.30000019073,381123.146,384523.051,8,400,,,
trial,html.Screen,4_87_0,2023-05-02T16:43:11.489Z,,0,2,,2915.548999904655,response,ISIC_8167374.JPG,,ISIC_0064406.JPG,ISIC_0064406.JPG,false,0,keypress(z),500,387438.90000009537,387438.59999990463,384506.584,384522.5,384523.051,387473.039,8,400,38,,ISIC_8167374.JPG
break,html.Screen,4_87_1,2023-05-02T16:43:11.490Z,,0,,,NaN,,,,,,false,,,,387440.09999990463,387439.80000019073,,387439.09999990463,,387473.039,8,400,,,
break_continue,html.Screen,4_87_2,2023-05-02T16:43:11.491Z,,0,,,NaN,,,,,,false,,,,387440.5,387440.40000009537,,387440.19999980927,,387473.039,8,400,,,
sequence,flow.Sequence,4_87,2023-05-02T16:43:11.491Z,,0,,,2917.34900009539,completion,,,,,false,,,,387440.59999990463,387440.40000009537,384506.584,384522.5,384523.051,387473.039,8,400,,,
trial,html.Screen,4_88_0,2023-05-02T16:43:14.695Z,,0,2,,3171.4610000000102,response,ISIC_1925590.JPG,,ISIC_0010852.JPG,ISIC_1925590.JPG,false,1,keypress(m),500,390644.80000019073,390644.5,387456.174,387440.80000019073,387473.039,390656.151,8,400,39,,ISIC_0010852.JPG
break,html.Screen,4_88_1,2023-05-02T16:43:14.697Z,,0,,,NaN,,,,,,false,,,,390646.30000019073,390646,,390645,,390656.151,8,400,,,
break_continue,html.Screen,4_88_2,2023-05-02T16:43:14.697Z,,0,,,NaN,,,,,,false,,,,390646.80000019073,390646.69999980927,,390646.5,,390656.151,8,400,,,
sequence,flow.Sequence,4_88,2023-05-02T16:43:14.697Z,,0,,,3173.6609998092754,completion,,,,,false,,,,390647,390646.69999980927,387456.174,387440.69999980927,387473.039,390656.151,8,400,,,
trial,html.Screen,4_89_0,2023-05-02T16:43:18.245Z,,0,2,,3538.44899990462,response,ISIC_7803114.JPG,,ISIC_0025267.JPG,ISIC_7803114.JPG,false,1,keypress(m),500,394194.90000009537,394194.59999990463,390639.562,390647.19999980927,390656.151,394205.838,8,400,40,,ISIC_0025267.JPG
break,html.Screen,4_89_1,2023-05-02T16:43:18.247Z,,0,,,NaN,,,,,,false,,,,394196.30000019073,394196,,394195.09999990463,,394205.838,8,400,,,
break_continue,html.Screen,4_89_2,2023-05-02T16:43:18.247Z,,0,,,NaN,,,,,,false,,,,394196.69999980927,394196.59999990463,,394196.5,,394205.838,8,400,,,
sequence,flow.Sequence,4_89,2023-05-02T16:43:18.247Z,,0,,,3540.44899990462,completion,,,,,false,,,,394196.90000009537,394196.59999990463,390639.562,390647.09999990463,390656.151,394205.838,8,400,,,
trial,html.Screen,4_90_0,2023-05-02T16:43:21.678Z,,0,2,,3421.462000190746,response,ISIC_2858419.JPG,,ISIC_0000239.JPG,ISIC_2858419.JPG,false,1,keypress(m),500,397627.69999980927,397627.30000019073,394190.134,394197,394205.838,397638.996,8,400,41,,ISIC_0000239.JPG
break,html.Screen,4_90_1,2023-05-02T16:43:21.679Z,,0,,,NaN,,,,,,false,,,,397628.80000019073,397628.59999990463,,397627.90000009537,,397638.996,8,400,,,
break_continue,html.Screen,4_90_2,2023-05-02T16:43:21.680Z,,0,,,NaN,,,,,,false,,,,397629.30000019073,397629.19999980927,,397629,,397638.996,8,400,,,
sequence,flow.Sequence,4_90,2023-05-02T16:43:21.680Z,,0,,,3423.3619998092763,completion,,,,,false,,,,397629.5,397629.19999980927,394190.134,394196.90000009537,394205.838,397638.996,8,400,,,
trial,html.Screen,4_91_0,2023-05-02T16:43:25.882Z,,0,2,,4192.404000095383,response,ISIC_0055931.JPG,,ISIC_0033568.JPG,ISIC_0055931.JPG,false,1,keypress(m),500,401831.69999980927,401831.40000009537,397622.593,397629.59999990463,397638.996,401839.285,8,400,42,,ISIC_0033568.JPG
break,html.Screen,4_91_1,2023-05-02T16:43:25.883Z,,0,,,NaN,,,,,,false,,,,401833,401832.69999980927,,401831.90000009537,,401839.285,8,400,,,
break_continue,html.Screen,4_91_2,2023-05-02T16:43:25.884Z,,0,,,NaN,,,,,,false,,,,401833.40000009537,401833.30000019073,,401833.09999990463,,401839.285,8,400,,,
sequence,flow.Sequence,4_91,2023-05-02T16:43:25.884Z,,0,,,4194.30400019075,completion,,,,,false,,,,401833.59999990463,401833.30000019073,397622.593,397629.5,397638.996,401839.285,8,400,,,
trial,html.Screen,4_92_0,2023-05-02T16:43:28.870Z,,0,2,,2980.115000095393,response,ISIC_0033365.JPG,,ISIC_9047184.JPG,ISIC_9047184.JPG,false,0,keypress(z),500,404819.59999990463,404819.40000009537,401822.185,401833.80000019073,401839.285,404822.027,8,400,43,,ISIC_0033365.JPG
break,html.Screen,4_92_1,2023-05-02T16:43:28.871Z,,0,,,NaN,,,,,,false,,,,404821,404820.80000019073,,404819.90000009537,,404822.027,8,400,,,
break_continue,html.Screen,4_92_2,2023-05-02T16:43:28.872Z,,0,,,NaN,,,,,,false,,,,404821.5,404821.30000019073,,404821.30000019073,,404822.027,8,400,,,
sequence,flow.Sequence,4_92,2023-05-02T16:43:28.872Z,,0,,,2982.0150001907605,completion,,,,,false,,,,404821.69999980927,404821.30000019073,401822.185,401833.80000019073,401839.285,404822.027,8,400,,,
trial,html.Screen,4_93_0,2023-05-02T16:43:31.579Z,,0,2,,2706.6729998092633,response,ISIC_0033104.JPG,,ISIC_1048077.JPG,ISIC_1048077.JPG,false,0,keypress(z),500,407529,407528.69999980927,404805.525,404821.80000019073,404822.027,407538.661,8,400,44,,ISIC_0033104.JPG
break,html.Screen,4_93_1,2023-05-02T16:43:31.581Z,,0,,,NaN,,,,,,false,,,,407530.30000019073,407530,,407529.19999980927,,407538.661,8,400,,,
break_continue,html.Screen,4_93_2,2023-05-02T16:43:31.581Z,,0,,,NaN,,,,,,false,,,,407530.69999980927,407530.5,,407530.40000009537,,407538.661,8,400,,,
sequence,flow.Sequence,4_93,2023-05-02T16:43:31.581Z,,0,,,2708.472999999998,completion,,,,,false,,,,407530.90000009537,407530.5,404805.525,404821.80000019073,404822.027,407538.661,8,400,,,
trial,html.Screen,4_94_0,2023-05-02T16:43:34.514Z,,0,2,,2925.0389998092433,response,ISIC_9012513.JPG,,ISIC_0033044.JPG,ISIC_9012513.JPG,false,1,keypress(m),500,410464,410463.69999980927,407523.115,407531.09999990463,407538.661,410471.747,8,400,45,,ISIC_0033044.JPG
break,html.Screen,4_94_1,2023-05-02T16:43:34.515Z,,0,,,NaN,,,,,,false,,,,410465.09999990463,410464.80000019073,,410464.19999980927,,410471.747,8,400,,,
break_continue,html.Screen,4_94_2,2023-05-02T16:43:34.516Z,,0,,,NaN,,,,,,false,,,,410465.40000009537,410465.40000009537,,410465.19999980927,,410471.747,8,400,,,
sequence,flow.Sequence,4_94,2023-05-02T16:43:34.516Z,,0,,,2926.7390000953455,completion,,,,,false,,,,410465.69999980927,410465.40000009537,407523.115,407530.90000009537,407538.661,410471.747,8,400,,,
trial,html.Screen,4_95_0,2023-05-02T16:43:37.563Z,,0,2,,3040.753000000026,response,ISIC_8559778.JPG,,ISIC_0028515.JPG,ISIC_8559778.JPG,false,1,keypress(m),500,413512.69999980927,413512.5,410455.119,410465.80000019073,410471.747,413521.568,8,400,46,,ISIC_0028515.JPG
break,html.Screen,4_95_1,2023-05-02T16:43:37.564Z,,0,,,NaN,,,,,,false,,,,413513.90000009537,413513.59999990463,,413513,,413521.568,8,400,,,
break_continue,html.Screen,4_95_2,2023-05-02T16:43:37.565Z,,0,,,NaN,,,,,,false,,,,413514.30000019073,413514.19999980927,,413514.09999990463,,413521.568,8,400,,,
sequence,flow.Sequence,4_95,2023-05-02T16:43:37.565Z,,0,,,3042.452999809291,completion,,,,,false,,,,413514.40000009537,413514.19999980927,410455.119,410465.69999980927,410471.747,413521.568,8,400,,,
trial,html.Screen,4_96_0,2023-05-02T16:43:40.203Z,,0,2,,2630.7320001907065,response,ISIC_0033584.JPG,,ISIC_8248922.JPG,ISIC_0033584.JPG,false,1,keypress(m),500,416152.69999980927,416152.30000019073,413505.105,413514.5,413521.568,416154.789,8,400,47,,ISIC_8248922.JPG
break,html.Screen,4_96_1,2023-05-02T16:43:40.204Z,,0,,,NaN,,,,,,false,,,,416154,416153.80000019073,,416152.90000009537,,416154.789,8,400,,,
break_continue,html.Screen,4_96_2,2023-05-02T16:43:40.205Z,,0,,,NaN,,,,,,false,,,,416154.5,416154.40000009537,,416154.09999990463,,416154.789,8,400,,,
sequence,flow.Sequence,4_96,2023-05-02T16:43:40.205Z,,0,,,2632.832000095339,completion,,,,,false,,,,416154.69999980927,416154.40000009537,413505.105,413514.5,413521.568,416154.789,8,400,,,
trial,html.Screen,4_97_0,2023-05-02T16:43:42.789Z,,0,2,,2583.2110000000102,response,ISIC_0031960.JPG,,ISIC_0010308.JPG,ISIC_0010308.JPG,false,0,keypress(z),500,418738.40000009537,418738,416138.327,416155,416154.789,418754.895,8,400,48,,ISIC_0031960.JPG
break,html.Screen,4_97_1,2023-05-02T16:43:42.790Z,,0,,,NaN,,,,,,false,,,,418739.90000009537,418739.5,,418738.59999990463,,418754.895,8,400,,,
break_continue,html.Screen,4_97_2,2023-05-02T16:43:42.791Z,,0,,,NaN,,,,,,false,,,,418740.30000019073,418740.19999980927,,418740.09999990463,,418754.895,8,400,,,
sequence,flow.Sequence,4_97,2023-05-02T16:43:42.791Z,,0,,,2585.4109998092754,completion,,,,,false,,,,418740.5,418740.19999980927,416138.327,416154.90000009537,416154.789,418754.895,8,400,,,
trial,html.Screen,4_98_0,2023-05-02T16:43:45.396Z,,0,2,,2590.204999904614,response,ISIC_4368650.JPG,,ISIC_0000295.JPG,ISIC_4368650.JPG,false,1,keypress(m),500,421345.5,421345.09999990463,418738.603,418740.59999990463,418754.895,421354.524,8,400,49,,ISIC_0000295.JPG
break,html.Screen,4_98_1,2023-05-02T16:43:45.397Z,,0,,,NaN,,,,,,false,,,,421346.59999990463,421346.40000009537,,421345.69999980927,,421354.524,8,400,,,
break_continue,html.Screen,4_98_2,2023-05-02T16:43:45.397Z,,0,,,NaN,,,,,,false,,,,421347.09999990463,421347.09999990463,,421346.69999980927,,421354.524,8,400,,,
sequence,flow.Sequence,4_98,2023-05-02T16:43:45.398Z,,0,,,2592.204999904614,completion,,,,,false,,,,421347.30000019073,421347.09999990463,418738.603,418740.59999990463,418754.895,421354.524,8,400,,,
trial,html.Screen,4_99_0,2023-05-02T16:43:50.177Z,,0,2,,4771.776000190759,response,ISIC_5547318.JPG,,ISIC_0033586.JPG,ISIC_0033586.JPG,false,0,keypress(z),500,426126.5,426126.30000019073,421338.099,421347.40000009537,421354.524,426137.681,8,400,50,,ISIC_5547318.JPG
break,html.Screen,4_99_1,2023-05-02T16:43:55.173Z,,0,,,5000.064000000013,timeout,,,,,false,,,,431121.80000019073,431121.144,426121.185,426126.80000019073,426137.681,431137.745,8,400,,,
break_continue,html.Screen,4_99_2,2023-05-02T16:44:05.171Z,,0,,,9967.05500019074,response,,,,,false,continue,keypress(Space),,441119.19999980927,441104.80000019073,431121.144,431122,431137.745,441138.933,8,400,,,
sequence,flow.Sequence,4_99,2023-05-02T16:44:05.171Z,,0,,,19750.27600019076,completion,,,,,false,,,,441119.30000019073,441104.80000019073,421338.099,421347.40000009537,421354.524,441138.933,8,400,,,
trial,html.Screen,4_100_0,2023-05-02T16:44:08.390Z,,0,3,,3198.6669999046135,response,ISIC_9895220.JPG,,ISIC_0013636.JPG,ISIC_0013636.JPG,false,0,keypress(z),500,444338,444337.59999990463,441103.255,441119.30000019073,441138.933,444353.652,8,400,1,,ISIC_9895220.JPG
break,html.Screen,4_100_1,2023-05-02T16:44:08.391Z,,0,,,NaN,,,,,,false,,,,444339.5,444339.09999990463,,444338.30000019073,,444353.652,8,400,,,
break_continue,html.Screen,4_100_2,2023-05-02T16:44:08.391Z,,0,,,NaN,,,,,,false,,,,444339.90000009537,444339.80000019073,,444339.59999990463,,444353.652,8,400,,,
sequence,flow.Sequence,4_100,2023-05-02T16:44:08.392Z,,0,,,3200.8670001907158,completion,,,,,false,,,,444340,444339.80000019073,441103.255,441119.30000019073,441138.933,444353.652,8,400,,,
trial,html.Screen,4_101_0,2023-05-02T16:44:11.852Z,,0,3,,3445.847999999998,response,ISIC_0032565.JPG,,ISIC_4084359.JPG,ISIC_4084359.JPG,false,0,keypress(z),500,447800,447799.5,444336.973,444340.09999990463,444353.652,447803.287,8,400,2,,ISIC_0032565.JPG
break,html.Screen,4_101_1,2023-05-02T16:44:11.853Z,,0,,,NaN,,,,,,false,,,,447801.30000019073,447801.09999990463,,447800.30000019073,,447803.287,8,400,,,
break_continue,html.Screen,4_101_2,2023-05-02T16:44:11.853Z,,0,,,NaN,,,,,,false,,,,447801.80000019073,447801.59999990463,,447801.5,,447803.287,8,400,,,
sequence,flow.Sequence,4_101,2023-05-02T16:44:11.853Z,,0,,,3447.9479999046307,completion,,,,,false,,,,447801.90000009537,447801.59999990463,444336.973,444340.09999990463,444353.652,447803.287,8,400,,,
trial,html.Screen,4_102_0,2023-05-02T16:44:14.644Z,,0,3,,2788.412999809254,response,ISIC_9041897.JPG,,ISIC_1720840.JPG,ISIC_1720840.JPG,false,0,keypress(z),500,450592,450591.69999980927,447786.792,447802.09999990463,447803.287,450603.149,8,400,3,,ISIC_9041897.JPG
break,html.Screen,4_102_1,2023-05-02T16:44:14.645Z,,0,,,NaN,,,,,,false,,,,450593.5,450593.09999990463,,450592.19999980927,,450603.149,8,400,,,
break_continue,html.Screen,4_102_2,2023-05-02T16:44:14.646Z,,0,,,NaN,,,,,,false,,,,450594,450593.90000009537,,450593.69999980927,,450603.149,8,400,,,
sequence,flow.Sequence,4_102,2023-05-02T16:44:14.646Z,,0,,,2790.6130000953563,completion,,,,,false,,,,450594.30000019073,450593.90000009537,447786.792,447802,447803.287,450603.149,8,400,,,
trial,html.Screen,4_103_0,2023-05-02T16:44:17.603Z,,0,3,,2947.5509998092894,response,ISIC_4559115.JPG,,ISIC_7299025.JPG,ISIC_7299025.JPG,false,0,keypress(z),500,453551.09999990463,453550.69999980927,450586.689,450594.40000009537,450603.149,453583.598,8,400,4,,ISIC_4559115.JPG
break,html.Screen,4_103_1,2023-05-02T16:44:17.604Z,,0,,,NaN,,,,,,false,,,,453552.69999980927,453552.40000009537,,453551.5,,453583.598,8,400,,,
break_continue,html.Screen,4_103_2,2023-05-02T16:44:17.605Z,,0,,,NaN,,,,,,false,,,,453553.09999990463,453553,,453552.80000019073,,453583.598,8,400,,,
sequence,flow.Sequence,4_103,2023-05-02T16:44:17.605Z,,0,,,2949.851000000024,completion,,,,,false,,,,453553.40000009537,453553,450586.689,450594.40000009537,450603.149,453583.598,8,400,,,
trial,html.Screen,4_104_0,2023-05-02T16:44:20.788Z,,0,3,,3152.402000000002,response,ISIC_0013499.JPG,,ISIC_6208762.JPG,ISIC_0013499.JPG,false,1,keypress(m),500,456736.30000019073,456736,453536.492,453553.40000009537,453583.598,456753.151,8,400,5,,ISIC_6208762.JPG
break,html.Screen,4_104_1,2023-05-02T16:44:20.789Z,,0,,,NaN,,,,,,false,,,,456737.59999990463,456737.40000009537,,456736.5,,456753.151,8,400,,,
break_continue,html.Screen,4_104_2,2023-05-02T16:44:20.790Z,,0,,,NaN,,,,,,false,,,,456738,456737.90000009537,,456737.69999980927,,456753.151,8,400,,,
sequence,flow.Sequence,4_104,2023-05-02T16:44:20.790Z,,0,,,3154.3020000953693,completion,,,,,false,,,,456738.09999990463,456737.90000009537,453536.492,453553.40000009537,453583.598,456753.151,8,400,,,
trial,html.Screen,4_105_0,2023-05-02T16:44:24.373Z,,0,3,,3567.749000095355,response,ISIC_0028512.JPG,,ISIC_2203239.JPG,ISIC_0028512.JPG,false,1,keypress(m),500,460321.40000009537,460320.90000009537,456736.435,456738.30000019073,456753.151,460336.096,8,400,6,,ISIC_2203239.JPG
break,html.Screen,4_105_1,2023-05-02T16:44:24.374Z,,0,,,NaN,,,,,,false,,,,460322.80000019073,460322.59999990463,,460321.80000019073,,460336.096,8,400,,,
break_continue,html.Screen,4_105_2,2023-05-02T16:44:24.375Z,,0,,,NaN,,,,,,false,,,,460323.30000019073,460323.19999980927,,460323,,460336.096,8,400,,,
sequence,flow.Sequence,4_105,2023-05-02T16:44:24.375Z,,0,,,3570.0489998092526,completion,,,,,false,,,,460323.5,460323.19999980927,456736.435,456738.30000019073,456753.151,460336.096,8,400,,,
trial,html.Screen,4_106_0,2023-05-02T16:44:27.459Z,,0,3,,3070.7040001907153,response,ISIC_7738955.JPG,,ISIC_9672482.JPG,ISIC_9672482.JPG,false,0,keypress(z),500,463407.19999980927,463406.80000019073,460319.489,460323.59999990463,460336.096,463419.252,8,400,7,,ISIC_7738955.JPG
break,html.Screen,4_106_1,2023-05-02T16:44:27.460Z,,0,,,NaN,,,,,,false,,,,463408.40000009537,463408,,463407.5,,463419.252,8,400,,,
break_continue,html.Screen,4_106_2,2023-05-02T16:44:27.460Z,,0,,,NaN,,,,,,false,,,,463408.80000019073,463408.59999990463,,463408.5,,463419.252,8,400,,,
sequence,flow.Sequence,4_106,2023-05-02T16:44:27.461Z,,0,,,3072.503999904613,completion,,,,,false,,,,463408.90000009537,463408.59999990463,460319.489,460323.5,460336.096,463419.252,8,400,,,
trial,html.Screen,4_107_0,2023-05-02T16:44:30.145Z,,0,3,,2673.347999904654,response,ISIC_4427755.JPG,,ISIC_7185036.JPG,ISIC_4427755.JPG,false,1,keypress(m),500,466093,466092.59999990463,463402.57,463409.09999990463,463419.252,466102.376,8,400,8,,ISIC_7185036.JPG
break,html.Screen,4_107_1,2023-05-02T16:44:30.146Z,,0,,,NaN,,,,,,false,,,,466094.09999990463,466093.90000009537,,466093.19999980927,,466102.376,8,400,,,
break_continue,html.Screen,4_107_2,2023-05-02T16:44:30.146Z,,0,,,NaN,,,,,,false,,,,466094.59999990463,466094.5,,466094.30000019073,,466102.376,8,400,,,
sequence,flow.Sequence,4_107,2023-05-02T16:44:30.146Z,,0,,,2675.2480000000214,completion,,,,,false,,,,466094.80000019073,466094.5,463402.57,463409.09999990463,463419.252,466102.376,8,400,,,
trial,html.Screen,4_108_0,2023-05-02T16:44:34.219Z,,0,3,,4064.2239999046433,response,ISIC_0026258.JPG,,ISIC_8633894.JPG,ISIC_0026258.JPG,false,1,keypress(m),500,470166.90000009537,470166.59999990463,466085.925,466094.90000009537,466102.376,470168.875,8,400,9,,ISIC_8633894.JPG
break,html.Screen,4_108_1,2023-05-02T16:44:34.220Z,,0,,,NaN,,,,,,false,,,,470168,470167.80000019073,,470167.09999990463,,470168.875,8,400,,,
break_continue,html.Screen,4_108_2,2023-05-02T16:44:34.220Z,,0,,,NaN,,,,,,false,,,,470168.5,470168.40000009537,,470168.19999980927,,470168.875,8,400,,,
sequence,flow.Sequence,4_108,2023-05-02T16:44:34.220Z,,0,,,4066.024000095378,completion,,,,,false,,,,470168.69999980927,470168.40000009537,466085.925,466094.80000019073,466102.376,470168.875,8,400,,,
trial,html.Screen,4_109_0,2023-05-02T16:44:37.311Z,,0,3,,3090.0250000953674,response,ISIC_8357679.JPG,,ISIC_0055759.JPG,ISIC_0055759.JPG,false,0,keypress(z),500,473259.19999980927,473258.90000009537,470152.396,470168.80000019073,470168.875,473268.711,8,400,10,,ISIC_8357679.JPG
break,html.Screen,4_109_1,2023-05-02T16:44:37.312Z,,0,,,NaN,,,,,,false,,,,473260.30000019073,473260.09999990463,,473259.40000009537,,473268.711,8,400,,,
break_continue,html.Screen,4_109_2,2023-05-02T16:44:37.312Z,,0,,,NaN,,,,,,false,,,,473260.69999980927,473260.5,,473260.40000009537,,473268.711,8,400,,,
sequence,flow.Sequence,4_109,2023-05-02T16:44:37.312Z,,0,,,3091.625,completion,,,,,false,,,,473260.80000019073,473260.5,470152.396,470168.69999980927,470168.875,473268.711,8,400,,,
trial,html.Screen,4_110_0,2023-05-02T16:44:40.483Z,,0,3,,3162.7889999999898,response,ISIC_0063899.JPG,,ISIC_0033174.JPG,ISIC_0063899.JPG,false,1,keypress(m),500,476431.90000009537,476431.5,473252.17,473261,473268.711,476435.271,8,400,11,,ISIC_0033174.JPG
break,html.Screen,4_110_1,2023-05-02T16:44:40.485Z,,0,,,NaN,,,,,,false,,,,476433.30000019073,476433,,476432.09999990463,,476435.271,8,400,,,
break_continue,html.Screen,4_110_2,2023-05-02T16:44:40.485Z,,0,,,NaN,,,,,,false,,,,476433.69999980927,476433.59999990463,,476433.40000009537,,476435.271,8,400,,,
sequence,flow.Sequence,4_110,2023-05-02T16:44:40.485Z,,0,,,3164.8889999046223,completion,,,,,false,,,,476433.90000009537,476433.59999990463,473252.17,473260.90000009537,473268.711,476435.271,8,400,,,
trial,html.Screen,4_111_0,2023-05-02T16:44:43.478Z,,0,3,,2990.428999809257,response,ISIC_0032012.JPG,,ISIC_7301963.JPG,ISIC_7301963.JPG,false,0,keypress(z),500,479425.90000009537,479425.69999980927,476418.768,476434,476435.271,479435.248,8,400,12,,ISIC_0032012.JPG
break,html.Screen,4_111_1,2023-05-02T16:44:43.479Z,,0,,,NaN,,,,,,false,,,,479427.19999980927,479427,,479426.30000019073,,479435.248,8,400,,,
break_continue,html.Screen,4_111_2,2023-05-02T16:44:43.479Z,,0,,,NaN,,,,,,false,,,,479427.69999980927,479427.5,,479427.40000009537,,479435.248,8,400,,,
sequence,flow.Sequence,4_111,2023-05-02T16:44:43.479Z,,0,,,2992.228999999992,completion,,,,,false,,,,479427.80000019073,479427.5,476418.768,476434,476435.271,479435.248,8,400,,,
trial,html.Screen,4_112_0,2023-05-02T16:44:47.604Z,,0,3,,4116.751999999979,response,ISIC_0030193.JPG,,ISIC_0059855.JPG,ISIC_0030193.JPG,false,1,keypress(m),500,483552.19999980927,483552,479418.562,479427.90000009537,479435.248,483568.253,8,400,13,,ISIC_0059855.JPG
break,html.Screen,4_112_1,2023-05-02T16:44:47.605Z,,0,,,NaN,,,,,,false,,,,483553.40000009537,483553.09999990463,,483552.40000009537,,483568.253,8,400,,,
break_continue,html.Screen,4_112_2,2023-05-02T16:44:47.605Z,,0,,,NaN,,,,,,false,,,,483553.80000019073,483553.69999980927,,483553.59999990463,,483568.253,8,400,,,
sequence,flow.Sequence,4_112,2023-05-02T16:44:47.606Z,,0,,,4118.451999809244,completion,,,,,false,,,,483554,483553.69999980927,479418.562,479427.90000009537,479435.248,483568.253,8,400,,,
trial,html.Screen,4_113_0,2023-05-02T16:44:51.491Z,,0,3,,3870.1470000953414,response,ISIC_0030087.JPG,,ISIC_0011388.JPG,ISIC_0011388.JPG,false,0,keypress(z),500,487439,487438.40000009537,483551.803,483554.09999990463,483568.253,487451.718,8,400,14,,ISIC_0030087.JPG
break,html.Screen,4_113_1,2023-05-02T16:44:51.492Z,,0,,,NaN,,,,,,false,,,,487440.5,487440.19999980927,,487439.40000009537,,487451.718,8,400,,,
break_continue,html.Screen,4_113_2,2023-05-02T16:44:51.493Z,,0,,,NaN,,,,,,false,,,,487441.19999980927,487441,,487440.80000019073,,487451.718,8,400,,,
sequence,flow.Sequence,4_113,2023-05-02T16:44:51.493Z,,0,,,3872.746999999974,completion,,,,,false,,,,487441.40000009537,487441,483551.803,483554,483568.253,487451.718,8,400,,,
trial,html.Screen,4_114_0,2023-05-02T16:44:54.724Z,,0,3,,3220.0820001907414,response,ISIC_8979567.JPG,,ISIC_0030519.JPG,ISIC_8979567.JPG,false,1,keypress(m),500,490672.19999980927,490671.80000019073,487434.625,487441.69999980927,487451.718,490684.623,8,400,15,,ISIC_0030519.JPG
break,html.Screen,4_114_1,2023-05-02T16:44:54.725Z,,0,,,NaN,,,,,,false,,,,490673.40000009537,490673.09999990463,,490672.40000009537,,490684.623,8,400,,,
break_continue,html.Screen,4_114_2,2023-05-02T16:44:54.725Z,,0,,,NaN,,,,,,false,,,,490673.80000019073,490673.59999990463,,490673.5,,490684.623,8,400,,,
sequence,flow.Sequence,4_114,2023-05-02T16:44:54.726Z,,0,,,3221.881999904639,completion,,,,,false,,,,490673.90000009537,490673.59999990463,487434.625,487441.59999990463,487451.718,490684.623,8,400,,,
trial,html.Screen,4_115_0,2023-05-02T16:44:57.671Z,,0,3,,2933.5769998092437,response,ISIC_9439742.JPG,,ISIC_0068012.JPG,ISIC_0068012.JPG,false,0,keypress(z),500,493618.5,493618.19999980927,490668.119,490674.09999990463,490684.623,493634.534,8,400,16,,ISIC_9439742.JPG
break,html.Screen,4_115_1,2023-05-02T16:44:57.672Z,,0,,,NaN,,,,,,false,,,,493620,493619.59999990463,,493618.80000019073,,493634.534,8,400,,,
break_continue,html.Screen,4_115_2,2023-05-02T16:44:57.673Z,,0,,,NaN,,,,,,false,,,,493620.40000009537,493620.30000019073,,493620.09999990463,,493634.534,8,400,,,
sequence,flow.Sequence,4_115,2023-05-02T16:44:57.673Z,,0,,,2935.6770001907134,completion,,,,,false,,,,493620.59999990463,493620.30000019073,490668.119,490674,490684.623,493634.534,8,400,,,
trial,html.Screen,4_116_0,2023-05-02T16:45:00.373Z,,0,3,,2686.16599980928,response,ISIC_8145260.JPG,,ISIC_9719936.JPG,ISIC_8145260.JPG,false,1,keypress(m),500,496321,496320.69999980927,493617.916,493620.69999980927,493634.534,496334.472,8,400,17,,ISIC_9719936.JPG
break,html.Screen,4_116_1,2023-05-02T16:45:00.374Z,,0,,,NaN,,,,,,false,,,,496321.40000009537,496321.30000019073,,496321,,496334.472,8,400,,,
break_continue,html.Screen,4_116_2,2023-05-02T16:45:00.374Z,,0,,,NaN,,,,,,false,,,,496321.59999990463,496321.5,,496321.5,,496334.472,8,400,,,
sequence,flow.Sequence,4_116,2023-05-02T16:45:00.374Z,,0,,,2686.966000000015,completion,,,,,false,,,,496321.69999980927,496321.5,493617.916,493620.69999980927,493634.534,496334.472,8,400,,,
trial,html.Screen,4_117_0,2023-05-02T16:45:03.012Z,,0,3,,2625.527999999991,response,ISIC_2131962.JPG,,ISIC_0058035.JPG,ISIC_0058035.JPG,false,0,keypress(z),500,498960.40000009537,498960,496317.673,496321.69999980927,496334.472,498967.927,8,400,18,,ISIC_2131962.JPG
break,html.Screen,4_117_1,2023-05-02T16:45:03.014Z,,0,,,NaN,,,,,,false,,,,498961.90000009537,498961.5,,498960.59999990463,,498967.927,8,400,,,
break_continue,html.Screen,4_117_2,2023-05-02T16:45:03.015Z,,0,,,NaN,,,,,,false,,,,498962.5,498962.30000019073,,498962,,498967.927,8,400,,,
sequence,flow.Sequence,4_117,2023-05-02T16:45:03.015Z,,0,,,2627.828000190726,completion,,,,,false,,,,498962.69999980927,498962.30000019073,496317.673,496321.69999980927,496334.472,498967.927,8,400,,,
trial,html.Screen,4_118_0,2023-05-02T16:45:06.774Z,,0,3,,3754.072999999975,response,ISIC_4819371.JPG,,ISIC_0033655.JPG,ISIC_0033655.JPG,false,0,keypress(z),500,502722.30000019073,502722,498950.973,498962.80000019073,498967.927,502733.956,8,400,19,,ISIC_4819371.JPG
break,html.Screen,4_118_1,2023-05-02T16:45:06.776Z,,0,,,NaN,,,,,,false,,,,502723.5,502723.30000019073,,502722.5,,502733.956,8,400,,,
break_continue,html.Screen,4_118_2,2023-05-02T16:45:06.776Z,,0,,,NaN,,,,,,false,,,,502723.90000009537,502723.80000019073,,502723.59999990463,,502733.956,8,400,,,
sequence,flow.Sequence,4_118,2023-05-02T16:45:06.776Z,,0,,,3755.8730001907097,completion,,,,,false,,,,502724.09999990463,502723.80000019073,498950.973,498962.69999980927,498967.927,502733.956,8,400,,,
trial,html.Screen,4_119_0,2023-05-02T16:45:09.605Z,,0,3,,2818.8440001907293,response,ISIC_7296201.JPG,,ISIC_0030434.JPG,ISIC_7296201.JPG,false,1,keypress(m),500,505552.90000009537,505552.80000019073,502717.4,502724.19999980927,502733.956,505567.459,8,400,20,,ISIC_0030434.JPG
break,html.Screen,4_119_1,2023-05-02T16:45:09.606Z,,0,,,NaN,,,,,,false,,,,505553.59999990463,505553.5,,505553.09999990463,,505567.459,8,400,,,
break_continue,html.Screen,4_119_2,2023-05-02T16:45:09.606Z,,0,,,NaN,,,,,,false,,,,505554,505553.80000019073,,505553.69999980927,,505567.459,8,400,,,
sequence,flow.Sequence,4_119,2023-05-02T16:45:09.606Z,,0,,,2819.8440001907293,completion,,,,,false,,,,505554.09999990463,505553.80000019073,502717.4,502724.09999990463,502733.956,505567.459,8,400,,,
trial,html.Screen,4_120_0,2023-05-02T16:45:13.918Z,,0,3,,4297.841000190761,response,ISIC_1685962.JPG,,ISIC_0026087.JPG,ISIC_0026087.JPG,false,0,keypress(z),500,509865.5,509865.30000019073,505550.657,505554.19999980927,505567.459,509897.765,8,400,21,,ISIC_1685962.JPG
break,html.Screen,4_120_1,2023-05-02T16:45:13.919Z,,0,,,NaN,,,,,,false,,,,509866.80000019073,509866.5,,509865.80000019073,,509897.765,8,400,,,
break_continue,html.Screen,4_120_2,2023-05-02T16:45:13.920Z,,0,,,NaN,,,,,,false,,,,509867.5,509867.40000009537,,509867.09999990463,,509897.765,8,400,,,
sequence,flow.Sequence,4_120,2023-05-02T16:45:13.920Z,,0,,,4299.941000095394,completion,,,,,false,,,,509867.69999980927,509867.40000009537,505550.657,505554.19999980927,505567.459,509897.765,8,400,,,
trial,html.Screen,4_121_0,2023-05-02T16:45:16.737Z,,0,3,,2786.535000190721,response,ISIC_7128811.JPG,,ISIC_1685962.JPG,ISIC_1685962.JPG,false,0,keypress(z),500,512684.59999990463,512684.30000019073,509850.576,509867.80000019073,509897.765,512700.284,8,400,22,,ISIC_7128811.JPG
break,html.Screen,4_121_1,2023-05-02T16:45:16.738Z,,0,,,NaN,,,,,,false,,,,512685.69999980927,512685.5,,512684.69999980927,,512700.284,8,400,,,
break_continue,html.Screen,4_121_2,2023-05-02T16:45:16.738Z,,0,,,NaN,,,,,,false,,,,512686.19999980927,512686,,512685.80000019073,,512700.284,8,400,,,
sequence,flow.Sequence,4_121,2023-05-02T16:45:16.739Z,,0,,,2788.234999999986,completion,,,,,false,,,,512686.5,512686,509850.576,509867.69999980927,509897.765,512700.284,8,400,,,
trial,html.Screen,4_122_0,2023-05-02T16:45:21.603Z,,0,3,,4850.41599980928,response,ISIC_0029112.JPG,,ISIC_0000475.JPG,ISIC_0029112.JPG,false,1,keypress(m),500,517550.90000009537,517550.69999980927,512683.611,512686.59999990463,512700.284,517583.547,8,400,23,,ISIC_0000475.JPG
break,html.Screen,4_122_1,2023-05-02T16:45:21.603Z,,0,,,NaN,,,,,,false,,,,517551.19999980927,517551.19999980927,,517551,,517583.547,8,400,,,
break_continue,html.Screen,4_122_2,2023-05-02T16:45:21.604Z,,0,,,NaN,,,,,,false,,,,517551.40000009537,517551.40000009537,,517551.30000019073,,517583.547,8,400,,,
sequence,flow.Sequence,4_122,2023-05-02T16:45:21.604Z,,0,,,4851.116000095382,completion,,,,,false,,,,517551.40000009537,517551.40000009537,512683.611,512686.59999990463,512700.284,517583.547,8,400,,,
trial,html.Screen,4_123_0,2023-05-02T16:45:24.579Z,,0,3,,2943.052999904612,response,ISIC_2772581.JPG,,ISIC_0014766.JPG,ISIC_0014766.JPG,false,0,keypress(z),500,520526.90000009537,520526.59999990463,517566.846,517551.5,517583.547,520533.283,8,400,24,,ISIC_2772581.JPG
break,html.Screen,4_123_1,2023-05-02T16:45:24.580Z,,0,,,NaN,,,,,,false,,,,520527.90000009537,520527.69999980927,,520527.09999990463,,520533.283,8,400,,,
break_continue,html.Screen,4_123_2,2023-05-02T16:45:24.580Z,,0,,,NaN,,,,,,false,,,,520528.30000019073,520528.19999980927,,520528.09999990463,,520533.283,8,400,,,
sequence,flow.Sequence,4_123,2023-05-02T16:45:24.581Z,,0,,,2944.6529998092446,completion,,,,,false,,,,520528.5,520528.19999980927,517566.846,517551.5,517583.547,520533.283,8,400,,,
trial,html.Screen,4_124_0,2023-05-02T16:45:27.845Z,,0,3,,3259.217000000004,response,ISIC_6906476.JPG,,ISIC_0528044.JPG,ISIC_0528044.JPG,false,0,keypress(z),500,523792.80000019073,523792.5,520516.618,520528.59999990463,520533.283,523800.14,8,400,25,,ISIC_6906476.JPG
break,html.Screen,4_124_1,2023-05-02T16:45:27.846Z,,0,,,NaN,,,,,,false,,,,523794.09999990463,523793.80000019073,,523793,,523800.14,8,400,,,
break_continue,html.Screen,4_124_2,2023-05-02T16:45:27.847Z,,0,,,NaN,,,,,,false,,,,523794.59999990463,523794.40000009537,,523794.09999990463,,523800.14,8,400,,,
sequence,flow.Sequence,4_124,2023-05-02T16:45:27.847Z,,0,,,3261.1170000953716,completion,,,,,false,,,,523794.69999980927,523794.40000009537,520516.618,520528.59999990463,520533.283,523800.14,8,400,,,
trial,html.Screen,4_125_0,2023-05-02T16:45:30.389Z,,0,3,,2536.660000190721,response,ISIC_0027514.JPG,,ISIC_9088073.JPG,ISIC_9088073.JPG,false,0,keypress(z),500,526337,526336.8000001907,523783.147,523794.90000009537,523800.14,526349.731,8,400,26,,ISIC_0027514.JPG
break,html.Screen,4_125_1,2023-05-02T16:45:30.390Z,,0,,,NaN,,,,,,false,,,,526338.3000001907,526338,,526337.3000001907,,526349.731,8,400,,,
break_continue,html.Screen,4_125_2,2023-05-02T16:45:30.391Z,,0,,,NaN,,,,,,false,,,,526338.6999998093,526338.5999999046,,526338.5,,526349.731,8,400,,,
