sender,sender_type,sender_id,timestamp,meta,,blockNo,condition,duration,ended_on,img_left,img_reveal,img_right,loser,practice,response,response_action,selection_duration,time_commit,time_end,time_render,time_run,time_show,time_switch,total_blocks,total_trials,trialNo,url,winner
informed_consent,html.Screen,0,2023-10-30T21:26:05.470Z,"{""labjs_version"":""20.2.4"",""labjs_build"":{""flavor"":""production"",""commit"":""f5b4a49f956347addd546a832a3327688c2c0fef""},""location"":""https://run.pavlovia.org/MurrayBennett/melanoma-2afc/?participant=67420&platform=sona"",""userAgent"":""Mozilla/5.0 (Windows NT 10.0; Win64; x64) AppleWebKit/537.36 (KHTML, like Gecko) Chrome/118.0.0.0 Safari/537.36"",""platform"":""Win32"",""language"":""en-US"",""locale"":""en-US"",""timeZone"":""America/Chicago"",""timezoneOffset"":300,""screen_width"":1536,""screen_height"":864,""scroll_width"":1536,""scroll_height"":691,""window_innerWidth"":1536,""window_innerHeight"":739,""devicePixelRatio"":1.25}",,,,4323.161,response,,,,,,consent,click button,,6926.399999856949,6924.5,2584.532,2584.0999999046326,2601.339,6934.491,,,,"{""participant"":""67420"",""platform"":""sona""}",
Welcome,html.Screen,1,2023-10-30T21:26:10.599Z,,,,uniform,5120.308999952316,response,,,,,,continue,click button,,12055.899999856949,12054.799999952316,6917.891,6926.599999904633,6934.491,12067.887,,,,,
trial,html.Screen,2_0_0,2023-10-30T21:26:22.096Z,,0,0,,11516.618,timeout,ISIC_0063388.JPG,,ISIC_0025593.JPG,,true,,,500,23552.599999904633,23552.299999952316,12051.103,12056.099999904633,12067.887,23584.505,1,6,1,,
sequence,flow.Sequence,2_0,2023-10-30T21:26:22.096Z,,0,,,11484.412999952316,completion,,,,,true,,,,23552.799999952316,23552.299999952316,12051.103,12056,12067.887,23584.505,1,6,,,
trial,html.Screen,2_1_0,2023-10-30T21:26:25.684Z,,0,0,,3555.0949999046315,response,ISIC_0028178.JPG,,ISIC_1309015.JPG,ISIC_1309015.JPG,true,0,keypress(z),500,27139.89999985695,27139.599999904633,23567.736,23552.89999985695,23584.505,27151.113,1,6,2,,ISIC_0028178.JPG
sequence,flow.Sequence,2_1,2023-10-30T21:26:25.684Z,,0,,,3555.0949999046315,completion,,,,,true,,,,27140.099999904633,27139.599999904633,23567.736,23552.799999952316,23584.505,27151.113,1,6,,,
trial,html.Screen,2_2_0,2023-10-30T21:26:29.148Z,,0,0,,3452.7869998569477,response,ISIC_3314853.JPG,,ISIC_0031128.JPG,ISIC_0031128.JPG,true,0,keypress(z),500,30604.299999952316,30603.89999985695,27134.51,27140.199999809265,27151.113,30617.806,1,6,3,,ISIC_3314853.JPG
sequence,flow.Sequence,2_2,2023-10-30T21:26:29.148Z,,0,,,3452.7869998569477,completion,,,,,true,,,,30604.599999904633,30603.89999985695,27134.51,27140.199999809265,27151.113,30617.806,1,6,,,
trial,html.Screen,2_3_0,2023-10-30T21:26:33.266Z,,0,0,,4104.093999856948,response,ISIC_8980141.JPG,,ISIC_0031612.JPG,ISIC_8980141.JPG,true,1,keypress(m),500,34722.299999952316,34721.89999985695,30601.624,30604.799999952316,30617.806,34735.031,1,6,4,,ISIC_0031612.JPG
sequence,flow.Sequence,2_3,2023-10-30T21:26:33.266Z,,0,,,4104.093999856948,completion,,,,,true,,,,34722.799999952316,34721.89999985695,30601.624,30604.699999809265,30617.806,34735.031,1,6,,,
trial,html.Screen,2_4_0,2023-10-30T21:26:36.555Z,,0,0,,3275.4689999999973,response,ISIC_1197737.JPG,,ISIC_9721604.JPG,ISIC_9721604.JPG,true,0,keypress(z),500,38011,38010.5,34717.806,34723,34735.031,38017.791,1,6,5,,ISIC_1197737.JPG
sequence,flow.Sequence,2_4,2023-10-30T21:26:36.555Z,,0,,,3275.4689999999973,completion,,,,,true,,,,38011.39999985695,38010.5,34717.806,34723,34735.031,38017.791,1,6,,,
trial,html.Screen,2_5_0,2023-10-30T21:26:40.129Z,,0,0,,3567.7090000000026,response,ISIC_0025346.JPG,,ISIC_0010681.JPG,ISIC_0010681.JPG,true,0,keypress(z),500,41585.699999809265,41585.5,38001.301,38011.59999990463,38017.791,41601.155,1,6,6,,ISIC_0025346.JPG
sequence,flow.Sequence,2_5,2023-10-30T21:26:40.130Z,,0,,,3567.7090000000026,completion,,,,,true,,,,41586,41585.5,38001.301,38011.5,38017.791,41601.155,1,6,,,
loop,flow.Loop,2,2023-10-30T21:26:40.130Z,,,,,29517.612999999998,completion,,,,,true,,,,41586.299999952316,41585.5,12051.103,12056,12067.887,41601.155,1,6,,,
exp_instructions,html.Screen,3,2023-10-30T21:26:50.135Z,,,,,9989.644999952317,response,,,,,,continue,keypress(Space),,51591.59999990463,51590.799999952316,41584.642,41586.299999952316,41601.155,51601.101,,,,,
trial,html.Screen,4_0_0,2023-10-30T21:26:53.549Z,,0,1,,3404.2989998569465,response,ISIC_0072292.JPG,7,ISIC_8120622.JPG,ISIC_8120622.JPG,false,0,keypress(z),500,55005.699999809265,55005.39999985695,51586.858,51591.799999952316,51601.101,55018.392,8,400,1,,ISIC_0072292.JPG
break,html.Screen,4_0_1,2023-10-30T21:26:53.550Z,,0,,,NaN,,,,,,false,,,,55006.699999809265,55006.5,,55005.799999952316,,55018.392,8,400,,,
break_continue,html.Screen,4_0_2,2023-10-30T21:26:53.551Z,,0,,,NaN,,,,,,false,,,,55006.89999985695,55006.89999985695,,55006.799999952316,,55018.392,8,400,,,
sequence,flow.Sequence,4_0,2023-10-30T21:26:53.551Z,,0,,,3405.7989998569465,completion,,,,,false,,,,55007.09999990463,55006.89999985695,51586.858,51591.799999952316,51601.101,55018.392,8,400,,,
trial,html.Screen,4_1_0,2023-10-30T21:26:56.513Z,,0,1,,2950.108,response,ISIC_0014860.JPG,13,ISIC_0025267.JPG,ISIC_0025267.JPG,false,0,keypress(z),500,57968.89999985695,57968.5,55001.046,55007.09999990463,55018.392,57984.86,8,400,2,,ISIC_0014860.JPG
break,html.Screen,4_1_1,2023-10-30T21:26:56.513Z,,0,,,NaN,,,,,,false,,,,57969.699999809265,57969.5,,57969.09999990463,,57984.86,8,400,,,
break_continue,html.Screen,4_1_2,2023-10-30T21:26:56.514Z,,0,,,NaN,,,,,,false,,,,57970.09999990463,57970,,57969.799999952316,,57984.86,8,400,,,
sequence,flow.Sequence,4_1,2023-10-30T21:26:56.514Z,,0,,,2951.608,completion,,,,,false,,,,57970.199999809265,57970,55001.046,55007.09999990463,55018.392,57984.86,8,400,,,
trial,html.Screen,4_2_0,2023-10-30T21:27:00.472Z,,0,1,,3942.6399999999994,response,ISIC_4508878.JPG,6,ISIC_6210962.JPG,ISIC_6210962.JPG,false,0,keypress(z),500,61927.799999952316,61927.5,57967.752,57970.299999952316,57984.86,61934.479,8,400,3,,ISIC_4508878.JPG
break,html.Screen,4_2_1,2023-10-30T21:27:00.474Z,,0,,,NaN,,,,,,false,,,,61929,61928.799999952316,,61928,,61934.479,8,400,,,
break_continue,html.Screen,4_2_2,2023-10-30T21:27:00.474Z,,0,,,NaN,,,,,,false,,,,61929.39999985695,61929.299999952316,,61929.09999990463,,61934.479,8,400,,,
sequence,flow.Sequence,4_2,2023-10-30T21:27:00.474Z,,0,,,3944.4399999523157,completion,,,,,false,,,,61929.5,61929.299999952316,57967.752,57970.199999809265,57984.86,61934.479,8,400,,,
trial,html.Screen,4_3_0,2023-10-30T21:27:03.538Z,,0,1,,3058.620999904633,response,ISIC_0033216.JPG,5,ISIC_0065390.JPG,ISIC_0033216.JPG,false,1,keypress(m),500,64993.5,64993.09999990463,61917.525,61929.5,61934.479,65017.875,8,400,4,,ISIC_0065390.JPG
break,html.Screen,4_3_1,2023-10-30T21:27:03.540Z,,0,,,NaN,,,,,,false,,,,64995.199999809265,64995,,64994.5,,65017.875,8,400,,,
break_continue,html.Screen,4_3_2,2023-10-30T21:27:03.540Z,,0,,,NaN,,,,,,false,,,,64995.39999985695,64995.39999985695,,64995.199999809265,,65017.875,8,400,,,
sequence,flow.Sequence,4_3,2023-10-30T21:27:03.540Z,,0,,,3060.9209998569495,completion,,,,,false,,,,64995.5,64995.39999985695,61917.525,61929.5,61934.479,65017.875,8,400,,,
trial,html.Screen,4_4_0,2023-10-30T21:27:06.439Z,,0,1,,2875.824999809265,response,ISIC_0028248.JPG,8,ISIC_0046642.JPG,ISIC_0028248.JPG,false,1,keypress(m),500,67894.09999990463,67893.69999980927,65001.635,64995.59999990463,65017.875,67917.833,8,400,5,,ISIC_0046642.JPG
break,html.Screen,4_4_1,2023-10-30T21:27:06.440Z,,0,,,NaN,,,,,,false,,,,67895.19999980927,67895,,67894.19999980927,,67917.833,8,400,,,
break_continue,html.Screen,4_4_2,2023-10-30T21:27:06.440Z,,0,,,NaN,,,,,,false,,,,67895.5,67895.29999995232,,67895.19999980927,,67917.833,8,400,,,
sequence,flow.Sequence,4_4,2023-10-30T21:27:06.440Z,,0,,,2877.4249999523163,completion,,,,,false,,,,67895.5,67895.29999995232,65001.635,64995.5,65017.875,67917.833,8,400,,,
trial,html.Screen,4_5_0,2023-10-30T21:27:09.888Z,,0,1,,3425.4669999523176,response,ISIC_0029081.JPG,5,ISIC_5504560.JPG,ISIC_5504560.JPG,false,0,keypress(z),500,71343.59999990463,71343.29999995232,67901.586,67895.59999990463,67917.833,71351.449,8,400,6,,ISIC_0029081.JPG
break,html.Screen,4_5_1,2023-10-30T21:27:09.889Z,,0,,,NaN,,,,,,false,,,,71344.59999990463,71344.39999985695,,71343.79999995232,,71351.449,8,400,,,
break_continue,html.Screen,4_5_2,2023-10-30T21:27:09.889Z,,0,,,NaN,,,,,,false,,,,71344.69999980927,71344.69999980927,,71344.59999990463,,71351.449,8,400,,,
sequence,flow.Sequence,4_5,2023-10-30T21:27:09.889Z,,0,,,3426.8669998092664,completion,,,,,false,,,,71344.79999995232,71344.69999980927,67901.586,67895.59999990463,67917.833,71351.449,8,400,,,
trial,html.Screen,4_6_0,2023-10-30T21:27:14.105Z,,0,1,,4208.350999952323,response,ISIC_0962787.JPG,6,ISIC_0057028.JPG,ISIC_0962787.JPG,false,1,keypress(m),500,75560.09999990463,75559.79999995232,71335.017,71344.89999985695,71351.449,75567.734,8,400,7,,ISIC_0057028.JPG
break,html.Screen,4_6_1,2023-10-30T21:27:14.106Z,,0,,,NaN,,,,,,false,,,,75561.19999980927,75560.89999985695,,75560.29999995232,,75567.734,8,400,,,
break_continue,html.Screen,4_6_2,2023-10-30T21:27:14.106Z,,0,,,NaN,,,,,,false,,,,75561.59999990463,75561.5,,75561.29999995232,,75567.734,8,400,,,
sequence,flow.Sequence,4_6,2023-10-30T21:27:14.106Z,,0,,,4210.051000000007,completion,,,,,false,,,,75561.59999990463,75561.5,71335.017,71344.89999985695,71351.449,75567.734,8,400,,,
trial,html.Screen,4_7_0,2023-10-30T21:27:17.455Z,,0,1,,3342.365999904636,response,ISIC_0766328.JPG,11,ISIC_6635699.JPG,ISIC_6635699.JPG,false,0,keypress(z),500,78910.59999990463,78910.09999990463,75550.947,75561.69999980927,75567.734,78917.724,8,400,8,,ISIC_0766328.JPG
break,html.Screen,4_7_1,2023-10-30T21:27:17.456Z,,0,,,NaN,,,,,,false,,,,78911.59999990463,78911.29999995232,,78910.69999980927,,78917.724,8,400,,,
break_continue,html.Screen,4_7_2,2023-10-30T21:27:17.456Z,,0,,,NaN,,,,,,false,,,,78911.79999995232,78911.79999995232,,78911.69999980927,,78917.724,8,400,,,
sequence,flow.Sequence,4_7,2023-10-30T21:27:17.457Z,,0,,,3344.0659999523195,completion,,,,,false,,,,78911.89999985695,78911.79999995232,75550.947,75561.59999990463,75567.734,78917.724,8,400,,,
trial,html.Screen,4_8_0,2023-10-30T21:27:20.386Z,,0,1,,2923.275999999998,response,ISIC_5458933.JPG,10,ISIC_0030072.JPG,ISIC_5458933.JPG,false,1,keypress(m),500,81841.29999995232,81841,78901.065,78912,78917.724,81851.129,8,400,9,,ISIC_0030072.JPG
break,html.Screen,4_8_1,2023-10-30T21:27:20.387Z,,0,,,NaN,,,,,,false,,,,81842.39999985695,81842.09999990463,,81841.5,,81851.129,8,400,,,
break_continue,html.Screen,4_8_2,2023-10-30T21:27:20.387Z,,0,,,NaN,,,,,,false,,,,81842.59999990463,81842.5,,81842.5,,81851.129,8,400,,,
sequence,flow.Sequence,4_8,2023-10-30T21:27:20.387Z,,0,,,2924.775999999998,completion,,,,,false,,,,81842.69999980927,81842.5,78901.065,78912,78917.724,81851.129,8,400,,,
trial,html.Screen,4_9_0,2023-10-30T21:27:23.692Z,,0,1,,3296.1709999523155,response,ISIC_0070927.JPG,6,ISIC_0026049.JPG,ISIC_0026049.JPG,false,0,keypress(z),500,85147.69999980927,85147.29999995232,81834.388,81842.79999995232,81851.129,85151.11,8,400,10,,ISIC_0070927.JPG
break,html.Screen,4_9_1,2023-10-30T21:27:23.693Z,,0,,,NaN,,,,,,false,,,,85148.59999990463,85148.5,,85147.89999985695,,85151.11,8,400,,,
break_continue,html.Screen,4_9_2,2023-10-30T21:27:23.694Z,,0,,,NaN,,,,,,false,,,,85149,85148.89999985695,,85148.69999980927,,85151.11,8,400,,,
sequence,flow.Sequence,4_9,2023-10-30T21:27:23.694Z,,0,,,3297.770999856948,completion,,,,,false,,,,85149.09999990463,85148.89999985695,81834.388,81842.79999995232,81851.129,85151.11,8,400,,,
trial,html.Screen,4_10_0,2023-10-30T21:27:26.552Z,,0,1,,2855.8899999999994,response,ISIC_0069274.JPG,9,ISIC_6366631.JPG,ISIC_0069274.JPG,false,1,keypress(m),500,88007.29999995232,88007,85134.377,85149.29999995232,85151.11,88017.753,8,400,11,,ISIC_6366631.JPG
break,html.Screen,4_10_1,2023-10-30T21:27:26.553Z,,0,,,NaN,,,,,,false,,,,88008.39999985695,88008.19999980927,,88007.5,,88017.753,8,400,,,
break_continue,html.Screen,4_10_2,2023-10-30T21:27:26.553Z,,0,,,NaN,,,,,,false,,,,88008.69999980927,88008.59999990463,,88008.5,,88017.753,8,400,,,
sequence,flow.Sequence,4_10,2023-10-30T21:27:26.553Z,,0,,,2857.489999904632,completion,,,,,false,,,,88008.79999995232,88008.59999990463,85134.377,85149.29999995232,85151.11,88017.753,8,400,,,
trial,html.Screen,4_11_0,2023-10-30T21:27:29.330Z,,0,1,,2767.146999856952,response,ISIC_0034069.JPG,10,ISIC_7147713.JPG,ISIC_0034069.JPG,false,1,keypress(m),500,90785.19999980927,90784.89999985695,88001.102,88008.89999985695,88017.753,90801.149,8,400,12,,ISIC_7147713.JPG
break,html.Screen,4_11_1,2023-10-30T21:27:29.331Z,,0,,,NaN,,,,,,false,,,,90786.29999995232,90786,,90785.29999995232,,90801.149,8,400,,,
break_continue,html.Screen,4_11_2,2023-10-30T21:27:29.331Z,,0,,,NaN,,,,,,false,,,,90786.59999990463,90786.5,,90786.39999985695,,90801.149,8,400,,,
sequence,flow.Sequence,4_11,2023-10-30T21:27:29.331Z,,0,,,2768.747000000003,completion,,,,,false,,,,90786.69999980927,90786.5,88001.102,88008.79999995232,88017.753,90801.149,8,400,,,
trial,html.Screen,4_12_0,2023-10-30T21:27:32.377Z,,0,1,,3031.1509999523114,response,ISIC_0010533.JPG,10,ISIC_0027901.JPG,ISIC_0027901.JPG,false,0,keypress(z),500,93832.59999990463,93832.29999995232,90783.969,90786.69999980927,90801.149,93834.422,8,400,13,,ISIC_0010533.JPG
break,html.Screen,4_12_1,2023-10-30T21:27:32.378Z,,0,,,NaN,,,,,,false,,,,93833.39999985695,93833.29999995232,,93832.69999980927,,93834.422,8,400,,,
break_continue,html.Screen,4_12_2,2023-10-30T21:27:32.378Z,,0,,,NaN,,,,,,false,,,,93833.59999990463,93833.59999990463,,93833.5,,93834.422,8,400,,,
sequence,flow.Sequence,4_12,2023-10-30T21:27:32.378Z,,0,,,3032.4509999046277,completion,,,,,false,,,,93833.69999980927,93833.59999990463,90783.969,90786.69999980927,90801.149,93834.422,8,400,,,
trial,html.Screen,4_13_0,2023-10-30T21:27:35.106Z,,0,1,,2726.977999856943,response,ISIC_0000526.JPG,5,ISIC_7236365.JPG,ISIC_0000526.JPG,false,1,keypress(m),500,96561.59999990463,96561.39999985695,93818.053,93833.79999995232,93834.422,96567.75,8,400,14,,ISIC_7236365.JPG
break,html.Screen,4_13_1,2023-10-30T21:27:35.107Z,,0,,,NaN,,,,,,false,,,,96562.59999990463,96562.39999985695,,96561.89999985695,,96567.75,8,400,,,
break_continue,html.Screen,4_13_2,2023-10-30T21:27:35.108Z,,0,,,NaN,,,,,,false,,,,96562.89999985695,96562.79999995232,,96562.59999990463,,96567.75,8,400,,,
sequence,flow.Sequence,4_13,2023-10-30T21:27:35.108Z,,0,,,2728.3779999523103,completion,,,,,false,,,,96563,96562.79999995232,93818.053,93833.79999995232,93834.422,96567.75,8,400,,,
trial,html.Screen,4_14_0,2023-10-30T21:27:38.072Z,,0,1,,2959.149999856949,response,ISIC_0000414.JPG,6,ISIC_0033569.JPG,ISIC_0033569.JPG,false,0,keypress(z),500,99527.19999980927,99526.89999985695,96551.493,96563,96567.75,99534.461,8,400,15,,ISIC_0000414.JPG
break,html.Screen,4_14_1,2023-10-30T21:27:38.073Z,,0,,,NaN,,,,,,false,,,,99528.19999980927,99528,,99527.39999985695,,99534.461,8,400,,,
break_continue,html.Screen,4_14_2,2023-10-30T21:27:38.073Z,,0,,,NaN,,,,,,false,,,,99528.5,99528.39999985695,,99528.39999985695,,99534.461,8,400,,,
sequence,flow.Sequence,4_14,2023-10-30T21:27:38.073Z,,0,,,2960.649999856949,completion,,,,,false,,,,99528.59999990463,99528.39999985695,96551.493,96563,96567.75,99534.461,8,400,,,
trial,html.Screen,4_15_0,2023-10-30T21:27:41.164Z,,0,1,,3084.138999904637,response,ISIC_0028338.JPG,5,ISIC_0360367.JPG,ISIC_0360367.JPG,false,0,keypress(z),500,102618.89999985695,102618.59999990463,99517.618,99528.69999980927,99534.461,102634.46,8,400,16,,ISIC_0028338.JPG
break,html.Screen,4_15_1,2023-10-30T21:27:41.165Z,,0,,,NaN,,,,,,false,,,,102619.89999985695,102619.69999980927,,102619.19999980927,,102634.46,8,400,,,
break_continue,html.Screen,4_15_2,2023-10-30T21:27:41.165Z,,0,,,NaN,,,,,,false,,,,102620.19999980927,102620.09999990463,,102620.09999990463,,102634.46,8,400,,,
sequence,flow.Sequence,4_15,2023-10-30T21:27:41.165Z,,0,,,3085.638999904637,completion,,,,,false,,,,102620.29999995232,102620.09999990463,99517.618,99528.69999980927,99534.461,102634.46,8,400,,,
trial,html.Screen,4_16_0,2023-10-30T21:27:44.082Z,,0,1,,2902.33999995231,response,ISIC_9510497.JPG,10,ISIC_3926397.JPG,ISIC_9510497.JPG,false,1,keypress(m),500,105537.09999990463,105536.79999995232,102617.397,102620.39999985695,102634.46,105551.132,8,400,17,,ISIC_3926397.JPG
break,html.Screen,4_16_1,2023-10-30T21:27:44.083Z,,0,,,NaN,,,,,,false,,,,105538,105537.79999995232,,105537.29999995232,,105551.132,8,400,,,
break_continue,html.Screen,4_16_2,2023-10-30T21:27:44.083Z,,0,,,NaN,,,,,,false,,,,105538.19999980927,105538.09999990463,,105538.09999990463,,105551.132,8,400,,,
sequence,flow.Sequence,4_16,2023-10-30T21:27:44.083Z,,0,,,2903.639999904626,completion,,,,,false,,,,105538.19999980927,105538.09999990463,102617.397,102620.39999985695,102634.46,105551.132,8,400,,,
trial,html.Screen,4_17_0,2023-10-30T21:27:47.063Z,,0,1,,2966.868000000002,response,ISIC_6763221.JPG,11,ISIC_3351880.JPG,ISIC_3351880.JPG,false,0,keypress(z),500,108518.09999990463,108518,105534.652,105538.39999985695,105551.132,108534.551,8,400,18,,ISIC_6763221.JPG
break,html.Screen,4_17_1,2023-10-30T21:27:47.064Z,,0,,,NaN,,,,,,false,,,,108519.19999980927,108519,,108518.39999985695,,108534.551,8,400,,,
break_continue,html.Screen,4_17_2,2023-10-30T21:27:47.064Z,,0,,,NaN,,,,,,false,,,,108519.59999990463,108519.39999985695,,108519.39999985695,,108534.551,8,400,,,
sequence,flow.Sequence,4_17,2023-10-30T21:27:47.064Z,,0,,,2968.267999856951,completion,,,,,false,,,,108519.79999995232,108519.39999985695,105534.652,105538.39999985695,105551.132,108534.551,8,400,,,
trial,html.Screen,4_18_0,2023-10-30T21:27:49.964Z,,0,1,,2884.2489999523095,response,ISIC_0024958.JPG,9,ISIC_4325452.JPG,ISIC_4325452.JPG,false,0,keypress(z),500,111419,111418.79999995232,108518.54,108519.89999985695,108534.551,111434.425,8,400,19,,ISIC_0024958.JPG
break,html.Screen,4_18_1,2023-10-30T21:27:49.965Z,,0,,,NaN,,,,,,false,,,,111419.89999985695,111419.79999995232,,111419.29999995232,,111434.425,8,400,,,
break_continue,html.Screen,4_18_2,2023-10-30T21:27:49.965Z,,0,,,NaN,,,,,,false,,,,111420.19999980927,111420.09999990463,,111420.09999990463,,111434.425,8,400,,,
sequence,flow.Sequence,4_18,2023-10-30T21:27:49.965Z,,0,,,2885.548999904626,completion,,,,,false,,,,111420.29999995232,111420.09999990463,108518.54,108519.79999995232,108534.551,111434.425,8,400,,,
trial,html.Screen,4_19_0,2023-10-30T21:27:53.494Z,,0,1,,3514.474999856946,response,ISIC_7604870.JPG,6,ISIC_9301346.JPG,ISIC_9301346.JPG,false,0,keypress(z),500,114949.09999990463,114948.89999985695,111417.737,111420.39999985695,111434.425,114951.102,8,400,20,,ISIC_7604870.JPG
break,html.Screen,4_19_1,2023-10-30T21:27:53.495Z,,0,,,NaN,,,,,,false,,,,114950,114949.69999980927,,114949.19999980927,,114951.102,8,400,,,
break_continue,html.Screen,4_19_2,2023-10-30T21:27:53.495Z,,0,,,NaN,,,,,,false,,,,114950.29999995232,114950.19999980927,,114950.09999990463,,114951.102,8,400,,,
sequence,flow.Sequence,4_19,2023-10-30T21:27:53.495Z,,0,,,3515.774999809262,completion,,,,,false,,,,114950.39999985695,114950.19999980927,111417.737,111420.39999985695,111434.425,114951.102,8,400,,,
trial,html.Screen,4_20_0,2023-10-30T21:27:56.319Z,,0,1,,2823.1979999523173,response,ISIC_0024401.JPG,5,ISIC_0028397.JPG,ISIC_0024401.JPG,false,1,keypress(m),500,117774.5,117774.29999995232,114934.125,114950.5,114951.102,117784.39,8,400,21,,ISIC_0028397.JPG
break,html.Screen,4_20_1,2023-10-30T21:27:56.320Z,,0,,,NaN,,,,,,false,,,,117775.59999990463,117775.39999985695,,117774.69999980927,,117784.39,8,400,,,
break_continue,html.Screen,4_20_2,2023-10-30T21:27:56.320Z,,0,,,NaN,,,,,,false,,,,117775.79999995232,117775.79999995232,,117775.59999990463,,117784.39,8,400,,,
sequence,flow.Sequence,4_20,2023-10-30T21:27:56.321Z,,0,,,2824.6979999523173,completion,,,,,false,,,,117775.89999985695,117775.79999995232,114934.125,114950.5,114951.102,117784.39,8,400,,,
trial,html.Screen,4_21_0,2023-10-30T21:27:59.413Z,,0,1,,3083.5099998569494,response,ISIC_0072733.JPG,14,ISIC_0024317.JPG,ISIC_0024317.JPG,false,0,keypress(z),500,120868.19999980927,120867.89999985695,117768.184,117776,117784.39,120901.071,8,400,22,,ISIC_0072733.JPG
break,html.Screen,4_21_1,2023-10-30T21:27:59.414Z,,0,,,NaN,,,,,,false,,,,120868.89999985695,120868.79999995232,,120868.39999985695,,120901.071,8,400,,,
break_continue,html.Screen,4_21_2,2023-10-30T21:27:59.414Z,,0,,,NaN,,,,,,false,,,,120869.19999980927,120869.19999980927,,120869,,120901.071,8,400,,,
sequence,flow.Sequence,4_21,2023-10-30T21:27:59.414Z,,0,,,3084.8099998092657,completion,,,,,false,,,,120869.29999995232,120869.19999980927,117768.184,117776,117784.39,120901.071,8,400,,,
trial,html.Screen,4_22_0,2023-10-30T21:28:02.399Z,,0,1,,2953.128999809269,response,ISIC_8922893.JPG,12,ISIC_0069668.JPG,ISIC_8922893.JPG,false,1,keypress(m),500,123854.39999985695,123854.19999980927,120884.614,120869.5,120901.071,123867.796,8,400,23,,ISIC_0069668.JPG
break,html.Screen,4_22_1,2023-10-30T21:28:02.400Z,,0,,,NaN,,,,,,false,,,,123855.09999990463,123855,,123854.5,,123867.796,8,400,,,
break_continue,html.Screen,4_22_2,2023-10-30T21:28:02.400Z,,0,,,NaN,,,,,,false,,,,123855.39999985695,123855.29999995232,,123855.19999980927,,123867.796,8,400,,,
sequence,flow.Sequence,4_22,2023-10-30T21:28:02.400Z,,0,,,2954.22899995232,completion,,,,,false,,,,123855.39999985695,123855.29999995232,120884.614,120869.39999985695,120901.071,123867.796,8,400,,,
trial,html.Screen,4_23_0,2023-10-30T21:28:05.747Z,,0,1,,3334.003999952314,response,ISIC_7428248.JPG,6,ISIC_7454487.JPG,ISIC_7428248.JPG,false,1,keypress(m),500,127202.09999990463,127201.79999995232,123852.071,123855.59999990463,123867.796,127217.981,8,400,24,,ISIC_7454487.JPG
break,html.Screen,4_23_1,2023-10-30T21:28:05.748Z,,0,,,NaN,,,,,,false,,,,127203.19999980927,127203,,127202.39999985695,,127217.981,8,400,,,
break_continue,html.Screen,4_23_2,2023-10-30T21:28:05.748Z,,0,,,NaN,,,,,,false,,,,127203.59999990463,127203.5,,127203.39999985695,,127217.981,8,400,,,
sequence,flow.Sequence,4_23,2023-10-30T21:28:05.748Z,,0,,,3335.703999999998,completion,,,,,false,,,,127203.69999980927,127203.5,123852.071,123855.5,123867.796,127217.981,8,400,,,
trial,html.Screen,4_24_0,2023-10-30T21:28:09.212Z,,0,1,,3449.0190000000002,response,ISIC_0028176.JPG,8,ISIC_0010350.JPG,ISIC_0010350.JPG,false,0,keypress(z),500,130667.19999980927,130667,127201.005,127203.69999980927,127217.981,130684.81,8,400,25,,ISIC_0028176.JPG
break,html.Screen,4_24_1,2023-10-30T21:28:09.213Z,,0,,,NaN,,,,,,false,,,,130668.19999980927,130667.89999985695,,130667.39999985695,,130684.81,8,400,,,
break_continue,html.Screen,4_24_2,2023-10-30T21:28:09.213Z,,0,,,NaN,,,,,,false,,,,130668.39999985695,130668.39999985695,,130668.19999980927,,130684.81,8,400,,,
sequence,flow.Sequence,4_24,2023-10-30T21:28:09.213Z,,0,,,3450.418999856949,completion,,,,,false,,,,130668.59999990463,130668.39999985695,127201.005,127203.69999980927,127217.981,130684.81,8,400,,,
trial,html.Screen,4_25_0,2023-10-30T21:28:12.563Z,,0,1,,3333.4899999523186,response,ISIC_0064125.JPG,6,ISIC_3006279.JPG,ISIC_0064125.JPG,false,1,keypress(m),500,134018.69999980927,134018.29999995232,130667.939,130668.59999990463,130684.81,134034.632,8,400,26,,ISIC_3006279.JPG
break,html.Screen,4_25_1,2023-10-30T21:28:12.564Z,,0,,,NaN,,,,,,false,,,,134019.59999990463,134019.5,,134018.89999985695,,134034.632,8,400,,,
break_continue,html.Screen,4_25_2,2023-10-30T21:28:12.565Z,,0,,,NaN,,,,,,false,,,,134019.89999985695,134019.89999985695,,134019.69999980927,,134034.632,8,400,,,
sequence,flow.Sequence,4_25,2023-10-30T21:28:12.565Z,,0,,,3335.089999856951,completion,,,,,false,,,,134020,134019.89999985695,130667.939,130668.59999990463,130684.81,134034.632,8,400,,,
trial,html.Screen,4_26_0,2023-10-30T21:28:16.717Z,,0,1,,4137.567999809253,response,ISIC_0058781.JPG,12,ISIC_0034239.JPG,ISIC_0058781.JPG,false,1,keypress(m),500,138172.39999985695,138172.19999980927,134018.091,134020,134034.632,138184.389,8,400,27,,ISIC_0034239.JPG
break,html.Screen,4_26_1,2023-10-30T21:28:16.718Z,,0,,,NaN,,,,,,false,,,,138173.19999980927,138173,,138172.5,,138184.389,8,400,,,
break_continue,html.Screen,4_26_2,2023-10-30T21:28:16.718Z,,0,,,NaN,,,,,,false,,,,138173.39999985695,138173.39999985695,,138173.29999995232,,138184.389,8,400,,,
sequence,flow.Sequence,4_26,2023-10-30T21:28:16.718Z,,0,,,4138.7679998569365,completion,,,,,false,,,,138173.5,138173.39999985695,134018.091,134020,134034.632,138184.389,8,400,,,
trial,html.Screen,4_27_0,2023-10-30T21:28:20.616Z,,0,1,,3886.4109999523207,response,ISIC_3792196.JPG,9,ISIC_0067549.JPG,ISIC_3792196.JPG,false,1,keypress(m),500,142071.09999990463,142070.79999995232,138168.773,138173.59999990463,138184.389,142084.356,8,400,28,,ISIC_0067549.JPG
break,html.Screen,4_27_1,2023-10-30T21:28:20.617Z,,0,,,NaN,,,,,,false,,,,142072.19999980927,142071.89999985695,,142071.29999995232,,142084.356,8,400,,,
break_continue,html.Screen,4_27_2,2023-10-30T21:28:20.617Z,,0,,,NaN,,,,,,false,,,,142072.5,142072.39999985695,,142072.29999995232,,142084.356,8,400,,,
sequence,flow.Sequence,4_27,2023-10-30T21:28:20.617Z,,0,,,3888.0109998569533,completion,,,,,false,,,,142072.59999990463,142072.39999985695,138168.773,138173.59999990463,138184.389,142084.356,8,400,,,
trial,html.Screen,4_28_0,2023-10-30T21:28:23.278Z,,0,1,,2648.743999904633,response,ISIC_6239663.JPG,11,ISIC_2554114.JPG,ISIC_2554114.JPG,false,0,keypress(z),500,144733.29999995232,144733.09999990463,142068.298,142072.69999980927,142084.356,144757.406,8,400,29,,ISIC_6239663.JPG
break,html.Screen,4_28_1,2023-10-30T21:28:23.279Z,,0,,,NaN,,,,,,false,,,,144734.09999990463,144733.89999985695,,144733.39999985695,,144757.406,8,400,,,
break_continue,html.Screen,4_28_2,2023-10-30T21:28:23.279Z,,0,,,NaN,,,,,,false,,,,144734.59999990463,144734.39999985695,,144734.19999980927,,144757.406,8,400,,,
sequence,flow.Sequence,4_28,2023-10-30T21:28:23.279Z,,0,,,2650.043999856949,completion,,,,,false,,,,144734.59999990463,144734.39999985695,142068.298,142072.69999980927,142084.356,144757.406,8,400,,,
trial,html.Screen,4_29_0,2023-10-30T21:28:26.421Z,,0,1,,3118.9939998569607,response,ISIC_0032551.JPG,7,ISIC_0238824.JPG,ISIC_0032551.JPG,false,1,keypress(m),500,147876.79999995232,147876.39999985695,144718.229,144734.69999980927,144757.406,147884.499,8,400,30,,ISIC_0238824.JPG
break,html.Screen,4_29_1,2023-10-30T21:28:26.422Z,,0,,,NaN,,,,,,false,,,,147877.59999990463,147877.39999985695,,147876.89999985695,,147884.499,8,400,,,
break_continue,html.Screen,4_29_2,2023-10-30T21:28:26.422Z,,0,,,NaN,,,,,,false,,,,147877.69999980927,147877.69999980927,,147877.59999990463,,147884.499,8,400,,,
sequence,flow.Sequence,4_29,2023-10-30T21:28:26.422Z,,0,,,3120.293999809277,completion,,,,,false,,,,147877.79999995232,147877.69999980927,144718.229,144734.69999980927,144757.406,147884.499,8,400,,,
trial,html.Screen,4_30_0,2023-10-30T21:28:29.337Z,,0,1,,2907.8009999523056,response,ISIC_4579262.JPG,5,ISIC_0028642.JPG,ISIC_4579262.JPG,false,1,keypress(m),500,150792.69999980927,150792.29999995232,147867.549,147878,147884.499,150801.106,8,400,31,,ISIC_0028642.JPG
break,html.Screen,4_30_1,2023-10-30T21:28:29.338Z,,0,,,NaN,,,,,,false,,,,150793.5,150793.39999985695,,150792.89999985695,,150801.106,8,400,,,
break_continue,html.Screen,4_30_2,2023-10-30T21:28:29.338Z,,0,,,NaN,,,,,,false,,,,150793.79999995232,150793.69999980927,,150793.59999990463,,150801.106,8,400,,,
sequence,flow.Sequence,4_30,2023-10-30T21:28:29.338Z,,0,,,2909.2009998092544,completion,,,,,false,,,,150793.79999995232,150793.69999980927,147867.549,147877.89999985695,147884.499,150801.106,8,400,,,
trial,html.Screen,4_31_0,2023-10-30T21:28:31.971Z,,0,1,,2624.8940000000002,response,ISIC_0030235.JPG,10,ISIC_6375439.JPG,ISIC_6375439.JPG,false,0,keypress(z),500,153426.29999995232,153426,150785.299,150793.89999985695,150801.106,153434.625,8,400,32,,ISIC_0030235.JPG
break,html.Screen,4_31_1,2023-10-30T21:28:31.972Z,,0,,,NaN,,,,,,false,,,,153427.39999985695,153427.19999980927,,153426.5,,153434.625,8,400,,,
break_continue,html.Screen,4_31_2,2023-10-30T21:28:31.972Z,,0,,,NaN,,,,,,false,,,,153427.59999990463,153427.59999990463,,153427.39999985695,,153434.625,8,400,,,
sequence,flow.Sequence,4_31,2023-10-30T21:28:31.973Z,,0,,,2626.493999904633,completion,,,,,false,,,,153428.5,153427.59999990463,150785.299,150793.89999985695,150801.106,153434.625,8,400,,,
trial,html.Screen,4_32_0,2023-10-30T21:28:34.444Z,,0,1,,2464.574999809265,response,ISIC_2808323.JPG,7,ISIC_0058891.JPG,ISIC_2808323.JPG,false,1,keypress(m),500,155899.39999985695,155899.19999980927,153417.763,153428.59999990463,153434.625,155923.292,8,400,33,,ISIC_0058891.JPG
break,html.Screen,4_32_1,2023-10-30T21:28:34.445Z,,0,,,NaN,,,,,,false,,,,155900.5,155900.29999995232,,155899.69999980927,,155923.292,8,400,,,
break_continue,html.Screen,4_32_2,2023-10-30T21:28:34.445Z,,0,,,NaN,,,,,,false,,,,155900.69999980927,155900.59999990463,,155900.59999990463,,155923.292,8,400,,,
sequence,flow.Sequence,4_32,2023-10-30T21:28:34.445Z,,0,,,2465.9749999046326,completion,,,,,false,,,,155900.79999995232,155900.59999990463,153417.763,153428.5,153434.625,155923.292,8,400,,,
trial,html.Screen,4_33_0,2023-10-30T21:28:38.051Z,,0,1,,3583.0079999523296,response,ISIC_0779920.JPG,13,ISIC_4141898.JPG,ISIC_4141898.JPG,false,0,keypress(z),500,159506.59999990463,159506.29999995232,155884.926,155901,155923.292,159517.662,8,400,34,,ISIC_0779920.JPG
break,html.Screen,4_33_1,2023-10-30T21:28:38.052Z,,0,,,NaN,,,,,,false,,,,159507.79999995232,159507.39999985695,,159506.79999995232,,159517.662,8,400,,,
break_continue,html.Screen,4_33_2,2023-10-30T21:28:38.053Z,,0,,,NaN,,,,,,false,,,,159508.09999990463,159508,,159507.89999985695,,159517.662,8,400,,,
sequence,flow.Sequence,4_33,2023-10-30T21:28:38.053Z,,0,,,3584.7080000000133,completion,,,,,false,,,,159508.09999990463,159508,155884.926,155900.79999995232,155923.292,159517.662,8,400,,,
trial,html.Screen,4_34_0,2023-10-30T21:28:40.662Z,,0,1,,2599.7379998569377,response,ISIC_0025616.JPG,8,ISIC_7505369.JPG,ISIC_7505369.JPG,false,0,keypress(z),500,162117.69999980927,162117.39999985695,159500.957,159508.19999980927,159517.662,162151.091,8,400,35,,ISIC_0025616.JPG
break,html.Screen,4_34_1,2023-10-30T21:28:40.664Z,,0,,,NaN,,,,,,false,,,,162119,162118.59999990463,,162117.89999985695,,162151.091,8,400,,,
break_continue,html.Screen,4_34_2,2023-10-30T21:28:40.664Z,,0,,,NaN,,,,,,false,,,,162119.29999995232,162119.29999995232,,162119.09999990463,,162151.091,8,400,,,
sequence,flow.Sequence,4_34,2023-10-30T21:28:40.664Z,,0,,,2601.637999952305,completion,,,,,false,,,,162119.39999985695,162119.29999995232,159500.957,159508.19999980927,159517.662,162151.091,8,400,,,
trial,html.Screen,4_35_0,2023-10-30T21:28:44.074Z,,0,1,,3378.5089999046468,response,ISIC_0031742.JPG,8,ISIC_6997433.JPG,ISIC_6997433.JPG,false,0,keypress(z),500,165529.79999995232,165529.59999990463,162134.925,162119.5,162151.091,165534.377,8,400,36,,ISIC_0031742.JPG
break,html.Screen,4_35_1,2023-10-30T21:28:44.075Z,,0,,,NaN,,,,,,false,,,,165530.69999980927,165530.5,,165530,,165534.377,8,400,,,
break_continue,html.Screen,4_35_2,2023-10-30T21:28:44.076Z,,0,,,NaN,,,,,,false,,,,165530.89999985695,165530.89999985695,,165530.79999995232,,165534.377,8,400,,,
sequence,flow.Sequence,4_35,2023-10-30T21:28:44.076Z,,0,,,3379.808999856963,completion,,,,,false,,,,165531,165530.89999985695,162134.925,162119.5,162151.091,165534.377,8,400,,,
trial,html.Screen,4_36_0,2023-10-30T21:28:46.788Z,,0,1,,2708.6229999999923,response,ISIC_1472731.JPG,10,ISIC_0061475.JPG,ISIC_1472731.JPG,false,1,keypress(m),500,168243.29999995232,168243,165518.19,165531,165534.377,168251.104,8,400,37,,ISIC_0061475.JPG
break,html.Screen,4_36_1,2023-10-30T21:28:46.789Z,,0,,,NaN,,,,,,false,,,,168244.39999985695,168244.09999990463,,168243.5,,168251.104,8,400,,,
break_continue,html.Screen,4_36_2,2023-10-30T21:28:46.789Z,,0,,,NaN,,,,,,false,,,,168244.79999995232,168244.69999980927,,168244.5,,168251.104,8,400,,,
sequence,flow.Sequence,4_36,2023-10-30T21:28:46.790Z,,0,,,2710.3229998092575,completion,,,,,false,,,,168244.89999985695,168244.69999980927,165518.19,165531,165534.377,168251.104,8,400,,,
trial,html.Screen,4_37_0,2023-10-30T21:28:49.447Z,,0,1,,2650.9959999046405,response,ISIC_0027247.JPG,12,ISIC_8140072.JPG,ISIC_0027247.JPG,false,1,keypress(m),500,170902.39999985695,170902.09999990463,168234.61,168245,168251.104,170918.105,8,400,38,,ISIC_8140072.JPG
break,html.Screen,4_37_1,2023-10-30T21:28:49.448Z,,0,,,NaN,,,,,,false,,,,170903.29999995232,170903.09999990463,,170902.5,,170918.105,8,400,,,
break_continue,html.Screen,4_37_2,2023-10-30T21:28:49.448Z,,0,,,NaN,,,,,,false,,,,170903.59999990463,170903.5,,170903.29999995232,,170918.105,8,400,,,
sequence,flow.Sequence,4_37,2023-10-30T21:28:49.448Z,,0,,,2652.396000000008,completion,,,,,false,,,,170903.69999980927,170903.5,168234.61,168245,168251.104,170918.105,8,400,,,
trial,html.Screen,4_38_0,2023-10-30T21:28:52.049Z,,0,1,,2586.494999904622,response,ISIC_0057286.JPG,6,ISIC_2882945.JPG,ISIC_2882945.JPG,false,0,keypress(z),500,173504.79999995232,173504.59999990463,170900.943,170903.79999995232,170918.105,173518.014,8,400,39,,ISIC_0057286.JPG
break,html.Screen,4_38_1,2023-10-30T21:28:52.050Z,,0,,,NaN,,,,,,false,,,,173505.59999990463,173505.39999985695,,173505,,173518.014,8,400,,,
break_continue,html.Screen,4_38_2,2023-10-30T21:28:52.050Z,,0,,,NaN,,,,,,false,,,,173505.89999985695,173505.79999995232,,173505.79999995232,,173518.014,8,400,,,
sequence,flow.Sequence,4_38,2023-10-30T21:28:52.051Z,,0,,,2587.694999952306,completion,,,,,false,,,,173505.89999985695,173505.79999995232,170900.943,170903.69999980927,170918.105,173518.014,8,400,,,
trial,html.Screen,4_39_0,2023-10-30T21:28:54.619Z,,0,1,,2555.6859998092696,response,ISIC_0033089.JPG,9,ISIC_0011488.JPG,ISIC_0033089.JPG,false,1,keypress(m),500,176073.89999985695,176073.69999980927,173501.967,173506,173518.014,176084.342,8,400,40,,ISIC_0011488.JPG
break,html.Screen,4_39_1,2023-10-30T21:28:54.619Z,,0,,,NaN,,,,,,false,,,,176074.89999985695,176074.69999980927,,176074.09999990463,,176084.342,8,400,,,
break_continue,html.Screen,4_39_2,2023-10-30T21:28:54.620Z,,0,,,NaN,,,,,,false,,,,176075.19999980927,176075.09999990463,,176075,,176084.342,8,400,,,
sequence,flow.Sequence,4_39,2023-10-30T21:28:54.620Z,,0,,,2557.085999904637,completion,,,,,false,,,,176075.29999995232,176075.09999990463,173501.967,173506,173518.014,176084.342,8,400,,,
trial,html.Screen,4_40_0,2023-10-30T21:28:57.725Z,,0,1,,3096.0579998569447,response,ISIC_0002349.JPG,12,ISIC_6617840.JPG,ISIC_0002349.JPG,false,1,keypress(m),500,179180.79999995232,179180.39999985695,176068.147,176075.29999995232,176084.342,179184.425,8,400,41,,ISIC_6617840.JPG
break,html.Screen,4_40_1,2023-10-30T21:28:57.726Z,,0,,,NaN,,,,,,false,,,,179181.89999985695,179181.59999990463,,179181,,179184.425,8,400,,,
break_continue,html.Screen,4_40_2,2023-10-30T21:28:57.727Z,,0,,,NaN,,,,,,false,,,,179182.19999980927,179182.19999980927,,179181.89999985695,,179184.425,8,400,,,
sequence,flow.Sequence,4_40,2023-10-30T21:28:57.727Z,,0,,,3097.857999809261,completion,,,,,false,,,,179182.29999995232,179182.19999980927,176068.147,176075.29999995232,176084.342,179184.425,8,400,,,
trial,html.Screen,4_41_0,2023-10-30T21:29:00.306Z,,0,1,,2576.5750000000116,response,ISIC_0001152.JPG,10,ISIC_9412963.JPG,ISIC_9412963.JPG,false,0,keypress(z),500,181761.19999980927,181761,179167.914,179182.39999985695,179184.425,181767.712,8,400,42,,ISIC_0001152.JPG
break,html.Screen,4_41_1,2023-10-30T21:29:00.307Z,,0,,,NaN,,,,,,false,,,,181762,181761.79999995232,,181761.39999985695,,181767.712,8,400,,,
break_continue,html.Screen,4_41_2,2023-10-30T21:29:00.307Z,,0,,,NaN,,,,,,false,,,,181762.29999995232,181762.19999980927,,181762.09999990463,,181767.712,8,400,,,
sequence,flow.Sequence,4_41,2023-10-30T21:29:00.307Z,,0,,,2577.774999809277,completion,,,,,false,,,,181762.39999985695,181762.19999980927,179167.914,179182.39999985695,179184.425,181767.712,8,400,,,
trial,html.Screen,4_42_0,2023-10-30T21:29:02.826Z,,0,1,,2512.887999904633,response,ISIC_2430937.JPG,11,ISIC_0071904.JPG,ISIC_2430937.JPG,false,1,keypress(m),500,184281,184280.59999990463,181751.582,181762.5,181767.712,184284.4,8,400,43,,ISIC_0071904.JPG
break,html.Screen,4_42_1,2023-10-30T21:29:02.827Z,,0,,,NaN,,,,,,false,,,,184282,184281.79999995232,,184281.29999995232,,184284.4,8,400,,,
break_continue,html.Screen,4_42_2,2023-10-30T21:29:02.827Z,,0,,,NaN,,,,,,false,,,,184282.19999980927,184282.19999980927,,184282.09999990463,,184284.4,8,400,,,
sequence,flow.Sequence,4_42,2023-10-30T21:29:02.827Z,,0,,,2514.4879998092656,completion,,,,,false,,,,184282.39999985695,184282.19999980927,181751.582,181762.5,181767.712,184284.4,8,400,,,
trial,html.Screen,4_43_0,2023-10-30T21:29:05.489Z,,0,1,,2659.1999999046384,response,ISIC_8943906.JPG,11,ISIC_3296136.JPG,ISIC_8943906.JPG,false,1,keypress(m),500,186943.89999985695,186943.59999990463,184267.267,184282.39999985695,184284.4,186951.03,8,400,44,,ISIC_3296136.JPG
break,html.Screen,4_43_1,2023-10-30T21:29:05.490Z,,0,,,NaN,,,,,,false,,,,186945,186944.79999995232,,186944.29999995232,,186951.03,8,400,,,
break_continue,html.Screen,4_43_2,2023-10-30T21:29:05.490Z,,0,,,NaN,,,,,,false,,,,186945.29999995232,186945.19999980927,,186945.09999990463,,186951.03,8,400,,,
sequence,flow.Sequence,4_43,2023-10-30T21:29:05.490Z,,0,,,2660.799999809271,completion,,,,,false,,,,186945.29999995232,186945.19999980927,184267.267,184282.39999985695,184284.4,186951.03,8,400,,,
trial,html.Screen,4_44_0,2023-10-30T21:29:08.506Z,,0,1,,3010.470000000001,response,ISIC_5706908.JPG,5,ISIC_0033059.JPG,ISIC_5706908.JPG,false,1,keypress(m),500,189961.79999995232,189961.5,186934.412,186945.29999995232,186951.03,189967.678,8,400,45,,ISIC_0033059.JPG
break,html.Screen,4_44_1,2023-10-30T21:29:08.507Z,,0,,,NaN,,,,,,false,,,,189962.69999980927,189962.39999985695,,189961.89999985695,,189967.678,8,400,,,
break_continue,html.Screen,4_44_2,2023-10-30T21:29:08.508Z,,0,,,NaN,,,,,,false,,,,189962.89999985695,189962.89999985695,,189962.79999995232,,189967.678,8,400,,,
sequence,flow.Sequence,4_44,2023-10-30T21:29:08.508Z,,0,,,3011.86999985695,completion,,,,,false,,,,189963.09999990463,189962.89999985695,186934.412,186945.29999995232,186951.03,189967.678,8,400,,,
trial,html.Screen,4_45_0,2023-10-30T21:29:11.379Z,,0,1,,2866.421999904618,response,ISIC_0032133.JPG,12,ISIC_0032089.JPG,ISIC_0032089.JPG,false,0,keypress(z),500,192834.39999985695,192834.09999990463,189951.871,189963.09999990463,189967.678,192851.149,8,400,46,,ISIC_0032133.JPG
break,html.Screen,4_45_1,2023-10-30T21:29:11.380Z,,0,,,NaN,,,,,,false,,,,192835.59999990463,192835.39999985695,,192834.59999990463,,192851.149,8,400,,,
break_continue,html.Screen,4_45_2,2023-10-30T21:29:11.380Z,,0,,,NaN,,,,,,false,,,,192835.79999995232,192835.69999980927,,192835.69999980927,,192851.149,8,400,,,
sequence,flow.Sequence,4_45,2023-10-30T21:29:11.381Z,,0,,,2868.0219998092507,completion,,,,,false,,,,192835.89999985695,192835.69999980927,189951.871,189963.09999990463,189967.678,192851.149,8,400,,,
trial,html.Screen,4_46_0,2023-10-30T21:29:15.287Z,,0,1,,3890.5509998092602,response,ISIC_0027600.JPG,10,ISIC_0072422.JPG,ISIC_0072422.JPG,false,0,keypress(z),500,196741.89999985695,196741.69999980927,192834.241,192836,192851.149,196751.014,8,400,47,,ISIC_0027600.JPG
break,html.Screen,4_46_1,2023-10-30T21:29:15.288Z,,0,,,NaN,,,,,,false,,,,196742.89999985695,196742.59999990463,,196742.09999990463,,196751.014,8,400,,,
break_continue,html.Screen,4_46_2,2023-10-30T21:29:15.288Z,,0,,,NaN,,,,,,false,,,,196743.09999990463,196743.09999990463,,196742.89999985695,,196751.014,8,400,,,
sequence,flow.Sequence,4_46,2023-10-30T21:29:15.288Z,,0,,,3891.9509999046277,completion,,,,,false,,,,196743.19999980927,196743.09999990463,192834.241,192835.89999985695,192851.149,196751.014,8,400,,,
trial,html.Screen,4_47_0,2023-10-30T21:29:18.796Z,,0,1,,3500.3859998569533,response,ISIC_0024529.JPG,10,ISIC_0001152.JPG,ISIC_0024529.JPG,false,1,keypress(m),500,200251.69999980927,200251.39999985695,196734.103,196743.29999995232,196751.014,200267.685,8,400,48,,ISIC_0001152.JPG
break,html.Screen,4_47_1,2023-10-30T21:29:18.797Z,,0,,,NaN,,,,,,false,,,,200252.5,200252.29999995232,,200251.89999985695,,200267.685,8,400,,,
break_continue,html.Screen,4_47_2,2023-10-30T21:29:18.797Z,,0,,,NaN,,,,,,false,,,,200252.69999980927,200252.69999980927,,200252.59999990463,,200267.685,8,400,,,
sequence,flow.Sequence,4_47,2023-10-30T21:29:18.797Z,,0,,,3501.6859998092696,completion,,,,,false,,,,200252.79999995232,200252.69999980927,196734.103,196743.29999995232,196751.014,200267.685,8,400,,,
trial,html.Screen,4_48_0,2023-10-30T21:29:21.475Z,,0,1,,2662.0149998092675,response,ISIC_0033463.JPG,12,ISIC_0028022.JPG,ISIC_0028022.JPG,false,0,keypress(z),500,202930,202929.69999980927,200251.232,200252.89999985695,200267.685,202934.387,8,400,49,,ISIC_0033463.JPG
break,html.Screen,4_48_1,2023-10-30T21:29:21.476Z,,0,,,NaN,,,,,,false,,,,202931,202930.69999980927,,202930.19999980927,,202934.387,8,400,,,
break_continue,html.Screen,4_48_2,2023-10-30T21:29:21.476Z,,0,,,NaN,,,,,,false,,,,202931.29999995232,202931.19999980927,,202931.09999990463,,202934.387,8,400,,,
sequence,flow.Sequence,4_48,2023-10-30T21:29:21.476Z,,0,,,2663.5149998092675,completion,,,,,false,,,,202931.29999995232,202931.19999980927,200251.232,200252.89999985695,200267.685,202934.387,8,400,,,
trial,html.Screen,4_49_0,2023-10-30T21:29:24.263Z,,0,1,,2783.7129999046447,response,ISIC_0010347.JPG,10,ISIC_4890201.JPG,ISIC_0010347.JPG,false,1,keypress(m),500,205718.5,205718.09999990463,202918.143,202931.29999995232,202934.387,205734.744,8,400,50,,ISIC_4890201.JPG
break,html.Screen,4_49_1,2023-10-30T21:29:34.263Z,,0,,,9999.627000000008,timeout,,,,,false,,,,215718.39999985695,215717.703,205717.593,205718.69999980927,205734.744,215734.371,8,400,,,
break_continue,html.Screen,4_49_2,2023-10-30T21:29:35.360Z,,0,,,1073.0289998569351,response,,,,,false,continue,keypress(Space),,216815.79999995232,216807.39999985695,215717.703,215718.5,215734.371,216817.705,8,400,,,
sequence,flow.Sequence,4_49,2023-10-30T21:29:35.361Z,,0,,,13873.012999856961,completion,,,,,false,,,,216815.89999985695,216807.39999985695,202918.143,202931.29999995232,202934.387,216817.705,8,400,,,
trial,html.Screen,4_50_0,2023-10-30T21:29:39.908Z,,0,2,,4545.594999952329,response,ISIC_0013316.JPG,13,ISIC_0010770.JPG,ISIC_0010770.JPG,false,0,keypress(z),500,221363.59999990463,221363.29999995232,216801.496,216816.09999990463,216817.705,221367.708,8,400,1,,ISIC_0013316.JPG
break,html.Screen,4_50_1,2023-10-30T21:29:39.909Z,,0,,,NaN,,,,,,false,,,,221364.29999995232,221364.09999990463,,221363.69999980927,,221367.708,8,400,,,
break_continue,html.Screen,4_50_2,2023-10-30T21:29:39.909Z,,0,,,NaN,,,,,,false,,,,221364.5,221364.39999985695,,221364.29999995232,,221367.708,8,400,,,
sequence,flow.Sequence,4_50,2023-10-30T21:29:39.909Z,,0,,,4546.694999856962,completion,,,,,false,,,,221364.69999980927,221364.39999985695,216801.496,216816,216817.705,221367.708,8,400,,,
trial,html.Screen,4_51_0,2023-10-30T21:29:42.729Z,,0,2,,2816.1919998569356,response,ISIC_0055513.JPG,7,ISIC_0054886.JPG,ISIC_0055513.JPG,false,1,keypress(m),500,224184.09999990463,224183.89999985695,221351.407,221364.69999980927,221367.708,224201.18,8,400,2,,ISIC_0054886.JPG
break,html.Screen,4_51_1,2023-10-30T21:29:42.730Z,,0,,,NaN,,,,,,false,,,,224185.09999990463,224184.89999985695,,224184.39999985695,,224201.18,8,400,,,
break_continue,html.Screen,4_51_2,2023-10-30T21:29:42.730Z,,0,,,NaN,,,,,,false,,,,224185.29999995232,224185.29999995232,,224185.09999990463,,224201.18,8,400,,,
sequence,flow.Sequence,4_51,2023-10-30T21:29:42.730Z,,0,,,2817.591999952303,completion,,,,,false,,,,224185.39999985695,224185.29999995232,221351.407,221364.69999980927,221367.708,224201.18,8,400,,,
trial,html.Screen,4_52_0,2023-10-30T21:29:45.251Z,,0,2,,2505.320000000007,response,ISIC_1637536.JPG,6,ISIC_4507700.JPG,ISIC_1637536.JPG,false,1,keypress(m),500,226706.89999985695,226706.5,224184.344,224185.5,224201.18,226717.842,8,400,3,,ISIC_4507700.JPG
break,html.Screen,4_52_1,2023-10-30T21:29:45.252Z,,0,,,NaN,,,,,,false,,,,226707.79999995232,226707.5,,226707.09999990463,,226717.842,8,400,,,
break_continue,html.Screen,4_52_2,2023-10-30T21:29:45.253Z,,0,,,NaN,,,,,,false,,,,226708,226707.89999985695,,226707.79999995232,,226717.842,8,400,,,
sequence,flow.Sequence,4_52,2023-10-30T21:29:45.253Z,,0,,,2506.719999856956,completion,,,,,false,,,,226708.09999990463,226707.89999985695,224184.344,224185.5,224201.18,226717.842,8,400,,,
trial,html.Screen,4_53_0,2023-10-30T21:29:47.581Z,,0,2,,2318.457999952312,response,ISIC_9348399.JPG,13,ISIC_0000754.JPG,ISIC_0000754.JPG,false,0,keypress(z),500,229036.5,229036.29999995232,226700.94,226708.19999980927,226717.842,229051.059,8,400,4,,ISIC_9348399.JPG
break,html.Screen,4_53_1,2023-10-30T21:29:47.582Z,,0,,,NaN,,,,,,false,,,,229037.5,229037.39999985695,,229036.69999980927,,229051.059,8,400,,,
break_continue,html.Screen,4_53_2,2023-10-30T21:29:47.582Z,,0,,,NaN,,,,,,false,,,,229037.69999980927,229037.69999980927,,229037.5,,229051.059,8,400,,,
sequence,flow.Sequence,4_53,2023-10-30T21:29:47.583Z,,0,,,2319.857999809261,completion,,,,,false,,,,229037.79999995232,229037.69999980927,226700.94,226708.09999990463,226717.842,229051.059,8,400,,,
trial,html.Screen,4_54_0,2023-10-30T21:29:49.719Z,,0,2,,2123.240999952308,response,ISIC_4680417.JPG,5,ISIC_0034180.JPG,ISIC_4680417.JPG,false,1,keypress(m),500,231174.59999990463,231174.29999995232,229034.738,229037.89999985695,229051.059,231184.335,8,400,5,,ISIC_0034180.JPG
break,html.Screen,4_54_1,2023-10-30T21:29:49.720Z,,0,,,NaN,,,,,,false,,,,231175.59999990463,231175.39999985695,,231174.79999995232,,231184.335,8,400,,,
break_continue,html.Screen,4_54_2,2023-10-30T21:29:49.721Z,,0,,,NaN,,,,,,false,,,,231175.79999995232,231175.79999995232,,231175.69999980927,,231184.335,8,400,,,
sequence,flow.Sequence,4_54,2023-10-30T21:29:49.721Z,,0,,,2124.740999952308,completion,,,,,false,,,,231176,231175.79999995232,229034.738,229037.89999985695,229051.059,231184.335,8,400,,,
trial,html.Screen,4_55_0,2023-10-30T21:29:53.038Z,,0,2,,3308.564999856957,response,ISIC_0212774.JPG,7,ISIC_0012054.JPG,ISIC_0212774.JPG,false,1,keypress(m),500,234493.19999980927,234492.89999985695,231168.058,231176,231184.335,234501.438,8,400,6,,ISIC_0012054.JPG
break,html.Screen,4_55_1,2023-10-30T21:29:53.039Z,,0,,,NaN,,,,,,false,,,,234494.39999985695,234494,,234493.5,,234501.438,8,400,,,
break_continue,html.Screen,4_55_2,2023-10-30T21:29:53.039Z,,0,,,NaN,,,,,,false,,,,234494.69999980927,234494.69999980927,,234494.5,,234501.438,8,400,,,
sequence,flow.Sequence,4_55,2023-10-30T21:29:53.040Z,,0,,,3310.3649998092733,completion,,,,,false,,,,234494.79999995232,234494.69999980927,231168.058,231176,231184.335,234501.438,8,400,,,
trial,html.Screen,4_56_0,2023-10-30T21:29:56.055Z,,0,2,,3008.961999856954,response,ISIC_7323761.JPG,6,ISIC_2173158.JPG,ISIC_2173158.JPG,false,0,keypress(z),500,237510.79999995232,237510.39999985695,234484.4,234494.89999985695,234501.438,237517.652,8,400,7,,ISIC_7323761.JPG
break,html.Screen,4_56_1,2023-10-30T21:29:56.057Z,,0,,,NaN,,,,,,false,,,,237511.79999995232,237511.59999990463,,237511,,237517.652,8,400,,,
break_continue,html.Screen,4_56_2,2023-10-30T21:29:56.057Z,,0,,,NaN,,,,,,false,,,,237512.09999990463,237512,,237511.89999985695,,237517.652,8,400,,,
sequence,flow.Sequence,4_56,2023-10-30T21:29:56.057Z,,0,,,3010.5620000000054,completion,,,,,false,,,,237512.19999980927,237512,234484.4,234494.89999985695,234501.438,237517.652,8,400,,,
trial,html.Screen,4_57_0,2023-10-30T21:29:58.430Z,,0,2,,2367.0479998092633,response,ISIC_0033679.JPG,7,ISIC_8194467.JPG,ISIC_0033679.JPG,false,1,keypress(m),500,239885,239884.69999980927,237500.968,237512.19999980927,237517.652,239901.051,8,400,8,,ISIC_8194467.JPG
break,html.Screen,4_57_1,2023-10-30T21:29:58.430Z,,0,,,NaN,,,,,,false,,,,239885.79999995232,239885.69999980927,,239885.19999980927,,239901.051,8,400,,,
break_continue,html.Screen,4_57_2,2023-10-30T21:29:58.431Z,,0,,,NaN,,,,,,false,,,,239886,239886,,239885.89999985695,,239901.051,8,400,,,
sequence,flow.Sequence,4_57,2023-10-30T21:29:58.431Z,,0,,,2368.347999999998,completion,,,,,false,,,,239886.09999990463,239886,237500.968,237512.19999980927,237517.652,239901.051,8,400,,,
trial,html.Screen,4_58_0,2023-10-30T21:30:01.856Z,,0,2,,3410.548999904626,response,ISIC_8310944.JPG,10,ISIC_3761253.JPG,ISIC_8310944.JPG,false,1,keypress(m),500,243311.79999995232,243311.59999990463,239884.772,239886.19999980927,239901.051,243317.636,8,400,9,,ISIC_3761253.JPG
break,html.Screen,4_58_1,2023-10-30T21:30:01.857Z,,0,,,NaN,,,,,,false,,,,243312.59999990463,243312.5,,243311.89999985695,,243317.636,8,400,,,
break_continue,html.Screen,4_58_2,2023-10-30T21:30:01.857Z,,0,,,NaN,,,,,,false,,,,243312.89999985695,243312.89999985695,,243312.69999980927,,243317.636,8,400,,,
sequence,flow.Sequence,4_58,2023-10-30T21:30:01.858Z,,0,,,3411.848999856942,completion,,,,,false,,,,243313,243312.89999985695,239884.772,239886.19999980927,239901.051,243317.636,8,400,,,
trial,html.Screen,4_59_0,2023-10-30T21:30:04.455Z,,0,2,,2592.7639998569502,response,ISIC_0302804.JPG,8,ISIC_0959863.JPG,ISIC_0302804.JPG,false,1,keypress(m),500,245910.69999980927,245910.39999985695,243301.083,243313.09999990463,243317.636,245917.67,8,400,10,,ISIC_0959863.JPG
break,html.Screen,4_59_1,2023-10-30T21:30:04.456Z,,0,,,NaN,,,,,,false,,,,245911.79999995232,245911.5,,245910.89999985695,,245917.67,8,400,,,
break_continue,html.Screen,4_59_2,2023-10-30T21:30:04.457Z,,0,,,NaN,,,,,,false,,,,245912,245912,,245911.79999995232,,245917.67,8,400,,,
sequence,flow.Sequence,4_59,2023-10-30T21:30:04.457Z,,0,,,2594.3640000000014,completion,,,,,false,,,,245912.09999990463,245912,243301.083,243313.09999990463,243317.636,245917.67,8,400,,,
trial,html.Screen,4_60_0,2023-10-30T21:30:08.254Z,,0,2,,3791.9299999046198,response,ISIC_9047184.JPG,7,ISIC_8095877.JPG,ISIC_8095877.JPG,false,0,keypress(z),500,249709.89999985695,249709.59999990463,245901.397,245912.19999980927,245917.67,249717.73,8,400,11,,ISIC_9047184.JPG
break,html.Screen,4_60_1,2023-10-30T21:30:08.255Z,,0,,,NaN,,,,,,false,,,,249710.59999990463,249710.39999985695,,249710,,249717.73,8,400,,,
break_continue,html.Screen,4_60_2,2023-10-30T21:30:08.255Z,,0,,,NaN,,,,,,false,,,,249710.79999995232,249710.79999995232,,249710.69999980927,,249717.73,8,400,,,
sequence,flow.Sequence,4_60,2023-10-30T21:30:08.256Z,,0,,,3793.1299999523035,completion,,,,,false,,,,249710.89999985695,249710.79999995232,245901.397,245912.19999980927,245917.67,249717.73,8,400,,,
trial,html.Screen,4_61_0,2023-10-30T21:30:11.430Z,,0,2,,3167.369999904622,response,ISIC_7394897.JPG,9,ISIC_2768150.JPG,ISIC_7394897.JPG,false,1,keypress(m),500,252885.39999985695,252885.09999990463,249701.208,249711,249717.73,252901.061,8,400,12,,ISIC_2768150.JPG
break,html.Screen,4_61_1,2023-10-30T21:30:11.431Z,,0,,,NaN,,,,,,false,,,,252886.5,252886.29999995232,,252885.59999990463,,252901.061,8,400,,,
break_continue,html.Screen,4_61_2,2023-10-30T21:30:11.431Z,,0,,,NaN,,,,,,false,,,,252886.79999995232,252886.69999980927,,252886.59999990463,,252901.061,8,400,,,
sequence,flow.Sequence,4_61,2023-10-30T21:30:11.431Z,,0,,,3168.9699998092547,completion,,,,,false,,,,252886.89999985695,252886.69999980927,249701.208,249711,249717.73,252901.061,8,400,,,
trial,html.Screen,4_62_0,2023-10-30T21:30:15.342Z,,0,2,,3896.2389999523293,response,ISIC_6001936.JPG,6,ISIC_0060397.JPG,ISIC_0060397.JPG,false,0,keypress(z),500,256797.79999995232,256797.29999995232,252884.353,252887,252901.061,256801.024,8,400,13,,ISIC_6001936.JPG
break,html.Screen,4_62_1,2023-10-30T21:30:15.344Z,,0,,,NaN,,,,,,false,,,,256799,256798.69999980927,,256797.89999985695,,256801.024,8,400,,,
break_continue,html.Screen,4_62_2,2023-10-30T21:30:15.344Z,,0,,,NaN,,,,,,false,,,,256799.09999990463,256799.09999990463,,256799,,256801.024,8,400,,,
sequence,flow.Sequence,4_62,2023-10-30T21:30:15.344Z,,0,,,3898.0389999046456,completion,,,,,false,,,,256799.19999980927,256799.09999990463,252884.353,252886.89999985695,252901.061,256801.024,8,400,,,
trial,html.Screen,4_63_0,2023-10-30T21:30:19.049Z,,0,2,,3702.7759999523114,response,ISIC_0033654.JPG,8,ISIC_6065301.JPG,ISIC_6065301.JPG,false,0,keypress(z),500,260504.09999990463,260503.79999995232,256784.441,256799.29999995232,256801.024,260518.036,8,400,14,,ISIC_0033654.JPG
break,html.Screen,4_63_1,2023-10-30T21:30:19.049Z,,0,,,NaN,,,,,,false,,,,260504.89999985695,260504.69999980927,,260504.19999980927,,260518.036,8,400,,,
break_continue,html.Screen,4_63_2,2023-10-30T21:30:19.050Z,,0,,,NaN,,,,,,false,,,,260505.09999990463,260505.09999990463,,260505,,260518.036,8,400,,,
sequence,flow.Sequence,4_63,2023-10-30T21:30:19.050Z,,0,,,3704.0759999046277,completion,,,,,false,,,,260505.29999995232,260505.09999990463,256784.441,256799.29999995232,256801.024,260518.036,8,400,,,
trial,html.Screen,4_64_0,2023-10-30T21:30:21.329Z,,0,2,,2266.1639998092724,response,ISIC_0025428.JPG,10,ISIC_0634107.JPG,ISIC_0025428.JPG,false,1,keypress(m),500,262784.39999985695,262784.19999980927,260500.999,260505.29999995232,260518.036,262800.972,8,400,15,,ISIC_0634107.JPG
break,html.Screen,4_64_1,2023-10-30T21:30:21.330Z,,0,,,NaN,,,,,,false,,,,262785.5,262785.19999980927,,262784.69999980927,,262800.972,8,400,,,
break_continue,html.Screen,4_64_2,2023-10-30T21:30:21.330Z,,0,,,NaN,,,,,,false,,,,262785.7999999523,262785.69999980927,,262785.5,,262800.972,8,400,,,
sequence,flow.Sequence,4_64,2023-10-30T21:30:21.331Z,,0,,,2267.6639998092724,completion,,,,,false,,,,262785.89999985695,262785.69999980927,260500.999,260505.29999995232,260518.036,262800.972,8,400,,,
trial,html.Screen,4_65_0,2023-10-30T21:30:25.060Z,,0,2,,3714.3279999523074,response,ISIC_0027981.JPG,5,ISIC_0046316.JPG,ISIC_0027981.JPG,false,1,keypress(m),500,266515.69999980927,266515.2999999523,262784.427,262786,262800.972,266517.672,8,400,16,,ISIC_0046316.JPG
break,html.Screen,4_65_1,2023-10-30T21:30:25.061Z,,0,,,NaN,,,,,,false,,,,266516.5,266516.39999985695,,266515.89999985695,,266517.672,8,400,,,
break_continue,html.Screen,4_65_2,2023-10-30T21:30:25.061Z,,0,,,NaN,,,,,,false,,,,266516.7999999523,266516.69999980927,,266516.69999980927,,266517.672,8,400,,,
sequence,flow.Sequence,4_65,2023-10-30T21:30:25.061Z,,0,,,3715.7279998092563,completion,,,,,false,,,,266516.89999985695,266516.69999980927,262784.427,262786,262800.972,266517.672,8,400,,,
trial,html.Screen,4_66_0,2023-10-30T21:30:28.747Z,,0,2,,3684.5279998092446,response,ISIC_6926118.JPG,6,ISIC_9458746.JPG,ISIC_9458746.JPG,false,0,keypress(z),500,270202.5,270202.19999980927,266500.918,266517,266517.672,270217.765,8,400,17,,ISIC_6926118.JPG
break,html.Screen,4_66_1,2023-10-30T21:30:28.748Z,,0,,,NaN,,,,,,false,,,,270203.2999999523,270203.09999990463,,270202.59999990463,,270217.765,8,400,,,
break_continue,html.Screen,4_66_2,2023-10-30T21:30:28.748Z,,0,,,NaN,,,,,,false,,,,270203.59999990463,270203.5,,270203.39999985695,,270217.765,8,400,,,
sequence,flow.Sequence,4_66,2023-10-30T21:30:28.748Z,,0,,,3685.8279999999795,completion,,,,,false,,,,270203.59999990463,270203.5,266500.918,266516.89999985695,266517.672,270217.765,8,400,,,
trial,html.Screen,4_67_0,2023-10-30T21:30:32.097Z,,0,2,,3334.134999856935,response,ISIC_0011091.JPG,5,ISIC_0067565.JPG,ISIC_0011091.JPG,false,1,keypress(m),500,273552.2999999523,273551.89999985695,270201.63,270203.59999990463,270217.765,273567.975,8,400,18,,ISIC_0067565.JPG
break,html.Screen,4_67_1,2023-10-30T21:30:32.098Z,,0,,,NaN,,,,,,false,,,,273553.09999990463,273552.89999985695,,273552.39999985695,,273567.975,8,400,,,
break_continue,html.Screen,4_67_2,2023-10-30T21:30:32.098Z,,0,,,NaN,,,,,,false,,,,273553.2999999523,273553.19999980927,,273553.19999980927,,273567.975,8,400,,,
sequence,flow.Sequence,4_67,2023-10-30T21:30:32.098Z,,0,,,3335.434999809251,completion,,,,,false,,,,273553.39999985695,273553.19999980927,270201.63,270203.59999990463,270217.765,273567.975,8,400,,,
trial,html.Screen,4_68_0,2023-10-30T21:30:35.587Z,,0,2,,3474.5250000000233,response,ISIC_4819371.JPG,7,ISIC_8691327.JPG,ISIC_8691327.JPG,false,0,keypress(z),500,277042.7999999523,277042.5,273551.315,273553.5,273567.975,277051.173,8,400,19,,ISIC_4819371.JPG
break,html.Screen,4_68_1,2023-10-30T21:30:35.589Z,,0,,,NaN,,,,,,false,,,,277044,277043.69999980927,,277043,,277051.173,8,400,,,
break_continue,html.Screen,4_68_2,2023-10-30T21:30:35.589Z,,0,,,NaN,,,,,,false,,,,277044.2999999523,277044.19999980927,,277044,,277051.173,8,400,,,
sequence,flow.Sequence,4_68,2023-10-30T21:30:35.589Z,,0,,,3476.2249998092884,completion,,,,,false,,,,277044.2999999523,277044.19999980927,273551.315,273553.5,273567.975,277051.173,8,400,,,
trial,html.Screen,4_69_0,2023-10-30T21:30:39.529Z,,0,2,,3933.0269998092554,response,ISIC_0026329.JPG,8,ISIC_7789452.JPG,ISIC_7789452.JPG,false,0,keypress(z),500,280984.5,280984.19999980927,277034.33,277044.5,277051.173,281001.194,8,400,20,,ISIC_0026329.JPG
break,html.Screen,4_69_1,2023-10-30T21:30:39.530Z,,0,,,NaN,,,,,,false,,,,280985.69999980927,280985.5,,280984.7999999523,,281001.194,8,400,,,
break_continue,html.Screen,4_69_2,2023-10-30T21:30:39.531Z,,0,,,NaN,,,,,,false,,,,280985.89999985695,280985.89999985695,,280985.7999999523,,281001.194,8,400,,,
sequence,flow.Sequence,4_69,2023-10-30T21:30:39.531Z,,0,,,3934.726999856939,completion,,,,,false,,,,280986.09999990463,280985.89999985695,277034.33,277044.5,277051.173,281001.194,8,400,,,
trial,html.Screen,4_70_0,2023-10-30T21:30:42.995Z,,0,2,,3449.1059999522986,response,ISIC_8692950.JPG,5,ISIC_3319229.JPG,ISIC_8692950.JPG,false,1,keypress(m),500,284450.69999980927,284450.2999999523,280984.263,280986.89999985695,281001.194,284467.593,8,400,21,,ISIC_3319229.JPG
break,html.Screen,4_70_1,2023-10-30T21:30:42.997Z,,0,,,NaN,,,,,,false,,,,284451.89999985695,284451.59999990463,,284450.89999985695,,284467.593,8,400,,,
break_continue,html.Screen,4_70_2,2023-10-30T21:30:42.997Z,,0,,,NaN,,,,,,false,,,,284452.09999990463,284452.09999990463,,284452,,284467.593,8,400,,,
sequence,flow.Sequence,4_70,2023-10-30T21:30:42.997Z,,0,,,3450.905999904615,completion,,,,,false,,,,284452.19999980927,284452.09999990463,280984.263,280986.19999980927,281001.194,284467.593,8,400,,,
trial,html.Screen,4_71_0,2023-10-30T21:30:46.430Z,,0,2,,3417.206999952323,response,ISIC_0054925.JPG,7,ISIC_7185036.JPG,ISIC_7185036.JPG,false,0,keypress(z),500,287885.09999990463,287884.7999999523,284450.921,284452.2999999523,284467.593,287901.179,8,400,22,,ISIC_0054925.JPG
break,html.Screen,4_71_1,2023-10-30T21:30:46.430Z,,0,,,NaN,,,,,,false,,,,287885.89999985695,287885.69999980927,,287885.2999999523,,287901.179,8,400,,,
break_continue,html.Screen,4_71_2,2023-10-30T21:30:46.431Z,,0,,,NaN,,,,,,false,,,,287886.09999990463,287886.09999990463,,287886,,287901.179,8,400,,,
sequence,flow.Sequence,4_71,2023-10-30T21:30:46.431Z,,0,,,3418.506999904639,completion,,,,,false,,,,287886.19999980927,287886.09999990463,284450.921,284452.2999999523,284467.593,287901.179,8,400,,,
trial,html.Screen,4_72_0,2023-10-30T21:30:50.422Z,,0,2,,3975.720999856945,response,ISIC_6496765.JPG,5,ISIC_3234908.JPG,ISIC_3234908.JPG,false,0,keypress(z),500,291877.2999999523,291876.89999985695,287884.421,287886.19999980927,287901.179,291884.3,8,400,23,,ISIC_6496765.JPG
break,html.Screen,4_72_1,2023-10-30T21:30:50.423Z,,0,,,NaN,,,,,,false,,,,291878.39999985695,291878.19999980927,,291877.59999990463,,291884.3,8,400,,,
break_continue,html.Screen,4_72_2,2023-10-30T21:30:50.423Z,,0,,,NaN,,,,,,false,,,,291878.69999980927,291878.59999990463,,291878.5,,291884.3,8,400,,,
sequence,flow.Sequence,4_72,2023-10-30T21:30:50.423Z,,0,,,3977.420999904629,completion,,,,,false,,,,291878.7999999523,291878.59999990463,287884.421,287886.19999980927,287901.179,291884.3,8,400,,,
trial,html.Screen,4_73_0,2023-10-30T21:30:54.522Z,,0,2,,4092.299999904644,response,ISIC_0068126.JPG,5,ISIC_1979534.JPG,ISIC_0068126.JPG,false,1,keypress(m),500,295976.89999985695,295976.59999990463,291867.653,291878.7999999523,291884.3,295984.465,8,400,24,,ISIC_1979534.JPG
break,html.Screen,4_73_1,2023-10-30T21:30:54.523Z,,0,,,NaN,,,,,,false,,,,295978,295977.7999999523,,295977.09999990463,,295984.465,8,400,,,
break_continue,html.Screen,4_73_2,2023-10-30T21:30:54.523Z,,0,,,NaN,,,,,,false,,,,295978.2999999523,295978.19999980927,,295978.19999980927,,295984.465,8,400,,,
sequence,flow.Sequence,4_73,2023-10-30T21:30:54.523Z,,0,,,4093.899999809277,completion,,,,,false,,,,295978.39999985695,295978.19999980927,291867.653,291878.7999999523,291884.3,295984.465,8,400,,,
trial,html.Screen,4_74_0,2023-10-30T21:30:58.114Z,,0,2,,3584.4349998569232,response,ISIC_0046344.JPG,6,ISIC_1757941.JPG,ISIC_0046344.JPG,false,1,keypress(m),500,299569.19999980927,299568.89999985695,295968.008,295978.39999985695,295984.465,299584.325,8,400,25,,ISIC_1757941.JPG
break,html.Screen,4_74_1,2023-10-30T21:30:58.115Z,,0,,,NaN,,,,,,false,,,,299570,299569.7999999523,,299569.2999999523,,299584.325,8,400,,,
break_continue,html.Screen,4_74_2,2023-10-30T21:30:58.115Z,,0,,,NaN,,,,,,false,,,,299570.19999980927,299570.19999980927,,299570,,299584.325,8,400,,,
sequence,flow.Sequence,4_74,2023-10-30T21:30:58.115Z,,0,,,3585.7349998092395,completion,,,,,false,,,,299570.2999999523,299570.19999980927,295968.008,295978.39999985695,295984.465,299584.325,8,400,,,
trial,html.Screen,4_75_0,2023-10-30T21:31:01.324Z,,0,2,,3195.274999904621,response,ISIC_0032147.JPG,6,ISIC_0010208.JPG,ISIC_0032147.JPG,false,1,keypress(m),500,302780,302779.59999990463,299567.981,299570.2999999523,299584.325,302784.32,8,400,26,,ISIC_0010208.JPG
break,html.Screen,4_75_1,2023-10-30T21:31:01.325Z,,0,,,NaN,,,,,,false,,,,302780.89999985695,302780.7999999523,,302780.19999980927,,302784.32,8,400,,,
break_continue,html.Screen,4_75_2,2023-10-30T21:31:01.326Z,,0,,,NaN,,,,,,false,,,,302781.19999980927,302781.19999980927,,302781,,302784.32,8,400,,,
sequence,flow.Sequence,4_75,2023-10-30T21:31:01.326Z,,0,,,3196.8749998092535,completion,,,,,false,,,,302781.2999999523,302781.19999980927,299567.981,299570.2999999523,299584.325,302784.32,8,400,,,
trial,html.Screen,4_76_0,2023-10-30T21:31:04.463Z,,0,2,,3133.7799999046256,response,ISIC_9667297.JPG,12,ISIC_8575769.JPG,ISIC_8575769.JPG,false,0,keypress(z),500,305918.39999985695,305918.09999990463,302767.951,302781.39999985695,302784.32,305934.835,8,400,27,,ISIC_9667297.JPG
break,html.Screen,4_76_1,2023-10-30T21:31:04.464Z,,0,,,NaN,,,,,,false,,,,305919.09999990463,305919,,305918.59999990463,,305934.835,8,400,,,
break_continue,html.Screen,4_76_2,2023-10-30T21:31:04.464Z,,0,,,NaN,,,,,,false,,,,305919.19999980927,305919.19999980927,,305919.19999980927,,305934.835,8,400,,,
sequence,flow.Sequence,4_76,2023-10-30T21:31:04.464Z,,0,,,3134.879999809258,completion,,,,,false,,,,305919.39999985695,305919.19999980927,302767.951,302781.39999985695,302784.32,305934.835,8,400,,,
trial,html.Screen,4_77_0,2023-10-30T21:31:08.168Z,,0,2,,3688.4649999522953,response,ISIC_0027126.JPG,6,ISIC_4099428.JPG,ISIC_4099428.JPG,false,0,keypress(z),500,309623.69999980927,309623.2999999523,305917.827,305919.5,305934.835,309634.267,8,400,28,,ISIC_0027126.JPG
break,html.Screen,4_77_1,2023-10-30T21:31:08.169Z,,0,,,NaN,,,,,,false,,,,309624.59999990463,309624.39999985695,,309623.7999999523,,309634.267,8,400,,,
break_continue,html.Screen,4_77_2,2023-10-30T21:31:08.169Z,,0,,,NaN,,,,,,false,,,,309624.7999999523,309624.69999980927,,309624.69999980927,,309634.267,8,400,,,
sequence,flow.Sequence,4_77,2023-10-30T21:31:08.169Z,,0,,,3689.864999809244,completion,,,,,false,,,,309624.7999999523,309624.69999980927,305917.827,305919.39999985695,305934.835,309634.267,8,400,,,
trial,html.Screen,4_78_0,2023-10-30T21:31:12.688Z,,0,2,,4509.132999856956,response,ISIC_0071352.JPG,11,ISIC_0147869.JPG,ISIC_0071352.JPG,false,1,keypress(m),500,314143.69999980927,314143.39999985695,309618.067,309625,309634.267,314151.081,8,400,29,,ISIC_0147869.JPG
break,html.Screen,4_78_1,2023-10-30T21:31:12.689Z,,0,,,NaN,,,,,,false,,,,314144.7999999523,314144.5,,314143.7999999523,,314151.081,8,400,,,
break_continue,html.Screen,4_78_2,2023-10-30T21:31:12.690Z,,0,,,NaN,,,,,,false,,,,314145.19999980927,314145.09999990463,,314144.89999985695,,314151.081,8,400,,,
sequence,flow.Sequence,4_78,2023-10-30T21:31:12.690Z,,0,,,4510.83299990464,completion,,,,,false,,,,314145.2999999523,314145.09999990463,309618.067,309624.89999985695,309634.267,314151.081,8,400,,,
trial,html.Screen,4_79_0,2023-10-30T21:31:16.996Z,,0,2,,4299.818999856943,response,ISIC_0014860.JPG,6,ISIC_0028597.JPG,ISIC_0028597.JPG,false,0,keypress(z),500,318451.19999980927,318450.89999985695,314134.351,314145.39999985695,314151.081,318467.615,8,400,30,,ISIC_0014860.JPG
break,html.Screen,4_79_1,2023-10-30T21:31:16.997Z,,0,,,NaN,,,,,,false,,,,318452.2999999523,318452.09999990463,,318451.39999985695,,318467.615,8,400,,,
break_continue,html.Screen,4_79_2,2023-10-30T21:31:16.997Z,,0,,,NaN,,,,,,false,,,,318452.69999980927,318452.69999980927,,318452.5,,318467.615,8,400,,,
sequence,flow.Sequence,4_79,2023-10-30T21:31:16.997Z,,0,,,4301.61899980926,completion,,,,,false,,,,318452.89999985695,318452.69999980927,314134.351,314145.2999999523,314151.081,318467.615,8,400,,,
trial,html.Screen,4_80_0,2023-10-30T21:31:21.437Z,,0,2,,4425.084999809274,response,ISIC_3696726.JPG,5,ISIC_0000393.JPG,ISIC_3696726.JPG,false,1,keypress(m),500,322893,322892.69999980927,318451.376,318452.89999985695,318467.615,322901.017,8,400,31,,ISIC_0000393.JPG
break,html.Screen,4_80_1,2023-10-30T21:31:21.439Z,,0,,,NaN,,,,,,false,,,,322894.09999990463,322893.89999985695,,322893.19999980927,,322901.017,8,400,,,
break_continue,html.Screen,4_80_2,2023-10-30T21:31:21.439Z,,0,,,NaN,,,,,,false,,,,322894.2999999523,322894.2999999523,,322894.19999980927,,322901.017,8,400,,,
sequence,flow.Sequence,4_80,2023-10-30T21:31:21.439Z,,0,,,4426.684999952326,completion,,,,,false,,,,322894.39999985695,322894.2999999523,318451.376,318452.89999985695,318467.615,322901.017,8,400,,,
trial,html.Screen,4_81_0,2023-10-30T21:31:25.944Z,,0,2,,4497.682999809273,response,ISIC_0011256.JPG,7,ISIC_3568801.JPG,ISIC_3568801.JPG,false,0,keypress(z),500,327399.09999990463,327398.69999980927,322884.296,322894.5,322901.017,327423.242,8,400,32,,ISIC_0011256.JPG
break,html.Screen,4_81_1,2023-10-30T21:31:25.945Z,,0,,,NaN,,,,,,false,,,,327400.39999985695,327400.09999990463,,327399.2999999523,,327423.242,8,400,,,
break_continue,html.Screen,4_81_2,2023-10-30T21:31:25.945Z,,0,,,NaN,,,,,,false,,,,327400.69999980927,327400.59999990463,,327400.5,,327423.242,8,400,,,
sequence,flow.Sequence,4_81,2023-10-30T21:31:25.945Z,,0,,,4499.58299990464,completion,,,,,false,,,,327400.7999999523,327400.59999990463,322884.296,322894.5,322901.017,327423.242,8,400,,,
trial,html.Screen,4_82_0,2023-10-30T21:31:29.420Z,,0,2,,3451.9579998092377,response,ISIC_0028219.JPG,6,ISIC_0012055.JPG,ISIC_0028219.JPG,false,1,keypress(m),500,330875.5,330875.19999980927,327384.242,327400.7999999523,327423.242,330884.278,8,400,33,,ISIC_0012055.JPG
break,html.Screen,4_82_1,2023-10-30T21:31:29.421Z,,0,,,NaN,,,,,,false,,,,330876.5,330876.2999999523,,330875.69999980927,,330884.278,8,400,,,
break_continue,html.Screen,4_82_2,2023-10-30T21:31:29.421Z,,0,,,NaN,,,,,,false,,,,330876.7999999523,330876.7999999523,,330876.59999990463,,330884.278,8,400,,,
sequence,flow.Sequence,4_82,2023-10-30T21:31:29.421Z,,0,,,3453.557999952289,completion,,,,,false,,,,330877,330876.7999999523,327384.242,327400.7999999523,327423.242,330884.278,8,400,,,
trial,html.Screen,4_83_0,2023-10-30T21:31:32.818Z,,0,2,,3389.3219999046414,response,ISIC_0030610.JPG,5,ISIC_6535558.JPG,ISIC_0030610.JPG,false,1,keypress(m),500,334274,334273.59999990463,330867.698,330877.09999990463,330884.278,334284.277,8,400,34,,ISIC_6535558.JPG
break,html.Screen,4_83_1,2023-10-30T21:31:32.819Z,,0,,,NaN,,,,,,false,,,,334274.89999985695,334274.7999999523,,334274.19999980927,,334284.277,8,400,,,
break_continue,html.Screen,4_83_2,2023-10-30T21:31:32.820Z,,0,,,NaN,,,,,,false,,,,334275.19999980927,334275.09999990463,,334275,,334284.277,8,400,,,
sequence,flow.Sequence,4_83,2023-10-30T21:31:32.820Z,,0,,,3390.8219999046414,completion,,,,,false,,,,334275.2999999523,334275.09999990463,330867.698,330877,330884.278,334284.277,8,400,,,
trial,html.Screen,4_84_0,2023-10-30T21:31:35.384Z,,0,2,,2555.122999856947,response,ISIC_0000087.JPG,11,ISIC_9822801.JPG,ISIC_9822801.JPG,false,0,keypress(z),500,336839.7999999523,336839.39999985695,334267.985,334275.2999999523,334284.277,336850.92,8,400,35,,ISIC_0000087.JPG
break,html.Screen,4_84_1,2023-10-30T21:31:35.385Z,,0,,,NaN,,,,,,false,,,,336840.89999985695,336840.5,,336840,,336850.92,8,400,,,
break_continue,html.Screen,4_84_2,2023-10-30T21:31:35.386Z,,0,,,NaN,,,,,,false,,,,336841.2999999523,336841.09999990463,,336841,,336850.92,8,400,,,
sequence,flow.Sequence,4_84,2023-10-30T21:31:35.386Z,,0,,,2556.8229999046307,completion,,,,,false,,,,336841.5,336841.09999990463,334267.985,334275.2999999523,334284.277,336850.92,8,400,,,
trial,html.Screen,4_85_0,2023-10-30T21:31:38.338Z,,0,2,,2942.2799998092814,response,ISIC_0057963.JPG,9,ISIC_0001108.JPG,ISIC_0057963.JPG,false,1,keypress(m),500,339793.5,339793.19999980927,336834.694,336841.5,336850.92,339800.96,8,400,36,,ISIC_0001108.JPG
break,html.Screen,4_85_1,2023-10-30T21:31:38.339Z,,0,,,NaN,,,,,,false,,,,339794.69999980927,339794.39999985695,,339793.7999999523,,339800.96,8,400,,,
break_continue,html.Screen,4_85_2,2023-10-30T21:31:38.339Z,,0,,,NaN,,,,,,false,,,,339794.7999999523,339794.7999999523,,339794.69999980927,,339800.96,8,400,,,
sequence,flow.Sequence,4_85,2023-10-30T21:31:38.339Z,,0,,,2943.8799999523326,completion,,,,,false,,,,339795,339794.7999999523,336834.694,336841.5,336850.92,339800.96,8,400,,,
trial,html.Screen,4_86_0,2023-10-30T21:31:41.213Z,,0,2,,2867.239999809244,response,ISIC_9974299.JPG,5,ISIC_5714285.JPG,ISIC_9974299.JPG,false,1,keypress(m),500,342668.5,342668.19999980927,339784.515,339795,339800.96,342684.444,8,400,37,,ISIC_5714285.JPG
break,html.Screen,4_86_1,2023-10-30T21:31:41.214Z,,0,,,NaN,,,,,,false,,,,342669.59999990463,342669.2999999523,,342668.69999980927,,342684.444,8,400,,,
break_continue,html.Screen,4_86_2,2023-10-30T21:31:41.214Z,,0,,,NaN,,,,,,false,,,,342669.69999980927,342669.69999980927,,342669.59999990463,,342684.444,8,400,,,
sequence,flow.Sequence,4_86,2023-10-30T21:31:41.214Z,,0,,,2868.739999809244,completion,,,,,false,,,,342669.89999985695,342669.69999980927,339784.515,339795,339800.96,342684.444,8,400,,,
trial,html.Screen,4_87_0,2023-10-30T21:31:44.054Z,,0,2,,2825.2559998092474,response,ISIC_9545819.JPG,6,ISIC_4303228.JPG,ISIC_4303228.JPG,false,0,keypress(z),500,345510,345509.69999980927,342667.945,342670,342684.444,345517.559,8,400,38,,ISIC_9545819.JPG
break,html.Screen,4_87_1,2023-10-30T21:31:44.056Z,,0,,,NaN,,,,,,false,,,,345511.09999990463,345511,,345510.19999980927,,345517.559,8,400,,,
break_continue,html.Screen,4_87_2,2023-10-30T21:31:44.056Z,,0,,,NaN,,,,,,false,,,,345511.39999985695,345511.2999999523,,345511.19999980927,,345517.559,8,400,,,
sequence,flow.Sequence,4_87,2023-10-30T21:31:44.056Z,,0,,,2826.8559999522986,completion,,,,,false,,,,345511.5,345511.2999999523,342667.945,342670,342684.444,345517.559,8,400,,,
trial,html.Screen,4_88_0,2023-10-30T21:31:46.988Z,,0,2,,2925.6409998092568,response,ISIC_3654454.JPG,9,ISIC_9699615.JPG,ISIC_3654454.JPG,false,1,keypress(m),500,348443.39999985695,348443.19999980927,345500.846,345511.59999990463,345517.559,348450.994,8,400,39,,ISIC_9699615.JPG
break,html.Screen,4_88_1,2023-10-30T21:31:46.989Z,,0,,,NaN,,,,,,false,,,,348444.39999985695,348444.19999980927,,348443.59999990463,,348450.994,8,400,,,
break_continue,html.Screen,4_88_2,2023-10-30T21:31:46.989Z,,0,,,NaN,,,,,,false,,,,348444.7999999523,348444.69999980927,,348444.59999990463,,348450.994,8,400,,,
sequence,flow.Sequence,4_88,2023-10-30T21:31:46.989Z,,0,,,2927.1409998092568,completion,,,,,false,,,,348444.7999999523,348444.69999980927,345500.846,345511.59999990463,345517.559,348450.994,8,400,,,
trial,html.Screen,4_89_0,2023-10-30T21:31:50.737Z,,0,2,,3741.205999809259,response,ISIC_0011209.JPG,7,ISIC_0000446.JPG,ISIC_0000446.JPG,false,0,keypress(z),500,352192.39999985695,352192.19999980927,348434.353,348444.89999985695,348450.994,352200.928,8,400,40,,ISIC_0011209.JPG
break,html.Screen,4_89_1,2023-10-30T21:31:50.738Z,,0,,,NaN,,,,,,false,,,,352193.19999980927,352193,,352192.59999990463,,352200.928,8,400,,,
break_continue,html.Screen,4_89_2,2023-10-30T21:31:50.738Z,,0,,,NaN,,,,,,false,,,,352193.39999985695,352193.39999985695,,352193.2999999523,,352200.928,8,400,,,
sequence,flow.Sequence,4_89,2023-10-30T21:31:50.738Z,,0,,,3742.405999856943,completion,,,,,false,,,,352193.5,352193.39999985695,348434.353,348444.89999985695,348450.994,352200.928,8,400,,,
trial,html.Screen,4_90_0,2023-10-30T21:31:53.771Z,,0,2,,3025.2719998092507,response,ISIC_7765349.JPG,11,ISIC_0029480.JPG,ISIC_7765349.JPG,false,1,keypress(m),500,355226.39999985695,355226.19999980927,352184.873,352193.5,352200.928,355234.346,8,400,41,,ISIC_0029480.JPG
break,html.Screen,4_90_1,2023-10-30T21:31:53.772Z,,0,,,NaN,,,,,,false,,,,355227.2999999523,355227,,355226.59999990463,,355234.346,8,400,,,
break_continue,html.Screen,4_90_2,2023-10-30T21:31:53.772Z,,0,,,NaN,,,,,,false,,,,355227.59999990463,355227.5,,355227.39999985695,,355234.346,8,400,,,
sequence,flow.Sequence,4_90,2023-10-30T21:31:53.772Z,,0,,,3026.5719999999856,completion,,,,,false,,,,355227.59999990463,355227.5,352184.873,352193.5,352200.928,355234.346,8,400,,,
trial,html.Screen,4_91_0,2023-10-30T21:31:56.991Z,,0,2,,3212.253999904613,response,ISIC_0027087.JPG,8,ISIC_0069633.JPG,ISIC_0069633.JPG,false,0,keypress(z),500,358446.7999999523,358446.59999990463,355217.596,355227.59999990463,355234.346,358467.577,8,400,42,,ISIC_0027087.JPG
break,html.Screen,4_91_1,2023-10-30T21:31:56.992Z,,0,,,NaN,,,,,,false,,,,358447.7999999523,358447.59999990463,,358447.09999990463,,358467.577,8,400,,,
break_continue,html.Screen,4_91_2,2023-10-30T21:31:56.993Z,,0,,,NaN,,,,,,false,,,,358448.09999990463,358448,,358447.89999985695,,358467.577,8,400,,,
sequence,flow.Sequence,4_91,2023-10-30T21:31:56.993Z,,0,,,3213.6539999999804,completion,,,,,false,,,,358448.19999980927,358448,355217.596,355227.59999990463,355234.346,358467.577,8,400,,,
trial,html.Screen,4_92_0,2023-10-30T21:31:59.606Z,,0,2,,2593.8229998569586,response,ISIC_0032771.JPG,10,ISIC_5920470.JPG,ISIC_0032771.JPG,false,1,keypress(m),500,361061.7999999523,361061.39999985695,358451.436,358448.2999999523,358467.577,361067.599,8,400,43,,ISIC_5920470.JPG
break,html.Screen,4_92_1,2023-10-30T21:31:59.607Z,,0,,,NaN,,,,,,false,,,,361062.89999985695,361062.69999980927,,361062.09999990463,,361067.599,8,400,,,
break_continue,html.Screen,4_92_2,2023-10-30T21:31:59.608Z,,0,,,NaN,,,,,,false,,,,361063.19999980927,361063.09999990463,,361063,,361067.599,8,400,,,
sequence,flow.Sequence,4_92,2023-10-30T21:31:59.608Z,,0,,,2595.5229999046423,completion,,,,,false,,,,361063.2999999523,361063.09999990463,358451.436,358448.2999999523,358467.577,361067.599,8,400,,,
trial,html.Screen,4_93_0,2023-10-30T21:32:02.332Z,,0,2,,2720.1009998092777,response,ISIC_9061511.JPG,13,ISIC_0032590.JPG,ISIC_9061511.JPG,false,1,keypress(m),500,363787.89999985695,363787.69999980927,361050.912,361063.2999999523,361067.599,363801.327,8,400,44,,ISIC_0032590.JPG
break,html.Screen,4_93_1,2023-10-30T21:32:02.333Z,,0,,,NaN,,,,,,false,,,,363788.7999999523,363788.59999990463,,363788.09999990463,,363801.327,8,400,,,
break_continue,html.Screen,4_93_2,2023-10-30T21:32:02.333Z,,0,,,NaN,,,,,,false,,,,363789,363789,,363788.89999985695,,363801.327,8,400,,,
sequence,flow.Sequence,4_93,2023-10-30T21:32:02.334Z,,0,,,2721.4010000000126,completion,,,,,false,,,,363789.19999980927,363789,361050.912,361063.2999999523,361067.599,363801.327,8,400,,,
trial,html.Screen,4_94_0,2023-10-30T21:32:05.062Z,,0,2,,2716.17300000001,response,ISIC_1074939.JPG,12,ISIC_0058585.JPG,ISIC_0058585.JPG,false,0,keypress(z),500,366517.7999999523,366517.5,363784.621,363789.19999980927,363801.327,366534.65,8,400,45,,ISIC_1074939.JPG
break,html.Screen,4_94_1,2023-10-30T21:32:05.063Z,,0,,,NaN,,,,,,false,,,,366519,366518.59999990463,,366518,,366534.65,8,400,,,
break_continue,html.Screen,4_94_2,2023-10-30T21:32:05.064Z,,0,,,NaN,,,,,,false,,,,366519.39999985695,366519.2999999523,,366519.09999990463,,366534.65,8,400,,,
sequence,flow.Sequence,4_94,2023-10-30T21:32:05.064Z,,0,,,2717.972999952326,completion,,,,,false,,,,366519.39999985695,366519.2999999523,363784.621,363789.19999980927,363801.327,366534.65,8,400,,,
trial,html.Screen,4_95_0,2023-10-30T21:32:07.454Z,,0,2,,2374.7499998569256,response,ISIC_7024807.JPG,9,ISIC_0026560.JPG,ISIC_7024807.JPG,false,1,keypress(m),500,368909.89999985695,368909.39999985695,366518.097,366519.5,366534.65,368917.735,8,400,46,,ISIC_0026560.JPG
break,html.Screen,4_95_1,2023-10-30T21:32:07.455Z,,0,,,NaN,,,,,,false,,,,368910.89999985695,368910.69999980927,,368910.09999990463,,368917.735,8,400,,,
break_continue,html.Screen,4_95_2,2023-10-30T21:32:07.456Z,,0,,,NaN,,,,,,false,,,,368911.2999999523,368911.19999980927,,368911.09999990463,,368917.735,8,400,,,
sequence,flow.Sequence,4_95,2023-10-30T21:32:07.456Z,,0,,,2376.549999809242,completion,,,,,false,,,,368911.39999985695,368911.19999980927,366518.097,366519.5,366534.65,368917.735,8,400,,,
trial,html.Screen,4_96_0,2023-10-30T21:32:10.216Z,,0,2,,2753.664999856963,response,ISIC_0945844.JPG,6,ISIC_0056771.JPG,ISIC_0056771.JPG,false,0,keypress(z),500,371671.69999980927,371671.39999985695,368900.938,368911.5,368917.735,371684.559,8,400,47,,ISIC_0945844.JPG
break,html.Screen,4_96_1,2023-10-30T21:32:10.217Z,,0,,,NaN,,,,,,false,,,,371672.5,371672.2999999523,,371671.89999985695,,371684.559,8,400,,,
break_continue,html.Screen,4_96_2,2023-10-30T21:32:10.217Z,,0,,,NaN,,,,,,false,,,,371672.69999980927,371672.69999980927,,371672.59999990463,,371684.559,8,400,,,
sequence,flow.Sequence,4_96,2023-10-30T21:32:10.217Z,,0,,,2754.964999809279,completion,,,,,false,,,,371672.7999999523,371672.69999980927,368900.938,368911.5,368917.735,371684.559,8,400,,,
trial,html.Screen,4_97_0,2023-10-30T21:32:12.737Z,,0,2,,2507.9409999999916,response,ISIC_0027928.JPG,11,ISIC_2563568.JPG,ISIC_2563568.JPG,false,0,keypress(z),500,374192.89999985695,374192.5,371668.007,371672.89999985695,371684.559,374200.898,8,400,48,,ISIC_0027928.JPG
break,html.Screen,4_97_1,2023-10-30T21:32:12.738Z,,0,,,NaN,,,,,,false,,,,374193.7999999523,374193.69999980927,,374193.09999990463,,374200.898,8,400,,,
break_continue,html.Screen,4_97_2,2023-10-30T21:32:12.739Z,,0,,,NaN,,,,,,false,,,,374194.09999990463,374194,,374193.89999985695,,374200.898,8,400,,,
sequence,flow.Sequence,4_97,2023-10-30T21:32:12.739Z,,0,,,2509.4409999999916,completion,,,,,false,,,,374194.19999980927,374194,371668.007,371672.89999985695,371684.559,374200.898,8,400,,,
trial,html.Screen,4_98_0,2023-10-30T21:32:15.572Z,,0,2,,2826.5019998569624,response,ISIC_0010866.JPG,8,ISIC_0071576.JPG,ISIC_0010866.JPG,false,1,keypress(m),500,377027.7999999523,377027.39999985695,374184.999,374194.19999980927,374200.898,377034.297,8,400,49,,ISIC_0071576.JPG
break,html.Screen,4_98_1,2023-10-30T21:32:15.573Z,,0,,,NaN,,,,,,false,,,,377029,377028.69999980927,,377028.09999990463,,377034.297,8,400,,,
break_continue,html.Screen,4_98_2,2023-10-30T21:32:15.574Z,,0,,,NaN,,,,,,false,,,,377029.2999999523,377029.19999980927,,377029.19999980927,,377034.297,8,400,,,
sequence,flow.Sequence,4_98,2023-10-30T21:32:15.574Z,,0,,,2828.3019998092786,completion,,,,,false,,,,377029.39999985695,377029.19999980927,374184.999,374194.19999980927,374200.898,377034.297,8,400,,,
trial,html.Screen,4_99_0,2023-10-30T21:32:19.288Z,,0,2,,3709.4029998092446,response,ISIC_0011694.JPG,12,ISIC_3440004.JPG,ISIC_3440004.JPG,false,0,keypress(z),500,380744,380743.69999980927,377017.961,377029.5,377034.297,380750.86,8,400,50,,ISIC_0011694.JPG
break,html.Screen,4_99_1,2023-10-30T21:32:29.280Z,,0,,,10000.087999999989,timeout,,,,,false,,,,390735.69999980927,390734.761,380734.207,380744.19999980927,380750.86,390750.948,8,400,,,
break_continue,html.Screen,4_99_2,2023-10-30T21:32:30.490Z,,0,,,1178.451999856974,response,,,,,false,continue,keypress(Space),,391945.19999980927,391929.39999985695,390734.761,390735.7999999523,390750.948,391951.66,8,400,,,
sequence,flow.Sequence,4_99,2023-10-30T21:32:30.490Z,,0,,,14895.102999856928,completion,,,,,false,,,,391945.39999985695,391929.39999985695,377017.961,377029.39999985695,377034.297,391951.66,8,400,,,
trial,html.Screen,4_100_0,2023-10-30T21:32:33.516Z,,0,3,,3019.939999904658,response,ISIC_0000517.JPG,10,ISIC_0031621.JPG,ISIC_0031621.JPG,false,0,keypress(z),500,394971.7999999523,394971.59999990463,391934.461,391945.5,391951.66,394984.253,8,400,1,,ISIC_0000517.JPG
break,html.Screen,4_100_1,2023-10-30T21:32:33.517Z,,0,,,NaN,,,,,,false,,,,394972.7999999523,394972.59999990463,,394971.89999985695,,394984.253,8,400,,,
break_continue,html.Screen,4_100_2,2023-10-30T21:32:33.517Z,,0,,,NaN,,,,,,false,,,,394973,394973,,394972.89999985695,,394984.253,8,400,,,
sequence,flow.Sequence,4_100,2023-10-30T21:32:33.518Z,,0,,,3021.3400000000256,completion,,,,,false,,,,394973.09999990463,394973,391934.461,391945.5,391951.66,394984.253,8,400,,,
trial,html.Screen,4_101_0,2023-10-30T21:32:36.471Z,,0,3,,2942.446999809239,response,ISIC_3751090.JPG,10,ISIC_5599298.JPG,ISIC_3751090.JPG,false,1,keypress(m),500,397927,397926.69999980927,394967.626,394973.19999980927,394984.253,397934.252,8,400,2,,ISIC_5599298.JPG
break,html.Screen,4_101_1,2023-10-30T21:32:36.473Z,,0,,,NaN,,,,,,false,,,,397928.2999999523,397928,,397927.19999980927,,397934.252,8,400,,,
break_continue,html.Screen,4_101_2,2023-10-30T21:32:36.473Z,,0,,,NaN,,,,,,false,,,,397928.59999990463,397928.5,,397928.39999985695,,397934.252,8,400,,,
sequence,flow.Sequence,4_101,2023-10-30T21:32:36.473Z,,0,,,2944.246999999974,completion,,,,,false,,,,397928.7999999523,397928.5,394967.626,394973.19999980927,394984.253,397934.252,8,400,,,
trial,html.Screen,4_102_0,2023-10-30T21:32:39.213Z,,0,3,,2734.0479999523377,response,ISIC_0054988.JPG,11,ISIC_7582818.JPG,ISIC_7582818.JPG,false,0,keypress(z),500,400668.59999990463,400668.2999999523,397917.627,397928.89999985695,397934.252,400684.943,8,400,3,,ISIC_0054988.JPG
break,html.Screen,4_102_1,2023-10-30T21:32:39.214Z,,0,,,NaN,,,,,,false,,,,400669.69999980927,400669.2999999523,,400668.7999999523,,400684.943,8,400,,,
break_continue,html.Screen,4_102_2,2023-10-30T21:32:39.214Z,,0,,,NaN,,,,,,false,,,,400670,400669.89999985695,,400669.7999999523,,400684.943,8,400,,,
sequence,flow.Sequence,4_102,2023-10-30T21:32:39.215Z,,0,,,2735.6479998569703,completion,,,,,false,,,,400670.09999990463,400669.89999985695,397917.627,397928.7999999523,397934.252,400684.943,8,400,,,
trial,html.Screen,4_103_0,2023-10-30T21:32:41.986Z,,0,3,,2755.7569998092367,response,ISIC_0528044.JPG,9,ISIC_8993666.JPG,ISIC_8993666.JPG,false,0,keypress(z),500,403441.09999990463,403440.69999980927,400667.653,400670.19999980927,400684.943,403450.908,8,400,4,,ISIC_0528044.JPG
break,html.Screen,4_103_1,2023-10-30T21:32:41.987Z,,0,,,NaN,,,,,,false,,,,403442.19999980927,403441.7999999523,,403441.2999999523,,403450.908,8,400,,,
break_continue,html.Screen,4_103_2,2023-10-30T21:32:41.987Z,,0,,,NaN,,,,,,false,,,,403442.59999990463,403442.5,,403442.2999999523,,403450.908,8,400,,,
sequence,flow.Sequence,4_103,2023-10-30T21:32:41.987Z,,0,,,2757.5569999999716,completion,,,,,false,,,,403442.69999980927,403442.5,400667.653,400670.19999980927,400684.943,403450.908,8,400,,,
trial,html.Screen,4_104_0,2023-10-30T21:32:45.255Z,,0,3,,3258.8919999523205,response,ISIC_5822017.JPG,6,ISIC_6381197.JPG,ISIC_5822017.JPG,false,1,keypress(m),500,406710.19999980927,406709.7999999523,403434.583,403442.7999999523,403450.908,406717.736,8,400,5,,ISIC_6381197.JPG
break,html.Screen,4_104_1,2023-10-30T21:32:45.256Z,,0,,,NaN,,,,,,false,,,,406711.2999999523,406710.89999985695,,406710.2999999523,,406717.736,8,400,,,
break_continue,html.Screen,4_104_2,2023-10-30T21:32:45.256Z,,0,,,NaN,,,,,,false,,,,406711.5,406711.5,,406711.2999999523,,406717.736,8,400,,,
sequence,flow.Sequence,4_104,2023-10-30T21:32:45.256Z,,0,,,3260.592000000004,completion,,,,,false,,,,406711.59999990463,406711.5,403434.583,403442.7999999523,403450.908,406717.736,8,400,,,
trial,html.Screen,4_105_0,2023-10-30T21:32:47.937Z,,0,3,,2674.46399980929,response,ISIC_0033168.JPG,7,ISIC_0033454.JPG,ISIC_0033168.JPG,false,1,keypress(m),500,409392.5,409392.19999980927,406701.276,406711.69999980927,406717.736,409400.904,8,400,6,,ISIC_0033454.JPG
break,html.Screen,4_105_1,2023-10-30T21:32:47.938Z,,0,,,NaN,,,,,,false,,,,409393.5,409393.19999980927,,409392.69999980927,,409400.904,8,400,,,
break_continue,html.Screen,4_105_2,2023-10-30T21:32:47.938Z,,0,,,NaN,,,,,,false,,,,409393.69999980927,409393.69999980927,,409393.5,,409400.904,8,400,,,
sequence,flow.Sequence,4_105,2023-10-30T21:32:47.938Z,,0,,,2675.96399980929,completion,,,,,false,,,,409393.7999999523,409393.69999980927,406701.276,406711.69999980927,406717.736,409400.904,8,400,,,
trial,html.Screen,4_106_0,2023-10-30T21:32:50.731Z,,0,3,,2783.7959998092847,response,ISIC_0024567.JPG,6,ISIC_0010757.JPG,ISIC_0024567.JPG,false,1,keypress(m),500,412186.5,412184.69999980927,409384.333,409393.89999985695,409400.904,412201.249,8,400,7,,ISIC_0010757.JPG
break,html.Screen,4_106_1,2023-10-30T21:32:50.732Z,,0,,,NaN,,,,,,false,,,,412187.19999980927,412187,,412186.59999990463,,412201.249,8,400,,,
break_continue,html.Screen,4_106_2,2023-10-30T21:32:50.732Z,,0,,,NaN,,,,,,false,,,,412187.2999999523,412187.2999999523,,412187.2999999523,,412201.249,8,400,,,
sequence,flow.Sequence,4_106,2023-10-30T21:32:50.732Z,,0,,,2786.395999952336,completion,,,,,false,,,,412187.5,412187.2999999523,409384.333,409393.89999985695,409400.904,412201.249,8,400,,,
trial,html.Screen,4_107_0,2023-10-30T21:32:55.470Z,,0,3,,4724.550999952306,response,ISIC_0001108.JPG,6,ISIC_6348638.JPG,ISIC_6348638.JPG,false,0,keypress(z),500,416926,416925.7999999523,412184.283,412187.5,412201.249,416934.23,8,400,8,,ISIC_0001108.JPG
break,html.Screen,4_107_1,2023-10-30T21:32:55.471Z,,0,,,NaN,,,,,,false,,,,416926.7999999523,416926.69999980927,,416926.09999990463,,416934.23,8,400,,,
break_continue,html.Screen,4_107_2,2023-10-30T21:32:55.472Z,,0,,,NaN,,,,,,false,,,,416927.09999990463,416927,,416926.89999985695,,416934.23,8,400,,,
sequence,flow.Sequence,4_107,2023-10-30T21:32:55.472Z,,0,,,4725.750999999989,completion,,,,,false,,,,416927.19999980927,416927,412184.283,412187.5,412201.249,416934.23,8,400,,,
trial,html.Screen,4_108_0,2023-10-30T21:32:59.813Z,,0,3,,4333.869999904651,response,ISIC_0033289.JPG,5,ISIC_0029459.JPG,ISIC_0033289.JPG,false,1,keypress(m),500,421268.5,421268.09999990463,416917.744,416927.2999999523,416934.23,421284.502,8,400,9,,ISIC_0029459.JPG
break,html.Screen,4_108_1,2023-10-30T21:32:59.814Z,,0,,,NaN,,,,,,false,,,,421269.39999985695,421269.19999980927,,421268.69999980927,,421284.502,8,400,,,
break_continue,html.Screen,4_108_2,2023-10-30T21:32:59.814Z,,0,,,NaN,,,,,,false,,,,421269.59999990463,421269.5,,421269.5,,421284.502,8,400,,,
sequence,flow.Sequence,4_108,2023-10-30T21:32:59.814Z,,0,,,4335.270000000019,completion,,,,,false,,,,421269.69999980927,421269.5,416917.744,416927.19999980927,416934.23,421284.502,8,400,,,
trial,html.Screen,4_109_0,2023-10-30T21:33:02.843Z,,0,3,,3013.597999904654,response,ISIC_1081430.JPG,5,ISIC_0032672.JPG,ISIC_0032672.JPG,false,0,keypress(z),500,424298.2999999523,424298.09999990463,421267.538,421269.7999999523,421284.502,424300.907,8,400,10,,ISIC_1081430.JPG
break,html.Screen,4_109_1,2023-10-30T21:33:02.844Z,,0,,,NaN,,,,,,false,,,,424299.2999999523,424299,,424298.5,,424300.907,8,400,,,
break_continue,html.Screen,4_109_2,2023-10-30T21:33:02.844Z,,0,,,NaN,,,,,,false,,,,424299.5,424299.5,,424299.2999999523,,424300.907,8,400,,,
sequence,flow.Sequence,4_109,2023-10-30T21:33:02.844Z,,0,,,3014.9980000000214,completion,,,,,false,,,,424299.5,424299.5,421267.538,421269.69999980927,421284.502,424300.907,8,400,,,
trial,html.Screen,4_110_0,2023-10-30T21:33:06.179Z,,0,3,,3333.0929999999935,response,ISIC_0055826.JPG,9,ISIC_3746471.JPG,ISIC_0055826.JPG,false,1,keypress(m),500,427634.2999999523,427634,424284.658,424299.69999980927,424300.907,427650.908,8,400,11,,ISIC_3746471.JPG
break,html.Screen,4_110_1,2023-10-30T21:33:06.180Z,,0,,,NaN,,,,,,false,,,,427635.5,427635,,427634.5,,427650.908,8,400,,,
break_continue,html.Screen,4_110_2,2023-10-30T21:33:06.180Z,,0,,,NaN,,,,,,false,,,,427635.69999980927,427635.59999990463,,427635.59999990463,,427650.908,8,400,,,
sequence,flow.Sequence,4_110,2023-10-30T21:33:06.180Z,,0,,,3334.692999904626,completion,,,,,false,,,,427635.7999999523,427635.59999990463,424284.658,424299.59999990463,424300.907,427650.908,8,400,,,
trial,html.Screen,4_111_0,2023-10-30T21:33:09.757Z,,0,3,,3560.7919998092693,response,ISIC_0028061.JPG,12,ISIC_0032046.JPG,ISIC_0032046.JPG,false,0,keypress(z),500,431212.09999990463,431211.69999980927,427634.505,427635.7999999523,427650.908,431234.64,8,400,12,,ISIC_0028061.JPG
break,html.Screen,4_111_1,2023-10-30T21:33:09.758Z,,0,,,NaN,,,,,,false,,,,431213,431212.7999999523,,431212.2999999523,,431234.64,8,400,,,
break_continue,html.Screen,4_111_2,2023-10-30T21:33:09.758Z,,0,,,NaN,,,,,,false,,,,431213.39999985695,431213.19999980927,,431213.09999990463,,431234.64,8,400,,,
sequence,flow.Sequence,4_111,2023-10-30T21:33:09.758Z,,0,,,3562.2919998092693,completion,,,,,false,,,,431213.5,431213.19999980927,427634.505,427635.7999999523,427650.908,431234.64,8,400,,,
trial,html.Screen,4_112_0,2023-10-30T21:33:12.805Z,,0,3,,3025.4599999046186,response,ISIC_5960641.JPG,4,ISIC_0031324.JPG,ISIC_5960641.JPG,false,1,keypress(m),500,434260.39999985695,434260.09999990463,431218.013,431213.59999990463,431234.64,434284.375,8,400,13,,ISIC_0031324.JPG
break,html.Screen,4_112_1,2023-10-30T21:33:12.806Z,,0,,,NaN,,,,,,false,,,,434261,434260.89999985695,,434260.59999990463,,434284.375,8,400,,,
break_continue,html.Screen,4_112_2,2023-10-30T21:33:12.806Z,,0,,,NaN,,,,,,false,,,,434261.2999999523,434261.19999980927,,434261.09999990463,,434284.375,8,400,,,
sequence,flow.Sequence,4_112,2023-10-30T21:33:12.806Z,,0,,,3026.559999809251,completion,,,,,false,,,,434261.39999985695,434261.19999980927,431218.013,431213.59999990463,431234.64,434284.375,8,400,,,
trial,html.Screen,4_113_0,2023-10-30T21:33:15.833Z,,0,3,,3003.625,response,ISIC_0014932.JPG,7,ISIC_4926788.JPG,ISIC_4926788.JPG,false,0,keypress(z),500,437288.2999999523,437288,434267.928,434261.5,434284.375,437300.909,8,400,14,,ISIC_0014932.JPG
break,html.Screen,4_113_1,2023-10-30T21:33:15.834Z,,0,,,NaN,,,,,,false,,,,437289.39999985695,437289.2999999523,,437288.5,,437300.909,8,400,,,
break_continue,html.Screen,4_113_2,2023-10-30T21:33:15.834Z,,0,,,NaN,,,,,,false,,,,437289.59999990463,437289.5,,437289.39999985695,,437300.909,8,400,,,
sequence,flow.Sequence,4_113,2023-10-30T21:33:15.834Z,,0,,,3005.125,completion,,,,,false,,,,437289.69999980927,437289.5,434267.928,434261.39999985695,434284.375,437300.909,8,400,,,
trial,html.Screen,4_114_0,2023-10-30T21:33:19.613Z,,0,3,,3767.29099980928,response,ISIC_0013839.JPG,11,ISIC_0033452.JPG,ISIC_0013839.JPG,false,1,keypress(m),500,441068.59999990463,441068.19999980927,437284.274,437289.69999980927,437300.909,441084.3,8,400,15,,ISIC_0033452.JPG
break,html.Screen,4_114_1,2023-10-30T21:33:19.615Z,,0,,,NaN,,,,,,false,,,,441070,441069.7999999523,,441069,,441084.3,8,400,,,
break_continue,html.Screen,4_114_2,2023-10-30T21:33:19.615Z,,0,,,NaN,,,,,,false,,,,441070.2999999523,441070.19999980927,,441070.09999990463,,441084.3,8,400,,,
sequence,flow.Sequence,4_114,2023-10-30T21:33:19.615Z,,0,,,3769.29099980928,completion,,,,,false,,,,441070.39999985695,441070.19999980927,437284.274,437289.69999980927,437300.909,441084.3,8,400,,,
trial,html.Screen,4_115_0,2023-10-30T21:33:23.572Z,,0,3,,3942.299999904644,response,ISIC_0011717.JPG,6,ISIC_0012160.JPG,ISIC_0012160.JPG,false,0,keypress(z),500,445026.89999985695,445026.59999990463,441067.555,441070.5,441084.3,445034.216,8,400,16,,ISIC_0011717.JPG
break,html.Screen,4_115_1,2023-10-30T21:33:23.573Z,,0,,,NaN,,,,,,false,,,,445027.89999985695,445027.59999990463,,445027.09999990463,,445034.216,8,400,,,
break_continue,html.Screen,4_115_2,2023-10-30T21:33:23.573Z,,0,,,NaN,,,,,,false,,,,445028.19999980927,445028,,445028,,445034.216,8,400,,,
sequence,flow.Sequence,4_115,2023-10-30T21:33:23.573Z,,0,,,3943.7000000000116,completion,,,,,false,,,,445028.2999999523,445028,441067.555,441070.5,441084.3,445034.216,8,400,,,
trial,html.Screen,4_116_0,2023-10-30T21:33:25.913Z,,0,3,,2333.3839999046177,response,ISIC_0053725.JPG,13,ISIC_0033555.JPG,ISIC_0053725.JPG,false,1,keypress(m),500,447367.89999985695,447367.59999990463,445018.385,445028.2999999523,445034.216,447384.474,8,400,17,,ISIC_0033555.JPG
break,html.Screen,4_116_1,2023-10-30T21:33:25.913Z,,0,,,NaN,,,,,,false,,,,447368.7999999523,447368.5,,447368.09999990463,,447384.474,8,400,,,
break_continue,html.Screen,4_116_2,2023-10-30T21:33:25.914Z,,0,,,NaN,,,,,,false,,,,447369,447368.89999985695,,447368.89999985695,,447384.474,8,400,,,
sequence,flow.Sequence,4_116,2023-10-30T21:33:25.914Z,,0,,,2334.683999856934,completion,,,,,false,,,,447369.09999990463,447368.89999985695,445018.385,445028.2999999523,445034.216,447384.474,8,400,,,
trial,html.Screen,4_117_0,2023-10-30T21:33:29.363Z,,0,3,,3433.125999904645,response,ISIC_6971606.JPG,7,ISIC_8170849.JPG,ISIC_6971606.JPG,false,1,keypress(m),500,450817.89999985695,450817.59999990463,447367.981,447369.09999990463,447384.474,450834.356,8,400,18,,ISIC_8170849.JPG
break,html.Screen,4_117_1,2023-10-30T21:33:29.364Z,,0,,,NaN,,,,,,false,,,,450818.89999985695,450818.69999980927,,450818.09999990463,,450834.356,8,400,,,
break_continue,html.Screen,4_117_2,2023-10-30T21:33:29.364Z,,0,,,NaN,,,,,,false,,,,450819.39999985695,450819.19999980927,,450819,,450834.356,8,400,,,
sequence,flow.Sequence,4_117,2023-10-30T21:33:29.364Z,,0,,,3434.7259998092777,completion,,,,,false,,,,450819.5,450819.19999980927,447367.981,447369.09999990463,447384.474,450834.356,8,400,,,
trial,html.Screen,4_118_0,2023-10-30T21:33:32.043Z,,0,3,,2664.04399985692,response,ISIC_4197990.JPG,7,ISIC_0010933.JPG,ISIC_0010933.JPG,false,0,keypress(z),500,453498.69999980927,453498.39999985695,450817.551,450819.5,450834.356,453500.907,8,400,19,,ISIC_4197990.JPG
break,html.Screen,4_118_1,2023-10-30T21:33:32.044Z,,0,,,NaN,,,,,,false,,,,453499.89999985695,453499.5,,453498.89999985695,,453500.907,8,400,,,
break_continue,html.Screen,4_118_2,2023-10-30T21:33:32.045Z,,0,,,NaN,,,,,,false,,,,453500.19999980927,453500.09999990463,,453500,,453500.907,8,400,,,
sequence,flow.Sequence,4_118,2023-10-30T21:33:32.045Z,,0,,,2665.7439999046037,completion,,,,,false,,,,453500.2999999523,453500.09999990463,450817.551,450819.5,450834.356,453500.907,8,400,,,
trial,html.Screen,4_119_0,2023-10-30T21:33:35.202Z,,0,3,,3155.7929998092586,response,ISIC_0068447.JPG,6,ISIC_0058063.JPG,ISIC_0068447.JPG,false,1,keypress(m),500,456657.09999990463,456656.69999980927,453484.562,453500.5,453500.907,456667.533,8,400,20,,ISIC_0058063.JPG
break,html.Screen,4_119_1,2023-10-30T21:33:35.203Z,,0,,,NaN,,,,,,false,,,,456658.19999980927,456657.7999999523,,456657.2999999523,,456667.533,8,400,,,
break_continue,html.Screen,4_119_2,2023-10-30T21:33:35.203Z,,0,,,NaN,,,,,,false,,,,456658.5,456658.39999985695,,456658.2999999523,,456667.533,8,400,,,
sequence,flow.Sequence,4_119,2023-10-30T21:33:35.203Z,,0,,,3157.4929998569423,completion,,,,,false,,,,456658.59999990463,456658.39999985695,453484.562,453500.5,453500.907,456667.533,8,400,,,
trial,html.Screen,4_120_0,2023-10-30T21:33:38.247Z,,0,3,,3034.6669998092693,response,ISIC_0032596.JPG,8,ISIC_0015251.JPG,ISIC_0032596.JPG,false,1,keypress(m),500,459702.5,459702.19999980927,456650.921,456658.59999990463,456667.533,459717.884,8,400,21,,ISIC_0015251.JPG
break,html.Screen,4_120_1,2023-10-30T21:33:38.248Z,,0,,,NaN,,,,,,false,,,,459703.5,459703.19999980927,,459702.69999980927,,459717.884,8,400,,,
break_continue,html.Screen,4_120_2,2023-10-30T21:33:38.248Z,,0,,,NaN,,,,,,false,,,,459703.7999999523,459703.59999990463,,459703.59999990463,,459717.884,8,400,,,
sequence,flow.Sequence,4_120,2023-10-30T21:33:38.248Z,,0,,,3036.0669999046368,completion,,,,,false,,,,459703.89999985695,459703.59999990463,456650.921,456658.59999990463,456667.533,459717.884,8,400,,,
trial,html.Screen,4_121_0,2023-10-30T21:33:41.905Z,,0,3,,3642.2159999046125,response,ISIC_8692006.JPG,8,ISIC_6718969.JPG,ISIC_6718969.JPG,false,0,keypress(z),500,463360.5,463360.09999990463,459700.865,459703.89999985695,459717.884,463384.275,8,400,22,,ISIC_8692006.JPG
break,html.Screen,4_121_1,2023-10-30T21:33:41.906Z,,0,,,NaN,,,,,,false,,,,463361.2999999523,463361.09999990463,,463360.69999980927,,463384.275,8,400,,,
break_continue,html.Screen,4_121_2,2023-10-30T21:33:41.906Z,,0,,,NaN,,,,,,false,,,,463361.59999990463,463361.5,,463361.5,,463384.275,8,400,,,
sequence,flow.Sequence,4_121,2023-10-30T21:33:41.906Z,,0,,,3643.61599999998,completion,,,,,false,,,,463361.69999980927,463361.5,459700.865,459703.89999985695,459717.884,463384.275,8,400,,,
trial,html.Screen,4_122_0,2023-10-30T21:33:44.394Z,,0,3,,2465.024999952293,response,ISIC_0033238.JPG,7,ISIC_1017377.JPG,ISIC_0033238.JPG,false,1,keypress(m),500,465849.59999990463,465849.2999999523,463367.928,463361.69999980927,463384.275,465868.109,8,400,23,,ISIC_1017377.JPG
break,html.Screen,4_122_1,2023-10-30T21:33:44.395Z,,0,,,NaN,,,,,,false,,,,465850.59999990463,465850.2999999523,,465849.69999980927,,465868.109,8,400,,,
break_continue,html.Screen,4_122_2,2023-10-30T21:33:44.396Z,,0,,,NaN,,,,,,false,,,,465851,465850.7999999523,,465850.59999990463,,465868.109,8,400,,,
sequence,flow.Sequence,4_122,2023-10-30T21:33:44.396Z,,0,,,2466.524999952293,completion,,,,,false,,,,465851.09999990463,465850.7999999523,463367.928,463361.69999980927,463384.275,465868.109,8,400,,,
trial,html.Screen,4_123_0,2023-10-30T21:33:48.549Z,,0,3,,4135.6909999523195,response,ISIC_0026020.JPG,8,ISIC_0063642.JPG,ISIC_0026020.JPG,false,1,keypress(m),500,470004.09999990463,470003.7999999523,465834.132,465851.09999990463,465868.109,470017.57,8,400,24,,ISIC_0063642.JPG
break,html.Screen,4_123_1,2023-10-30T21:33:48.550Z,,0,,,NaN,,,,,,false,,,,470004.89999985695,470004.7999999523,,470004.39999985695,,470017.57,8,400,,,
break_continue,html.Screen,4_123_2,2023-10-30T21:33:48.550Z,,0,,,NaN,,,,,,false,,,,470005.39999985695,470005.19999980927,,470005.09999990463,,470017.57,8,400,,,
sequence,flow.Sequence,4_123,2023-10-30T21:33:48.550Z,,0,,,4137.090999809268,completion,,,,,false,,,,470005.5,470005.19999980927,465834.132,465851.09999990463,465868.109,470017.57,8,400,,,
trial,html.Screen,4_124_0,2023-10-30T21:33:51.260Z,,0,3,,2697.929999999993,response,ISIC_0067458.JPG,11,ISIC_2316159.JPG,ISIC_0067458.JPG,false,1,keypress(m),500,472715.89999985695,472715.5,470001.317,470005.69999980927,470017.57,472740.536,8,400,25,,ISIC_2316159.JPG
break,html.Screen,4_124_1,2023-10-30T21:33:51.262Z,,0,,,NaN,,,,,,false,,,,472716.89999985695,472716.7999999523,,472716.09999990463,,472740.536,8,400,,,
break_continue,html.Screen,4_124_2,2023-10-30T21:33:51.262Z,,0,,,NaN,,,,,,false,,,,472717.19999980927,472717.09999990463,,472717,,472740.536,8,400,,,
sequence,flow.Sequence,4_124,2023-10-30T21:33:51.262Z,,0,,,2699.5299999046256,completion,,,,,false,,,,472717.2999999523,472717.09999990463,470001.317,470005.69999980927,470017.57,472740.536,8,400,,,
trial,html.Screen,4_125_0,2023-10-30T21:33:54.324Z,,0,3,,3038.863999856927,response,ISIC_0062084.JPG,5,ISIC_0013898.JPG,ISIC_0013898.JPG,false,0,keypress(z),500,475779.7999999523,475779.39999985695,472700.881,472717.2999999523,472740.536,475800.999,8,400,26,,ISIC_0062084.JPG
break,html.Screen,4_125_1,2023-10-30T21:33:54.325Z,,0,,,NaN,,,,,,false,,,,475780.7999999523,475780.5,,475779.89999985695,,475800.999,8,400,,,
break_continue,html.Screen,4_125_2,2023-10-30T21:33:54.326Z,,0,,,NaN,,,,,,false,,,,475781.2999999523,475781.19999980927,,475781,,475800.999,8,400,,,
