sender,sender_type,sender_id,timestamp,meta,,blockNo,condition,duration,ended_on,img_left,img_reveal,img_right,loser,practice,response,response_action,selection_duration,time_commit,time_end,time_render,time_run,time_show,time_switch,total_blocks,total_trials,trialNo,url,winner
informed_consent,html.Screen,0,2023-10-31T17:06:24.307Z,"{""labjs_version"":""20.2.4"",""labjs_build"":{""flavor"":""production"",""commit"":""f5b4a49f956347addd546a832a3327688c2c0fef""},""location"":""https://run.pavlovia.org/MurrayBennett/melanoma-2afc/?participant=66752&platform=sona"",""userAgent"":""Mozilla/5.0 (Macintosh; Intel Mac OS X 10_15_7) AppleWebKit/537.36 (KHTML, like Gecko) Chrome/118.0.0.0 Safari/537.36"",""platform"":""MacIntel"",""language"":""en-US"",""locale"":""en-US"",""timeZone"":""America/Chicago"",""timezoneOffset"":300,""screen_width"":1440,""screen_height"":900,""scroll_width"":1440,""scroll_height"":767,""window_innerWidth"":1440,""window_innerHeight"":815,""devicePixelRatio"":1}",,,,5757.236999999999,response,,,,,,consent,click button,,15871.100000023842,15850,10076.096,2840.600000023842,10092.763,15892.879,,,,"{""participant"":""66752"",""platform"":""sona""}",
Welcome,html.Screen,1,2023-10-31T17:06:49.192Z,,,,asymmetry,24839.22100002384,response,,,,,,continue,click button,,40755.89999997616,40732.10000002384,15859.545,15871.5,15892.879,40761.518,,,,,
trial,html.Screen,2_0_0,2023-10-31T17:06:54.174Z,,0,0,,4974.982000000004,response,ISIC_6997061.JPG,,ISIC_0069348.JPG,ISIC_6997061.JPG,true,1,keypress(m),500,45736.89999997616,45736.5,40744.851,40756.60000002384,40761.518,45744.951,1,6,1,,ISIC_0069348.JPG
sequence,flow.Sequence,2_0,2023-10-31T17:06:54.174Z,,0,,,4974.982000000004,completion,,,,,true,,,,45737.39999997616,45736.5,40744.851,40756.60000002384,40761.518,45744.951,1,6,,,
trial,html.Screen,2_1_0,2023-10-31T17:06:57.907Z,,0,0,,3725.048999999999,response,ISIC_0057368.JPG,,ISIC_0009529.JPG,ISIC_0009529.JPG,true,0,keypress(z),500,49470.299999952316,49470,45728.284,45737.5,45744.951,49478.359,1,6,2,,ISIC_0057368.JPG
sequence,flow.Sequence,2_1,2023-10-31T17:06:57.907Z,,0,,,3725.048999999999,completion,,,,,true,,,,49470.60000002384,49470,45728.284,45737.5,45744.951,49478.359,1,6,,,
trial,html.Screen,2_2_0,2023-10-31T17:07:01.000Z,,0,0,,3084.6410000000033,response,ISIC_9758671.JPG,,ISIC_0064954.JPG,ISIC_9758671.JPG,true,1,keypress(m),500,52563.39999997616,52563,49461.692,49470.799999952316,49478.359,52578.917,1,6,3,,ISIC_0064954.JPG
sequence,flow.Sequence,2_2,2023-10-31T17:07:01.000Z,,0,,,3084.6410000000033,completion,,,,,true,,,,52563.60000002384,52563,49461.692,49470.799999952316,49478.359,52578.917,1,6,,,
trial,html.Screen,2_3_0,2023-10-31T17:07:05.466Z,,0,0,,4449.982999976157,response,ISIC_0005785.JPG,,ISIC_0000080.JPG,ISIC_0005785.JPG,true,1,keypress(m),500,57029.299999952316,57028.89999997616,52562.25,52563.89999997616,52578.917,57045.673,1,6,4,,ISIC_0000080.JPG
sequence,flow.Sequence,2_3,2023-10-31T17:07:05.467Z,,0,,,4449.982999976157,completion,,,,,true,,,,57029.60000002384,57028.89999997616,52562.25,52563.799999952316,52578.917,57045.673,1,6,,,
trial,html.Screen,2_4_0,2023-10-31T17:07:08.515Z,,0,0,,3031.526999928472,response,ISIC_5390060.JPG,,ISIC_7944028.JPG,ISIC_7944028.JPG,true,0,keypress(z),500,60077.5,60077.199999928474,57029.006,57029.799999952316,57045.673,60095.734,1,6,5,,ISIC_5390060.JPG
sequence,flow.Sequence,2_4,2023-10-31T17:07:08.515Z,,0,,,3031.526999928472,completion,,,,,true,,,,60077.799999952316,60077.199999928474,57029.006,57029.699999928474,57045.673,60095.734,1,6,,,
trial,html.Screen,2_5_0,2023-10-31T17:07:11.433Z,,0,0,,2900.1659999761614,response,ISIC_0010188.JPG,,ISIC_0794216.JPG,ISIC_0794216.JPG,true,0,keypress(z),500,62996.10000002384,62995.89999997616,60079.067,60078.10000002384,60095.734,63012.962,1,6,6,,ISIC_0010188.JPG
sequence,flow.Sequence,2_5,2023-10-31T17:07:11.434Z,,0,,,2900.1659999761614,completion,,,,,true,,,,62996.5,62995.89999997616,60079.067,60078,60095.734,63012.962,1,6,,,
loop,flow.Loop,2,2023-10-31T17:07:11.434Z,,,,,22234.38199997616,completion,,,,,true,,,,62996.799999952316,62995.89999997616,40744.851,40756.299999952316,40761.518,63012.962,1,6,,,
exp_instructions,html.Screen,3,2023-10-31T17:07:14.132Z,,,,,2675.6380000238423,response,,,,,,continue,keypress(Space),,65695.19999992847,65688.60000002384,62996.295,62996.89999997616,63012.962,65713.016,,,,,
trial,html.Screen,4_0_0,2023-10-31T17:07:17.488Z,,0,1,,3337.683999928471,response,ISIC_0000463.JPG,7,ISIC_0069373.JPG,ISIC_0000463.JPG,false,1,keypress(m),500,69051,69050.69999992847,65696.349,65695.60000002384,65713.016,69063.083,8,400,1,,ISIC_0069373.JPG
break,html.Screen,4_0_1,2023-10-31T17:07:17.489Z,,0,,,NaN,,,,,,false,,,,69052.10000002384,69051.69999992847,,69051.29999995232,,69063.083,8,400,,,
break_continue,html.Screen,4_0_2,2023-10-31T17:07:17.490Z,,0,,,NaN,,,,,,false,,,,69052.60000002384,69052.39999997616,,69052.19999992847,,69063.083,8,400,,,
sequence,flow.Sequence,4_0,2023-10-31T17:07:17.490Z,,0,,,3339.383999976155,completion,,,,,false,,,,69052.79999995232,69052.39999997616,65696.349,65695.60000002384,65713.016,69063.083,8,400,,,
trial,html.Screen,4_1_0,2023-10-31T17:07:24.327Z,,0,1,,6826.316999976159,response,ISIC_2355513.JPG,7,ISIC_9069800.JPG,ISIC_2355513.JPG,false,1,keypress(m),500,75889.60000002384,75889.39999997616,69046.416,69053,69063.083,75897.231,8,400,2,,ISIC_9069800.JPG
break,html.Screen,4_1_1,2023-10-31T17:07:24.329Z,,0,,,NaN,,,,,,false,,,,75891.29999995232,75891,,75890.69999992847,,75897.231,8,400,,,
break_continue,html.Screen,4_1_2,2023-10-31T17:07:24.329Z,,0,,,NaN,,,,,,false,,,,75891.60000002384,75891.60000002384,,75891.29999995232,,75897.231,8,400,,,
sequence,flow.Sequence,4_1,2023-10-31T17:07:24.329Z,,0,,,6828.517000023843,completion,,,,,false,,,,75891.89999997616,75891.60000002384,69046.416,69052.89999997616,69063.083,75897.231,8,400,,,
trial,html.Screen,4_2_0,2023-10-31T17:07:35.280Z,,0,1,,10944.168999976158,response,ISIC_9011718.JPG,6,ISIC_0147869.JPG,ISIC_0147869.JPG,false,0,keypress(z),500,86841.69999992847,86841.39999997616,75880.564,75892,75897.231,86847.942,8,400,3,,ISIC_9011718.JPG
break,html.Screen,4_2_1,2023-10-31T17:07:35.280Z,,0,,,NaN,,,,,,false,,,,86842.5,86842.19999992847,,86841.89999997616,,86847.942,8,400,,,
break_continue,html.Screen,4_2_2,2023-10-31T17:07:35.281Z,,0,,,NaN,,,,,,false,,,,86842.89999997616,86842.69999992847,,86842.60000002384,,86847.942,8,400,,,
sequence,flow.Sequence,4_2,2023-10-31T17:07:35.281Z,,0,,,10945.468999928475,completion,,,,,false,,,,86843,86842.69999992847,75880.564,75892,75897.231,86847.942,8,400,,,
trial,html.Screen,4_3_0,2023-10-31T17:07:38.583Z,,0,1,,3296.5580000000045,response,ISIC_0011092.JPG,8,ISIC_8659618.JPG,ISIC_8659618.JPG,false,0,keypress(z),500,90144.79999995232,90144.5,86831.275,86843.19999992847,86847.942,90148.008,8,400,4,,ISIC_0011092.JPG
break,html.Screen,4_3_1,2023-10-31T17:07:38.583Z,,0,,,NaN,,,,,,false,,,,90145.5,90145.29999995232,,90145,,90148.008,8,400,,,
break_continue,html.Screen,4_3_2,2023-10-31T17:07:38.584Z,,0,,,NaN,,,,,,false,,,,90145.89999997616,90145.69999992847,,90145.60000002384,,90148.008,8,400,,,
sequence,flow.Sequence,4_3,2023-10-31T17:07:38.584Z,,0,,,3297.757999928479,completion,,,,,false,,,,90146.10000002384,90145.69999992847,86831.275,86843.19999992847,86847.942,90148.008,8,400,,,
trial,html.Screen,4_4_0,2023-10-31T17:07:41.963Z,,0,1,,3376.9919999999984,response,ISIC_1144024.JPG,8,ISIC_0347984.JPG,ISIC_1144024.JPG,false,1,keypress(m),500,93525.19999992847,93525,90131.341,90146.19999992847,90148.008,93531.409,8,400,5,,ISIC_0347984.JPG
break,html.Screen,4_4_1,2023-10-31T17:07:41.964Z,,0,,,NaN,,,,,,false,,,,93525.79999995232,93525.69999992847,,93525.39999997616,,93531.409,8,400,,,
break_continue,html.Screen,4_4_2,2023-10-31T17:07:41.964Z,,0,,,NaN,,,,,,false,,,,93526.29999995232,93526.19999992847,,93526,,93531.409,8,400,,,
sequence,flow.Sequence,4_4,2023-10-31T17:07:41.965Z,,0,,,3378.191999928473,completion,,,,,false,,,,93526.5,93526.19999992847,90131.341,90146.19999992847,90148.008,93531.409,8,400,,,
trial,html.Screen,4_5_0,2023-10-31T17:07:44.639Z,,0,1,,2669.5910000000003,response,ISIC_0054341.JPG,5,ISIC_3273370.JPG,ISIC_3273370.JPG,false,0,keypress(z),500,96201.19999992847,96201,93514.742,93526.69999992847,93531.409,96214.796,8,400,6,,ISIC_0054341.JPG
break,html.Screen,4_5_1,2023-10-31T17:07:44.640Z,,0,,,NaN,,,,,,false,,,,96201.89999997616,96201.79999995232,,96201.39999997616,,96214.796,8,400,,,
break_continue,html.Screen,4_5_2,2023-10-31T17:07:44.640Z,,0,,,NaN,,,,,,false,,,,96202.29999995232,96202.10000002384,,96202,,96214.796,8,400,,,
sequence,flow.Sequence,4_5,2023-10-31T17:07:44.641Z,,0,,,2670.691000023842,completion,,,,,false,,,,96202.5,96202.10000002384,93514.742,93526.5,93531.409,96214.796,8,400,,,
trial,html.Screen,4_6_0,2023-10-31T17:07:48.808Z,,0,1,,4154.503999952314,response,ISIC_3961647.JPG,8,ISIC_0012678.JPG,ISIC_3961647.JPG,false,1,keypress(m),500,100369.5,100369.29999995232,96198.129,96202.60000002384,96214.796,100382.042,8,400,7,,ISIC_0012678.JPG
break,html.Screen,4_6_1,2023-10-31T17:07:48.809Z,,0,,,NaN,,,,,,false,,,,100370.29999995232,100370.10000002384,,100369.69999992847,,100382.042,8,400,,,
break_continue,html.Screen,4_6_2,2023-10-31T17:07:48.809Z,,0,,,NaN,,,,,,false,,,,100370.60000002384,100370.5,,100370.39999997616,,100382.042,8,400,,,
sequence,flow.Sequence,4_6,2023-10-31T17:07:48.809Z,,0,,,4155.703999999998,completion,,,,,false,,,,100370.79999995232,100370.5,96198.129,96202.60000002384,96214.796,100382.042,8,400,,,
trial,html.Screen,4_7_0,2023-10-31T17:07:51.793Z,,0,1,,2972.4579999999987,response,ISIC_4471367.JPG,6,ISIC_4718313.JPG,ISIC_4718313.JPG,false,0,keypress(z),500,103354.79999995232,103354.5,100365.375,100370.89999997616,100382.042,103365.435,8,400,8,,ISIC_4471367.JPG
break,html.Screen,4_7_1,2023-10-31T17:07:51.794Z,,0,,,NaN,,,,,,false,,,,103355.39999997616,103355.29999995232,,103355,,103365.435,8,400,,,
break_continue,html.Screen,4_7_2,2023-10-31T17:07:51.794Z,,0,,,NaN,,,,,,false,,,,103355.89999997616,103355.69999992847,,103355.5,,103365.435,8,400,,,
sequence,flow.Sequence,4_7,2023-10-31T17:07:51.794Z,,0,,,2973.657999928473,completion,,,,,false,,,,103356,103355.69999992847,100365.375,100370.89999997616,100382.042,103365.435,8,400,,,
trial,html.Screen,4_8_0,2023-10-31T17:07:54.664Z,,0,1,,2859.9649999761605,response,ISIC_7335659.JPG,5,ISIC_1453146.JPG,ISIC_7335659.JPG,false,1,keypress(m),500,106225.60000002384,106225.39999997616,103348.768,103356.19999992847,103365.435,106232.159,8,400,9,,ISIC_1453146.JPG
break,html.Screen,4_8_1,2023-10-31T17:07:54.665Z,,0,,,NaN,,,,,,false,,,,106226.29999995232,106226.10000002384,,106225.79999995232,,106232.159,8,400,,,
break_continue,html.Screen,4_8_2,2023-10-31T17:07:54.665Z,,0,,,NaN,,,,,,false,,,,106226.69999992847,106226.60000002384,,106226.39999997616,,106232.159,8,400,,,
sequence,flow.Sequence,4_8,2023-10-31T17:07:54.665Z,,0,,,2861.165000023844,completion,,,,,false,,,,106226.89999997616,106226.60000002384,103348.768,103356.10000002384,103365.435,106232.159,8,400,,,
trial,html.Screen,4_9_0,2023-10-31T17:08:00.499Z,,0,1,,5828.040999928475,response,ISIC_3043475.JPG,7,ISIC_0033320.JPG,ISIC_0033320.JPG,false,0,keypress(z),500,112060.5,112060.19999992847,106215.492,106226.89999997616,106232.159,112066.085,8,400,10,,ISIC_3043475.JPG
break,html.Screen,4_9_1,2023-10-31T17:08:00.500Z,,0,,,NaN,,,,,,false,,,,112061.19999992847,112061,,112060.79999995232,,112066.085,8,400,,,
break_continue,html.Screen,4_9_2,2023-10-31T17:08:00.500Z,,0,,,NaN,,,,,,false,,,,112061.69999992847,112061.5,,112061.39999997616,,112066.085,8,400,,,
sequence,flow.Sequence,4_9,2023-10-31T17:08:00.500Z,,0,,,5829.341,completion,,,,,false,,,,112061.79999995232,112061.5,106215.492,106226.89999997616,106232.159,112066.085,8,400,,,
trial,html.Screen,4_10_0,2023-10-31T17:08:06.060Z,,0,1,,5554.71499995231,response,ISIC_0572205.JPG,7,ISIC_2753279.JPG,ISIC_2753279.JPG,false,0,keypress(z),500,117621.10000002384,117620.79999995232,112049.418,112062,112066.085,117633.38,8,400,11,,ISIC_0572205.JPG
break,html.Screen,4_10_1,2023-10-31T17:08:06.061Z,,0,,,NaN,,,,,,false,,,,117621.89999997616,117621.60000002384,,117621.29999995232,,117633.38,8,400,,,
break_continue,html.Screen,4_10_2,2023-10-31T17:08:06.061Z,,0,,,NaN,,,,,,false,,,,117622.19999992847,117622.10000002384,,117621.89999997616,,117633.38,8,400,,,
sequence,flow.Sequence,4_10,2023-10-31T17:08:06.061Z,,0,,,5556.0150000238355,completion,,,,,false,,,,117622.39999997616,117622.10000002384,112049.418,112061.89999997616,112066.085,117633.38,8,400,,,
trial,html.Screen,4_11_0,2023-10-31T17:08:10.610Z,,0,1,,4537.720000023837,response,ISIC_7450481.JPG,7,ISIC_0002435.JPG,ISIC_0002435.JPG,false,0,keypress(z),500,122171.29999995232,122171.10000002384,117616.713,117622.5,117633.38,122183.471,8,400,12,,ISIC_7450481.JPG
break,html.Screen,4_11_1,2023-10-31T17:08:10.611Z,,0,,,NaN,,,,,,false,,,,122172.19999992847,122171.89999997616,,122171.60000002384,,122183.471,8,400,,,
break_continue,html.Screen,4_11_2,2023-10-31T17:08:10.611Z,,0,,,NaN,,,,,,false,,,,122172.60000002384,122172.39999997616,,122172.19999992847,,122183.471,8,400,,,
sequence,flow.Sequence,4_11,2023-10-31T17:08:10.612Z,,0,,,4539.0199999761535,completion,,,,,false,,,,122172.69999992847,122172.39999997616,117616.713,117622.5,117633.38,122183.471,8,400,,,
trial,html.Screen,4_12_0,2023-10-31T17:08:14.666Z,,0,1,,4043.629000023837,response,ISIC_2562668.JPG,7,ISIC_7614221.JPG,ISIC_7614221.JPG,false,0,keypress(z),500,126227.29999995232,126227.10000002384,122166.804,122172.89999997616,122183.471,126233.552,8,400,13,,ISIC_2562668.JPG
break,html.Screen,4_12_1,2023-10-31T17:08:14.667Z,,0,,,NaN,,,,,,false,,,,126228.10000002384,126227.79999995232,,126227.60000002384,,126233.552,8,400,,,
break_continue,html.Screen,4_12_2,2023-10-31T17:08:14.668Z,,0,,,NaN,,,,,,false,,,,126228.5,126228.39999997616,,126228.29999995232,,126233.552,8,400,,,
sequence,flow.Sequence,4_12,2023-10-31T17:08:14.668Z,,0,,,4044.928999976153,completion,,,,,false,,,,126228.79999995232,126228.39999997616,122166.804,122172.89999997616,122183.471,126233.552,8,400,,,
trial,html.Screen,4_13_0,2023-10-31T17:08:18.015Z,,0,1,,3342.1479999284784,response,ISIC_6448654.JPG,4,ISIC_1509635.JPG,ISIC_1509635.JPG,false,0,keypress(z),500,129575.89999997616,129575.69999992847,126216.885,126229,126233.552,129584.099,8,400,14,,ISIC_6448654.JPG
break,html.Screen,4_13_1,2023-10-31T17:08:18.016Z,,0,,,NaN,,,,,,false,,,,129576.69999992847,129576.39999997616,,129576,,129584.099,8,400,,,
break_continue,html.Screen,4_13_2,2023-10-31T17:08:18.016Z,,0,,,NaN,,,,,,false,,,,129577.29999995232,129577,,129576.89999997616,,129584.099,8,400,,,
sequence,flow.Sequence,4_13,2023-10-31T17:08:18.017Z,,0,,,3343.448000000004,completion,,,,,false,,,,129577.5,129577,126216.885,126229,126233.552,129584.099,8,400,,,
trial,html.Screen,4_14_0,2023-10-31T17:08:20.939Z,,0,1,,2915.6009999284724,response,ISIC_1790808.JPG,5,ISIC_0031752.JPG,ISIC_1790808.JPG,false,1,keypress(m),500,132500,132499.69999992847,129567.432,129577.60000002384,129584.099,132500.824,8,400,15,,ISIC_0031752.JPG
break,html.Screen,4_14_1,2023-10-31T17:08:20.940Z,,0,,,NaN,,,,,,false,,,,132500.60000002384,132500.5,,132500.10000002384,,132500.824,8,400,,,
break_continue,html.Screen,4_14_2,2023-10-31T17:08:20.940Z,,0,,,NaN,,,,,,false,,,,132501,132500.89999997616,,132500.69999992847,,132500.824,8,400,,,
sequence,flow.Sequence,4_14,2023-10-31T17:08:20.940Z,,0,,,2916.800999976156,completion,,,,,false,,,,132501.19999992847,132500.89999997616,129567.432,129577.60000002384,129584.099,132500.824,8,400,,,
trial,html.Screen,4_15_0,2023-10-31T17:08:23.777Z,,0,1,,2836.7760000238486,response,ISIC_6118824.JPG,7,ISIC_0070784.JPG,ISIC_6118824.JPG,false,1,keypress(m),500,135337.89999997616,135337.60000002384,132484.157,132501.39999997616,132500.824,135350.881,8,400,16,,ISIC_0070784.JPG
break,html.Screen,4_15_1,2023-10-31T17:08:23.778Z,,0,,,NaN,,,,,,false,,,,135338.60000002384,135338.39999997616,,135338.10000002384,,135350.881,8,400,,,
break_continue,html.Screen,4_15_2,2023-10-31T17:08:23.778Z,,0,,,NaN,,,,,,false,,,,135339,135338.89999997616,,135338.69999992847,,135350.881,8,400,,,
sequence,flow.Sequence,4_15,2023-10-31T17:08:23.779Z,,0,,,2838.075999976165,completion,,,,,false,,,,135339.19999992847,135338.89999997616,132484.157,132501.29999995232,132500.824,135350.881,8,400,,,
trial,html.Screen,4_16_0,2023-10-31T17:08:26.901Z,,0,1,,3110.4189999523223,response,ISIC_6398669.JPG,8,ISIC_0011073.JPG,ISIC_0011073.JPG,false,0,keypress(z),500,138461.5,138461.29999995232,135334.214,135339.39999997616,135350.881,138468.119,8,400,17,,ISIC_6398669.JPG
break,html.Screen,4_16_1,2023-10-31T17:08:26.902Z,,0,,,NaN,,,,,,false,,,,138462.19999992847,138462,,138461.79999995232,,138468.119,8,400,,,
break_continue,html.Screen,4_16_2,2023-10-31T17:08:26.902Z,,0,,,NaN,,,,,,false,,,,138462.60000002384,138462.5,,138462.39999997616,,138468.119,8,400,,,
sequence,flow.Sequence,4_16,2023-10-31T17:08:26.902Z,,0,,,3111.619000000006,completion,,,,,false,,,,138462.89999997616,138462.5,135334.214,135339.39999997616,135350.881,138468.119,8,400,,,
trial,html.Screen,4_17_0,2023-10-31T17:08:38.395Z,,0,1,,11517.388000000006,timeout,ISIC_5789263.JPG,7,ISIC_0000860.JPG,,false,,,500,149955.79999995232,149955.5,138451.452,138463,138468.119,149985.507,8,400,18,,
break,html.Screen,4_17_1,2023-10-31T17:08:38.396Z,,0,,,NaN,,,,,,false,,,,149956.5,149956.29999995232,,149955.89999997616,,149985.507,8,400,,,
break_continue,html.Screen,4_17_2,2023-10-31T17:08:38.397Z,,0,,,NaN,,,,,,false,,,,149956.89999997616,149956.69999992847,,149956.60000002384,,149985.507,8,400,,,
sequence,flow.Sequence,4_17,2023-10-31T17:08:38.397Z,,0,,,11488.580999928468,completion,,,,,false,,,,149957,149956.69999992847,138451.452,138462.89999997616,138468.119,149985.507,8,400,,,
trial,html.Screen,4_18_0,2023-10-31T17:08:41.331Z,,0,1,,2905.192999928462,response,ISIC_2596574.JPG,6,ISIC_7666224.JPG,ISIC_2596574.JPG,false,1,keypress(m),500,152890.89999997616,152890.69999992847,149968.84,149957.19999992847,149985.507,152902.232,8,400,19,,ISIC_7666224.JPG
break,html.Screen,4_18_1,2023-10-31T17:08:41.332Z,,0,,,NaN,,,,,,false,,,,152891.69999992847,152891.5,,152891.10000002384,,152902.232,8,400,,,
break_continue,html.Screen,4_18_2,2023-10-31T17:08:41.332Z,,0,,,NaN,,,,,,false,,,,152892.10000002384,152892,,152891.79999995232,,152902.232,8,400,,,
sequence,flow.Sequence,4_18,2023-10-31T17:08:41.332Z,,0,,,2906.4929999999877,completion,,,,,false,,,,152892.39999997616,152892,149968.84,149957.19999992847,149985.507,152902.232,8,400,,,
trial,html.Screen,4_19_0,2023-10-31T17:08:44.811Z,,0,1,,3468.567999952327,response,ISIC_0031363.JPG,9,ISIC_6390738.JPG,ISIC_6390738.JPG,false,0,keypress(z),500,156370.89999997616,156370.79999995232,152885.565,152892.5,152902.232,156385.635,8,400,20,,ISIC_0031363.JPG
break,html.Screen,4_19_1,2023-10-31T17:08:44.812Z,,0,,,NaN,,,,,,false,,,,156371.69999992847,156371.5,,156371.19999992847,,156385.635,8,400,,,
break_continue,html.Screen,4_19_2,2023-10-31T17:08:44.812Z,,0,,,NaN,,,,,,false,,,,156372.10000002384,156371.89999997616,,156371.79999995232,,156385.635,8,400,,,
sequence,flow.Sequence,4_19,2023-10-31T17:08:44.812Z,,0,,,3469.667999976169,completion,,,,,false,,,,156372.29999995232,156371.89999997616,152885.565,152892.5,152902.232,156385.635,8,400,,,
trial,html.Screen,4_20_0,2023-10-31T17:08:47.509Z,,0,1,,2683.164999952307,response,ISIC_0028565.JPG,6,ISIC_0056635.JPG,ISIC_0028565.JPG,false,1,keypress(m),500,159069.10000002384,159068.79999995232,156368.968,156372.39999997616,156385.635,159086.175,8,400,21,,ISIC_0056635.JPG
break,html.Screen,4_20_1,2023-10-31T17:08:47.510Z,,0,,,NaN,,,,,,false,,,,159069.69999992847,159069.60000002384,,159069.19999992847,,159086.175,8,400,,,
break_continue,html.Screen,4_20_2,2023-10-31T17:08:47.510Z,,0,,,NaN,,,,,,false,,,,159070.10000002384,159070.10000002384,,159069.89999997616,,159086.175,8,400,,,
sequence,flow.Sequence,4_20,2023-10-31T17:08:47.510Z,,0,,,2684.4650000238325,completion,,,,,false,,,,159070.29999995232,159070.10000002384,156368.968,156372.39999997616,156385.635,159086.175,8,400,,,
trial,html.Screen,4_21_0,2023-10-31T17:08:50.364Z,,0,1,,2837.124999952328,response,ISIC_0029290.JPG,8,ISIC_8922893.JPG,ISIC_0029290.JPG,false,1,keypress(m),500,161923.5,161923.29999995232,159069.508,159070.5,159086.175,161936.232,8,400,22,,ISIC_8922893.JPG
break,html.Screen,4_21_1,2023-10-31T17:08:50.364Z,,0,,,NaN,,,,,,false,,,,161924.29999995232,161924.10000002384,,161923.69999992847,,161936.232,8,400,,,
break_continue,html.Screen,4_21_2,2023-10-31T17:08:50.365Z,,0,,,NaN,,,,,,false,,,,161924.69999992847,161924.60000002384,,161924.5,,161936.232,8,400,,,
sequence,flow.Sequence,4_21,2023-10-31T17:08:50.365Z,,0,,,2838.4250000238535,completion,,,,,false,,,,161924.89999997616,161924.60000002384,159069.508,159070.39999997616,159086.175,161936.232,8,400,,,
trial,html.Screen,4_22_0,2023-10-31T17:08:53.460Z,,0,1,,3082.9679999284854,response,ISIC_4154293.JPG,8,ISIC_0060586.JPG,ISIC_0060586.JPG,false,0,keypress(z),500,165019.39999997616,165019.19999992847,161919.565,161925.10000002384,161936.232,165036.294,8,400,23,,ISIC_4154293.JPG
break,html.Screen,4_22_1,2023-10-31T17:08:53.460Z,,0,,,NaN,,,,,,false,,,,165020.10000002384,165019.89999997616,,165019.60000002384,,165036.294,8,400,,,
break_continue,html.Screen,4_22_2,2023-10-31T17:08:53.461Z,,0,,,NaN,,,,,,false,,,,165020.5,165020.29999995232,,165020.29999995232,,165036.294,8,400,,,
sequence,flow.Sequence,4_22,2023-10-31T17:08:53.461Z,,0,,,3084.067999952327,completion,,,,,false,,,,165020.69999992847,165020.29999995232,161919.565,161925.10000002384,161936.232,165036.294,8,400,,,
trial,html.Screen,4_23_0,2023-10-31T17:08:56.781Z,,0,1,,3301.6059999761637,response,ISIC_0000155.JPG,7,ISIC_7114660.JPG,ISIC_7114660.JPG,false,0,keypress(z),500,168338.10000002384,168337.89999997616,165019.627,165020.79999995232,165036.294,168353.027,8,400,24,,ISIC_0000155.JPG
break,html.Screen,4_23_1,2023-10-31T17:08:56.781Z,,0,,,NaN,,,,,,false,,,,168338.89999997616,168338.60000002384,,168338.29999995232,,168353.027,8,400,,,
break_continue,html.Screen,4_23_2,2023-10-31T17:08:56.782Z,,0,,,NaN,,,,,,false,,,,168339.19999992847,168339.10000002384,,168339,,168353.027,8,400,,,
sequence,flow.Sequence,4_23,2023-10-31T17:08:56.782Z,,0,,,3302.8060000238474,completion,,,,,false,,,,168339.39999997616,168339.10000002384,165019.627,165020.69999992847,165036.294,168353.027,8,400,,,
trial,html.Screen,4_24_0,2023-10-31T17:08:59.735Z,,0,1,,2934.8729999761563,response,ISIC_7210296.JPG,10,ISIC_2447578.JPG,ISIC_7210296.JPG,false,1,keypress(m),500,171288.19999992847,171287.89999997616,168336.36,168339.5,168353.027,171303.578,8,400,25,,ISIC_2447578.JPG
break,html.Screen,4_24_1,2023-10-31T17:08:59.736Z,,0,,,NaN,,,,,,false,,,,171288.79999995232,171288.69999992847,,171288.39999997616,,171303.578,8,400,,,
break_continue,html.Screen,4_24_2,2023-10-31T17:08:59.736Z,,0,,,NaN,,,,,,false,,,,171289.19999992847,171289.10000002384,,171288.89999997616,,171303.578,8,400,,,
sequence,flow.Sequence,4_24,2023-10-31T17:08:59.737Z,,0,,,2936.07300002384,completion,,,,,false,,,,171289.39999997616,171289.10000002384,168336.36,168339.5,168353.027,171303.578,8,400,,,
trial,html.Screen,4_25_0,2023-10-31T17:09:02.978Z,,0,1,,3222.621999928466,response,ISIC_4811165.JPG,10,ISIC_5934948.JPG,ISIC_5934948.JPG,false,0,keypress(z),500,174526.5,174526.19999992847,171286.911,171289.60000002384,171303.578,174536.976,8,400,26,,ISIC_4811165.JPG
break,html.Screen,4_25_1,2023-10-31T17:09:02.979Z,,0,,,NaN,,,,,,false,,,,174527.19999992847,174527,,174526.60000002384,,174536.976,8,400,,,
break_continue,html.Screen,4_25_2,2023-10-31T17:09:02.979Z,,0,,,NaN,,,,,,false,,,,174527.5,174527.5,,174527.39999997616,,174536.976,8,400,,,
sequence,flow.Sequence,4_25,2023-10-31T17:09:02.979Z,,0,,,3223.9219999999914,completion,,,,,false,,,,174527.79999995232,174527.5,171286.911,171289.5,171303.578,174536.976,8,400,,,
trial,html.Screen,4_26_0,2023-10-31T17:09:05.802Z,,0,1,,2810.1240000238467,response,ISIC_0010235.JPG,7,ISIC_0033524.JPG,ISIC_0033524.JPG,false,0,keypress(z),500,177347.19999992847,177347.10000002384,174520.309,174527.89999997616,174536.976,177353.699,8,400,27,,ISIC_0010235.JPG
break,html.Screen,4_26_1,2023-10-31T17:09:05.803Z,,0,,,NaN,,,,,,false,,,,177348,177347.79999995232,,177347.5,,177353.699,8,400,,,
break_continue,html.Screen,4_26_2,2023-10-31T17:09:05.803Z,,0,,,NaN,,,,,,false,,,,177348.39999997616,177348.19999992847,,177348.10000002384,,177353.699,8,400,,,
sequence,flow.Sequence,4_26,2023-10-31T17:09:05.803Z,,0,,,2811.2239999284793,completion,,,,,false,,,,177348.5,177348.19999992847,174520.309,174527.79999995232,174536.976,177353.699,8,400,,,
trial,html.Screen,4_27_0,2023-10-31T17:09:08.432Z,,0,1,,2621.000999928481,response,ISIC_3916064.JPG,8,ISIC_5581931.JPG,ISIC_3916064.JPG,false,1,keypress(m),500,179974.89999997616,179974.69999992847,177337.032,177348.69999992847,177353.699,179987.586,8,400,28,,ISIC_5581931.JPG
break,html.Screen,4_27_1,2023-10-31T17:09:08.433Z,,0,,,NaN,,,,,,false,,,,179975.69999992847,179975.5,,179975.19999992847,,179987.586,8,400,,,
break_continue,html.Screen,4_27_2,2023-10-31T17:09:08.433Z,,0,,,NaN,,,,,,false,,,,179976.10000002384,179975.89999997616,,179975.79999995232,,179987.586,8,400,,,
sequence,flow.Sequence,4_27,2023-10-31T17:09:08.433Z,,0,,,2622.200999976165,completion,,,,,false,,,,179976.29999995232,179975.89999997616,177337.032,177348.60000002384,177353.699,179987.586,8,400,,,
trial,html.Screen,4_28_0,2023-10-31T17:09:11.160Z,,0,1,,2712.9139999999898,response,ISIC_4518384.JPG,9,ISIC_5992534.JPG,ISIC_5992534.JPG,false,0,keypress(z),500,182700.69999992847,182700.5,179970.919,179976.39999997616,179987.586,182704.307,8,400,29,,ISIC_4518384.JPG
break,html.Screen,4_28_1,2023-10-31T17:09:11.161Z,,0,,,NaN,,,,,,false,,,,182701.39999997616,182701.29999995232,,182701,,182704.307,8,400,,,
break_continue,html.Screen,4_28_2,2023-10-31T17:09:11.161Z,,0,,,NaN,,,,,,false,,,,182701.89999997616,182701.69999992847,,182701.60000002384,,182704.307,8,400,,,
sequence,flow.Sequence,4_28,2023-10-31T17:09:11.161Z,,0,,,2714.113999928464,completion,,,,,false,,,,182702,182701.69999992847,179970.919,179976.39999997616,179987.586,182704.307,8,400,,,
trial,html.Screen,4_29_0,2023-10-31T17:09:13.885Z,,0,1,,2719.5929999761574,response,ISIC_2521424.JPG,9,ISIC_3374533.JPG,ISIC_2521424.JPG,false,1,keypress(m),500,185424.10000002384,185423.89999997616,182687.64,182702.10000002384,182704.307,185437.695,8,400,30,,ISIC_3374533.JPG
break,html.Screen,4_29_1,2023-10-31T17:09:13.886Z,,0,,,NaN,,,,,,false,,,,185424.79999995232,185424.5,,185424.29999995232,,185437.695,8,400,,,
break_continue,html.Screen,4_29_2,2023-10-31T17:09:13.886Z,,0,,,NaN,,,,,,false,,,,185425.10000002384,185425,,185424.89999997616,,185437.695,8,400,,,
sequence,flow.Sequence,4_29,2023-10-31T17:09:13.887Z,,0,,,2720.6929999999993,completion,,,,,false,,,,185425.39999997616,185425,182687.64,182702.10000002384,182704.307,185437.695,8,400,,,
trial,html.Screen,4_30_0,2023-10-31T17:09:17.219Z,,0,1,,3318.1049999523093,response,ISIC_0013731.JPG,8,ISIC_0031843.JPG,ISIC_0013731.JPG,false,1,keypress(m),500,188756,188755.79999995232,185421.028,185425.5,185437.695,188771.095,8,400,31,,ISIC_0031843.JPG
break,html.Screen,4_30_1,2023-10-31T17:09:17.220Z,,0,,,NaN,,,,,,false,,,,188756.69999992847,188756.5,,188756.19999992847,,188771.095,8,400,,,
break_continue,html.Screen,4_30_2,2023-10-31T17:09:17.220Z,,0,,,NaN,,,,,,false,,,,188757.10000002384,188757,,188756.79999995232,,188771.095,8,400,,,
sequence,flow.Sequence,4_30,2023-10-31T17:09:17.220Z,,0,,,3319.304999999993,completion,,,,,false,,,,188757.19999992847,188757,185421.028,185425.39999997616,185437.695,188771.095,8,400,,,
trial,html.Screen,4_31_0,2023-10-31T17:09:19.968Z,,0,1,,2731.904999999999,response,ISIC_0011114.JPG,8,ISIC_0032331.JPG,ISIC_0032331.JPG,false,0,keypress(z),500,191503.19999992847,191503,188754.428,188757.39999997616,188771.095,191504.97,8,400,32,,ISIC_0011114.JPG
break,html.Screen,4_31_1,2023-10-31T17:09:19.968Z,,0,,,NaN,,,,,,false,,,,191503.89999997616,191503.69999992847,,191503.39999997616,,191504.97,8,400,,,
break_continue,html.Screen,4_31_2,2023-10-31T17:09:19.969Z,,0,,,NaN,,,,,,false,,,,191504.29999995232,191504.10000002384,,191504,,191504.97,8,400,,,
sequence,flow.Sequence,4_31,2023-10-31T17:09:19.969Z,,0,,,2733.0050000238407,completion,,,,,false,,,,191504.5,191504.10000002384,188754.428,188757.29999995232,188771.095,191504.97,8,400,,,
trial,html.Screen,4_32_0,2023-10-31T17:09:23.240Z,,0,1,,3268.829999952315,response,ISIC_0034106.JPG,6,ISIC_0014525.JPG,ISIC_0014525.JPG,false,0,keypress(z),500,194774,194773.79999995232,191488.303,191504.60000002384,191504.97,194788.369,8,400,33,,ISIC_0034106.JPG
break,html.Screen,4_32_1,2023-10-31T17:09:23.240Z,,0,,,NaN,,,,,,false,,,,194774.69999992847,194774.60000002384,,194774.19999992847,,194788.369,8,400,,,
break_continue,html.Screen,4_32_2,2023-10-31T17:09:23.241Z,,0,,,NaN,,,,,,false,,,,194775.10000002384,194775,,194774.79999995232,,194788.369,8,400,,,
sequence,flow.Sequence,4_32,2023-10-31T17:09:23.241Z,,0,,,3270.029999999999,completion,,,,,false,,,,194775.29999995232,194775,191488.303,191504.60000002384,191504.97,194788.369,8,400,,,
trial,html.Screen,4_33_0,2023-10-31T17:09:26.046Z,,0,1,,2790.9309999523102,response,ISIC_0060321.JPG,5,ISIC_1124434.JPG,ISIC_1124434.JPG,false,0,keypress(z),500,197579.60000002384,197579.29999995232,194771.702,194775.39999997616,194788.369,197588.425,8,400,34,,ISIC_0060321.JPG
break,html.Screen,4_33_1,2023-10-31T17:09:26.047Z,,0,,,NaN,,,,,,false,,,,197580.19999992847,197580.10000002384,,197579.69999992847,,197588.425,8,400,,,
break_continue,html.Screen,4_33_2,2023-10-31T17:09:26.047Z,,0,,,NaN,,,,,,false,,,,197580.60000002384,197580.5,,197580.39999997616,,197588.425,8,400,,,
sequence,flow.Sequence,4_33,2023-10-31T17:09:26.047Z,,0,,,2792.130999999994,completion,,,,,false,,,,197580.79999995232,197580.5,194771.702,194775.29999995232,194788.369,197588.425,8,400,,,
trial,html.Screen,4_34_0,2023-10-31T17:09:30.041Z,,0,1,,3984.6750000238535,response,ISIC_5547318.JPG,7,ISIC_5204796.JPG,ISIC_5204796.JPG,false,0,keypress(z),500,201573.39999997616,201573.10000002384,197571.758,197580.89999997616,197588.425,201589.043,8,400,35,,ISIC_5547318.JPG
break,html.Screen,4_34_1,2023-10-31T17:09:30.042Z,,0,,,NaN,,,,,,false,,,,201574,201573.89999997616,,201573.5,,201589.043,8,400,,,
break_continue,html.Screen,4_34_2,2023-10-31T17:09:30.042Z,,0,,,NaN,,,,,,false,,,,201574.5,201574.29999995232,,201574.19999992847,,201589.043,8,400,,,
sequence,flow.Sequence,4_34,2023-10-31T17:09:30.042Z,,0,,,3985.874999952328,completion,,,,,false,,,,201574.69999992847,201574.29999995232,197571.758,197580.89999997616,197588.425,201589.043,8,400,,,
trial,html.Screen,4_35_0,2023-10-31T17:09:33.664Z,,0,1,,3606.356999976153,response,ISIC_0009186.JPG,7,ISIC_0001745.JPG,ISIC_0001745.JPG,false,0,keypress(z),500,205195.69999992847,205195.39999997616,201572.376,201574.79999995232,201589.043,205205.782,8,400,36,,ISIC_0009186.JPG
break,html.Screen,4_35_1,2023-10-31T17:09:33.665Z,,0,,,NaN,,,,,,false,,,,205196.39999997616,205196.19999992847,,205195.89999997616,,205205.782,8,400,,,
break_continue,html.Screen,4_35_2,2023-10-31T17:09:33.665Z,,0,,,NaN,,,,,,false,,,,205196.79999995232,205196.69999992847,,205196.5,,205205.782,8,400,,,
sequence,flow.Sequence,4_35,2023-10-31T17:09:33.665Z,,0,,,3607.6569999284693,completion,,,,,false,,,,205197,205196.69999992847,201572.376,201574.79999995232,201589.043,205205.782,8,400,,,
trial,html.Screen,4_36_0,2023-10-31T17:09:36.886Z,,0,1,,3211.5179999523098,response,ISIC_7024807.JPG,7,ISIC_7600621.JPG,ISIC_7024807.JPG,false,1,keypress(m),500,208417.5,208417.29999995232,205189.115,205197.10000002384,205205.782,208422.513,8,400,37,,ISIC_7600621.JPG
break,html.Screen,4_36_1,2023-10-31T17:09:36.887Z,,0,,,NaN,,,,,,false,,,,208418.19999992847,208418,,208417.69999992847,,208422.513,8,400,,,
break_continue,html.Screen,4_36_2,2023-10-31T17:09:36.888Z,,0,,,NaN,,,,,,false,,,,208418.60000002384,208418.5,,208418.29999995232,,208422.513,8,400,,,
sequence,flow.Sequence,4_36,2023-10-31T17:09:36.888Z,,0,,,3212.7179999999935,completion,,,,,false,,,,208418.79999995232,208418.5,205189.115,205197.10000002384,205205.782,208422.513,8,400,,,
trial,html.Screen,4_37_0,2023-10-31T17:09:39.935Z,,0,1,,3042.386999976152,response,ISIC_0633835.JPG,7,ISIC_1782911.JPG,ISIC_1782911.JPG,false,0,keypress(z),500,211465.10000002384,211464.89999997616,208405.846,208418.89999997616,208422.513,211489.732,8,400,38,,ISIC_0633835.JPG
break,html.Screen,4_37_1,2023-10-31T17:09:39.935Z,,0,,,NaN,,,,,,false,,,,211465.79999995232,211465.60000002384,,211465.29999995232,,211489.732,8,400,,,
break_continue,html.Screen,4_37_2,2023-10-31T17:09:39.936Z,,0,,,NaN,,,,,,false,,,,211466.19999992847,211466.10000002384,,211466,,211489.732,8,400,,,
sequence,flow.Sequence,4_37,2023-10-31T17:09:39.936Z,,0,,,3043.5870000238356,completion,,,,,false,,,,211466.39999997616,211466.10000002384,208405.846,208418.89999997616,208422.513,211489.732,8,400,,,
trial,html.Screen,4_38_0,2023-10-31T17:09:44.918Z,,0,1,,4957.967999928485,response,ISIC_6557642.JPG,7,ISIC_4874581.JPG,ISIC_4874581.JPG,false,0,keypress(z),500,216447.89999997616,216447.69999992847,211473.065,211466.5,211489.732,216456.498,8,400,39,,ISIC_6557642.JPG
break,html.Screen,4_38_1,2023-10-31T17:09:44.919Z,,0,,,NaN,,,,,,false,,,,216448.5,216448.39999997616,,216448.19999992847,,216456.498,8,400,,,
break_continue,html.Screen,4_38_2,2023-10-31T17:09:44.919Z,,0,,,NaN,,,,,,false,,,,216448.69999992847,216448.69999992847,,216448.5,,216456.498,8,400,,,
sequence,flow.Sequence,4_38,2023-10-31T17:09:44.919Z,,0,,,4958.967999928485,completion,,,,,false,,,,216449,216448.69999992847,211473.065,211466.5,211489.732,216456.498,8,400,,,
trial,html.Screen,4_39_0,2023-10-31T17:09:48.045Z,,0,1,,3117.901999976166,response,ISIC_1251811.JPG,5,ISIC_0024427.JPG,ISIC_1251811.JPG,false,1,keypress(m),500,219574.69999992847,219574.39999997616,216439.831,216449.29999995232,216456.498,219589.894,8,400,40,,ISIC_0024427.JPG
break,html.Screen,4_39_1,2023-10-31T17:09:48.046Z,,0,,,NaN,,,,,,false,,,,219575.39999997616,219575.19999992847,,219574.79999995232,,219589.894,8,400,,,
break_continue,html.Screen,4_39_2,2023-10-31T17:09:48.046Z,,0,,,NaN,,,,,,false,,,,219575.69999992847,219575.60000002384,,219575.5,,219589.894,8,400,,,
sequence,flow.Sequence,4_39,2023-10-31T17:09:48.046Z,,0,,,3119.1020000238495,completion,,,,,false,,,,219576,219575.60000002384,216439.831,216449.29999995232,216456.498,219589.894,8,400,,,
trial,html.Screen,4_40_0,2023-10-31T17:09:51.768Z,,0,1,,3707.405999952316,response,ISIC_0014434.JPG,7,ISIC_0057192.JPG,ISIC_0014434.JPG,false,1,keypress(m),500,223297.60000002384,223297.29999995232,219573.227,219576.10000002384,219589.894,223307.111,8,400,41,,ISIC_0057192.JPG
break,html.Screen,4_40_1,2023-10-31T17:09:51.769Z,,0,,,NaN,,,,,,false,,,,223298.29999995232,223298.10000002384,,223297.79999995232,,223307.111,8,400,,,
break_continue,html.Screen,4_40_2,2023-10-31T17:09:51.769Z,,0,,,NaN,,,,,,false,,,,223298.69999992847,223298.60000002384,,223298.39999997616,,223307.111,8,400,,,
sequence,flow.Sequence,4_40,2023-10-31T17:09:51.770Z,,0,,,3708.7060000238416,completion,,,,,false,,,,223298.89999997616,223298.60000002384,219573.227,219576,219589.894,223307.111,8,400,,,
trial,html.Screen,4_41_0,2023-10-31T17:09:54.477Z,,0,1,,2698.7889999761537,response,ISIC_6052702.JPG,6,ISIC_4548632.JPG,ISIC_6052702.JPG,false,1,keypress(m),500,226006.10000002384,226005.89999997616,223290.444,223299,223307.111,226007.165,8,400,42,,ISIC_4548632.JPG
break,html.Screen,4_41_1,2023-10-31T17:09:54.478Z,,0,,,NaN,,,,,,false,,,,226006.79999995232,226006.69999992847,,226006.29999995232,,226007.165,8,400,,,
break_continue,html.Screen,4_41_2,2023-10-31T17:09:54.478Z,,0,,,NaN,,,,,,false,,,,226007.19999992847,226007,,226006.89999997616,,226007.165,8,400,,,
sequence,flow.Sequence,4_41,2023-10-31T17:09:54.478Z,,0,,,2699.8889999999956,completion,,,,,false,,,,226007.39999997616,226007,223290.444,223299,223307.111,226007.165,8,400,,,
trial,html.Screen,4_42_0,2023-10-31T17:09:57.345Z,,0,1,,2866.834999999992,response,ISIC_7035246.JPG,8,ISIC_0004015.JPG,ISIC_0004015.JPG,false,0,keypress(z),500,228874.29999995232,228874,225990.498,226007.5,226007.165,228890.556,8,400,43,,ISIC_7035246.JPG
break,html.Screen,4_42_1,2023-10-31T17:09:57.346Z,,0,,,NaN,,,,,,false,,,,228875,228874.79999995232,,228874.39999997616,,228890.556,8,400,,,
break_continue,html.Screen,4_42_2,2023-10-31T17:09:57.346Z,,0,,,NaN,,,,,,false,,,,228875.39999997616,228875.29999995232,,228875.10000002384,,228890.556,8,400,,,
sequence,flow.Sequence,4_42,2023-10-31T17:09:57.347Z,,0,,,2868.134999952308,completion,,,,,false,,,,228875.5,228875.29999995232,225990.498,226007.39999997616,226007.165,228890.556,8,400,,,
trial,html.Screen,4_43_0,2023-10-31T17:10:00.294Z,,0,1,,2932.3439999761467,response,ISIC_7632525.JPG,7,ISIC_6017985.JPG,ISIC_6017985.JPG,false,0,keypress(z),500,231823.19999992847,231822.89999997616,228873.889,228875.69999992847,228890.556,231841.106,8,400,44,,ISIC_7632525.JPG
break,html.Screen,4_43_1,2023-10-31T17:10:00.295Z,,0,,,NaN,,,,,,false,,,,231823.89999997616,231823.69999992847,,231823.39999997616,,231841.106,8,400,,,
break_continue,html.Screen,4_43_2,2023-10-31T17:10:00.296Z,,0,,,NaN,,,,,,false,,,,231824.29999995232,231824.19999992847,,231824,,231841.106,8,400,,,
sequence,flow.Sequence,4_43,2023-10-31T17:10:00.296Z,,0,,,2933.643999928463,completion,,,,,false,,,,231824.5,231824.19999992847,228873.889,228875.69999992847,228890.556,231841.106,8,400,,,
trial,html.Screen,4_44_0,2023-10-31T17:10:03.021Z,,0,1,,2708.5939999284747,response,ISIC_1513720.JPG,5,ISIC_0028071.JPG,ISIC_0028071.JPG,false,0,keypress(z),500,234549.89999997616,234549.69999992847,231823.948,231824.60000002384,231841.106,234557.827,8,400,45,,ISIC_1513720.JPG
break,html.Screen,4_44_1,2023-10-31T17:10:03.022Z,,0,,,NaN,,,,,,false,,,,234550.60000002384,234550.39999997616,,234550.10000002384,,234557.827,8,400,,,
break_continue,html.Screen,4_44_2,2023-10-31T17:10:03.022Z,,0,,,NaN,,,,,,false,,,,234551,234550.89999997616,,234550.69999992847,,234557.827,8,400,,,
sequence,flow.Sequence,4_44,2023-10-31T17:10:03.023Z,,0,,,2709.7939999761584,completion,,,,,false,,,,234551.19999992847,234550.89999997616,231823.948,231824.60000002384,231841.106,234557.827,8,400,,,
trial,html.Screen,4_45_0,2023-10-31T17:10:05.571Z,,0,1,,2541.872999928484,response,ISIC_6507640.JPG,8,ISIC_0025956.JPG,ISIC_6507640.JPG,false,1,keypress(m),500,237099.89999997616,237099.69999992847,234541.16,234551.39999997616,234557.827,237107.878,8,400,46,,ISIC_0025956.JPG
break,html.Screen,4_45_1,2023-10-31T17:10:05.572Z,,0,,,NaN,,,,,,false,,,,237100.60000002384,237100.5,,237100.19999992847,,237107.878,8,400,,,
break_continue,html.Screen,4_45_2,2023-10-31T17:10:05.573Z,,0,,,NaN,,,,,,false,,,,237101.10000002384,237100.89999997616,,237100.79999995232,,237107.878,8,400,,,
sequence,flow.Sequence,4_45,2023-10-31T17:10:05.573Z,,0,,,2543.072999976168,completion,,,,,false,,,,237101.19999992847,237100.89999997616,234541.16,234551.29999995232,234557.827,237107.878,8,400,,,
trial,html.Screen,4_46_0,2023-10-31T17:10:08.218Z,,0,1,,2638.122000000003,response,ISIC_0059248.JPG,6,ISIC_3306135.JPG,ISIC_3306135.JPG,false,0,keypress(z),500,239746.29999995232,239746,237091.211,237101.39999997616,237107.878,239757.931,8,400,47,,ISIC_0059248.JPG
break,html.Screen,4_46_1,2023-10-31T17:10:08.219Z,,0,,,NaN,,,,,,false,,,,239747.10000002384,239746.79999995232,,239746.5,,239757.931,8,400,,,
break_continue,html.Screen,4_46_2,2023-10-31T17:10:08.219Z,,0,,,NaN,,,,,,false,,,,239747.5,239747.29999995232,,239747.19999992847,,239757.931,8,400,,,
sequence,flow.Sequence,4_46,2023-10-31T17:10:08.219Z,,0,,,2639.4219999523193,completion,,,,,false,,,,239747.69999992847,239747.29999995232,237091.211,237101.29999995232,237107.878,239757.931,8,400,,,
trial,html.Screen,4_47_0,2023-10-31T17:10:11.124Z,,0,1,,2893.9689999761467,response,ISIC_0033512.JPG,8,ISIC_3981425.JPG,ISIC_3981425.JPG,false,0,keypress(z),500,242652.10000002384,242651.89999997616,239741.264,239747.89999997616,239757.931,242658.465,8,400,48,,ISIC_0033512.JPG
break,html.Screen,4_47_1,2023-10-31T17:10:11.125Z,,0,,,NaN,,,,,,false,,,,242652.79999995232,242652.60000002384,,242652.29999995232,,242658.465,8,400,,,
break_continue,html.Screen,4_47_2,2023-10-31T17:10:11.125Z,,0,,,NaN,,,,,,false,,,,242653.19999992847,242653.10000002384,,242652.89999997616,,242658.465,8,400,,,
sequence,flow.Sequence,4_47,2023-10-31T17:10:11.125Z,,0,,,2895.1690000238304,completion,,,,,false,,,,242653.39999997616,242653.10000002384,239741.264,239747.79999995232,239757.931,242658.465,8,400,,,
trial,html.Screen,4_48_0,2023-10-31T17:10:15.545Z,,0,1,,4414.234999928478,response,ISIC_0013243.JPG,8,ISIC_0029013.JPG,ISIC_0013243.JPG,false,1,keypress(m),500,247072.89999997616,247072.69999992847,242641.798,242653.5,242658.465,247091.887,8,400,49,,ISIC_0029013.JPG
break,html.Screen,4_48_1,2023-10-31T17:10:15.546Z,,0,,,NaN,,,,,,false,,,,247073.5,247073.39999997616,,247073.10000002384,,247091.887,8,400,,,
break_continue,html.Screen,4_48_2,2023-10-31T17:10:15.546Z,,0,,,NaN,,,,,,false,,,,247073.89999997616,247073.79999995232,,247073.69999992847,,247091.887,8,400,,,
sequence,flow.Sequence,4_48,2023-10-31T17:10:15.546Z,,0,,,4415.33499995232,completion,,,,,false,,,,247074.10000002384,247073.79999995232,242641.798,242653.39999997616,242658.465,247091.887,8,400,,,
trial,html.Screen,4_49_0,2023-10-31T17:10:19.150Z,,0,1,,3585.713000023854,response,ISIC_0061343.JPG,7,ISIC_2974214.JPG,ISIC_0061343.JPG,false,1,keypress(m),500,250677.79999995232,250677.60000002384,247075.22,247074.19999992847,247091.887,250691.959,8,400,50,,ISIC_2974214.JPG
break,html.Screen,4_49_1,2023-10-31T17:10:29.153Z,,0,,,10000.676000000007,timeout,,,,,false,,,,260680.10000002384,260675.968,250675.292,250678,250691.959,260692.635,8,400,,,
break_continue,html.Screen,4_49_2,2023-10-31T17:10:30.370Z,,0,,,1189.164999952307,response,,,,,false,continue,keypress(Space),,261897.79999995232,261881.79999995232,260675.968,260680.19999992847,260692.635,261909.326,8,400,,,
sequence,flow.Sequence,4_49,2023-10-31T17:10:30.370Z,,0,,,14789.912999952328,completion,,,,,false,,,,261898,261881.79999995232,247075.22,247074.19999992847,247091.887,261909.326,8,400,,,
trial,html.Screen,4_50_0,2023-10-31T17:10:34.023Z,,0,2,,3639.673999999999,response,ISIC_1795529.JPG,9,ISIC_5650816.JPG,ISIC_1795529.JPG,false,1,keypress(m),500,265550.10000002384,265549,261892.659,261898,261909.326,265559.876,8,400,1,,ISIC_5650816.JPG
break,html.Screen,4_50_1,2023-10-31T17:10:34.023Z,,0,,,NaN,,,,,,false,,,,265550.7999999523,265550.60000002384,,265550.2999999523,,265559.876,8,400,,,
break_continue,html.Screen,4_50_2,2023-10-31T17:10:34.024Z,,0,,,NaN,,,,,,false,,,,265551.1999999285,265551.10000002384,,265550.89999997616,,265559.876,8,400,,,
sequence,flow.Sequence,4_50,2023-10-31T17:10:34.024Z,,0,,,3641.774000023841,completion,,,,,false,,,,265551.39999997616,265551.10000002384,261892.659,261898,261909.326,265559.876,8,400,,,
trial,html.Screen,4_51_0,2023-10-31T17:10:37.163Z,,0,2,,3130.523999976169,response,ISIC_0029013.JPG,7,ISIC_8978290.JPG,ISIC_8978290.JPG,false,0,keypress(z),500,268690.6999999285,268690.39999997616,265543.209,265551.5,265559.876,268693.272,8,400,2,,ISIC_0029013.JPG
break,html.Screen,4_51_1,2023-10-31T17:10:37.164Z,,0,,,NaN,,,,,,false,,,,268691.39999997616,268691.10000002384,,268690.89999997616,,268693.272,8,400,,,
break_continue,html.Screen,4_51_2,2023-10-31T17:10:37.164Z,,0,,,NaN,,,,,,false,,,,268691.6999999285,268691.60000002384,,268691.39999997616,,268693.272,8,400,,,
sequence,flow.Sequence,4_51,2023-10-31T17:10:37.165Z,,0,,,3131.7240000238526,completion,,,,,false,,,,268691.89999997616,268691.60000002384,265543.209,265551.5,265559.876,268693.272,8,400,,,
trial,html.Screen,4_52_0,2023-10-31T17:10:40.159Z,,0,2,,2992.627999976161,response,ISIC_1962845.JPG,7,ISIC_0061077.JPG,ISIC_1962845.JPG,false,1,keypress(m),500,271686.10000002384,271685.89999997616,268676.605,268692,268693.272,271693.332,8,400,3,,ISIC_0061077.JPG
break,html.Screen,4_52_1,2023-10-31T17:10:40.160Z,,0,,,NaN,,,,,,false,,,,271686.6999999285,271686.60000002384,,271686.1999999285,,271693.332,8,400,,,
break_continue,html.Screen,4_52_2,2023-10-31T17:10:40.160Z,,0,,,NaN,,,,,,false,,,,271687.10000002384,271687,,271686.89999997616,,271693.332,8,400,,,
sequence,flow.Sequence,4_52,2023-10-31T17:10:40.160Z,,0,,,2993.728000000003,completion,,,,,false,,,,271687.2999999523,271687,268676.605,268691.89999997616,268693.272,271693.332,8,400,,,
trial,html.Screen,4_53_0,2023-10-31T17:10:43.237Z,,0,2,,3070.768000023847,response,ISIC_1939413.JPG,7,ISIC_0025105.JPG,ISIC_0025105.JPG,false,0,keypress(z),500,274764.2999999523,274764.10000002384,271676.665,271687.39999997616,271693.332,274777.239,8,400,4,,ISIC_1939413.JPG
break,html.Screen,4_53_1,2023-10-31T17:10:43.238Z,,0,,,NaN,,,,,,false,,,,274765,274764.7999999523,,274764.5,,274777.239,8,400,,,
break_continue,html.Screen,4_53_2,2023-10-31T17:10:43.238Z,,0,,,NaN,,,,,,false,,,,274765.39999997616,274765.2999999523,,274765.1999999285,,274777.239,8,400,,,
sequence,flow.Sequence,4_53,2023-10-31T17:10:43.239Z,,0,,,3071.9679999523214,completion,,,,,false,,,,274765.60000002384,274765.2999999523,271676.665,271687.39999997616,271693.332,274777.239,8,400,,,
trial,html.Screen,4_54_0,2023-10-31T17:10:46.542Z,,0,2,,3290.960999928473,response,ISIC_0034159.JPG,6,ISIC_0010923.JPG,ISIC_0034159.JPG,false,1,keypress(m),500,278068.60000002384,278068.1999999285,274760.572,274765.7999999523,274777.239,278077.305,8,400,5,,ISIC_0010923.JPG
break,html.Screen,4_54_1,2023-10-31T17:10:46.542Z,,0,,,NaN,,,,,,false,,,,278069.2999999523,278069.10000002384,,278068.7999999523,,278077.305,8,400,,,
break_continue,html.Screen,4_54_2,2023-10-31T17:10:46.543Z,,0,,,NaN,,,,,,false,,,,278069.6999999285,278069.5,,278069.5,,278077.305,8,400,,,
sequence,flow.Sequence,4_54,2023-10-31T17:10:46.543Z,,0,,,3292.2609999999986,completion,,,,,false,,,,278069.89999997616,278069.5,274760.572,274765.6999999285,274777.239,278077.305,8,400,,,
trial,html.Screen,4_55_0,2023-10-31T17:10:49.897Z,,0,2,,3345.8949999284814,response,ISIC_0026868.JPG,8,ISIC_0032892.JPG,ISIC_0026868.JPG,false,1,keypress(m),500,281423.5,281423.1999999285,278060.638,278070.10000002384,278077.305,281427.372,8,400,6,,ISIC_0032892.JPG
break,html.Screen,4_55_1,2023-10-31T17:10:49.897Z,,0,,,NaN,,,,,,false,,,,281424.10000002384,281424,,281423.6999999285,,281427.372,8,400,,,
break_continue,html.Screen,4_55_2,2023-10-31T17:10:49.898Z,,0,,,NaN,,,,,,false,,,,281424.60000002384,281424.39999997616,,281424.39999997616,,281427.372,8,400,,,
sequence,flow.Sequence,4_55,2023-10-31T17:10:49.898Z,,0,,,3347.094999976165,completion,,,,,false,,,,281424.7999999523,281424.39999997616,278060.638,278070,278077.305,281427.372,8,400,,,
trial,html.Screen,4_56_0,2023-10-31T17:10:52.988Z,,0,2,,3087.527999976184,response,ISIC_5955057.JPG,8,ISIC_5481211.JPG,ISIC_5955057.JPG,false,1,keypress(m),500,284515.1999999285,284514.89999997616,281410.705,281424.89999997616,281427.372,284527.92,8,400,7,,ISIC_5481211.JPG
break,html.Screen,4_56_1,2023-10-31T17:10:52.989Z,,0,,,NaN,,,,,,false,,,,284515.89999997616,284515.6999999285,,284515.39999997616,,284527.92,8,400,,,
break_continue,html.Screen,4_56_2,2023-10-31T17:10:52.990Z,,0,,,NaN,,,,,,false,,,,284516.2999999523,284516.1999999285,,284516.10000002384,,284527.92,8,400,,,
sequence,flow.Sequence,4_56,2023-10-31T17:10:52.990Z,,0,,,3088.8279999285005,completion,,,,,false,,,,284516.5,284516.1999999285,281410.705,281424.89999997616,281427.372,284527.92,8,400,,,
trial,html.Screen,4_57_0,2023-10-31T17:10:56.772Z,,0,2,,3770.180000023858,response,ISIC_0027646.JPG,6,ISIC_4024062.JPG,ISIC_0027646.JPG,false,1,keypress(m),500,288298.39999997616,288298.10000002384,284511.253,284516.6999999285,284527.92,288311.329,8,400,8,,ISIC_4024062.JPG
break,html.Screen,4_57_1,2023-10-31T17:10:56.773Z,,0,,,NaN,,,,,,false,,,,288299.10000002384,288298.89999997616,,288298.60000002384,,288311.329,8,400,,,
break_continue,html.Screen,4_57_2,2023-10-31T17:10:56.773Z,,0,,,NaN,,,,,,false,,,,288299.5,288299.5,,288299.2999999523,,288311.329,8,400,,,
sequence,flow.Sequence,4_57,2023-10-31T17:10:56.773Z,,0,,,3771.5800000000163,completion,,,,,false,,,,288299.7999999523,288299.5,284511.253,284516.60000002384,284527.92,288311.329,8,400,,,
trial,html.Screen,4_58_0,2023-10-31T17:10:59.688Z,,0,2,,2902.4709999522893,response,ISIC_0071245.JPG,8,ISIC_1530981.JPG,ISIC_0071245.JPG,false,1,keypress(m),500,291214,291213.7999999523,288294.662,288299.89999997616,288311.329,291228.054,8,400,9,,ISIC_1530981.JPG
break,html.Screen,4_58_1,2023-10-31T17:10:59.688Z,,0,,,NaN,,,,,,false,,,,291214.6999999285,291214.5,,291214.2999999523,,291228.054,8,400,,,
break_continue,html.Screen,4_58_2,2023-10-31T17:10:59.689Z,,0,,,NaN,,,,,,false,,,,291215.10000002384,291215,,291214.89999997616,,291228.054,8,400,,,
sequence,flow.Sequence,4_58,2023-10-31T17:10:59.689Z,,0,,,2903.670999999973,completion,,,,,false,,,,291215.39999997616,291215,288294.662,288299.89999997616,288311.329,291228.054,8,400,,,
trial,html.Screen,4_59_0,2023-10-31T17:11:04.012Z,,0,2,,4310.546000023838,response,ISIC_0679553.JPG,4,ISIC_0010916.JPG,ISIC_0010916.JPG,false,0,keypress(z),500,295538.7999999523,295538.60000002384,291211.387,291215.5,291228.054,295545.349,8,400,10,,ISIC_0679553.JPG
break,html.Screen,4_59_1,2023-10-31T17:11:04.013Z,,0,,,NaN,,,,,,false,,,,295539.5,295539.2999999523,,295539,,295545.349,8,400,,,
break_continue,html.Screen,4_59_2,2023-10-31T17:11:04.013Z,,0,,,NaN,,,,,,false,,,,295539.89999997616,295539.6999999285,,295539.60000002384,,295545.349,8,400,,,
sequence,flow.Sequence,4_59,2023-10-31T17:11:04.014Z,,0,,,4311.645999928471,completion,,,,,false,,,,295540.1999999285,295539.6999999285,291211.387,291215.5,291228.054,295545.349,8,400,,,
trial,html.Screen,4_60_0,2023-10-31T17:11:07.618Z,,0,2,,3598.2510000238544,response,ISIC_8674332.JPG,5,ISIC_5658900.JPG,ISIC_8674332.JPG,false,1,keypress(m),500,299143.7999999523,299143.60000002384,295528.682,295540.2999999523,295545.349,299145.421,8,400,11,,ISIC_5658900.JPG
break,html.Screen,4_60_1,2023-10-31T17:11:07.618Z,,0,,,NaN,,,,,,false,,,,299144.60000002384,299144.39999997616,,299144.10000002384,,299145.421,8,400,,,
break_continue,html.Screen,4_60_2,2023-10-31T17:11:07.619Z,,0,,,NaN,,,,,,false,,,,299144.89999997616,299144.7999999523,,299144.6999999285,,299145.421,8,400,,,
sequence,flow.Sequence,4_60,2023-10-31T17:11:07.619Z,,0,,,3599.450999952329,completion,,,,,false,,,,299145.1999999285,299144.7999999523,295528.682,295540.2999999523,295545.349,299145.421,8,400,,,
trial,html.Screen,4_61_0,2023-10-31T17:11:11.880Z,,0,2,,4260.278999928501,response,ISIC_0032841.JPG,6,ISIC_4099428.JPG,ISIC_0032841.JPG,false,1,keypress(m),500,303405.89999997616,303405.6999999285,299128.754,299145.2999999523,299145.421,303412.173,8,400,12,,ISIC_4099428.JPG
break,html.Screen,4_61_1,2023-10-31T17:11:11.880Z,,0,,,NaN,,,,,,false,,,,303406.60000002384,303406.39999997616,,303406.10000002384,,303412.173,8,400,,,
break_continue,html.Screen,4_61_2,2023-10-31T17:11:11.881Z,,0,,,NaN,,,,,,false,,,,303407,303406.89999997616,,303406.7999999523,,303412.173,8,400,,,
sequence,flow.Sequence,4_61,2023-10-31T17:11:11.881Z,,0,,,4261.478999976185,completion,,,,,false,,,,303407.1999999285,303406.89999997616,299128.754,299145.1999999285,299145.421,303412.173,8,400,,,
trial,html.Screen,4_62_0,2023-10-31T17:11:14.607Z,,0,2,,2721.0269999284646,response,ISIC_0059082.JPG,5,ISIC_5010212.JPG,ISIC_5010212.JPG,false,0,keypress(z),500,306133.5,306133.1999999285,303395.506,303407.2999999523,303412.173,306146.038,8,400,13,,ISIC_0059082.JPG
break,html.Screen,4_62_1,2023-10-31T17:11:14.608Z,,0,,,NaN,,,,,,false,,,,306134.39999997616,306134,,306133.7999999523,,306146.038,8,400,,,
break_continue,html.Screen,4_62_2,2023-10-31T17:11:14.609Z,,0,,,NaN,,,,,,false,,,,306134.7999999523,306134.60000002384,,306134.60000002384,,306146.038,8,400,,,
sequence,flow.Sequence,4_62,2023-10-31T17:11:14.609Z,,0,,,2722.427000023832,completion,,,,,false,,,,306135,306134.60000002384,303395.506,303407.2999999523,303412.173,306146.038,8,400,,,
trial,html.Screen,4_63_0,2023-10-31T17:11:17.467Z,,0,2,,2847.0620000238414,response,ISIC_5721110.JPG,8,ISIC_3899323.JPG,ISIC_5721110.JPG,false,1,keypress(m),500,308993.2999999523,308993.10000002384,306129.371,306135.1999999285,306146.038,309012.762,8,400,14,,ISIC_3899323.JPG
break,html.Screen,4_63_1,2023-10-31T17:11:17.468Z,,0,,,NaN,,,,,,false,,,,308994,308993.89999997616,,308993.60000002384,,309012.762,8,400,,,
break_continue,html.Screen,4_63_2,2023-10-31T17:11:17.468Z,,0,,,NaN,,,,,,false,,,,308994.39999997616,308994.1999999285,,308994.10000002384,,309012.762,8,400,,,
sequence,flow.Sequence,4_63,2023-10-31T17:11:17.469Z,,0,,,2848.161999928474,completion,,,,,false,,,,308994.60000002384,308994.1999999285,306129.371,306135.10000002384,306146.038,309012.762,8,400,,,
trial,html.Screen,4_64_0,2023-10-31T17:11:20.293Z,,0,2,,2805.738000000012,response,ISIC_8397077.JPG,7,ISIC_8712559.JPG,ISIC_8712559.JPG,false,0,keypress(z),500,311818.6999999285,311818.5,308996.095,308994.7999999523,309012.762,311829.485,8,400,15,,ISIC_8397077.JPG
break,html.Screen,4_64_1,2023-10-31T17:11:20.293Z,,0,,,NaN,,,,,,false,,,,311819.39999997616,311819.1999999285,,311818.89999997616,,311829.485,8,400,,,
break_continue,html.Screen,4_64_2,2023-10-31T17:11:20.294Z,,0,,,NaN,,,,,,false,,,,311819.7999999523,311819.60000002384,,311819.5,,311829.485,8,400,,,
sequence,flow.Sequence,4_64,2023-10-31T17:11:20.294Z,,0,,,2806.838000023854,completion,,,,,false,,,,311819.89999997616,311819.60000002384,308996.095,308994.6999999285,309012.762,311829.485,8,400,,,
trial,html.Screen,4_65_0,2023-10-31T17:11:23.150Z,,0,2,,2846.3149999523303,response,ISIC_9331097.JPG,8,ISIC_4329176.JPG,ISIC_4329176.JPG,false,0,keypress(z),500,314676,314675.7999999523,311812.818,311820.10000002384,311829.485,314679.542,8,400,16,,ISIC_9331097.JPG
break,html.Screen,4_65_1,2023-10-31T17:11:23.151Z,,0,,,NaN,,,,,,false,,,,314676.60000002384,314676.5,,314676.1999999285,,314679.542,8,400,,,
break_continue,html.Screen,4_65_2,2023-10-31T17:11:23.151Z,,0,,,NaN,,,,,,false,,,,314677.10000002384,314676.89999997616,,314676.7999999523,,314679.542,8,400,,,
sequence,flow.Sequence,4_65,2023-10-31T17:11:23.151Z,,0,,,2847.414999976172,completion,,,,,false,,,,314677.2999999523,314676.89999997616,311812.818,311820.10000002384,311829.485,314679.542,8,400,,,
trial,html.Screen,4_66_0,2023-10-31T17:11:26.309Z,,0,2,,3155.058000023826,response,ISIC_0026244.JPG,8,ISIC_5510604.JPG,ISIC_5510604.JPG,false,0,keypress(z),500,317835,317834.60000002384,314662.875,314677.5,314679.542,317846.759,8,400,17,,ISIC_0026244.JPG
break,html.Screen,4_66_1,2023-10-31T17:11:26.311Z,,0,,,NaN,,,,,,false,,,,317836.2999999523,317835.7999999523,,317835.39999997616,,317846.759,8,400,,,
break_continue,html.Screen,4_66_2,2023-10-31T17:11:26.311Z,,0,,,NaN,,,,,,false,,,,317836.7999999523,317836.60000002384,,317836.5,,317846.759,8,400,,,
sequence,flow.Sequence,4_66,2023-10-31T17:11:26.311Z,,0,,,3157.058000023826,completion,,,,,false,,,,317837.10000002384,317836.60000002384,314662.875,314677.39999997616,314679.542,317846.759,8,400,,,
trial,html.Screen,4_67_0,2023-10-31T17:11:29.067Z,,0,2,,2746.0409999522963,response,ISIC_0067274.JPG,5,ISIC_0010895.JPG,ISIC_0067274.JPG,false,1,keypress(m),500,320593.10000002384,320592.7999999523,317830.092,317837.10000002384,317846.759,320596.814,8,400,18,,ISIC_0010895.JPG
break,html.Screen,4_67_1,2023-10-31T17:11:29.068Z,,0,,,NaN,,,,,,false,,,,320593.7999999523,320593.5,,320593.1999999285,,320596.814,8,400,,,
break_continue,html.Screen,4_67_2,2023-10-31T17:11:29.069Z,,0,,,NaN,,,,,,false,,,,320594.2999999523,320594.10000002384,,320593.89999997616,,320596.814,8,400,,,
sequence,flow.Sequence,4_67,2023-10-31T17:11:29.069Z,,0,,,2747.341000023822,completion,,,,,false,,,,320594.39999997616,320594.10000002384,317830.092,317837.10000002384,317846.759,320596.814,8,400,,,
trial,html.Screen,4_68_0,2023-10-31T17:11:31.841Z,,0,2,,2769.185999999987,response,ISIC_0033055.JPG,7,ISIC_5797404.JPG,ISIC_5797404.JPG,false,0,keypress(z),500,323366.2999999523,323366,320580.147,320594.60000002384,320596.814,323380.203,8,400,19,,ISIC_0033055.JPG
break,html.Screen,4_68_1,2023-10-31T17:11:31.841Z,,0,,,NaN,,,,,,false,,,,323367,323366.7999999523,,323366.5,,323380.203,8,400,,,
break_continue,html.Screen,4_68_2,2023-10-31T17:11:31.842Z,,0,,,NaN,,,,,,false,,,,323367.39999997616,323367.1999999285,,323367.10000002384,,323380.203,8,400,,,
sequence,flow.Sequence,4_68,2023-10-31T17:11:31.842Z,,0,,,2770.3859999284614,completion,,,,,false,,,,323367.60000002384,323367.1999999285,320580.147,320594.60000002384,320596.814,323380.203,8,400,,,
trial,html.Screen,4_69_0,2023-10-31T17:11:34.744Z,,0,2,,2889.2970000000205,response,ISIC_8274622.JPG,7,ISIC_0026470.JPG,ISIC_0026470.JPG,false,0,keypress(z),500,326269.6999999285,326269.5,323363.536,323368.89999997616,323380.203,326280.744,8,400,20,,ISIC_8274622.JPG
break,html.Screen,4_69_1,2023-10-31T17:11:34.745Z,,0,,,NaN,,,,,,false,,,,326270.39999997616,326270.1999999285,,326269.89999997616,,326280.744,8,400,,,
break_continue,html.Screen,4_69_2,2023-10-31T17:11:34.745Z,,0,,,NaN,,,,,,false,,,,326270.7999999523,326270.6999999285,,326270.60000002384,,326280.744,8,400,,,
sequence,flow.Sequence,4_69,2023-10-31T17:11:34.745Z,,0,,,2890.496999928495,completion,,,,,false,,,,326271,326270.6999999285,323363.536,323368.89999997616,323380.203,326280.744,8,400,,,
trial,html.Screen,4_70_0,2023-10-31T17:11:37.644Z,,0,2,,2888.5559999523102,response,ISIC_8206667.JPG,5,ISIC_4023381.JPG,ISIC_4023381.JPG,false,0,keypress(z),500,329169.5,329169.2999999523,326264.077,326271.10000002384,326280.744,329180.802,8,400,21,,ISIC_8206667.JPG
break,html.Screen,4_70_1,2023-10-31T17:11:37.645Z,,0,,,NaN,,,,,,false,,,,329170.1999999285,329170,,329169.6999999285,,329180.802,8,400,,,
break_continue,html.Screen,4_70_2,2023-10-31T17:11:37.645Z,,0,,,NaN,,,,,,false,,,,329170.60000002384,329170.5,,329170.2999999523,,329180.802,8,400,,,
sequence,flow.Sequence,4_70,2023-10-31T17:11:37.645Z,,0,,,2889.755999999994,completion,,,,,false,,,,329170.7999999523,329170.5,326264.077,326271,326280.744,329180.802,8,400,,,
trial,html.Screen,4_71_0,2023-10-31T17:11:40.416Z,,0,2,,2760.197999999975,response,ISIC_0070551.JPG,8,ISIC_0032780.JPG,ISIC_0032780.JPG,false,0,keypress(z),500,331941.2999999523,331941,329164.135,329170.89999997616,329180.802,331947.524,8,400,22,,ISIC_0070551.JPG
break,html.Screen,4_71_1,2023-10-31T17:11:40.417Z,,0,,,NaN,,,,,,false,,,,331942.10000002384,331941.89999997616,,331941.60000002384,,331947.524,8,400,,,
break_continue,html.Screen,4_71_2,2023-10-31T17:11:40.417Z,,0,,,NaN,,,,,,false,,,,331942.39999997616,331942.39999997616,,331942.1999999285,,331947.524,8,400,,,
sequence,flow.Sequence,4_71,2023-10-31T17:11:40.417Z,,0,,,2761.597999976133,completion,,,,,false,,,,331942.6999999285,331942.39999997616,329164.135,329170.7999999523,329180.802,331947.524,8,400,,,
trial,html.Screen,4_72_0,2023-10-31T17:11:43.172Z,,0,2,,2749.576000023866,response,ISIC_0032685.JPG,8,ISIC_1306790.JPG,ISIC_1306790.JPG,false,0,keypress(z),500,334697.39999997616,334697.10000002384,331930.857,331942.7999999523,331947.524,334714.246,8,400,23,,ISIC_0032685.JPG
break,html.Screen,4_72_1,2023-10-31T17:11:43.173Z,,0,,,NaN,,,,,,false,,,,334698.10000002384,334697.89999997616,,334697.5,,334714.246,8,400,,,
break_continue,html.Screen,4_72_2,2023-10-31T17:11:43.173Z,,0,,,NaN,,,,,,false,,,,334698.5,334698.39999997616,,334698.1999999285,,334714.246,8,400,,,
sequence,flow.Sequence,4_72,2023-10-31T17:11:43.173Z,,0,,,2750.8759999761824,completion,,,,,false,,,,334698.60000002384,334698.39999997616,331930.857,331942.7999999523,331947.524,334714.246,8,400,,,
trial,html.Screen,4_73_0,2023-10-31T17:11:46.523Z,,0,2,,3334.0539999523317,response,ISIC_9022005.JPG,6,ISIC_0062160.JPG,ISIC_9022005.JPG,false,1,keypress(m),500,338048.5,338048.2999999523,334697.579,334698.7999999523,334714.246,338064.828,8,400,24,,ISIC_0062160.JPG
break,html.Screen,4_73_1,2023-10-31T17:11:46.524Z,,0,,,NaN,,,,,,false,,,,338049.1999999285,338049,,338048.7999999523,,338064.828,8,400,,,
break_continue,html.Screen,4_73_2,2023-10-31T17:11:46.525Z,,0,,,NaN,,,,,,false,,,,338049.60000002384,338049.5,,338049.39999997616,,338064.828,8,400,,,
sequence,flow.Sequence,4_73,2023-10-31T17:11:46.525Z,,0,,,3335.2540000000154,completion,,,,,false,,,,338049.89999997616,338049.5,334697.579,334698.6999999285,334714.246,338064.828,8,400,,,
trial,html.Screen,4_74_0,2023-10-31T17:11:49.280Z,,0,2,,2739.971999952337,response,ISIC_1358527.JPG,8,ISIC_8820668.JPG,ISIC_8820668.JPG,false,0,keypress(z),500,340805,340804.7999999523,338048.161,338050,338064.828,340814.883,8,400,25,,ISIC_1358527.JPG
break,html.Screen,4_74_1,2023-10-31T17:11:49.281Z,,0,,,NaN,,,,,,false,,,,340805.6999999285,340805.5,,340805.1999999285,,340814.883,8,400,,,
break_continue,html.Screen,4_74_2,2023-10-31T17:11:49.281Z,,0,,,NaN,,,,,,false,,,,340806,340805.89999997616,,340805.89999997616,,340814.883,8,400,,,
sequence,flow.Sequence,4_74,2023-10-31T17:11:49.281Z,,0,,,2741.0719999761786,completion,,,,,false,,,,340806.1999999285,340805.89999997616,338048.161,338050,338064.828,340814.883,8,400,,,
trial,html.Screen,4_75_0,2023-10-31T17:11:52.102Z,,0,2,,2811.5169999761856,response,ISIC_5737704.JPG,8,ISIC_7973296.JPG,ISIC_7973296.JPG,false,0,keypress(z),500,343626.60000002384,343626.39999997616,340798.216,340806.39999997616,340814.883,343631.606,8,400,26,,ISIC_5737704.JPG
break,html.Screen,4_75_1,2023-10-31T17:11:52.102Z,,0,,,NaN,,,,,,false,,,,343627.2999999523,343627.1999999285,,343626.7999999523,,343631.606,8,400,,,
break_continue,html.Screen,4_75_2,2023-10-31T17:11:52.103Z,,0,,,NaN,,,,,,false,,,,343627.6999999285,343627.5,,343627.5,,343631.606,8,400,,,
sequence,flow.Sequence,4_75,2023-10-31T17:11:52.103Z,,0,,,2812.6170000000275,completion,,,,,false,,,,343627.89999997616,343627.5,340798.216,340806.39999997616,340814.883,343631.606,8,400,,,
trial,html.Screen,4_76_0,2023-10-31T17:11:55.068Z,,0,2,,2961.393999999971,response,ISIC_4614129.JPG,6,ISIC_3975133.JPG,ISIC_4614129.JPG,false,1,keypress(m),500,346593.1999999285,346593,343614.939,343628,343631.606,346598.825,8,400,27,,ISIC_3975133.JPG
break,html.Screen,4_76_1,2023-10-31T17:11:55.069Z,,0,,,NaN,,,,,,false,,,,346593.89999997616,346593.6999999285,,346593.39999997616,,346598.825,8,400,,,
break_continue,html.Screen,4_76_2,2023-10-31T17:11:55.069Z,,0,,,NaN,,,,,,false,,,,346594.2999999523,346594.1999999285,,346594.10000002384,,346598.825,8,400,,,
sequence,flow.Sequence,4_76,2023-10-31T17:11:55.070Z,,0,,,2962.5939999284456,completion,,,,,false,,,,346594.5,346594.1999999285,343614.939,343628,343631.606,346598.825,8,400,,,
trial,html.Screen,4_77_0,2023-10-31T17:11:58.162Z,,0,2,,3088.0749999761465,response,ISIC_8505412.JPG,5,ISIC_7824688.JPG,ISIC_8505412.JPG,false,1,keypress(m),500,349687.1999999285,349686.89999997616,346582.158,346594.60000002384,346598.825,349698.887,8,400,28,,ISIC_7824688.JPG
break,html.Screen,4_77_1,2023-10-31T17:11:58.163Z,,0,,,NaN,,,,,,false,,,,349687.7999999523,349687.6999999285,,349687.39999997616,,349698.887,8,400,,,
break_continue,html.Screen,4_77_2,2023-10-31T17:11:58.163Z,,0,,,NaN,,,,,,false,,,,349688.2999999523,349688.10000002384,,349688,,349698.887,8,400,,,
sequence,flow.Sequence,4_77,2023-10-31T17:11:58.164Z,,0,,,3089.27500002383,completion,,,,,false,,,,349688.5,349688.10000002384,346582.158,346594.60000002384,346598.825,349698.887,8,400,,,
trial,html.Screen,4_78_0,2023-10-31T17:12:00.810Z,,0,2,,2635.4129999523284,response,ISIC_0026166.JPG,7,ISIC_0032875.JPG,ISIC_0032875.JPG,false,0,keypress(z),500,352334.5,352334.2999999523,349682.22,349688.60000002384,349698.887,352348.94,8,400,29,,ISIC_0026166.JPG
break,html.Screen,4_78_1,2023-10-31T17:12:00.811Z,,0,,,NaN,,,,,,false,,,,352335.1999999285,352335,,352334.7999999523,,352348.94,8,400,,,
break_continue,html.Screen,4_78_2,2023-10-31T17:12:00.811Z,,0,,,NaN,,,,,,false,,,,352335.60000002384,352335.39999997616,,352335.39999997616,,352348.94,8,400,,,
sequence,flow.Sequence,4_78,2023-10-31T17:12:00.811Z,,0,,,2636.5129999761702,completion,,,,,false,,,,352335.7999999523,352335.39999997616,349682.22,349688.60000002384,349698.887,352348.94,8,400,,,
trial,html.Screen,4_79_0,2023-10-31T17:12:04.321Z,,0,2,,3495.859999952314,response,ISIC_2234076.JPG,7,ISIC_7109582.JPG,ISIC_7109582.JPG,false,0,keypress(z),500,355845,355844.7999999523,352332.273,352336,352348.94,355849.01,8,400,30,,ISIC_2234076.JPG
break,html.Screen,4_79_1,2023-10-31T17:12:04.321Z,,0,,,NaN,,,,,,false,,,,355845.7999999523,355845.60000002384,,355845.2999999523,,355849.01,8,400,,,
break_continue,html.Screen,4_79_2,2023-10-31T17:12:04.322Z,,0,,,NaN,,,,,,false,,,,355846.1999999285,355846,,355845.89999997616,,355849.01,8,400,,,
sequence,flow.Sequence,4_79,2023-10-31T17:12:04.322Z,,0,,,3497.0599999999977,completion,,,,,false,,,,355846.2999999523,355846,352332.273,352335.89999997616,352348.94,355849.01,8,400,,,
trial,html.Screen,4_80_0,2023-10-31T17:12:07.285Z,,0,2,,2960.789999952307,response,ISIC_0011779.JPG,7,ISIC_0058035.JPG,ISIC_0011779.JPG,false,1,keypress(m),500,358809.89999997616,358809.7999999523,355832.343,355846.5,355849.01,358816.226,8,400,31,,ISIC_0058035.JPG
break,html.Screen,4_80_1,2023-10-31T17:12:07.286Z,,0,,,NaN,,,,,,false,,,,358810.6999999285,358810.5,,358810.1999999285,,358816.226,8,400,,,
break_continue,html.Screen,4_80_2,2023-10-31T17:12:07.287Z,,0,,,NaN,,,,,,false,,,,358811.10000002384,358810.89999997616,,358810.7999999523,,358816.226,8,400,,,
sequence,flow.Sequence,4_80,2023-10-31T17:12:07.287Z,,0,,,2961.889999976149,completion,,,,,false,,,,358811.2999999523,358810.89999997616,355832.343,355846.5,355849.01,358816.226,8,400,,,
trial,html.Screen,4_81_0,2023-10-31T17:12:09.821Z,,0,2,,2528.8740000238176,response,ISIC_2739449.JPG,9,ISIC_5385528.JPG,ISIC_5385528.JPG,false,0,keypress(z),500,361345.2999999523,361345.10000002384,358799.559,358811.39999997616,358816.226,361349.61,8,400,32,,ISIC_2739449.JPG
break,html.Screen,4_81_1,2023-10-31T17:12:09.821Z,,0,,,NaN,,,,,,false,,,,361345.7999999523,361345.60000002384,,361345.39999997616,,361349.61,8,400,,,
break_continue,html.Screen,4_81_2,2023-10-31T17:12:09.822Z,,0,,,NaN,,,,,,false,,,,361346,361345.89999997616,,361345.7999999523,,361349.61,8,400,,,
sequence,flow.Sequence,4_81,2023-10-31T17:12:09.822Z,,0,,,2529.673999976134,completion,,,,,false,,,,361346.10000002384,361345.89999997616,358799.559,358811.39999997616,358816.226,361349.61,8,400,,,
trial,html.Screen,4_82_0,2023-10-31T17:12:12.530Z,,0,2,,2704.5899999284884,response,ISIC_7980339.JPG,7,ISIC_2809019.JPG,ISIC_7980339.JPG,false,1,keypress(m),500,364054.39999997616,364054.1999999285,361332.943,361346.1999999285,361349.61,364066.331,8,400,33,,ISIC_2809019.JPG
break,html.Screen,4_82_1,2023-10-31T17:12:12.531Z,,0,,,NaN,,,,,,false,,,,364055.10000002384,364055,,364054.6999999285,,364066.331,8,400,,,
break_continue,html.Screen,4_82_2,2023-10-31T17:12:12.531Z,,0,,,NaN,,,,,,false,,,,364055.60000002384,364055.39999997616,,364055.2999999523,,364066.331,8,400,,,
sequence,flow.Sequence,4_82,2023-10-31T17:12:12.531Z,,0,,,2705.789999976172,completion,,,,,false,,,,364055.6999999285,364055.39999997616,361332.943,361346.1999999285,361349.61,364066.331,8,400,,,
trial,html.Screen,4_83_0,2023-10-31T17:12:15.398Z,,0,2,,2856.1689999999944,response,ISIC_6027459.JPG,8,ISIC_0032017.JPG,ISIC_6027459.JPG,false,1,keypress(m),500,366922.6999999285,366922.5,364049.664,364055.89999997616,364066.331,366933.055,8,400,34,,ISIC_0032017.JPG
break,html.Screen,4_83_1,2023-10-31T17:12:15.399Z,,0,,,NaN,,,,,,false,,,,366923.39999997616,366923.10000002384,,366922.89999997616,,366933.055,8,400,,,
break_continue,html.Screen,4_83_2,2023-10-31T17:12:15.400Z,,0,,,NaN,,,,,,false,,,,366923.7999999523,366923.60000002384,,366923.5,,366933.055,8,400,,,
sequence,flow.Sequence,4_83,2023-10-31T17:12:15.400Z,,0,,,2857.2690000238363,completion,,,,,false,,,,366923.89999997616,366923.60000002384,364049.664,364055.7999999523,364066.331,366933.055,8,400,,,
trial,html.Screen,4_84_0,2023-10-31T17:12:18.317Z,,0,2,,2908.344999976165,response,ISIC_0007808.JPG,7,ISIC_6026759.JPG,ISIC_0007808.JPG,false,1,keypress(m),500,369841.60000002384,369841.39999997616,366916.388,366924.10000002384,366933.055,369850.279,8,400,35,,ISIC_6026759.JPG
break,html.Screen,4_84_1,2023-10-31T17:12:18.318Z,,0,,,NaN,,,,,,false,,,,369842.2999999523,369842.10000002384,,369841.7999999523,,369850.279,8,400,,,
break_continue,html.Screen,4_84_2,2023-10-31T17:12:18.319Z,,0,,,NaN,,,,,,false,,,,369842.6999999285,369842.5,,369842.39999997616,,369850.279,8,400,,,
sequence,flow.Sequence,4_84,2023-10-31T17:12:18.319Z,,0,,,2909.445000000007,completion,,,,,false,,,,369842.89999997616,369842.5,366916.388,366924.10000002384,366933.055,369850.279,8,400,,,
trial,html.Screen,4_85_0,2023-10-31T17:12:21.556Z,,0,2,,3229.2210000000196,response,ISIC_0007501.JPG,9,ISIC_0029970.JPG,ISIC_0007501.JPG,false,1,keypress(m),500,373079.6999999285,373079.5,369833.612,369843.10000002384,369850.279,373083.677,8,400,36,,ISIC_0029970.JPG
break,html.Screen,4_85_1,2023-10-31T17:12:21.556Z,,0,,,NaN,,,,,,false,,,,373080.39999997616,373080.10000002384,,373079.89999997616,,373083.677,8,400,,,
break_continue,html.Screen,4_85_2,2023-10-31T17:12:21.557Z,,0,,,NaN,,,,,,false,,,,373080.7999999523,373080.6999999285,,373080.60000002384,,373083.677,8,400,,,
sequence,flow.Sequence,4_85,2023-10-31T17:12:21.557Z,,0,,,3230.420999928494,completion,,,,,false,,,,373081,373080.6999999285,369833.612,369843,369850.279,373083.677,8,400,,,
trial,html.Screen,4_86_0,2023-10-31T17:12:24.271Z,,0,2,,2710.622999952291,response,ISIC_5393367.JPG,8,ISIC_0012067.JPG,ISIC_5393367.JPG,false,1,keypress(m),500,375794.60000002384,375794.2999999523,373067.01,373081.10000002384,373083.677,375800.398,8,400,37,,ISIC_0012067.JPG
break,html.Screen,4_86_1,2023-10-31T17:12:24.271Z,,0,,,NaN,,,,,,false,,,,375795.2999999523,375795.10000002384,,375794.7999999523,,375800.398,8,400,,,
break_continue,html.Screen,4_86_2,2023-10-31T17:12:24.272Z,,0,,,NaN,,,,,,false,,,,375795.6999999285,375795.5,,375795.39999997616,,375800.398,8,400,,,
sequence,flow.Sequence,4_86,2023-10-31T17:12:24.272Z,,0,,,2711.822999999975,completion,,,,,false,,,,375795.89999997616,375795.5,373067.01,373081.10000002384,373083.677,375800.398,8,400,,,
trial,html.Screen,4_87_0,2023-10-31T17:12:28.614Z,,0,2,,4336.90199995233,response,ISIC_0070009.JPG,5,ISIC_0069192.JPG,ISIC_0070009.JPG,false,1,keypress(m),500,380137.60000002384,380137.2999999523,375783.731,375796.10000002384,375800.398,380150.977,8,400,38,,ISIC_0069192.JPG
break,html.Screen,4_87_1,2023-10-31T17:12:28.614Z,,0,,,NaN,,,,,,false,,,,380138.2999999523,380138.10000002384,,380137.89999997616,,380150.977,8,400,,,
break_continue,html.Screen,4_87_2,2023-10-31T17:12:28.615Z,,0,,,NaN,,,,,,false,,,,380138.6999999285,380138.60000002384,,380138.39999997616,,380150.977,8,400,,,
sequence,flow.Sequence,4_87,2023-10-31T17:12:28.615Z,,0,,,4338.202000023855,completion,,,,,false,,,,380138.89999997616,380138.60000002384,375783.731,375796,375800.398,380150.977,8,400,,,
trial,html.Screen,4_88_0,2023-10-31T17:12:31.787Z,,0,2,,3159.222999928461,response,ISIC_4532303.JPG,5,ISIC_2670619.JPG,ISIC_4532303.JPG,false,1,keypress(m),500,383310.5,383310.1999999285,380134.31,380139,380150.977,383317.707,8,400,39,,ISIC_2670619.JPG
break,html.Screen,4_88_1,2023-10-31T17:12:31.787Z,,0,,,NaN,,,,,,false,,,,383311.10000002384,383310.89999997616,,383310.6999999285,,383317.707,8,400,,,
break_continue,html.Screen,4_88_2,2023-10-31T17:12:31.788Z,,0,,,NaN,,,,,,false,,,,383311.5,383311.39999997616,,383311.2999999523,,383317.707,8,400,,,
sequence,flow.Sequence,4_88,2023-10-31T17:12:31.788Z,,0,,,3160.4229999761446,completion,,,,,false,,,,383311.6999999285,383311.39999997616,380134.31,380139,380150.977,383317.707,8,400,,,
trial,html.Screen,4_89_0,2023-10-31T17:12:34.528Z,,0,2,,2733.6929999761633,response,ISIC_0011437.JPG,8,ISIC_0028415.JPG,ISIC_0028415.JPG,false,0,keypress(z),500,386051.60000002384,386051.39999997616,383301.04,383311.89999997616,383317.707,386067.762,8,400,40,,ISIC_0011437.JPG
break,html.Screen,4_89_1,2023-10-31T17:12:34.529Z,,0,,,NaN,,,,,,false,,,,386052.39999997616,386052.1999999285,,386051.89999997616,,386067.762,8,400,,,
break_continue,html.Screen,4_89_2,2023-10-31T17:12:34.529Z,,0,,,NaN,,,,,,false,,,,386052.7999999523,386052.6999999285,,386052.5,,386067.762,8,400,,,
sequence,flow.Sequence,4_89,2023-10-31T17:12:34.529Z,,0,,,2734.9929999284795,completion,,,,,false,,,,386052.89999997616,386052.6999999285,383301.04,383311.7999999523,383317.707,386067.762,8,400,,,
trial,html.Screen,4_90_0,2023-10-31T17:12:37.846Z,,0,2,,3301.9379999284865,response,ISIC_7973598.JPG,5,ISIC_0069851.JPG,ISIC_0069851.JPG,false,0,keypress(z),500,389370,389369.6999999285,386051.095,386053.1999999285,386067.762,389384.982,8,400,41,,ISIC_7973598.JPG
break,html.Screen,4_90_1,2023-10-31T17:12:37.847Z,,0,,,NaN,,,,,,false,,,,389370.6999999285,389370.5,,389370.10000002384,,389384.982,8,400,,,
break_continue,html.Screen,4_90_2,2023-10-31T17:12:37.847Z,,0,,,NaN,,,,,,false,,,,389371,389370.89999997616,,389370.7999999523,,389384.982,8,400,,,
sequence,flow.Sequence,4_90,2023-10-31T17:12:37.848Z,,0,,,3303.1379999761702,completion,,,,,false,,,,389371.2999999523,389370.89999997616,386051.095,386053.10000002384,386067.762,389384.982,8,400,,,
trial,html.Screen,4_91_0,2023-10-31T17:12:40.657Z,,0,2,,2795.7179999284563,response,ISIC_8188797.JPG,8,ISIC_0071388.JPG,ISIC_8188797.JPG,false,1,keypress(m),500,392181,392180.6999999285,389368.315,389371.5,389384.982,392185.038,8,400,42,,ISIC_0071388.JPG
break,html.Screen,4_91_1,2023-10-31T17:12:40.658Z,,0,,,NaN,,,,,,false,,,,392181.6999999285,392181.5,,392181.1999999285,,392185.038,8,400,,,
break_continue,html.Screen,4_91_2,2023-10-31T17:12:40.659Z,,0,,,NaN,,,,,,false,,,,392182.10000002384,392181.89999997616,,392181.7999999523,,392185.038,8,400,,,
sequence,flow.Sequence,4_91,2023-10-31T17:12:40.659Z,,0,,,2796.91799997614,completion,,,,,false,,,,392182.2999999523,392181.89999997616,389368.315,389371.39999997616,389384.982,392185.038,8,400,,,
trial,html.Screen,4_92_0,2023-10-31T17:12:43.452Z,,0,2,,2789.8619999761577,response,ISIC_0533122.JPG,6,ISIC_0399220.JPG,ISIC_0399220.JPG,false,0,keypress(z),500,394975.1999999285,394974.89999997616,392168.371,392182.5,392185.038,394985.094,8,400,43,,ISIC_0533122.JPG
break,html.Screen,4_92_1,2023-10-31T17:12:43.452Z,,0,,,NaN,,,,,,false,,,,394975.7999999523,394975.60000002384,,394975.39999997616,,394985.094,8,400,,,
break_continue,html.Screen,4_92_2,2023-10-31T17:12:43.453Z,,0,,,NaN,,,,,,false,,,,394976.1999999285,394976.10000002384,,394976,,394985.094,8,400,,,
sequence,flow.Sequence,4_92,2023-10-31T17:12:43.453Z,,0,,,2791.0620000238414,completion,,,,,false,,,,394976.2999999523,394976.10000002384,392168.371,392182.5,392185.038,394985.094,8,400,,,
trial,html.Screen,4_93_0,2023-10-31T17:12:46.402Z,,0,2,,2939.9060000000172,response,ISIC_0032426.JPG,8,ISIC_0029630.JPG,ISIC_0032426.JPG,false,1,keypress(m),500,397925.1999999285,397925,394968.427,394976.5,394985.094,397935.153,8,400,44,,ISIC_0029630.JPG
break,html.Screen,4_93_1,2023-10-31T17:12:46.403Z,,0,,,NaN,,,,,,false,,,,397925.89999997616,397925.6999999285,,397925.39999997616,,397935.153,8,400,,,
break_continue,html.Screen,4_93_2,2023-10-31T17:12:46.403Z,,0,,,NaN,,,,,,false,,,,397926.1999999285,397926.10000002384,,397926,,397935.153,8,400,,,
sequence,flow.Sequence,4_93,2023-10-31T17:12:46.403Z,,0,,,2941.006000023859,completion,,,,,false,,,,397926.5,397926.10000002384,394968.427,394976.39999997616,394985.094,397935.153,8,400,,,
trial,html.Screen,4_94_0,2023-10-31T17:12:49.096Z,,0,2,,2683.746999976167,response,ISIC_8181142.JPG,6,ISIC_0014422.JPG,ISIC_8181142.JPG,false,1,keypress(m),500,400619.10000002384,400618.89999997616,397918.486,397926.60000002384,397935.153,400635.699,8,400,45,,ISIC_0014422.JPG
break,html.Screen,4_94_1,2023-10-31T17:12:49.097Z,,0,,,NaN,,,,,,false,,,,400619.7999999523,400619.60000002384,,400619.1999999285,,400635.699,8,400,,,
break_continue,html.Screen,4_94_2,2023-10-31T17:12:49.097Z,,0,,,NaN,,,,,,false,,,,400620.1999999285,400620,,400619.89999997616,,400635.699,8,400,,,
sequence,flow.Sequence,4_94,2023-10-31T17:12:49.097Z,,0,,,2684.847000000009,completion,,,,,false,,,,400620.39999997616,400620,397918.486,397926.60000002384,397935.153,400635.699,8,400,,,
trial,html.Screen,4_95_0,2023-10-31T17:12:51.756Z,,0,2,,2643.3009999999776,response,ISIC_6918995.JPG,5,ISIC_0024656.JPG,ISIC_6918995.JPG,false,1,keypress(m),500,403279.1999999285,403279,400619.032,400620.60000002384,400635.699,403285.752,8,400,46,,ISIC_0024656.JPG
break,html.Screen,4_95_1,2023-10-31T17:12:51.757Z,,0,,,NaN,,,,,,false,,,,403280,403279.7999999523,,403279.39999997616,,403285.752,8,400,,,
break_continue,html.Screen,4_95_2,2023-10-31T17:12:51.757Z,,0,,,NaN,,,,,,false,,,,403280.5,403280.2999999523,,403280.1999999285,,403285.752,8,400,,,
sequence,flow.Sequence,4_95,2023-10-31T17:12:51.757Z,,0,,,2644.600999952294,completion,,,,,false,,,,403280.60000002384,403280.2999999523,400619.032,400620.5,400635.699,403285.752,8,400,,,
trial,html.Screen,4_96_0,2023-10-31T17:12:54.341Z,,0,2,,2578.0479999523377,response,ISIC_0070974.JPG,6,ISIC_0210282.JPG,ISIC_0210282.JPG,false,0,keypress(z),500,405864.10000002384,405863.7999999523,403269.085,403280.7999999523,403285.752,405869.137,8,400,47,,ISIC_0070974.JPG
break,html.Screen,4_96_1,2023-10-31T17:12:54.342Z,,0,,,NaN,,,,,,false,,,,405864.7999999523,405864.6999999285,,405864.2999999523,,405869.137,8,400,,,
break_continue,html.Screen,4_96_2,2023-10-31T17:12:54.342Z,,0,,,NaN,,,,,,false,,,,405865.2999999523,405865.10000002384,,405865,,405869.137,8,400,,,
sequence,flow.Sequence,4_96,2023-10-31T17:12:54.342Z,,0,,,2579.3480000238633,completion,,,,,false,,,,405865.39999997616,405865.10000002384,403269.085,403280.6999999285,403285.752,405869.137,8,400,,,
trial,html.Screen,4_97_0,2023-10-31T17:12:57.408Z,,0,2,,3061.963000023854,response,ISIC_8799674.JPG,6,ISIC_7785723.JPG,ISIC_8799674.JPG,false,1,keypress(m),500,408931.2999999523,408931.10000002384,405852.47,405865.60000002384,405869.137,408936.363,8,400,48,,ISIC_7785723.JPG
break,html.Screen,4_97_1,2023-10-31T17:12:57.409Z,,0,,,NaN,,,,,,false,,,,408932.10000002384,408931.89999997616,,408931.60000002384,,408936.363,8,400,,,
break_continue,html.Screen,4_97_2,2023-10-31T17:12:57.409Z,,0,,,NaN,,,,,,false,,,,408932.5,408932.2999999523,,408932.1999999285,,408936.363,8,400,,,
sequence,flow.Sequence,4_97,2023-10-31T17:12:57.410Z,,0,,,3063.1629999523284,completion,,,,,false,,,,408932.6999999285,408932.2999999523,405852.47,405865.5,405869.137,408936.363,8,400,,,
trial,html.Screen,4_98_0,2023-10-31T17:13:00.967Z,,0,2,,3553.536999976146,response,ISIC_0064979.JPG,8,ISIC_6709052.JPG,ISIC_6709052.JPG,false,0,keypress(z),500,412490.1999999285,412489.89999997616,408919.696,408932.89999997616,408936.363,412503.101,8,400,49,,ISIC_0064979.JPG
break,html.Screen,4_98_1,2023-10-31T17:13:00.968Z,,0,,,NaN,,,,,,false,,,,412491.10000002384,412490.7999999523,,412490.5,,412503.101,8,400,,,
break_continue,html.Screen,4_98_2,2023-10-31T17:13:00.969Z,,0,,,NaN,,,,,,false,,,,412491.5,412491.2999999523,,412491.1999999285,,412503.101,8,400,,,
sequence,flow.Sequence,4_98,2023-10-31T17:13:00.969Z,,0,,,3554.936999952304,completion,,,,,false,,,,412491.6999999285,412491.2999999523,408919.696,408932.7999999523,408936.363,412503.101,8,400,,,
trial,html.Screen,4_99_0,2023-10-31T17:13:04.557Z,,0,2,,3576.198999952292,response,ISIC_4641968.JPG,8,ISIC_9058340.JPG,ISIC_4641968.JPG,false,1,keypress(m),500,416079.60000002384,416079.2999999523,412486.434,412491.89999997616,412503.101,416086.506,8,400,50,,ISIC_9058340.JPG
break,html.Screen,4_99_1,2023-10-31T17:13:14.553Z,,0,,,10000.675999999978,timeout,,,,,false,,,,426075.10000002384,426070.515,416069.839,416079.6999999285,416086.506,426087.182,8,400,,,
break_continue,html.Screen,4_99_2,2023-10-31T17:13:14.957Z,,0,,,371.21799997618655,response,,,,,false,continue,keypress(Space),,426479.10000002384,426458.39999997616,426070.515,426075.1999999285,426087.182,426487.19,8,400,,,
sequence,flow.Sequence,4_99,2023-10-31T17:13:14.957Z,,0,,,13955.298999976134,completion,,,,,false,,,,426479.1999999285,426458.39999997616,412486.434,412491.89999997616,412503.101,426487.19,8,400,,,
trial,html.Screen,4_100_0,2023-10-31T17:13:17.634Z,,0,3,,2669.209999976156,response,ISIC_4692567.JPG,6,ISIC_0024967.JPG,ISIC_4692567.JPG,false,1,keypress(m),500,429156.60000002384,429156.39999997616,426470.523,426479.2999999523,426487.19,429171.062,8,400,1,,ISIC_0024967.JPG
break,html.Screen,4_100_1,2023-10-31T17:13:17.635Z,,0,,,NaN,,,,,,false,,,,429157.39999997616,429157.1999999285,,429156.89999997616,,429171.062,8,400,,,
break_continue,html.Screen,4_100_2,2023-10-31T17:13:17.635Z,,0,,,NaN,,,,,,false,,,,429157.7999999523,429157.60000002384,,429157.5,,429171.062,8,400,,,
sequence,flow.Sequence,4_100,2023-10-31T17:13:17.636Z,,0,,,2670.4100000238395,completion,,,,,false,,,,429158,429157.60000002384,426470.523,426479.1999999285,426487.19,429171.062,8,400,,,
trial,html.Screen,4_101_0,2023-10-31T17:13:20.362Z,,0,3,,2713.137999928498,response,ISIC_6320497.JPG,9,ISIC_7976724.JPG,ISIC_6320497.JPG,false,1,keypress(m),500,431884.5,431884.1999999285,429154.395,429158.10000002384,429171.062,431887.783,8,400,2,,ISIC_7976724.JPG
break,html.Screen,4_101_1,2023-10-31T17:13:20.363Z,,0,,,NaN,,,,,,false,,,,431885.2999999523,431885,,431884.7999999523,,431887.783,8,400,,,
break_continue,html.Screen,4_101_2,2023-10-31T17:13:20.363Z,,0,,,NaN,,,,,,false,,,,431885.6999999285,431885.5,,431885.39999997616,,431887.783,8,400,,,
sequence,flow.Sequence,4_101,2023-10-31T17:13:20.364Z,,0,,,2714.4380000000237,completion,,,,,false,,,,431885.89999997616,431885.5,429154.395,429158,429171.062,431887.783,8,400,,,
trial,html.Screen,4_102_0,2023-10-31T17:13:22.976Z,,0,3,,2610.6169999761623,response,ISIC_0015185.JPG,8,ISIC_0028910.JPG,ISIC_0028910.JPG,false,0,keypress(z),500,434498.60000002384,434498.39999997616,431871.116,431886.10000002384,431887.783,434504.502,8,400,3,,ISIC_0015185.JPG
break,html.Screen,4_102_1,2023-10-31T17:13:22.977Z,,0,,,NaN,,,,,,false,,,,434499.2999999523,434499.1999999285,,434498.89999997616,,434504.502,8,400,,,
break_continue,html.Screen,4_102_2,2023-10-31T17:13:22.977Z,,0,,,NaN,,,,,,false,,,,434499.6999999285,434499.5,,434499.5,,434504.502,8,400,,,
sequence,flow.Sequence,4_102,2023-10-31T17:13:22.978Z,,0,,,2611.717000000004,completion,,,,,false,,,,434499.89999997616,434499.5,431871.116,431886,431887.783,434504.502,8,400,,,
trial,html.Screen,4_103_0,2023-10-31T17:13:25.930Z,,0,3,,2947.0980000238633,response,ISIC_0448485.JPG,8,ISIC_0878793.JPG,ISIC_0878793.JPG,false,0,keypress(z),500,437451.89999997616,437451.60000002384,434487.835,434500.10000002384,434504.502,437454.561,8,400,4,,ISIC_0448485.JPG
break,html.Screen,4_103_1,2023-10-31T17:13:25.931Z,,0,,,NaN,,,,,,false,,,,437452.60000002384,437452.5,,437452.1999999285,,437454.561,8,400,,,
break_continue,html.Screen,4_103_2,2023-10-31T17:13:25.931Z,,0,,,NaN,,,,,,false,,,,437453.10000002384,437453,,437452.7999999523,,437454.561,8,400,,,
sequence,flow.Sequence,4_103,2023-10-31T17:13:25.931Z,,0,,,2948.4980000000214,completion,,,,,false,,,,437453.2999999523,437453,434487.835,434500.10000002384,434504.502,437454.561,8,400,,,
trial,html.Screen,4_104_0,2023-10-31T17:13:28.482Z,,0,3,,2549.7389999523293,response,ISIC_3934537.JPG,8,ISIC_1608524.JPG,ISIC_3934537.JPG,false,1,keypress(m),500,440004.5,440004.2999999523,437437.894,437453.39999997616,437454.561,440021.755,8,400,5,,ISIC_1608524.JPG
break,html.Screen,4_104_1,2023-10-31T17:13:28.483Z,,0,,,NaN,,,,,,false,,,,440005.2999999523,440005.10000002384,,440004.6999999285,,440021.755,8,400,,,
break_continue,html.Screen,4_104_2,2023-10-31T17:13:28.484Z,,0,,,NaN,,,,,,false,,,,440005.6999999285,440005.5,,440005.39999997616,,440021.755,8,400,,,
sequence,flow.Sequence,4_104,2023-10-31T17:13:28.484Z,,0,,,2550.939000000013,completion,,,,,false,,,,440005.7999999523,440005.5,437437.894,437453.39999997616,437454.561,440021.755,8,400,,,
trial,html.Screen,4_105_0,2023-10-31T17:13:31.255Z,,0,3,,2754.4449999284698,response,ISIC_0010719.JPG,8,ISIC_0057692.JPG,ISIC_0057692.JPG,false,0,keypress(z),500,442776.5,442776.1999999285,440005.088,440006,440021.755,442788.477,8,400,6,,ISIC_0010719.JPG
break,html.Screen,4_105_1,2023-10-31T17:13:31.255Z,,0,,,NaN,,,,,,false,,,,442777.2999999523,442777.10000002384,,442776.6999999285,,442788.477,8,400,,,
break_continue,html.Screen,4_105_2,2023-10-31T17:13:31.256Z,,0,,,NaN,,,,,,false,,,,442777.6999999285,442777.5,,442777.39999997616,,442788.477,8,400,,,
sequence,flow.Sequence,4_105,2023-10-31T17:13:31.256Z,,0,,,2755.7449999999953,completion,,,,,false,,,,442777.7999999523,442777.5,440005.088,440006,440021.755,442788.477,8,400,,,
trial,html.Screen,4_106_0,2023-10-31T17:13:34.752Z,,0,3,,3484.822999952303,response,ISIC_3623368.JPG,7,ISIC_0033273.JPG,ISIC_3623368.JPG,false,1,keypress(m),500,446273.60000002384,446273.2999999523,442771.81,442778,442788.477,446288.547,8,400,7,,ISIC_0033273.JPG
break,html.Screen,4_106_1,2023-10-31T17:13:34.752Z,,0,,,NaN,,,,,,false,,,,446274.1999999285,446274.10000002384,,446273.7999999523,,446288.547,8,400,,,
break_continue,html.Screen,4_106_2,2023-10-31T17:13:34.753Z,,0,,,NaN,,,,,,false,,,,446274.60000002384,446274.5,,446274.39999997616,,446288.547,8,400,,,
sequence,flow.Sequence,4_106,2023-10-31T17:13:34.753Z,,0,,,3486.0229999999865,completion,,,,,false,,,,446274.7999999523,446274.5,442771.81,442777.89999997616,442788.477,446288.547,8,400,,,
trial,html.Screen,4_107_0,2023-10-31T17:13:37.684Z,,0,3,,2916.8529999761377,response,ISIC_4960784.JPG,5,ISIC_2642873.JPG,ISIC_2642873.JPG,false,0,keypress(z),500,449205.60000002384,449205.39999997616,446271.88,446274.89999997616,446288.547,449222.415,8,400,8,,ISIC_4960784.JPG
break,html.Screen,4_107_1,2023-10-31T17:13:37.684Z,,0,,,NaN,,,,,,false,,,,449206.10000002384,449205.89999997616,,449205.6999999285,,449222.415,8,400,,,
break_continue,html.Screen,4_107_2,2023-10-31T17:13:37.685Z,,0,,,NaN,,,,,,false,,,,449206.5,449206.39999997616,,449206.2999999523,,449222.415,8,400,,,
sequence,flow.Sequence,4_107,2023-10-31T17:13:37.685Z,,0,,,2917.8529999761377,completion,,,,,false,,,,449206.6999999285,449206.39999997616,446271.88,446274.7999999523,446288.547,449222.415,8,400,,,
trial,html.Screen,4_108_0,2023-10-31T17:13:41.163Z,,0,3,,3462.3849999523372,response,ISIC_0026611.JPG,7,ISIC_3582787.JPG,ISIC_3582787.JPG,false,0,keypress(z),500,452685,452684.7999999523,449205.748,449206.6999999285,449222.415,452705.818,8,400,9,,ISIC_0026611.JPG
break,html.Screen,4_108_1,2023-10-31T17:13:41.164Z,,0,,,NaN,,,,,,false,,,,452685.6999999285,452685.5,,452685.2999999523,,452705.818,8,400,,,
break_continue,html.Screen,4_108_2,2023-10-31T17:13:41.164Z,,0,,,NaN,,,,,,false,,,,452686,452685.89999997616,,452685.7999999523,,452705.818,8,400,,,
sequence,flow.Sequence,4_108,2023-10-31T17:13:41.164Z,,0,,,3463.484999976179,completion,,,,,false,,,,452686.10000002384,452685.89999997616,449205.748,449206.6999999285,449222.415,452705.818,8,400,,,
trial,html.Screen,4_109_0,2023-10-31T17:13:44.078Z,,0,3,,2893.5819999761297,response,ISIC_0028548.JPG,8,ISIC_0059987.JPG,ISIC_0028548.JPG,false,1,keypress(m),500,455599.60000002384,455599.39999997616,452689.151,452686.1999999285,452705.818,455605.876,8,400,10,,ISIC_0059987.JPG
break,html.Screen,4_109_1,2023-10-31T17:13:44.079Z,,0,,,NaN,,,,,,false,,,,455600.2999999523,455600.10000002384,,455599.7999999523,,455605.876,8,400,,,
break_continue,html.Screen,4_109_2,2023-10-31T17:13:44.079Z,,0,,,NaN,,,,,,false,,,,455600.6999999285,455600.5,,455600.39999997616,,455605.876,8,400,,,
sequence,flow.Sequence,4_109,2023-10-31T17:13:44.079Z,,0,,,2894.6819999999716,completion,,,,,false,,,,455600.7999999523,455600.5,452689.151,452686.1999999285,452705.818,455605.876,8,400,,,
trial,html.Screen,4_110_0,2023-10-31T17:13:47.507Z,,0,3,,3422.323999928485,response,ISIC_8140072.JPG,7,ISIC_7533216.JPG,ISIC_7533216.JPG,false,0,keypress(z),500,459028.5,459028.1999999285,455589.209,455600.89999997616,455605.876,459039.278,8,400,11,,ISIC_8140072.JPG
break,html.Screen,4_110_1,2023-10-31T17:13:47.508Z,,0,,,NaN,,,,,,false,,,,459029.1999999285,459029,,459028.7999999523,,459039.278,8,400,,,
break_continue,html.Screen,4_110_2,2023-10-31T17:13:47.508Z,,0,,,NaN,,,,,,false,,,,459029.5,459029.39999997616,,459029.2999999523,,459039.278,8,400,,,
sequence,flow.Sequence,4_110,2023-10-31T17:13:47.508Z,,0,,,3423.523999976169,completion,,,,,false,,,,459029.7999999523,459029.39999997616,455589.209,455600.7999999523,455605.876,459039.278,8,400,,,
trial,html.Screen,4_111_0,2023-10-31T17:13:50.237Z,,0,3,,2718.722000000009,response,ISIC_5176419.JPG,8,ISIC_0024307.JPG,ISIC_5176419.JPG,false,1,keypress(m),500,461758.2999999523,461758,459022.611,459029.89999997616,459039.278,461773.155,8,400,12,,ISIC_0024307.JPG
break,html.Screen,4_111_1,2023-10-31T17:13:50.238Z,,0,,,NaN,,,,,,false,,,,461758.89999997616,461758.7999999523,,461758.5,,461773.155,8,400,,,
break_continue,html.Screen,4_111_2,2023-10-31T17:13:50.238Z,,0,,,NaN,,,,,,false,,,,461759.2999999523,461759.1999999285,,461759,,461773.155,8,400,,,
sequence,flow.Sequence,4_111,2023-10-31T17:13:50.238Z,,0,,,2719.9219999284833,completion,,,,,false,,,,461759.5,461759.1999999285,459022.611,459029.7999999523,459039.278,461773.155,8,400,,,
trial,html.Screen,4_112_0,2023-10-31T17:13:53.651Z,,0,3,,3398.844999999972,response,ISIC_0025708.JPG,7,ISIC_0029843.JPG,ISIC_0025708.JPG,false,1,keypress(m),500,465172.2999999523,465172,461756.488,461759.6999999285,461773.155,465173.223,8,400,13,,ISIC_0029843.JPG
break,html.Screen,4_112_1,2023-10-31T17:13:53.652Z,,0,,,NaN,,,,,,false,,,,465172.89999997616,465172.7999999523,,465172.39999997616,,465173.223,8,400,,,
break_continue,html.Screen,4_112_2,2023-10-31T17:13:53.652Z,,0,,,NaN,,,,,,false,,,,465173.2999999523,465173.1999999285,,465173,,465173.223,8,400,,,
sequence,flow.Sequence,4_112,2023-10-31T17:13:53.652Z,,0,,,3400.0449999284465,completion,,,,,false,,,,465173.5,465173.1999999285,461756.488,461759.60000002384,461773.155,465173.223,8,400,,,
trial,html.Screen,4_113_0,2023-10-31T17:13:57.370Z,,0,3,,3717.576999952318,response,ISIC_0028606.JPG,6,ISIC_3736075.JPG,ISIC_0028606.JPG,false,1,keypress(m),500,468891.10000002384,468890.7999999523,465156.556,465173.60000002384,465173.223,468906.631,8,400,14,,ISIC_3736075.JPG
break,html.Screen,4_113_1,2023-10-31T17:13:57.371Z,,0,,,NaN,,,,,,false,,,,468891.6999999285,468891.60000002384,,468891.2999999523,,468906.631,8,400,,,
break_continue,html.Screen,4_113_2,2023-10-31T17:13:57.371Z,,0,,,NaN,,,,,,false,,,,468892.10000002384,468892,,468891.7999999523,,468906.631,8,400,,,
sequence,flow.Sequence,4_113,2023-10-31T17:13:57.371Z,,0,,,3718.777000000002,completion,,,,,false,,,,468892.2999999523,468892,465156.556,465173.60000002384,465173.223,468906.631,8,400,,,
trial,html.Screen,4_114_0,2023-10-31T17:14:01.023Z,,0,3,,3637.6689999523223,response,ISIC_0058046.JPG,8,ISIC_5101111.JPG,ISIC_5101111.JPG,false,0,keypress(z),500,472544.5,472544.2999999523,468889.964,468892.5,468906.631,472557.219,8,400,15,,ISIC_0058046.JPG
break,html.Screen,4_114_1,2023-10-31T17:14:01.024Z,,0,,,NaN,,,,,,false,,,,472545.1999999285,472545.10000002384,,472544.6999999285,,472557.219,8,400,,,
break_continue,html.Screen,4_114_2,2023-10-31T17:14:01.025Z,,0,,,NaN,,,,,,false,,,,472545.6999999285,472545.5,,472545.39999997616,,472557.219,8,400,,,
sequence,flow.Sequence,4_114,2023-10-31T17:14:01.025Z,,0,,,3638.869000000006,completion,,,,,false,,,,472545.89999997616,472545.5,468889.964,468892.2999999523,468906.631,472557.219,8,400,,,
trial,html.Screen,4_115_0,2023-10-31T17:14:03.657Z,,0,3,,2620.7810000000172,response,ISIC_0067969.JPG,6,ISIC_8671453.JPG,ISIC_8671453.JPG,false,0,keypress(z),500,475178.2999999523,475178,472540.552,472546,472557.219,475190.605,8,400,16,,ISIC_0067969.JPG
break,html.Screen,4_115_1,2023-10-31T17:14:03.658Z,,0,,,NaN,,,,,,false,,,,475179,475178.6999999285,,475178.5,,475190.605,8,400,,,
break_continue,html.Screen,4_115_2,2023-10-31T17:14:03.658Z,,0,,,NaN,,,,,,false,,,,475179.39999997616,475179.1999999285,,475179.10000002384,,475190.605,8,400,,,
sequence,flow.Sequence,4_115,2023-10-31T17:14:03.659Z,,0,,,2621.9809999284917,completion,,,,,false,,,,475179.5,475179.1999999285,472540.552,472545.89999997616,472557.219,475190.605,8,400,,,
trial,html.Screen,4_116_0,2023-10-31T17:14:06.371Z,,0,3,,2701.594999928493,response,ISIC_4552230.JPG,8,ISIC_6342224.JPG,ISIC_4552230.JPG,false,1,keypress(m),500,477892.39999997616,477892.1999999285,475173.938,475179.6999999285,475190.605,477907.326,8,400,17,,ISIC_6342224.JPG
break,html.Screen,4_116_1,2023-10-31T17:14:06.372Z,,0,,,NaN,,,,,,false,,,,477893.10000002384,477892.89999997616,,477892.60000002384,,477907.326,8,400,,,
break_continue,html.Screen,4_116_2,2023-10-31T17:14:06.373Z,,0,,,NaN,,,,,,false,,,,477893.5,477893.2999999523,,477893.2999999523,,477907.326,8,400,,,
sequence,flow.Sequence,4_116,2023-10-31T17:14:06.373Z,,0,,,2702.694999952335,completion,,,,,false,,,,477893.6999999285,477893.2999999523,475173.938,475179.60000002384,475190.605,477907.326,8,400,,,
trial,html.Screen,4_117_0,2023-10-31T17:14:09.466Z,,0,3,,3078.8739999284735,response,ISIC_0067697.JPG,5,ISIC_0057518.JPG,ISIC_0067697.JPG,false,1,keypress(m),500,480986.39999997616,480986.1999999285,477890.659,477893.7999999523,477907.326,480991.224,8,400,18,,ISIC_0057518.JPG
break,html.Screen,4_117_1,2023-10-31T17:14:09.466Z,,0,,,NaN,,,,,,false,,,,480987.1999999285,480987,,480986.60000002384,,480991.224,8,400,,,
break_continue,html.Screen,4_117_2,2023-10-31T17:14:09.467Z,,0,,,NaN,,,,,,false,,,,480987.5,480987.39999997616,,480987.1999999285,,480991.224,8,400,,,
sequence,flow.Sequence,4_117,2023-10-31T17:14:09.467Z,,0,,,3080.073999976157,completion,,,,,false,,,,480987.6999999285,480987.39999997616,477890.659,477893.6999999285,477907.326,480991.224,8,400,,,
trial,html.Screen,4_118_0,2023-10-31T17:14:12.783Z,,0,3,,3312.1759999761707,response,ISIC_2757370.JPG,5,ISIC_0072642.JPG,ISIC_0072642.JPG,false,0,keypress(z),500,484303.6999999285,484303.39999997616,480974.557,480987.89999997616,480991.224,484307.957,8,400,19,,ISIC_2757370.JPG
break,html.Screen,4_118_1,2023-10-31T17:14:12.784Z,,0,,,NaN,,,,,,false,,,,484304.39999997616,484304.1999999285,,484303.89999997616,,484307.957,8,400,,,
break_continue,html.Screen,4_118_2,2023-10-31T17:14:12.784Z,,0,,,NaN,,,,,,false,,,,484304.7999999523,484304.60000002384,,484304.5,,484307.957,8,400,,,
sequence,flow.Sequence,4_118,2023-10-31T17:14:12.784Z,,0,,,3313.3760000238544,completion,,,,,false,,,,484305,484304.60000002384,480974.557,480987.89999997616,480991.224,484307.957,8,400,,,
trial,html.Screen,4_119_0,2023-10-31T17:14:15.525Z,,0,3,,2737.143000023847,response,ISIC_0009879.JPG,8,ISIC_0011064.JPG,ISIC_0011064.JPG,false,0,keypress(z),500,487045.2999999523,487045.10000002384,484291.29,484305.1999999285,484307.957,487058.012,8,400,20,,ISIC_0009879.JPG
break,html.Screen,4_119_1,2023-10-31T17:14:15.525Z,,0,,,NaN,,,,,,false,,,,487046.10000002384,487046,,487045.60000002384,,487058.012,8,400,,,
break_continue,html.Screen,4_119_2,2023-10-31T17:14:15.526Z,,0,,,NaN,,,,,,false,,,,487046.5,487046.39999997616,,487046.2999999523,,487058.012,8,400,,,
sequence,flow.Sequence,4_119,2023-10-31T17:14:15.526Z,,0,,,2738.4429999761633,completion,,,,,false,,,,487046.6999999285,487046.39999997616,484291.29,484305.10000002384,484307.957,487058.012,8,400,,,
trial,html.Screen,4_120_0,2023-10-31T17:14:18.570Z,,0,3,,3032.088000023854,response,ISIC_0914168.JPG,7,ISIC_9007206.JPG,ISIC_9007206.JPG,false,0,keypress(z),500,490090.39999997616,490090.10000002384,487041.345,487046.7999999523,487058.012,490091.406,8,400,21,,ISIC_0914168.JPG
break,html.Screen,4_120_1,2023-10-31T17:14:18.570Z,,0,,,NaN,,,,,,false,,,,490091,490090.7999999523,,490090.60000002384,,490091.406,8,400,,,
break_continue,html.Screen,4_120_2,2023-10-31T17:14:18.571Z,,0,,,NaN,,,,,,false,,,,490091.5,490091.2999999523,,490091.10000002384,,490091.406,8,400,,,
sequence,flow.Sequence,4_120,2023-10-31T17:14:18.571Z,,0,,,3033.2879999523284,completion,,,,,false,,,,490091.60000002384,490091.2999999523,487041.345,487046.7999999523,487058.012,490091.406,8,400,,,
trial,html.Screen,4_121_0,2023-10-31T17:14:21.457Z,,0,3,,2886.1940000238246,response,ISIC_1560455.JPG,9,ISIC_7489564.JPG,ISIC_1560455.JPG,false,1,keypress(m),500,492977.7999999523,492977.60000002384,490074.739,490091.7999999523,490091.406,492991.955,8,400,22,,ISIC_7489564.JPG
break,html.Screen,4_121_1,2023-10-31T17:14:21.458Z,,0,,,NaN,,,,,,false,,,,492978.5,492978.39999997616,,492978,,492991.955,8,400,,,
break_continue,html.Screen,4_121_2,2023-10-31T17:14:21.458Z,,0,,,NaN,,,,,,false,,,,492978.89999997616,492978.7999999523,,492978.60000002384,,492991.955,8,400,,,
sequence,flow.Sequence,4_121,2023-10-31T17:14:21.459Z,,0,,,2887.393999952299,completion,,,,,false,,,,492979.10000002384,492978.7999999523,490074.739,490091.7999999523,490091.406,492991.955,8,400,,,
trial,html.Screen,4_122_0,2023-10-31T17:14:24.470Z,,0,3,,2998.6450000238256,response,ISIC_5336007.JPG,8,ISIC_0033830.JPG,ISIC_5336007.JPG,false,1,keypress(m),500,495990.89999997616,495990.60000002384,492975.288,492979.1999999285,492991.955,496008.682,8,400,23,,ISIC_0033830.JPG
break,html.Screen,4_122_1,2023-10-31T17:14:24.471Z,,0,,,NaN,,,,,,false,,,,495991.60000002384,495991.39999997616,,495991.10000002384,,496008.682,8,400,,,
break_continue,html.Screen,4_122_2,2023-10-31T17:14:24.472Z,,0,,,NaN,,,,,,false,,,,495992.10000002384,495991.89999997616,,495991.89999997616,,496008.682,8,400,,,
sequence,flow.Sequence,4_122,2023-10-31T17:14:24.472Z,,0,,,2999.944999976142,completion,,,,,false,,,,495992.39999997616,495991.89999997616,492975.288,492979.1999999285,492991.955,496008.682,8,400,,,
trial,html.Screen,4_123_0,2023-10-31T17:14:27.228Z,,0,3,,2739.517999928503,response,ISIC_4898865.JPG,6,ISIC_0024900.JPG,ISIC_4898865.JPG,false,1,keypress(m),500,498748.39999997616,498748.1999999285,495992.015,495992.5,496008.682,498758.737,8,400,24,,ISIC_0024900.JPG
break,html.Screen,4_123_1,2023-10-31T17:14:27.229Z,,0,,,NaN,,,,,,false,,,,498749.10000002384,498748.89999997616,,498748.60000002384,,498758.737,8,400,,,
break_continue,html.Screen,4_123_2,2023-10-31T17:14:27.229Z,,0,,,NaN,,,,,,false,,,,498749.6999999285,498749.39999997616,,498749.2999999523,,498758.737,8,400,,,
sequence,flow.Sequence,4_123,2023-10-31T17:14:27.230Z,,0,,,2740.7179999761865,completion,,,,,false,,,,498749.89999997616,498749.39999997616,495992.015,495992.5,496008.682,498758.737,8,400,,,
trial,html.Screen,4_124_0,2023-10-31T17:14:30.086Z,,0,3,,2847.363000023819,response,ISIC_0806140.JPG,7,ISIC_7740023.JPG,ISIC_7740023.JPG,false,0,keypress(z),500,501606.2999999523,501606.10000002384,498742.07,498750.10000002384,498758.737,501609.281,8,400,25,,ISIC_0806140.JPG
break,html.Screen,4_124_1,2023-10-31T17:14:30.087Z,,0,,,NaN,,,,,,false,,,,501607,501606.7999999523,,501606.5,,501609.281,8,400,,,
break_continue,html.Screen,4_124_2,2023-10-31T17:14:30.087Z,,0,,,NaN,,,,,,false,,,,501607.5,501607.2999999523,,501607.10000002384,,501609.281,8,400,,,
sequence,flow.Sequence,4_124,2023-10-31T17:14:30.088Z,,0,,,2848.5629999522935,completion,,,,,false,,,,501607.7999999523,501607.2999999523,498742.07,498750.10000002384,498758.737,501609.281,8,400,,,
trial,html.Screen,4_125_0,2023-10-31T17:14:33.515Z,,0,3,,3425.518999952299,response,ISIC_3869533.JPG,8,ISIC_0028800.JPG,ISIC_3869533.JPG,false,1,keypress(m),500,505035.10000002384,505034.7999999523,501592.614,501608,501609.281,505042.683,8,400,26,,ISIC_0028800.JPG
break,html.Screen,4_125_1,2023-10-31T17:14:33.516Z,,0,,,NaN,,,,,,false,,,,505035.6999999285,505035.60000002384,,505035.1999999285,,505042.683,8,400,,,
break_continue,html.Screen,4_125_2,2023-10-31T17:14:33.516Z,,0,,,NaN,,,,,,false,,,,505036.10000002384,505036,,505035.7999999523,,505042.683,8,400,,,
