sender,sender_type,sender_id,timestamp,meta,,blockNo,condition,duration,ended_on,img_left,img_reveal,img_right,loser,practice,response,response_action,selection_duration,time_commit,time_end,time_render,time_run,time_show,time_switch,total_blocks,total_trials,trialNo,url,winner
informed_consent,html.Screen,0,2023-09-08T20:42:50.554Z,"{""labjs_version"":""20.2.4"",""labjs_build"":{""flavor"":""production"",""commit"":""f5b4a49f956347addd546a832a3327688c2c0fef""},""location"":""https://run.pavlovia.org/MurrayBennett/melanoma-2afc/?participant=6272ab12b3d9c61d2271db8d&STUDY_ID=64f8c92207ba404bcb356c90&SESSION_ID=64fb871855343d696e02aa9b&platform=prolific"",""userAgent"":""Mozilla/5.0 (Windows NT 10.0; Win64; x64) AppleWebKit/537.36 (KHTML, like Gecko) Chrome/116.0.0.0 Safari/537.36"",""platform"":""Win32"",""language"":""en-US"",""locale"":""en-US"",""timeZone"":""America/Los_Angeles"",""timezoneOffset"":420,""screen_width"":1920,""screen_height"":1080,""scroll_width"":1920,""scroll_height"":915,""window_innerWidth"":1920,""window_innerHeight"":963,""devicePixelRatio"":1}",,,,3757.0289999880806,response,,,,,,consent,click button,,28577.899999976158,28577.19999998808,24813.148,2374.199999988079,24820.171,28587.757,,,,"{""participant"":""6272ab12b3d9c61d2271db8d"",""STUDY_ID"":""64f8c92207ba404bcb356c90"",""SESSION_ID"":""64fb871855343d696e02aa9b"",""platform"":""prolific""}",
Welcome,html.Screen,1,2023-09-08T20:43:30.672Z,,,,uniform,40107.843000023844,response,,,,,,continue,click button,,68696.10000002384,68695.60000002384,28574.665,28578.100000023842,28587.757,68697.091,,,,,
trial,html.Screen,2_0_0,2023-09-08T20:43:37.656Z,,0,0,,6982.909,response,ISIC_0063388.JPG,,ISIC_0025593.JPG,ISIC_0025593.JPG,true,0,keypress(z),500,75680.10000002384,75680,68690.085,68696.19999998808,68697.091,75683.155,1,6,1,,ISIC_0063388.JPG
sequence,flow.Sequence,2_0,2023-09-08T20:43:37.656Z,,0,,,6982.909,completion,,,,,true,,,,75680.30000001192,75680,68690.085,68696.19999998808,68697.091,75683.155,1,6,,,
trial,html.Screen,2_1_0,2023-09-08T20:43:41.945Z,,0,0,,4286.145000011922,response,ISIC_1309015.JPG,,ISIC_0028178.JPG,ISIC_1309015.JPG,true,1,keypress(m),500,79969.5,79969.30000001192,75675.877,75680.30000001192,75683.155,79972.186,1,6,2,,ISIC_0028178.JPG
sequence,flow.Sequence,2_1,2023-09-08T20:43:41.945Z,,0,,,4286.145000011922,completion,,,,,true,,,,79969.60000002384,79969.30000001192,75675.877,75680.30000001192,75683.155,79972.186,1,6,,,
trial,html.Screen,2_2_0,2023-09-08T20:43:46.625Z,,0,0,,4677.013999988078,response,ISIC_3314853.JPG,,ISIC_0031128.JPG,ISIC_0031128.JPG,true,0,keypress(z),500,84649.30000001192,84649.19999998808,79964.8,79969.69999998808,79972.186,84658.144,1,6,3,,ISIC_3314853.JPG
sequence,flow.Sequence,2_2,2023-09-08T20:43:46.625Z,,0,,,4677.013999988078,completion,,,,,true,,,,84649.39999997616,84649.19999998808,79964.8,79969.60000002384,79972.186,84658.144,1,6,,,
trial,html.Screen,2_3_0,2023-09-08T20:43:49.881Z,,0,0,,3247.1560000119207,response,ISIC_0031612.JPG,,ISIC_8980141.JPG,ISIC_0031612.JPG,true,1,keypress(m),500,87905.5,87905.30000001192,84643.029,84649.5,84658.144,87910.63,1,6,4,,ISIC_8980141.JPG
sequence,flow.Sequence,2_3,2023-09-08T20:43:49.881Z,,0,,,3247.1560000119207,completion,,,,,true,,,,87905.60000002384,87905.30000001192,84643.029,84649.39999997616,84658.144,87910.63,1,6,,,
trial,html.Screen,2_4_0,2023-09-08T20:43:53.602Z,,0,0,,3715.2699999761535,response,ISIC_1197737.JPG,,ISIC_9721604.JPG,ISIC_1197737.JPG,true,1,keypress(m),500,91626,91625.89999997616,87903.174,87905.69999998808,87910.63,91629.674,1,6,5,,ISIC_9721604.JPG
sequence,flow.Sequence,2_4,2023-09-08T20:43:53.602Z,,0,,,3715.2699999761535,completion,,,,,true,,,,91626.19999998808,91625.89999997616,87903.174,87905.69999998808,87910.63,91629.674,1,6,,,
trial,html.Screen,2_5_0,2023-09-08T20:43:56.660Z,,0,0,,3054.826000000001,response,ISIC_0010681.JPG,,ISIC_0025346.JPG,ISIC_0025346.JPG,true,0,keypress(z),500,94684.60000002384,94684.5,91622.372,91626.30000001192,91629.674,94688.285,1,6,6,,ISIC_0010681.JPG
sequence,flow.Sequence,2_5,2023-09-08T20:43:56.661Z,,0,,,3054.826000000001,completion,,,,,true,,,,94684.69999998808,94684.5,91622.372,91626.30000001192,91629.674,94688.285,1,6,,,
loop,flow.Loop,2,2023-09-08T20:43:56.661Z,,,,,25987.409,completion,,,,,true,,,,94684.80000001192,94684.5,68690.085,68696.19999998808,68697.091,94688.285,1,6,,,
exp_instructions,html.Screen,3,2023-09-08T20:44:08.407Z,,,,,11742.515000011917,response,,,,,,continue,keypress(Space),,106431.19999998808,106430.80000001192,94680.764,94684.80000001192,94688.285,106442.978,,,,,
trial,html.Screen,4_0_0,2023-09-08T20:44:11.529Z,,0,1,,3109.9219999761553,response,ISIC_8979275.JPG,5,ISIC_1976571.JPG,ISIC_1976571.JPG,false,0,keypress(z),500,109553,109552.89999997616,106436.049,106431.30000001192,106442.978,109557.184,8,400,1,,ISIC_8979275.JPG
break,html.Screen,4_0_1,2023-09-08T20:44:11.529Z,,0,,,NaN,,,,,,false,,,,109553.5,109553.30000001192,,109553.10000002384,,109557.184,8,400,,,
break_continue,html.Screen,4_0_2,2023-09-08T20:44:11.529Z,,0,,,NaN,,,,,,false,,,,109553.69999998808,109553.60000002384,,109553.5,,109557.184,8,400,,,
sequence,flow.Sequence,4_0,2023-09-08T20:44:11.530Z,,0,,,3110.622000023839,completion,,,,,false,,,,109553.69999998808,109553.60000002384,106436.049,106431.19999998808,106442.978,109557.184,8,400,,,
trial,html.Screen,4_1_0,2023-09-08T20:44:14.781Z,,0,1,,3247.416000023848,response,ISIC_7518524.JPG,5,ISIC_0032615.JPG,ISIC_0032615.JPG,false,0,keypress(z),500,112804.69999998808,112804.60000002384,109550.002,109553.80000001192,109557.184,112810.395,8,400,2,,ISIC_7518524.JPG
break,html.Screen,4_1_1,2023-09-08T20:44:14.781Z,,0,,,NaN,,,,,,false,,,,112805.10000002384,112805,,112804.80000001192,,112810.395,8,400,,,
break_continue,html.Screen,4_1_2,2023-09-08T20:44:14.781Z,,0,,,NaN,,,,,,false,,,,112805.30000001192,112805.19999998808,,112805.19999998808,,112810.395,8,400,,,
sequence,flow.Sequence,4_1,2023-09-08T20:44:14.781Z,,0,,,3248.0159999880852,completion,,,,,false,,,,112805.30000001192,112805.19999998808,109550.002,109553.69999998808,109557.184,112810.395,8,400,,,
trial,html.Screen,4_2_0,2023-09-08T20:44:17.583Z,,0,1,,2796.304999988075,response,ISIC_7947847.JPG,4,ISIC_0011633.JPG,ISIC_0011633.JPG,false,0,keypress(z),500,115606.89999997616,115606.69999998808,112802.956,112805.5,112810.395,115611.819,8,400,3,,ISIC_7947847.JPG
break,html.Screen,4_2_1,2023-09-08T20:44:17.583Z,,0,,,NaN,,,,,,false,,,,115607.30000001192,115607.19999998808,,115607,,115611.819,8,400,,,
break_continue,html.Screen,4_2_2,2023-09-08T20:44:17.583Z,,0,,,NaN,,,,,,false,,,,115607.60000002384,115607.5,,115607.39999997616,,115611.819,8,400,,,
sequence,flow.Sequence,4_2,2023-09-08T20:44:17.583Z,,0,,,2797.104999999996,completion,,,,,false,,,,115607.60000002384,115607.5,112802.956,112805.5,112810.395,115611.819,8,400,,,
trial,html.Screen,4_3_0,2023-09-08T20:44:20.470Z,,0,1,,2882.680999999997,response,ISIC_0032095.JPG,4,ISIC_9768421.JPG,ISIC_0032095.JPG,false,1,keypress(m),500,118494.60000002384,118494.5,115604.585,115607.69999998808,115611.819,118496.628,8,400,4,,ISIC_9768421.JPG
break,html.Screen,4_3_1,2023-09-08T20:44:20.471Z,,0,,,NaN,,,,,,false,,,,118495,118494.89999997616,,118494.69999998808,,118496.628,8,400,,,
break_continue,html.Screen,4_3_2,2023-09-08T20:44:20.471Z,,0,,,NaN,,,,,,false,,,,118495.10000002384,118495.10000002384,,118495,,118496.628,8,400,,,
sequence,flow.Sequence,4_3,2023-09-08T20:44:20.471Z,,0,,,2883.2810000238387,completion,,,,,false,,,,118495.19999998808,118495.10000002384,115604.585,115607.60000002384,115611.819,118496.628,8,400,,,
trial,html.Screen,4_4_0,2023-09-08T20:44:23.337Z,,0,1,,2864.571999988082,response,ISIC_0034210.JPG,5,ISIC_0014049.JPG,ISIC_0014049.JPG,false,0,keypress(z),500,121361.30000001192,121361.19999998808,118489.206,118495.19999998808,118496.628,121367.538,8,400,5,,ISIC_0034210.JPG
break,html.Screen,4_4_1,2023-09-08T20:44:23.337Z,,0,,,NaN,,,,,,false,,,,121361.60000002384,121361.5,,121361.39999997616,,121367.538,8,400,,,
break_continue,html.Screen,4_4_2,2023-09-08T20:44:23.338Z,,0,,,NaN,,,,,,false,,,,121361.80000001192,121361.80000001192,,121361.69999998808,,121367.538,8,400,,,
sequence,flow.Sequence,4_4,2023-09-08T20:44:23.338Z,,0,,,2865.172000011924,completion,,,,,false,,,,121361.80000001192,121361.80000001192,118489.206,118495.19999998808,118496.628,121367.538,8,400,,,
trial,html.Screen,4_5_0,2023-09-08T20:44:26.718Z,,0,1,,3374.0620000238414,response,ISIC_7898061.JPG,5,ISIC_9556334.JPG,ISIC_9556334.JPG,false,0,keypress(z),500,124741.69999998808,124741.60000002384,121360.634,121361.89999997616,121367.538,124745.866,8,400,6,,ISIC_7898061.JPG
break,html.Screen,4_5_1,2023-09-08T20:44:26.718Z,,0,,,NaN,,,,,,false,,,,124742.10000002384,124742,,124741.80000001192,,124745.866,8,400,,,
break_continue,html.Screen,4_5_2,2023-09-08T20:44:26.718Z,,0,,,NaN,,,,,,false,,,,124742.30000001192,124742.30000001192,,124742.19999998808,,124745.866,8,400,,,
sequence,flow.Sequence,4_5,2023-09-08T20:44:26.718Z,,0,,,3374.7620000119205,completion,,,,,false,,,,124742.39999997616,124742.30000001192,121360.634,121361.89999997616,121367.538,124745.866,8,400,,,
trial,html.Screen,4_6_0,2023-09-08T20:44:29.584Z,,0,1,,2861.4340000119264,response,ISIC_0070419.JPG,4,ISIC_3850432.JPG,ISIC_0070419.JPG,false,1,keypress(m),500,127607.39999997616,127607.30000001192,124738.418,124742.39999997616,124745.866,127609.818,8,400,7,,ISIC_3850432.JPG
break,html.Screen,4_6_1,2023-09-08T20:44:29.584Z,,0,,,NaN,,,,,,false,,,,127607.80000001192,127607.69999998808,,127607.5,,127609.818,8,400,,,
break_continue,html.Screen,4_6_2,2023-09-08T20:44:29.584Z,,0,,,NaN,,,,,,false,,,,127607.89999997616,127607.89999997616,,127607.80000001192,,127609.818,8,400,,,
sequence,flow.Sequence,4_6,2023-09-08T20:44:29.584Z,,0,,,2862.0339999761636,completion,,,,,false,,,,127608,127607.89999997616,124738.418,124742.39999997616,124745.866,127609.818,8,400,,,
trial,html.Screen,4_7_0,2023-09-08T20:44:32.450Z,,0,1,,2863.4820000119216,response,ISIC_0010825.JPG,4,ISIC_5666345.JPG,ISIC_5666345.JPG,false,0,keypress(z),500,130473.39999997616,130473.30000001192,127602.623,127608,127609.818,130481.203,8,400,8,,ISIC_0010825.JPG
break,html.Screen,4_7_1,2023-09-08T20:44:32.450Z,,0,,,NaN,,,,,,false,,,,130473.80000001192,130473.60000002384,,130473.39999997616,,130481.203,8,400,,,
break_continue,html.Screen,4_7_2,2023-09-08T20:44:32.450Z,,0,,,NaN,,,,,,false,,,,130473.89999997616,130473.89999997616,,130473.80000001192,,130481.203,8,400,,,
sequence,flow.Sequence,4_7,2023-09-08T20:44:32.450Z,,0,,,2864.081999976159,completion,,,,,false,,,,130473.89999997616,130473.89999997616,127602.623,127608,127609.818,130481.203,8,400,,,
trial,html.Screen,4_8_0,2023-09-08T20:44:35.459Z,,0,1,,3001.797000000006,response,ISIC_0057696.JPG,5,ISIC_0558485.JPG,ISIC_0057696.JPG,false,1,keypress(m),500,133483.10000002384,133483,130473.304,130474,130481.203,133490.837,8,400,9,,ISIC_0558485.JPG
break,html.Screen,4_8_1,2023-09-08T20:44:35.460Z,,0,,,NaN,,,,,,false,,,,133483.5,133483.30000001192,,133483.10000002384,,133490.837,8,400,,,
break_continue,html.Screen,4_8_2,2023-09-08T20:44:35.460Z,,0,,,NaN,,,,,,false,,,,133483.60000002384,133483.5,,133483.5,,133490.837,8,400,,,
sequence,flow.Sequence,4_8,2023-09-08T20:44:35.460Z,,0,,,3002.297000000006,completion,,,,,false,,,,133483.60000002384,133483.5,130473.304,130474,130481.203,133490.837,8,400,,,
trial,html.Screen,4_9_0,2023-09-08T20:44:38.375Z,,0,1,,2907.1630000000005,response,ISIC_0073102.JPG,6,ISIC_4777536.JPG,ISIC_4777536.JPG,false,0,keypress(z),500,136398.5,136398,133476.674,133483.80000001192,133490.837,136403.303,8,400,10,,ISIC_0073102.JPG
break,html.Screen,4_9_1,2023-09-08T20:44:38.375Z,,0,,,NaN,,,,,,false,,,,136398.89999997616,136398.69999998808,,136398.60000002384,,136403.303,8,400,,,
break_continue,html.Screen,4_9_2,2023-09-08T20:44:38.375Z,,0,,,NaN,,,,,,false,,,,136399,136399,,136398.89999997616,,136403.303,8,400,,,
sequence,flow.Sequence,4_9,2023-09-08T20:44:38.375Z,,0,,,2908.1630000000005,completion,,,,,false,,,,136399.10000002384,136399,133476.674,133483.69999998808,133490.837,136403.303,8,400,,,
trial,html.Screen,4_10_0,2023-09-08T20:44:41.208Z,,0,1,,2828.5969999761437,response,ISIC_4377208.JPG,4,ISIC_2818530.JPG,ISIC_2818530.JPG,false,0,keypress(z),500,139232,139231.89999997616,136395.87,136399.10000002384,136403.303,139239.87,8,400,11,,ISIC_4377208.JPG
break,html.Screen,4_10_1,2023-09-08T20:44:41.209Z,,0,,,NaN,,,,,,false,,,,139232.39999997616,139232.30000001192,,139232,,139239.87,8,400,,,
break_continue,html.Screen,4_10_2,2023-09-08T20:44:41.209Z,,0,,,NaN,,,,,,false,,,,139232.60000002384,139232.5,,139232.39999997616,,139239.87,8,400,,,
sequence,flow.Sequence,4_10,2023-09-08T20:44:41.209Z,,0,,,2829.1969999999856,completion,,,,,false,,,,139232.60000002384,139232.5,136395.87,136399.10000002384,136403.303,139239.87,8,400,,,
trial,html.Screen,4_11_0,2023-09-08T20:44:44.314Z,,0,1,,3097.8299999880837,response,ISIC_0011530.JPG,5,ISIC_0821520.JPG,ISIC_0011530.JPG,false,1,keypress(m),500,142337.80000001192,142337.69999998808,139232.137,139232.69999998808,139239.87,142339.808,8,400,12,,ISIC_0821520.JPG
break,html.Screen,4_11_1,2023-09-08T20:44:44.314Z,,0,,,NaN,,,,,,false,,,,142338.10000002384,142338.10000002384,,142337.89999997616,,142339.808,8,400,,,
break_continue,html.Screen,4_11_2,2023-09-08T20:44:44.315Z,,0,,,NaN,,,,,,false,,,,142338.5,142338.5,,142338.30000001192,,142339.808,8,400,,,
sequence,flow.Sequence,4_11,2023-09-08T20:44:44.315Z,,0,,,3098.6300000000047,completion,,,,,false,,,,142338.60000002384,142338.5,139232.137,139232.60000002384,139239.87,142339.808,8,400,,,
trial,html.Screen,4_12_0,2023-09-08T20:44:47.980Z,,0,1,,3664.091999976168,response,ISIC_0064247.JPG,5,ISIC_0032204.JPG,ISIC_0032204.JPG,false,0,keypress(z),500,146004.10000002384,146003.89999997616,142332.359,142338.69999998808,142339.808,146010.124,8,400,13,,ISIC_0064247.JPG
break,html.Screen,4_12_1,2023-09-08T20:44:47.981Z,,0,,,NaN,,,,,,false,,,,146004.39999997616,146004.39999997616,,146004.10000002384,,146010.124,8,400,,,
break_continue,html.Screen,4_12_2,2023-09-08T20:44:47.981Z,,0,,,NaN,,,,,,false,,,,146004.60000002384,146004.60000002384,,146004.39999997616,,146010.124,8,400,,,
sequence,flow.Sequence,4_12,2023-09-08T20:44:47.981Z,,0,,,3664.792000023852,completion,,,,,false,,,,146004.69999998808,146004.60000002384,142332.359,142338.69999998808,142339.808,146010.124,8,400,,,
trial,html.Screen,4_13_0,2023-09-08T20:44:51.102Z,,0,1,,3115.476000023831,response,ISIC_8773685.JPG,5,ISIC_7161651.JPG,ISIC_8773685.JPG,false,1,keypress(m),500,149125.69999998808,149125.60000002384,146002.679,146004.69999998808,146010.124,149138.205,8,400,14,,ISIC_7161651.JPG
break,html.Screen,4_13_1,2023-09-08T20:44:51.102Z,,0,,,NaN,,,,,,false,,,,149126.10000002384,149126,,149125.80000001192,,149138.205,8,400,,,
break_continue,html.Screen,4_13_2,2023-09-08T20:44:51.103Z,,0,,,NaN,,,,,,false,,,,149126.30000001192,149126.30000001192,,149126.19999998808,,149138.205,8,400,,,
sequence,flow.Sequence,4_13,2023-09-08T20:44:51.103Z,,0,,,3116.17600001191,completion,,,,,false,,,,149126.39999997616,149126.30000001192,146002.679,146004.69999998808,146010.124,149138.205,8,400,,,
trial,html.Screen,4_14_0,2023-09-08T20:44:53.969Z,,0,1,,2854.795000000013,response,ISIC_0011035.JPG,6,ISIC_1431777.JPG,ISIC_1431777.JPG,false,0,keypress(z),500,151993.10000002384,151993,149131.287,149126.39999997616,149138.205,151995.251,8,400,15,,ISIC_0011035.JPG
break,html.Screen,4_14_1,2023-09-08T20:44:53.970Z,,0,,,NaN,,,,,,false,,,,151993.39999997616,151993.30000001192,,151993.10000002384,,151995.251,8,400,,,
break_continue,html.Screen,4_14_2,2023-09-08T20:44:53.970Z,,0,,,NaN,,,,,,false,,,,151993.60000002384,151993.5,,151993.39999997616,,151995.251,8,400,,,
sequence,flow.Sequence,4_14,2023-09-08T20:44:53.970Z,,0,,,2855.295000000013,completion,,,,,false,,,,151993.69999998808,151993.5,149131.287,149126.39999997616,149138.205,151995.251,8,400,,,
trial,html.Screen,4_15_0,2023-09-08T20:44:56.889Z,,0,1,,2917.648999976169,response,ISIC_0010295.JPG,5,ISIC_0238824.JPG,ISIC_0010295.JPG,false,1,keypress(m),500,154912.89999997616,154912.89999997616,151987.763,151993.69999998808,151995.251,154914.807,8,400,16,,ISIC_0238824.JPG
break,html.Screen,4_15_1,2023-09-08T20:44:56.890Z,,0,,,NaN,,,,,,false,,,,154913.30000001192,154913.19999998808,,154913,,154914.807,8,400,,,
break_continue,html.Screen,4_15_2,2023-09-08T20:44:56.890Z,,0,,,NaN,,,,,,false,,,,154913.39999997616,154913.39999997616,,154913.30000001192,,154914.807,8,400,,,
sequence,flow.Sequence,4_15,2023-09-08T20:44:56.890Z,,0,,,2918.148999976169,completion,,,,,false,,,,154913.5,154913.39999997616,151987.763,151993.69999998808,151995.251,154914.807,8,400,,,
trial,html.Screen,4_16_0,2023-09-08T20:44:59.746Z,,0,1,,2854.6929999999993,response,ISIC_6447681.JPG,5,ISIC_9134566.JPG,ISIC_6447681.JPG,false,1,keypress(m),500,157769.69999998808,157769.5,154907.8,154913.5,154914.807,157771.814,8,400,17,,ISIC_9134566.JPG
break,html.Screen,4_16_1,2023-09-08T20:44:59.746Z,,0,,,NaN,,,,,,false,,,,157770.10000002384,157769.89999997616,,157769.80000001192,,157771.814,8,400,,,
break_continue,html.Screen,4_16_2,2023-09-08T20:44:59.747Z,,0,,,NaN,,,,,,false,,,,157770.19999998808,157770.10000002384,,157770.10000002384,,157771.814,8,400,,,
sequence,flow.Sequence,4_16,2023-09-08T20:44:59.747Z,,0,,,2855.293000023841,completion,,,,,false,,,,157770.30000001192,157770.10000002384,154907.8,154913.5,154914.807,157771.814,8,400,,,
trial,html.Screen,4_17_0,2023-09-08T20:45:03.219Z,,0,1,,3471.185999999987,response,ISIC_3283317.JPG,6,ISIC_0033470.JPG,ISIC_3283317.JPG,false,1,keypress(m),500,161243.10000002384,161243,157764.427,157770.30000001192,157771.814,161247.461,8,400,18,,ISIC_0033470.JPG
break,html.Screen,4_17_1,2023-09-08T20:45:03.220Z,,0,,,NaN,,,,,,false,,,,161243.39999997616,161243.39999997616,,161243.19999998808,,161247.461,8,400,,,
break_continue,html.Screen,4_17_2,2023-09-08T20:45:03.220Z,,0,,,NaN,,,,,,false,,,,161243.60000002384,161243.60000002384,,161243.5,,161247.461,8,400,,,
sequence,flow.Sequence,4_17,2023-09-08T20:45:03.220Z,,0,,,3471.786000023829,completion,,,,,false,,,,161243.69999998808,161243.60000002384,157764.427,157770.30000001192,157771.814,161247.461,8,400,,,
trial,html.Screen,4_18_0,2023-09-08T20:45:06.486Z,,0,1,,3262.0389999999898,response,ISIC_0033168.JPG,4,ISIC_9268141.JPG,ISIC_0033168.JPG,false,1,keypress(m),500,164509.60000002384,164509.5,161240.167,161243.69999998808,161247.461,164514.605,8,400,19,,ISIC_9268141.JPG
break,html.Screen,4_18_1,2023-09-08T20:45:06.486Z,,0,,,NaN,,,,,,false,,,,164510,164509.89999997616,,164509.80000001192,,164514.605,8,400,,,
break_continue,html.Screen,4_18_2,2023-09-08T20:45:06.486Z,,0,,,NaN,,,,,,false,,,,164510.10000002384,164510.10000002384,,164510,,164514.605,8,400,,,
sequence,flow.Sequence,4_18,2023-09-08T20:45:06.487Z,,0,,,3262.6390000238316,completion,,,,,false,,,,164510.19999998808,164510.10000002384,161240.167,161243.69999998808,161247.461,164514.605,8,400,,,
trial,html.Screen,4_19_0,2023-09-08T20:45:09.336Z,,0,1,,2845.1950000119105,response,ISIC_0028352.JPG,5,ISIC_7881017.JPG,ISIC_0028352.JPG,false,1,keypress(m),500,167359.80000001192,167359.80000001192,164507.178,164510.19999998808,164514.605,167364.687,8,400,20,,ISIC_7881017.JPG
break,html.Screen,4_19_1,2023-09-08T20:45:09.337Z,,0,,,NaN,,,,,,false,,,,167360.19999998808,167360.19999998808,,167359.89999997616,,167364.687,8,400,,,
break_continue,html.Screen,4_19_2,2023-09-08T20:45:09.337Z,,0,,,NaN,,,,,,false,,,,167360.39999997616,167360.39999997616,,167360.19999998808,,167364.687,8,400,,,
sequence,flow.Sequence,4_19,2023-09-08T20:45:09.337Z,,0,,,2845.7949999761477,completion,,,,,false,,,,167360.39999997616,167360.39999997616,164507.178,164510.19999998808,164514.605,167364.687,8,400,,,
trial,html.Screen,4_20_0,2023-09-08T20:45:12.234Z,,0,1,,2892.712999976153,response,ISIC_0025382.JPG,5,ISIC_0678758.JPG,ISIC_0025382.JPG,false,1,keypress(m),500,170257.5,170257.39999997616,167357.729,167360.5,167364.687,170263.476,8,400,21,,ISIC_0678758.JPG
break,html.Screen,4_20_1,2023-09-08T20:45:12.234Z,,0,,,NaN,,,,,,false,,,,170257.89999997616,170257.80000001192,,170257.60000002384,,170263.476,8,400,,,
break_continue,html.Screen,4_20_2,2023-09-08T20:45:12.234Z,,0,,,NaN,,,,,,false,,,,170258,170258,,170257.89999997616,,170263.476,8,400,,,
sequence,flow.Sequence,4_20,2023-09-08T20:45:12.234Z,,0,,,2893.3129999999946,completion,,,,,false,,,,170258.10000002384,170258,167357.729,167360.5,167364.687,170263.476,8,400,,,
trial,html.Screen,4_21_0,2023-09-08T20:45:15.019Z,,0,1,,2779.324000011926,response,ISIC_0011163.JPG,5,ISIC_9214649.JPG,ISIC_9214649.JPG,false,0,keypress(z),500,173042.89999997616,173042.80000001192,170255.936,170258.10000002384,170263.476,173051.726,8,400,22,,ISIC_0011163.JPG
break,html.Screen,4_21_1,2023-09-08T20:45:15.020Z,,0,,,NaN,,,,,,false,,,,173043.19999998808,173043.19999998808,,173043,,173051.726,8,400,,,
break_continue,html.Screen,4_21_2,2023-09-08T20:45:15.020Z,,0,,,NaN,,,,,,false,,,,173043.39999997616,173043.30000001192,,173043.30000001192,,173051.726,8,400,,,
sequence,flow.Sequence,4_21,2023-09-08T20:45:15.020Z,,0,,,2779.824000011926,completion,,,,,false,,,,173043.5,173043.30000001192,170255.936,170258.10000002384,170263.476,173051.726,8,400,,,
trial,html.Screen,4_22_0,2023-09-08T20:45:17.853Z,,0,1,,2824.8740000238467,response,ISIC_0908367.JPG,5,ISIC_0033520.JPG,ISIC_0908367.JPG,false,1,keypress(m),500,175876.69999998808,175876.60000002384,173036.822,173043.5,173051.726,175880.127,8,400,23,,ISIC_0033520.JPG
break,html.Screen,4_22_1,2023-09-08T20:45:17.854Z,,0,,,NaN,,,,,,false,,,,175877.19999998808,175877.10000002384,,175876.89999997616,,175880.127,8,400,,,
break_continue,html.Screen,4_22_2,2023-09-08T20:45:17.854Z,,0,,,NaN,,,,,,false,,,,175877.39999997616,175877.30000001192,,175877.19999998808,,175880.127,8,400,,,
sequence,flow.Sequence,4_22,2023-09-08T20:45:17.854Z,,0,,,2825.574000011926,completion,,,,,false,,,,175877.39999997616,175877.30000001192,173036.822,173043.5,173051.726,175880.127,8,400,,,
trial,html.Screen,4_23_0,2023-09-08T20:45:20.628Z,,0,1,,2771.473000023834,response,ISIC_0062525.JPG,4,ISIC_0070387.JPG,ISIC_0070387.JPG,false,0,keypress(z),500,178651.69999998808,178651.60000002384,175872.637,175877.5,175880.127,178653.681,8,400,24,,ISIC_0062525.JPG
break,html.Screen,4_23_1,2023-09-08T20:45:20.628Z,,0,,,NaN,,,,,,false,,,,178652.10000002384,178652,,178651.80000001192,,178653.681,8,400,,,
break_continue,html.Screen,4_23_2,2023-09-08T20:45:20.629Z,,0,,,NaN,,,,,,false,,,,178652.19999998808,178652.19999998808,,178652.10000002384,,178653.681,8,400,,,
sequence,flow.Sequence,4_23,2023-09-08T20:45:20.629Z,,0,,,2772.0729999880714,completion,,,,,false,,,,178652.19999998808,178652.19999998808,175872.637,175877.5,175880.127,178653.681,8,400,,,
trial,html.Screen,4_24_0,2023-09-08T20:45:23.589Z,,0,1,,2959.2189999761467,response,ISIC_3961647.JPG,5,ISIC_5888212.JPG,ISIC_5888212.JPG,false,0,keypress(z),500,181613,181612.89999997616,178646.253,178652.30000001192,178653.681,181615.009,8,400,25,,ISIC_3961647.JPG
break,html.Screen,4_24_1,2023-09-08T20:45:23.590Z,,0,,,NaN,,,,,,false,,,,181613.39999997616,181613.30000001192,,181613.10000002384,,181615.009,8,400,,,
break_continue,html.Screen,4_24_2,2023-09-08T20:45:23.590Z,,0,,,NaN,,,,,,false,,,,181613.60000002384,181613.60000002384,,181613.5,,181615.009,8,400,,,
sequence,flow.Sequence,4_24,2023-09-08T20:45:23.590Z,,0,,,2959.9190000238304,completion,,,,,false,,,,181613.69999998808,181613.60000002384,178646.253,178652.30000001192,178653.681,181615.009,8,400,,,
trial,html.Screen,4_25_0,2023-09-08T20:45:27.399Z,,0,1,,3807.491000000009,response,ISIC_0024987.JPG,5,ISIC_6684042.JPG,ISIC_0024987.JPG,false,1,keypress(m),500,185422.5,185422.5,181607.79,181613.80000001192,181615.009,185424.374,8,400,26,,ISIC_6684042.JPG
break,html.Screen,4_25_1,2023-09-08T20:45:27.399Z,,0,,,NaN,,,,,,false,,,,185423,185422.89999997616,,185422.60000002384,,185424.374,8,400,,,
break_continue,html.Screen,4_25_2,2023-09-08T20:45:27.399Z,,0,,,NaN,,,,,,false,,,,185423.10000002384,185423.10000002384,,185423,,185424.374,8,400,,,
sequence,flow.Sequence,4_25,2023-09-08T20:45:27.399Z,,0,,,3808.091000023851,completion,,,,,false,,,,185423.19999998808,185423.10000002384,181607.79,181613.80000001192,181615.009,185424.374,8,400,,,
trial,html.Screen,4_26_0,2023-09-08T20:45:30.872Z,,0,1,,3471.42600001191,response,ISIC_8006094.JPG,4,ISIC_7980339.JPG,ISIC_7980339.JPG,false,0,keypress(z),500,188896,188895.80000001192,185417.308,185423.19999998808,185424.374,188899.992,8,400,27,,ISIC_8006094.JPG
break,html.Screen,4_26_1,2023-09-08T20:45:30.873Z,,0,,,NaN,,,,,,false,,,,188896.39999997616,188896.30000001192,,188896.10000002384,,188899.992,8,400,,,
break_continue,html.Screen,4_26_2,2023-09-08T20:45:30.873Z,,0,,,NaN,,,,,,false,,,,188896.5,188896.5,,188896.5,,188899.992,8,400,,,
sequence,flow.Sequence,4_26,2023-09-08T20:45:30.873Z,,0,,,3472.1259999999893,completion,,,,,false,,,,188896.60000002384,188896.5,185417.308,185423.19999998808,185424.374,188899.992,8,400,,,
trial,html.Screen,4_27_0,2023-09-08T20:45:34.458Z,,0,1,,3581.8080000119226,response,ISIC_5239607.JPG,5,ISIC_0430356.JPG,ISIC_0430356.JPG,false,0,keypress(z),500,192481.80000001192,192481.80000001192,188893.037,188896.69999998808,188899.992,192486.928,8,400,28,,ISIC_5239607.JPG
break,html.Screen,4_27_1,2023-09-08T20:45:34.459Z,,0,,,NaN,,,,,,false,,,,192482.19999998808,192482.10000002384,,192481.89999997616,,192486.928,8,400,,,
break_continue,html.Screen,4_27_2,2023-09-08T20:45:34.459Z,,0,,,NaN,,,,,,false,,,,192482.39999997616,192482.39999997616,,192482.30000001192,,192486.928,8,400,,,
sequence,flow.Sequence,4_27,2023-09-08T20:45:34.459Z,,0,,,3582.4079999761598,completion,,,,,false,,,,192482.5,192482.39999997616,188893.037,188896.60000002384,188899.992,192486.928,8,400,,,
trial,html.Screen,4_28_0,2023-09-08T20:45:37.932Z,,0,1,,3468.6720000238274,response,ISIC_0084086.JPG,5,ISIC_0058649.JPG,ISIC_0058649.JPG,false,0,keypress(z),500,195955.69999998808,195955.60000002384,192479.457,192482.5,192486.928,195962.57,8,400,29,,ISIC_0084086.JPG
break,html.Screen,4_28_1,2023-09-08T20:45:37.932Z,,0,,,NaN,,,,,,false,,,,195956.10000002384,195956,,195955.80000001192,,195962.57,8,400,,,
break_continue,html.Screen,4_28_2,2023-09-08T20:45:37.933Z,,0,,,NaN,,,,,,false,,,,195956.19999998808,195956.19999998808,,195956.10000002384,,195962.57,8,400,,,
sequence,flow.Sequence,4_28,2023-09-08T20:45:37.933Z,,0,,,3469.2719999880646,completion,,,,,false,,,,195956.30000001192,195956.19999998808,192479.457,192482.5,192486.928,195962.57,8,400,,,
trial,html.Screen,4_29_0,2023-09-08T20:45:41.662Z,,0,1,,3723.030000023835,response,ISIC_0053791.JPG,4,ISIC_0016127.JPG,ISIC_0053791.JPG,false,1,keypress(m),500,199685.60000002384,199685.60000002384,195955.153,195956.39999997616,195962.57,199688.549,8,400,30,,ISIC_0016127.JPG
break,html.Screen,4_29_1,2023-09-08T20:45:41.662Z,,0,,,NaN,,,,,,false,,,,199686,199686,,199685.69999998808,,199688.549,8,400,,,
break_continue,html.Screen,4_29_2,2023-09-08T20:45:41.662Z,,0,,,NaN,,,,,,false,,,,199686.19999998808,199686.10000002384,,199686,,199688.549,8,400,,,
sequence,flow.Sequence,4_29,2023-09-08T20:45:41.663Z,,0,,,3723.530000023835,completion,,,,,false,,,,199686.30000001192,199686.10000002384,195955.153,195956.39999997616,195962.57,199688.549,8,400,,,
trial,html.Screen,4_30_0,2023-09-08T20:45:44.855Z,,0,1,,3189.65099998808,response,ISIC_7233368.JPG,5,ISIC_0027556.JPG,ISIC_0027556.JPG,false,0,keypress(z),500,202878.30000001192,202878.19999998808,199681.19,199686.30000001192,199688.549,202886.255,8,400,31,,ISIC_7233368.JPG
break,html.Screen,4_30_1,2023-09-08T20:45:44.855Z,,0,,,NaN,,,,,,false,,,,202878.69999998808,202878.5,,202878.30000001192,,202886.255,8,400,,,
break_continue,html.Screen,4_30_2,2023-09-08T20:45:44.855Z,,0,,,NaN,,,,,,false,,,,202878.89999997616,202878.80000001192,,202878.69999998808,,202886.255,8,400,,,
sequence,flow.Sequence,4_30,2023-09-08T20:45:44.855Z,,0,,,3190.251000011922,completion,,,,,false,,,,202878.89999997616,202878.80000001192,199681.19,199686.30000001192,199688.549,202886.255,8,400,,,
trial,html.Screen,4_31_0,2023-09-08T20:45:47.904Z,,0,1,,3041.6449999761535,response,ISIC_5816399.JPG,4,ISIC_0013953.JPG,ISIC_0013953.JPG,false,0,keypress(z),500,205928.10000002384,205927.89999997616,202872.215,202878.89999997616,202886.255,205937.781,8,400,32,,ISIC_5816399.JPG
break,html.Screen,4_31_1,2023-09-08T20:45:47.905Z,,0,,,NaN,,,,,,false,,,,205928.39999997616,205928.39999997616,,205928.19999998808,,205937.781,8,400,,,
break_continue,html.Screen,4_31_2,2023-09-08T20:45:47.905Z,,0,,,NaN,,,,,,false,,,,205928.60000002384,205928.5,,205928.5,,205937.781,8,400,,,
sequence,flow.Sequence,4_31,2023-09-08T20:45:47.905Z,,0,,,3042.2449999999953,completion,,,,,false,,,,205928.69999998808,205928.5,202872.215,202878.89999997616,202886.255,205937.781,8,400,,,
trial,html.Screen,4_32_0,2023-09-08T20:45:51.746Z,,0,1,,3831.519000011933,response,ISIC_0025418.JPG,5,ISIC_0028626.JPG,ISIC_0028626.JPG,false,0,keypress(z),500,209769.30000001192,209769.30000001192,205930.886,205928.69999998808,205937.781,209774.952,8,400,33,,ISIC_0025418.JPG
break,html.Screen,4_32_1,2023-09-08T20:45:51.746Z,,0,,,NaN,,,,,,false,,,,209769.69999998808,209769.60000002384,,209769.5,,209774.952,8,400,,,
break_continue,html.Screen,4_32_2,2023-09-08T20:45:51.746Z,,0,,,NaN,,,,,,false,,,,209769.80000001192,209769.80000001192,,209769.80000001192,,209774.952,8,400,,,
sequence,flow.Sequence,4_32,2023-09-08T20:45:51.746Z,,0,,,3832.019000011933,completion,,,,,false,,,,209769.89999997616,209769.80000001192,205930.886,205928.69999998808,205937.781,209774.952,8,400,,,
trial,html.Screen,4_33_0,2023-09-08T20:45:55.108Z,,0,1,,3356.6480000238516,response,ISIC_0030922.JPG,4,ISIC_0783513.JPG,ISIC_0783513.JPG,false,0,keypress(z),500,213131.69999998808,213131.60000002384,209767.936,209769.89999997616,209774.952,213139.481,8,400,34,,ISIC_0030922.JPG
break,html.Screen,4_33_1,2023-09-08T20:45:55.108Z,,0,,,NaN,,,,,,false,,,,213132.10000002384,213132,,213131.80000001192,,213139.481,8,400,,,
break_continue,html.Screen,4_33_2,2023-09-08T20:45:55.109Z,,0,,,NaN,,,,,,false,,,,213132.19999998808,213132.19999998808,,213132.10000002384,,213139.481,8,400,,,
sequence,flow.Sequence,4_33,2023-09-08T20:45:55.109Z,,0,,,3357.247999988089,completion,,,,,false,,,,213132.30000001192,213132.19999998808,209767.936,209769.89999997616,209774.952,213139.481,8,400,,,
trial,html.Screen,4_34_0,2023-09-08T20:45:58.040Z,,0,1,,2924.119000023842,response,ISIC_3967213.JPG,4,ISIC_0054851.JPG,ISIC_0054851.JPG,false,0,keypress(z),500,216063.69999998808,216063.60000002384,213125.302,213132.39999997616,213139.481,216065.965,8,400,35,,ISIC_3967213.JPG
break,html.Screen,4_34_1,2023-09-08T20:45:58.040Z,,0,,,NaN,,,,,,false,,,,216064,216064,,216063.69999998808,,216065.965,8,400,,,
break_continue,html.Screen,4_34_2,2023-09-08T20:45:58.041Z,,0,,,NaN,,,,,,false,,,,216064.30000001192,216064.19999998808,,216064.10000002384,,216065.965,8,400,,,
sequence,flow.Sequence,4_34,2023-09-08T20:45:58.041Z,,0,,,2924.7189999880793,completion,,,,,false,,,,216064.30000001192,216064.19999998808,213125.302,213132.39999997616,213139.481,216065.965,8,400,,,
trial,html.Screen,4_35_0,2023-09-08T20:46:01.712Z,,0,1,,3669.8350000119244,response,ISIC_2486088.JPG,5,ISIC_9876515.JPG,ISIC_2486088.JPG,false,1,keypress(m),500,219735.89999997616,219735.80000001192,216058.87,216064.30000001192,216065.965,219743.203,8,400,36,,ISIC_9876515.JPG
break,html.Screen,4_35_1,2023-09-08T20:46:01.713Z,,0,,,NaN,,,,,,false,,,,219736.30000001192,219736.19999998808,,219736.10000002384,,219743.203,8,400,,,
break_continue,html.Screen,4_35_2,2023-09-08T20:46:01.713Z,,0,,,NaN,,,,,,false,,,,219736.39999997616,219736.39999997616,,219736.39999997616,,219743.203,8,400,,,
sequence,flow.Sequence,4_35,2023-09-08T20:46:01.713Z,,0,,,3670.4349999761616,completion,,,,,false,,,,219736.5,219736.39999997616,216058.87,216064.30000001192,216065.965,219743.203,8,400,,,
trial,html.Screen,4_36_0,2023-09-08T20:46:05.282Z,,0,1,,3562.5970000119123,response,ISIC_0958701.JPG,4,ISIC_8814672.JPG,ISIC_0958701.JPG,false,1,keypress(m),500,223305.89999997616,223305.80000001192,219736.269,219736.60000002384,219743.203,223309.246,8,400,37,,ISIC_8814672.JPG
break,html.Screen,4_36_1,2023-09-08T20:46:05.283Z,,0,,,NaN,,,,,,false,,,,223306.39999997616,223306.30000001192,,223306.10000002384,,223309.246,8,400,,,
break_continue,html.Screen,4_36_2,2023-09-08T20:46:05.283Z,,0,,,NaN,,,,,,false,,,,223306.60000002384,223306.5,,223306.5,,223309.246,8,400,,,
sequence,flow.Sequence,4_36,2023-09-08T20:46:05.283Z,,0,,,3563.2969999999914,completion,,,,,false,,,,223306.69999998808,223306.5,219736.269,219736.60000002384,219743.203,223309.246,8,400,,,
trial,html.Screen,4_37_0,2023-09-08T20:46:09.145Z,,0,1,,3859.4539999880653,response,ISIC_7329395.JPG,4,ISIC_0002549.JPG,ISIC_7329395.JPG,false,1,keypress(m),500,227168.69999998808,227168.69999998808,223302.134,223306.80000001192,223309.246,227174.203,8,400,38,,ISIC_0002549.JPG
break,html.Screen,4_37_1,2023-09-08T20:46:09.145Z,,0,,,NaN,,,,,,false,,,,227169.10000002384,227169,,227168.80000001192,,227174.203,8,400,,,
break_continue,html.Screen,4_37_2,2023-09-08T20:46:09.146Z,,0,,,NaN,,,,,,false,,,,227169.30000001192,227169.19999998808,,227169.19999998808,,227174.203,8,400,,,
sequence,flow.Sequence,4_37,2023-09-08T20:46:09.146Z,,0,,,3859.9539999880653,completion,,,,,false,,,,227169.30000001192,227169.19999998808,223302.134,223306.80000001192,223309.246,227174.203,8,400,,,
trial,html.Screen,4_38_0,2023-09-08T20:46:12.763Z,,0,1,,3611.9969999880705,response,ISIC_5624273.JPG,4,ISIC_6284012.JPG,ISIC_6284012.JPG,false,0,keypress(z),500,230786.30000001192,230786.19999998808,227166.923,227169.39999997616,227174.203,230788.939,8,400,39,,ISIC_5624273.JPG
break,html.Screen,4_38_1,2023-09-08T20:46:12.763Z,,0,,,NaN,,,,,,false,,,,230786.69999998808,230786.60000002384,,230786.39999997616,,230788.939,8,400,,,
break_continue,html.Screen,4_38_2,2023-09-08T20:46:12.763Z,,0,,,NaN,,,,,,false,,,,230786.89999997616,230786.80000001192,,230786.80000001192,,230788.939,8,400,,,
sequence,flow.Sequence,4_38,2023-09-08T20:46:12.763Z,,0,,,3612.5970000119123,completion,,,,,false,,,,230786.89999997616,230786.80000001192,227166.923,227169.30000001192,227174.203,230788.939,8,400,,,
trial,html.Screen,4_39_0,2023-09-08T20:46:16.082Z,,0,1,,3316.560999999987,response,ISIC_9331097.JPG,4,ISIC_5718805.JPG,ISIC_9331097.JPG,false,1,keypress(m),500,234105.60000002384,234105.5,230781.467,230787,230788.939,234111.654,8,400,40,,ISIC_5718805.JPG
break,html.Screen,4_39_1,2023-09-08T20:46:16.082Z,,0,,,NaN,,,,,,false,,,,234105.89999997616,234105.89999997616,,234105.69999998808,,234111.654,8,400,,,
break_continue,html.Screen,4_39_2,2023-09-08T20:46:16.082Z,,0,,,NaN,,,,,,false,,,,234106.10000002384,234106.10000002384,,234106,,234111.654,8,400,,,
sequence,flow.Sequence,4_39,2023-09-08T20:46:16.082Z,,0,,,3317.161000023829,completion,,,,,false,,,,234106.19999998808,234106.10000002384,230781.467,230787,230788.939,234111.654,8,400,,,
trial,html.Screen,4_40_0,2023-09-08T20:46:19.594Z,,0,1,,3506.2459999761486,response,ISIC_0065748.JPG,4,ISIC_0029950.JPG,ISIC_0065748.JPG,false,1,keypress(m),500,237618.10000002384,237617.89999997616,234104.283,234106.30000001192,234111.654,237622.084,8,400,41,,ISIC_0029950.JPG
break,html.Screen,4_40_1,2023-09-08T20:46:19.595Z,,0,,,NaN,,,,,,false,,,,237618.39999997616,237618.30000001192,,237618.10000002384,,237622.084,8,400,,,
break_continue,html.Screen,4_40_2,2023-09-08T20:46:19.595Z,,0,,,NaN,,,,,,false,,,,237618.60000002384,237618.60000002384,,237618.5,,237622.084,8,400,,,
sequence,flow.Sequence,4_40,2023-09-08T20:46:19.595Z,,0,,,3506.9460000238323,completion,,,,,false,,,,237618.60000002384,237618.60000002384,234104.283,234106.30000001192,234111.654,237622.084,8,400,,,
trial,html.Screen,4_41_0,2023-09-08T20:46:23.139Z,,0,1,,3540.3159999761556,response,ISIC_9742891.JPG,4,ISIC_0056201.JPG,ISIC_0056201.JPG,false,0,keypress(z),500,241162.39999997616,241162.39999997616,237614.87,237618.60000002384,237622.084,241167.346,8,400,42,,ISIC_9742891.JPG
break,html.Screen,4_41_1,2023-09-08T20:46:23.139Z,,0,,,NaN,,,,,,false,,,,241162.89999997616,241162.80000001192,,241162.5,,241167.346,8,400,,,
break_continue,html.Screen,4_41_2,2023-09-08T20:46:23.139Z,,0,,,NaN,,,,,,false,,,,241163,241162.89999997616,,241162.89999997616,,241167.346,8,400,,,
sequence,flow.Sequence,4_41,2023-09-08T20:46:23.139Z,,0,,,3540.8159999761556,completion,,,,,false,,,,241163,241162.89999997616,237614.87,237618.60000002384,237622.084,241167.346,8,400,,,
trial,html.Screen,4_42_0,2023-09-08T20:46:26.795Z,,0,1,,3651.6540000000095,response,ISIC_2424673.JPG,4,ISIC_0032750.JPG,ISIC_0032750.JPG,false,0,keypress(z),500,244819.10000002384,244819,241160.015,241163.10000002384,241167.346,244823.694,8,400,43,,ISIC_2424673.JPG
break,html.Screen,4_42_1,2023-09-08T20:46:26.796Z,,0,,,NaN,,,,,,false,,,,244819.39999997616,244819.39999997616,,244819.19999998808,,244823.694,8,400,,,
break_continue,html.Screen,4_42_2,2023-09-08T20:46:26.796Z,,0,,,NaN,,,,,,false,,,,244819.69999998808,244819.60000002384,,244819.5,,244823.694,8,400,,,
sequence,flow.Sequence,4_42,2023-09-08T20:46:26.796Z,,0,,,3652.2540000238514,completion,,,,,false,,,,244819.69999998808,244819.60000002384,241160.015,241163.10000002384,241167.346,244823.694,8,400,,,
trial,html.Screen,4_43_0,2023-09-08T20:46:30.244Z,,0,1,,3443.5059999880905,response,ISIC_0066750.JPG,5,ISIC_0010140.JPG,ISIC_0066750.JPG,false,1,keypress(m),500,248267.19999998808,248267.19999998808,244816.28,244819.69999998808,244823.694,248271.563,8,400,44,,ISIC_0010140.JPG
break,html.Screen,4_43_1,2023-09-08T20:46:30.244Z,,0,,,NaN,,,,,,false,,,,248267.60000002384,248267.5,,248267.39999997616,,248271.563,8,400,,,
break_continue,html.Screen,4_43_2,2023-09-08T20:46:30.244Z,,0,,,NaN,,,,,,false,,,,248267.80000001192,248267.69999998808,,248267.69999998808,,248271.563,8,400,,,
sequence,flow.Sequence,4_43,2023-09-08T20:46:30.244Z,,0,,,3444.0059999880905,completion,,,,,false,,,,248267.89999997616,248267.69999998808,244816.28,244819.69999998808,244823.694,248271.563,8,400,,,
trial,html.Screen,4_44_0,2023-09-08T20:46:34.102Z,,0,1,,3853.9370000000054,response,ISIC_0029982.JPG,5,ISIC_0015133.JPG,ISIC_0029982.JPG,false,1,keypress(m),500,252125.69999998808,252125.5,248264.115,248267.89999997616,248271.563,252129.603,8,400,45,,ISIC_0015133.JPG
break,html.Screen,4_44_1,2023-09-08T20:46:34.102Z,,0,,,NaN,,,,,,false,,,,252126,252126,,252125.69999998808,,252129.603,8,400,,,
break_continue,html.Screen,4_44_2,2023-09-08T20:46:34.102Z,,0,,,NaN,,,,,,false,,,,252126.19999998808,252126.10000002384,,252126.10000002384,,252129.603,8,400,,,
sequence,flow.Sequence,4_44,2023-09-08T20:46:34.103Z,,0,,,3854.537000023847,completion,,,,,false,,,,252126.30000001192,252126.10000002384,248264.115,248267.89999997616,248271.563,252129.603,8,400,,,
trial,html.Screen,4_45_0,2023-09-08T20:46:37.912Z,,0,1,,3805.7969999761553,response,ISIC_4720306.JPG,6,ISIC_0012059.JPG,ISIC_0012059.JPG,false,0,keypress(z),500,255935.5,255935.39999997616,252122.203,252126.30000001192,252129.603,255938.987,8,400,46,,ISIC_4720306.JPG
break,html.Screen,4_45_1,2023-09-08T20:46:37.912Z,,0,,,NaN,,,,,,false,,,,255936,255935.80000001192,,255935.60000002384,,255938.987,8,400,,,
break_continue,html.Screen,4_45_2,2023-09-08T20:46:37.912Z,,0,,,NaN,,,,,,false,,,,255936.10000002384,255936,,255936,,255938.987,8,400,,,
sequence,flow.Sequence,4_45,2023-09-08T20:46:37.912Z,,0,,,3806.396999999997,completion,,,,,false,,,,255936.10000002384,255936,252122.203,252126.30000001192,252129.603,255938.987,8,400,,,
trial,html.Screen,4_46_0,2023-09-08T20:46:41.450Z,,0,1,,3535.0130000000063,response,ISIC_9688119.JPG,5,ISIC_5576250.JPG,ISIC_9688119.JPG,false,1,keypress(m),500,259474.10000002384,259474,255931.481,255936.19999998808,255938.987,259477.169,8,400,47,,ISIC_5576250.JPG
break,html.Screen,4_46_1,2023-09-08T20:46:41.451Z,,0,,,NaN,,,,,,false,,,,259474.5,259474.30000001192,,259474.10000002384,,259477.169,8,400,,,
break_continue,html.Screen,4_46_2,2023-09-08T20:46:41.451Z,,0,,,NaN,,,,,,false,,,,259474.5,259474.5,,259474.5,,259477.169,8,400,,,
sequence,flow.Sequence,4_46,2023-09-08T20:46:41.451Z,,0,,,3535.5130000000063,completion,,,,,false,,,,259474.60000002384,259474.5,255931.481,255936.19999998808,255938.987,259477.169,8,400,,,
trial,html.Screen,4_47_0,2023-09-08T20:46:44.845Z,,0,1,,3391.6310000119265,response,ISIC_0072582.JPG,6,ISIC_0010886.JPG,ISIC_0010886.JPG,false,0,keypress(z),500,262868.89999997616,262868.8000000119,259470.108,259474.69999998808,259477.169,262876.761,8,400,48,,ISIC_0072582.JPG
break,html.Screen,4_47_1,2023-09-08T20:46:44.846Z,,0,,,NaN,,,,,,false,,,,262869.3000000119,262869.10000002384,,262869,,262876.761,8,400,,,
break_continue,html.Screen,4_47_2,2023-09-08T20:46:44.846Z,,0,,,NaN,,,,,,false,,,,262869.39999997616,262869.3000000119,,262869.3000000119,,262876.761,8,400,,,
sequence,flow.Sequence,4_47,2023-09-08T20:46:44.846Z,,0,,,3392.1310000119265,completion,,,,,false,,,,262869.39999997616,262869.3000000119,259470.108,259474.69999998808,259477.169,262876.761,8,400,,,
trial,html.Screen,4_48_0,2023-09-08T20:46:48.326Z,,0,1,,3472.8390000238433,response,ISIC_0015185.JPG,6,ISIC_1628539.JPG,ISIC_0015185.JPG,false,1,keypress(m),500,266349.6999999881,266349.60000002384,262862.468,262869.60000002384,262876.761,266352.072,8,400,49,,ISIC_1628539.JPG
break,html.Screen,4_48_1,2023-09-08T20:46:48.326Z,,0,,,NaN,,,,,,false,,,,266350,266350,,266349.8000000119,,266352.072,8,400,,,
break_continue,html.Screen,4_48_2,2023-09-08T20:46:48.327Z,,0,,,NaN,,,,,,false,,,,266350.1999999881,266350.1999999881,,266350.10000002384,,266352.072,8,400,,,
sequence,flow.Sequence,4_48,2023-09-08T20:46:48.327Z,,0,,,3473.4389999880805,completion,,,,,false,,,,266350.3000000119,266350.1999999881,262862.468,262869.5,262876.761,266352.072,8,400,,,
trial,html.Screen,4_49_0,2023-09-08T20:46:51.934Z,,0,1,,3605.5280000238563,response,ISIC_0010347.JPG,4,ISIC_0011693.JPG,ISIC_0011693.JPG,false,0,keypress(z),500,269957.6999999881,269957.60000002384,266344.73,266350.39999997616,266352.072,269959.817,8,400,50,,ISIC_0010347.JPG
break,html.Screen,4_49_1,2023-09-08T20:47:01.932Z,,0,,,10003.01000000001,timeout,,,,,false,,,,279956.1999999881,279955.929,269952.414,269957.8000000119,269959.817,279962.827,8,400,,,
break_continue,html.Screen,4_49_2,2023-09-08T20:47:04.446Z,,0,,,2503.572999976168,response,,,,,false,continue,keypress(Space),,282469.89999997616,282466.39999997616,279955.929,279956.1999999881,279962.827,282472.291,8,400,,,
sequence,flow.Sequence,4_49,2023-09-08T20:47:04.446Z,,0,,,16114.327999976173,completion,,,,,false,,,,282470,282466.39999997616,266344.73,266350.3000000119,266352.072,282472.291,8,400,,,
trial,html.Screen,4_50_0,2023-09-08T20:47:07.792Z,,0,2,,3343.3090000238153,response,ISIC_0029561.JPG,5,ISIC_0068168.JPG,ISIC_0068168.JPG,false,0,keypress(z),500,285815.6999999881,285815.60000002384,282464.142,282470,282472.291,285822.818,8,400,1,,ISIC_0029561.JPG
break,html.Screen,4_50_1,2023-09-08T20:47:07.792Z,,0,,,NaN,,,,,,false,,,,285816.10000002384,285816.10000002384,,285815.8000000119,,285822.818,8,400,,,
break_continue,html.Screen,4_50_2,2023-09-08T20:47:07.793Z,,0,,,NaN,,,,,,false,,,,285816.1999999881,285816.1999999881,,285816.1999999881,,285822.818,8,400,,,
sequence,flow.Sequence,4_50,2023-09-08T20:47:07.793Z,,0,,,3343.9089999880525,completion,,,,,false,,,,285816.3000000119,285816.1999999881,282464.142,282470,282472.291,285822.818,8,400,,,
trial,html.Screen,4_51_0,2023-09-08T20:47:11.529Z,,0,2,,3729.4820000118925,response,ISIC_2007396.JPG,5,ISIC_0007351.JPG,ISIC_0007351.JPG,false,0,keypress(z),500,289552.39999997616,289552.3000000119,285815.431,285816.3000000119,285822.818,289555.747,8,400,2,,ISIC_2007396.JPG
break,html.Screen,4_51_1,2023-09-08T20:47:11.529Z,,0,,,NaN,,,,,,false,,,,289552.8000000119,289552.60000002384,,289552.39999997616,,289555.747,8,400,,,
break_continue,html.Screen,4_51_2,2023-09-08T20:47:11.529Z,,0,,,NaN,,,,,,false,,,,289552.89999997616,289552.89999997616,,289552.8000000119,,289555.747,8,400,,,
sequence,flow.Sequence,4_51,2023-09-08T20:47:11.529Z,,0,,,3730.0819999761297,completion,,,,,false,,,,289553,289552.89999997616,285815.431,285816.3000000119,285822.818,289555.747,8,400,,,
trial,html.Screen,4_52_0,2023-09-08T20:47:15.516Z,,0,2,,3983.553000011947,response,ISIC_4884803.JPG,4,ISIC_1856556.JPG,ISIC_1856556.JPG,false,0,keypress(z),500,293539.3000000119,293539.3000000119,289548.558,289553,289555.747,293545.78,8,400,3,,ISIC_4884803.JPG
break,html.Screen,4_52_1,2023-09-08T20:47:15.516Z,,0,,,NaN,,,,,,false,,,,293539.6999999881,293539.6999999881,,293539.39999997616,,293545.78,8,400,,,
break_continue,html.Screen,4_52_2,2023-09-08T20:47:15.516Z,,0,,,NaN,,,,,,false,,,,293539.89999997616,293539.8000000119,,293539.8000000119,,293545.78,8,400,,,
sequence,flow.Sequence,4_52,2023-09-08T20:47:15.516Z,,0,,,3984.053000011947,completion,,,,,false,,,,293539.89999997616,293539.8000000119,289548.558,289553,289555.747,293545.78,8,400,,,
trial,html.Screen,4_53_0,2023-09-08T20:47:19.298Z,,0,2,,3775.419999988051,response,ISIC_0961235.JPG,4,ISIC_3734674.JPG,ISIC_3734674.JPG,false,0,keypress(z),500,297321.39999997616,297321.1999999881,293538.646,293540,293545.78,297327.345,8,400,4,,ISIC_0961235.JPG
break,html.Screen,4_53_1,2023-09-08T20:47:19.298Z,,0,,,NaN,,,,,,false,,,,297321.8000000119,297321.8000000119,,297321.5,,297327.345,8,400,,,
break_continue,html.Screen,4_53_2,2023-09-08T20:47:19.298Z,,0,,,NaN,,,,,,false,,,,297322,297322,,297321.89999997616,,297327.345,8,400,,,
sequence,flow.Sequence,4_53,2023-09-08T20:47:19.298Z,,0,,,3776.219999999972,completion,,,,,false,,,,297322,297322,293538.646,293540,293545.78,297327.345,8,400,,,
trial,html.Screen,4_54_0,2023-09-08T20:47:23.129Z,,0,2,,3825.554999976186,response,ISIC_0024565.JPG,4,ISIC_8794567.JPG,ISIC_8794567.JPG,false,0,keypress(z),500,301152.89999997616,301152.89999997616,297319.922,297322,297327.345,301157.537,8,400,5,,ISIC_0024565.JPG
break,html.Screen,4_54_1,2023-09-08T20:47:23.130Z,,0,,,NaN,,,,,,false,,,,301153.1999999881,301153.1999999881,,301153,,301157.537,8,400,,,
break_continue,html.Screen,4_54_2,2023-09-08T20:47:23.130Z,,0,,,NaN,,,,,,false,,,,301154,301153.89999997616,,301153.89999997616,,301157.537,8,400,,,
sequence,flow.Sequence,4_54,2023-09-08T20:47:23.130Z,,0,,,3826.554999976186,completion,,,,,false,,,,301154.10000002384,301153.89999997616,297319.922,297322,297327.345,301157.537,8,400,,,
trial,html.Screen,4_55_0,2023-09-08T20:47:26.619Z,,0,2,,3485.362999976147,response,ISIC_0060979.JPG,5,ISIC_2784965.JPG,ISIC_0060979.JPG,false,1,keypress(m),500,304642.89999997616,304642.89999997616,301150.293,301154.10000002384,301157.537,304647.154,8,400,6,,ISIC_2784965.JPG
break,html.Screen,4_55_1,2023-09-08T20:47:26.620Z,,0,,,NaN,,,,,,false,,,,304643.3000000119,304643.3000000119,,304643,,304647.154,8,400,,,
break_continue,html.Screen,4_55_2,2023-09-08T20:47:26.620Z,,0,,,NaN,,,,,,false,,,,304643.5,304643.39999997616,,304643.39999997616,,304647.154,8,400,,,
sequence,flow.Sequence,4_55,2023-09-08T20:47:26.620Z,,0,,,3485.862999976147,completion,,,,,false,,,,304643.5,304643.39999997616,301150.293,301154.10000002384,301157.537,304647.154,8,400,,,
trial,html.Screen,4_56_0,2023-09-08T20:47:30.146Z,,0,2,,3522.9460000238614,response,ISIC_9187876.JPG,6,ISIC_0008431.JPG,ISIC_0008431.JPG,false,0,keypress(z),500,308170.10000002384,308170.10000002384,304639.683,304643.60000002384,304647.154,308179.018,8,400,7,,ISIC_9187876.JPG
break,html.Screen,4_56_1,2023-09-08T20:47:30.147Z,,0,,,NaN,,,,,,false,,,,308170.60000002384,308170.5,,308170.3000000119,,308179.018,8,400,,,
break_continue,html.Screen,4_56_2,2023-09-08T20:47:30.147Z,,0,,,NaN,,,,,,false,,,,308170.6999999881,308170.6999999881,,308170.6999999881,,308179.018,8,400,,,
sequence,flow.Sequence,4_56,2023-09-08T20:47:30.147Z,,0,,,3523.5459999880986,completion,,,,,false,,,,308170.8000000119,308170.6999999881,304639.683,304643.60000002384,304647.154,308179.018,8,400,,,
trial,html.Screen,4_57_0,2023-09-08T20:47:33.866Z,,0,2,,3710.982000000018,response,ISIC_3871225.JPG,5,ISIC_0030592.JPG,ISIC_3871225.JPG,false,1,keypress(m),500,311890.10000002384,311890,308164.029,308170.8000000119,308179.018,311897.376,8,400,8,,ISIC_0030592.JPG
break,html.Screen,4_57_1,2023-09-08T20:47:33.867Z,,0,,,NaN,,,,,,false,,,,311890.60000002384,311890.5,,311890.3000000119,,311897.376,8,400,,,
break_continue,html.Screen,4_57_2,2023-09-08T20:47:33.867Z,,0,,,NaN,,,,,,false,,,,311890.8000000119,311890.8000000119,,311890.6999999881,,311897.376,8,400,,,
sequence,flow.Sequence,4_57,2023-09-08T20:47:33.867Z,,0,,,3711.782000011939,completion,,,,,false,,,,311890.89999997616,311890.8000000119,308164.029,308170.8000000119,308179.018,311897.376,8,400,,,
trial,html.Screen,4_58_0,2023-09-08T20:47:37.356Z,,0,2,,3482.4240000119316,response,ISIC_0034243.JPG,5,ISIC_0055282.JPG,ISIC_0034243.JPG,false,1,keypress(m),500,315379.89999997616,315379.8000000119,311889.963,311890.89999997616,311897.376,315387.002,8,400,9,,ISIC_0055282.JPG
break,html.Screen,4_58_1,2023-09-08T20:47:37.357Z,,0,,,NaN,,,,,,false,,,,315380.39999997616,315380.3000000119,,315380.10000002384,,315387.002,8,400,,,
break_continue,html.Screen,4_58_2,2023-09-08T20:47:37.357Z,,0,,,NaN,,,,,,false,,,,315380.60000002384,315380.5,,315380.5,,315387.002,8,400,,,
sequence,flow.Sequence,4_58,2023-09-08T20:47:37.357Z,,0,,,3483.1240000000107,completion,,,,,false,,,,315380.60000002384,315380.5,311889.963,311890.89999997616,311897.376,315387.002,8,400,,,
trial,html.Screen,4_59_0,2023-09-08T20:47:40.948Z,,0,2,,3584.3979999761796,response,ISIC_0024586.JPG,5,ISIC_9107280.JPG,ISIC_0024586.JPG,false,1,keypress(m),500,318971.60000002384,318971.39999997616,315380.01,315380.6999999881,315387.002,318973.904,8,400,10,,ISIC_9107280.JPG
break,html.Screen,4_59_1,2023-09-08T20:47:40.948Z,,0,,,NaN,,,,,,false,,,,318972,318971.8000000119,,318971.6999999881,,318973.904,8,400,,,
break_continue,html.Screen,4_59_2,2023-09-08T20:47:40.948Z,,0,,,NaN,,,,,,false,,,,318972.10000002384,318972.10000002384,,318972,,318973.904,8,400,,,
sequence,flow.Sequence,4_59,2023-09-08T20:47:40.949Z,,0,,,3585.0980000238633,completion,,,,,false,,,,318972.1999999881,318972.10000002384,315380.01,315380.6999999881,315387.002,318973.904,8,400,,,
trial,html.Screen,4_60_0,2023-09-08T20:47:45.196Z,,0,2,,4245.696000023861,response,ISIC_0033530.JPG,5,ISIC_2394780.JPG,ISIC_2394780.JPG,false,0,keypress(z),500,323219.6999999881,323219.60000002384,318966.85,318972.3000000119,318973.904,323221.2,8,400,11,,ISIC_0033530.JPG
break,html.Screen,4_60_1,2023-09-08T20:47:45.196Z,,0,,,NaN,,,,,,false,,,,323220.10000002384,323219.89999997616,,323219.8000000119,,323221.2,8,400,,,
break_continue,html.Screen,4_60_2,2023-09-08T20:47:45.196Z,,0,,,NaN,,,,,,false,,,,323220.1999999881,323220.1999999881,,323220.10000002384,,323221.2,8,400,,,
sequence,flow.Sequence,4_60,2023-09-08T20:47:45.197Z,,0,,,4246.295999988099,completion,,,,,false,,,,323220.1999999881,323220.1999999881,318966.85,318972.3000000119,318973.904,323221.2,8,400,,,
trial,html.Screen,4_61_0,2023-09-08T20:47:48.846Z,,0,2,,3648.4999999880674,response,ISIC_0062099.JPG,5,ISIC_2635051.JPG,ISIC_0062099.JPG,false,1,keypress(m),500,326869.8000000119,326869.6999999881,323213.879,323220.3000000119,323221.2,326884.524,8,400,12,,ISIC_2635051.JPG
break,html.Screen,4_61_1,2023-09-08T20:47:48.846Z,,0,,,NaN,,,,,,false,,,,326870.10000002384,326870.10000002384,,326869.89999997616,,326884.524,8,400,,,
break_continue,html.Screen,4_61_2,2023-09-08T20:47:48.847Z,,0,,,NaN,,,,,,false,,,,326870.3000000119,326870.3000000119,,326870.1999999881,,326884.524,8,400,,,
sequence,flow.Sequence,4_61,2023-09-08T20:47:48.847Z,,0,,,3649.1000000119093,completion,,,,,false,,,,326870.39999997616,326870.3000000119,323213.879,323220.3000000119,323221.2,326884.524,8,400,,,
trial,html.Screen,4_62_0,2023-09-08T20:47:52.112Z,,0,2,,3251.1759999881033,response,ISIC_0046344.JPG,4,ISIC_9209245.JPG,ISIC_0046344.JPG,false,1,keypress(m),500,330135.6999999881,330135.6999999881,326877.672,326870.39999997616,326884.524,330137.772,8,400,13,,ISIC_9209245.JPG
break,html.Screen,4_62_1,2023-09-08T20:47:52.112Z,,0,,,NaN,,,,,,false,,,,330136.10000002384,330136,,330135.8000000119,,330137.772,8,400,,,
break_continue,html.Screen,4_62_2,2023-09-08T20:47:52.113Z,,0,,,NaN,,,,,,false,,,,330136.3000000119,330136.1999999881,,330136.1999999881,,330137.772,8,400,,,
sequence,flow.Sequence,4_62,2023-09-08T20:47:52.113Z,,0,,,3251.6759999881033,completion,,,,,false,,,,330136.3000000119,330136.1999999881,326877.672,326870.39999997616,326884.524,330137.772,8,400,,,
trial,html.Screen,4_63_0,2023-09-08T20:47:55.237Z,,0,2,,3122.627999976161,response,ISIC_5287679.JPG,4,ISIC_0027928.JPG,ISIC_0027928.JPG,false,0,keypress(z),500,333260.5,333260.39999997616,330130.33,330136.5,330137.772,333265.879,8,400,14,,ISIC_5287679.JPG
break,html.Screen,4_63_1,2023-09-08T20:47:55.237Z,,0,,,NaN,,,,,,false,,,,333260.89999997616,333260.8000000119,,333260.60000002384,,333265.879,8,400,,,
break_continue,html.Screen,4_63_2,2023-09-08T20:47:55.237Z,,0,,,NaN,,,,,,false,,,,333261,333261,,333260.89999997616,,333265.879,8,400,,,
sequence,flow.Sequence,4_63,2023-09-08T20:47:55.237Z,,0,,,3123.228000000003,completion,,,,,false,,,,333261.10000002384,333261,330130.33,330136.39999997616,330137.772,333265.879,8,400,,,
trial,html.Screen,4_64_0,2023-09-08T20:47:58.630Z,,0,2,,3388.1209999999846,response,ISIC_6487069.JPG,4,ISIC_3810274.JPG,ISIC_6487069.JPG,false,1,keypress(m),500,336654.10000002384,336654,333258.922,333261.10000002384,333265.879,336658.161,8,400,15,,ISIC_3810274.JPG
break,html.Screen,4_64_1,2023-09-08T20:47:58.631Z,,0,,,NaN,,,,,,false,,,,336654.39999997616,336654.39999997616,,336654.1999999881,,336658.161,8,400,,,
break_continue,html.Screen,4_64_2,2023-09-08T20:47:58.631Z,,0,,,NaN,,,,,,false,,,,336654.60000002384,336654.60000002384,,336654.5,,336658.161,8,400,,,
sequence,flow.Sequence,4_64,2023-09-08T20:47:58.631Z,,0,,,3388.7210000238265,completion,,,,,false,,,,336654.6999999881,336654.60000002384,333258.922,333261.10000002384,333265.879,336658.161,8,400,,,
trial,html.Screen,4_65_0,2023-09-08T20:48:03.672Z,,0,2,,5037.738999976136,response,ISIC_0011403.JPG,4,ISIC_0031369.JPG,ISIC_0011403.JPG,false,1,keypress(m),500,341696,341695.89999997616,336650.722,336654.89999997616,336658.161,341697.938,8,400,16,,ISIC_0031369.JPG
break,html.Screen,4_65_1,2023-09-08T20:48:03.673Z,,0,,,NaN,,,,,,false,,,,341696.39999997616,341696.3000000119,,341696.10000002384,,341697.938,8,400,,,
break_continue,html.Screen,4_65_2,2023-09-08T20:48:03.673Z,,0,,,NaN,,,,,,false,,,,341696.5,341696.5,,341696.39999997616,,341697.938,8,400,,,
sequence,flow.Sequence,4_65,2023-09-08T20:48:03.673Z,,0,,,5038.338999999978,completion,,,,,false,,,,341696.60000002384,341696.5,336650.722,336654.89999997616,336658.161,341697.938,8,400,,,
trial,html.Screen,4_66_0,2023-09-08T20:48:08.191Z,,0,2,,4516.761999988055,response,ISIC_0028716.JPG,5,ISIC_0068727.JPG,ISIC_0068727.JPG,false,0,keypress(z),500,346214.8000000119,346214.6999999881,341690.424,341696.60000002384,341697.938,346216.254,8,400,17,,ISIC_0028716.JPG
break,html.Screen,4_66_1,2023-09-08T20:48:08.192Z,,0,,,NaN,,,,,,false,,,,346215.3000000119,346215.1999999881,,346214.89999997616,,346216.254,8,400,,,
break_continue,html.Screen,4_66_2,2023-09-08T20:48:08.192Z,,0,,,NaN,,,,,,false,,,,346215.39999997616,346215.39999997616,,346215.3000000119,,346216.254,8,400,,,
sequence,flow.Sequence,4_66,2023-09-08T20:48:08.192Z,,0,,,4517.461999976134,completion,,,,,false,,,,346215.60000002384,346215.39999997616,341690.424,341696.60000002384,341697.938,346216.254,8,400,,,
trial,html.Screen,4_67_0,2023-09-08T20:48:12.103Z,,0,2,,3910.645999976143,response,ISIC_0033738.JPG,4,ISIC_0072569.JPG,ISIC_0072569.JPG,false,0,keypress(z),500,350127.10000002384,350126.89999997616,346208.835,346215.60000002384,346216.254,350129.896,8,400,18,,ISIC_0033738.JPG
break,html.Screen,4_67_1,2023-09-08T20:48:12.104Z,,0,,,NaN,,,,,,false,,,,350127.39999997616,350127.3000000119,,350127.1999999881,,350129.896,8,400,,,
break_continue,html.Screen,4_67_2,2023-09-08T20:48:12.104Z,,0,,,NaN,,,,,,false,,,,350127.60000002384,350127.5,,350127.5,,350129.896,8,400,,,
sequence,flow.Sequence,4_67,2023-09-08T20:48:12.104Z,,0,,,3911.2459999999846,completion,,,,,false,,,,350127.6999999881,350127.5,346208.835,346215.60000002384,346216.254,350129.896,8,400,,,
trial,html.Screen,4_68_0,2023-09-08T20:48:16.617Z,,0,2,,4510.404000011913,response,ISIC_1499915.JPG,5,ISIC_0004000.JPG,ISIC_0004000.JPG,false,0,keypress(z),500,354640.39999997616,354640.3000000119,350122.439,350127.6999999881,350129.896,354649.265,8,400,19,,ISIC_1499915.JPG
break,html.Screen,4_68_1,2023-09-08T20:48:16.617Z,,0,,,NaN,,,,,,false,,,,354640.8000000119,354640.6999999881,,354640.5,,354649.265,8,400,,,
break_continue,html.Screen,4_68_2,2023-09-08T20:48:16.617Z,,0,,,NaN,,,,,,false,,,,354640.89999997616,354640.89999997616,,354640.8000000119,,354649.265,8,400,,,
sequence,flow.Sequence,4_68,2023-09-08T20:48:16.617Z,,0,,,4511.00399997615,completion,,,,,false,,,,354641,354640.89999997616,350122.439,350127.6999999881,350129.896,354649.265,8,400,,,
trial,html.Screen,4_69_0,2023-09-08T20:48:20.256Z,,0,2,,3630.634999976144,response,ISIC_0428257.JPG,4,ISIC_4587506.JPG,ISIC_0428257.JPG,false,1,keypress(m),500,358280,358279.89999997616,354633.904,354641.10000002384,354649.265,358283.819,8,400,20,,ISIC_4587506.JPG
break,html.Screen,4_69_1,2023-09-08T20:48:20.257Z,,0,,,NaN,,,,,,false,,,,358280.3000000119,358280.3000000119,,358280.10000002384,,358283.819,8,400,,,
break_continue,html.Screen,4_69_2,2023-09-08T20:48:20.257Z,,0,,,NaN,,,,,,false,,,,358280.5,358280.5,,358280.39999997616,,358283.819,8,400,,,
sequence,flow.Sequence,4_69,2023-09-08T20:48:20.257Z,,0,,,3631.234999999986,completion,,,,,false,,,,358280.60000002384,358280.5,354633.904,354641.10000002384,354649.265,358283.819,8,400,,,
trial,html.Screen,4_70_0,2023-09-08T20:48:23.889Z,,0,2,,3629.0809999761404,response,ISIC_4107717.JPG,5,ISIC_9303594.JPG,ISIC_4107717.JPG,false,1,keypress(m),500,361913,361912.89999997616,358276.417,358280.60000002384,358283.819,361919.441,8,400,21,,ISIC_9303594.JPG
break,html.Screen,4_70_1,2023-09-08T20:48:23.890Z,,0,,,NaN,,,,,,false,,,,361913.39999997616,361913.3000000119,,361913.1999999881,,361919.441,8,400,,,
break_continue,html.Screen,4_70_2,2023-09-08T20:48:23.890Z,,0,,,NaN,,,,,,false,,,,361913.60000002384,361913.60000002384,,361913.5,,361919.441,8,400,,,
sequence,flow.Sequence,4_70,2023-09-08T20:48:23.890Z,,0,,,3629.781000023824,completion,,,,,false,,,,361913.6999999881,361913.60000002384,358276.417,358280.60000002384,358283.819,361919.441,8,400,,,
trial,html.Screen,4_71_0,2023-09-08T20:48:27.465Z,,0,2,,3569.2589999880875,response,ISIC_0026043.JPG,5,ISIC_2021321.JPG,ISIC_0026043.JPG,false,1,keypress(m),500,365488.6999999881,365488.6999999881,361911.951,361913.8000000119,361919.441,365492.387,8,400,22,,ISIC_2021321.JPG
break,html.Screen,4_71_1,2023-09-08T20:48:27.465Z,,0,,,NaN,,,,,,false,,,,365489.10000002384,365489.10000002384,,365488.89999997616,,365492.387,8,400,,,
break_continue,html.Screen,4_71_2,2023-09-08T20:48:27.466Z,,0,,,NaN,,,,,,false,,,,365489.3000000119,365489.3000000119,,365489.3000000119,,365492.387,8,400,,,
sequence,flow.Sequence,4_71,2023-09-08T20:48:27.466Z,,0,,,3569.8590000119293,completion,,,,,false,,,,365489.39999997616,365489.3000000119,361911.951,361913.8000000119,361919.441,365492.387,8,400,,,
trial,html.Screen,4_72_0,2023-09-08T20:48:31.083Z,,0,2,,3614.0129999761702,response,ISIC_0033103.JPG,4,ISIC_0029409.JPG,ISIC_0033103.JPG,false,1,keypress(m),500,369106.5,369106.39999997616,365484.948,365489.39999997616,365492.387,369114.399,8,400,23,,ISIC_0029409.JPG
break,html.Screen,4_72_1,2023-09-08T20:48:31.083Z,,0,,,NaN,,,,,,false,,,,369107,369106.8000000119,,369106.60000002384,,369114.399,8,400,,,
break_continue,html.Screen,4_72_2,2023-09-08T20:48:31.084Z,,0,,,NaN,,,,,,false,,,,369107.1999999881,369107.1999999881,,369107,,369114.399,8,400,,,
sequence,flow.Sequence,4_72,2023-09-08T20:48:31.084Z,,0,,,3614.812999988091,completion,,,,,false,,,,369107.3000000119,369107.1999999881,365484.948,365489.39999997616,365492.387,369114.399,8,400,,,
trial,html.Screen,4_73_0,2023-09-08T20:48:34.925Z,,0,2,,3834.201000023866,response,ISIC_7670304.JPG,5,ISIC_7562175.JPG,ISIC_7670304.JPG,false,1,keypress(m),500,372948.6999999881,372948.60000002384,369106.606,369107.39999997616,369114.399,372951.197,8,400,24,,ISIC_7562175.JPG
break,html.Screen,4_73_1,2023-09-08T20:48:34.925Z,,0,,,NaN,,,,,,false,,,,372949,372948.89999997616,,372948.8000000119,,372951.197,8,400,,,
break_continue,html.Screen,4_73_2,2023-09-08T20:48:34.925Z,,0,,,NaN,,,,,,false,,,,372949.1999999881,372949.10000002384,,372949.10000002384,,372951.197,8,400,,,
sequence,flow.Sequence,4_73,2023-09-08T20:48:34.926Z,,0,,,3834.701000023866,completion,,,,,false,,,,372949.3000000119,372949.10000002384,369106.606,369107.39999997616,369114.399,372951.197,8,400,,,
trial,html.Screen,4_74_0,2023-09-08T20:48:38.370Z,,0,2,,3442.8030000000144,response,ISIC_0072001.JPG,6,ISIC_0028248.JPG,ISIC_0072001.JPG,false,1,keypress(m),500,376394.10000002384,376394,372944.166,372949.3000000119,372951.197,376399.132,8,400,25,,ISIC_0028248.JPG
break,html.Screen,4_74_1,2023-09-08T20:48:38.371Z,,0,,,NaN,,,,,,false,,,,376394.5,376394.39999997616,,376394.1999999881,,376399.132,8,400,,,
break_continue,html.Screen,4_74_2,2023-09-08T20:48:38.371Z,,0,,,NaN,,,,,,false,,,,376394.6999999881,376394.5,,376394.5,,376399.132,8,400,,,
sequence,flow.Sequence,4_74,2023-09-08T20:48:38.371Z,,0,,,3443.3030000000144,completion,,,,,false,,,,376394.6999999881,376394.5,372944.166,372949.3000000119,372951.197,376399.132,8,400,,,
trial,html.Screen,4_75_0,2023-09-08T20:48:42.692Z,,0,2,,4316.267999976175,response,ISIC_9228729.JPG,6,ISIC_6370977.JPG,ISIC_9228729.JPG,false,1,keypress(m),500,380715.5,380715.39999997616,376391.705,376394.8000000119,376399.132,380723.369,8,400,26,,ISIC_6370977.JPG
break,html.Screen,4_75_1,2023-09-08T20:48:42.692Z,,0,,,NaN,,,,,,false,,,,380715.89999997616,380715.8000000119,,380715.60000002384,,380723.369,8,400,,,
break_continue,html.Screen,4_75_2,2023-09-08T20:48:42.692Z,,0,,,NaN,,,,,,false,,,,380716,380716,,380715.89999997616,,380723.369,8,400,,,
sequence,flow.Sequence,4_75,2023-09-08T20:48:42.692Z,,0,,,4316.868000000017,completion,,,,,false,,,,380716.10000002384,380716,376391.705,376394.8000000119,376399.132,380723.369,8,400,,,
trial,html.Screen,4_76_0,2023-09-08T20:48:46.598Z,,0,2,,3898.030999976152,response,ISIC_7196249.JPG,5,ISIC_8484660.JPG,ISIC_8484660.JPG,false,0,keypress(z),500,384621.5,384621.39999997616,380715.395,380716.10000002384,380723.369,384630.401,8,400,27,,ISIC_7196249.JPG
break,html.Screen,4_76_1,2023-09-08T20:48:46.598Z,,0,,,NaN,,,,,,false,,,,384621.89999997616,384621.89999997616,,384621.60000002384,,384630.401,8,400,,,
break_continue,html.Screen,4_76_2,2023-09-08T20:48:46.598Z,,0,,,NaN,,,,,,false,,,,384622.10000002384,384622,,384621.89999997616,,384630.401,8,400,,,
sequence,flow.Sequence,4_76,2023-09-08T20:48:46.598Z,,0,,,3898.630999999994,completion,,,,,false,,,,384622.10000002384,384622,380715.395,380716.10000002384,380723.369,384630.401,8,400,,,
trial,html.Screen,4_77_0,2023-09-08T20:48:49.788Z,,0,2,,3180.8990000119084,response,ISIC_5383064.JPG,4,ISIC_0011627.JPG,ISIC_5383064.JPG,false,1,keypress(m),500,387811.3000000119,387811.3000000119,384615.084,384622.10000002384,384630.401,387813.256,8,400,28,,ISIC_0011627.JPG
break,html.Screen,4_77_1,2023-09-08T20:48:49.788Z,,0,,,NaN,,,,,,false,,,,387811.6999999881,387811.6999999881,,387811.39999997616,,387813.256,8,400,,,
break_continue,html.Screen,4_77_2,2023-09-08T20:48:49.788Z,,0,,,NaN,,,,,,false,,,,387811.89999997616,387811.8000000119,,387811.6999999881,,387813.256,8,400,,,
sequence,flow.Sequence,4_77,2023-09-08T20:48:49.788Z,,0,,,3181.3990000119084,completion,,,,,false,,,,387811.89999997616,387811.8000000119,384615.084,384622.10000002384,384630.401,387813.256,8,400,,,
trial,html.Screen,4_78_0,2023-09-08T20:48:53.197Z,,0,2,,3407.844000023848,response,ISIC_0058054.JPG,5,ISIC_0651114.JPG,ISIC_0651114.JPG,false,0,keypress(z),500,391221.10000002384,391221.10000002384,387805.831,387811.89999997616,387813.256,391226.36,8,400,29,,ISIC_0058054.JPG
break,html.Screen,4_78_1,2023-09-08T20:48:53.198Z,,0,,,NaN,,,,,,false,,,,391221.5,391221.39999997616,,391221.1999999881,,391226.36,8,400,,,
break_continue,html.Screen,4_78_2,2023-09-08T20:48:53.198Z,,0,,,NaN,,,,,,false,,,,391221.6999999881,391221.60000002384,,391221.5,,391226.36,8,400,,,
sequence,flow.Sequence,4_78,2023-09-08T20:48:53.198Z,,0,,,3408.344000023848,completion,,,,,false,,,,391221.6999999881,391221.60000002384,387805.831,387811.89999997616,387813.256,391226.36,8,400,,,
trial,html.Screen,4_79_0,2023-09-08T20:48:56.724Z,,0,2,,3520.940000011935,response,ISIC_7566505.JPG,4,ISIC_0029885.JPG,ISIC_0029885.JPG,false,0,keypress(z),500,394747.39999997616,394747.3000000119,391218.949,391221.6999999881,391226.36,394750.674,8,400,30,,ISIC_7566505.JPG
break,html.Screen,4_79_1,2023-09-08T20:48:56.724Z,,0,,,NaN,,,,,,false,,,,394747.8000000119,394747.6999999881,,394747.39999997616,,394750.674,8,400,,,
break_continue,html.Screen,4_79_2,2023-09-08T20:48:56.724Z,,0,,,NaN,,,,,,false,,,,394747.89999997616,394747.89999997616,,394747.8000000119,,394750.674,8,400,,,
sequence,flow.Sequence,4_79,2023-09-08T20:48:56.724Z,,0,,,3521.539999976172,completion,,,,,false,,,,394748.10000002384,394747.89999997616,391218.949,391221.6999999881,391226.36,394750.674,8,400,,,
trial,html.Screen,4_80_0,2023-09-08T20:48:59.670Z,,0,2,,2942.725999976159,response,ISIC_3900049.JPG,5,ISIC_4419686.JPG,ISIC_4419686.JPG,false,0,keypress(z),500,397693.5,397693.39999997616,394743.662,394748.10000002384,394750.674,397705.011,8,400,31,,ISIC_3900049.JPG
break,html.Screen,4_80_1,2023-09-08T20:48:59.670Z,,0,,,NaN,,,,,,false,,,,397693.89999997616,397693.8000000119,,397693.60000002384,,397705.011,8,400,,,
break_continue,html.Screen,4_80_2,2023-09-08T20:48:59.670Z,,0,,,NaN,,,,,,false,,,,397694,397694,,397693.89999997616,,397705.011,8,400,,,
sequence,flow.Sequence,4_80,2023-09-08T20:48:59.670Z,,0,,,2943.326000000001,completion,,,,,false,,,,397694.10000002384,397694,394743.662,394748.10000002384,394750.674,397705.011,8,400,,,
trial,html.Screen,4_81_0,2023-09-08T20:49:02.765Z,,0,2,,3083.1889999880805,response,ISIC_0025835.JPG,4,ISIC_0000866.JPG,ISIC_0025835.JPG,false,1,keypress(m),500,400788.3000000119,400788.1999999881,397698.109,397694.10000002384,397705.011,400791.399,8,400,32,,ISIC_0000866.JPG
break,html.Screen,4_81_1,2023-09-08T20:49:02.765Z,,0,,,NaN,,,,,,false,,,,400788.6999999881,400788.60000002384,,400788.3000000119,,400791.399,8,400,,,
break_continue,html.Screen,4_81_2,2023-09-08T20:49:02.765Z,,0,,,NaN,,,,,,false,,,,400788.89999997616,400788.89999997616,,400788.8000000119,,400791.399,8,400,,,
sequence,flow.Sequence,4_81,2023-09-08T20:49:02.765Z,,0,,,3083.8889999761595,completion,,,,,false,,,,400789.10000002384,400788.89999997616,397698.109,397694.10000002384,397705.011,400791.399,8,400,,,
trial,html.Screen,4_82_0,2023-09-08T20:49:05.733Z,,0,2,,2965.5009999761824,response,ISIC_9947369.JPG,4,ISIC_2513018.JPG,ISIC_2513018.JPG,false,0,keypress(z),500,403757.10000002384,403756.89999997616,400783.985,400789.10000002384,400791.399,403759.686,8,400,33,,ISIC_9947369.JPG
break,html.Screen,4_82_1,2023-09-08T20:49:05.734Z,,0,,,NaN,,,,,,false,,,,403757.5,403757.39999997616,,403757.10000002384,,403759.686,8,400,,,
break_continue,html.Screen,4_82_2,2023-09-08T20:49:05.734Z,,0,,,NaN,,,,,,false,,,,403757.89999997616,403757.8000000119,,403757.60000002384,,403759.686,8,400,,,
sequence,flow.Sequence,4_82,2023-09-08T20:49:05.734Z,,0,,,2966.401000011945,completion,,,,,false,,,,403757.89999997616,403757.8000000119,400783.985,400789.10000002384,400791.399,403759.686,8,400,,,
trial,html.Screen,4_83_0,2023-09-08T20:49:08.903Z,,0,2,,3167.013999988092,response,ISIC_0025929.JPG,5,ISIC_0024752.JPG,ISIC_0025929.JPG,false,1,keypress(m),500,406926.89999997616,406926.6999999881,403752.338,403758.10000002384,403759.686,406929.497,8,400,34,,ISIC_0024752.JPG
break,html.Screen,4_83_1,2023-09-08T20:49:08.904Z,,0,,,NaN,,,,,,false,,,,406927.3000000119,406927.10000002384,,406926.89999997616,,406929.497,8,400,,,
break_continue,html.Screen,4_83_2,2023-09-08T20:49:08.904Z,,0,,,NaN,,,,,,false,,,,406927.5,406927.39999997616,,406927.3000000119,,406929.497,8,400,,,
sequence,flow.Sequence,4_83,2023-09-08T20:49:08.904Z,,0,,,3167.713999976171,completion,,,,,false,,,,406927.5,406927.39999997616,403752.338,403758.10000002384,403759.686,406929.497,8,400,,,
trial,html.Screen,4_84_0,2023-09-08T20:49:12.366Z,,0,2,,3460.003000000026,response,ISIC_2058516.JPG,5,ISIC_5490352.JPG,ISIC_2058516.JPG,false,1,keypress(m),500,410389.6999999881,410389.5,406922.433,406927.60000002384,406929.497,410391.291,8,400,35,,ISIC_5490352.JPG
break,html.Screen,4_84_1,2023-09-08T20:49:12.366Z,,0,,,NaN,,,,,,false,,,,410390,410390,,410389.6999999881,,410391.291,8,400,,,
break_continue,html.Screen,4_84_2,2023-09-08T20:49:12.366Z,,0,,,NaN,,,,,,false,,,,410390.10000002384,410390,,410390,,410391.291,8,400,,,
sequence,flow.Sequence,4_84,2023-09-08T20:49:12.367Z,,0,,,3460.503000000026,completion,,,,,false,,,,410390.1999999881,410390,406922.433,406927.5,406929.497,410391.291,8,400,,,
trial,html.Screen,4_85_0,2023-09-08T20:49:15.751Z,,0,2,,3383.1089999761316,response,ISIC_0057462.JPG,5,ISIC_0057009.JPG,ISIC_0057009.JPG,false,0,keypress(z),500,413774.60000002384,413774.39999997616,410383.826,410390.8000000119,410391.291,413783.524,8,400,36,,ISIC_0057462.JPG
break,html.Screen,4_85_1,2023-09-08T20:49:15.751Z,,0,,,NaN,,,,,,false,,,,413774.89999997616,413774.8000000119,,413774.60000002384,,413783.524,8,400,,,
break_continue,html.Screen,4_85_2,2023-09-08T20:49:15.751Z,,0,,,NaN,,,,,,false,,,,413775,413775,,413775,,413783.524,8,400,,,
sequence,flow.Sequence,4_85,2023-09-08T20:49:15.751Z,,0,,,3383.7089999999735,completion,,,,,false,,,,413775.10000002384,413775,410383.826,410390.1999999881,410391.291,413783.524,8,400,,,
trial,html.Screen,4_86_0,2023-09-08T20:49:20.527Z,,0,2,,4766.976000000024,response,ISIC_7025208.JPG,4,ISIC_8296881.JPG,ISIC_8296881.JPG,false,0,keypress(z),500,418550.60000002384,418550.5,413776.583,413775.1999999881,413783.524,418552.196,8,400,37,,ISIC_7025208.JPG
break,html.Screen,4_86_1,2023-09-08T20:49:20.527Z,,0,,,NaN,,,,,,false,,,,418551,418550.89999997616,,418550.6999999881,,418552.196,8,400,,,
break_continue,html.Screen,4_86_2,2023-09-08T20:49:20.527Z,,0,,,NaN,,,,,,false,,,,418551.10000002384,418551.10000002384,,418551,,418552.196,8,400,,,
sequence,flow.Sequence,4_86,2023-09-08T20:49:20.528Z,,0,,,4767.576000023866,completion,,,,,false,,,,418551.3000000119,418551.10000002384,413776.583,413775.1999999881,413783.524,418552.196,8,400,,,
trial,html.Screen,4_87_0,2023-09-08T20:49:23.912Z,,0,2,,3383.4040000238456,response,ISIC_0061381.JPG,5,ISIC_0026264.JPG,ISIC_0061381.JPG,false,1,keypress(m),500,421935.8000000119,421935.60000002384,418544.686,418551.3000000119,418552.196,421937.474,8,400,38,,ISIC_0026264.JPG
break,html.Screen,4_87_1,2023-09-08T20:49:23.912Z,,0,,,NaN,,,,,,false,,,,421936.10000002384,421936,,421935.8000000119,,421937.474,8,400,,,
break_continue,html.Screen,4_87_2,2023-09-08T20:49:23.913Z,,0,,,NaN,,,,,,false,,,,421936.3000000119,421936.1999999881,,421936.10000002384,,421937.474,8,400,,,
sequence,flow.Sequence,4_87,2023-09-08T20:49:23.913Z,,0,,,3384.003999988083,completion,,,,,false,,,,421936.3000000119,421936.1999999881,418544.686,418551.3000000119,418552.196,421937.474,8,400,,,
trial,html.Screen,4_88_0,2023-09-08T20:49:27.456Z,,0,2,,3541.6260000238544,response,ISIC_2868199.JPG,5,ISIC_8036175.JPG,ISIC_2868199.JPG,false,1,keypress(m),500,425479.3000000119,425479.10000002384,421930.025,421936.3000000119,421937.474,425482.71,8,400,39,,ISIC_8036175.JPG
break,html.Screen,4_88_1,2023-09-08T20:49:27.456Z,,0,,,NaN,,,,,,false,,,,425479.6999999881,425479.5,,425479.39999997616,,425482.71,8,400,,,
break_continue,html.Screen,4_88_2,2023-09-08T20:49:27.456Z,,0,,,NaN,,,,,,false,,,,425479.8000000119,425479.6999999881,,425479.6999999881,,425482.71,8,400,,,
sequence,flow.Sequence,4_88,2023-09-08T20:49:27.456Z,,0,,,3542.2259999880916,completion,,,,,false,,,,425479.8000000119,425479.6999999881,421930.025,421936.3000000119,421937.474,425482.71,8,400,,,
trial,html.Screen,4_89_0,2023-09-08T20:49:30.625Z,,0,2,,3165.890000023821,response,ISIC_0032938.JPG,5,ISIC_1974152.JPG,ISIC_0032938.JPG,false,1,keypress(m),500,428648.6999999881,428648.60000002384,425475.611,425479.89999997616,425482.71,428652.447,8,400,40,,ISIC_1974152.JPG
break,html.Screen,4_89_1,2023-09-08T20:49:30.625Z,,0,,,NaN,,,,,,false,,,,428649.10000002384,428649,,428648.8000000119,,428652.447,8,400,,,
break_continue,html.Screen,4_89_2,2023-09-08T20:49:30.626Z,,0,,,NaN,,,,,,false,,,,428649.1999999881,428649.1999999881,,428649.10000002384,,428652.447,8,400,,,
sequence,flow.Sequence,4_89,2023-09-08T20:49:30.626Z,,0,,,3166.489999988058,completion,,,,,false,,,,428649.1999999881,428649.1999999881,425475.611,425479.89999997616,425482.71,428652.447,8,400,,,
trial,html.Screen,4_90_0,2023-09-08T20:49:33.640Z,,0,2,,3010.9529999761726,response,ISIC_5104731.JPG,5,ISIC_9944714.JPG,ISIC_5104731.JPG,false,1,keypress(m),500,431663.5,431663.39999997616,428645.432,428649.3000000119,428652.447,431669.381,8,400,41,,ISIC_9944714.JPG
break,html.Screen,4_90_1,2023-09-08T20:49:33.640Z,,0,,,NaN,,,,,,false,,,,431663.89999997616,431663.89999997616,,431663.60000002384,,431669.381,8,400,,,
break_continue,html.Screen,4_90_2,2023-09-08T20:49:33.640Z,,0,,,NaN,,,,,,false,,,,431664.10000002384,431664,,431664,,431669.381,8,400,,,
sequence,flow.Sequence,4_90,2023-09-08T20:49:33.640Z,,0,,,3011.5530000000144,completion,,,,,false,,,,431664.1999999881,431664,428645.432,428649.3000000119,428652.447,431669.381,8,400,,,
trial,html.Screen,4_91_0,2023-09-08T20:49:37.290Z,,0,2,,3644.119000000006,response,ISIC_2742786.JPG,5,ISIC_0068616.JPG,ISIC_0068616.JPG,false,0,keypress(Z),500,435313.60000002384,435313.5,431662.129,431664.1999999881,431669.381,435318.863,8,400,42,,ISIC_2742786.JPG
break,html.Screen,4_91_1,2023-09-08T20:49:37.290Z,,0,,,NaN,,,,,,false,,,,435314,435313.89999997616,,435313.6999999881,,435318.863,8,400,,,
break_continue,html.Screen,4_91_2,2023-09-08T20:49:37.290Z,,0,,,NaN,,,,,,false,,,,435314.10000002384,435314,,435314,,435318.863,8,400,,,
sequence,flow.Sequence,4_91,2023-09-08T20:49:37.290Z,,0,,,3644.619000000006,completion,,,,,false,,,,435314.1999999881,435314,431662.129,431664.1999999881,431669.381,435318.863,8,400,,,
trial,html.Screen,4_92_0,2023-09-08T20:49:42.737Z,,0,2,,5441.437000011909,response,ISIC_9646599.JPG,4,ISIC_3624318.JPG,ISIC_3624318.JPG,false,0,keypress(z),500,440760.39999997616,440760.3000000119,435311.401,435314.1999999881,435318.863,440761.788,8,400,43,,ISIC_9646599.JPG
break,html.Screen,4_92_1,2023-09-08T20:49:42.737Z,,0,,,NaN,,,,,,false,,,,440760.6999999881,440760.6999999881,,440760.5,,440761.788,8,400,,,
break_continue,html.Screen,4_92_2,2023-09-08T20:49:42.737Z,,0,,,NaN,,,,,,false,,,,440760.89999997616,440760.8000000119,,440760.8000000119,,440761.788,8,400,,,
sequence,flow.Sequence,4_92,2023-09-08T20:49:42.737Z,,0,,,5441.937000011909,completion,,,,,false,,,,440761,440760.8000000119,435311.401,435314.1999999881,435318.863,440761.788,8,400,,,
trial,html.Screen,4_93_0,2023-09-08T20:49:46.362Z,,0,2,,3623.7119999999995,response,ISIC_7612992.JPG,4,ISIC_1793821.JPG,ISIC_7612992.JPG,false,1,keypress(m),500,444385.6999999881,444385.5,440754.311,440761.10000002384,440761.788,444390.354,8,400,44,,ISIC_1793821.JPG
break,html.Screen,4_93_1,2023-09-08T20:49:46.362Z,,0,,,NaN,,,,,,false,,,,444386,444385.89999997616,,444385.6999999881,,444390.354,8,400,,,
break_continue,html.Screen,4_93_2,2023-09-08T20:49:46.363Z,,0,,,NaN,,,,,,false,,,,444386.1999999881,444386.1999999881,,444386.10000002384,,444390.354,8,400,,,
sequence,flow.Sequence,4_93,2023-09-08T20:49:46.363Z,,0,,,3624.4119999880786,completion,,,,,false,,,,444386.1999999881,444386.1999999881,440754.311,440761.10000002384,440761.788,444390.354,8,400,,,
trial,html.Screen,4_94_0,2023-09-08T20:49:49.740Z,,0,2,,3372.74600002385,response,ISIC_0030828.JPG,5,ISIC_8246858.JPG,ISIC_0030828.JPG,false,1,keypress(m),500,447763.1999999881,447763.10000002384,444382.905,444386.3000000119,444390.354,447768.72,8,400,45,,ISIC_8246858.JPG
break,html.Screen,4_94_1,2023-09-08T20:49:49.740Z,,0,,,NaN,,,,,,false,,,,447763.5,447763.5,,447763.1999999881,,447768.72,8,400,,,
break_continue,html.Screen,4_94_2,2023-09-08T20:49:49.740Z,,0,,,NaN,,,,,,false,,,,447763.6999999881,447763.6999999881,,447763.5,,447768.72,8,400,,,
sequence,flow.Sequence,4_94,2023-09-08T20:49:49.740Z,,0,,,3373.345999988087,completion,,,,,false,,,,447763.6999999881,447763.6999999881,444382.905,444386.3000000119,444390.354,447768.72,8,400,,,
trial,html.Screen,4_95_0,2023-09-08T20:49:53.133Z,,0,2,,3388.179999976186,response,ISIC_0005291.JPG,5,ISIC_7302456.JPG,ISIC_7302456.JPG,false,0,keypress(z),500,451157,451156.89999997616,447761.358,447763.8000000119,447768.72,451160.981,8,400,46,,ISIC_0005291.JPG
break,html.Screen,4_95_1,2023-09-08T20:49:53.134Z,,0,,,NaN,,,,,,false,,,,451157.39999997616,451157.3000000119,,451157.10000002384,,451160.981,8,400,,,
break_continue,html.Screen,4_95_2,2023-09-08T20:49:53.134Z,,0,,,NaN,,,,,,false,,,,451157.5,451157.5,,451157.39999997616,,451160.981,8,400,,,
sequence,flow.Sequence,4_95,2023-09-08T20:49:53.134Z,,0,,,3388.780000000028,completion,,,,,false,,,,451157.5,451157.5,447761.358,447763.8000000119,447768.72,451160.981,8,400,,,
trial,html.Screen,4_96_0,2023-09-08T20:49:56.287Z,,0,2,,3149.21899998805,response,ISIC_0005304.JPG,5,ISIC_9989485.JPG,ISIC_9989485.JPG,false,0,keypress(z),500,454310.39999997616,454310.1999999881,451153.744,451157.6999999881,451160.981,454323.866,8,400,47,,ISIC_0005304.JPG
break,html.Screen,4_96_1,2023-09-08T20:49:56.287Z,,0,,,NaN,,,,,,false,,,,454310.60000002384,454310.60000002384,,454310.39999997616,,454323.866,8,400,,,
break_continue,html.Screen,4_96_2,2023-09-08T20:49:56.287Z,,0,,,NaN,,,,,,false,,,,454310.8000000119,454310.8000000119,,454310.8000000119,,454323.866,8,400,,,
sequence,flow.Sequence,4_96,2023-09-08T20:49:56.287Z,,0,,,3149.819000011892,completion,,,,,false,,,,454310.89999997616,454310.8000000119,451153.744,451157.60000002384,451160.981,454323.866,8,400,,,
trial,html.Screen,4_97_0,2023-09-08T20:50:00.083Z,,0,2,,3783.13400000002,response,ISIC_1499915.JPG,4,ISIC_0028597.JPG,ISIC_1499915.JPG,false,1,keypress(m),500,458107.10000002384,458107,454316.943,454311,454323.866,458112.4,8,400,48,,ISIC_0028597.JPG
break,html.Screen,4_97_1,2023-09-08T20:50:00.084Z,,0,,,NaN,,,,,,false,,,,458107.5,458107.39999997616,,458107.1999999881,,458112.4,8,400,,,
break_continue,html.Screen,4_97_2,2023-09-08T20:50:00.084Z,,0,,,NaN,,,,,,false,,,,458107.60000002384,458107.60000002384,,458107.5,,458112.4,8,400,,,
sequence,flow.Sequence,4_97,2023-09-08T20:50:00.084Z,,0,,,3783.734000023862,completion,,,,,false,,,,458107.6999999881,458107.60000002384,454316.943,454310.89999997616,454323.866,458112.4,8,400,,,
trial,html.Screen,4_98_0,2023-09-08T20:50:03.237Z,,0,2,,3147.9000000118976,response,ISIC_8787152.JPG,5,ISIC_5754023.JPG,ISIC_5754023.JPG,false,0,keypress(z),500,461260.39999997616,461260.3000000119,458105.066,458107.8000000119,458112.4,461268.435,8,400,49,,ISIC_8787152.JPG
break,html.Screen,4_98_1,2023-09-08T20:50:03.237Z,,0,,,NaN,,,,,,false,,,,461260.8000000119,461260.6999999881,,461260.5,,461268.435,8,400,,,
break_continue,html.Screen,4_98_2,2023-09-08T20:50:03.237Z,,0,,,NaN,,,,,,false,,,,461260.89999997616,461260.89999997616,,461260.8000000119,,461268.435,8,400,,,
sequence,flow.Sequence,4_98,2023-09-08T20:50:03.237Z,,0,,,3148.499999976135,completion,,,,,false,,,,461261,461260.89999997616,458105.066,458107.6999999881,458112.4,461268.435,8,400,,,
trial,html.Screen,4_99_0,2023-09-08T20:50:06.428Z,,0,2,,3182.7649999880814,response,ISIC_0028755.JPG,4,ISIC_0001126.JPG,ISIC_0001126.JPG,false,0,keypress(z),500,464451.3000000119,464451.1999999881,461254.301,461261,461268.435,464459.155,8,400,50,,ISIC_0028755.JPG
break,html.Screen,4_99_1,2023-09-08T20:50:16.432Z,,0,,,10002.775999999954,timeout,,,,,false,,,,474455.1999999881,474455.023,464444.937,464451.3000000119,464459.155,474461.931,8,400,,,
break_continue,html.Screen,4_99_2,2023-09-08T20:50:16.846Z,,0,,,401.76899998809677,response,,,,,false,continue,keypress(Space),,474870.10000002384,474863.6999999881,474455.023,474455.3000000119,474461.931,474872.124,8,400,,,
sequence,flow.Sequence,4_99,2023-09-08T20:50:16.847Z,,0,,,13595.264999988081,completion,,,,,false,,,,474870.1999999881,474863.6999999881,461254.301,461261,461268.435,474872.124,8,400,,,
trial,html.Screen,4_100_0,2023-09-08T20:50:19.824Z,,0,3,,2975.0759999880684,response,ISIC_0030970.JPG,4,ISIC_0523125.JPG,ISIC_0523125.JPG,false,0,keypress(z),500,477847.3000000119,477847.1999999881,474865.106,474870.3000000119,474872.124,477854.219,8,400,1,,ISIC_0030970.JPG
break,html.Screen,4_100_1,2023-09-08T20:50:19.824Z,,0,,,NaN,,,,,,false,,,,477847.6999999881,477847.60000002384,,477847.39999997616,,477854.219,8,400,,,
break_continue,html.Screen,4_100_2,2023-09-08T20:50:19.824Z,,0,,,NaN,,,,,,false,,,,477847.89999997616,477847.89999997616,,477847.8000000119,,477854.219,8,400,,,
sequence,flow.Sequence,4_100,2023-09-08T20:50:19.824Z,,0,,,2975.7759999761474,completion,,,,,false,,,,477847.89999997616,477847.89999997616,474865.106,474870.3000000119,474872.124,477854.219,8,400,,,
trial,html.Screen,4_101_0,2023-09-08T20:50:23.335Z,,0,3,,3503.9809999880963,response,ISIC_3737739.JPG,4,ISIC_0026236.JPG,ISIC_0026236.JPG,false,0,keypress(z),500,481358.3000000119,481358.1999999881,477846.766,477848,477854.219,481364.686,8,400,2,,ISIC_3737739.JPG
break,html.Screen,4_101_1,2023-09-08T20:50:23.335Z,,0,,,NaN,,,,,,false,,,,481358.6999999881,481358.60000002384,,481358.39999997616,,481364.686,8,400,,,
break_continue,html.Screen,4_101_2,2023-09-08T20:50:23.335Z,,0,,,NaN,,,,,,false,,,,481358.89999997616,481358.8000000119,,481358.6999999881,,481364.686,8,400,,,
sequence,flow.Sequence,4_101,2023-09-08T20:50:23.335Z,,0,,,3504.581000011938,completion,,,,,false,,,,481358.89999997616,481358.8000000119,477846.766,477848,477854.219,481364.686,8,400,,,
trial,html.Screen,4_102_0,2023-09-08T20:50:27.071Z,,0,3,,3729.513999988092,response,ISIC_6704623.JPG,5,ISIC_0069705.JPG,ISIC_0069705.JPG,false,0,keypress(z),500,485094.3000000119,485094.1999999881,481357.75,481359,481364.686,485097.548,8,400,3,,ISIC_6704623.JPG
break,html.Screen,4_102_1,2023-09-08T20:50:27.071Z,,0,,,NaN,,,,,,false,,,,485094.6999999881,485094.60000002384,,485094.39999997616,,485097.548,8,400,,,
break_continue,html.Screen,4_102_2,2023-09-08T20:50:27.071Z,,0,,,NaN,,,,,,false,,,,485094.8000000119,485094.8000000119,,485094.6999999881,,485097.548,8,400,,,
sequence,flow.Sequence,4_102,2023-09-08T20:50:27.071Z,,0,,,3730.114000011934,completion,,,,,false,,,,485094.89999997616,485094.8000000119,481357.75,481359,481364.686,485097.548,8,400,,,
trial,html.Screen,4_103_0,2023-09-08T20:50:30.480Z,,0,3,,3406.052000023832,response,ISIC_0025759.JPG,5,ISIC_3673080.JPG,ISIC_3673080.JPG,false,0,keypress(z),500,488503.6999999881,488503.60000002384,485090.369,485094.89999997616,485097.548,488510.672,8,400,4,,ISIC_0025759.JPG
break,html.Screen,4_103_1,2023-09-08T20:50:30.480Z,,0,,,NaN,,,,,,false,,,,488504.10000002384,488504,,488503.8000000119,,488510.672,8,400,,,
break_continue,html.Screen,4_103_2,2023-09-08T20:50:30.481Z,,0,,,NaN,,,,,,false,,,,488504.1999999881,488504.1999999881,,488504.10000002384,,488510.672,8,400,,,
sequence,flow.Sequence,4_103,2023-09-08T20:50:30.481Z,,0,,,3406.6519999880693,completion,,,,,false,,,,488504.1999999881,488504.1999999881,485090.369,485094.89999997616,485097.548,488510.672,8,400,,,
trial,html.Screen,4_104_0,2023-09-08T20:50:34.119Z,,0,3,,3632.0279999880586,response,ISIC_0060893.JPG,4,ISIC_4874581.JPG,ISIC_0060893.JPG,false,1,keypress(m),500,492142.8000000119,492142.6999999881,488503.211,488504.3000000119,488510.672,492146.181,8,400,5,,ISIC_4874581.JPG
break,html.Screen,4_104_1,2023-09-08T20:50:34.120Z,,0,,,NaN,,,,,,false,,,,492143.3000000119,492143.10000002384,,492142.89999997616,,492146.181,8,400,,,
break_continue,html.Screen,4_104_2,2023-09-08T20:50:34.120Z,,0,,,NaN,,,,,,false,,,,492143.39999997616,492143.3000000119,,492143.3000000119,,492146.181,8,400,,,
sequence,flow.Sequence,4_104,2023-09-08T20:50:34.120Z,,0,,,3632.6280000119004,completion,,,,,false,,,,492143.5,492143.3000000119,488503.211,488504.3000000119,488510.672,492146.181,8,400,,,
trial,html.Screen,4_105_0,2023-09-08T20:50:38.095Z,,0,3,,3972.6190000119386,response,ISIC_0060089.JPG,5,ISIC_7662993.JPG,ISIC_0060089.JPG,false,1,keypress(m),500,496118.8000000119,496118.8000000119,492138.762,492143.5,492146.181,496122.437,8,400,6,,ISIC_7662993.JPG
break,html.Screen,4_105_1,2023-09-08T20:50:38.096Z,,0,,,NaN,,,,,,false,,,,496119.3000000119,496119.10000002384,,496118.89999997616,,496122.437,8,400,,,
break_continue,html.Screen,4_105_2,2023-09-08T20:50:38.096Z,,0,,,NaN,,,,,,false,,,,496119.39999997616,496119.39999997616,,496119.3000000119,,496122.437,8,400,,,
sequence,flow.Sequence,4_105,2023-09-08T20:50:38.096Z,,0,,,3973.218999976176,completion,,,,,false,,,,496119.5,496119.39999997616,492138.762,492143.5,492146.181,496122.437,8,400,,,
trial,html.Screen,4_106_0,2023-09-08T20:50:42.273Z,,0,3,,4173.863000011945,response,ISIC_0068152.JPG,4,ISIC_6801988.JPG,ISIC_6801988.JPG,false,0,keypress(z),500,500296.39999997616,500296.3000000119,496114.962,496119.5,496122.437,500300.228,8,400,7,,ISIC_0068152.JPG
break,html.Screen,4_106_1,2023-09-08T20:50:42.273Z,,0,,,NaN,,,,,,false,,,,500296.8000000119,500296.6999999881,,500296.5,,500300.228,8,400,,,
break_continue,html.Screen,4_106_2,2023-09-08T20:50:42.273Z,,0,,,NaN,,,,,,false,,,,500296.89999997616,500296.89999997616,,500296.8000000119,,500300.228,8,400,,,
sequence,flow.Sequence,4_106,2023-09-08T20:50:42.273Z,,0,,,4174.462999976182,completion,,,,,false,,,,500296.89999997616,500296.89999997616,496114.962,496119.5,496122.437,500300.228,8,400,,,
trial,html.Screen,4_107_0,2023-09-08T20:50:45.545Z,,0,3,,3267.9719999880763,response,ISIC_7536704.JPG,4,ISIC_0033025.JPG,ISIC_0033025.JPG,false,0,keypress(z),500,503568.1999999881,503568.1999999881,500292.696,500297.10000002384,500300.228,503574.243,8,400,8,,ISIC_7536704.JPG
break,html.Screen,4_107_1,2023-09-08T20:50:45.545Z,,0,,,NaN,,,,,,false,,,,503568.60000002384,503568.5,,503568.39999997616,,503574.243,8,400,,,
break_continue,html.Screen,4_107_2,2023-09-08T20:50:45.545Z,,0,,,NaN,,,,,,false,,,,503568.8000000119,503568.6999999881,,503568.6999999881,,503574.243,8,400,,,
sequence,flow.Sequence,4_107,2023-09-08T20:50:45.545Z,,0,,,3268.4719999880763,completion,,,,,false,,,,503568.89999997616,503568.6999999881,500292.696,500297.10000002384,500300.228,503574.243,8,400,,,
trial,html.Screen,4_108_0,2023-09-08T20:50:48.849Z,,0,3,,3298.1569999761414,response,ISIC_9358630.JPG,5,ISIC_0033570.JPG,ISIC_0033570.JPG,false,0,keypress(z),500,506872.60000002384,506872.39999997616,503567.07,503568.89999997616,503574.243,506876.135,8,400,9,,ISIC_9358630.JPG
break,html.Screen,4_108_1,2023-09-08T20:50:48.849Z,,0,,,NaN,,,,,,false,,,,506872.89999997616,506872.8000000119,,506872.60000002384,,506876.135,8,400,,,
break_continue,html.Screen,4_108_2,2023-09-08T20:50:48.849Z,,0,,,NaN,,,,,,false,,,,506873,506873,,506873,,506876.135,8,400,,,
sequence,flow.Sequence,4_108,2023-09-08T20:50:48.849Z,,0,,,3298.7569999999832,completion,,,,,false,,,,506873.10000002384,506873,503567.07,503568.89999997616,503574.243,506876.135,8,400,,,
trial,html.Screen,4_109_0,2023-09-08T20:50:52.169Z,,0,3,,3315.9650000238325,response,ISIC_5026709.JPG,4,ISIC_0014545.JPG,ISIC_0014545.JPG,false,0,keypress(z),500,510192.1999999881,510192.10000002384,506869.218,506873.1999999881,506876.135,510205.858,8,400,10,,ISIC_5026709.JPG
break,html.Screen,4_109_1,2023-09-08T20:50:52.169Z,,0,,,NaN,,,,,,false,,,,510192.5,510192.5,,510192.3000000119,,510205.858,8,400,,,
break_continue,html.Screen,4_109_2,2023-09-08T20:50:52.169Z,,0,,,NaN,,,,,,false,,,,510192.6999999881,510192.60000002384,,510192.60000002384,,510205.858,8,400,,,
sequence,flow.Sequence,4_109,2023-09-08T20:50:52.169Z,,0,,,3316.4650000238325,completion,,,,,false,,,,510192.8000000119,510192.60000002384,506869.218,506873.10000002384,506876.135,510205.858,8,400,,,
trial,html.Screen,4_110_0,2023-09-08T20:50:55.873Z,,0,3,,3690.7420000238344,response,ISIC_0068438.JPG,5,ISIC_0000507.JPG,ISIC_0068438.JPG,false,1,keypress(m),500,513896.8000000119,513896.60000002384,510198.938,510192.89999997616,510205.858,513903.955,8,400,11,,ISIC_0000507.JPG
break,html.Screen,4_110_1,2023-09-08T20:50:55.873Z,,0,,,NaN,,,,,,false,,,,513897.10000002384,513897,,513896.8000000119,,513903.955,8,400,,,
break_continue,html.Screen,4_110_2,2023-09-08T20:50:55.874Z,,0,,,NaN,,,,,,false,,,,513897.39999997616,513897.3000000119,,513897.1999999881,,513903.955,8,400,,,
sequence,flow.Sequence,4_110,2023-09-08T20:50:55.874Z,,0,,,3691.4420000119135,completion,,,,,false,,,,513897.39999997616,513897.3000000119,510198.938,510192.8000000119,510205.858,513903.955,8,400,,,
trial,html.Screen,4_111_0,2023-09-08T20:50:58.826Z,,0,3,,2945.1450000238256,response,ISIC_2998367.JPG,5,ISIC_6685532.JPG,ISIC_6685532.JPG,false,0,keypress(z),500,516849.1999999881,516849.10000002384,513896.764,513897.5,513903.955,516858.328,8,400,12,,ISIC_2998367.JPG
break,html.Screen,4_111_1,2023-09-08T20:50:58.826Z,,0,,,NaN,,,,,,false,,,,516849.60000002384,516849.5,,516849.3000000119,,516858.328,8,400,,,
break_continue,html.Screen,4_111_2,2023-09-08T20:50:58.826Z,,0,,,NaN,,,,,,false,,,,516849.6999999881,516849.6999999881,,516849.6999999881,,516858.328,8,400,,,
sequence,flow.Sequence,4_111,2023-09-08T20:50:58.826Z,,0,,,2945.744999988063,completion,,,,,false,,,,516849.6999999881,516849.6999999881,513896.764,513897.5,513903.955,516858.328,8,400,,,
trial,html.Screen,4_112_0,2023-09-08T20:51:02.274Z,,0,3,,3438.8719999880996,response,ISIC_7814144.JPG,5,ISIC_0003159.JPG,ISIC_0003159.JPG,false,0,keypress(z),500,520297.3000000119,520297.1999999881,516851.346,516849.8000000119,516858.328,520299.281,8,400,13,,ISIC_7814144.JPG
break,html.Screen,4_112_1,2023-09-08T20:51:02.274Z,,0,,,NaN,,,,,,false,,,,520297.60000002384,520297.60000002384,,520297.39999997616,,520299.281,8,400,,,
break_continue,html.Screen,4_112_2,2023-09-08T20:51:02.274Z,,0,,,NaN,,,,,,false,,,,520297.8000000119,520297.8000000119,,520297.6999999881,,520299.281,8,400,,,
sequence,flow.Sequence,4_112,2023-09-08T20:51:02.274Z,,0,,,3439.4720000119414,completion,,,,,false,,,,520297.89999997616,520297.8000000119,516851.346,516849.8000000119,516858.328,520299.281,8,400,,,
trial,html.Screen,4_113_0,2023-09-08T20:51:05.947Z,,0,3,,3671.618999976141,response,ISIC_6800044.JPG,5,ISIC_0058125.JPG,ISIC_0058125.JPG,false,0,keypress(z),500,523971,523970.89999997616,520292.201,520297.89999997616,520299.281,523976.485,8,400,14,,ISIC_6800044.JPG
break,html.Screen,4_113_1,2023-09-08T20:51:05.948Z,,0,,,NaN,,,,,,false,,,,523971.39999997616,523971.3000000119,,523971.10000002384,,523976.485,8,400,,,
break_continue,html.Screen,4_113_2,2023-09-08T20:51:05.948Z,,0,,,NaN,,,,,,false,,,,523971.5,523971.39999997616,,523971.39999997616,,523976.485,8,400,,,
sequence,flow.Sequence,4_113,2023-09-08T20:51:05.948Z,,0,,,3672.118999976141,completion,,,,,false,,,,523971.5,523971.39999997616,520292.201,520297.89999997616,520299.281,523976.485,8,400,,,
trial,html.Screen,4_114_0,2023-09-08T20:51:09.053Z,,0,3,,3099.714999988093,response,ISIC_0511526.JPG,5,ISIC_2463014.JPG,ISIC_0511526.JPG,false,1,keypress(m),500,527076.3999999762,527076.1999999881,523969.486,523971.60000002384,523976.485,527083.838,8,400,15,,ISIC_2463014.JPG
break,html.Screen,4_114_1,2023-09-08T20:51:09.053Z,,0,,,NaN,,,,,,false,,,,527076.6999999881,527076.6000000238,,527076.5,,527083.838,8,400,,,
break_continue,html.Screen,4_114_2,2023-09-08T20:51:09.053Z,,0,,,NaN,,,,,,false,,,,527076.8999999762,527076.8000000119,,527076.8000000119,,527083.838,8,400,,,
sequence,flow.Sequence,4_114,2023-09-08T20:51:09.053Z,,0,,,3100.315000011935,completion,,,,,false,,,,527076.8999999762,527076.8000000119,523969.486,523971.60000002384,523976.485,527083.838,8,400,,,
trial,html.Screen,4_115_0,2023-09-08T20:51:12.355Z,,0,3,,3294.962000011932,response,ISIC_0059840.JPG,4,ISIC_0032875.JPG,ISIC_0059840.JPG,false,1,keypress(m),500,530378.8000000119,530378.8000000119,527076.588,527077,527083.838,530385.673,8,400,16,,ISIC_0032875.JPG
break,html.Screen,4_115_1,2023-09-08T20:51:12.356Z,,0,,,NaN,,,,,,false,,,,530379.3000000119,530379.1999999881,,530378.8999999762,,530385.673,8,400,,,
break_continue,html.Screen,4_115_2,2023-09-08T20:51:12.356Z,,0,,,NaN,,,,,,false,,,,530379.5,530379.3000000119,,530379.3000000119,,530385.673,8,400,,,
sequence,flow.Sequence,4_115,2023-09-08T20:51:12.356Z,,0,,,3295.462000011932,completion,,,,,false,,,,530379.5,530379.3000000119,527076.588,527077,527083.838,530385.673,8,400,,,
trial,html.Screen,4_116_0,2023-09-08T20:51:16.166Z,,0,3,,3803.4270000238903,response,ISIC_0029089.JPG,4,ISIC_1729351.JPG,ISIC_1729351.JPG,false,0,keypress(z),500,534189.1999999881,534189.1000000238,530378.676,530379.6000000238,530385.673,534195.019,8,400,17,,ISIC_0029089.JPG
break,html.Screen,4_116_1,2023-09-08T20:51:16.166Z,,0,,,NaN,,,,,,false,,,,534189.5,534189.3999999762,,534189.3000000119,,534195.019,8,400,,,
break_continue,html.Screen,4_116_2,2023-09-08T20:51:16.166Z,,0,,,NaN,,,,,,false,,,,534189.6999999881,534189.6999999881,,534189.6000000238,,534195.019,8,400,,,
sequence,flow.Sequence,4_116,2023-09-08T20:51:16.166Z,,0,,,3804.0269999881275,completion,,,,,false,,,,534189.8000000119,534189.6999999881,530378.676,530379.6000000238,530385.673,534195.019,8,400,,,
trial,html.Screen,4_117_0,2023-09-08T20:51:18.828Z,,0,3,,2656.5810000238707,response,ISIC_0009939.JPG,5,ISIC_6496765.JPG,ISIC_6496765.JPG,false,0,keypress(z),500,536851.6999999881,536851.6000000238,534187.849,534189.8000000119,534195.019,536857.401,8,400,18,,ISIC_0009939.JPG
break,html.Screen,4_117_1,2023-09-08T20:51:18.828Z,,0,,,NaN,,,,,,false,,,,536852.1000000238,536852.1000000238,,536851.8000000119,,536857.401,8,400,,,
break_continue,html.Screen,4_117_2,2023-09-08T20:51:18.829Z,,0,,,NaN,,,,,,false,,,,536852.1999999881,536852.1999999881,,536852.1999999881,,536857.401,8,400,,,
sequence,flow.Sequence,4_117,2023-09-08T20:51:18.829Z,,0,,,2657.180999988108,completion,,,,,false,,,,536852.3000000119,536852.1999999881,534187.849,534189.8000000119,534195.019,536857.401,8,400,,,
trial,html.Screen,4_118_0,2023-09-08T20:51:22.068Z,,0,3,,3234.1990000238875,response,ISIC_0010648.JPG,4,ISIC_7368239.JPG,ISIC_0010648.JPG,false,1,keypress(m),500,540091.6999999881,540091.6000000238,536850.432,536852.3000000119,536857.401,540096.703,8,400,19,,ISIC_7368239.JPG
break,html.Screen,4_118_1,2023-09-08T20:51:22.068Z,,0,,,NaN,,,,,,false,,,,540092.1000000238,540092.1000000238,,540091.8000000119,,540096.703,8,400,,,
break_continue,html.Screen,4_118_2,2023-09-08T20:51:22.069Z,,0,,,NaN,,,,,,false,,,,540092.3000000119,540092.1999999881,,540092.1000000238,,540096.703,8,400,,,
sequence,flow.Sequence,4_118,2023-09-08T20:51:22.069Z,,0,,,3234.7989999881247,completion,,,,,false,,,,540092.3999999762,540092.1999999881,536850.432,536852.3000000119,536857.401,540096.703,8,400,,,
trial,html.Screen,4_119_0,2023-09-08T20:51:24.973Z,,0,3,,2899.8970000238623,response,ISIC_0011649.JPG,4,ISIC_7904250.JPG,ISIC_7904250.JPG,false,0,keypress(z),500,542996.6999999881,542996.6000000238,540089.265,540092.3999999762,540096.703,543002.371,8,400,20,,ISIC_0011649.JPG
break,html.Screen,4_119_1,2023-09-08T20:51:24.973Z,,0,,,NaN,,,,,,false,,,,542997.1000000238,542997,,542996.8000000119,,543002.371,8,400,,,
break_continue,html.Screen,4_119_2,2023-09-08T20:51:24.974Z,,0,,,NaN,,,,,,false,,,,542997.1999999881,542997.1999999881,,542997.1000000238,,543002.371,8,400,,,
sequence,flow.Sequence,4_119,2023-09-08T20:51:24.974Z,,0,,,2900.4969999880996,completion,,,,,false,,,,542997.3000000119,542997.1999999881,540089.265,540092.3999999762,540096.703,543002.371,8,400,,,
trial,html.Screen,4_120_0,2023-09-08T20:51:27.717Z,,0,3,,2737.8289999880362,response,ISIC_0067562.JPG,5,ISIC_0786233.JPG,ISIC_0786233.JPG,false,0,keypress(z),500,545740.3000000119,545740.1999999881,542995.307,542997.3000000119,543002.371,545749.184,8,400,21,,ISIC_0067562.JPG
break,html.Screen,4_120_1,2023-09-08T20:51:27.717Z,,0,,,NaN,,,,,,false,,,,545740.6000000238,545740.5,,545740.3000000119,,545749.184,8,400,,,
break_continue,html.Screen,4_120_2,2023-09-08T20:51:27.717Z,,0,,,NaN,,,,,,false,,,,545740.8000000119,545740.6999999881,,545740.6000000238,,545749.184,8,400,,,
sequence,flow.Sequence,4_120,2023-09-08T20:51:27.717Z,,0,,,2738.3289999880362,completion,,,,,false,,,,545740.8000000119,545740.6999999881,542995.307,542997.3000000119,543002.371,545749.184,8,400,,,
trial,html.Screen,4_121_0,2023-09-08T20:51:31.293Z,,0,3,,3567.1160000119125,response,ISIC_0010746.JPG,6,ISIC_2647198.JPG,ISIC_0010746.JPG,false,1,keypress(m),500,549316.5,549316.3000000119,545733.883,545740.8000000119,545749.184,549321.197,8,400,22,,ISIC_2647198.JPG
break,html.Screen,4_121_1,2023-09-08T20:51:31.293Z,,0,,,NaN,,,,,,false,,,,549316.8999999762,549316.8000000119,,549316.6000000238,,549321.197,8,400,,,
break_continue,html.Screen,4_121_2,2023-09-08T20:51:31.293Z,,0,,,NaN,,,,,,false,,,,549317,549317,,549317,,549321.197,8,400,,,
sequence,flow.Sequence,4_121,2023-09-08T20:51:31.293Z,,0,,,3567.8159999999916,completion,,,,,false,,,,549317.1000000238,549317,545733.883,545740.8000000119,545749.184,549321.197,8,400,,,
trial,html.Screen,4_122_0,2023-09-08T20:51:34.470Z,,0,3,,3172.0029999880353,response,ISIC_8959928.JPG,5,ISIC_0063845.JPG,ISIC_0063845.JPG,false,0,keypress(z),500,552493.3000000119,552493.1999999881,549313.717,549317.1999999881,549321.197,552497.976,8,400,23,,ISIC_8959928.JPG
break,html.Screen,4_122_1,2023-09-08T20:51:34.470Z,,0,,,NaN,,,,,,false,,,,552493.6999999881,552493.6000000238,,552493.3000000119,,552497.976,8,400,,,
break_continue,html.Screen,4_122_2,2023-09-08T20:51:34.470Z,,0,,,NaN,,,,,,false,,,,552493.8000000119,552493.6999999881,,552493.6999999881,,552497.976,8,400,,,
sequence,flow.Sequence,4_122,2023-09-08T20:51:34.470Z,,0,,,3172.5029999880353,completion,,,,,false,,,,552493.8999999762,552493.6999999881,549313.717,549317.1999999881,549321.197,552497.976,8,400,,,
trial,html.Screen,4_123_0,2023-09-08T20:51:38.056Z,,0,3,,3581.223999988055,response,ISIC_0025589.JPG,5,ISIC_7534592.JPG,ISIC_0025589.JPG,false,1,keypress(m),500,556079.3000000119,556079.1999999881,552490.493,552493.8999999762,552497.976,556084.834,8,400,24,,ISIC_7534592.JPG
break,html.Screen,4_123_1,2023-09-08T20:51:38.056Z,,0,,,NaN,,,,,,false,,,,556079.6999999881,556079.5,,556079.3999999762,,556084.834,8,400,,,
break_continue,html.Screen,4_123_2,2023-09-08T20:51:38.056Z,,0,,,NaN,,,,,,false,,,,556079.8000000119,556079.6999999881,,556079.6999999881,,556084.834,8,400,,,
sequence,flow.Sequence,4_123,2023-09-08T20:51:38.056Z,,0,,,3581.723999988055,completion,,,,,false,,,,556079.8999999762,556079.6999999881,552490.493,552493.8999999762,552497.976,556084.834,8,400,,,
trial,html.Screen,4_124_0,2023-09-08T20:51:41.082Z,,0,3,,3021.1659999999683,response,ISIC_0073032.JPG,4,ISIC_0058501.JPG,ISIC_0058501.JPG,false,0,keypress(z),500,559106,559106,556077.6,556079.8999999762,556084.834,559108.661,8,400,25,,ISIC_0073032.JPG
break,html.Screen,4_124_1,2023-09-08T20:51:41.083Z,,0,,,NaN,,,,,,false,,,,559106.3000000119,559106.3000000119,,559106.1000000238,,559108.661,8,400,,,
break_continue,html.Screen,4_124_2,2023-09-08T20:51:41.083Z,,0,,,NaN,,,,,,false,,,,559106.5,559106.5,,559106.3999999762,,559108.661,8,400,,,
sequence,flow.Sequence,4_124,2023-09-08T20:51:41.083Z,,0,,,3021.6659999999683,completion,,,,,false,,,,559106.6000000238,559106.5,556077.6,556079.8999999762,556084.834,559108.661,8,400,,,
