sender,sender_type,sender_id,timestamp,meta,,blockNo,condition,duration,ended_on,img_left,img_reveal,img_right,loser,practice,response,response_action,selection_duration,time_commit,time_end,time_render,time_run,time_show,time_switch,total_blocks,total_trials,trialNo,url,winner
informed_consent,html.Screen,0,2023-11-06T15:29:42.791Z,"{""labjs_version"":""20.2.4"",""labjs_build"":{""flavor"":""production"",""commit"":""f5b4a49f956347addd546a832a3327688c2c0fef""},""location"":""https://run.pavlovia.org/MurrayBennett/melanoma-2afc/?participant=66135&platform=sona"",""userAgent"":""Mozilla/5.0 (Macintosh; Intel Mac OS X 10_15_7) AppleWebKit/605.1.15 (KHTML, like Gecko) Version/17.0 Safari/605.1.15"",""platform"":""MacIntel"",""language"":""en-US"",""locale"":""en-US"",""timeZone"":""America/Chicago"",""timezoneOffset"":360,""screen_width"":1440,""screen_height"":900,""scroll_width"":1440,""scroll_height"":772,""window_innerWidth"":1440,""window_innerHeight"":820,""devicePixelRatio"":2}",,,,7129,response,,,,,,consent,click button,,9776,9763,2634,2628,2652,9821,,,,"{""participant"":""66135"",""platform"":""sona""}",
Welcome,html.Screen,1,2023-11-06T15:30:41.695Z,,,,symmetry,58868,response,,,,,,continue,click button,,68681,68670,9802,9776,9821,68703,,,,,
trial,html.Screen,2_0_0,2023-11-06T15:30:48.877Z,,0,0,,7176,response,ISIC_0069348.JPG,,ISIC_6997061.JPG,ISIC_0069348.JPG,true,1,keypress(m),500,75862,75862,68686,68681,68703,75878,1,6,1,,ISIC_6997061.JPG
sequence,flow.Sequence,2_0,2023-11-06T15:30:48.877Z,,0,,,7159,completion,,,,,true,,,,75863,75862,68686,68681,68703,75878,1,6,,,
trial,html.Screen,2_1_0,2023-11-06T15:30:53.506Z,,0,0,,4627,response,ISIC_0057368.JPG,,ISIC_0009529.JPG,ISIC_0057368.JPG,true,1,keypress(m),500,80492,80491,75864,75863,75878,80500,1,6,2,,ISIC_0009529.JPG
sequence,flow.Sequence,2_1,2023-11-06T15:30:53.506Z,,0,,,4613,completion,,,,,true,,,,80492,80491,75864,75863,75878,80500,1,6,,,
trial,html.Screen,2_2_0,2023-11-06T15:31:03.232Z,,0,0,,9725,response,ISIC_9758671.JPG,,ISIC_0064954.JPG,ISIC_9758671.JPG,true,1,keypress(m),500,90218,90218,80493,80492,80500,90231,1,6,3,,ISIC_0064954.JPG
sequence,flow.Sequence,2_2,2023-11-06T15:31:03.232Z,,0,,,9718,completion,,,,,true,,,,90218,90218,80493,80492,80500,90231,1,6,,,
trial,html.Screen,2_3_0,2023-11-06T15:31:07.443Z,,0,0,,4209,response,ISIC_0000080.JPG,,ISIC_0005785.JPG,ISIC_0005785.JPG,true,0,keypress(z),500,94428,94428,90219,90218,90231,94438,1,6,4,,ISIC_0000080.JPG
sequence,flow.Sequence,2_3,2023-11-06T15:31:07.443Z,,0,,,4197,completion,,,,,true,,,,94429,94428,90219,90218,90231,94438,1,6,,,
trial,html.Screen,2_4_0,2023-11-06T15:31:10.323Z,,0,0,,2879,response,ISIC_7944028.JPG,,ISIC_5390060.JPG,ISIC_5390060.JPG,true,0,keypress(z),500,97309,97309,94430,94429,94438,97323,1,6,5,,ISIC_7944028.JPG
sequence,flow.Sequence,2_4,2023-11-06T15:31:10.324Z,,0,,,2871,completion,,,,,true,,,,97309,97309,94430,94429,94438,97323,1,6,,,
trial,html.Screen,2_5_0,2023-11-06T15:31:14.593Z,,0,0,,4268.000000000015,response,ISIC_0794216.JPG,,ISIC_0010188.JPG,ISIC_0010188.JPG,true,0,keypress(z),500,101579.00000000001,101579.00000000001,97311,97310,97323,101589,1,6,6,,ISIC_0794216.JPG
sequence,flow.Sequence,2_5,2023-11-06T15:31:14.593Z,,0,,,4256.000000000015,completion,,,,,true,,,,101579.00000000001,101579.00000000001,97311,97309,97323,101589,1,6,,,
loop,flow.Loop,2,2023-11-06T15:31:14.594Z,,,,,32876.000000000015,completion,,,,,true,,,,101579.00000000001,101579.00000000001,68686,68681,68703,101589,1,6,,,
exp_instructions,html.Screen,3,2023-11-06T15:31:23.282Z,,,,,8690,response,,,,,,continue,keypress(Space),,110267,110271,101581,101579.00000000001,101589,110281,,,,,
trial,html.Screen,4_0_0,2023-11-06T15:31:27.506Z,,0,1,,4222,response,ISIC_0067667.JPG,7,ISIC_1379601.JPG,ISIC_0067667.JPG,false,1,keypress(m),500,114492,114492,110270,110268,110281,114501,8,400,1,,ISIC_1379601.JPG
break,html.Screen,4_0_1,2023-11-06T15:31:27.507Z,,0,,,NaN,,,,,,false,,,,114493.00000000001,114493.00000000001,,114492,,114501,8,400,,,
break_continue,html.Screen,4_0_2,2023-11-06T15:31:27.507Z,,0,,,NaN,,,,,,false,,,,114493.00000000001,114493.00000000001,,114493.00000000001,,114501,8,400,,,
sequence,flow.Sequence,4_0,2023-11-06T15:31:27.508Z,,0,,,4212.000000000015,completion,,,,,false,,,,114493.00000000001,114493.00000000001,110270,110268,110281,114501,8,400,,,
trial,html.Screen,4_1_0,2023-11-06T15:31:38.997Z,,0,1,,11515,timeout,ISIC_0028505.JPG,5,ISIC_0059248.JPG,,false,,,500,125983,125982,114495,114493.00000000001,114501,126016,8,400,2,,
break,html.Screen,4_1_1,2023-11-06T15:31:38.997Z,,0,,,NaN,,,,,,false,,,,125983,125983,,125983,,126016,8,400,,,
break_continue,html.Screen,4_1_2,2023-11-06T15:31:38.998Z,,0,,,NaN,,,,,,false,,,,125983,125983,,125983,,126016,8,400,,,
sequence,flow.Sequence,4_1,2023-11-06T15:31:38.998Z,,0,,,11482,completion,,,,,false,,,,125984.00000000001,125983,114495,114493.00000000001,114501,126016,8,400,,,
trial,html.Screen,4_2_0,2023-11-06T15:31:42.617Z,,0,1,,3604,response,ISIC_0009236.JPG,5,ISIC_9073150.JPG,ISIC_9073150.JPG,false,0,keypress(z),500,129602,129602,125998,125984.00000000001,126016,129613,8,400,3,,ISIC_0009236.JPG
break,html.Screen,4_2_1,2023-11-06T15:31:42.617Z,,0,,,NaN,,,,,,false,,,,129603.00000000001,129603.00000000001,,129603.00000000001,,129613,8,400,,,
break_continue,html.Screen,4_2_2,2023-11-06T15:31:42.617Z,,0,,,NaN,,,,,,false,,,,129603.00000000001,129603.00000000001,,129603.00000000001,,129613,8,400,,,
sequence,flow.Sequence,4_2,2023-11-06T15:31:42.618Z,,0,,,3587.0000000000146,completion,,,,,false,,,,129603.00000000001,129603.00000000001,125998,125984.00000000001,126016,129613,8,400,,,
trial,html.Screen,4_3_0,2023-11-06T15:31:45.562Z,,0,1,,2942,response,ISIC_0013762.JPG,4,ISIC_5578611.JPG,ISIC_0013762.JPG,false,1,keypress(m),500,132548,132547,129605,129604.00000000001,129613,132567,8,400,4,,ISIC_5578611.JPG
break,html.Screen,4_3_1,2023-11-06T15:31:45.562Z,,0,,,NaN,,,,,,false,,,,132548,132548,,132548,,132567,8,400,,,
break_continue,html.Screen,4_3_2,2023-11-06T15:31:45.563Z,,0,,,NaN,,,,,,false,,,,132548,132548,,132548,,132567,8,400,,,
sequence,flow.Sequence,4_3,2023-11-06T15:31:45.563Z,,0,,,2935,completion,,,,,false,,,,132549,132548,129605,129603.00000000001,129613,132567,8,400,,,
trial,html.Screen,4_4_0,2023-11-06T15:31:49.442Z,,0,1,,3877,response,ISIC_3074949.JPG,7,ISIC_0026890.JPG,ISIC_3074949.JPG,false,1,keypress(m),500,136428,136427,132550,132549,132567,136442,8,400,5,,ISIC_0026890.JPG
break,html.Screen,4_4_1,2023-11-06T15:31:49.442Z,,0,,,NaN,,,,,,false,,,,136428,136428,,136428,,136442,8,400,,,
break_continue,html.Screen,4_4_2,2023-11-06T15:31:49.443Z,,0,,,NaN,,,,,,false,,,,136428,136428,,136428,,136442,8,400,,,
sequence,flow.Sequence,4_4,2023-11-06T15:31:49.443Z,,0,,,3861,completion,,,,,false,,,,136429,136428,132550,132549,132567,136442,8,400,,,
trial,html.Screen,4_5_0,2023-11-06T15:31:53.620Z,,0,1,,4176,response,ISIC_1175291.JPG,0,ISIC_0034172.JPG,ISIC_1175291.JPG,false,1,keypress(m),500,140606,140606,136430,136429,136442,140626,8,400,6,,ISIC_0034172.JPG
break,html.Screen,4_5_1,2023-11-06T15:31:53.621Z,,0,,,NaN,,,,,,false,,,,140607,140606,,140606,,140626,8,400,,,
break_continue,html.Screen,4_5_2,2023-11-06T15:31:53.621Z,,0,,,NaN,,,,,,false,,,,140607,140607,,140607,,140626,8,400,,,
sequence,flow.Sequence,4_5,2023-11-06T15:31:53.621Z,,0,,,4165,completion,,,,,false,,,,140607,140607,136430,136429,136442,140626,8,400,,,
trial,html.Screen,4_6_0,2023-11-06T15:31:56.871Z,,0,1,,3248,response,ISIC_1394786.JPG,6,ISIC_0001148.JPG,ISIC_0001148.JPG,false,0,keypress(z),500,143857,143856,140608,140607,140626,143880,8,400,7,,ISIC_1394786.JPG
break,html.Screen,4_6_1,2023-11-06T15:31:56.871Z,,0,,,NaN,,,,,,false,,,,143857,143857,,143857,,143880,8,400,,,
break_continue,html.Screen,4_6_2,2023-11-06T15:31:56.872Z,,0,,,NaN,,,,,,false,,,,143858,143857,,143857,,143880,8,400,,,
sequence,flow.Sequence,4_6,2023-11-06T15:31:56.872Z,,0,,,3231,completion,,,,,false,,,,143858,143857,140608,140607,140626,143880,8,400,,,
trial,html.Screen,4_7_0,2023-11-06T15:32:00.331Z,,0,1,,3457,response,ISIC_3814807.JPG,4,ISIC_9239632.JPG,ISIC_9239632.JPG,false,0,keypress(z),500,147316,147316,143859,143858,143880,147326,8,400,8,,ISIC_3814807.JPG
break,html.Screen,4_7_1,2023-11-06T15:32:00.331Z,,0,,,NaN,,,,,,false,,,,147317,147317,,147317,,147326,8,400,,,
break_continue,html.Screen,4_7_2,2023-11-06T15:32:00.332Z,,0,,,NaN,,,,,,false,,,,147318,147317,,147317,,147326,8,400,,,
sequence,flow.Sequence,4_7,2023-11-06T15:32:00.332Z,,0,,,3437,completion,,,,,false,,,,147318,147317,143859,143858,143880,147326,8,400,,,
trial,html.Screen,4_8_0,2023-11-06T15:32:05.235Z,,0,1,,4902,response,ISIC_7376906.JPG,7,ISIC_1977315.JPG,ISIC_1977315.JPG,false,0,keypress(z),500,152221,152221,147319,147318,147326,152232,8,400,9,,ISIC_7376906.JPG
break,html.Screen,4_8_1,2023-11-06T15:32:05.236Z,,0,,,NaN,,,,,,false,,,,152221,152221,,152221,,152232,8,400,,,
break_continue,html.Screen,4_8_2,2023-11-06T15:32:05.236Z,,0,,,NaN,,,,,,false,,,,152222,152222,,152222,,152232,8,400,,,
sequence,flow.Sequence,4_8,2023-11-06T15:32:05.236Z,,0,,,4896,completion,,,,,false,,,,152222,152222,147319,147318,147326,152232,8,400,,,
trial,html.Screen,4_9_0,2023-11-06T15:32:08.723Z,,0,1,,3486,response,ISIC_7412559.JPG,3,ISIC_4672131.JPG,ISIC_4672131.JPG,false,0,keypress(z),500,155709,155709,152223,152222,152232,155719,8,400,10,,ISIC_7412559.JPG
break,html.Screen,4_9_1,2023-11-06T15:32:08.723Z,,0,,,NaN,,,,,,false,,,,155709,155709,,155709,,155719,8,400,,,
break_continue,html.Screen,4_9_2,2023-11-06T15:32:08.724Z,,0,,,NaN,,,,,,false,,,,155710,155710,,155709,,155719,8,400,,,
sequence,flow.Sequence,4_9,2023-11-06T15:32:08.724Z,,0,,,3478,completion,,,,,false,,,,155710,155710,152223,152222,152232,155719,8,400,,,
trial,html.Screen,4_10_0,2023-11-06T15:32:14.792Z,,0,1,,6067,response,ISIC_0719631.JPG,4,ISIC_0069292.JPG,ISIC_0719631.JPG,false,1,keypress(m),500,161778,161778,155711,155710,155719,161789,8,400,11,,ISIC_0069292.JPG
break,html.Screen,4_10_1,2023-11-06T15:32:14.793Z,,0,,,NaN,,,,,,false,,,,161779,161779,,161778,,161789,8,400,,,
break_continue,html.Screen,4_10_2,2023-11-06T15:32:14.793Z,,0,,,NaN,,,,,,false,,,,161779,161779,,161779,,161789,8,400,,,
sequence,flow.Sequence,4_10,2023-11-06T15:32:14.793Z,,0,,,6060,completion,,,,,false,,,,161779,161779,155711,155710,155719,161789,8,400,,,
trial,html.Screen,4_11_0,2023-11-06T15:32:18.203Z,,0,1,,3409,response,ISIC_0014217.JPG,1,ISIC_7642142.JPG,ISIC_0014217.JPG,false,1,keypress(m),500,165189,165189,161780,161779,161789,165198,8,400,12,,ISIC_7642142.JPG
break,html.Screen,4_11_1,2023-11-06T15:32:18.204Z,,0,,,NaN,,,,,,false,,,,165190,165190,,165189,,165198,8,400,,,
break_continue,html.Screen,4_11_2,2023-11-06T15:32:18.204Z,,0,,,NaN,,,,,,false,,,,165190,165190,,165190,,165198,8,400,,,
sequence,flow.Sequence,4_11,2023-11-06T15:32:18.204Z,,0,,,3401,completion,,,,,false,,,,165190,165190,161780,161779,161789,165198,8,400,,,
trial,html.Screen,4_12_0,2023-11-06T15:32:24.803Z,,0,1,,6597.000000000029,response,ISIC_3238687.JPG,4,ISIC_0060937.JPG,ISIC_0060937.JPG,false,0,keypress(z),500,171789.00000000003,171789.00000000003,165192,165190,165198,171802,8,400,13,,ISIC_3238687.JPG
break,html.Screen,4_12_1,2023-11-06T15:32:24.804Z,,0,,,NaN,,,,,,false,,,,171790,171790,,171789.00000000003,,171802,8,400,,,
break_continue,html.Screen,4_12_2,2023-11-06T15:32:24.804Z,,0,,,NaN,,,,,,false,,,,171790,171790,,171790,,171802,8,400,,,
sequence,flow.Sequence,4_12,2023-11-06T15:32:24.804Z,,0,,,6592,completion,,,,,false,,,,171790,171790,165192,165190,165198,171802,8,400,,,
trial,html.Screen,4_13_0,2023-11-06T15:32:29.834Z,,0,1,,5028,response,ISIC_9023152.JPG,5,ISIC_0066328.JPG,ISIC_9023152.JPG,false,1,keypress(m),500,176820,176820,171792,171791,171802,176840,8,400,14,,ISIC_0066328.JPG
break,html.Screen,4_13_1,2023-11-06T15:32:29.835Z,,0,,,NaN,,,,,,false,,,,176821,176821,,176820,,176840,8,400,,,
break_continue,html.Screen,4_13_2,2023-11-06T15:32:29.835Z,,0,,,NaN,,,,,,false,,,,176821,176821,,176821,,176840,8,400,,,
sequence,flow.Sequence,4_13,2023-11-06T15:32:29.835Z,,0,,,5019,completion,,,,,false,,,,176821,176821,171792,171791,171802,176840,8,400,,,
trial,html.Screen,4_14_0,2023-11-06T15:32:33.153Z,,0,1,,3315,response,ISIC_3446357.JPG,6,ISIC_0026930.JPG,ISIC_3446357.JPG,false,1,keypress(m),500,180139,180138,176823,176821,176840,180148,8,400,15,,ISIC_0026930.JPG
break,html.Screen,4_14_1,2023-11-06T15:32:33.153Z,,0,,,NaN,,,,,,false,,,,180139,180139,,180139,,180148,8,400,,,
break_continue,html.Screen,4_14_2,2023-11-06T15:32:33.153Z,,0,,,NaN,,,,,,false,,,,180139,180139,,180139,,180148,8,400,,,
sequence,flow.Sequence,4_14,2023-11-06T15:32:33.153Z,,0,,,3299,completion,,,,,false,,,,180140.00000000003,180139,176823,176821,176840,180148,8,400,,,
trial,html.Screen,4_15_0,2023-11-06T15:32:41.571Z,,0,1,,8415,response,ISIC_5388485.JPG,4,ISIC_7852890.JPG,ISIC_7852890.JPG,false,0,keypress(z),500,188557.00000000003,188556,180141,180140.00000000003,180148,188570,8,400,16,,ISIC_5388485.JPG
break,html.Screen,4_15_1,2023-11-06T15:32:41.571Z,,0,,,NaN,,,,,,false,,,,188557.00000000003,188557.00000000003,,188557.00000000003,,188570,8,400,,,
break_continue,html.Screen,4_15_2,2023-11-06T15:32:41.572Z,,0,,,NaN,,,,,,false,,,,188558,188558,,188558,,188570,8,400,,,
sequence,flow.Sequence,4_15,2023-11-06T15:32:41.572Z,,0,,,8410,completion,,,,,false,,,,188558,188558,180141,180140.00000000003,180148,188570,8,400,,,
trial,html.Screen,4_16_0,2023-11-06T15:32:46.107Z,,0,1,,4534.000000000029,response,ISIC_0000152.JPG,5,ISIC_0003910.JPG,ISIC_0000152.JPG,false,1,keypress(m),500,193093.00000000003,193093.00000000003,188559,188558,188570,193101,8,400,17,,ISIC_0003910.JPG
break,html.Screen,4_16_1,2023-11-06T15:32:46.107Z,,0,,,NaN,,,,,,false,,,,193094,193093.00000000003,,193093.00000000003,,193101,8,400,,,
break_continue,html.Screen,4_16_2,2023-11-06T15:32:46.108Z,,0,,,NaN,,,,,,false,,,,193094,193094,,193094,,193101,8,400,,,
sequence,flow.Sequence,4_16,2023-11-06T15:32:46.108Z,,0,,,4524,completion,,,,,false,,,,193094,193094,188559,188558,188570,193101,8,400,,,
trial,html.Screen,4_17_0,2023-11-06T15:32:49.049Z,,0,1,,2940,response,ISIC_0361149.JPG,7,ISIC_0033029.JPG,ISIC_0033029.JPG,false,0,keypress(z),500,196035,196035,193095,193094,193101,196056,8,400,18,,ISIC_0361149.JPG
break,html.Screen,4_17_1,2023-11-06T15:32:49.049Z,,0,,,NaN,,,,,,false,,,,196035,196035,,196035,,196056,8,400,,,
break_continue,html.Screen,4_17_2,2023-11-06T15:32:49.049Z,,0,,,NaN,,,,,,false,,,,196035,196035,,196035,,196056,8,400,,,
sequence,flow.Sequence,4_17,2023-11-06T15:32:49.049Z,,0,,,2934,completion,,,,,false,,,,196036,196035,193095,193094,193101,196056,8,400,,,
trial,html.Screen,4_18_0,2023-11-06T15:32:52.598Z,,0,1,,3546,response,ISIC_0188432.JPG,7,ISIC_0062223.JPG,ISIC_0188432.JPG,false,1,keypress(m),500,199584,199583,196037,196036,196056,199594,8,400,19,,ISIC_0062223.JPG
break,html.Screen,4_18_1,2023-11-06T15:32:52.598Z,,0,,,NaN,,,,,,false,,,,199584,199584,,199584,,199594,8,400,,,
break_continue,html.Screen,4_18_2,2023-11-06T15:32:52.598Z,,0,,,NaN,,,,,,false,,,,199584,199584,,199584,,199594,8,400,,,
sequence,flow.Sequence,4_18,2023-11-06T15:32:52.598Z,,0,,,3528,completion,,,,,false,,,,199585,199584,196037,196036,196056,199594,8,400,,,
trial,html.Screen,4_19_0,2023-11-06T15:32:55.981Z,,0,1,,3381,response,ISIC_0033272.JPG,2,ISIC_0030610.JPG,ISIC_0033272.JPG,false,1,keypress(m),500,202967,202967,199586,199585,199594,202997,8,400,20,,ISIC_0030610.JPG
break,html.Screen,4_19_1,2023-11-06T15:32:55.982Z,,0,,,NaN,,,,,,false,,,,202968.00000000003,202968.00000000003,,202967,,202997,8,400,,,
break_continue,html.Screen,4_19_2,2023-11-06T15:32:55.982Z,,0,,,NaN,,,,,,false,,,,202968.00000000003,202968.00000000003,,202968.00000000003,,202997,8,400,,,
sequence,flow.Sequence,4_19,2023-11-06T15:32:55.982Z,,0,,,3374.000000000029,completion,,,,,false,,,,202968.00000000003,202968.00000000003,199586,199585,199594,202997,8,400,,,
trial,html.Screen,4_20_0,2023-11-06T15:32:59.285Z,,0,1,,3291.000000000029,response,ISIC_0647224.JPG,5,ISIC_3073634.JPG,ISIC_3073634.JPG,false,0,keypress(z),500,206271.00000000003,206271.00000000003,202980,202968.00000000003,202997,206279,8,400,21,,ISIC_0647224.JPG
break,html.Screen,4_20_1,2023-11-06T15:32:59.285Z,,0,,,NaN,,,,,,false,,,,206272,206271.00000000003,,206271.00000000003,,206279,8,400,,,
break_continue,html.Screen,4_20_2,2023-11-06T15:32:59.286Z,,0,,,NaN,,,,,,false,,,,206272,206272,,206272,,206279,8,400,,,
sequence,flow.Sequence,4_20,2023-11-06T15:32:59.286Z,,0,,,3275,completion,,,,,false,,,,206272,206272,202980,202968.00000000003,202997,206279,8,400,,,
trial,html.Screen,4_21_0,2023-11-06T15:33:02.389Z,,0,1,,3102,response,ISIC_0029112.JPG,5,ISIC_9466794.JPG,ISIC_0029112.JPG,false,1,keypress(m),500,209375,209375,206273,206272,206279,209394,8,400,22,,ISIC_9466794.JPG
break,html.Screen,4_21_1,2023-11-06T15:33:02.390Z,,0,,,NaN,,,,,,false,,,,209376,209376,,209375,,209394,8,400,,,
break_continue,html.Screen,4_21_2,2023-11-06T15:33:02.390Z,,0,,,NaN,,,,,,false,,,,209376,209376,,209376,,209394,8,400,,,
sequence,flow.Sequence,4_21,2023-11-06T15:33:02.390Z,,0,,,3097,completion,,,,,false,,,,209376,209376,206273,206272,206279,209394,8,400,,,
trial,html.Screen,4_22_0,2023-11-06T15:33:05.487Z,,0,1,,3096,response,ISIC_0000172.JPG,5,ISIC_0027187.JPG,ISIC_0027187.JPG,false,0,keypress(z),500,212474.00000000003,212473,209377,209376,209394,212498,8,400,23,,ISIC_0000172.JPG
break,html.Screen,4_22_1,2023-11-06T15:33:05.488Z,,0,,,NaN,,,,,,false,,,,212474.00000000003,212474.00000000003,,212474.00000000003,,212498,8,400,,,
break_continue,html.Screen,4_22_2,2023-11-06T15:33:05.488Z,,0,,,NaN,,,,,,false,,,,212475,212475,,212474.00000000003,,212498,8,400,,,
sequence,flow.Sequence,4_22,2023-11-06T15:33:05.489Z,,0,,,3081,completion,,,,,false,,,,212475,212475,209377,209376,209394,212498,8,400,,,
trial,html.Screen,4_23_0,2023-11-06T15:33:08.431Z,,0,1,,2940,response,ISIC_1616031.JPG,5,ISIC_3932879.JPG,ISIC_3932879.JPG,false,0,keypress(z),500,215417,215417,212477,212475,212498,215439,8,400,24,,ISIC_1616031.JPG
break,html.Screen,4_23_1,2023-11-06T15:33:08.432Z,,0,,,NaN,,,,,,false,,,,215418,215418,,215418,,215439,8,400,,,
break_continue,html.Screen,4_23_2,2023-11-06T15:33:08.432Z,,0,,,NaN,,,,,,false,,,,215418,215418,,215418,,215439,8,400,,,
sequence,flow.Sequence,4_23,2023-11-06T15:33:08.432Z,,0,,,2920,completion,,,,,false,,,,215418,215418,212477,212475,212498,215439,8,400,,,
trial,html.Screen,4_24_0,2023-11-06T15:33:11.112Z,,0,1,,2678,response,ISIC_0011633.JPG,7,ISIC_1251639.JPG,ISIC_0011633.JPG,false,1,keypress(m),500,218098,218098,215420,215419,215439,218120,8,400,25,,ISIC_1251639.JPG
break,html.Screen,4_24_1,2023-11-06T15:33:11.113Z,,0,,,NaN,,,,,,false,,,,218099.00000000003,218099.00000000003,,218099.00000000003,,218120,8,400,,,
break_continue,html.Screen,4_24_2,2023-11-06T15:33:11.113Z,,0,,,NaN,,,,,,false,,,,218099.00000000003,218099.00000000003,,218099.00000000003,,218120,8,400,,,
sequence,flow.Sequence,4_24,2023-11-06T15:33:11.113Z,,0,,,2660.000000000029,completion,,,,,false,,,,218099.00000000003,218099.00000000003,215420,215418,215439,218120,8,400,,,
trial,html.Screen,4_25_0,2023-11-06T15:33:13.869Z,,0,1,,2755.000000000029,response,ISIC_8199467.JPG,6,ISIC_2784664.JPG,ISIC_2784664.JPG,false,0,keypress(z),500,220855.00000000003,220855.00000000003,218100,218099.00000000003,218120,220870,8,400,26,,ISIC_8199467.JPG
break,html.Screen,4_25_1,2023-11-06T15:33:13.869Z,,0,,,NaN,,,,,,false,,,,220856,220855.00000000003,,220855.00000000003,,220870,8,400,,,
break_continue,html.Screen,4_25_2,2023-11-06T15:33:13.870Z,,0,,,NaN,,,,,,false,,,,220856,220856,,220856,,220870,8,400,,,
sequence,flow.Sequence,4_25,2023-11-06T15:33:13.870Z,,0,,,2736,completion,,,,,false,,,,220856,220856,218100,218099.00000000003,218120,220870,8,400,,,
trial,html.Screen,4_26_0,2023-11-06T15:33:16.910Z,,0,1,,3039.000000000029,response,ISIC_3376976.JPG,16,ISIC_0029480.JPG,ISIC_3376976.JPG,false,1,keypress(m),500,223896.00000000003,223896.00000000003,220857,220856,220870,223906,8,400,27,,ISIC_0029480.JPG
break,html.Screen,4_26_1,2023-11-06T15:33:16.910Z,,0,,,NaN,,,,,,false,,,,223896.00000000003,223896.00000000003,,223896.00000000003,,223906,8,400,,,
break_continue,html.Screen,4_26_2,2023-11-06T15:33:16.910Z,,0,,,NaN,,,,,,false,,,,223897,223897,,223897,,223906,8,400,,,
sequence,flow.Sequence,4_26,2023-11-06T15:33:16.911Z,,0,,,3027,completion,,,,,false,,,,223897,223897,220857,220856,220870,223906,8,400,,,
trial,html.Screen,4_27_0,2023-11-06T15:33:22.773Z,,0,1,,5861,response,ISIC_4087267.JPG,1,ISIC_2924968.JPG,ISIC_4087267.JPG,false,1,keypress(m),500,229759,229759,223898,223897,223906,229782,8,400,28,,ISIC_2924968.JPG
break,html.Screen,4_27_1,2023-11-06T15:33:22.773Z,,0,,,NaN,,,,,,false,,,,229759,229759,,229759,,229782,8,400,,,
break_continue,html.Screen,4_27_2,2023-11-06T15:33:22.773Z,,0,,,NaN,,,,,,false,,,,229760,229759,,229759,,229782,8,400,,,
sequence,flow.Sequence,4_27,2023-11-06T15:33:22.773Z,,0,,,5853,completion,,,,,false,,,,229760,229759,223898,223897,223906,229782,8,400,,,
trial,html.Screen,4_28_0,2023-11-06T15:33:26.236Z,,0,1,,3461,response,ISIC_2664946.JPG,5,ISIC_5275138.JPG,ISIC_5275138.JPG,false,0,keypress(z),500,233223,233222,229761,229760,229782,233239,8,400,29,,ISIC_2664946.JPG
break,html.Screen,4_28_1,2023-11-06T15:33:26.237Z,,0,,,NaN,,,,,,false,,,,233223,233223,,233223,,233239,8,400,,,
break_continue,html.Screen,4_28_2,2023-11-06T15:33:26.237Z,,0,,,NaN,,,,,,false,,,,233223,233223,,233223,,233239,8,400,,,
sequence,flow.Sequence,4_28,2023-11-06T15:33:26.237Z,,0,,,3441,completion,,,,,false,,,,233223,233223,229761,229760,229782,233239,8,400,,,
trial,html.Screen,4_29_0,2023-11-06T15:33:30.039Z,,0,1,,3801,response,ISIC_5982769.JPG,2,ISIC_0032420.JPG,ISIC_0032420.JPG,false,0,keypress(z),500,237025,237025,233224,233223,233239,237047,8,400,30,,ISIC_5982769.JPG
break,html.Screen,4_29_1,2023-11-06T15:33:30.039Z,,0,,,NaN,,,,,,false,,,,237026,237026,,237025,,237047,8,400,,,
break_continue,html.Screen,4_29_2,2023-11-06T15:33:30.040Z,,0,,,NaN,,,,,,false,,,,237026,237026,,237026,,237047,8,400,,,
sequence,flow.Sequence,4_29,2023-11-06T15:33:30.040Z,,0,,,3787,completion,,,,,false,,,,237026,237026,233224,233223,233239,237047,8,400,,,
trial,html.Screen,4_30_0,2023-11-06T15:33:38.009Z,,0,1,,7968,response,ISIC_5287748.JPG,8,ISIC_0000162.JPG,ISIC_0000162.JPG,false,0,keypress(z),500,244995,244995,237027,237026,237047,245015,8,400,31,,ISIC_5287748.JPG
break,html.Screen,4_30_1,2023-11-06T15:33:38.009Z,,0,,,NaN,,,,,,false,,,,244996,244996,,244995,,245015,8,400,,,
break_continue,html.Screen,4_30_2,2023-11-06T15:33:38.010Z,,0,,,NaN,,,,,,false,,,,244996,244996,,244996,,245015,8,400,,,
sequence,flow.Sequence,4_30,2023-11-06T15:33:38.010Z,,0,,,7949,completion,,,,,false,,,,244996,244996,237027,237026,237047,245015,8,400,,,
trial,html.Screen,4_31_0,2023-11-06T15:33:41.780Z,,0,1,,3769,response,ISIC_1384527.JPG,10,ISIC_6507792.JPG,ISIC_1384527.JPG,false,1,keypress(m),500,248766,248766,244997,244996,245015,248790,8,400,32,,ISIC_6507792.JPG
break,html.Screen,4_31_1,2023-11-06T15:33:41.780Z,,0,,,NaN,,,,,,false,,,,248767,248767,,248766,,248790,8,400,,,
break_continue,html.Screen,4_31_2,2023-11-06T15:33:41.781Z,,0,,,NaN,,,,,,false,,,,248767,248767,,248767,,248790,8,400,,,
sequence,flow.Sequence,4_31,2023-11-06T15:33:41.781Z,,0,,,3752,completion,,,,,false,,,,248767,248767,244997,244996,245015,248790,8,400,,,
trial,html.Screen,4_32_0,2023-11-06T15:33:45.150Z,,0,1,,3368,response,ISIC_0009939.JPG,5,ISIC_8730617.JPG,ISIC_8730617.JPG,false,0,keypress(z),500,252136,252136,248768,248767,248790,252148,8,400,33,,ISIC_0009939.JPG
break,html.Screen,4_32_1,2023-11-06T15:33:45.150Z,,0,,,NaN,,,,,,false,,,,252137,252137,,252136,,252148,8,400,,,
break_continue,html.Screen,4_32_2,2023-11-06T15:33:45.151Z,,0,,,NaN,,,,,,false,,,,252137,252137,,252137,,252148,8,400,,,
sequence,flow.Sequence,4_32,2023-11-06T15:33:45.151Z,,0,,,3347,completion,,,,,false,,,,252137,252137,248768,248767,248790,252148,8,400,,,
trial,html.Screen,4_33_0,2023-11-06T15:33:51.740Z,,0,1,,6588,response,ISIC_1798471.JPG,6,ISIC_0004986.JPG,ISIC_1798471.JPG,false,1,keypress(m),500,258726,258726,252138,252137,252148,258750,8,400,34,,ISIC_0004986.JPG
break,html.Screen,4_33_1,2023-11-06T15:33:51.740Z,,0,,,NaN,,,,,,false,,,,258727.00000000003,258727.00000000003,,258726,,258750,8,400,,,
break_continue,html.Screen,4_33_2,2023-11-06T15:33:51.741Z,,0,,,NaN,,,,,,false,,,,258727.00000000003,258727.00000000003,,258727.00000000003,,258750,8,400,,,
sequence,flow.Sequence,4_33,2023-11-06T15:33:51.741Z,,0,,,6579.000000000029,completion,,,,,false,,,,258727.00000000003,258727.00000000003,252138,252137,252148,258750,8,400,,,
trial,html.Screen,4_34_0,2023-11-06T15:33:55.212Z,,0,1,,3464,response,ISIC_0011193.JPG,7,ISIC_3564461.JPG,ISIC_0011193.JPG,false,1,keypress(m),500,262198,262198,258734,258727.00000000003,258750,262214,8,400,35,,ISIC_3564461.JPG
break,html.Screen,4_34_1,2023-11-06T15:33:55.212Z,,0,,,NaN,,,,,,false,,,,262199,262198,,262198,,262214,8,400,,,
break_continue,html.Screen,4_34_2,2023-11-06T15:33:55.213Z,,0,,,NaN,,,,,,false,,,,262199,262199,,262199,,262214,8,400,,,
sequence,flow.Sequence,4_34,2023-11-06T15:33:55.213Z,,0,,,3449,completion,,,,,false,,,,262199,262199,258734,258727.00000000003,258750,262214,8,400,,,
trial,html.Screen,4_35_0,2023-11-06T15:33:58.316Z,,0,1,,3101,response,ISIC_0010909.JPG,5,ISIC_0033090.JPG,ISIC_0010909.JPG,false,1,keypress(m),500,265302,265302,262201,262199,262214,265322,8,400,36,,ISIC_0033090.JPG
break,html.Screen,4_35_1,2023-11-06T15:33:58.316Z,,0,,,NaN,,,,,,false,,,,265303,265303,,265302,,265322,8,400,,,
break_continue,html.Screen,4_35_2,2023-11-06T15:33:58.317Z,,0,,,NaN,,,,,,false,,,,265303,265303,,265303,,265322,8,400,,,
sequence,flow.Sequence,4_35,2023-11-06T15:33:58.317Z,,0,,,3089,completion,,,,,false,,,,265303,265303,262201,262199,262214,265322,8,400,,,
trial,html.Screen,4_36_0,2023-11-06T15:34:01.392Z,,0,1,,3073,response,ISIC_5952650.JPG,7,ISIC_0011994.JPG,ISIC_0011994.JPG,false,0,keypress(z),500,268379,268378,265305,265303,265322,268391,8,400,37,,ISIC_5952650.JPG
break,html.Screen,4_36_1,2023-11-06T15:34:01.393Z,,0,,,NaN,,,,,,false,,,,268379,268379,,268379,,268391,8,400,,,
break_continue,html.Screen,4_36_2,2023-11-06T15:34:01.393Z,,0,,,NaN,,,,,,false,,,,268380,268379,,268379,,268391,8,400,,,
sequence,flow.Sequence,4_36,2023-11-06T15:34:01.393Z,,0,,,3057,completion,,,,,false,,,,268380,268379,265305,265303,265322,268391,8,400,,,
trial,html.Screen,4_37_0,2023-11-06T15:34:08.662Z,,0,1,,7267,response,ISIC_0025132.JPG,5,ISIC_7319169.JPG,ISIC_0025132.JPG,false,1,keypress(m),500,275649,275648,268381,268380,268391,275662,8,400,38,,ISIC_7319169.JPG
break,html.Screen,4_37_1,2023-11-06T15:34:08.663Z,,0,,,NaN,,,,,,false,,,,275649,275649,,275649,,275662,8,400,,,
break_continue,html.Screen,4_37_2,2023-11-06T15:34:08.663Z,,0,,,NaN,,,,,,false,,,,275649,275649,,275649,,275662,8,400,,,
sequence,flow.Sequence,4_37,2023-11-06T15:34:08.663Z,,0,,,7258,completion,,,,,false,,,,275649,275649,268381,268380,268391,275662,8,400,,,
trial,html.Screen,4_38_0,2023-11-06T15:34:12.771Z,,0,1,,4106,response,ISIC_0069093.JPG,5,ISIC_0014189.JPG,ISIC_0014189.JPG,false,0,keypress(z),500,279758,279757,275651,275650.00000000006,275662,279765,8,400,39,,ISIC_0069093.JPG
break,html.Screen,4_38_1,2023-11-06T15:34:12.772Z,,0,,,NaN,,,,,,false,,,,279758,279758,,279758,,279765,8,400,,,
break_continue,html.Screen,4_38_2,2023-11-06T15:34:12.772Z,,0,,,NaN,,,,,,false,,,,279758,279758,,279758,,279765,8,400,,,
sequence,flow.Sequence,4_38,2023-11-06T15:34:12.772Z,,0,,,4096,completion,,,,,false,,,,279758,279758,275651,275649,275662,279765,8,400,,,
trial,html.Screen,4_39_0,2023-11-06T15:34:15.794Z,,0,1,,3021,response,ISIC_3254309.JPG,7,ISIC_0027921.JPG,ISIC_0027921.JPG,false,0,keypress(z),500,282781,282781,279760,279758,279765,282801,8,400,40,,ISIC_3254309.JPG
break,html.Screen,4_39_1,2023-11-06T15:34:15.795Z,,0,,,NaN,,,,,,false,,,,282781,282781,,282781,,282801,8,400,,,
break_continue,html.Screen,4_39_2,2023-11-06T15:34:15.795Z,,0,,,NaN,,,,,,false,,,,282781,282781,,282781,,282801,8,400,,,
sequence,flow.Sequence,4_39,2023-11-06T15:34:15.795Z,,0,,,3016,completion,,,,,false,,,,282782,282781,279760,279758,279765,282801,8,400,,,
trial,html.Screen,4_40_0,2023-11-06T15:34:20.099Z,,0,1,,4302,response,ISIC_0011733.JPG,6,ISIC_0061108.JPG,ISIC_0011733.JPG,false,1,keypress(m),500,287086,287085,282783,282782,282801,287096,8,400,41,,ISIC_0061108.JPG
break,html.Screen,4_40_1,2023-11-06T15:34:20.099Z,,0,,,NaN,,,,,,false,,,,287086,287086,,287086,,287096,8,400,,,
break_continue,html.Screen,4_40_2,2023-11-06T15:34:20.100Z,,0,,,NaN,,,,,,false,,,,287086,287086,,287086,,287096,8,400,,,
sequence,flow.Sequence,4_40,2023-11-06T15:34:20.100Z,,0,,,4285,completion,,,,,false,,,,287087,287086,282783,282782,282801,287096,8,400,,,
trial,html.Screen,4_41_0,2023-11-06T15:34:23.491Z,,0,1,,3389.000000000058,response,ISIC_0028788.JPG,8,ISIC_6647306.JPG,ISIC_6647306.JPG,false,0,keypress(z),500,290477.00000000006,290477.00000000006,287088,287087,287096,290498,8,400,42,,ISIC_0028788.JPG
break,html.Screen,4_41_1,2023-11-06T15:34:23.492Z,,0,,,NaN,,,,,,false,,,,290478,290478,,290478,,290498,8,400,,,
break_continue,html.Screen,4_41_2,2023-11-06T15:34:23.492Z,,0,,,NaN,,,,,,false,,,,290479,290479,,290478,,290498,8,400,,,
sequence,flow.Sequence,4_41,2023-11-06T15:34:23.492Z,,0,,,3383,completion,,,,,false,,,,290479,290479,287088,287087,287096,290498,8,400,,,
trial,html.Screen,4_42_0,2023-11-06T15:34:27.923Z,,0,1,,4429,response,ISIC_0011045.JPG,6,ISIC_0013618.JPG,ISIC_0013618.JPG,false,0,keypress(z),500,294909,294909,290480,290479,290498,294920,8,400,43,,ISIC_0011045.JPG
break,html.Screen,4_42_1,2023-11-06T15:34:27.923Z,,0,,,NaN,,,,,,false,,,,294910,294910,,294909,,294920,8,400,,,
break_continue,html.Screen,4_42_2,2023-11-06T15:34:27.923Z,,0,,,NaN,,,,,,false,,,,294910,294910,,294910,,294920,8,400,,,
sequence,flow.Sequence,4_42,2023-11-06T15:34:27.923Z,,0,,,4412,completion,,,,,false,,,,294910,294910,290480,290479,290498,294920,8,400,,,
trial,html.Screen,4_43_0,2023-11-06T15:34:31.179Z,,0,1,,3253,response,ISIC_0061825.JPG,2,ISIC_0032551.JPG,ISIC_0061825.JPG,false,1,keypress(m),500,298165,298165,294912,294910,294920,298179,8,400,44,,ISIC_0032551.JPG
break,html.Screen,4_43_1,2023-11-06T15:34:31.179Z,,0,,,NaN,,,,,,false,,,,298166,298166,,298165,,298179,8,400,,,
break_continue,html.Screen,4_43_2,2023-11-06T15:34:31.179Z,,0,,,NaN,,,,,,false,,,,298166,298166,,298166,,298179,8,400,,,
sequence,flow.Sequence,4_43,2023-11-06T15:34:31.180Z,,0,,,3246,completion,,,,,false,,,,298166,298166,294912,294910,294920,298179,8,400,,,
trial,html.Screen,4_44_0,2023-11-06T15:34:35.740Z,,0,1,,4560.000000000058,response,ISIC_0029993.JPG,8,ISIC_0068438.JPG,ISIC_0068438.JPG,false,0,keypress(z),500,302727.00000000006,302727.00000000006,298167,298166,298179,302751,8,400,45,,ISIC_0029993.JPG
break,html.Screen,4_44_1,2023-11-06T15:34:35.741Z,,0,,,NaN,,,,,,false,,,,302728,302728,,302727.00000000006,,302751,8,400,,,
break_continue,html.Screen,4_44_2,2023-11-06T15:34:35.741Z,,0,,,NaN,,,,,,false,,,,302728,302728,,302728,,302751,8,400,,,
sequence,flow.Sequence,4_44,2023-11-06T15:34:35.741Z,,0,,,4549,completion,,,,,false,,,,302728,302728,298167,298166,298179,302751,8,400,,,
trial,html.Screen,4_45_0,2023-11-06T15:34:40.061Z,,0,1,,4319,response,ISIC_0029825.JPG,6,ISIC_5736624.JPG,ISIC_0029825.JPG,false,1,keypress(m),500,307048,307048,302729,302728,302751,307057,8,400,46,,ISIC_5736624.JPG
break,html.Screen,4_45_1,2023-11-06T15:34:40.062Z,,0,,,NaN,,,,,,false,,,,307048,307048,,307048,,307057,8,400,,,
break_continue,html.Screen,4_45_2,2023-11-06T15:34:40.062Z,,0,,,NaN,,,,,,false,,,,307048,307048,,307048,,307057,8,400,,,
sequence,flow.Sequence,4_45,2023-11-06T15:34:40.062Z,,0,,,4297,completion,,,,,false,,,,307049,307048,302729,302728,302751,307057,8,400,,,
trial,html.Screen,4_46_0,2023-11-06T15:34:43.162Z,,0,1,,3099,response,ISIC_1870309.JPG,7,ISIC_0054233.JPG,ISIC_0054233.JPG,false,0,keypress(z),500,310149,310149,307050,307049,307057,310162,8,400,47,,ISIC_1870309.JPG
break,html.Screen,4_46_1,2023-11-06T15:34:43.163Z,,0,,,NaN,,,,,,false,,,,310150.00000000006,310150.00000000006,,310149,,310162,8,400,,,
break_continue,html.Screen,4_46_2,2023-11-06T15:34:43.163Z,,0,,,NaN,,,,,,false,,,,310150.00000000006,310150.00000000006,,310150.00000000006,,310162,8,400,,,
sequence,flow.Sequence,4_46,2023-11-06T15:34:43.163Z,,0,,,3093.000000000058,completion,,,,,false,,,,310150.00000000006,310150.00000000006,307050,307049,307057,310162,8,400,,,
trial,html.Screen,4_47_0,2023-11-06T15:34:47.488Z,,0,1,,4323,response,ISIC_6423860.JPG,8,ISIC_0029863.JPG,ISIC_6423860.JPG,false,1,keypress(m),500,314474,314474,310151,310150.00000000006,310162,314485,8,400,48,,ISIC_0029863.JPG
break,html.Screen,4_47_1,2023-11-06T15:34:47.488Z,,0,,,NaN,,,,,,false,,,,314475,314475,,314475,,314485,8,400,,,
break_continue,html.Screen,4_47_2,2023-11-06T15:34:47.488Z,,0,,,NaN,,,,,,false,,,,314475,314475,,314475,,314485,8,400,,,
sequence,flow.Sequence,4_47,2023-11-06T15:34:47.488Z,,0,,,4313,completion,,,,,false,,,,314475,314475,310151,310150.00000000006,310162,314485,8,400,,,
trial,html.Screen,4_48_0,2023-11-06T15:34:51.151Z,,0,1,,3661,response,ISIC_6961503.JPG,2,ISIC_0028839.JPG,ISIC_6961503.JPG,false,1,keypress(m),500,318138.00000000006,318137,314476,314475,314485,318152,8,400,49,,ISIC_0028839.JPG
break,html.Screen,4_48_1,2023-11-06T15:34:51.151Z,,0,,,NaN,,,,,,false,,,,318138.00000000006,318138.00000000006,,318138.00000000006,,318152,8,400,,,
break_continue,html.Screen,4_48_2,2023-11-06T15:34:51.152Z,,0,,,NaN,,,,,,false,,,,318138.00000000006,318138.00000000006,,318138.00000000006,,318152,8,400,,,
sequence,flow.Sequence,4_48,2023-11-06T15:34:51.152Z,,0,,,3653.000000000058,completion,,,,,false,,,,318139,318138.00000000006,314476,314475,314485,318152,8,400,,,
trial,html.Screen,4_49_0,2023-11-06T15:34:54.749Z,,0,1,,3595,response,ISIC_1777398.JPG,8,ISIC_8935085.JPG,ISIC_8935085.JPG,false,0,keypress(z),500,321735,321735,318140,318139,318152,321754,8,400,50,,ISIC_1777398.JPG
break,html.Screen,4_49_1,2023-11-06T15:35:04.759Z,,0,,,10008,timeout,,,,,false,,,,331745,331745,321737,321736,321754,331762,8,400,,,
break_continue,html.Screen,4_49_2,2023-11-06T15:35:06.616Z,,0,,,1862,response,,,,,false,continue,keypress(Space),,333603,333607,331745,331746,331762,333611,8,400,,,
sequence,flow.Sequence,4_49,2023-11-06T15:35:06.617Z,,0,,,15455,completion,,,,,false,,,,333603,333607,318140,318139,318152,333611,8,400,,,
trial,html.Screen,4_50_0,2023-11-06T15:35:09.598Z,,0,2,,2979,response,ISIC_3913709.JPG,10,ISIC_0200153.JPG,ISIC_3913709.JPG,false,1,keypress(m),500,336585,336584,333605,333604,333611,336599,8,400,1,,ISIC_0200153.JPG
break,html.Screen,4_50_1,2023-11-06T15:35:09.598Z,,0,,,NaN,,,,,,false,,,,336585,336585,,336585,,336599,8,400,,,
break_continue,html.Screen,4_50_2,2023-11-06T15:35:09.598Z,,0,,,NaN,,,,,,false,,,,336585,336585,,336585,,336599,8,400,,,
sequence,flow.Sequence,4_50,2023-11-06T15:35:09.598Z,,0,,,2974,completion,,,,,false,,,,336585,336585,333605,333603,333611,336599,8,400,,,
trial,html.Screen,4_51_0,2023-11-06T15:35:12.633Z,,0,2,,3032,response,ISIC_2638895.JPG,1,ISIC_5234605.JPG,ISIC_2638895.JPG,false,1,keypress(m),500,339619,339619,336587,336585,336599,339636,8,400,2,,ISIC_5234605.JPG
break,html.Screen,4_51_1,2023-11-06T15:35:12.633Z,,0,,,NaN,,,,,,false,,,,339620,339620,,339620,,339636,8,400,,,
break_continue,html.Screen,4_51_2,2023-11-06T15:35:12.633Z,,0,,,NaN,,,,,,false,,,,339620,339620,,339620,,339636,8,400,,,
sequence,flow.Sequence,4_51,2023-11-06T15:35:12.633Z,,0,,,3021,completion,,,,,false,,,,339620,339620,336587,336585,336599,339636,8,400,,,
trial,html.Screen,4_52_0,2023-11-06T15:35:16.356Z,,0,2,,3720,response,ISIC_4509925.JPG,9,ISIC_0010749.JPG,ISIC_0010749.JPG,false,0,keypress(z),500,343342,343342,339622,339620,339636,343366,8,400,3,,ISIC_4509925.JPG
break,html.Screen,4_52_1,2023-11-06T15:35:16.356Z,,0,,,NaN,,,,,,false,,,,343343,343343,,343343,,343366,8,400,,,
break_continue,html.Screen,4_52_2,2023-11-06T15:35:16.356Z,,0,,,NaN,,,,,,false,,,,343343,343343,,343343,,343366,8,400,,,
sequence,flow.Sequence,4_52,2023-11-06T15:35:16.357Z,,0,,,3707,completion,,,,,false,,,,343343,343343,339622,339620,339636,343366,8,400,,,
trial,html.Screen,4_53_0,2023-11-06T15:35:19.116Z,,0,2,,2758,response,ISIC_0034059.JPG,6,ISIC_0030623.JPG,ISIC_0034059.JPG,false,1,keypress(m),500,346103,346103,343345,343343,343366,346114,8,400,4,,ISIC_0030623.JPG
break,html.Screen,4_53_1,2023-11-06T15:35:19.117Z,,0,,,NaN,,,,,,false,,,,346104,346103,,346103,,346114,8,400,,,
break_continue,html.Screen,4_53_2,2023-11-06T15:35:19.117Z,,0,,,NaN,,,,,,false,,,,346104,346104,,346104,,346114,8,400,,,
sequence,flow.Sequence,4_53,2023-11-06T15:35:19.117Z,,0,,,2738,completion,,,,,false,,,,346104,346104,343345,343343,343366,346114,8,400,,,
trial,html.Screen,4_54_0,2023-11-06T15:35:22.100Z,,0,2,,2980,response,ISIC_3012778.JPG,7,ISIC_0031417.JPG,ISIC_3012778.JPG,false,1,keypress(m),500,349087,349086,346106,346104,346114,349100,8,400,5,,ISIC_0031417.JPG
break,html.Screen,4_54_1,2023-11-06T15:35:22.100Z,,0,,,NaN,,,,,,false,,,,349087,349087,,349087,,349100,8,400,,,
break_continue,html.Screen,4_54_2,2023-11-06T15:35:22.100Z,,0,,,NaN,,,,,,false,,,,349087,349087,,349087,,349100,8,400,,,
sequence,flow.Sequence,4_54,2023-11-06T15:35:22.100Z,,0,,,2973,completion,,,,,false,,,,349087,349087,346106,346104,346114,349100,8,400,,,
trial,html.Screen,4_55_0,2023-11-06T15:35:24.820Z,,0,2,,2718,response,ISIC_1380069.JPG,5,ISIC_0593591.JPG,ISIC_0593591.JPG,false,0,keypress(z),500,351807,351807,349089,349087,349100,351814,8,400,6,,ISIC_1380069.JPG
break,html.Screen,4_55_1,2023-11-06T15:35:24.820Z,,0,,,NaN,,,,,,false,,,,351807,351807,,351807,,351814,8,400,,,
break_continue,html.Screen,4_55_2,2023-11-06T15:35:24.821Z,,0,,,NaN,,,,,,false,,,,351807,351807,,351807,,351814,8,400,,,
sequence,flow.Sequence,4_55,2023-11-06T15:35:24.821Z,,0,,,2707,completion,,,,,false,,,,351808,351807,349089,349087,349100,351814,8,400,,,
trial,html.Screen,4_56_0,2023-11-06T15:35:27.913Z,,0,2,,3090,response,ISIC_0070110.JPG,6,ISIC_7835257.JPG,ISIC_0070110.JPG,false,1,keypress(m),500,354900.00000000006,354899,351809,351808,351814,354916,8,400,7,,ISIC_7835257.JPG
break,html.Screen,4_56_1,2023-11-06T15:35:27.913Z,,0,,,NaN,,,,,,false,,,,354900.00000000006,354900.00000000006,,354900.00000000006,,354916,8,400,,,
break_continue,html.Screen,4_56_2,2023-11-06T15:35:27.914Z,,0,,,NaN,,,,,,false,,,,354901,354901,,354900.00000000006,,354916,8,400,,,
sequence,flow.Sequence,4_56,2023-11-06T15:35:27.914Z,,0,,,3087,completion,,,,,false,,,,354901,354901,351809,351808,351814,354916,8,400,,,
trial,html.Screen,4_57_0,2023-11-06T15:35:30.901Z,,0,2,,2986.000000000058,response,ISIC_0033968.JPG,5,ISIC_2126084.JPG,ISIC_0033968.JPG,false,1,keypress(m),500,357888.00000000006,357888.00000000006,354902,354901,354916,357909,8,400,8,,ISIC_2126084.JPG
break,html.Screen,4_57_1,2023-11-06T15:35:30.902Z,,0,,,NaN,,,,,,false,,,,357888.00000000006,357888.00000000006,,357888.00000000006,,357909,8,400,,,
break_continue,html.Screen,4_57_2,2023-11-06T15:35:30.902Z,,0,,,NaN,,,,,,false,,,,357889,357889,,357889,,357909,8,400,,,
sequence,flow.Sequence,4_57,2023-11-06T15:35:30.902Z,,0,,,2973,completion,,,,,false,,,,357889,357889,354902,354901,354916,357909,8,400,,,
trial,html.Screen,4_58_0,2023-11-06T15:35:35.772Z,,0,2,,4868,response,ISIC_0543351.JPG,8,ISIC_5762714.JPG,ISIC_5762714.JPG,false,0,keypress(z),500,362759,362758,357890,357889,357909,362778,8,400,9,,ISIC_0543351.JPG
break,html.Screen,4_58_1,2023-11-06T15:35:35.772Z,,0,,,NaN,,,,,,false,,,,362759,362759,,362759,,362778,8,400,,,
break_continue,html.Screen,4_58_2,2023-11-06T15:35:35.772Z,,0,,,NaN,,,,,,false,,,,362759,362759,,362759,,362778,8,400,,,
sequence,flow.Sequence,4_58,2023-11-06T15:35:35.772Z,,0,,,4850,completion,,,,,false,,,,362759,362759,357890,357889,357909,362778,8,400,,,
trial,html.Screen,4_59_0,2023-11-06T15:35:38.774Z,,0,2,,3000,response,ISIC_9860255.JPG,4,ISIC_9921747.JPG,ISIC_9921747.JPG,false,0,keypress(z),500,365761,365761,362761,362760,362778,365775,8,400,10,,ISIC_9860255.JPG
break,html.Screen,4_59_1,2023-11-06T15:35:38.775Z,,0,,,NaN,,,,,,false,,,,365762,365762,,365761,,365775,8,400,,,
break_continue,html.Screen,4_59_2,2023-11-06T15:35:38.775Z,,0,,,NaN,,,,,,false,,,,365762,365762,,365762,,365775,8,400,,,
sequence,flow.Sequence,4_59,2023-11-06T15:35:38.775Z,,0,,,2984,completion,,,,,false,,,,365762,365762,362761,362760,362778,365775,8,400,,,
trial,html.Screen,4_60_0,2023-11-06T15:35:42.084Z,,0,2,,3307,response,ISIC_0030391.JPG,8,ISIC_8901371.JPG,ISIC_8901371.JPG,false,0,keypress(z),500,369071,369070,365763,365762,365775,369089,8,400,11,,ISIC_0030391.JPG
break,html.Screen,4_60_1,2023-11-06T15:35:42.084Z,,0,,,NaN,,,,,,false,,,,369071,369071,,369071,,369089,8,400,,,
break_continue,html.Screen,4_60_2,2023-11-06T15:35:42.084Z,,0,,,NaN,,,,,,false,,,,369071,369071,,369071,,369089,8,400,,,
sequence,flow.Sequence,4_60,2023-11-06T15:35:42.084Z,,0,,,3296,completion,,,,,false,,,,369071,369071,365763,365762,365775,369089,8,400,,,
trial,html.Screen,4_61_0,2023-11-06T15:35:45.622Z,,0,2,,3537,response,ISIC_5732487.JPG,5,ISIC_8708106.JPG,ISIC_8708106.JPG,false,0,keypress(z),500,372609,372609,369072,369071,369089,372643,8,400,12,,ISIC_5732487.JPG
break,html.Screen,4_61_1,2023-11-06T15:35:45.623Z,,0,,,NaN,,,,,,false,,,,372610,372610,,372609,,372643,8,400,,,
break_continue,html.Screen,4_61_2,2023-11-06T15:35:45.623Z,,0,,,NaN,,,,,,false,,,,372610,372610,,372610,,372643,8,400,,,
sequence,flow.Sequence,4_61,2023-11-06T15:35:45.623Z,,0,,,3521,completion,,,,,false,,,,372610,372610,369072,369071,369089,372643,8,400,,,
trial,html.Screen,4_62_0,2023-11-06T15:35:50.046Z,,0,2,,4408,response,ISIC_0062468.JPG,7,ISIC_0062208.JPG,ISIC_0062208.JPG,false,0,keypress(z),500,377033,377033,372625,372610,372643,377043,8,400,13,,ISIC_0062468.JPG
break,html.Screen,4_62_1,2023-11-06T15:35:50.046Z,,0,,,NaN,,,,,,false,,,,377033,377033,,377033,,377043,8,400,,,
break_continue,html.Screen,4_62_2,2023-11-06T15:35:50.046Z,,0,,,NaN,,,,,,false,,,,377033,377033,,377033,,377043,8,400,,,
sequence,flow.Sequence,4_62,2023-11-06T15:35:50.046Z,,0,,,4390,completion,,,,,false,,,,377033,377033,372625,372610,372643,377043,8,400,,,
trial,html.Screen,4_63_0,2023-11-06T15:35:53.982Z,,0,2,,3934,response,ISIC_8849004.JPG,7,ISIC_4538661.JPG,ISIC_4538661.JPG,false,0,keypress(z),500,380969,380969,377035,377034,377043,380987,8,400,14,,ISIC_8849004.JPG
break,html.Screen,4_63_1,2023-11-06T15:35:53.982Z,,0,,,NaN,,,,,,false,,,,380969,380969,,380969,,380987,8,400,,,
break_continue,html.Screen,4_63_2,2023-11-06T15:35:53.982Z,,0,,,NaN,,,,,,false,,,,380969,380969,,380969,,380987,8,400,,,
sequence,flow.Sequence,4_63,2023-11-06T15:35:53.982Z,,0,,,3926,completion,,,,,false,,,,380970,380969,377035,377034,377043,380987,8,400,,,
trial,html.Screen,4_64_0,2023-11-06T15:35:57.766Z,,0,2,,3782,response,ISIC_0315631.JPG,2,ISIC_0753491.JPG,ISIC_0315631.JPG,false,1,keypress(m),500,384753,384753,380971,380970,380987,384773,8,400,15,,ISIC_0753491.JPG
break,html.Screen,4_64_1,2023-11-06T15:35:57.766Z,,0,,,NaN,,,,,,false,,,,384753,384753,,384753,,384773,8,400,,,
break_continue,html.Screen,4_64_2,2023-11-06T15:35:57.766Z,,0,,,NaN,,,,,,false,,,,384754,384754,,384753,,384773,8,400,,,
sequence,flow.Sequence,4_64,2023-11-06T15:35:57.767Z,,0,,,3767,completion,,,,,false,,,,384754,384754,380971,380970,380987,384773,8,400,,,
trial,html.Screen,4_65_0,2023-11-06T15:36:01.668Z,,0,2,,3900.000000000058,response,ISIC_8195604.JPG,5,ISIC_1470934.JPG,ISIC_1470934.JPG,false,0,keypress(z),500,388656,388655.00000000006,384755,384754,384773,388676,8,400,16,,ISIC_8195604.JPG
break,html.Screen,4_65_1,2023-11-06T15:36:01.669Z,,0,,,NaN,,,,,,false,,,,388656,388656,,388656,,388676,8,400,,,
break_continue,html.Screen,4_65_2,2023-11-06T15:36:01.669Z,,0,,,NaN,,,,,,false,,,,388656,388656,,388656,,388676,8,400,,,
sequence,flow.Sequence,4_65,2023-11-06T15:36:01.669Z,,0,,,3883,completion,,,,,false,,,,388657,388656,384755,384754,384773,388676,8,400,,,
trial,html.Screen,4_66_0,2023-11-06T15:36:04.538Z,,0,2,,2867.000000000058,response,ISIC_7545340.JPG,5,ISIC_6507640.JPG,ISIC_7545340.JPG,false,1,keypress(m),500,391525.00000000006,391525.00000000006,388658,388657,388676,391547,8,400,17,,ISIC_6507640.JPG
break,html.Screen,4_66_1,2023-11-06T15:36:04.539Z,,0,,,NaN,,,,,,false,,,,391526,391526,,391525.00000000006,,391547,8,400,,,
break_continue,html.Screen,4_66_2,2023-11-06T15:36:04.539Z,,0,,,NaN,,,,,,false,,,,391526,391526,,391526,,391547,8,400,,,
sequence,flow.Sequence,4_66,2023-11-06T15:36:04.539Z,,0,,,2850,completion,,,,,false,,,,391526,391526,388658,388657,388676,391547,8,400,,,
trial,html.Screen,4_67_0,2023-11-06T15:36:09.464Z,,0,2,,4924,response,ISIC_6661691.JPG,6,ISIC_0054292.JPG,ISIC_0054292.JPG,false,0,keypress(z),500,396452,396451,391527,391526,391547,396467,8,400,18,,ISIC_6661691.JPG
break,html.Screen,4_67_1,2023-11-06T15:36:09.465Z,,0,,,NaN,,,,,,false,,,,396452,396452,,396452,,396467,8,400,,,
break_continue,html.Screen,4_67_2,2023-11-06T15:36:09.465Z,,0,,,NaN,,,,,,false,,,,396452,396452,,396452,,396467,8,400,,,
sequence,flow.Sequence,4_67,2023-11-06T15:36:09.465Z,,0,,,4905,completion,,,,,false,,,,396452,396452,391527,391526,391547,396467,8,400,,,
trial,html.Screen,4_68_0,2023-11-06T15:36:13.341Z,,0,2,,3874.000000000058,response,ISIC_0054357.JPG,5,ISIC_6745554.JPG,ISIC_6745554.JPG,false,0,keypress(z),500,400328.00000000006,400328.00000000006,396454,396452,396467,400350,8,400,19,,ISIC_0054357.JPG
break,html.Screen,4_68_1,2023-11-06T15:36:13.342Z,,0,,,NaN,,,,,,false,,,,400329,400329,,400328.00000000006,,400350,8,400,,,
break_continue,html.Screen,4_68_2,2023-11-06T15:36:13.342Z,,0,,,NaN,,,,,,false,,,,400329,400329,,400329,,400350,8,400,,,
sequence,flow.Sequence,4_68,2023-11-06T15:36:13.342Z,,0,,,3862,completion,,,,,false,,,,400329,400329,396454,396452,396467,400350,8,400,,,
trial,html.Screen,4_69_0,2023-11-06T15:36:17.601Z,,0,2,,4258,response,ISIC_5994645.JPG,2,ISIC_0032782.JPG,ISIC_5994645.JPG,false,1,keypress(m),500,404588,404588,400330,400329,400350,404603,8,400,20,,ISIC_0032782.JPG
break,html.Screen,4_69_1,2023-11-06T15:36:17.602Z,,0,,,NaN,,,,,,false,,,,404589,404589,,404588,,404603,8,400,,,
break_continue,html.Screen,4_69_2,2023-11-06T15:36:17.602Z,,0,,,NaN,,,,,,false,,,,404589,404589,,404589,,404603,8,400,,,
sequence,flow.Sequence,4_69,2023-11-06T15:36:17.602Z,,0,,,4239,completion,,,,,false,,,,404589,404589,400330,400329,400350,404603,8,400,,,
trial,html.Screen,4_70_0,2023-11-06T15:36:20.416Z,,0,2,,2813,response,ISIC_9815788.JPG,8,ISIC_0014657.JPG,ISIC_9815788.JPG,false,1,keypress(m),500,407404,407403,404590,404589,404603,407423,8,400,21,,ISIC_0014657.JPG
break,html.Screen,4_70_1,2023-11-06T15:36:20.417Z,,0,,,NaN,,,,,,false,,,,407404,407404,,407404,,407423,8,400,,,
break_continue,html.Screen,4_70_2,2023-11-06T15:36:20.417Z,,0,,,NaN,,,,,,false,,,,407404,407404,,407404,,407423,8,400,,,
sequence,flow.Sequence,4_70,2023-11-06T15:36:20.417Z,,0,,,2801,completion,,,,,false,,,,407404,407404,404590,404589,404603,407423,8,400,,,
trial,html.Screen,4_71_0,2023-11-06T15:36:23.717Z,,0,2,,3299,response,ISIC_0010142.JPG,6,ISIC_6370977.JPG,ISIC_0010142.JPG,false,1,keypress(m),500,410704,410704,407405,407404,407423,410723,8,400,22,,ISIC_6370977.JPG
break,html.Screen,4_71_1,2023-11-06T15:36:23.718Z,,0,,,NaN,,,,,,false,,,,410705,410705,,410704,,410723,8,400,,,
break_continue,html.Screen,4_71_2,2023-11-06T15:36:23.718Z,,0,,,NaN,,,,,,false,,,,410705,410705,,410705,,410723,8,400,,,
sequence,flow.Sequence,4_71,2023-11-06T15:36:23.718Z,,0,,,3282,completion,,,,,false,,,,410705,410705,407405,407404,407423,410723,8,400,,,
trial,html.Screen,4_72_0,2023-11-06T15:36:27.409Z,,0,2,,3690,response,ISIC_0033498.JPG,0,ISIC_2070595.JPG,ISIC_0033498.JPG,false,1,keypress(m),500,414396,414396,410706,410705,410723,414416,8,400,23,,ISIC_2070595.JPG
break,html.Screen,4_72_1,2023-11-06T15:36:27.410Z,,0,,,NaN,,,,,,false,,,,414397,414397,,414397,,414416,8,400,,,
break_continue,html.Screen,4_72_2,2023-11-06T15:36:27.410Z,,0,,,NaN,,,,,,false,,,,414397,414397,,414397,,414416,8,400,,,
sequence,flow.Sequence,4_72,2023-11-06T15:36:27.410Z,,0,,,3674,completion,,,,,false,,,,414398,414397,410706,410705,410723,414416,8,400,,,
trial,html.Screen,4_73_0,2023-11-06T15:36:33.835Z,,0,2,,6423,response,ISIC_0011219.JPG,3,ISIC_0011437.JPG,ISIC_0011437.JPG,false,0,keypress(z),500,420823.00000000006,420822,414399,414398,414416,420829,8,400,24,,ISIC_0011219.JPG
break,html.Screen,4_73_1,2023-11-06T15:36:33.836Z,,0,,,NaN,,,,,,false,,,,420823.00000000006,420823.00000000006,,420823.00000000006,,420829,8,400,,,
break_continue,html.Screen,4_73_2,2023-11-06T15:36:33.836Z,,0,,,NaN,,,,,,false,,,,420823.00000000006,420823.00000000006,,420823.00000000006,,420829,8,400,,,
sequence,flow.Sequence,4_73,2023-11-06T15:36:33.836Z,,0,,,6407.000000000058,completion,,,,,false,,,,420823.00000000006,420823.00000000006,414399,414398,414416,420829,8,400,,,
trial,html.Screen,4_74_0,2023-11-06T15:36:38.890Z,,0,2,,5053,response,ISIC_2863397.JPG,4,ISIC_3067522.JPG,ISIC_3067522.JPG,false,0,keypress(z),500,425877,425877,420824,420823.00000000006,420829,425884,8,400,25,,ISIC_2863397.JPG
break,html.Screen,4_74_1,2023-11-06T15:36:38.891Z,,0,,,NaN,,,,,,false,,,,425878,425878,,425878,,425884,8,400,,,
break_continue,html.Screen,4_74_2,2023-11-06T15:36:38.891Z,,0,,,NaN,,,,,,false,,,,425878,425878,,425878,,425884,8,400,,,
sequence,flow.Sequence,4_74,2023-11-06T15:36:38.891Z,,0,,,5049,completion,,,,,false,,,,425878,425878,420824,420823.00000000006,420829,425884,8,400,,,
trial,html.Screen,4_75_0,2023-11-06T15:36:41.906Z,,0,2,,3014,response,ISIC_0026049.JPG,3,ISIC_0024258.JPG,ISIC_0024258.JPG,false,0,keypress(z),500,428893,428893,425879,425878,425884,428904,8,400,26,,ISIC_0026049.JPG
break,html.Screen,4_75_1,2023-11-06T15:36:41.906Z,,0,,,NaN,,,,,,false,,,,428894,428894,,428893,,428904,8,400,,,
break_continue,html.Screen,4_75_2,2023-11-06T15:36:41.907Z,,0,,,NaN,,,,,,false,,,,428894,428894,,428894,,428904,8,400,,,
sequence,flow.Sequence,4_75,2023-11-06T15:36:41.907Z,,0,,,3010,completion,,,,,false,,,,428894,428894,425879,425878,425884,428904,8,400,,,
trial,html.Screen,4_76_0,2023-11-06T15:36:44.645Z,,0,2,,2736,response,ISIC_3578186.JPG,3,ISIC_0523125.JPG,ISIC_0523125.JPG,false,0,keypress(z),500,431632,431632,428896,428894,428904,431648,8,400,27,,ISIC_3578186.JPG
break,html.Screen,4_76_1,2023-11-06T15:36:44.645Z,,0,,,NaN,,,,,,false,,,,431632,431632,,431632,,431648,8,400,,,
break_continue,html.Screen,4_76_2,2023-11-06T15:36:44.645Z,,0,,,NaN,,,,,,false,,,,431633,431632,,431632,,431648,8,400,,,
sequence,flow.Sequence,4_76,2023-11-06T15:36:44.645Z,,0,,,2728,completion,,,,,false,,,,431633,431632,428896,428894,428904,431648,8,400,,,
trial,html.Screen,4_77_0,2023-11-06T15:36:47.421Z,,0,2,,2775,response,ISIC_0519719.JPG,5,ISIC_0069398.JPG,ISIC_0069398.JPG,false,0,keypress(z),500,434409,434409,431634,431633,431648,434415,8,400,28,,ISIC_0519719.JPG
break,html.Screen,4_77_1,2023-11-06T15:36:47.422Z,,0,,,NaN,,,,,,false,,,,434409,434409,,434409,,434415,8,400,,,
break_continue,html.Screen,4_77_2,2023-11-06T15:36:47.422Z,,0,,,NaN,,,,,,false,,,,434409,434409,,434409,,434415,8,400,,,
sequence,flow.Sequence,4_77,2023-11-06T15:36:47.422Z,,0,,,2761,completion,,,,,false,,,,434409,434409,431634,431633,431648,434415,8,400,,,
trial,html.Screen,4_78_0,2023-11-06T15:36:50.593Z,,0,2,,3169,response,ISIC_9470876.JPG,4,ISIC_0000410.JPG,ISIC_0000410.JPG,false,0,keypress(z),500,437580,437580,434411,434409,434415,437591,8,400,29,,ISIC_9470876.JPG
break,html.Screen,4_78_1,2023-11-06T15:36:50.593Z,,0,,,NaN,,,,,,false,,,,437581,437581,,437580,,437591,8,400,,,
break_continue,html.Screen,4_78_2,2023-11-06T15:36:50.594Z,,0,,,NaN,,,,,,false,,,,437581,437581,,437581,,437591,8,400,,,
sequence,flow.Sequence,4_78,2023-11-06T15:36:50.594Z,,0,,,3166,completion,,,,,false,,,,437581,437581,434411,434409,434415,437591,8,400,,,
trial,html.Screen,4_79_0,2023-11-06T15:36:54.328Z,,0,2,,3733,response,ISIC_7785723.JPG,0,ISIC_9045601.JPG,ISIC_9045601.JPG,false,0,keypress(z),500,441315,441315,437582,437581,437591,441334,8,400,30,,ISIC_7785723.JPG
break,html.Screen,4_79_1,2023-11-06T15:36:54.328Z,,0,,,NaN,,,,,,false,,,,441316.00000000006,441316.00000000006,,441315,,441334,8,400,,,
break_continue,html.Screen,4_79_2,2023-11-06T15:36:54.329Z,,0,,,NaN,,,,,,false,,,,441316.00000000006,441316.00000000006,,441316.00000000006,,441334,8,400,,,
sequence,flow.Sequence,4_79,2023-11-06T15:36:54.329Z,,0,,,3725.000000000058,completion,,,,,false,,,,441316.00000000006,441316.00000000006,437582,437581,437591,441334,8,400,,,
trial,html.Screen,4_80_0,2023-11-06T15:36:57.098Z,,0,2,,2768.000000000058,response,ISIC_0519719.JPG,4,ISIC_0058863.JPG,ISIC_0058863.JPG,false,0,keypress(z),500,444085.00000000006,444085.00000000006,441317,441316.00000000006,441334,444106,8,400,31,,ISIC_0519719.JPG
break,html.Screen,4_80_1,2023-11-06T15:36:57.098Z,,0,,,NaN,,,,,,false,,,,444085.00000000006,444085.00000000006,,444085.00000000006,,444106,8,400,,,
break_continue,html.Screen,4_80_2,2023-11-06T15:36:57.098Z,,0,,,NaN,,,,,,false,,,,444086,444085.00000000006,,444085.00000000006,,444106,8,400,,,
sequence,flow.Sequence,4_80,2023-11-06T15:36:57.098Z,,0,,,2751.000000000058,completion,,,,,false,,,,444086,444085.00000000006,441317,441316.00000000006,441334,444106,8,400,,,
trial,html.Screen,4_81_0,2023-11-06T15:37:00.101Z,,0,2,,3002,response,ISIC_4418545.JPG,7,ISIC_3760796.JPG,ISIC_4418545.JPG,false,1,keypress(m),500,447089,447089,444087,444086,444106,447109,8,400,32,,ISIC_3760796.JPG
break,html.Screen,4_81_1,2023-11-06T15:37:00.102Z,,0,,,NaN,,,,,,false,,,,447089,447089,,447089,,447109,8,400,,,
break_continue,html.Screen,4_81_2,2023-11-06T15:37:00.102Z,,0,,,NaN,,,,,,false,,,,447090.00000000006,447090.00000000006,,447090.00000000006,,447109,8,400,,,
sequence,flow.Sequence,4_81,2023-11-06T15:37:00.102Z,,0,,,2984.000000000058,completion,,,,,false,,,,447090.00000000006,447090.00000000006,444087,444086,444106,447109,8,400,,,
trial,html.Screen,4_82_0,2023-11-06T15:37:03.177Z,,0,2,,3074,response,ISIC_3688407.JPG,6,ISIC_8918703.JPG,ISIC_3688407.JPG,false,1,keypress(m),500,450165,450165,447091,447090.00000000006,447109,450180,8,400,33,,ISIC_8918703.JPG
break,html.Screen,4_82_1,2023-11-06T15:37:03.178Z,,0,,,NaN,,,,,,false,,,,450165,450165,,450165,,450180,8,400,,,
break_continue,html.Screen,4_82_2,2023-11-06T15:37:03.178Z,,0,,,NaN,,,,,,false,,,,450165,450165,,450165,,450180,8,400,,,
sequence,flow.Sequence,4_82,2023-11-06T15:37:03.178Z,,0,,,3056,completion,,,,,false,,,,450165,450165,447091,447090.00000000006,447109,450180,8,400,,,
trial,html.Screen,4_83_0,2023-11-06T15:37:07.184Z,,0,2,,4005,response,ISIC_7787118.JPG,3,ISIC_1216139.JPG,ISIC_7787118.JPG,false,1,keypress(m),500,454172,454172,450167,450166,450180,454185,8,400,34,,ISIC_1216139.JPG
break,html.Screen,4_83_1,2023-11-06T15:37:07.185Z,,0,,,NaN,,,,,,false,,,,454173,454172,,454172,,454185,8,400,,,
break_continue,html.Screen,4_83_2,2023-11-06T15:37:07.185Z,,0,,,NaN,,,,,,false,,,,454173,454173,,454173,,454185,8,400,,,
sequence,flow.Sequence,4_83,2023-11-06T15:37:07.185Z,,0,,,3993,completion,,,,,false,,,,454173,454173,450167,450165,450180,454185,8,400,,,
trial,html.Screen,4_84_0,2023-11-06T15:37:13.364Z,,0,2,,6178.000000000058,response,ISIC_0059808.JPG,4,ISIC_6916924.JPG,ISIC_0059808.JPG,false,1,keypress(m),500,460352.00000000006,460352.00000000006,454174,454173,454185,460358,8,400,35,,ISIC_6916924.JPG
break,html.Screen,4_84_1,2023-11-06T15:37:13.365Z,,0,,,NaN,,,,,,false,,,,460352.00000000006,460352.00000000006,,460352.00000000006,,460358,8,400,,,
break_continue,html.Screen,4_84_2,2023-11-06T15:37:13.365Z,,0,,,NaN,,,,,,false,,,,460352.00000000006,460352.00000000006,,460352.00000000006,,460358,8,400,,,
sequence,flow.Sequence,4_84,2023-11-06T15:37:13.365Z,,0,,,6167.000000000058,completion,,,,,false,,,,460352.00000000006,460352.00000000006,454174,454173,454185,460358,8,400,,,
trial,html.Screen,4_85_0,2023-11-06T15:37:16.241Z,,0,2,,2874,response,ISIC_9625295.JPG,5,ISIC_0059412.JPG,ISIC_0059412.JPG,false,0,keypress(z),500,463229,463228,460354,460352.00000000006,460358,463250,8,400,36,,ISIC_9625295.JPG
break,html.Screen,4_85_1,2023-11-06T15:37:16.242Z,,0,,,NaN,,,,,,false,,,,463229,463229,,463229,,463250,8,400,,,
break_continue,html.Screen,4_85_2,2023-11-06T15:37:16.242Z,,0,,,NaN,,,,,,false,,,,463229,463229,,463229,,463250,8,400,,,
sequence,flow.Sequence,4_85,2023-11-06T15:37:16.242Z,,0,,,2871,completion,,,,,false,,,,463229,463229,460354,460352.00000000006,460358,463250,8,400,,,
trial,html.Screen,4_86_0,2023-11-06T15:37:19.318Z,,0,2,,3075,response,ISIC_0030342.JPG,0,ISIC_0014557.JPG,ISIC_0014557.JPG,false,0,keypress(z),500,466306,466306,463231,463229,463250,466314,8,400,37,,ISIC_0030342.JPG
break,html.Screen,4_86_1,2023-11-06T15:37:19.319Z,,0,,,NaN,,,,,,false,,,,466306,466306,,466306,,466314,8,400,,,
break_continue,html.Screen,4_86_2,2023-11-06T15:37:19.319Z,,0,,,NaN,,,,,,false,,,,466306,466306,,466306,,466314,8,400,,,
sequence,flow.Sequence,4_86,2023-11-06T15:37:19.319Z,,0,,,3056,completion,,,,,false,,,,466306,466306,463231,463229,463250,466314,8,400,,,
trial,html.Screen,4_87_0,2023-11-06T15:37:23.001Z,,0,2,,3681.000000000058,response,ISIC_2844539.JPG,3,ISIC_8024841.JPG,ISIC_2844539.JPG,false,1,keypress(m),500,469989.00000000006,469989.00000000006,466308,466306,466314,470000,8,400,38,,ISIC_8024841.JPG
break,html.Screen,4_87_1,2023-11-06T15:37:23.001Z,,0,,,NaN,,,,,,false,,,,469989.00000000006,469989.00000000006,,469989.00000000006,,470000,8,400,,,
break_continue,html.Screen,4_87_2,2023-11-06T15:37:23.002Z,,0,,,NaN,,,,,,false,,,,469989.00000000006,469989.00000000006,,469989.00000000006,,470000,8,400,,,
sequence,flow.Sequence,4_87,2023-11-06T15:37:23.002Z,,0,,,3675.000000000058,completion,,,,,false,,,,469989.00000000006,469989.00000000006,466308,466306,466314,470000,8,400,,,
trial,html.Screen,4_88_0,2023-11-06T15:37:25.780Z,,0,2,,2777,response,ISIC_6425888.JPG,8,ISIC_0465476.JPG,ISIC_0465476.JPG,false,0,keypress(z),500,472767,472767,469990,469989.00000000006,470000,472786,8,400,39,,ISIC_6425888.JPG
break,html.Screen,4_88_1,2023-11-06T15:37:25.780Z,,0,,,NaN,,,,,,false,,,,472768,472768,,472768,,472786,8,400,,,
break_continue,html.Screen,4_88_2,2023-11-06T15:37:25.780Z,,0,,,NaN,,,,,,false,,,,472768,472768,,472768,,472786,8,400,,,
sequence,flow.Sequence,4_88,2023-11-06T15:37:25.781Z,,0,,,2768,completion,,,,,false,,,,472768,472768,469990,469989.00000000006,470000,472786,8,400,,,
trial,html.Screen,4_89_0,2023-11-06T15:37:29.338Z,,0,2,,3556,response,ISIC_0030156.JPG,7,ISIC_6854940.JPG,ISIC_6854940.JPG,false,0,keypress(z),500,476325,476325,472769,472768,472786,476340,8,400,40,,ISIC_0030156.JPG
break,html.Screen,4_89_1,2023-11-06T15:37:29.338Z,,0,,,NaN,,,,,,false,,,,476326,476326,,476325,,476340,8,400,,,
break_continue,html.Screen,4_89_2,2023-11-06T15:37:29.339Z,,0,,,NaN,,,,,,false,,,,476326,476326,,476326,,476340,8,400,,,
sequence,flow.Sequence,4_89,2023-11-06T15:37:29.339Z,,0,,,3540,completion,,,,,false,,,,476326,476326,472769,472768,472786,476340,8,400,,,
trial,html.Screen,4_90_0,2023-11-06T15:37:32.635Z,,0,2,,3295,response,ISIC_0010023.JPG,4,ISIC_0010648.JPG,ISIC_0010648.JPG,false,0,keypress(z),500,479623,479623,476328,476326,476340,479646,8,400,41,,ISIC_0010023.JPG
break,html.Screen,4_90_1,2023-11-06T15:37:32.636Z,,0,,,NaN,,,,,,false,,,,479623,479623,,479623,,479646,8,400,,,
break_continue,html.Screen,4_90_2,2023-11-06T15:37:32.636Z,,0,,,NaN,,,,,,false,,,,479623,479623,,479623,,479646,8,400,,,
sequence,flow.Sequence,4_90,2023-11-06T15:37:32.636Z,,0,,,3283,completion,,,,,false,,,,479623,479623,476328,476326,476340,479646,8,400,,,
trial,html.Screen,4_91_0,2023-11-06T15:37:37.550Z,,0,2,,4908.000000000058,response,ISIC_8133350.JPG,11,ISIC_0001110.JPG,ISIC_8133350.JPG,false,1,keypress(m),500,484538,484537.00000000006,479629,479627,479646,484549,8,400,42,,ISIC_0001110.JPG
break,html.Screen,4_91_1,2023-11-06T15:37:37.551Z,,0,,,NaN,,,,,,false,,,,484538,484538,,484538,,484549,8,400,,,
break_continue,html.Screen,4_91_2,2023-11-06T15:37:37.551Z,,0,,,NaN,,,,,,false,,,,484539,484538,,484538,,484549,8,400,,,
sequence,flow.Sequence,4_91,2023-11-06T15:37:37.551Z,,0,,,4892,completion,,,,,false,,,,484539,484538,479629,479626.00000000006,479646,484549,8,400,,,
trial,html.Screen,4_92_0,2023-11-06T15:37:42.033Z,,0,2,,4480,response,ISIC_6464772.JPG,4,ISIC_0033472.JPG,ISIC_6464772.JPG,false,1,keypress(m),500,489021,489020,484540,484539,484549,489039,8,400,43,,ISIC_0033472.JPG
break,html.Screen,4_92_1,2023-11-06T15:37:42.033Z,,0,,,NaN,,,,,,false,,,,489021,489021,,489021,,489039,8,400,,,
break_continue,html.Screen,4_92_2,2023-11-06T15:37:42.033Z,,0,,,NaN,,,,,,false,,,,489021,489021,,489021,,489039,8,400,,,
sequence,flow.Sequence,4_92,2023-11-06T15:37:42.034Z,,0,,,4472,completion,,,,,false,,,,489021,489021,484540,484539,484549,489039,8,400,,,
trial,html.Screen,4_93_0,2023-11-06T15:37:45.963Z,,0,2,,3929,response,ISIC_0009735.JPG,17,ISIC_0057669.JPG,ISIC_0057669.JPG,false,0,keypress(z),500,492951,492951,489022,489021,489039,492972,8,400,44,,ISIC_0009735.JPG
break,html.Screen,4_93_1,2023-11-06T15:37:45.963Z,,0,,,NaN,,,,,,false,,,,492951,492951,,492951,,492972,8,400,,,
break_continue,html.Screen,4_93_2,2023-11-06T15:37:45.964Z,,0,,,NaN,,,,,,false,,,,492951,492951,,492951,,492972,8,400,,,
sequence,flow.Sequence,4_93,2023-11-06T15:37:45.964Z,,0,,,3912,completion,,,,,false,,,,492951,492951,489022,489021,489039,492972,8,400,,,
trial,html.Screen,4_94_0,2023-11-06T15:37:48.803Z,,0,2,,2838,response,ISIC_0011959.JPG,7,ISIC_0966527.JPG,ISIC_0966527.JPG,false,0,keypress(z),500,495791,495790,492952,492951,492972,495809,8,400,45,,ISIC_0011959.JPG
break,html.Screen,4_94_1,2023-11-06T15:37:48.803Z,,0,,,NaN,,,,,,false,,,,495791,495791,,495791,,495809,8,400,,,
break_continue,html.Screen,4_94_2,2023-11-06T15:37:48.803Z,,0,,,NaN,,,,,,false,,,,495791,495791,,495791,,495809,8,400,,,
sequence,flow.Sequence,4_94,2023-11-06T15:37:48.804Z,,0,,,2819,completion,,,,,false,,,,495791,495791,492952,492951,492972,495809,8,400,,,
trial,html.Screen,4_95_0,2023-11-06T15:37:53.429Z,,0,2,,4625.000000000058,response,ISIC_0072271.JPG,5,ISIC_9100283.JPG,ISIC_9100283.JPG,false,0,keypress(z),500,500417.00000000006,500417.00000000006,495792,495791,495809,500431,8,400,46,,ISIC_0072271.JPG
break,html.Screen,4_95_1,2023-11-06T15:37:53.430Z,,0,,,NaN,,,,,,false,,,,500418,500417.00000000006,,500417.00000000006,,500431,8,400,,,
break_continue,html.Screen,4_95_2,2023-11-06T15:37:53.430Z,,0,,,NaN,,,,,,false,,,,500418,500418,,500418,,500431,8,400,,,
sequence,flow.Sequence,4_95,2023-11-06T15:37:53.430Z,,0,,,4609,completion,,,,,false,,,,500418,500418,495792,495791,495809,500431,8,400,,,
trial,html.Screen,4_96_0,2023-11-06T15:37:57.119Z,,0,2,,3687,response,ISIC_0032526.JPG,6,ISIC_5422432.JPG,ISIC_5422432.JPG,false,0,keypress(z),500,504106,504106,500419,500418,500431,504118,8,400,47,,ISIC_0032526.JPG
break,html.Screen,4_96_1,2023-11-06T15:37:57.119Z,,0,,,NaN,,,,,,false,,,,504107,504107,,504107,,504118,8,400,,,
break_continue,html.Screen,4_96_2,2023-11-06T15:37:57.120Z,,0,,,NaN,,,,,,false,,,,504107,504107,,504107,,504118,8,400,,,
sequence,flow.Sequence,4_96,2023-11-06T15:37:57.120Z,,0,,,3676,completion,,,,,false,,,,504107,504107,500419,500418,500431,504118,8,400,,,
trial,html.Screen,4_97_0,2023-11-06T15:38:00.624Z,,0,2,,3503,response,ISIC_0071257.JPG,7,ISIC_5578611.JPG,ISIC_0071257.JPG,false,1,keypress(m),500,507611,507611,504108,504107,504118,507621,8,400,48,,ISIC_5578611.JPG
break,html.Screen,4_97_1,2023-11-06T15:38:00.624Z,,0,,,NaN,,,,,,false,,,,507612,507612,,507612,,507621,8,400,,,
break_continue,html.Screen,4_97_2,2023-11-06T15:38:00.624Z,,0,,,NaN,,,,,,false,,,,507612,507612,,507612,,507621,8,400,,,
sequence,flow.Sequence,4_97,2023-11-06T15:38:00.624Z,,0,,,3494,completion,,,,,false,,,,507612,507612,504108,504107,504118,507621,8,400,,,
trial,html.Screen,4_98_0,2023-11-06T15:38:04.835Z,,0,2,,4208,response,ISIC_0887792.JPG,5,ISIC_0057462.JPG,ISIC_0057462.JPG,false,0,keypress(z),500,511822,511822,507614,507612,507621,511841,8,400,49,,ISIC_0887792.JPG
break,html.Screen,4_98_1,2023-11-06T15:38:04.835Z,,0,,,NaN,,,,,,false,,,,511823.00000000006,511823.00000000006,,511823.00000000006,,511841,8,400,,,
break_continue,html.Screen,4_98_2,2023-11-06T15:38:04.835Z,,0,,,NaN,,,,,,false,,,,511823.00000000006,511823.00000000006,,511823.00000000006,,511841,8,400,,,
sequence,flow.Sequence,4_98,2023-11-06T15:38:04.835Z,,0,,,4202.000000000058,completion,,,,,false,,,,511823.00000000006,511823.00000000006,507614,507612,507621,511841,8,400,,,
trial,html.Screen,4_99_0,2023-11-06T15:38:07.934Z,,0,2,,3098,response,ISIC_0032806.JPG,14,ISIC_4161113.JPG,ISIC_4161113.JPG,false,0,keypress(z),500,514922,514922,511824,511823.00000000006,511841,514945,8,400,50,,ISIC_0032806.JPG
break,html.Screen,4_99_1,2023-11-06T15:38:17.949Z,,0,,,10008,timeout,,,,,false,,,,524937,524937,514924,514922,514945,524953,8,400,,,
break_continue,html.Screen,4_99_2,2023-11-06T15:38:26.057Z,,0,,,8111,response,,,,,false,continue,keypress(Space),,533045,533048,524937,524937,524953,533055,8,400,,,
sequence,flow.Sequence,4_99,2023-11-06T15:38:26.057Z,,0,,,21207,completion,,,,,false,,,,533045,533048,511824,511823.00000000006,511841,533055,8,400,,,
trial,html.Screen,4_100_0,2023-11-06T15:38:29.972Z,,0,3,,3914,response,ISIC_6392478.JPG,9,ISIC_0071050.JPG,ISIC_0071050.JPG,false,0,keypress(z),500,536960,536960,533046,533045,533055,536980,8,400,1,,ISIC_6392478.JPG
break,html.Screen,4_100_1,2023-11-06T15:38:29.973Z,,0,,,NaN,,,,,,false,,,,536961,536961,,536960,,536980,8,400,,,
break_continue,html.Screen,4_100_2,2023-11-06T15:38:29.973Z,,0,,,NaN,,,,,,false,,,,536961,536961,,536961,,536980,8,400,,,
sequence,flow.Sequence,4_100,2023-11-06T15:38:29.973Z,,0,,,3906,completion,,,,,false,,,,536961,536961,533046,533045,533055,536980,8,400,,,
trial,html.Screen,4_101_0,2023-11-06T15:38:33.396Z,,0,3,,3422,response,ISIC_4307205.JPG,3,ISIC_0008881.JPG,ISIC_4307205.JPG,false,1,keypress(m),500,540384,540384,536962,536961,536980,540406,8,400,2,,ISIC_0008881.JPG
break,html.Screen,4_101_1,2023-11-06T15:38:33.397Z,,0,,,NaN,,,,,,false,,,,540384,540384,,540384,,540406,8,400,,,
break_continue,html.Screen,4_101_2,2023-11-06T15:38:33.397Z,,0,,,NaN,,,,,,false,,,,540385,540385,,540385,,540406,8,400,,,
sequence,flow.Sequence,4_101,2023-11-06T15:38:33.397Z,,0,,,3405,completion,,,,,false,,,,540385,540385,536962,536961,536980,540406,8,400,,,
trial,html.Screen,4_102_0,2023-11-06T15:38:36.771Z,,0,3,,3373,response,ISIC_0024624.JPG,9,ISIC_3884221.JPG,ISIC_3884221.JPG,false,0,keypress(z),500,543759,543759,540386,540385,540406,543778,8,400,3,,ISIC_0024624.JPG
break,html.Screen,4_102_1,2023-11-06T15:38:36.772Z,,0,,,NaN,,,,,,false,,,,543759,543759,,543759,,543778,8,400,,,
break_continue,html.Screen,4_102_2,2023-11-06T15:38:36.772Z,,0,,,NaN,,,,,,false,,,,543760,543760,,543760,,543778,8,400,,,
sequence,flow.Sequence,4_102,2023-11-06T15:38:36.772Z,,0,,,3354,completion,,,,,false,,,,543760,543760,540386,540385,540406,543778,8,400,,,
trial,html.Screen,4_103_0,2023-11-06T15:38:39.630Z,,0,3,,2857,response,ISIC_0054391.JPG,7,ISIC_0010860.JPG,ISIC_0010860.JPG,false,0,keypress(z),500,546618,546618,543761,543760,543778,546632,8,400,4,,ISIC_0054391.JPG
break,html.Screen,4_103_1,2023-11-06T15:38:39.631Z,,0,,,NaN,,,,,,false,,,,546619,546619,,546618,,546632,8,400,,,
break_continue,html.Screen,4_103_2,2023-11-06T15:38:39.631Z,,0,,,NaN,,,,,,false,,,,546619,546619,,546619,,546632,8,400,,,
sequence,flow.Sequence,4_103,2023-11-06T15:38:39.631Z,,0,,,2841,completion,,,,,false,,,,546619,546619,543761,543760,543778,546632,8,400,,,
trial,html.Screen,4_104_0,2023-11-06T15:38:44.501Z,,0,3,,4867,response,ISIC_4708642.JPG,2,ISIC_0060979.JPG,ISIC_0060979.JPG,false,0,keypress(z),500,551489,551488,546621,546619,546632,551500,8,400,5,,ISIC_4708642.JPG
break,html.Screen,4_104_1,2023-11-06T15:38:44.501Z,,0,,,NaN,,,,,,false,,,,551489,551489,,551489,,551500,8,400,,,
break_continue,html.Screen,4_104_2,2023-11-06T15:38:44.501Z,,0,,,NaN,,,,,,false,,,,551489,551489,,551489,,551500,8,400,,,
sequence,flow.Sequence,4_104,2023-11-06T15:38:44.501Z,,0,,,4857,completion,,,,,false,,,,551489,551489,546621,546619,546632,551500,8,400,,,
trial,html.Screen,4_105_0,2023-11-06T15:38:47.435Z,,0,3,,2933,response,ISIC_0360988.JPG,2,ISIC_4448959.JPG,ISIC_0360988.JPG,false,1,keypress(m),500,554423,554423,551490,551489,551500,554438,8,400,6,,ISIC_4448959.JPG
break,html.Screen,4_105_1,2023-11-06T15:38:47.435Z,,0,,,NaN,,,,,,false,,,,554423,554423,,554423,,554438,8,400,,,
break_continue,html.Screen,4_105_2,2023-11-06T15:38:47.436Z,,0,,,NaN,,,,,,false,,,,554424,554423,,554423,,554438,8,400,,,
sequence,flow.Sequence,4_105,2023-11-06T15:38:47.436Z,,0,,,2923,completion,,,,,false,,,,554424,554423,551490,551489,551500,554438,8,400,,,
trial,html.Screen,4_106_0,2023-11-06T15:38:50.263Z,,0,3,,2826,response,ISIC_4728200.JPG,9,ISIC_0015189.JPG,ISIC_0015189.JPG,false,0,keypress(z),500,557251,557251,554425,554424,554438,557270,8,400,7,,ISIC_4728200.JPG
break,html.Screen,4_106_1,2023-11-06T15:38:50.263Z,,0,,,NaN,,,,,,false,,,,557251,557251,,557251,,557270,8,400,,,
break_continue,html.Screen,4_106_2,2023-11-06T15:38:50.264Z,,0,,,NaN,,,,,,false,,,,557252.0000000001,557252.0000000001,,557251,,557270,8,400,,,
sequence,flow.Sequence,4_106,2023-11-06T15:38:50.264Z,,0,,,2814.0000000001164,completion,,,,,false,,,,557252.0000000001,557252.0000000001,554425,554424,554438,557270,8,400,,,
trial,html.Screen,4_107_0,2023-11-06T15:38:53.443Z,,0,3,,3178,response,ISIC_0029198.JPG,10,ISIC_2948811.JPG,ISIC_0029198.JPG,false,1,keypress(m),500,560431,560431,557253,557252.0000000001,557270,560441,8,400,8,,ISIC_2948811.JPG
break,html.Screen,4_107_1,2023-11-06T15:38:53.443Z,,0,,,NaN,,,,,,false,,,,560431,560431,,560431,,560441,8,400,,,
break_continue,html.Screen,4_107_2,2023-11-06T15:38:53.444Z,,0,,,NaN,,,,,,false,,,,560432,560432,,560431,,560441,8,400,,,
sequence,flow.Sequence,4_107,2023-11-06T15:38:53.444Z,,0,,,3162,completion,,,,,false,,,,560432,560432,557253,557252.0000000001,557270,560441,8,400,,,
trial,html.Screen,4_108_0,2023-11-06T15:38:56.196Z,,0,3,,2751,response,ISIC_0058823.JPG,6,ISIC_0001105.JPG,ISIC_0058823.JPG,false,1,keypress(m),500,563184,563184,560433,560432,560441,563194,8,400,9,,ISIC_0001105.JPG
break,html.Screen,4_108_1,2023-11-06T15:38:56.196Z,,0,,,NaN,,,,,,false,,,,563184,563184,,563184,,563194,8,400,,,
break_continue,html.Screen,4_108_2,2023-11-06T15:38:56.197Z,,0,,,NaN,,,,,,false,,,,563185.0000000001,563184,,563184,,563194,8,400,,,
sequence,flow.Sequence,4_108,2023-11-06T15:38:56.197Z,,0,,,2743,completion,,,,,false,,,,563185.0000000001,563184,560433,560432,560441,563194,8,400,,,
trial,html.Screen,4_109_0,2023-11-06T15:38:58.894Z,,0,3,,2696.0000000001164,response,ISIC_0057406.JPG,5,ISIC_0272509.JPG,ISIC_0057406.JPG,false,1,keypress(m),500,565882.0000000001,565882.0000000001,563186,563185.0000000001,563194,565893,8,400,10,,ISIC_0272509.JPG
break,html.Screen,4_109_1,2023-11-06T15:38:58.895Z,,0,,,NaN,,,,,,false,,,,565883,565883,,565882.0000000001,,565893,8,400,,,
break_continue,html.Screen,4_109_2,2023-11-06T15:38:58.895Z,,0,,,NaN,,,,,,false,,,,565883,565883,,565883,,565893,8,400,,,
sequence,flow.Sequence,4_109,2023-11-06T15:38:58.895Z,,0,,,2689,completion,,,,,false,,,,565883,565883,563186,563185.0000000001,563194,565893,8,400,,,
trial,html.Screen,4_110_0,2023-11-06T15:39:01.446Z,,0,3,,2550,response,ISIC_7763042.JPG,4,ISIC_0064986.JPG,ISIC_0064986.JPG,false,0,keypress(z),500,568434,568434,565884,565883,565893,568446,8,400,11,,ISIC_7763042.JPG
break,html.Screen,4_110_1,2023-11-06T15:39:01.447Z,,0,,,NaN,,,,,,false,,,,568435.0000000001,568435.0000000001,,568434,,568446,8,400,,,
break_continue,html.Screen,4_110_2,2023-11-06T15:39:01.447Z,,0,,,NaN,,,,,,false,,,,568435.0000000001,568435.0000000001,,568435.0000000001,,568446,8,400,,,
sequence,flow.Sequence,4_110,2023-11-06T15:39:01.447Z,,0,,,2542.0000000001164,completion,,,,,false,,,,568435.0000000001,568435.0000000001,565884,565883,565893,568446,8,400,,,
trial,html.Screen,4_111_0,2023-11-06T15:39:04.296Z,,0,3,,2848,response,ISIC_0011855.JPG,9,ISIC_0034087.JPG,ISIC_0011855.JPG,false,1,keypress(m),500,571284,571284,568436,568435.0000000001,568446,571294,8,400,12,,ISIC_0034087.JPG
break,html.Screen,4_111_1,2023-11-06T15:39:04.296Z,,0,,,NaN,,,,,,false,,,,571284,571284,,571284,,571294,8,400,,,
break_continue,html.Screen,4_111_2,2023-11-06T15:39:04.296Z,,0,,,NaN,,,,,,false,,,,571284,571284,,571284,,571294,8,400,,,
sequence,flow.Sequence,4_111,2023-11-06T15:39:04.296Z,,0,,,2838,completion,,,,,false,,,,571284,571284,568436,568435.0000000001,568446,571294,8,400,,,
trial,html.Screen,4_112_0,2023-11-06T15:39:11.155Z,,0,3,,6858,response,ISIC_0063981.JPG,6,ISIC_0011917.JPG,ISIC_0011917.JPG,false,0,keypress(z),500,578143,578143,571285,571284,571294,578164,8,400,13,,ISIC_0063981.JPG
break,html.Screen,4_112_1,2023-11-06T15:39:11.156Z,,0,,,NaN,,,,,,false,,,,578144,578144,,578143,,578164,8,400,,,
break_continue,html.Screen,4_112_2,2023-11-06T15:39:11.156Z,,0,,,NaN,,,,,,false,,,,578144,578144,,578144,,578164,8,400,,,
sequence,flow.Sequence,4_112,2023-11-06T15:39:11.156Z,,0,,,6850,completion,,,,,false,,,,578144,578144,571285,571284,571294,578164,8,400,,,
trial,html.Screen,4_113_0,2023-11-06T15:39:14.531Z,,0,3,,3374,response,ISIC_0924902.JPG,7,ISIC_3664380.JPG,ISIC_0924902.JPG,false,1,keypress(m),500,581519,581519,578145,578144,578164,581535,8,400,14,,ISIC_3664380.JPG
break,html.Screen,4_113_1,2023-11-06T15:39:14.532Z,,0,,,NaN,,,,,,false,,,,581520,581520,,581519,,581535,8,400,,,
break_continue,html.Screen,4_113_2,2023-11-06T15:39:14.532Z,,0,,,NaN,,,,,,false,,,,581520,581520,,581520,,581535,8,400,,,
sequence,flow.Sequence,4_113,2023-11-06T15:39:14.532Z,,0,,,3356,completion,,,,,false,,,,581520,581520,578145,578144,578164,581535,8,400,,,
trial,html.Screen,4_114_0,2023-11-06T15:39:17.829Z,,0,3,,3295,response,ISIC_4582670.JPG,4,ISIC_1432058.JPG,ISIC_1432058.JPG,false,0,keypress(z),500,584817,584817,581522,581521,581535,584838,8,400,15,,ISIC_4582670.JPG
break,html.Screen,4_114_1,2023-11-06T15:39:17.830Z,,0,,,NaN,,,,,,false,,,,584818,584818,,584817,,584838,8,400,,,
break_continue,html.Screen,4_114_2,2023-11-06T15:39:17.830Z,,0,,,NaN,,,,,,false,,,,584818,584818,,584818,,584838,8,400,,,
sequence,flow.Sequence,4_114,2023-11-06T15:39:17.830Z,,0,,,3283,completion,,,,,false,,,,584818,584818,581522,581521,581535,584838,8,400,,,
trial,html.Screen,4_115_0,2023-11-06T15:39:20.732Z,,0,3,,2901,response,ISIC_0000150.JPG,6,ISIC_8814612.JPG,ISIC_0000150.JPG,false,1,keypress(m),500,587721,587720,584819,584818,584838,587731,8,400,16,,ISIC_8814612.JPG
break,html.Screen,4_115_1,2023-11-06T15:39:20.733Z,,0,,,NaN,,,,,,false,,,,587721,587721,,587721,,587731,8,400,,,
break_continue,html.Screen,4_115_2,2023-11-06T15:39:20.733Z,,0,,,NaN,,,,,,false,,,,587721,587721,,587721,,587731,8,400,,,
sequence,flow.Sequence,4_115,2023-11-06T15:39:20.733Z,,0,,,2883,completion,,,,,false,,,,587721,587721,584819,584818,584838,587731,8,400,,,
trial,html.Screen,4_116_0,2023-11-06T15:39:26.397Z,,0,3,,5663,response,ISIC_0071335.JPG,4,ISIC_0061336.JPG,ISIC_0061336.JPG,false,0,keypress(z),500,593385,593385,587722,587721,587731,593405,8,400,17,,ISIC_0071335.JPG
break,html.Screen,4_116_1,2023-11-06T15:39:26.398Z,,0,,,NaN,,,,,,false,,,,593386,593386,,593385,,593405,8,400,,,
break_continue,html.Screen,4_116_2,2023-11-06T15:39:26.398Z,,0,,,NaN,,,,,,false,,,,593386,593386,,593386,,593405,8,400,,,
sequence,flow.Sequence,4_116,2023-11-06T15:39:26.398Z,,0,,,5655,completion,,,,,false,,,,593386,593386,587722,587721,587731,593405,8,400,,,
trial,html.Screen,4_117_0,2023-11-06T15:39:31.652Z,,0,3,,5252,response,ISIC_6159783.JPG,5,ISIC_4765919.JPG,ISIC_4765919.JPG,false,0,keypress(z),500,598640,598640,593388,593386,593405,598658,8,400,18,,ISIC_6159783.JPG
break,html.Screen,4_117_1,2023-11-06T15:39:31.652Z,,0,,,NaN,,,,,,false,,,,598640,598640,,598640,,598658,8,400,,,
break_continue,html.Screen,4_117_2,2023-11-06T15:39:31.652Z,,0,,,NaN,,,,,,false,,,,598641,598641,,598641,,598658,8,400,,,
sequence,flow.Sequence,4_117,2023-11-06T15:39:31.653Z,,0,,,5236,completion,,,,,false,,,,598641,598641,593388,593386,593405,598658,8,400,,,
trial,html.Screen,4_118_0,2023-11-06T15:39:34.763Z,,0,3,,3109,response,ISIC_0067891.JPG,7,ISIC_2266011.JPG,ISIC_2266011.JPG,false,0,keypress(z),500,601751,601751,598642,598641,598658,601762,8,400,19,,ISIC_0067891.JPG
break,html.Screen,4_118_1,2023-11-06T15:39:34.763Z,,0,,,NaN,,,,,,false,,,,601751,601751,,601751,,601762,8,400,,,
break_continue,html.Screen,4_118_2,2023-11-06T15:39:34.763Z,,0,,,NaN,,,,,,false,,,,601752.0000000001,601752.0000000001,,601751,,601762,8,400,,,
sequence,flow.Sequence,4_118,2023-11-06T15:39:34.763Z,,0,,,3094.0000000001164,completion,,,,,false,,,,601752.0000000001,601752.0000000001,598642,598641,598658,601762,8,400,,,
trial,html.Screen,4_119_0,2023-11-06T15:39:38.337Z,,0,3,,3572,response,ISIC_5904116.JPG,7,ISIC_1358527.JPG,ISIC_5904116.JPG,false,1,keypress(m),500,605326,605325,601753,601752.0000000001,601762,605343,8,400,20,,ISIC_1358527.JPG
break,html.Screen,4_119_1,2023-11-06T15:39:38.338Z,,0,,,NaN,,,,,,false,,,,605326,605326,,605326,,605343,8,400,,,
break_continue,html.Screen,4_119_2,2023-11-06T15:39:38.338Z,,0,,,NaN,,,,,,false,,,,605327,605326,,605326,,605343,8,400,,,
sequence,flow.Sequence,4_119,2023-11-06T15:39:38.338Z,,0,,,3564,completion,,,,,false,,,,605327,605326,601753,601752.0000000001,601762,605343,8,400,,,
trial,html.Screen,4_120_0,2023-11-06T15:39:41.085Z,,0,3,,2745,response,ISIC_4136663.JPG,6,ISIC_8759207.JPG,ISIC_4136663.JPG,false,1,keypress(m),500,608073,608073,605328,605327,605343,608082,8,400,21,,ISIC_8759207.JPG
break,html.Screen,4_120_1,2023-11-06T15:39:41.085Z,,0,,,NaN,,,,,,false,,,,608074.0000000001,608074.0000000001,,608073,,608082,8,400,,,
break_continue,html.Screen,4_120_2,2023-11-06T15:39:41.086Z,,0,,,NaN,,,,,,false,,,,608074.0000000001,608074.0000000001,,608074.0000000001,,608082,8,400,,,
sequence,flow.Sequence,4_120,2023-11-06T15:39:41.086Z,,0,,,2731.0000000001164,completion,,,,,false,,,,608074.0000000001,608074.0000000001,605328,605327,605343,608082,8,400,,,
trial,html.Screen,4_121_0,2023-11-06T15:39:44.111Z,,0,3,,3024,response,ISIC_6469202.JPG,10,ISIC_0068299.JPG,ISIC_0068299.JPG,false,0,keypress(z),500,611100,611099,608075,608074.0000000001,608082,611120,8,400,22,,ISIC_6469202.JPG
break,html.Screen,4_121_1,2023-11-06T15:39:44.112Z,,0,,,NaN,,,,,,false,,,,611100,611100,,611100,,611120,8,400,,,
break_continue,html.Screen,4_121_2,2023-11-06T15:39:44.112Z,,0,,,NaN,,,,,,false,,,,611100,611100,,611100,,611120,8,400,,,
sequence,flow.Sequence,4_121,2023-11-06T15:39:44.112Z,,0,,,3018,completion,,,,,false,,,,611100,611100,608075,608074.0000000001,608082,611120,8,400,,,
trial,html.Screen,4_122_0,2023-11-06T15:39:48.829Z,,0,3,,4716,response,ISIC_0012054.JPG,6,ISIC_0032001.JPG,ISIC_0012054.JPG,false,1,keypress(m),500,615817,615817,611101,611101,611120,615835,8,400,23,,ISIC_0032001.JPG
break,html.Screen,4_122_1,2023-11-06T15:39:48.830Z,,0,,,NaN,,,,,,false,,,,615818,615818,,615817,,615835,8,400,,,
break_continue,html.Screen,4_122_2,2023-11-06T15:39:48.830Z,,0,,,NaN,,,,,,false,,,,615818,615818,,615818,,615835,8,400,,,
sequence,flow.Sequence,4_122,2023-11-06T15:39:48.830Z,,0,,,4698,completion,,,,,false,,,,615818,615818,611101,611101,611120,615835,8,400,,,
trial,html.Screen,4_123_0,2023-11-06T15:39:54.255Z,,0,3,,5424,response,ISIC_8133350.JPG,8,ISIC_0072953.JPG,ISIC_0072953.JPG,false,0,keypress(z),500,621243,621243,615819,615818,615835,621255,8,400,24,,ISIC_8133350.JPG
break,html.Screen,4_123_1,2023-11-06T15:39:54.256Z,,0,,,NaN,,,,,,false,,,,621244,621244,,621243,,621255,8,400,,,
break_continue,html.Screen,4_123_2,2023-11-06T15:39:54.256Z,,0,,,NaN,,,,,,false,,,,621244,621244,,621244,,621255,8,400,,,
sequence,flow.Sequence,4_123,2023-11-06T15:39:54.256Z,,0,,,5409,completion,,,,,false,,,,621244,621244,615819,615818,615835,621255,8,400,,,
trial,html.Screen,4_124_0,2023-11-06T15:40:01.391Z,,0,3,,7135,response,ISIC_6855540.JPG,7,ISIC_0062111.JPG,ISIC_0062111.JPG,false,0,keypress(z),500,628380,628380,621245,621244,621255,628399,8,400,25,,ISIC_6855540.JPG
break,html.Screen,4_124_1,2023-11-06T15:40:01.392Z,,0,,,NaN,,,,,,false,,,,628380,628380,,628380,,628399,8,400,,,
break_continue,html.Screen,4_124_2,2023-11-06T15:40:01.392Z,,0,,,NaN,,,,,,false,,,,628380,628380,,628380,,628399,8,400,,,
sequence,flow.Sequence,4_124,2023-11-06T15:40:01.392Z,,0,,,7125,completion,,,,,false,,,,628380,628380,621245,621244,621255,628399,8,400,,,
trial,html.Screen,4_125_0,2023-11-06T15:40:07.668Z,,0,3,,6275.000000000116,response,ISIC_0011607.JPG,6,ISIC_0072292.JPG,ISIC_0072292.JPG,false,0,keypress(z),500,634656.0000000001,634656.0000000001,628381,628381,628399,634669,8,400,26,,ISIC_0011607.JPG
break,html.Screen,4_125_1,2023-11-06T15:40:07.668Z,,0,,,NaN,,,,,,false,,,,634656.0000000001,634656.0000000001,,634656.0000000001,,634669,8,400,,,
break_continue,html.Screen,4_125_2,2023-11-06T15:40:07.668Z,,0,,,NaN,,,,,,false,,,,634657,634656.0000000001,,634656.0000000001,,634669,8,400,,,
sequence,flow.Sequence,4_125,2023-11-06T15:40:07.668Z,,0,,,6257.000000000116,completion,,,,,false,,,,634657,634656.0000000001,628381,628380,628399,634669,8,400,,,
trial,html.Screen,4_126_0,2023-11-06T15:40:14.068Z,,0,3,,6399,response,ISIC_0490714.JPG,6,ISIC_7972996.JPG,ISIC_0490714.JPG,false,1,keypress(m),500,641057,641057,634658,634657,634669,641076,8,400,27,,ISIC_7972996.JPG
break,html.Screen,4_126_1,2023-11-06T15:40:14.069Z,,0,,,NaN,,,,,,false,,,,641057,641057,,641057,,641076,8,400,,,
break_continue,html.Screen,4_126_2,2023-11-06T15:40:14.069Z,,0,,,NaN,,,,,,false,,,,641058,641058,,641058,,641076,8,400,,,
sequence,flow.Sequence,4_126,2023-11-06T15:40:14.069Z,,0,,,6389,completion,,,,,false,,,,641058,641058,634658,634657,634669,641076,8,400,,,
trial,html.Screen,4_127_0,2023-11-06T15:40:19.395Z,,0,3,,5325,response,ISIC_0057892.JPG,8,ISIC_0000142.JPG,ISIC_0057892.JPG,false,1,keypress(m),500,646384,646384,641059,641058,641076,646402,8,400,28,,ISIC_0000142.JPG
break,html.Screen,4_127_1,2023-11-06T15:40:19.396Z,,0,,,NaN,,,,,,false,,,,646384,646384,,646384,,646402,8,400,,,
break_continue,html.Screen,4_127_2,2023-11-06T15:40:19.396Z,,0,,,NaN,,,,,,false,,,,646384,646384,,646384,,646402,8,400,,,
sequence,flow.Sequence,4_127,2023-11-06T15:40:19.396Z,,0,,,5308,completion,,,,,false,,,,646385,646384,641059,641058,641076,646402,8,400,,,
trial,html.Screen,4_128_0,2023-11-06T15:40:22.369Z,,0,3,,2971,response,ISIC_0067985.JPG,3,ISIC_0033879.JPG,ISIC_0067985.JPG,false,1,keypress(m),500,649357,649357,646386,646385,646402,649374,8,400,29,,ISIC_0033879.JPG
break,html.Screen,4_128_1,2023-11-06T15:40:22.369Z,,0,,,NaN,,,,,,false,,,,649358.0000000001,649358.0000000001,,649357,,649374,8,400,,,
break_continue,html.Screen,4_128_2,2023-11-06T15:40:22.369Z,,0,,,NaN,,,,,,false,,,,649358.0000000001,649358.0000000001,,649358.0000000001,,649374,8,400,,,
sequence,flow.Sequence,4_128,2023-11-06T15:40:22.370Z,,0,,,2956.0000000001164,completion,,,,,false,,,,649358.0000000001,649358.0000000001,646386,646385,646402,649374,8,400,,,
trial,html.Screen,4_129_0,2023-11-06T15:40:25.812Z,,0,3,,3441.0000000001164,response,ISIC_0070463.JPG,3,ISIC_4417495.JPG,ISIC_0070463.JPG,false,1,keypress(m),500,652800.0000000001,652800.0000000001,649359,649358.0000000001,649374,652807,8,400,30,,ISIC_4417495.JPG
break,html.Screen,4_129_1,2023-11-06T15:40:25.812Z,,0,,,NaN,,,,,,false,,,,652801,652801,,652801,,652807,8,400,,,
break_continue,html.Screen,4_129_2,2023-11-06T15:40:25.813Z,,0,,,NaN,,,,,,false,,,,652801,652801,,652801,,652807,8,400,,,
sequence,flow.Sequence,4_129,2023-11-06T15:40:25.813Z,,0,,,3427,completion,,,,,false,,,,652801,652801,649359,649358.0000000001,649374,652807,8,400,,,
trial,html.Screen,4_130_0,2023-11-06T15:40:28.492Z,,0,3,,2678,response,ISIC_5459256.JPG,5,ISIC_7161069.JPG,ISIC_5459256.JPG,false,1,keypress(m),500,655480,655480,652802,652801,652807,655489,8,400,31,,ISIC_7161069.JPG
break,html.Screen,4_130_1,2023-11-06T15:40:28.492Z,,0,,,NaN,,,,,,false,,,,655481,655480,,655480,,655489,8,400,,,
break_continue,html.Screen,4_130_2,2023-11-06T15:40:28.492Z,,0,,,NaN,,,,,,false,,,,655481,655481,,655481,,655489,8,400,,,
sequence,flow.Sequence,4_130,2023-11-06T15:40:28.492Z,,0,,,2674,completion,,,,,false,,,,655481,655481,652802,652801,652807,655489,8,400,,,
trial,html.Screen,4_131_0,2023-11-06T15:40:31.689Z,,0,3,,3196,response,ISIC_6373500.JPG,13,ISIC_0013473.JPG,ISIC_0013473.JPG,false,0,keypress(z),500,658678,658678,655482,655481,655489,658693,8,400,32,,ISIC_6373500.JPG
break,html.Screen,4_131_1,2023-11-06T15:40:31.690Z,,0,,,NaN,,,,,,false,,,,658678,658678,,658678,,658693,8,400,,,
break_continue,html.Screen,4_131_2,2023-11-06T15:40:31.690Z,,0,,,NaN,,,,,,false,,,,658679,658679,,658678,,658693,8,400,,,
sequence,flow.Sequence,4_131,2023-11-06T15:40:31.690Z,,0,,,3190,completion,,,,,false,,,,658679,658679,655482,655481,655489,658693,8,400,,,
trial,html.Screen,4_132_0,2023-11-06T15:40:34.653Z,,0,3,,2961,response,ISIC_0068895.JPG,4,ISIC_0031087.JPG,ISIC_0031087.JPG,false,0,keypress(z),500,661642,661641,658680,658679,658693,661652,8,400,33,,ISIC_0068895.JPG
break,html.Screen,4_132_1,2023-11-06T15:40:34.653Z,,0,,,NaN,,,,,,false,,,,661642,661642,,661642,,661652,8,400,,,
break_continue,html.Screen,4_132_2,2023-11-06T15:40:34.654Z,,0,,,NaN,,,,,,false,,,,661642,661642,,661642,,661652,8,400,,,
sequence,flow.Sequence,4_132,2023-11-06T15:40:34.654Z,,0,,,2949,completion,,,,,false,,,,661642,661642,658680,658679,658693,661652,8,400,,,
trial,html.Screen,4_133_0,2023-11-06T15:40:37.328Z,,0,3,,2673,response,ISIC_9726155.JPG,15,ISIC_0027420.JPG,ISIC_9726155.JPG,false,1,keypress(m),500,664317,664316,661643,661642,661652,664338,8,400,34,,ISIC_0027420.JPG
break,html.Screen,4_133_1,2023-11-06T15:40:37.329Z,,0,,,NaN,,,,,,false,,,,664317,664317,,664317,,664338,8,400,,,
break_continue,html.Screen,4_133_2,2023-11-06T15:40:37.329Z,,0,,,NaN,,,,,,false,,,,664318,664318,,664318,,664338,8,400,,,
sequence,flow.Sequence,4_133,2023-11-06T15:40:37.329Z,,0,,,2666,completion,,,,,false,,,,664318,664318,661643,661642,661652,664338,8,400,,,
trial,html.Screen,4_134_0,2023-11-06T15:40:41.216Z,,0,3,,3885.0000000001164,response,ISIC_7633960.JPG,7,ISIC_0032782.JPG,ISIC_7633960.JPG,false,1,keypress(m),500,668204.0000000001,668204.0000000001,664319,664318,664338,668225,8,400,35,,ISIC_0032782.JPG
break,html.Screen,4_134_1,2023-11-06T15:40:41.216Z,,0,,,NaN,,,,,,false,,,,668205,668205,,668204.0000000001,,668225,8,400,,,
break_continue,html.Screen,4_134_2,2023-11-06T15:40:41.216Z,,0,,,NaN,,,,,,false,,,,668205,668205,,668205,,668225,8,400,,,
sequence,flow.Sequence,4_134,2023-11-06T15:40:41.216Z,,0,,,3867,completion,,,,,false,,,,668205,668205,664319,664318,664338,668225,8,400,,,
trial,html.Screen,4_135_0,2023-11-06T15:40:45.389Z,,0,3,,4172,response,ISIC_0027152.JPG,9,ISIC_0059632.JPG,ISIC_0059632.JPG,false,0,keypress(z),500,672378,672378,668206,668205,668225,672397,8,400,36,,ISIC_0027152.JPG
break,html.Screen,4_135_1,2023-11-06T15:40:45.390Z,,0,,,NaN,,,,,,false,,,,672378,672378,,672378,,672397,8,400,,,
break_continue,html.Screen,4_135_2,2023-11-06T15:40:45.390Z,,0,,,NaN,,,,,,false,,,,672379,672379,,672379,,672397,8,400,,,
sequence,flow.Sequence,4_135,2023-11-06T15:40:45.390Z,,0,,,4154,completion,,,,,false,,,,672379,672379,668206,668205,668225,672397,8,400,,,
trial,html.Screen,4_136_0,2023-11-06T15:40:48.086Z,,0,3,,2695,response,ISIC_5961333.JPG,6,ISIC_0067338.JPG,ISIC_5961333.JPG,false,1,keypress(m),500,675075,675075,672380,672379,672397,675085,8,400,37,,ISIC_0067338.JPG
break,html.Screen,4_136_1,2023-11-06T15:40:48.087Z,,0,,,NaN,,,,,,false,,,,675075,675075,,675075,,675085,8,400,,,
break_continue,html.Screen,4_136_2,2023-11-06T15:40:48.087Z,,0,,,NaN,,,,,,false,,,,675075,675075,,675075,,675085,8,400,,,
sequence,flow.Sequence,4_136,2023-11-06T15:40:48.087Z,,0,,,2678,completion,,,,,false,,,,675075,675075,672380,672379,672397,675085,8,400,,,
trial,html.Screen,4_137_0,2023-11-06T15:40:50.704Z,,0,3,,2615,response,ISIC_8108099.JPG,11,ISIC_8659639.JPG,ISIC_8108099.JPG,false,1,keypress(m),500,677692,677692,675077,675075,675085,677701,8,400,38,,ISIC_8659639.JPG
break,html.Screen,4_137_1,2023-11-06T15:40:50.704Z,,0,,,NaN,,,,,,false,,,,677693,677693,,677692,,677701,8,400,,,
break_continue,html.Screen,4_137_2,2023-11-06T15:40:50.704Z,,0,,,NaN,,,,,,false,,,,677693,677693,,677693,,677701,8,400,,,
sequence,flow.Sequence,4_137,2023-11-06T15:40:50.704Z,,0,,,2608,completion,,,,,false,,,,677693,677693,675077,675075,675085,677701,8,400,,,
trial,html.Screen,4_138_0,2023-11-06T15:40:53.279Z,,0,3,,2573,response,ISIC_0024261.JPG,2,ISIC_0028976.JPG,ISIC_0024261.JPG,false,1,keypress(m),500,680268,680267,677694,677693,677701,680288,8,400,39,,ISIC_0028976.JPG
break,html.Screen,4_138_1,2023-11-06T15:40:53.279Z,,0,,,NaN,,,,,,false,,,,680268,680268,,680268,,680288,8,400,,,
break_continue,html.Screen,4_138_2,2023-11-06T15:40:53.280Z,,0,,,NaN,,,,,,false,,,,680268,680268,,680268,,680288,8,400,,,
sequence,flow.Sequence,4_138,2023-11-06T15:40:53.280Z,,0,,,2567,completion,,,,,false,,,,680268,680268,677694,677693,677701,680288,8,400,,,
trial,html.Screen,4_139_0,2023-11-06T15:40:57.384Z,,0,3,,4103,response,ISIC_4354896.JPG,6,ISIC_0057307.JPG,ISIC_4354896.JPG,false,1,keypress(m),500,684373,684373,680270,680268,680288,684391,8,400,40,,ISIC_0057307.JPG
break,html.Screen,4_139_1,2023-11-06T15:40:57.385Z,,0,,,NaN,,,,,,false,,,,684373,684373,,684373,,684391,8,400,,,
break_continue,html.Screen,4_139_2,2023-11-06T15:40:57.385Z,,0,,,NaN,,,,,,false,,,,684374,684373,,684373,,684391,8,400,,,
sequence,flow.Sequence,4_139,2023-11-06T15:40:57.385Z,,0,,,4085,completion,,,,,false,,,,684374,684373,680270,680268,680288,684391,8,400,,,
trial,html.Screen,4_140_0,2023-11-06T15:41:01.483Z,,0,3,,4097,response,ISIC_4564163.JPG,6,ISIC_8108099.JPG,ISIC_4564163.JPG,false,1,keypress(m),500,688472,688472,684375,684374,684391,688480,8,400,41,,ISIC_8108099.JPG
break,html.Screen,4_140_1,2023-11-06T15:41:01.483Z,,0,,,NaN,,,,,,false,,,,688472,688472,,688472,,688480,8,400,,,
break_continue,html.Screen,4_140_2,2023-11-06T15:41:01.484Z,,0,,,NaN,,,,,,false,,,,688472,688472,,688472,,688480,8,400,,,
sequence,flow.Sequence,4_140,2023-11-06T15:41:01.484Z,,0,,,4081,completion,,,,,false,,,,688472,688472,684375,684374,684391,688480,8,400,,,
trial,html.Screen,4_141_0,2023-11-06T15:41:06.003Z,,0,3,,4518,response,ISIC_4969996.JPG,0,ISIC_4958006.JPG,ISIC_4958006.JPG,false,0,keypress(z),500,692991,692991,688473,688472,688480,693008,8,400,42,,ISIC_4969996.JPG
break,html.Screen,4_141_1,2023-11-06T15:41:06.003Z,,0,,,NaN,,,,,,false,,,,692992,692992,,692992,,693008,8,400,,,
break_continue,html.Screen,4_141_2,2023-11-06T15:41:06.003Z,,0,,,NaN,,,,,,false,,,,692992,692992,,692992,,693008,8,400,,,
sequence,flow.Sequence,4_141,2023-11-06T15:41:06.003Z,,0,,,4512,completion,,,,,false,,,,692992,692992,688473,688472,688480,693008,8,400,,,
trial,html.Screen,4_142_0,2023-11-06T15:41:10.555Z,,0,3,,4550,response,ISIC_4738636.JPG,3,ISIC_2804864.JPG,ISIC_4738636.JPG,false,1,keypress(m),500,697543,697543,692993,692992,693008,697562,8,400,43,,ISIC_2804864.JPG
break,html.Screen,4_142_1,2023-11-06T15:41:10.555Z,,0,,,NaN,,,,,,false,,,,697544,697544,,697544,,697562,8,400,,,
break_continue,html.Screen,4_142_2,2023-11-06T15:41:10.556Z,,0,,,NaN,,,,,,false,,,,697544,697544,,697544,,697562,8,400,,,
sequence,flow.Sequence,4_142,2023-11-06T15:41:10.556Z,,0,,,4536,completion,,,,,false,,,,697544,697544,692993,692992,693008,697562,8,400,,,
trial,html.Screen,4_143_0,2023-11-06T15:41:13.566Z,,0,3,,3009.0000000001164,response,ISIC_0878793.JPG,3,ISIC_0839675.JPG,ISIC_0878793.JPG,false,1,keypress(m),500,700555.0000000001,700555.0000000001,697546,697544,697562,700565,8,400,44,,ISIC_0839675.JPG
break,html.Screen,4_143_1,2023-11-06T15:41:13.567Z,,0,,,NaN,,,,,,false,,,,700555.0000000001,700555.0000000001,,700555.0000000001,,700565,8,400,,,
break_continue,html.Screen,4_143_2,2023-11-06T15:41:13.567Z,,0,,,NaN,,,,,,false,,,,700556,700556,,700555.0000000001,,700565,8,400,,,
sequence,flow.Sequence,4_143,2023-11-06T15:41:13.567Z,,0,,,2994,completion,,,,,false,,,,700556,700556,697546,697544,697562,700565,8,400,,,
trial,html.Screen,4_144_0,2023-11-06T15:41:17.288Z,,0,3,,3720,response,ISIC_0025231.JPG,2,ISIC_0029859.JPG,ISIC_0025231.JPG,false,1,keypress(m),500,704277,704277,700557,700556,700565,704296,8,400,45,,ISIC_0029859.JPG
break,html.Screen,4_144_1,2023-11-06T15:41:17.288Z,,0,,,NaN,,,,,,false,,,,704277,704277,,704277,,704296,8,400,,,
break_continue,html.Screen,4_144_2,2023-11-06T15:41:17.289Z,,0,,,NaN,,,,,,false,,,,704277,704277,,704277,,704296,8,400,,,
sequence,flow.Sequence,4_144,2023-11-06T15:41:17.289Z,,0,,,3712,completion,,,,,false,,,,704278,704277,700557,700556,700565,704296,8,400,,,
trial,html.Screen,4_145_0,2023-11-06T15:41:20.112Z,,0,3,,2822,response,ISIC_0055783.JPG,5,ISIC_6125652.JPG,ISIC_6125652.JPG,false,0,keypress(z),500,707101,707101,704279,704278,704296,707119,8,400,46,,ISIC_0055783.JPG
break,html.Screen,4_145_1,2023-11-06T15:41:20.112Z,,0,,,NaN,,,,,,false,,,,707101,707101,,707101,,707119,8,400,,,
break_continue,html.Screen,4_145_2,2023-11-06T15:41:20.113Z,,0,,,NaN,,,,,,false,,,,707101,707101,,707101,,707119,8,400,,,
sequence,flow.Sequence,4_145,2023-11-06T15:41:20.113Z,,0,,,2805,completion,,,,,false,,,,707101,707101,704279,704278,704296,707119,8,400,,,
trial,html.Screen,4_146_0,2023-11-06T15:41:23.405Z,,0,3,,3292,response,ISIC_2038024.JPG,4,ISIC_2311665.JPG,ISIC_2038024.JPG,false,1,keypress(m),500,710394,710394,707102,707102,707119,710423,8,400,47,,ISIC_2311665.JPG
break,html.Screen,4_146_1,2023-11-06T15:41:23.406Z,,0,,,NaN,,,,,,false,,,,710394,710394,,710394,,710423,8,400,,,
break_continue,html.Screen,4_146_2,2023-11-06T15:41:23.406Z,,0,,,NaN,,,,,,false,,,,710395,710394,,710394,,710423,8,400,,,
sequence,flow.Sequence,4_146,2023-11-06T15:41:23.406Z,,0,,,3275,completion,,,,,false,,,,710395,710394,707102,707102,707119,710423,8,400,,,
trial,html.Screen,4_147_0,2023-11-06T15:41:27.082Z,,0,3,,3665,response,ISIC_0066637.JPG,4,ISIC_0536433.JPG,ISIC_0536433.JPG,false,0,keypress(z),500,714071,714071,710406,710395,710423,714091,8,400,48,,ISIC_0066637.JPG
break,html.Screen,4_147_1,2023-11-06T15:41:27.082Z,,0,,,NaN,,,,,,false,,,,714071,714071,,714071,,714091,8,400,,,
break_continue,html.Screen,4_147_2,2023-11-06T15:41:27.083Z,,0,,,NaN,,,,,,false,,,,714072,714071,,714071,,714091,8,400,,,
sequence,flow.Sequence,4_147,2023-11-06T15:41:27.083Z,,0,,,3648,completion,,,,,false,,,,714072,714071,710406,710395,710423,714091,8,400,,,
trial,html.Screen,4_148_0,2023-11-06T15:41:31.615Z,,0,3,,4530.000000000116,response,ISIC_0027822.JPG,8,ISIC_4472903.JPG,ISIC_0027822.JPG,false,1,keypress(m),500,718604,718603.0000000001,714073,714072,714091,718616,8,400,49,,ISIC_4472903.JPG
break,html.Screen,4_148_1,2023-11-06T15:41:31.615Z,,0,,,NaN,,,,,,false,,,,718604,718604,,718604,,718616,8,400,,,
break_continue,html.Screen,4_148_2,2023-11-06T15:41:31.615Z,,0,,,NaN,,,,,,false,,,,718604,718604,,718604,,718616,8,400,,,
sequence,flow.Sequence,4_148,2023-11-06T15:41:31.615Z,,0,,,4513,completion,,,,,false,,,,718604,718604,714073,714072,714091,718616,8,400,,,
trial,html.Screen,4_149_0,2023-11-06T15:41:35.189Z,,0,3,,3572,response,ISIC_9406275.JPG,0,ISIC_2987630.JPG,ISIC_2987630.JPG,false,0,keypress(z),500,722178,722177,718605,718604,718616,722186,8,400,50,,ISIC_9406275.JPG
break,html.Screen,4_149_1,2023-11-06T15:41:45.184Z,,0,,,10004,timeout,,,,,false,,,,732173,732172,722179,722178,722186,732190,8,400,,,
break_continue,html.Screen,4_149_2,2023-11-06T15:41:47.390Z,,0,,,2211,response,,,,,false,continue,keypress(Space),,734379,734383,732172,732173,732190,734389,8,400,,,
sequence,flow.Sequence,4_149,2023-11-06T15:41:47.390Z,,0,,,15767,completion,,,,,false,,,,734379,734383,718605,718604,718616,734389,8,400,,,
trial,html.Screen,4_150_0,2023-11-06T15:41:50.628Z,,0,4,,3237,response,ISIC_7293697.JPG,2,ISIC_0821520.JPG,ISIC_7293697.JPG,false,1,keypress(m),500,737617,737617,734380,734379,734389,737628,8,400,1,,ISIC_0821520.JPG
break,html.Screen,4_150_1,2023-11-06T15:41:50.629Z,,0,,,NaN,,,,,,false,,,,737618,737618,,737617,,737628,8,400,,,
break_continue,html.Screen,4_150_2,2023-11-06T15:41:50.629Z,,0,,,NaN,,,,,,false,,,,737618,737618,,737618,,737628,8,400,,,
sequence,flow.Sequence,4_150,2023-11-06T15:41:50.629Z,,0,,,3229,completion,,,,,false,,,,737618,737618,734380,734379,734389,737628,8,400,,,
trial,html.Screen,4_151_0,2023-11-06T15:41:58.449Z,,0,4,,7819,response,ISIC_3289651.JPG,6,ISIC_0060946.JPG,ISIC_0060946.JPG,false,0,keypress(z),500,745438,745438,737619,737618,737628,745451,8,400,2,,ISIC_3289651.JPG
break,html.Screen,4_151_1,2023-11-06T15:41:58.450Z,,0,,,NaN,,,,,,false,,,,745439,745438,,745438,,745451,8,400,,,
break_continue,html.Screen,4_151_2,2023-11-06T15:41:58.450Z,,0,,,NaN,,,,,,false,,,,745439,745439,,745439,,745451,8,400,,,
sequence,flow.Sequence,4_151,2023-11-06T15:41:58.450Z,,0,,,7811,completion,,,,,false,,,,745439,745439,737619,737618,737628,745451,8,400,,,
trial,html.Screen,4_152_0,2023-11-06T15:42:01.964Z,,0,4,,3513,response,ISIC_8664718.JPG,2,ISIC_9786863.JPG,ISIC_9786863.JPG,false,0,keypress(z),500,748953,748953,745440,745439,745451,748964,8,400,3,,ISIC_8664718.JPG
break,html.Screen,4_152_1,2023-11-06T15:42:01.965Z,,0,,,NaN,,,,,,false,,,,748954.0000000001,748954.0000000001,,748953,,748964,8,400,,,
break_continue,html.Screen,4_152_2,2023-11-06T15:42:01.965Z,,0,,,NaN,,,,,,false,,,,748954.0000000001,748954.0000000001,,748954.0000000001,,748964,8,400,,,
sequence,flow.Sequence,4_152,2023-11-06T15:42:01.965Z,,0,,,3503.0000000001164,completion,,,,,false,,,,748954.0000000001,748954.0000000001,745440,745439,745451,748964,8,400,,,
trial,html.Screen,4_153_0,2023-11-06T15:42:06.620Z,,0,4,,4654,response,ISIC_1200192.JPG,6,ISIC_2519121.JPG,ISIC_1200192.JPG,false,1,keypress(m),500,753609,753609,748955,748954.0000000001,748964,753618,8,400,4,,ISIC_2519121.JPG
break,html.Screen,4_153_1,2023-11-06T15:42:06.620Z,,0,,,NaN,,,,,,false,,,,753609,753609,,753609,,753618,8,400,,,
break_continue,html.Screen,4_153_2,2023-11-06T15:42:06.621Z,,0,,,NaN,,,,,,false,,,,753610,753610,,753610,,753618,8,400,,,
sequence,flow.Sequence,4_153,2023-11-06T15:42:06.621Z,,0,,,4646,completion,,,,,false,,,,753610,753610,748955,748954.0000000001,748964,753618,8,400,,,
trial,html.Screen,4_154_0,2023-11-06T15:42:10.831Z,,0,4,,4208,response,ISIC_0059808.JPG,6,ISIC_2805634.JPG,ISIC_0059808.JPG,false,1,keypress(m),500,757820,757819,753611,753610,753618,757839,8,400,5,,ISIC_2805634.JPG
break,html.Screen,4_154_1,2023-11-06T15:42:10.831Z,,0,,,NaN,,,,,,false,,,,757820,757820,,757820,,757839,8,400,,,
break_continue,html.Screen,4_154_2,2023-11-06T15:42:10.831Z,,0,,,NaN,,,,,,false,,,,757820,757820,,757820,,757839,8,400,,,
sequence,flow.Sequence,4_154,2023-11-06T15:42:10.831Z,,0,,,4202,completion,,,,,false,,,,757820,757820,753611,753610,753618,757839,8,400,,,
trial,html.Screen,4_155_0,2023-11-06T15:42:14.492Z,,0,4,,3659,response,ISIC_1871890.JPG,2,ISIC_0010014.JPG,ISIC_1871890.JPG,false,1,keypress(m),500,761481,761481,757822,757820,757839,761491,8,400,6,,ISIC_0010014.JPG
break,html.Screen,4_155_1,2023-11-06T15:42:14.492Z,,0,,,NaN,,,,,,false,,,,761481,761481,,761481,,761491,8,400,,,
break_continue,html.Screen,4_155_2,2023-11-06T15:42:14.492Z,,0,,,NaN,,,,,,false,,,,761482,761481,,761481,,761491,8,400,,,
sequence,flow.Sequence,4_155,2023-11-06T15:42:14.493Z,,0,,,3642,completion,,,,,false,,,,761482,761481,757822,757820,757839,761491,8,400,,,
trial,html.Screen,4_156_0,2023-11-06T15:42:18.145Z,,0,4,,3651,response,ISIC_6814221.JPG,8,ISIC_3950753.JPG,ISIC_3950753.JPG,false,0,keypress(z),500,765134,765134,761483,761482,761491,765155,8,400,7,,ISIC_6814221.JPG
break,html.Screen,4_156_1,2023-11-06T15:42:18.146Z,,0,,,NaN,,,,,,false,,,,765135,765134,,765134,,765155,8,400,,,
break_continue,html.Screen,4_156_2,2023-11-06T15:42:18.146Z,,0,,,NaN,,,,,,false,,,,765135,765135,,765135,,765155,8,400,,,
sequence,flow.Sequence,4_156,2023-11-06T15:42:18.146Z,,0,,,3644,completion,,,,,false,,,,765135,765135,761483,761482,761491,765155,8,400,,,
