sender,sender_type,sender_id,timestamp,meta,,blockNo,condition,duration,ended_on,img_left,img_reveal,img_right,loser,practice,response,response_action,selection_duration,time_commit,time_end,time_render,time_run,time_show,time_switch,total_blocks,total_trials,trialNo,url,winner
informed_consent,html.Screen,0,2023-11-03T18:59:35.003Z,"{""labjs_version"":""20.2.4"",""labjs_build"":{""flavor"":""production"",""commit"":""f5b4a49f956347addd546a832a3327688c2c0fef""},""location"":""https://run.pavlovia.org/MurrayBennett/melanoma-2afc/?participant=66222&platform=sona"",""userAgent"":""Mozilla/5.0 (Windows NT 10.0; Win64; x64) AppleWebKit/537.36 (KHTML, like Gecko) Chrome/118.0.0.0 Safari/537.36"",""platform"":""Win32"",""language"":""en-US"",""locale"":""en-US"",""timeZone"":""America/Chicago"",""timezoneOffset"":300,""screen_width"":1536,""screen_height"":864,""scroll_width"":1536,""scroll_height"":691,""window_innerWidth"":1536,""window_innerHeight"":739,""devicePixelRatio"":1.25}",,,,6762.36599999851,response,,,,,,consent,click button,,8933.29999999702,8931.89999999851,2162.565,2164.10000000149,2169.534,8940.481,,,,"{""participant"":""66222"",""platform"":""sona""}",
Welcome,html.Screen,1,2023-11-03T19:00:08.005Z,,,,colourful,32994.019,response,,,,,,continue,click button,,41935.19999999553,41934.5,8926.47,8933.39999999851,8940.481,41940.888,,,,,
trial,html.Screen,2_0_0,2023-11-03T19:00:12.888Z,,0,0,,4876.511999998511,response,ISIC_0063388.JPG,,ISIC_0025593.JPG,ISIC_0063388.JPG,true,1,keypress(m),500,46817.60000000149,46817.39999999851,41934.147,41935.29999999702,41940.888,46824.739,1,6,1,,ISIC_0025593.JPG
sequence,flow.Sequence,2_0,2023-11-03T19:00:12.888Z,,0,,,4876.511999998511,completion,,,,,true,,,,46817.69999999553,46817.39999999851,41934.147,41935.29999999702,41940.888,46824.739,1,6,,,
trial,html.Screen,2_1_0,2023-11-03T19:00:17.913Z,,0,0,,5017.861000001489,response,ISIC_0028178.JPG,,ISIC_1309015.JPG,ISIC_0028178.JPG,true,1,keypress(m),500,51842.89999999851,51842.60000000149,46817.751,46817.69999999553,46824.739,51847.238,1,6,2,,ISIC_1309015.JPG
sequence,flow.Sequence,2_1,2023-11-03T19:00:17.914Z,,0,,,5017.861000001489,completion,,,,,true,,,,51843.19999999553,51842.60000000149,46817.751,46817.69999999553,46824.739,51847.238,1,6,,,
trial,html.Screen,2_2_0,2023-11-03T19:00:23.292Z,,0,0,,5373.762000000002,response,ISIC_0031128.JPG,,ISIC_3314853.JPG,ISIC_0031128.JPG,true,1,keypress(m),500,57221.29999999702,57221,51840.3,51843.5,51847.238,57231.786,1,6,3,,ISIC_3314853.JPG
sequence,flow.Sequence,2_2,2023-11-03T19:00:23.292Z,,0,,,5373.762000000002,completion,,,,,true,,,,57221.69999999553,57221,51840.3,51843.29999999702,51847.238,57231.786,1,6,,,
trial,html.Screen,2_3_0,2023-11-03T19:00:27.693Z,,0,0,,4391.214,response,ISIC_8980141.JPG,,ISIC_0031612.JPG,ISIC_0031612.JPG,true,0,keypress(z),500,61623.10000000149,61623,57216.641,57222,57231.786,61628.853,1,6,4,,ISIC_8980141.JPG
sequence,flow.Sequence,2_3,2023-11-03T19:00:27.694Z,,0,,,4391.214,completion,,,,,true,,,,61623.29999999702,61623,57216.641,57222,57231.786,61628.853,1,6,,,
trial,html.Screen,2_4_0,2023-11-03T19:00:31.487Z,,0,0,,3787.2470000014873,response,ISIC_9721604.JPG,,ISIC_1197737.JPG,ISIC_9721604.JPG,true,1,keypress(m),500,65416.5,65416.10000000149,61621.774,61623.29999999702,61628.853,65423.608,1,6,5,,ISIC_1197737.JPG
sequence,flow.Sequence,2_4,2023-11-03T19:00:31.487Z,,0,,,3787.2470000014873,completion,,,,,true,,,,65417,65416.10000000149,61621.774,61623.29999999702,61628.853,65423.608,1,6,,,
trial,html.Screen,2_5_0,2023-11-03T19:00:34.882Z,,0,0,,3387.392,response,ISIC_0025346.JPG,,ISIC_0010681.JPG,ISIC_0025346.JPG,true,1,keypress(m),500,68811.39999999851,68811,65416.461,65417.29999999702,65423.608,68815.944,1,6,6,,ISIC_0010681.JPG
sequence,flow.Sequence,2_5,2023-11-03T19:00:34.882Z,,0,,,3387.392,completion,,,,,true,,,,68811.89999999851,68811,65416.461,65417.19999999553,65423.608,68815.944,1,6,,,
loop,flow.Loop,2,2023-11-03T19:00:34.882Z,,,,,26870.112,completion,,,,,true,,,,68812.19999999553,68811,41934.147,41935.19999999553,41940.888,68815.944,1,6,,,
exp_instructions,html.Screen,3,2023-11-03T19:00:50.704Z,,,,,15816.656000001487,response,,,,,,continue,keypress(Space),,84633.39999999851,84632.60000000149,68808.83,68812.39999999851,68815.944,84639.673,,,,,
trial,html.Screen,4_0_0,2023-11-03T19:00:55.042Z,,0,1,,4331.6269999970245,response,ISIC_8694181.JPG,5,ISIC_9918523.JPG,ISIC_8694181.JPG,false,1,keypress(m),500,88971.60000000149,88971.29999999702,84633.528,84633.39999999851,84639.673,88975.577,8,400,1,,ISIC_9918523.JPG
break,html.Screen,4_0_1,2023-11-03T19:00:55.044Z,,0,,,NaN,,,,,,false,,,,88973,88972.60000000149,,88971.89999999851,,88975.577,8,400,,,
break_continue,html.Screen,4_0_2,2023-11-03T19:00:55.044Z,,0,,,NaN,,,,,,false,,,,88973.5,88973.29999999702,,88973.10000000149,,88975.577,8,400,,,
sequence,flow.Sequence,4_0,2023-11-03T19:00:55.044Z,,0,,,4333.6269999970245,completion,,,,,false,,,,88973.60000000149,88973.29999999702,84633.528,84633.39999999851,84639.673,88975.577,8,400,,,
trial,html.Screen,4_1_0,2023-11-03T19:00:59.062Z,,0,1,,4015.122999995525,response,ISIC_1231722.JPG,5,ISIC_4307205.JPG,ISIC_4307205.JPG,false,0,keypress(z),500,92991,92990.69999999553,88968.564,88973.60000000149,88975.577,92999.285,8,400,2,,ISIC_1231722.JPG
break,html.Screen,4_1_1,2023-11-03T19:00:59.063Z,,0,,,NaN,,,,,,false,,,,92992,92991.79999999702,,92991.39999999851,,92999.285,8,400,,,
break_continue,html.Screen,4_1_2,2023-11-03T19:00:59.063Z,,0,,,NaN,,,,,,false,,,,92992.39999999851,92992.29999999702,,92992.19999999553,,92999.285,8,400,,,
sequence,flow.Sequence,4_1,2023-11-03T19:00:59.063Z,,0,,,4016.722999997015,completion,,,,,false,,,,92992.69999999553,92992.29999999702,88968.564,88973.60000000149,88975.577,92999.285,8,400,,,
trial,html.Screen,4_2_0,2023-11-03T19:01:02.842Z,,0,1,,3771.6149999985064,response,ISIC_5383064.JPG,6,ISIC_0034002.JPG,ISIC_0034002.JPG,false,0,keypress(z),500,96771.19999999553,96770.89999999851,92991.85,92992.79999999702,92999.285,96780.568,8,400,3,,ISIC_5383064.JPG
break,html.Screen,4_2_1,2023-11-03T19:01:02.843Z,,0,,,NaN,,,,,,false,,,,96772.10000000149,96771.89999999851,,96771.5,,96780.568,8,400,,,
break_continue,html.Screen,4_2_2,2023-11-03T19:01:02.843Z,,0,,,NaN,,,,,,false,,,,96772.60000000149,96772.5,,96772.29999999702,,96780.568,8,400,,,
sequence,flow.Sequence,4_2,2023-11-03T19:01:02.843Z,,0,,,3773.2149999999965,completion,,,,,false,,,,96772.89999999851,96772.5,92991.85,92992.69999999553,92999.285,96780.568,8,400,,,
trial,html.Screen,4_3_0,2023-11-03T19:01:06.622Z,,0,1,,3770.6319999955304,response,ISIC_0651353.JPG,6,ISIC_0027302.JPG,ISIC_0651353.JPG,false,1,keypress(m),500,100551.39999999851,100551.19999999553,96765.671,96772.89999999851,96780.568,100553.926,8,400,4,,ISIC_0027302.JPG
break,html.Screen,4_3_1,2023-11-03T19:01:06.623Z,,0,,,NaN,,,,,,false,,,,100552.39999999851,100552.10000000149,,100551.69999999553,,100553.926,8,400,,,
break_continue,html.Screen,4_3_2,2023-11-03T19:01:06.623Z,,0,,,NaN,,,,,,false,,,,100552.79999999702,100552.69999999553,,100552.5,,100553.926,8,400,,,
sequence,flow.Sequence,4_3,2023-11-03T19:01:06.624Z,,0,,,3772.1319999955304,completion,,,,,false,,,,100553,100552.69999999553,96765.671,96772.89999999851,96780.568,100553.926,8,400,,,
trial,html.Screen,4_4_0,2023-11-03T19:01:11.730Z,,0,1,,5105.174000001483,response,ISIC_5370803.JPG,4,ISIC_7400458.JPG,ISIC_5370803.JPG,false,1,keypress(m),500,105659.39999999851,105659.10000000149,100546.416,100553.10000000149,100553.926,105666.62,8,400,5,,ISIC_7400458.JPG
break,html.Screen,4_4_1,2023-11-03T19:01:11.731Z,,0,,,NaN,,,,,,false,,,,105660.39999999851,105660.19999999553,,105659.69999999553,,105666.62,8,400,,,
break_continue,html.Screen,4_4_2,2023-11-03T19:01:11.732Z,,0,,,NaN,,,,,,false,,,,105660.89999999851,105660.69999999553,,105660.60000000149,,105666.62,8,400,,,
sequence,flow.Sequence,4_4,2023-11-03T19:01:11.732Z,,0,,,5106.773999995523,completion,,,,,false,,,,105661.10000000149,105660.69999999553,100546.416,100553.10000000149,100553.926,105666.62,8,400,,,
trial,html.Screen,4_5_0,2023-11-03T19:01:14.934Z,,0,1,,3195.980000001495,response,ISIC_0066659.JPG,5,ISIC_6126554.JPG,ISIC_6126554.JPG,false,0,keypress(z),500,108862.89999999851,108862.60000000149,105659.387,105661.29999999702,105666.62,108872.485,8,400,6,,ISIC_0066659.JPG
break,html.Screen,4_5_1,2023-11-03T19:01:14.934Z,,0,,,NaN,,,,,,false,,,,108863.89999999851,108863.60000000149,,108863.10000000149,,108872.485,8,400,,,
break_continue,html.Screen,4_5_2,2023-11-03T19:01:14.935Z,,0,,,NaN,,,,,,false,,,,108864.29999999702,108864.19999999553,,108864.10000000149,,108872.485,8,400,,,
sequence,flow.Sequence,4_5,2023-11-03T19:01:14.935Z,,0,,,3197.5799999955343,completion,,,,,false,,,,108864.60000000149,108864.19999999553,105659.387,105661.19999999553,105666.62,108872.485,8,400,,,
trial,html.Screen,4_6_0,2023-11-03T19:01:18.505Z,,0,1,,3562.214999995529,response,ISIC_6739241.JPG,4,ISIC_2658858.JPG,ISIC_2658858.JPG,false,0,keypress(z),500,112434.79999999702,112434.69999999553,108857.53,108865.89999999851,108872.485,112437.327,8,400,7,,ISIC_6739241.JPG
break,html.Screen,4_6_1,2023-11-03T19:01:18.506Z,,0,,,NaN,,,,,,false,,,,112435.10000000149,112435,,112434.89999999851,,112437.327,8,400,,,
break_continue,html.Screen,4_6_2,2023-11-03T19:01:18.506Z,,0,,,NaN,,,,,,false,,,,112435.19999999553,112435.19999999553,,112435.19999999553,,112437.327,8,400,,,
sequence,flow.Sequence,4_6,2023-11-03T19:01:18.506Z,,0,,,3562.714999995529,completion,,,,,false,,,,112435.19999999553,112435.19999999553,108857.53,108865.89999999851,108872.485,112437.327,8,400,,,
trial,html.Screen,4_7_0,2023-11-03T19:01:23.452Z,,0,1,,4943.572999998505,response,ISIC_3936223.JPG,5,ISIC_0062058.JPG,ISIC_3936223.JPG,false,1,keypress(m),500,117381.19999999553,117380.89999999851,112429.972,112435.29999999702,112437.327,117383.735,8,400,8,,ISIC_0062058.JPG
break,html.Screen,4_7_1,2023-11-03T19:01:23.453Z,,0,,,NaN,,,,,,false,,,,117382.19999999553,117381.89999999851,,117381.5,,117383.735,8,400,,,
break_continue,html.Screen,4_7_2,2023-11-03T19:01:23.453Z,,0,,,NaN,,,,,,false,,,,117382.5,117382.39999999851,,117382.19999999553,,117383.735,8,400,,,
sequence,flow.Sequence,4_7,2023-11-03T19:01:23.453Z,,0,,,4945.072999998505,completion,,,,,false,,,,117382.69999999553,117382.39999999851,112429.972,112435.19999999553,112437.327,117383.735,8,400,,,
trial,html.Screen,4_8_0,2023-11-03T19:01:27.807Z,,0,1,,4352.8650000014895,response,ISIC_1668831.JPG,5,ISIC_0026039.JPG,ISIC_1668831.JPG,false,1,keypress(m),500,121736.69999999553,121736.60000000149,117376.269,117382.89999999851,117383.735,121740.345,8,400,9,,ISIC_0026039.JPG
break,html.Screen,4_8_1,2023-11-03T19:01:27.808Z,,0,,,NaN,,,,,,false,,,,121737.60000000149,121737.29999999702,,121737,,121740.345,8,400,,,
break_continue,html.Screen,4_8_2,2023-11-03T19:01:27.809Z,,0,,,NaN,,,,,,false,,,,121738,121737.79999999702,,121737.69999999553,,121740.345,8,400,,,
sequence,flow.Sequence,4_8,2023-11-03T19:01:27.809Z,,0,,,4354.064999997019,completion,,,,,false,,,,121738,121737.79999999702,117376.269,117382.79999999702,117383.735,121740.345,8,400,,,
trial,html.Screen,4_9_0,2023-11-03T19:01:32.435Z,,0,1,,4623.554999998509,response,ISIC_2007396.JPG,5,ISIC_4629662.JPG,ISIC_2007396.JPG,false,1,keypress(m),500,126364.29999999702,126363.89999999851,121733.009,121738.19999999553,121740.345,126367.462,8,400,10,,ISIC_4629662.JPG
break,html.Screen,4_9_1,2023-11-03T19:01:32.436Z,,0,,,NaN,,,,,,false,,,,126365.19999999553,126365.10000000149,,126364.60000000149,,126367.462,8,400,,,
break_continue,html.Screen,4_9_2,2023-11-03T19:01:32.436Z,,0,,,NaN,,,,,,false,,,,126365.69999999553,126365.60000000149,,126365.39999999851,,126367.462,8,400,,,
sequence,flow.Sequence,4_9,2023-11-03T19:01:32.437Z,,0,,,4625.255000001489,completion,,,,,false,,,,126365.89999999851,126365.60000000149,121733.009,121738.10000000149,121740.345,126367.462,8,400,,,
trial,html.Screen,4_10_0,2023-11-03T19:01:37.350Z,,0,1,,4912.0380000000005,response,ISIC_0055251.JPG,6,ISIC_0011668.JPG,ISIC_0011668.JPG,false,0,keypress(z),500,131279.6000000015,131279.5,126360.224,126366.10000000149,126367.462,131285.869,8,400,11,,ISIC_0055251.JPG
break,html.Screen,4_10_1,2023-11-03T19:01:37.350Z,,0,,,NaN,,,,,,false,,,,131279.8999999985,131279.79999999702,,131279.69999999553,,131285.869,8,400,,,
break_continue,html.Screen,4_10_2,2023-11-03T19:01:37.351Z,,0,,,NaN,,,,,,false,,,,131279.8999999985,131279.8999999985,,131279.8999999985,,131285.869,8,400,,,
sequence,flow.Sequence,4_10,2023-11-03T19:01:37.351Z,,0,,,4912.43799999851,completion,,,,,false,,,,131280,131279.8999999985,126360.224,126366,126367.462,131285.869,8,400,,,
trial,html.Screen,4_11_0,2023-11-03T19:01:40.792Z,,0,1,,3435.3309999955236,response,ISIC_6404049.JPG,5,ISIC_9910791.JPG,ISIC_9910791.JPG,false,0,keypress(z),500,134721.5,134721.19999999553,131278.543,131280.1000000015,131285.869,134726.953,8,400,12,,ISIC_6404049.JPG
break,html.Screen,4_11_1,2023-11-03T19:01:40.793Z,,0,,,NaN,,,,,,false,,,,134722.3999999985,134722.19999999553,,134721.79999999702,,134726.953,8,400,,,
break_continue,html.Screen,4_11_2,2023-11-03T19:01:40.793Z,,0,,,NaN,,,,,,false,,,,134722.79999999702,134722.69999999553,,134722.5,,134726.953,8,400,,,
sequence,flow.Sequence,4_11,2023-11-03T19:01:40.794Z,,0,,,3436.8309999955236,completion,,,,,false,,,,134723,134722.69999999553,131278.543,131280.1000000015,131285.869,134726.953,8,400,,,
trial,html.Screen,4_12_0,2023-11-03T19:01:46.060Z,,0,1,,5262.346999997011,response,ISIC_0031397.JPG,4,ISIC_8253317.JPG,ISIC_0031397.JPG,false,1,keypress(m),500,139989.6000000015,139989.29999999702,134719.444,134723.19999999553,134726.953,139992.272,8,400,13,,ISIC_8253317.JPG
break,html.Screen,4_12_1,2023-11-03T19:01:46.061Z,,0,,,NaN,,,,,,false,,,,139990.6000000015,139990.29999999702,,139989.8999999985,,139992.272,8,400,,,
break_continue,html.Screen,4_12_2,2023-11-03T19:01:46.062Z,,0,,,NaN,,,,,,false,,,,139991,139990.8999999985,,139990.69999999553,,139992.272,8,400,,,
sequence,flow.Sequence,4_12,2023-11-03T19:01:46.062Z,,0,,,5263.946999998501,completion,,,,,false,,,,139991.19999999553,139990.8999999985,134719.444,134723.19999999553,134726.953,139992.272,8,400,,,
trial,html.Screen,4_13_0,2023-11-03T19:01:49.521Z,,0,1,,3457.6279999985127,response,ISIC_4332885.JPG,5,ISIC_0071913.JPG,ISIC_4332885.JPG,false,1,keypress(m),500,143450.1000000015,143449.8999999985,139984.988,139991.29999999702,139992.272,143453.948,8,400,14,,ISIC_0071913.JPG
break,html.Screen,4_13_1,2023-11-03T19:01:49.522Z,,0,,,NaN,,,,,,false,,,,143451.1000000015,143450.79999999702,,143450.5,,143453.948,8,400,,,
break_continue,html.Screen,4_13_2,2023-11-03T19:01:49.522Z,,0,,,NaN,,,,,,false,,,,143451.6000000015,143451.3999999985,,143451.29999999702,,143453.948,8,400,,,
sequence,flow.Sequence,4_13,2023-11-03T19:01:49.522Z,,0,,,3459.1279999985127,completion,,,,,false,,,,143451.79999999702,143451.3999999985,139984.988,139991.29999999702,139992.272,143453.948,8,400,,,
trial,html.Screen,4_14_0,2023-11-03T19:01:53.733Z,,0,1,,4208.051999999996,response,ISIC_0028606.JPG,5,ISIC_8838753.JPG,ISIC_0028606.JPG,false,1,keypress(m),500,147662.1000000015,147662,143446.729,143451.8999999985,143453.948,147665.022,8,400,15,,ISIC_8838753.JPG
break,html.Screen,4_14_1,2023-11-03T19:01:53.733Z,,0,,,NaN,,,,,,false,,,,147662.6000000015,147662.5,,147662.3999999985,,147665.022,8,400,,,
break_continue,html.Screen,4_14_2,2023-11-03T19:01:53.733Z,,0,,,NaN,,,,,,false,,,,147662.69999999553,147662.69999999553,,147662.69999999553,,147665.022,8,400,,,
sequence,flow.Sequence,4_14,2023-11-03T19:01:53.733Z,,0,,,4208.751999995526,completion,,,,,false,,,,147662.79999999702,147662.69999999553,143446.729,143451.8999999985,143453.948,147665.022,8,400,,,
trial,html.Screen,4_15_0,2023-11-03T19:01:57.943Z,,0,1,,4206.777999997023,response,ISIC_0021894.JPG,4,ISIC_0941085.JPG,ISIC_0021894.JPG,false,1,keypress(m),500,151872.1000000015,151871.79999999702,147657.505,147662.79999999702,147665.022,151875.763,8,400,16,,ISIC_0941085.JPG
break,html.Screen,4_15_1,2023-11-03T19:01:57.944Z,,0,,,NaN,,,,,,false,,,,151873.1000000015,151872.79999999702,,151872.3999999985,,151875.763,8,400,,,
break_continue,html.Screen,4_15_2,2023-11-03T19:01:57.944Z,,0,,,NaN,,,,,,false,,,,151873.5,151873.3999999985,,151873.19999999553,,151875.763,8,400,,,
sequence,flow.Sequence,4_15,2023-11-03T19:01:57.944Z,,0,,,4208.377999998513,completion,,,,,false,,,,151873.69999999553,151873.3999999985,147657.505,147662.79999999702,147665.022,151875.763,8,400,,,
trial,html.Screen,4_16_0,2023-11-03T19:02:01.003Z,,0,1,,3056.1369999985036,response,ISIC_0059427.JPG,5,ISIC_4000087.JPG,ISIC_4000087.JPG,false,0,keypress(z),500,154932.1000000015,154931.8999999985,151868.376,151873.79999999702,151875.763,154935.16,8,400,17,,ISIC_0059427.JPG
break,html.Screen,4_16_1,2023-11-03T19:02:01.004Z,,0,,,NaN,,,,,,false,,,,154933,154932.79999999702,,154932.3999999985,,154935.16,8,400,,,
break_continue,html.Screen,4_16_2,2023-11-03T19:02:01.004Z,,0,,,NaN,,,,,,false,,,,154933.5,154933.3999999985,,154933.19999999553,,154935.16,8,400,,,
sequence,flow.Sequence,4_16,2023-11-03T19:02:01.004Z,,0,,,3057.6369999985036,completion,,,,,false,,,,154933.69999999553,154933.3999999985,151868.376,151873.79999999702,151875.763,154935.16,8,400,,,
trial,html.Screen,4_17_0,2023-11-03T19:02:06.335Z,,0,1,,5328.940000001487,response,ISIC_8704668.JPG,5,ISIC_0010061.JPG,ISIC_8704668.JPG,false,1,keypress(m),500,160264.29999999702,160264.1000000015,154927.897,154933.8999999985,154935.16,160269.842,8,400,18,,ISIC_0010061.JPG
break,html.Screen,4_17_1,2023-11-03T19:02:06.335Z,,0,,,NaN,,,,,,false,,,,160264.6000000015,160264.5,,160264.3999999985,,160269.842,8,400,,,
break_continue,html.Screen,4_17_2,2023-11-03T19:02:06.335Z,,0,,,NaN,,,,,,false,,,,160264.6000000015,160264.6000000015,,160264.6000000015,,160269.842,8,400,,,
sequence,flow.Sequence,4_17,2023-11-03T19:02:06.335Z,,0,,,5329.440000001487,completion,,,,,false,,,,160264.69999999553,160264.6000000015,154927.897,154933.79999999702,154935.16,160269.842,8,400,,,
trial,html.Screen,4_18_0,2023-11-03T19:02:09.825Z,,0,1,,3484.0579999985057,response,ISIC_3738751.JPG,4,ISIC_0268187.JPG,ISIC_0268187.JPG,false,0,keypress(z),500,163754,163753.8999999985,160262.805,160264.69999999553,160269.842,163759.168,8,400,19,,ISIC_3738751.JPG
break,html.Screen,4_18_1,2023-11-03T19:02:09.825Z,,0,,,NaN,,,,,,false,,,,163754.29999999702,163754.19999999553,,163754.1000000015,,163759.168,8,400,,,
break_continue,html.Screen,4_18_2,2023-11-03T19:02:09.825Z,,0,,,NaN,,,,,,false,,,,163754.3999999985,163754.29999999702,,163754.29999999702,,163759.168,8,400,,,
sequence,flow.Sequence,4_18,2023-11-03T19:02:09.825Z,,0,,,3484.4579999970156,completion,,,,,false,,,,163754.5,163754.29999999702,160262.805,160264.69999999553,160269.842,163759.168,8,400,,,
trial,html.Screen,4_19_0,2023-11-03T19:02:13.459Z,,0,1,,3628.432000001485,response,ISIC_6717727.JPG,5,ISIC_0024894.JPG,ISIC_6717727.JPG,false,1,keypress(m),500,167387.8999999985,167387.6000000015,163752.296,163754.5,163759.168,167394.364,8,400,20,,ISIC_0024894.JPG
break,html.Screen,4_19_1,2023-11-03T19:02:13.459Z,,0,,,NaN,,,,,,false,,,,167388.8999999985,167388.69999999553,,167388.19999999553,,167394.364,8,400,,,
break_continue,html.Screen,4_19_2,2023-11-03T19:02:13.460Z,,0,,,NaN,,,,,,false,,,,167389.29999999702,167389.19999999553,,167389,,167394.364,8,400,,,
sequence,flow.Sequence,4_19,2023-11-03T19:02:13.460Z,,0,,,3630.0319999955245,completion,,,,,false,,,,167389.5,167389.19999999553,163752.296,163754.5,163759.168,167394.364,8,400,,,
trial,html.Screen,4_20_0,2023-11-03T19:02:17.126Z,,0,1,,3660.7360000014887,response,ISIC_6265473.JPG,5,ISIC_1350519.JPG,ISIC_1350519.JPG,false,0,keypress(z),500,171055.29999999702,171055.1000000015,167387.461,167389.6000000015,167394.364,171064.442,8,400,21,,ISIC_6265473.JPG
break,html.Screen,4_20_1,2023-11-03T19:02:17.127Z,,0,,,NaN,,,,,,false,,,,171056.29999999702,171056.1000000015,,171055.6000000015,,171064.442,8,400,,,
break_continue,html.Screen,4_20_2,2023-11-03T19:02:17.127Z,,0,,,NaN,,,,,,false,,,,171056.8999999985,171056.69999999553,,171056.5,,171064.442,8,400,,,
sequence,flow.Sequence,4_20,2023-11-03T19:02:17.128Z,,0,,,3662.3359999955283,completion,,,,,false,,,,171057,171056.69999999553,167387.461,167389.6000000015,167394.364,171064.442,8,400,,,
trial,html.Screen,4_21_0,2023-11-03T19:02:20.970Z,,0,1,,3834.2579999955196,response,ISIC_4184101.JPG,4,ISIC_6072777.JPG,ISIC_4184101.JPG,false,1,keypress(m),500,174899,174898.69999999553,171050.191,171057.19999999553,171064.442,174908.486,8,400,22,,ISIC_6072777.JPG
break,html.Screen,4_21_1,2023-11-03T19:02:20.970Z,,0,,,NaN,,,,,,false,,,,174899.79999999702,174899.69999999553,,174899.19999999553,,174908.486,8,400,,,
break_continue,html.Screen,4_21_2,2023-11-03T19:02:20.971Z,,0,,,NaN,,,,,,false,,,,174900.29999999702,174900.19999999553,,174900,,174908.486,8,400,,,
sequence,flow.Sequence,4_21,2023-11-03T19:02:20.971Z,,0,,,3835.7579999955196,completion,,,,,false,,,,174900.6000000015,174900.19999999553,171050.191,171057.19999999553,171064.442,174908.486,8,400,,,
trial,html.Screen,4_22_0,2023-11-03T19:02:24.573Z,,0,1,,3593.8139999970153,response,ISIC_4957315.JPG,5,ISIC_3893354.JPG,ISIC_4957315.JPG,false,1,keypress(m),500,178502.3999999985,178502.29999999702,174893.457,174900.8999999985,174908.486,178507.852,8,400,23,,ISIC_3893354.JPG
break,html.Screen,4_22_1,2023-11-03T19:02:24.574Z,,0,,,NaN,,,,,,false,,,,178503.19999999553,178503,,178502.6000000015,,178507.852,8,400,,,
break_continue,html.Screen,4_22_2,2023-11-03T19:02:24.574Z,,0,,,NaN,,,,,,false,,,,178503.6000000015,178503.5,,178503.29999999702,,178507.852,8,400,,,
sequence,flow.Sequence,4_22,2023-11-03T19:02:24.575Z,,0,,,3595.0139999999956,completion,,,,,false,,,,178503.8999999985,178503.5,174893.457,174900.79999999702,174908.486,178507.852,8,400,,,
trial,html.Screen,4_23_0,2023-11-03T19:02:28.176Z,,0,1,,3597.5479999984964,response,ISIC_0031545.JPG,6,ISIC_0027674.JPG,ISIC_0027674.JPG,false,0,keypress(z),500,182105.79999999702,182105.3999999985,178500.949,178504.1000000015,178507.852,182108.388,8,400,24,,ISIC_0031545.JPG
break,html.Screen,4_23_1,2023-11-03T19:02:28.177Z,,0,,,NaN,,,,,,false,,,,182106.69999999553,182106.5,,182106.1000000015,,182108.388,8,400,,,
break_continue,html.Screen,4_23_2,2023-11-03T19:02:28.178Z,,0,,,NaN,,,,,,false,,,,182107.1000000015,182107,,182106.79999999702,,182108.388,8,400,,,
sequence,flow.Sequence,4_23,2023-11-03T19:02:28.178Z,,0,,,3599.1479999999865,completion,,,,,false,,,,182107.29999999702,182107,178500.949,178504,178507.852,182108.388,8,400,,,
trial,html.Screen,4_24_0,2023-11-03T19:02:32.613Z,,0,1,,4433.9119999970135,response,ISIC_0027431.JPG,5,ISIC_9141817.JPG,ISIC_0027431.JPG,false,1,keypress(m),500,186542.6000000015,186542.29999999702,182101.478,182107.5,182108.388,186548.179,8,400,25,,ISIC_9141817.JPG
break,html.Screen,4_24_1,2023-11-03T19:02:32.614Z,,0,,,NaN,,,,,,false,,,,186543.5,186543.29999999702,,186542.8999999985,,186548.179,8,400,,,
break_continue,html.Screen,4_24_2,2023-11-03T19:02:32.615Z,,0,,,NaN,,,,,,false,,,,186544,186543.8999999985,,186543.6000000015,,186548.179,8,400,,,
sequence,flow.Sequence,4_24,2023-11-03T19:02:32.615Z,,0,,,4435.511999998504,completion,,,,,false,,,,186544.1000000015,186543.8999999985,182101.478,182107.5,182108.388,186548.179,8,400,,,
trial,html.Screen,4_25_0,2023-11-03T19:02:36.744Z,,0,1,,4125.320999999996,response,ISIC_0026897.JPG,6,ISIC_0066882.JPG,ISIC_0066882.JPG,false,0,keypress(z),500,190673.69999999553,190673.5,186541.161,186544.29999999702,186548.179,190675.825,8,400,26,,ISIC_0026897.JPG
break,html.Screen,4_25_1,2023-11-03T19:02:36.745Z,,0,,,NaN,,,,,,false,,,,190674,190673.8999999985,,190673.79999999702,,190675.825,8,400,,,
break_continue,html.Screen,4_25_2,2023-11-03T19:02:36.745Z,,0,,,NaN,,,,,,false,,,,190674.1000000015,190674.1000000015,,190674,,190675.825,8,400,,,
sequence,flow.Sequence,4_25,2023-11-03T19:02:36.745Z,,0,,,4125.921000001486,completion,,,,,false,,,,190674.1000000015,190674.1000000015,186541.161,186544.29999999702,186548.179,190675.825,8,400,,,
trial,html.Screen,4_26_0,2023-11-03T19:02:40.731Z,,0,1,,3983.974999997008,response,ISIC_3327201.JPG,4,ISIC_0011798.JPG,ISIC_3327201.JPG,false,1,keypress(m),500,194660,194659.79999999702,190668.756,190674.1000000015,190675.825,194664.753,8,400,27,,ISIC_0011798.JPG
break,html.Screen,4_26_1,2023-11-03T19:02:40.732Z,,0,,,NaN,,,,,,false,,,,194660.8999999985,194660.69999999553,,194660.29999999702,,194664.753,8,400,,,
break_continue,html.Screen,4_26_2,2023-11-03T19:02:40.732Z,,0,,,NaN,,,,,,false,,,,194661.3999999985,194661.29999999702,,194661.19999999553,,194664.753,8,400,,,
sequence,flow.Sequence,4_26,2023-11-03T19:02:40.732Z,,0,,,3985.474999997008,completion,,,,,false,,,,194661.6000000015,194661.29999999702,190668.756,190674.1000000015,190675.825,194664.753,8,400,,,
trial,html.Screen,4_27_0,2023-11-03T19:02:44.895Z,,0,1,,4158.847000001493,response,ISIC_0000306.JPG,5,ISIC_0004564.JPG,ISIC_0004564.JPG,false,0,keypress(z),500,198824,198823.6000000015,194657.753,194661.69999999553,194664.753,198827.2,8,400,28,,ISIC_0000306.JPG
break,html.Screen,4_27_1,2023-11-03T19:02:44.896Z,,0,,,NaN,,,,,,false,,,,198824.8999999985,198824.69999999553,,198824.29999999702,,198827.2,8,400,,,
break_continue,html.Screen,4_27_2,2023-11-03T19:02:44.896Z,,0,,,NaN,,,,,,false,,,,198825.29999999702,198825.19999999553,,198825.1000000015,,198827.2,8,400,,,
sequence,flow.Sequence,4_27,2023-11-03T19:02:44.896Z,,0,,,4160.446999995533,completion,,,,,false,,,,198825.5,198825.19999999553,194657.753,194661.69999999553,194664.753,198827.2,8,400,,,
trial,html.Screen,4_28_0,2023-11-03T19:02:49.154Z,,0,1,,4255.699999998498,response,ISIC_4237064.JPG,5,ISIC_0061359.JPG,ISIC_4237064.JPG,false,1,keypress(m),500,203083.19999999553,203082.8999999985,198820.194,198825.69999999553,198827.2,203086.685,8,400,29,,ISIC_0061359.JPG
break,html.Screen,4_28_1,2023-11-03T19:02:49.155Z,,0,,,NaN,,,,,,false,,,,203084.1000000015,203083.8999999985,,203083.3999999985,,203086.685,8,400,,,
break_continue,html.Screen,4_28_2,2023-11-03T19:02:49.157Z,,0,,,NaN,,,,,,false,,,,203086,203085.79999999702,,203085.5,,203086.685,8,400,,,
sequence,flow.Sequence,4_28,2023-11-03T19:02:49.157Z,,0,,,4258.599999997008,completion,,,,,false,,,,203086.19999999553,203085.79999999702,198820.194,198825.6000000015,198827.2,203086.685,8,400,,,
trial,html.Screen,4_29_0,2023-11-03T19:02:52.647Z,,0,1,,3489.514999995532,response,ISIC_7387061.JPG,5,ISIC_0067805.JPG,ISIC_7387061.JPG,false,1,keypress(m),500,206576.6000000015,206576.19999999553,203079.53,203086.29999999702,203086.685,206583.052,8,400,30,,ISIC_0067805.JPG
break,html.Screen,4_29_1,2023-11-03T19:02:52.648Z,,0,,,NaN,,,,,,false,,,,206577.5,206577.19999999553,,206576.79999999702,,206583.052,8,400,,,
break_continue,html.Screen,4_29_2,2023-11-03T19:02:52.649Z,,0,,,NaN,,,,,,false,,,,206577.8999999985,206577.69999999553,,206577.6000000015,,206583.052,8,400,,,
sequence,flow.Sequence,4_29,2023-11-03T19:02:52.649Z,,0,,,3491.014999995532,completion,,,,,false,,,,206578.1000000015,206577.69999999553,203079.53,203086.29999999702,203086.685,206583.052,8,400,,,
trial,html.Screen,4_30_0,2023-11-03T19:02:57.451Z,,0,1,,4796.747999997024,response,ISIC_0000226.JPG,4,ISIC_0000310.JPG,ISIC_0000226.JPG,false,1,keypress(m),500,211380.19999999553,211379.79999999702,206575.929,206578.29999999702,206583.052,211383.628,8,400,31,,ISIC_0000310.JPG
break,html.Screen,4_30_1,2023-11-03T19:02:57.452Z,,0,,,NaN,,,,,,false,,,,211381.1000000015,211380.8999999985,,211380.3999999985,,211383.628,8,400,,,
break_continue,html.Screen,4_30_2,2023-11-03T19:02:57.452Z,,0,,,NaN,,,,,,false,,,,211381.5,211381.3999999985,,211381.29999999702,,211383.628,8,400,,,
sequence,flow.Sequence,4_30,2023-11-03T19:02:57.452Z,,0,,,4798.347999998514,completion,,,,,false,,,,211381.69999999553,211381.3999999985,206575.929,206578.19999999553,206583.052,211383.628,8,400,,,
trial,html.Screen,4_31_0,2023-11-03T19:03:00.991Z,,0,1,,3536.171999997023,response,ISIC_3485583.JPG,5,ISIC_0055498.JPG,ISIC_3485583.JPG,false,1,keypress(m),500,214920.19999999553,214919.79999999702,211376.589,211381.79999999702,211383.628,214929.437,8,400,32,,ISIC_0055498.JPG
break,html.Screen,4_31_1,2023-11-03T19:03:00.992Z,,0,,,NaN,,,,,,false,,,,214921,214920.8999999985,,214920.5,,214929.437,8,400,,,
break_continue,html.Screen,4_31_2,2023-11-03T19:03:00.992Z,,0,,,NaN,,,,,,false,,,,214921.6000000015,214921.3999999985,,214921.19999999553,,214929.437,8,400,,,
sequence,flow.Sequence,4_31,2023-11-03T19:03:00.992Z,,0,,,3537.771999998513,completion,,,,,false,,,,214921.69999999553,214921.3999999985,211376.589,211381.79999999702,211383.628,214929.437,8,400,,,
trial,html.Screen,4_32_0,2023-11-03T19:03:05.667Z,,0,1,,4666.262999995524,response,ISIC_0004217.JPG,5,ISIC_0010543.JPG,ISIC_0004217.JPG,false,1,keypress(m),500,219596,219595.69999999553,214914.463,214921.79999999702,214929.437,219611.24,8,400,33,,ISIC_0010543.JPG
break,html.Screen,4_32_1,2023-11-03T19:03:05.668Z,,0,,,NaN,,,,,,false,,,,219596.8999999985,219596.6000000015,,219596.19999999553,,219611.24,8,400,,,
break_continue,html.Screen,4_32_2,2023-11-03T19:03:05.668Z,,0,,,NaN,,,,,,false,,,,219597.29999999702,219597.1000000015,,219597,,219611.24,8,400,,,
sequence,flow.Sequence,4_32,2023-11-03T19:03:05.668Z,,0,,,4667.663000001485,completion,,,,,false,,,,219597.5,219597.1000000015,214914.463,214921.79999999702,214929.437,219611.24,8,400,,,
trial,html.Screen,4_33_0,2023-11-03T19:03:09.127Z,,0,1,,3444.459999995539,response,ISIC_0024256.JPG,6,ISIC_5272345.JPG,ISIC_5272345.JPG,false,0,keypress(z),500,223055.8999999985,223055.69999999553,219605.585,219597.6000000015,219611.24,223059.069,8,400,34,,ISIC_0024256.JPG
break,html.Screen,4_33_1,2023-11-03T19:03:09.128Z,,0,,,NaN,,,,,,false,,,,223056.8999999985,223056.69999999553,,223056.19999999553,,223059.069,8,400,,,
break_continue,html.Screen,4_33_2,2023-11-03T19:03:09.128Z,,0,,,NaN,,,,,,false,,,,223057.3999999985,223057.29999999702,,223057.1000000015,,223059.069,8,400,,,
sequence,flow.Sequence,4_33,2023-11-03T19:03:09.128Z,,0,,,3446.059999997029,completion,,,,,false,,,,223057.5,223057.29999999702,219605.585,219597.6000000015,219611.24,223059.069,8,400,,,
trial,html.Screen,4_34_0,2023-11-03T19:03:12.970Z,,0,1,,3840.130999995541,response,ISIC_0014110.JPG,5,ISIC_4329176.JPG,ISIC_4329176.JPG,false,0,keypress(z),500,226899.5,226899.19999999553,223051.953,223057.69999999553,223059.069,226902.318,8,400,35,,ISIC_0014110.JPG
break,html.Screen,4_34_1,2023-11-03T19:03:12.971Z,,0,,,NaN,,,,,,false,,,,226900.6000000015,226900.29999999702,,226899.8999999985,,226902.318,8,400,,,
break_continue,html.Screen,4_34_2,2023-11-03T19:03:12.972Z,,0,,,NaN,,,,,,false,,,,226901,226900.8999999985,,226900.79999999702,,226902.318,8,400,,,
sequence,flow.Sequence,4_34,2023-11-03T19:03:12.972Z,,0,,,3841.8309999985213,completion,,,,,false,,,,226901.19999999553,226900.8999999985,223051.953,223057.6000000015,223059.069,226902.318,8,400,,,
trial,html.Screen,4_35_0,2023-11-03T19:03:16.238Z,,0,1,,3264.6820000000007,response,ISIC_0014013.JPG,5,ISIC_0000042.JPG,ISIC_0014013.JPG,false,1,keypress(m),500,230167.29999999702,230167,226895.005,226901.3999999985,226902.318,230169.774,8,400,36,,ISIC_0000042.JPG
break,html.Screen,4_35_1,2023-11-03T19:03:16.239Z,,0,,,NaN,,,,,,false,,,,230168.19999999553,230168,,230167.5,,230169.774,8,400,,,
break_continue,html.Screen,4_35_2,2023-11-03T19:03:16.239Z,,0,,,NaN,,,,,,false,,,,230168.6000000015,230168.5,,230168.3999999985,,230169.774,8,400,,,
sequence,flow.Sequence,4_35,2023-11-03T19:03:16.239Z,,0,,,3266.1820000000007,completion,,,,,false,,,,230168.79999999702,230168.5,226895.005,226901.29999999702,226902.318,230169.774,8,400,,,
trial,html.Screen,4_36_0,2023-11-03T19:03:20.003Z,,0,1,,3762.125999998505,response,ISIC_7717907.JPG,5,ISIC_0016112.JPG,ISIC_7717907.JPG,false,1,keypress(m),500,233932.19999999553,233931.8999999985,230162.275,230169,230169.774,233936.636,8,400,37,,ISIC_0016112.JPG
break,html.Screen,4_36_1,2023-11-03T19:03:20.004Z,,0,,,NaN,,,,,,false,,,,233933.19999999553,233932.8999999985,,233932.3999999985,,233936.636,8,400,,,
break_continue,html.Screen,4_36_2,2023-11-03T19:03:20.004Z,,0,,,NaN,,,,,,false,,,,233933.6000000015,233933.3999999985,,233933.19999999553,,233936.636,8,400,,,
sequence,flow.Sequence,4_36,2023-11-03T19:03:20.004Z,,0,,,3763.625999998505,completion,,,,,false,,,,233933.79999999702,233933.3999999985,230162.275,230168.8999999985,230169.774,233936.636,8,400,,,
trial,html.Screen,4_37_0,2023-11-03T19:03:23.847Z,,0,1,,3839.063999995531,response,ISIC_3913709.JPG,5,ISIC_9260499.JPG,ISIC_9260499.JPG,false,0,keypress(z),500,237776,237775.69999999553,233929.427,233933.8999999985,233936.636,237779.933,8,400,38,,ISIC_3913709.JPG
break,html.Screen,4_37_1,2023-11-03T19:03:23.848Z,,0,,,NaN,,,,,,false,,,,237776.8999999985,237776.79999999702,,237776.29999999702,,237779.933,8,400,,,
break_continue,html.Screen,4_37_2,2023-11-03T19:03:23.848Z,,0,,,NaN,,,,,,false,,,,237777.3999999985,237777.29999999702,,237777.1000000015,,237779.933,8,400,,,
sequence,flow.Sequence,4_37,2023-11-03T19:03:23.848Z,,0,,,3840.663999997021,completion,,,,,false,,,,237777.5,237777.29999999702,233929.427,233933.8999999985,233936.636,237779.933,8,400,,,
trial,html.Screen,4_38_0,2023-11-03T19:03:28.427Z,,0,1,,4575.76699999554,response,ISIC_3291765.JPG,5,ISIC_7976934.JPG,ISIC_7976934.JPG,false,0,keypress(z),500,242356,242355.69999999553,237772.75,237777.69999999553,237779.933,242358.543,8,400,39,,ISIC_3291765.JPG
break,html.Screen,4_38_1,2023-11-03T19:03:28.428Z,,0,,,NaN,,,,,,false,,,,242356.8999999985,242356.69999999553,,242356.29999999702,,242358.543,8,400,,,
break_continue,html.Screen,4_38_2,2023-11-03T19:03:28.428Z,,0,,,NaN,,,,,,false,,,,242357.3999999985,242357.19999999553,,242357.1000000015,,242358.543,8,400,,,
sequence,flow.Sequence,4_38,2023-11-03T19:03:28.428Z,,0,,,4577.26699999554,completion,,,,,false,,,,242357.69999999553,242357.19999999553,237772.75,237777.69999999553,237779.933,242358.543,8,400,,,
trial,html.Screen,4_39_0,2023-11-03T19:03:32.576Z,,0,1,,4145.256999997015,response,ISIC_3617159.JPG,5,ISIC_1977265.JPG,ISIC_3617159.JPG,false,1,keypress(m),500,246505,246503.79999999702,242351.212,242357.79999999702,242358.543,246514.219,8,400,40,,ISIC_1977265.JPG
break,html.Screen,4_39_1,2023-11-03T19:03:32.577Z,,0,,,NaN,,,,,,false,,,,246506,246505.79999999702,,246505.29999999702,,246514.219,8,400,,,
break_continue,html.Screen,4_39_2,2023-11-03T19:03:32.577Z,,0,,,NaN,,,,,,false,,,,246506.3999999985,246506.29999999702,,246506.19999999553,,246514.219,8,400,,,
sequence,flow.Sequence,4_39,2023-11-03T19:03:32.577Z,,0,,,4147.756999997015,completion,,,,,false,,,,246506.69999999553,246506.29999999702,242351.212,242357.69999999553,242358.543,246514.219,8,400,,,
trial,html.Screen,4_40_0,2023-11-03T19:03:35.796Z,,0,1,,3210.680999998498,response,ISIC_0054185.JPG,5,ISIC_0026086.JPG,ISIC_0026086.JPG,false,0,keypress(z),500,249725.19999999553,249724.8999999985,246499.529,246506.79999999702,246514.219,249732.791,8,400,41,,ISIC_0054185.JPG
break,html.Screen,4_40_1,2023-11-03T19:03:35.797Z,,0,,,NaN,,,,,,false,,,,249726,249725.79999999702,,249725.3999999985,,249732.791,8,400,,,
break_continue,html.Screen,4_40_2,2023-11-03T19:03:35.797Z,,0,,,NaN,,,,,,false,,,,249726.3999999985,249726.29999999702,,249726.19999999553,,249732.791,8,400,,,
sequence,flow.Sequence,4_40,2023-11-03T19:03:35.797Z,,0,,,3212.080999997008,completion,,,,,false,,,,249726.69999999553,249726.29999999702,246499.529,246506.79999999702,246514.219,249732.791,8,400,,,
trial,html.Screen,4_41_0,2023-11-03T19:03:38.584Z,,0,1,,2780.0089999970223,response,ISIC_8680266.JPG,5,ISIC_0070814.JPG,ISIC_8680266.JPG,false,1,keypress(m),500,252513.19999999553,252512.79999999702,249725.501,249726.79999999702,249732.791,252522.718,8,400,42,,ISIC_0070814.JPG
break,html.Screen,4_41_1,2023-11-03T19:03:38.585Z,,0,,,NaN,,,,,,false,,,,252514,252513.8999999985,,252513.3999999985,,252522.718,8,400,,,
break_continue,html.Screen,4_41_2,2023-11-03T19:03:38.585Z,,0,,,NaN,,,,,,false,,,,252514.5,252514.29999999702,,252514.29999999702,,252522.718,8,400,,,
sequence,flow.Sequence,4_41,2023-11-03T19:03:38.585Z,,0,,,2781.5089999970223,completion,,,,,false,,,,252514.69999999553,252514.29999999702,249725.501,249726.69999999553,249732.791,252522.718,8,400,,,
trial,html.Screen,4_42_0,2023-11-03T19:03:42.508Z,,0,1,,3913.981999995536,response,ISIC_8011058.JPG,6,ISIC_2801008.JPG,ISIC_2801008.JPG,false,0,keypress(z),500,256437,256436.69999999553,252507.637,252514.79999999702,252522.718,256448.018,8,400,43,,ISIC_8011058.JPG
break,html.Screen,4_42_1,2023-11-03T19:03:42.509Z,,0,,,NaN,,,,,,false,,,,256438,256437.69999999553,,256437.3999999985,,256448.018,8,400,,,
break_continue,html.Screen,4_42_2,2023-11-03T19:03:42.509Z,,0,,,NaN,,,,,,false,,,,256438.29999999702,256438.19999999553,,256438.1000000015,,256448.018,8,400,,,
sequence,flow.Sequence,4_42,2023-11-03T19:03:42.509Z,,0,,,3915.481999995536,completion,,,,,false,,,,256438.6000000015,256438.19999999553,252507.637,252514.79999999702,252522.718,256448.018,8,400,,,
trial,html.Screen,4_43_0,2023-11-03T19:03:46.272Z,,0,1,,3753.381999998499,response,ISIC_0072582.JPG,5,ISIC_0031494.JPG,ISIC_0031494.JPG,false,0,keypress(z),500,260201.69999999553,260201.3999999985,256441.192,256438.69999999553,256448.018,260208.092,8,400,44,,ISIC_0072582.JPG
break,html.Screen,4_43_1,2023-11-03T19:03:46.273Z,,0,,,NaN,,,,,,false,,,,260202.6000000015,260202.3999999985,,260202,,260208.092,8,400,,,
break_continue,html.Screen,4_43_2,2023-11-03T19:03:46.274Z,,0,,,NaN,,,,,,false,,,,260203,260202.8999999985,,260202.69999999553,,260208.092,8,400,,,
sequence,flow.Sequence,4_43,2023-11-03T19:03:46.274Z,,0,,,3754.881999998499,completion,,,,,false,,,,260203.19999999553,260202.8999999985,256441.192,256438.69999999553,256448.018,260208.092,8,400,,,
trial,html.Screen,4_44_0,2023-11-03T19:03:50.228Z,,0,1,,3949.008000001486,response,ISIC_2489146.JPG,5,ISIC_9596721.JPG,ISIC_9596721.JPG,false,0,keypress(z),500,264157.5,264157.1000000015,260200.719,260203.29999999702,260208.092,264162.373,8,400,45,,ISIC_2489146.JPG
break,html.Screen,4_44_1,2023-11-03T19:03:50.229Z,,0,,,NaN,,,,,,false,,,,264158.3999999985,264158.19999999553,,264157.69999999553,,264162.373,8,400,,,
break_continue,html.Screen,4_44_2,2023-11-03T19:03:50.229Z,,0,,,NaN,,,,,,false,,,,264158.799999997,264158.69999999553,,264158.5,,264162.373,8,400,,,
sequence,flow.Sequence,4_44,2023-11-03T19:03:50.230Z,,0,,,3950.6079999955255,completion,,,,,false,,,,264158.8999999985,264158.69999999553,260200.719,260203.29999999702,260208.092,264162.373,8,400,,,
trial,html.Screen,4_45_0,2023-11-03T19:03:54.375Z,,0,1,,4142.126999999979,response,ISIC_0034046.JPG,4,ISIC_1996356.JPG,ISIC_1996356.JPG,false,0,keypress(z),500,268304.799999997,268304.5,264155.072,264159.1000000015,264162.373,268310.689,8,400,46,,ISIC_0034046.JPG
break,html.Screen,4_45_1,2023-11-03T19:03:54.376Z,,0,,,NaN,,,,,,false,,,,268305.69999999553,268305.5,,268305.1000000015,,268310.689,8,400,,,
break_continue,html.Screen,4_45_2,2023-11-03T19:03:54.377Z,,0,,,NaN,,,,,,false,,,,268306.1000000015,268305.8999999985,,268305.8999999985,,268310.689,8,400,,,
sequence,flow.Sequence,4_45,2023-11-03T19:03:54.377Z,,0,,,4143.5269999984885,completion,,,,,false,,,,268306.299999997,268305.8999999985,264155.072,264159,264162.373,268310.689,8,400,,,
trial,html.Screen,4_46_0,2023-11-03T19:03:57.852Z,,0,1,,3469.911000001477,response,ISIC_0016050.JPG,4,ISIC_0064107.JPG,ISIC_0016050.JPG,false,1,keypress(m),500,271781,271780.6000000015,268303.679,268306.3999999985,268310.689,271786.306,8,400,47,,ISIC_0064107.JPG
break,html.Screen,4_46_1,2023-11-03T19:03:57.852Z,,0,,,NaN,,,,,,false,,,,271781.799999997,271781.69999999553,,271781.19999999553,,271786.306,8,400,,,
break_continue,html.Screen,4_46_2,2023-11-03T19:03:57.853Z,,0,,,NaN,,,,,,false,,,,271782.19999999553,271782.1000000015,,271782,,271786.306,8,400,,,
sequence,flow.Sequence,4_46,2023-11-03T19:03:57.853Z,,0,,,3471.411000001477,completion,,,,,false,,,,271782.5,271782.1000000015,268303.679,268306.3999999985,268310.689,271786.306,8,400,,,
trial,html.Screen,4_47_0,2023-11-03T19:04:01.696Z,,0,1,,3838.294000001508,response,ISIC_0011077.JPG,4,ISIC_2819798.JPG,ISIC_0011077.JPG,false,1,keypress(m),500,275624.8999999985,275624.6000000015,271779.04,271782.6000000015,271786.306,275629.571,8,400,48,,ISIC_2819798.JPG
break,html.Screen,4_47_1,2023-11-03T19:04:01.696Z,,0,,,NaN,,,,,,false,,,,275625.8999999985,275625.69999999553,,275625.19999999553,,275629.571,8,400,,,
break_continue,html.Screen,4_47_2,2023-11-03T19:04:01.697Z,,0,,,NaN,,,,,,false,,,,275626.299999997,275626.1000000015,,275625.8999999985,,275629.571,8,400,,,
sequence,flow.Sequence,4_47,2023-11-03T19:04:01.697Z,,0,,,3839.794000001508,completion,,,,,false,,,,275626.3999999985,275626.1000000015,271779.04,271782.6000000015,271786.306,275629.571,8,400,,,
trial,html.Screen,4_48_0,2023-11-03T19:04:05.827Z,,0,1,,4126.529000001494,response,ISIC_0027663.JPG,4,ISIC_9271800.JPG,ISIC_9271800.JPG,false,0,keypress(z),500,279756.5,279756.1000000015,275622.603,275626.6000000015,275629.571,279764.208,8,400,49,,ISIC_0027663.JPG
break,html.Screen,4_48_1,2023-11-03T19:04:05.828Z,,0,,,NaN,,,,,,false,,,,279757.3999999985,279757.19999999553,,279756.69999999553,,279764.208,8,400,,,
break_continue,html.Screen,4_48_2,2023-11-03T19:04:05.828Z,,0,,,NaN,,,,,,false,,,,279757.799999997,279757.6000000015,,279757.5,,279764.208,8,400,,,
sequence,flow.Sequence,4_48,2023-11-03T19:04:05.829Z,,0,,,4128.029000001494,completion,,,,,false,,,,279757.8999999985,279757.6000000015,275622.603,275626.6000000015,275629.571,279764.208,8,400,,,
trial,html.Screen,4_49_0,2023-11-03T19:04:09.640Z,,0,1,,3805.292000000016,response,ISIC_2008230.JPG,5,ISIC_5238111.JPG,ISIC_5238111.JPG,false,0,keypress(z),500,283569.799999997,283569.5,279757.057,279758.1000000015,279764.208,283572.791,8,400,50,,ISIC_2008230.JPG
break,html.Screen,4_49_1,2023-11-03T19:04:19.634Z,,0,,,9996.524999999965,timeout,,,,,false,,,,293562.8999999985,293562.406,283565.569,283570,283572.791,293569.316,8,400,,,
break_continue,html.Screen,4_49_2,2023-11-03T19:04:20.937Z,,0,,,1293.5839999985183,response,,,,,false,continue,keypress(Space),,294866,294862.8999999985,293562.406,293562.8999999985,293569.316,294880.439,8,400,,,
sequence,flow.Sequence,4_49,2023-11-03T19:04:20.937Z,,0,,,15098.691999998526,completion,,,,,false,,,,294866,294862.8999999985,279757.057,279758,279764.208,294880.439,8,400,,,
trial,html.Screen,4_50_0,2023-11-03T19:04:24.075Z,,0,2,,3123.661000001477,response,ISIC_0071289.JPG,4,ISIC_0378399.JPG,ISIC_0378399.JPG,false,0,keypress(z),500,298004.3999999985,298004.1000000015,294873.612,294866.1000000015,294880.439,298009.265,8,400,1,,ISIC_0071289.JPG
break,html.Screen,4_50_1,2023-11-03T19:04:24.076Z,,0,,,NaN,,,,,,false,,,,298005.299999997,298005.1000000015,,298004.69999999553,,298009.265,8,400,,,
break_continue,html.Screen,4_50_2,2023-11-03T19:04:24.076Z,,0,,,NaN,,,,,,false,,,,298005.799999997,298005.69999999553,,298005.5,,298009.265,8,400,,,
sequence,flow.Sequence,4_50,2023-11-03T19:04:24.077Z,,0,,,3125.2609999955166,completion,,,,,false,,,,298005.8999999985,298005.69999999553,294873.612,294866.1000000015,294880.439,298009.265,8,400,,,
trial,html.Screen,4_51_0,2023-11-03T19:04:27.614Z,,0,2,,3534.134999998496,response,ISIC_8013225.JPG,4,ISIC_0025748.JPG,ISIC_8013225.JPG,false,1,keypress(m),500,301543.69999999553,301543.3999999985,298002.173,298006.1000000015,298009.265,301547.291,8,400,2,,ISIC_0025748.JPG
break,html.Screen,4_51_1,2023-11-03T19:04:27.615Z,,0,,,NaN,,,,,,false,,,,301544.6000000015,301544.3999999985,,301544,,301547.291,8,400,,,
break_continue,html.Screen,4_51_2,2023-11-03T19:04:27.616Z,,0,,,NaN,,,,,,false,,,,301545.1000000015,301544.8999999985,,301544.799999997,,301547.291,8,400,,,
sequence,flow.Sequence,4_51,2023-11-03T19:04:27.616Z,,0,,,3535.634999998496,completion,,,,,false,,,,301545.299999997,301544.8999999985,298002.173,298006.1000000015,298009.265,301547.291,8,400,,,
trial,html.Screen,4_52_0,2023-11-03T19:04:31.235Z,,0,2,,3616.2089999999735,response,ISIC_2612661.JPG,4,ISIC_0063191.JPG,ISIC_2612661.JPG,false,1,keypress(m),500,305163.799999997,305163.5,301540.235,301545.3999999985,301547.291,305168.529,8,400,3,,ISIC_0063191.JPG
break,html.Screen,4_52_1,2023-11-03T19:04:31.235Z,,0,,,NaN,,,,,,false,,,,305164.799999997,305164.6000000015,,305164.19999999553,,305168.529,8,400,,,
break_continue,html.Screen,4_52_2,2023-11-03T19:04:31.236Z,,0,,,NaN,,,,,,false,,,,305165.19999999553,305165.1000000015,,305164.8999999985,,305168.529,8,400,,,
sequence,flow.Sequence,4_52,2023-11-03T19:04:31.236Z,,0,,,3617.8090000014636,completion,,,,,false,,,,305165.5,305165.1000000015,301540.235,301545.3999999985,301547.291,305168.529,8,400,,,
trial,html.Screen,4_53_0,2023-11-03T19:04:34.630Z,,0,2,,3390.4710000000196,response,ISIC_6188469.JPG,5,ISIC_0031926.JPG,ISIC_6188469.JPG,false,1,keypress(m),500,308559.1000000015,308559,305161.358,305165.6000000015,305168.529,308560.777,8,400,4,,ISIC_0031926.JPG
break,html.Screen,4_53_1,2023-11-03T19:04:34.630Z,,0,,,NaN,,,,,,false,,,,308559.3999999985,308559.299999997,,308559.19999999553,,308560.777,8,400,,,
break_continue,html.Screen,4_53_2,2023-11-03T19:04:34.630Z,,0,,,NaN,,,,,,false,,,,308559.5,308559.3999999985,,308559.3999999985,,308560.777,8,400,,,
sequence,flow.Sequence,4_53,2023-11-03T19:04:34.630Z,,0,,,3390.8709999985294,completion,,,,,false,,,,308559.6000000015,308559.3999999985,305161.358,305165.5,305168.529,308560.777,8,400,,,
trial,html.Screen,4_54_0,2023-11-03T19:04:38.760Z,,0,2,,4127.922999995528,response,ISIC_0066366.JPG,5,ISIC_8979567.JPG,ISIC_8979567.JPG,false,0,keypress(z),500,312689.1000000015,312688.69999999553,308553.722,308559.6000000015,308560.777,312695.381,8,400,5,,ISIC_0066366.JPG
break,html.Screen,4_54_1,2023-11-03T19:04:38.761Z,,0,,,NaN,,,,,,false,,,,312690,312689.799999997,,312689.299999997,,312695.381,8,400,,,
break_continue,html.Screen,4_54_2,2023-11-03T19:04:38.761Z,,0,,,NaN,,,,,,false,,,,312690.3999999985,312690.19999999553,,312690.1000000015,,312695.381,8,400,,,
sequence,flow.Sequence,4_54,2023-11-03T19:04:38.761Z,,0,,,4129.422999995528,completion,,,,,false,,,,312690.5,312690.19999999553,308553.722,308559.6000000015,308560.777,312695.381,8,400,,,
trial,html.Screen,4_55_0,2023-11-03T19:04:42.428Z,,0,2,,3662.018999998516,response,ISIC_0065121.JPG,5,ISIC_7017547.JPG,ISIC_7017547.JPG,false,0,keypress(z),500,316357.69999999553,316357.3999999985,312688.429,312690.799999997,312695.381,316365.202,8,400,6,,ISIC_0065121.JPG
break,html.Screen,4_55_1,2023-11-03T19:04:42.429Z,,0,,,NaN,,,,,,false,,,,316358.69999999553,316358.5,,316358,,316365.202,8,400,,,
break_continue,html.Screen,4_55_2,2023-11-03T19:04:42.430Z,,0,,,NaN,,,,,,false,,,,316359.19999999553,316359.1000000015,,316358.8999999985,,316365.202,8,400,,,
sequence,flow.Sequence,4_55,2023-11-03T19:04:42.430Z,,0,,,3663.719000001496,completion,,,,,false,,,,316359.3999999985,316359.1000000015,312688.429,312690.6000000015,312695.381,316365.202,8,400,,,
trial,html.Screen,4_56_0,2023-11-03T19:04:46.704Z,,0,2,,4268.09799999703,response,ISIC_0027561.JPG,5,ISIC_0002041.JPG,ISIC_0002041.JPG,false,0,keypress(z),500,320633.3999999985,320633.299999997,316358.171,316359.6000000015,316365.202,320638.478,8,400,7,,ISIC_0027561.JPG
break,html.Screen,4_56_1,2023-11-03T19:04:46.704Z,,0,,,NaN,,,,,,false,,,,320633.69999999553,320633.6000000015,,320633.3999999985,,320638.478,8,400,,,
break_continue,html.Screen,4_56_2,2023-11-03T19:04:46.705Z,,0,,,NaN,,,,,,false,,,,320633.799999997,320633.799999997,,320633.799999997,,320638.478,8,400,,,
sequence,flow.Sequence,4_56,2023-11-03T19:04:46.705Z,,0,,,4268.59799999703,completion,,,,,false,,,,320633.8999999985,320633.799999997,316358.171,316359.5,316365.202,320638.478,8,400,,,
trial,html.Screen,4_57_0,2023-11-03T19:04:50.402Z,,0,2,,3692.821999997017,response,ISIC_1920685.JPG,5,ISIC_0011150.JPG,ISIC_1920685.JPG,false,1,keypress(m),500,324331.69999999553,324331.299999997,320631.481,320633.8999999985,320638.478,324336.115,8,400,8,,ISIC_0011150.JPG
break,html.Screen,4_57_1,2023-11-03T19:04:50.403Z,,0,,,NaN,,,,,,false,,,,324332.6000000015,324332.3999999985,,324332,,324336.115,8,400,,,
break_continue,html.Screen,4_57_2,2023-11-03T19:04:50.404Z,,0,,,NaN,,,,,,false,,,,324333.1000000015,324332.8999999985,,324332.799999997,,324336.115,8,400,,,
sequence,flow.Sequence,4_57,2023-11-03T19:04:50.404Z,,0,,,3694.421999998507,completion,,,,,false,,,,324333.19999999553,324332.8999999985,320631.481,320633.8999999985,320638.478,324336.115,8,400,,,
trial,html.Screen,4_58_0,2023-11-03T19:04:54.166Z,,0,2,,3758.784999998519,response,ISIC_0028069.JPG,4,ISIC_0011904.JPG,ISIC_0028069.JPG,false,1,keypress(m),500,328095.299999997,328094.8999999985,324329.084,324333.5,324336.115,328103.058,8,400,9,,ISIC_0011904.JPG
break,html.Screen,4_58_1,2023-11-03T19:04:54.167Z,,0,,,NaN,,,,,,false,,,,328096.19999999553,328096,,328095.6000000015,,328103.058,8,400,,,
break_continue,html.Screen,4_58_2,2023-11-03T19:04:54.167Z,,0,,,NaN,,,,,,false,,,,328096.69999999553,328096.6000000015,,328096.3999999985,,328103.058,8,400,,,
sequence,flow.Sequence,4_58,2023-11-03T19:04:54.168Z,,0,,,3760.4850000014994,completion,,,,,false,,,,328096.8999999985,328096.6000000015,324329.084,324333.299999997,324336.115,328103.058,8,400,,,
trial,html.Screen,4_59_0,2023-11-03T19:04:59.562Z,,0,2,,5387.841999998491,response,ISIC_7702857.JPG,5,ISIC_8194835.JPG,ISIC_7702857.JPG,false,1,keypress(m),500,333491.1000000015,333490.8999999985,328096.022,328097,328103.058,333493.272,8,400,10,,ISIC_8194835.JPG
break,html.Screen,4_59_1,2023-11-03T19:04:59.562Z,,0,,,NaN,,,,,,false,,,,333491.299999997,333491.19999999553,,333491.1000000015,,333493.272,8,400,,,
break_continue,html.Screen,4_59_2,2023-11-03T19:04:59.562Z,,0,,,NaN,,,,,,false,,,,333491.3999999985,333491.3999999985,,333491.3999999985,,333493.272,8,400,,,
sequence,flow.Sequence,4_59,2023-11-03T19:04:59.562Z,,0,,,5388.341999998491,completion,,,,,false,,,,333491.3999999985,333491.3999999985,328096.022,328097,328103.058,333493.272,8,400,,,
trial,html.Screen,4_60_0,2023-11-03T19:05:03.292Z,,0,2,,3727.728000000003,response,ISIC_0032424.JPG,6,ISIC_0000148.JPG,ISIC_0000148.JPG,false,0,keypress(z),500,337221.3999999985,337221,333486.244,333491.5,333493.272,337225.531,8,400,11,,ISIC_0032424.JPG
break,html.Screen,4_60_1,2023-11-03T19:05:03.293Z,,0,,,NaN,,,,,,false,,,,337222.299999997,337222.1000000015,,337221.6000000015,,337225.531,8,400,,,
break_continue,html.Screen,4_60_2,2023-11-03T19:05:03.293Z,,0,,,NaN,,,,,,false,,,,337222.69999999553,337222.5,,337222.5,,337225.531,8,400,,,
sequence,flow.Sequence,4_60,2023-11-03T19:05:03.294Z,,0,,,3729.228000000003,completion,,,,,false,,,,337222.8999999985,337222.5,333486.244,333491.5,333493.272,337225.531,8,400,,,
trial,html.Screen,4_61_0,2023-11-03T19:05:06.783Z,,0,2,,3486.7689999970025,response,ISIC_0033664.JPG,4,ISIC_0014221.JPG,ISIC_0014221.JPG,false,0,keypress(z),500,340712.69999999553,340712.299999997,337218.433,337223.1000000015,337225.531,340715.061,8,400,12,,ISIC_0033664.JPG
break,html.Screen,4_61_1,2023-11-03T19:05:06.784Z,,0,,,NaN,,,,,,false,,,,340713.6000000015,340713.3999999985,,340713,,340715.061,8,400,,,
break_continue,html.Screen,4_61_2,2023-11-03T19:05:06.785Z,,0,,,NaN,,,,,,false,,,,340714.1000000015,340713.8999999985,,340713.799999997,,340715.061,8,400,,,
sequence,flow.Sequence,4_61,2023-11-03T19:05:06.785Z,,0,,,3488.3689999984927,completion,,,,,false,,,,340714.299999997,340713.8999999985,337218.433,337223.1000000015,337225.531,340715.061,8,400,,,
trial,html.Screen,4_62_0,2023-11-03T19:05:11.012Z,,0,2,,4225.539000001503,response,ISIC_9270367.JPG,6,ISIC_0025759.JPG,ISIC_9270367.JPG,false,1,keypress(m),500,344940.8999999985,344940.6000000015,340707.824,340714.6000000015,340715.061,344946.794,8,400,13,,ISIC_0025759.JPG
break,html.Screen,4_62_1,2023-11-03T19:05:11.012Z,,0,,,NaN,,,,,,false,,,,344941.69999999553,344941.6000000015,,344941.1000000015,,344946.794,8,400,,,
break_continue,html.Screen,4_62_2,2023-11-03T19:05:11.013Z,,0,,,NaN,,,,,,false,,,,344942.19999999553,344942.1000000015,,344941.8999999985,,344946.794,8,400,,,
sequence,flow.Sequence,4_62,2023-11-03T19:05:11.013Z,,0,,,4227.039000001503,completion,,,,,false,,,,344942.3999999985,344942.1000000015,340707.824,340714.5,340715.061,344946.794,8,400,,,
trial,html.Screen,4_63_0,2023-11-03T19:05:14.888Z,,0,2,,3870.5059999970254,response,ISIC_4013189.JPG,5,ISIC_0056900.JPG,ISIC_0056900.JPG,false,0,keypress(z),500,348817.6000000015,348817.299999997,344939.635,344942.5,344946.794,348824.637,8,400,14,,ISIC_4013189.JPG
break,html.Screen,4_63_1,2023-11-03T19:05:14.889Z,,0,,,NaN,,,,,,false,,,,348818.6000000015,348818.299999997,,348817.8999999985,,348824.637,8,400,,,
break_continue,html.Screen,4_63_2,2023-11-03T19:05:14.890Z,,0,,,NaN,,,,,,false,,,,348819,348818.799999997,,348818.69999999553,,348824.637,8,400,,,
sequence,flow.Sequence,4_63,2023-11-03T19:05:14.890Z,,0,,,3872.0059999970254,completion,,,,,false,,,,348819.19999999553,348818.799999997,344939.635,344942.5,344946.794,348824.637,8,400,,,
trial,html.Screen,4_64_0,2023-11-03T19:05:19.388Z,,0,2,,4492.463000001502,response,ISIC_3475932.JPG,6,ISIC_0033149.JPG,ISIC_3475932.JPG,false,1,keypress(m),500,353317.5,353317.1000000015,348817.542,348819.3999999985,348824.637,353320.071,8,400,15,,ISIC_0033149.JPG
break,html.Screen,4_64_1,2023-11-03T19:05:19.389Z,,0,,,NaN,,,,,,false,,,,353318.3999999985,353318.19999999553,,353317.69999999553,,353320.071,8,400,,,
break_continue,html.Screen,4_64_2,2023-11-03T19:05:19.389Z,,0,,,NaN,,,,,,false,,,,353318.799999997,353318.69999999553,,353318.5,,353320.071,8,400,,,
sequence,flow.Sequence,4_64,2023-11-03T19:05:19.390Z,,0,,,4494.062999995542,completion,,,,,false,,,,353319,353318.69999999553,348817.542,348819.299999997,348824.637,353320.071,8,400,,,
trial,html.Screen,4_65_0,2023-11-03T19:05:22.737Z,,0,2,,3345.9290000000037,response,ISIC_0046361.JPG,5,ISIC_0013498.JPG,ISIC_0013498.JPG,false,0,keypress(z),500,356666.299999997,356666,353312.891,353319.1000000015,353320.071,356670.643,8,400,16,,ISIC_0046361.JPG
break,html.Screen,4_65_1,2023-11-03T19:05:22.738Z,,0,,,NaN,,,,,,false,,,,356667.19999999553,356667,,356666.5,,356670.643,8,400,,,
break_continue,html.Screen,4_65_2,2023-11-03T19:05:22.738Z,,0,,,NaN,,,,,,false,,,,356667.6000000015,356667.6000000015,,356667.3999999985,,356670.643,8,400,,,
sequence,flow.Sequence,4_65,2023-11-03T19:05:22.738Z,,0,,,3347.529000001494,completion,,,,,false,,,,356667.799999997,356667.6000000015,353312.891,353319.1000000015,353320.071,356670.643,8,400,,,
trial,html.Screen,4_66_0,2023-11-03T19:05:27.588Z,,0,2,,4846.957000001508,response,ISIC_0030535.JPG,4,ISIC_5327271.JPG,ISIC_5327271.JPG,false,0,keypress(z),500,361517.8999999985,361517.6000000015,356663.545,356668,356670.643,361519.94,8,400,17,,ISIC_0030535.JPG
break,html.Screen,4_66_1,2023-11-03T19:05:27.589Z,,0,,,NaN,,,,,,false,,,,361518.19999999553,361518.1000000015,,361517.8999999985,,361519.94,8,400,,,
break_continue,html.Screen,4_66_2,2023-11-03T19:05:27.589Z,,0,,,NaN,,,,,,false,,,,361518.3999999985,361518.299999997,,361518.19999999553,,361519.94,8,400,,,
sequence,flow.Sequence,4_66,2023-11-03T19:05:27.589Z,,0,,,4847.656999997038,completion,,,,,false,,,,361518.3999999985,361518.299999997,356663.545,356668,356670.643,361519.94,8,400,,,
trial,html.Screen,4_67_0,2023-11-03T19:05:30.775Z,,0,2,,3184.160000001488,response,ISIC_2518896.JPG,5,ISIC_0000346.JPG,ISIC_2518896.JPG,false,1,keypress(m),500,364704.3999999985,364704.1000000015,361512.76,361518.6000000015,361519.94,364710.964,8,400,18,,ISIC_0000346.JPG
break,html.Screen,4_67_1,2023-11-03T19:05:30.776Z,,0,,,NaN,,,,,,false,,,,364705.3999999985,364705.1000000015,,364704.69999999553,,364710.964,8,400,,,
break_continue,html.Screen,4_67_2,2023-11-03T19:05:30.777Z,,0,,,NaN,,,,,,false,,,,364705.799999997,364705.69999999553,,364705.5,,364710.964,8,400,,,
sequence,flow.Sequence,4_67,2023-11-03T19:05:30.777Z,,0,,,3185.7599999955273,completion,,,,,false,,,,364706.19999999553,364705.69999999553,361512.76,361518.5,361519.94,364710.964,8,400,,,
trial,html.Screen,4_68_0,2023-11-03T19:05:34.553Z,,0,2,,3771.8359999970417,response,ISIC_0056983.JPG,5,ISIC_2418276.JPG,ISIC_2418276.JPG,false,0,keypress(z),500,368482.799999997,368482.799999997,364703.89,364706.3999999985,364710.964,368484.772,8,400,19,,ISIC_0056983.JPG
break,html.Screen,4_68_1,2023-11-03T19:05:34.554Z,,0,,,NaN,,,,,,false,,,,368483.1000000015,368483,,368482.8999999985,,368484.772,8,400,,,
break_continue,html.Screen,4_68_2,2023-11-03T19:05:34.554Z,,0,,,NaN,,,,,,false,,,,368483.19999999553,368483.1000000015,,368483.1000000015,,368484.772,8,400,,,
sequence,flow.Sequence,4_68,2023-11-03T19:05:34.554Z,,0,,,3772.136000001512,completion,,,,,false,,,,368483.299999997,368483.1000000015,364703.89,364706.3999999985,364710.964,368484.772,8,400,,,
trial,html.Screen,4_69_0,2023-11-03T19:05:37.963Z,,0,2,,3407.4279999955324,response,ISIC_0025653.JPG,5,ISIC_0066289.JPG,ISIC_0066289.JPG,false,0,keypress(z),500,371892.5,371892.19999999553,368477.862,368483.299999997,368484.772,371898.068,8,400,20,,ISIC_0025653.JPG
break,html.Screen,4_69_1,2023-11-03T19:05:37.964Z,,0,,,NaN,,,,,,false,,,,371893.3999999985,371893.299999997,,371892.799999997,,371898.068,8,400,,,
break_continue,html.Screen,4_69_2,2023-11-03T19:05:37.964Z,,0,,,NaN,,,,,,false,,,,371893.8999999985,371893.69999999553,,371893.5,,371898.068,8,400,,,
sequence,flow.Sequence,4_69,2023-11-03T19:05:37.965Z,,0,,,3408.9279999955324,completion,,,,,false,,,,371894.1000000015,371893.69999999553,368477.862,368483.299999997,368484.772,371898.068,8,400,,,
trial,html.Screen,4_70_0,2023-11-03T19:05:41.711Z,,0,2,,3742.2319999969914,response,ISIC_3679789.JPG,5,ISIC_7877488.JPG,ISIC_3679789.JPG,false,1,keypress(m),500,375640.6000000015,375640.299999997,371890.98,371894.19999999553,371898.068,375644.223,8,400,21,,ISIC_7877488.JPG
break,html.Screen,4_70_1,2023-11-03T19:05:41.712Z,,0,,,NaN,,,,,,false,,,,375640.8999999985,375640.8999999985,,375640.69999999553,,375644.223,8,400,,,
break_continue,html.Screen,4_70_2,2023-11-03T19:05:41.712Z,,0,,,NaN,,,,,,false,,,,375641,375640.8999999985,,375640.8999999985,,375644.223,8,400,,,
sequence,flow.Sequence,4_70,2023-11-03T19:05:41.712Z,,0,,,3742.8319999984815,completion,,,,,false,,,,375641,375640.8999999985,371890.98,371894.1000000015,371898.068,375644.223,8,400,,,
trial,html.Screen,4_71_0,2023-11-03T19:05:45.137Z,,0,2,,3421.877000001492,response,ISIC_7797655.JPG,5,ISIC_7429127.JPG,ISIC_7797655.JPG,false,1,keypress(m),500,379066.299999997,379066.1000000015,375636.994,375641,375644.223,379071.191,8,400,22,,ISIC_7429127.JPG
break,html.Screen,4_71_1,2023-11-03T19:05:45.138Z,,0,,,NaN,,,,,,false,,,,379067.299999997,379067,,379066.6000000015,,379071.191,8,400,,,
break_continue,html.Screen,4_71_2,2023-11-03T19:05:45.138Z,,0,,,NaN,,,,,,false,,,,379067.69999999553,379067.6000000015,,379067.3999999985,,379071.191,8,400,,,
sequence,flow.Sequence,4_71,2023-11-03T19:05:45.139Z,,0,,,3423.377000001492,completion,,,,,false,,,,379067.799999997,379067.6000000015,375636.994,375641,375644.223,379071.191,8,400,,,
trial,html.Screen,4_72_0,2023-11-03T19:05:48.565Z,,0,2,,3422.608999997028,response,ISIC_8626941.JPG,5,ISIC_8760203.JPG,ISIC_8626941.JPG,false,1,keypress(m),500,382494.19999999553,382493.799999997,379064.051,379068.1000000015,379071.191,382498.199,8,400,23,,ISIC_8760203.JPG
break,html.Screen,4_72_1,2023-11-03T19:05:48.566Z,,0,,,NaN,,,,,,false,,,,382495.1000000015,382494.8999999985,,382494.3999999985,,382498.199,8,400,,,
break_continue,html.Screen,4_72_2,2023-11-03T19:05:48.566Z,,0,,,NaN,,,,,,false,,,,382495.5,382495.3999999985,,382495.19999999553,,382498.199,8,400,,,
sequence,flow.Sequence,4_72,2023-11-03T19:05:48.566Z,,0,,,3424.2089999985183,completion,,,,,false,,,,382495.799999997,382495.3999999985,379064.051,379068,379071.191,382498.199,8,400,,,
trial,html.Screen,4_73_0,2023-11-03T19:05:52.249Z,,0,2,,3679.4010000014678,response,ISIC_4762702.JPG,5,ISIC_0025754.JPG,ISIC_4762702.JPG,false,1,keypress(m),500,386177.8999999985,386177.6000000015,382491.064,382495.8999999985,382498.199,386181.796,8,400,24,,ISIC_0025754.JPG
break,html.Screen,4_73_1,2023-11-03T19:05:52.249Z,,0,,,NaN,,,,,,false,,,,386178.8999999985,386178.69999999553,,386178.1000000015,,386181.796,8,400,,,
break_continue,html.Screen,4_73_2,2023-11-03T19:05:52.250Z,,0,,,NaN,,,,,,false,,,,386179.299999997,386179.1000000015,,386179,,386181.796,8,400,,,
sequence,flow.Sequence,4_73,2023-11-03T19:05:52.250Z,,0,,,3680.9010000014678,completion,,,,,false,,,,386179.5,386179.1000000015,382491.064,382495.8999999985,382498.199,386181.796,8,400,,,
trial,html.Screen,4_74_0,2023-11-03T19:05:55.820Z,,0,2,,3567.804000001517,response,ISIC_7532154.JPG,5,ISIC_5830274.JPG,ISIC_5830274.JPG,false,0,keypress(z),500,389749.799999997,389749.6000000015,386174.629,386179.69999999553,386181.796,389754.502,8,400,25,,ISIC_7532154.JPG
break,html.Screen,4_74_1,2023-11-03T19:05:55.821Z,,0,,,NaN,,,,,,false,,,,389750.69999999553,389750.6000000015,,389750.1000000015,,389754.502,8,400,,,
break_continue,html.Screen,4_74_2,2023-11-03T19:05:55.822Z,,0,,,NaN,,,,,,false,,,,389751.1000000015,389751,,389750.8999999985,,389754.502,8,400,,,
sequence,flow.Sequence,4_74,2023-11-03T19:05:55.822Z,,0,,,3569.204000000027,completion,,,,,false,,,,389751.299999997,389751,386174.629,386179.5,386181.796,389754.502,8,400,,,
trial,html.Screen,4_75_0,2023-11-03T19:06:00.225Z,,0,2,,4399.797999997041,response,ISIC_0030047.JPG,5,ISIC_7539727.JPG,ISIC_7539727.JPG,false,0,keypress(z),500,394154.3999999985,394154.299999997,389747.454,389751.5,389754.502,394159.601,8,400,26,,ISIC_0030047.JPG
break,html.Screen,4_75_1,2023-11-03T19:06:00.225Z,,0,,,NaN,,,,,,false,,,,394154.69999999553,394154.6000000015,,394154.5,,394159.601,8,400,,,
break_continue,html.Screen,4_75_2,2023-11-03T19:06:00.225Z,,0,,,NaN,,,,,,false,,,,394154.8999999985,394154.799999997,,394154.69999999553,,394159.601,8,400,,,
sequence,flow.Sequence,4_75,2023-11-03T19:06:00.225Z,,0,,,4400.297999997041,completion,,,,,false,,,,394154.8999999985,394154.799999997,389747.454,389751.5,389754.502,394159.601,8,400,,,
trial,html.Screen,4_76_0,2023-11-03T19:06:03.859Z,,0,2,,3628.398999999976,response,ISIC_5028203.JPG,4,ISIC_8195604.JPG,ISIC_8195604.JPG,false,0,keypress(z),500,397788.19999999553,397788,394152.571,394154.8999999985,394159.601,397794.855,8,400,27,,ISIC_5028203.JPG
break,html.Screen,4_76_1,2023-11-03T19:06:03.860Z,,0,,,NaN,,,,,,false,,,,397789.1000000015,397788.8999999985,,397788.5,,397794.855,8,400,,,
break_continue,html.Screen,4_76_2,2023-11-03T19:06:03.860Z,,0,,,NaN,,,,,,false,,,,397789.5,397789.3999999985,,397789.299999997,,397794.855,8,400,,,
sequence,flow.Sequence,4_76,2023-11-03T19:06:03.860Z,,0,,,3629.7989999984857,completion,,,,,false,,,,397789.799999997,397789.3999999985,394152.571,394154.8999999985,394159.601,397794.855,8,400,,,
trial,html.Screen,4_77_0,2023-11-03T19:06:07.959Z,,0,2,,4092.9449999970384,response,ISIC_0007808.JPG,5,ISIC_0027663.JPG,ISIC_0007808.JPG,false,1,keypress(m),500,401888.1000000015,401887.799999997,397787.633,397789.8999999985,397794.855,401894.725,8,400,28,,ISIC_0027663.JPG
break,html.Screen,4_77_1,2023-11-03T19:06:07.960Z,,0,,,NaN,,,,,,false,,,,401889,401888.799999997,,401888.3999999985,,401894.725,8,400,,,
break_continue,html.Screen,4_77_2,2023-11-03T19:06:07.960Z,,0,,,NaN,,,,,,false,,,,401889.5,401889.299999997,,401889.19999999553,,401894.725,8,400,,,
sequence,flow.Sequence,4_77,2023-11-03T19:06:07.960Z,,0,,,4094.4449999970384,completion,,,,,false,,,,401889.69999999553,401889.299999997,397787.633,397789.8999999985,397794.855,401894.725,8,400,,,
trial,html.Screen,4_78_0,2023-11-03T19:06:11.690Z,,0,2,,3724.474999995553,response,ISIC_0014695.JPG,5,ISIC_1189461.JPG,ISIC_1189461.JPG,false,0,keypress(z),500,405619.5,405619.19999999553,401887.796,401889.799999997,401894.725,405626.973,8,400,29,,ISIC_0014695.JPG
break,html.Screen,4_78_1,2023-11-03T19:06:11.691Z,,0,,,NaN,,,,,,false,,,,405620.5,405620.299999997,,405619.799999997,,405626.973,8,400,,,
break_continue,html.Screen,4_78_2,2023-11-03T19:06:11.691Z,,0,,,NaN,,,,,,false,,,,405620.8999999985,405620.799999997,,405620.5,,405626.973,8,400,,,
sequence,flow.Sequence,4_78,2023-11-03T19:06:11.692Z,,0,,,3726.074999997043,completion,,,,,false,,,,405621.1000000015,405620.799999997,401887.796,401889.69999999553,401894.725,405626.973,8,400,,,
trial,html.Screen,4_79_0,2023-11-03T19:06:17.918Z,,0,2,,6220.426999998512,response,ISIC_0031369.JPG,5,ISIC_4293419.JPG,ISIC_0031369.JPG,false,1,keypress(m),500,411847.6000000015,411847.3999999985,405619.927,405621.19999999553,405626.973,411856.649,8,400,30,,ISIC_4293419.JPG
break,html.Screen,4_79_1,2023-11-03T19:06:17.919Z,,0,,,NaN,,,,,,false,,,,411848.1000000015,411848,,411847.799999997,,411856.649,8,400,,,
break_continue,html.Screen,4_79_2,2023-11-03T19:06:17.919Z,,0,,,NaN,,,,,,false,,,,411848.19999999553,411848.19999999553,,411848.1000000015,,411856.649,8,400,,,
sequence,flow.Sequence,4_79,2023-11-03T19:06:17.919Z,,0,,,6221.2269999955315,completion,,,,,false,,,,411848.19999999553,411848.19999999553,405619.927,405621.19999999553,405626.973,411856.649,8,400,,,
trial,html.Screen,4_80_0,2023-11-03T19:06:22.128Z,,0,2,,4200.451000001514,response,ISIC_9182492.JPG,4,ISIC_2438917.JPG,ISIC_2438917.JPG,false,0,keypress(z),500,416057.299999997,416057.1000000015,411849.688,411848.299999997,411856.649,416060.622,8,400,31,,ISIC_9182492.JPG
break,html.Screen,4_80_1,2023-11-03T19:06:22.128Z,,0,,,NaN,,,,,,false,,,,416057.5,416057.3999999985,,416057.299999997,,416060.622,8,400,,,
break_continue,html.Screen,4_80_2,2023-11-03T19:06:22.128Z,,0,,,NaN,,,,,,false,,,,416057.5,416057.5,,416057.5,,416060.622,8,400,,,
sequence,flow.Sequence,4_80,2023-11-03T19:06:22.128Z,,0,,,4200.851000000024,completion,,,,,false,,,,416057.6000000015,416057.5,411849.688,411848.299999997,411856.649,416060.622,8,400,,,
trial,html.Screen,4_81_0,2023-11-03T19:06:26.769Z,,0,2,,4637.677999997046,response,ISIC_0068382.JPG,5,ISIC_0428383.JPG,ISIC_0068382.JPG,false,1,keypress(m),500,420698.6000000015,420698.299999997,416053.577,416057.69999999553,416060.622,420701.728,8,400,32,,ISIC_0428383.JPG
break,html.Screen,4_81_1,2023-11-03T19:06:26.770Z,,0,,,NaN,,,,,,false,,,,420699.6000000015,420699.3999999985,,420698.8999999985,,420701.728,8,400,,,
break_continue,html.Screen,4_81_2,2023-11-03T19:06:26.771Z,,0,,,NaN,,,,,,false,,,,420700,420699.8999999985,,420699.799999997,,420701.728,8,400,,,
sequence,flow.Sequence,4_81,2023-11-03T19:06:26.771Z,,0,,,4639.277999998536,completion,,,,,false,,,,420700.19999999553,420699.8999999985,416053.577,416057.69999999553,416060.622,420701.728,8,400,,,
trial,html.Screen,4_82_0,2023-11-03T19:06:30.389Z,,0,2,,3616.071999997017,response,ISIC_0000504.JPG,5,ISIC_3779093.JPG,ISIC_3779093.JPG,false,0,keypress(z),500,424318.19999999553,424317.799999997,420694.648,420700.299999997,420701.728,424322.969,8,400,33,,ISIC_0000504.JPG
break,html.Screen,4_82_1,2023-11-03T19:06:30.390Z,,0,,,NaN,,,,,,false,,,,424319,424318.799999997,,424318.3999999985,,424322.969,8,400,,,
break_continue,html.Screen,4_82_2,2023-11-03T19:06:30.390Z,,0,,,NaN,,,,,,false,,,,424319.5,424319.299999997,,424319.19999999553,,424322.969,8,400,,,
sequence,flow.Sequence,4_82,2023-11-03T19:06:30.390Z,,0,,,3617.571999997017,completion,,,,,false,,,,424319.6000000015,424319.299999997,420694.648,420700.299999997,420701.728,424322.969,8,400,,,
trial,html.Screen,4_83_0,2023-11-03T19:06:34.137Z,,0,2,,3742.730999995547,response,ISIC_0027622.JPG,5,ISIC_0057184.JPG,ISIC_0057184.JPG,false,0,keypress(z),500,428066.1000000015,428065.69999999553,424315.949,424319.69999999553,424322.969,428069.085,8,400,34,,ISIC_0027622.JPG
break,html.Screen,4_83_1,2023-11-03T19:06:34.138Z,,0,,,NaN,,,,,,false,,,,428067,428066.69999999553,,428066.299999997,,428069.085,8,400,,,
break_continue,html.Screen,4_83_2,2023-11-03T19:06:34.138Z,,0,,,NaN,,,,,,false,,,,428067.3999999985,428067.19999999553,,428067.1000000015,,428069.085,8,400,,,
sequence,flow.Sequence,4_83,2023-11-03T19:06:34.138Z,,0,,,3744.230999995547,completion,,,,,false,,,,428067.6000000015,428067.19999999553,424315.949,424319.69999999553,424322.969,428069.085,8,400,,,
trial,html.Screen,4_84_0,2023-11-03T19:06:39.436Z,,0,2,,5296.214999996999,response,ISIC_0013936.JPG,5,ISIC_0059432.JPG,ISIC_0059432.JPG,false,0,keypress(z),500,433365.69999999553,433365.299999997,428061.944,428067.69999999553,428069.085,433369.169,8,400,35,,ISIC_0013936.JPG
break,html.Screen,4_84_1,2023-11-03T19:06:39.437Z,,0,,,NaN,,,,,,false,,,,433366.6000000015,433366.3999999985,,433365.8999999985,,433369.169,8,400,,,
break_continue,html.Screen,4_84_2,2023-11-03T19:06:39.438Z,,0,,,NaN,,,,,,false,,,,433367,433366.799999997,,433366.69999999553,,433369.169,8,400,,,
sequence,flow.Sequence,4_84,2023-11-03T19:06:39.438Z,,0,,,5297.714999996999,completion,,,,,false,,,,433367.299999997,433366.799999997,428061.944,428067.6000000015,428069.085,433369.169,8,400,,,
trial,html.Screen,4_85_0,2023-11-03T19:06:42.576Z,,0,2,,3135.5309999955352,response,ISIC_0072714.JPG,4,ISIC_0033017.JPG,ISIC_0033017.JPG,false,0,keypress(z),500,436504.8999999985,436504.69999999553,433361.981,433367.299999997,433369.169,436511.709,8,400,36,,ISIC_0072714.JPG
break,html.Screen,4_85_1,2023-11-03T19:06:42.576Z,,0,,,NaN,,,,,,false,,,,436505.19999999553,436505.1000000015,,436505,,436511.709,8,400,,,
break_continue,html.Screen,4_85_2,2023-11-03T19:06:42.576Z,,0,,,NaN,,,,,,false,,,,436505.3999999985,436505.299999997,,436505.299999997,,436511.709,8,400,,,
sequence,flow.Sequence,4_85,2023-11-03T19:06:42.576Z,,0,,,3136.1309999970254,completion,,,,,false,,,,436505.3999999985,436505.299999997,433361.981,433367.299999997,433369.169,436511.709,8,400,,,
trial,html.Screen,4_86_0,2023-11-03T19:06:45.937Z,,0,2,,3354.490999995556,response,ISIC_0071508.JPG,5,ISIC_7900295.JPG,ISIC_7900295.JPG,false,0,keypress(z),500,439866.5,439866.19999999553,436504.594,436505.5,436511.709,439869.387,8,400,37,,ISIC_0071508.JPG
break,html.Screen,4_86_1,2023-11-03T19:06:45.938Z,,0,,,NaN,,,,,,false,,,,439867.3999999985,439867.19999999553,,439866.799999997,,439869.387,8,400,,,
break_continue,html.Screen,4_86_2,2023-11-03T19:06:45.938Z,,0,,,NaN,,,,,,false,,,,439867.8999999985,439867.69999999553,,439867.5,,439869.387,8,400,,,
sequence,flow.Sequence,4_86,2023-11-03T19:06:45.939Z,,0,,,3355.990999995556,completion,,,,,false,,,,439868.1000000015,439867.69999999553,436504.594,436505.3999999985,436511.709,439869.387,8,400,,,
trial,html.Screen,4_87_0,2023-11-03T19:06:49.622Z,,0,2,,3681.713000001502,response,ISIC_0015041.JPG,5,ISIC_0014082.JPG,ISIC_0014082.JPG,false,0,keypress(z),500,443551.3999999985,443551.1000000015,439862.289,439868.299999997,439869.387,443561.087,8,400,38,,ISIC_0015041.JPG
break,html.Screen,4_87_1,2023-11-03T19:06:49.623Z,,0,,,NaN,,,,,,false,,,,443552.299999997,443552.1000000015,,443551.69999999553,,443561.087,8,400,,,
break_continue,html.Screen,4_87_2,2023-11-03T19:06:49.623Z,,0,,,NaN,,,,,,false,,,,443552.69999999553,443552.5,,443552.3999999985,,443561.087,8,400,,,
sequence,flow.Sequence,4_87,2023-11-03T19:06:49.623Z,,0,,,3683.113000000012,completion,,,,,false,,,,443552.8999999985,443552.5,439862.289,439868.19999999553,439869.387,443561.087,8,400,,,
trial,html.Screen,4_88_0,2023-11-03T19:06:54.586Z,,0,2,,4954.11299999553,response,ISIC_0032597.JPG,6,ISIC_9125543.JPG,ISIC_0032597.JPG,false,1,keypress(m),500,448515.5,448515.19999999553,443546.022,443553.1000000015,443561.087,448520.118,8,400,39,,ISIC_9125543.JPG
break,html.Screen,4_88_1,2023-11-03T19:06:54.587Z,,0,,,NaN,,,,,,false,,,,448516.299999997,448516.1000000015,,448515.69999999553,,448520.118,8,400,,,
break_continue,html.Screen,4_88_2,2023-11-03T19:06:54.587Z,,0,,,NaN,,,,,,false,,,,448516.799999997,448516.69999999553,,448516.5,,448520.118,8,400,,,
sequence,flow.Sequence,4_88,2023-11-03T19:06:54.588Z,,0,,,4955.61299999553,completion,,,,,false,,,,448517,448516.69999999553,443546.022,443553.1000000015,443561.087,448520.118,8,400,,,
trial,html.Screen,4_89_0,2023-11-03T19:06:58.110Z,,0,2,,3518.9820000014734,response,ISIC_7994337.JPG,4,ISIC_0033193.JPG,ISIC_7994337.JPG,false,1,keypress(m),500,452039.3999999985,452039.1000000015,448512.955,448517.1000000015,448520.118,452044.196,8,400,40,,ISIC_0033193.JPG
break,html.Screen,4_89_1,2023-11-03T19:06:58.110Z,,0,,,NaN,,,,,,false,,,,452039.69999999553,452039.69999999553,,452039.5,,452044.196,8,400,,,
break_continue,html.Screen,4_89_2,2023-11-03T19:06:58.110Z,,0,,,NaN,,,,,,false,,,,452039.69999999553,452039.69999999553,,452039.69999999553,,452044.196,8,400,,,
sequence,flow.Sequence,4_89,2023-11-03T19:06:58.110Z,,0,,,3519.581999995513,completion,,,,,false,,,,452039.799999997,452039.69999999553,448512.955,448517.1000000015,448520.118,452044.196,8,400,,,
trial,html.Screen,4_90_0,2023-11-03T19:07:01.824Z,,0,2,,3708.904000001494,response,ISIC_8704257.JPG,4,ISIC_0028114.JPG,ISIC_8704257.JPG,false,1,keypress(m),500,455753.3999999985,455753.1000000015,452037.216,452039.799999997,452044.196,455755.717,8,400,41,,ISIC_0028114.JPG
break,html.Screen,4_90_1,2023-11-03T19:07:01.825Z,,0,,,NaN,,,,,,false,,,,455754.3999999985,455754.19999999553,,455753.69999999553,,455755.717,8,400,,,
break_continue,html.Screen,4_90_2,2023-11-03T19:07:01.825Z,,0,,,NaN,,,,,,false,,,,455754.799999997,455754.6000000015,,455754.5,,455755.717,8,400,,,
sequence,flow.Sequence,4_90,2023-11-03T19:07:01.826Z,,0,,,3710.404000001494,completion,,,,,false,,,,455755,455754.6000000015,452037.216,452039.799999997,452044.196,455755.717,8,400,,,
trial,html.Screen,4_91_0,2023-11-03T19:07:05.412Z,,0,2,,3585.5829999970156,response,ISIC_0024298.JPG,4,ISIC_0000555.JPG,ISIC_0000555.JPG,false,0,keypress(z),500,459341.6000000015,459341.299999997,455748.546,455755.19999999553,455755.717,459349.177,8,400,42,,ISIC_0024298.JPG
break,html.Screen,4_91_1,2023-11-03T19:07:05.413Z,,0,,,NaN,,,,,,false,,,,459342.6000000015,459342.3999999985,,459341.8999999985,,459349.177,8,400,,,
break_continue,html.Screen,4_91_2,2023-11-03T19:07:05.414Z,,0,,,NaN,,,,,,false,,,,459343,459342.8999999985,,459342.69999999553,,459349.177,8,400,,,
sequence,flow.Sequence,4_91,2023-11-03T19:07:05.414Z,,0,,,3587.1829999985057,completion,,,,,false,,,,459343.1000000015,459342.8999999985,455748.546,455755.1000000015,455755.717,459349.177,8,400,,,
trial,html.Screen,4_92_0,2023-11-03T19:07:08.792Z,,0,2,,3371.5229999955045,response,ISIC_2193761.JPG,5,ISIC_8120622.JPG,ISIC_2193761.JPG,false,1,keypress(m),500,462721,462720.69999999553,459341.987,459343.299999997,459349.177,462727.656,8,400,43,,ISIC_8120622.JPG
break,html.Screen,4_92_1,2023-11-03T19:07:08.793Z,,0,,,NaN,,,,,,false,,,,462721.799999997,462721.69999999553,,462721.19999999553,,462727.656,8,400,,,
break_continue,html.Screen,4_92_2,2023-11-03T19:07:08.793Z,,0,,,NaN,,,,,,false,,,,462722.299999997,462722.1000000015,,462722,,462727.656,8,400,,,
sequence,flow.Sequence,4_92,2023-11-03T19:07:08.793Z,,0,,,3372.923000001465,completion,,,,,false,,,,462722.5,462722.1000000015,459341.987,459343.299999997,459349.177,462727.656,8,400,,,
trial,html.Screen,4_93_0,2023-11-03T19:07:14.971Z,,0,2,,6172.743999998493,response,ISIC_9322551.JPG,5,ISIC_5646706.JPG,ISIC_5646706.JPG,false,0,keypress(z),500,468900.69999999553,468900.3999999985,462720.57,462722.69999999553,462727.656,468915.643,8,400,44,,ISIC_9322551.JPG
break,html.Screen,4_93_1,2023-11-03T19:07:14.972Z,,0,,,NaN,,,,,,false,,,,468901.5,468901.299999997,,468900.8999999985,,468915.643,8,400,,,
break_continue,html.Screen,4_93_2,2023-11-03T19:07:14.973Z,,0,,,NaN,,,,,,false,,,,468902,468901.8999999985,,468901.799999997,,468915.643,8,400,,,
sequence,flow.Sequence,4_93,2023-11-03T19:07:14.973Z,,0,,,6174.243999998493,completion,,,,,false,,,,468902.19999999553,468901.8999999985,462720.57,462722.6000000015,462727.656,468915.643,8,400,,,
trial,html.Screen,4_94_0,2023-11-03T19:07:18.511Z,,0,2,,3523.9570000015083,response,ISIC_8436492.JPG,5,ISIC_6875745.JPG,ISIC_6875745.JPG,false,0,keypress(z),500,472440,472439.6000000015,468908.992,468902.299999997,468915.643,472446.632,8,400,45,,ISIC_8436492.JPG
break,html.Screen,4_94_1,2023-11-03T19:07:18.511Z,,0,,,NaN,,,,,,false,,,,472440.799999997,472440.6000000015,,472440.1000000015,,472446.632,8,400,,,
break_continue,html.Screen,4_94_2,2023-11-03T19:07:18.512Z,,0,,,NaN,,,,,,false,,,,472441.299999997,472441.1000000015,,472441,,472446.632,8,400,,,
sequence,flow.Sequence,4_94,2023-11-03T19:07:18.512Z,,0,,,3525.4570000015083,completion,,,,,false,,,,472441.3999999985,472441.1000000015,468908.992,468902.299999997,468915.643,472446.632,8,400,,,
trial,html.Screen,4_95_0,2023-11-03T19:07:23.475Z,,0,2,,4956.868000000017,response,ISIC_7623407.JPG,5,ISIC_9107280.JPG,ISIC_7623407.JPG,false,1,keypress(m),500,477403.8999999985,477403.5,472439.644,472441.6000000015,472446.632,477406.92,8,400,46,,ISIC_9107280.JPG
break,html.Screen,4_95_1,2023-11-03T19:07:23.475Z,,0,,,NaN,,,,,,false,,,,477404.69999999553,477404.6000000015,,477404.19999999553,,477406.92,8,400,,,
break_continue,html.Screen,4_95_2,2023-11-03T19:07:23.476Z,,0,,,NaN,,,,,,false,,,,477405.3999999985,477405.19999999553,,477405.1000000015,,477406.92,8,400,,,
sequence,flow.Sequence,4_95,2023-11-03T19:07:23.476Z,,0,,,4958.567999995546,completion,,,,,false,,,,477405.6000000015,477405.19999999553,472439.644,472441.6000000015,472446.632,477406.92,8,400,,,
trial,html.Screen,4_96_0,2023-11-03T19:07:26.150Z,,0,2,,2672.479999998526,response,ISIC_0030666.JPG,4,ISIC_0063447.JPG,ISIC_0030666.JPG,false,1,keypress(m),500,480079.6000000015,480079.3999999985,477399.681,477405.69999999553,477406.92,480084.717,8,400,47,,ISIC_0063447.JPG
break,html.Screen,4_96_1,2023-11-03T19:07:26.151Z,,0,,,NaN,,,,,,false,,,,480080.5,480080.299999997,,480079.8999999985,,480084.717,8,400,,,
break_continue,html.Screen,4_96_2,2023-11-03T19:07:26.152Z,,0,,,NaN,,,,,,false,,,,480081,480080.8999999985,,480080.69999999553,,480084.717,8,400,,,
sequence,flow.Sequence,4_96,2023-11-03T19:07:26.152Z,,0,,,2673.979999998526,completion,,,,,false,,,,480081.19999999553,480080.8999999985,477399.681,477405.69999999553,477406.92,480084.717,8,400,,,
trial,html.Screen,4_97_0,2023-11-03T19:07:29.562Z,,0,2,,3406.4829999955255,response,ISIC_0003168.JPG,4,ISIC_6714082.JPG,ISIC_0003168.JPG,false,1,keypress(m),500,483491.6000000015,483491.19999999553,480077.553,480081.299999997,480084.717,483497.847,8,400,48,,ISIC_6714082.JPG
break,html.Screen,4_97_1,2023-11-03T19:07:29.563Z,,0,,,NaN,,,,,,false,,,,483492.3999999985,483492.19999999553,,483491.799999997,,483497.847,8,400,,,
break_continue,html.Screen,4_97_2,2023-11-03T19:07:29.564Z,,0,,,NaN,,,,,,false,,,,483492.8999999985,483492.69999999553,,483492.6000000015,,483497.847,8,400,,,
sequence,flow.Sequence,4_97,2023-11-03T19:07:29.564Z,,0,,,3407.9829999955255,completion,,,,,false,,,,483493,483492.69999999553,480077.553,480081.19999999553,480084.717,483497.847,8,400,,,
trial,html.Screen,4_98_0,2023-11-03T19:07:34.238Z,,0,2,,4669.452999997011,response,ISIC_0033250.JPG,4,ISIC_0010416.JPG,ISIC_0033250.JPG,false,1,keypress(m),500,488167.69999999553,488167.299999997,483490.623,483493.299999997,483497.847,488173.546,8,400,49,,ISIC_0010416.JPG
break,html.Screen,4_98_1,2023-11-03T19:07:34.239Z,,0,,,NaN,,,,,,false,,,,488168.799999997,488168.5,,488168.1000000015,,488173.546,8,400,,,
break_continue,html.Screen,4_98_2,2023-11-03T19:07:34.240Z,,0,,,NaN,,,,,,false,,,,488169.19999999553,488169.1000000015,,488168.8999999985,,488173.546,8,400,,,
sequence,flow.Sequence,4_98,2023-11-03T19:07:34.240Z,,0,,,4671.253000001481,completion,,,,,false,,,,488169.3999999985,488169.1000000015,483490.623,483493.19999999553,483497.847,488173.546,8,400,,,
trial,html.Screen,4_99_0,2023-11-03T19:07:40.500Z,,0,2,,6255.353999998537,response,ISIC_0003793.JPG,5,ISIC_2841488.JPG,ISIC_0003793.JPG,false,1,keypress(m),500,494429.1000000015,494428.8999999985,488166.511,488169.5,488173.546,494438.871,8,400,50,,ISIC_2841488.JPG
break,html.Screen,4_99_1,2023-11-03T19:07:50.506Z,,0,,,10002.505000000005,timeout,,,,,false,,,,504434.8999999985,504434.424,494423.75,494429.3999999985,494438.871,504441.376,8,400,,,
break_continue,html.Screen,4_99_2,2023-11-03T19:07:56.101Z,,0,,,5584.624000000011,response,,,,,false,continue,keypress(Space),,510031.19999999553,510026,504434.424,504435.1000000015,504441.376,510032.71,8,400,,,
sequence,flow.Sequence,4_99,2023-11-03T19:07:56.101Z,,0,,,21852.454000000027,completion,,,,,false,,,,510031.19999999553,510026,488166.511,488169.5,488173.546,510032.71,8,400,,,
trial,html.Screen,4_100_0,2023-11-03T19:07:59.943Z,,0,3,,3839.789999999979,response,ISIC_0030437.JPG,6,ISIC_8438811.JPG,ISIC_8438811.JPG,false,0,keypress(z),500,513872.69999999553,513872.5,510024.867,510031.299999997,510032.71,513876.066,8,400,1,,ISIC_0030437.JPG
break,html.Screen,4_100_1,2023-11-03T19:07:59.943Z,,0,,,NaN,,,,,,false,,,,513873.1000000015,513873,,513872.8999999985,,513876.066,8,400,,,
break_continue,html.Screen,4_100_2,2023-11-03T19:07:59.943Z,,0,,,NaN,,,,,,false,,,,513873.19999999553,513873.19999999553,,513873.19999999553,,513876.066,8,400,,,
sequence,flow.Sequence,4_100,2023-11-03T19:07:59.943Z,,0,,,3840.4899999955087,completion,,,,,false,,,,513873.299999997,513873.19999999553,510024.867,510031.299999997,510032.71,513876.066,8,400,,,
trial,html.Screen,4_101_0,2023-11-03T19:08:04.585Z,,0,3,,4639.0340000014985,response,ISIC_0055054.JPG,5,ISIC_0156642.JPG,ISIC_0156642.JPG,false,0,keypress(z),500,518515.5,518515.1000000015,513868.976,513873.3999999985,513876.066,518525.101,8,400,2,,ISIC_0055054.JPG
break,html.Screen,4_101_1,2023-11-03T19:08:04.586Z,,0,,,NaN,,,,,,false,,,,518516.5,518516.19999999553,,518515.799999997,,518525.101,8,400,,,
break_continue,html.Screen,4_101_2,2023-11-03T19:08:04.588Z,,0,,,NaN,,,,,,false,,,,518518.5,518518.3999999985,,518518.1000000015,,518525.101,8,400,,,
sequence,flow.Sequence,4_101,2023-11-03T19:08:04.589Z,,0,,,4642.333999998518,completion,,,,,false,,,,518518.69999999553,518518.3999999985,513868.976,513873.3999999985,513876.066,518525.101,8,400,,,
trial,html.Screen,4_102_0,2023-11-03T19:08:09.182Z,,0,3,,4587.198999996996,response,ISIC_0027514.JPG,5,ISIC_0176781.JPG,ISIC_0176781.JPG,false,0,keypress(z),500,523112.5,523112.299999997,518509.944,518518.8999999985,518525.101,523116.396,8,400,3,,ISIC_0027514.JPG
break,html.Screen,4_102_1,2023-11-03T19:08:09.183Z,,0,,,NaN,,,,,,false,,,,523112.799999997,523112.69999999553,,523112.6000000015,,523116.396,8,400,,,
break_continue,html.Screen,4_102_2,2023-11-03T19:08:09.183Z,,0,,,NaN,,,,,,false,,,,523112.8999999985,523112.8999999985,,523112.799999997,,523116.396,8,400,,,
sequence,flow.Sequence,4_102,2023-11-03T19:08:09.183Z,,0,,,4587.798999998486,completion,,,,,false,,,,523113,523112.8999999985,518509.944,518518.8999999985,518525.101,523116.396,8,400,,,
trial,html.Screen,4_103_0,2023-11-03T19:08:15.488Z,,0,3,,6301.204000001482,response,ISIC_0028181.JPG,4,ISIC_4746361.JPG,ISIC_4746361.JPG,false,0,keypress(z),500,529417.6999999955,529417.6000000015,523109.297,523113,523116.396,529422.453,8,400,4,,ISIC_0028181.JPG
break,html.Screen,4_103_1,2023-11-03T19:08:15.488Z,,0,,,NaN,,,,,,false,,,,529418.1000000015,529418,,529417.8999999985,,529422.453,8,400,,,
break_continue,html.Screen,4_103_2,2023-11-03T19:08:15.488Z,,0,,,NaN,,,,,,false,,,,529418.1999999955,529418.1999999955,,529418.1000000015,,529422.453,8,400,,,
sequence,flow.Sequence,4_103,2023-11-03T19:08:15.488Z,,0,,,6301.803999995522,completion,,,,,false,,,,529418.1999999955,529418.1999999955,523109.297,523113,523116.396,529422.453,8,400,,,
trial,html.Screen,4_104_0,2023-11-03T19:08:20.274Z,,0,3,,4781.647000001511,response,ISIC_6531118.JPG,5,ISIC_0356904.JPG,ISIC_0356904.JPG,false,0,keypress(z),500,534204.3999999985,534204.1000000015,529415.254,529418.1999999955,529422.453,534209.224,8,400,5,,ISIC_6531118.JPG
break,html.Screen,4_104_1,2023-11-03T19:08:20.275Z,,0,,,NaN,,,,,,false,,,,534205.299999997,534205.1000000015,,534204.6999999955,,534209.224,8,400,,,
break_continue,html.Screen,4_104_2,2023-11-03T19:08:20.276Z,,0,,,NaN,,,,,,false,,,,534205.799999997,534205.6999999955,,534205.5,,534209.224,8,400,,,
sequence,flow.Sequence,4_104,2023-11-03T19:08:20.276Z,,0,,,4783.24699999555,completion,,,,,false,,,,534206.1000000015,534205.6999999955,529415.254,529418.1999999955,529422.453,534209.224,8,400,,,
trial,html.Screen,4_105_0,2023-11-03T19:08:24.934Z,,0,3,,4654.775999999954,response,ISIC_0346815.JPG,4,ISIC_0031763.JPG,ISIC_0346815.JPG,false,1,keypress(m),500,538864.1999999955,538864,534202.187,534206.299999997,534209.224,538871.008,8,400,6,,ISIC_0031763.JPG
break,html.Screen,4_105_1,2023-11-03T19:08:24.934Z,,0,,,NaN,,,,,,false,,,,538864.5,538864.3999999985,,538864.299999997,,538871.008,8,400,,,
break_continue,html.Screen,4_105_2,2023-11-03T19:08:24.934Z,,0,,,NaN,,,,,,false,,,,538864.6000000015,538864.6000000015,,538864.6000000015,,538871.008,8,400,,,
sequence,flow.Sequence,4_105,2023-11-03T19:08:24.935Z,,0,,,4655.3760000014445,completion,,,,,false,,,,538864.6000000015,538864.6000000015,534202.187,534206.1999999955,534209.224,538871.008,8,400,,,
trial,html.Screen,4_106_0,2023-11-03T19:08:30.024Z,,0,3,,5082.991999999969,response,ISIC_0055311.JPG,5,ISIC_0028781.JPG,ISIC_0028781.JPG,false,0,keypress(z),500,543954.299999997,543954,538863.868,538864.799999997,538871.008,543963.978,8,400,7,,ISIC_0055311.JPG
break,html.Screen,4_106_1,2023-11-03T19:08:30.025Z,,0,,,NaN,,,,,,false,,,,543955.299999997,543955.1000000015,,543954.6000000015,,543963.978,8,400,,,
break_continue,html.Screen,4_106_2,2023-11-03T19:08:30.026Z,,0,,,NaN,,,,,,false,,,,543955.6999999955,543955.6000000015,,543955.3999999985,,543963.978,8,400,,,
sequence,flow.Sequence,4_106,2023-11-03T19:08:30.026Z,,0,,,5084.592000001459,completion,,,,,false,,,,543956,543955.6000000015,538863.868,538864.799999997,538871.008,543963.978,8,400,,,
trial,html.Screen,4_107_0,2023-11-03T19:08:34.844Z,,0,3,,4809.921999998507,response,ISIC_0012150.JPG,4,ISIC_3763984.JPG,ISIC_0012150.JPG,false,1,keypress(m),500,548774.299999997,548773.8999999985,543948.886,543956.1999999955,543963.978,548784.315,8,400,8,,ISIC_3763984.JPG
break,html.Screen,4_107_1,2023-11-03T19:08:34.845Z,,0,,,NaN,,,,,,false,,,,548775.1999999955,548775.1000000015,,548774.6000000015,,548784.315,8,400,,,
break_continue,html.Screen,4_107_2,2023-11-03T19:08:34.846Z,,0,,,NaN,,,,,,false,,,,548775.6000000015,548775.5,,548775.3999999985,,548784.315,8,400,,,
sequence,flow.Sequence,4_107,2023-11-03T19:08:34.846Z,,0,,,4811.521999999997,completion,,,,,false,,,,548775.799999997,548775.5,543948.886,543956.1000000015,543963.978,548784.315,8,400,,,
trial,html.Screen,4_108_0,2023-11-03T19:08:42.736Z,,0,3,,7881.084999998566,response,ISIC_0067338.JPG,6,ISIC_3920274.JPG,ISIC_3920274.JPG,false,0,keypress(z),500,556665.6999999955,556665.3999999985,548777.336,548776,548784.315,556672.056,8,400,9,,ISIC_0067338.JPG
break,html.Screen,4_108_1,2023-11-03T19:08:42.736Z,,0,,,NaN,,,,,,false,,,,556666.5,556666.3999999985,,556666,,556672.056,8,400,,,
break_continue,html.Screen,4_108_2,2023-11-03T19:08:42.737Z,,0,,,NaN,,,,,,false,,,,556667,556666.8999999985,,556666.799999997,,556672.056,8,400,,,
sequence,flow.Sequence,4_108,2023-11-03T19:08:42.737Z,,0,,,7882.584999998566,completion,,,,,false,,,,556667.1999999955,556666.8999999985,548777.336,548776,548784.315,556672.056,8,400,,,
trial,html.Screen,4_109_0,2023-11-03T19:08:46.723Z,,0,3,,3980.6439999955473,response,ISIC_1843053.JPG,5,ISIC_2771979.JPG,ISIC_2771979.JPG,false,0,keypress(z),500,560652.8999999985,560652.6999999955,556664.898,556667.299999997,556672.056,560661.128,8,400,10,,ISIC_1843053.JPG
break,html.Screen,4_109_1,2023-11-03T19:08:46.724Z,,0,,,NaN,,,,,,false,,,,560653.799999997,560653.6000000015,,560653.1999999955,,560661.128,8,400,,,
break_continue,html.Screen,4_109_2,2023-11-03T19:08:46.724Z,,0,,,NaN,,,,,,false,,,,560654.299999997,560654.1999999955,,560654.1000000015,,560661.128,8,400,,,
sequence,flow.Sequence,4_109,2023-11-03T19:08:46.724Z,,0,,,3982.1439999955473,completion,,,,,false,,,,560654.6000000015,560654.1999999955,556664.898,556667.299999997,556672.056,560661.128,8,400,,,
trial,html.Screen,4_110_0,2023-11-03T19:08:50.134Z,,0,3,,3402.972000001464,response,ISIC_0003767.JPG,6,ISIC_6721869.JPG,ISIC_0003767.JPG,false,1,keypress(m),500,564064.3999999985,564064.1000000015,560653.8,560654.6999999955,560661.128,564067.102,8,400,11,,ISIC_6721869.JPG
break,html.Screen,4_110_1,2023-11-03T19:08:50.135Z,,0,,,NaN,,,,,,false,,,,564064.8999999985,564064.799999997,,564064.6000000015,,564067.102,8,400,,,
break_continue,html.Screen,4_110_2,2023-11-03T19:08:50.135Z,,0,,,NaN,,,,,,false,,,,564065,564065,,564064.8999999985,,564067.102,8,400,,,
sequence,flow.Sequence,4_110,2023-11-03T19:08:50.135Z,,0,,,3403.871999999974,completion,,,,,false,,,,564065,564065,560653.8,560654.6000000015,560661.128,564067.102,8,400,,,
trial,html.Screen,4_111_0,2023-11-03T19:08:54.568Z,,0,3,,4431.097999995574,response,ISIC_0367225.JPG,5,ISIC_0069105.JPG,ISIC_0069105.JPG,false,0,keypress(z),500,568498.6000000015,568498.1999999955,564060.271,564065,564067.102,568507.206,8,400,12,,ISIC_0367225.JPG
break,html.Screen,4_111_1,2023-11-03T19:08:54.569Z,,0,,,NaN,,,,,,false,,,,568499.5,568499.1999999955,,568498.799999997,,568507.206,8,400,,,
break_continue,html.Screen,4_111_2,2023-11-03T19:08:54.570Z,,0,,,NaN,,,,,,false,,,,568499.8999999985,568499.799999997,,568499.6000000015,,568507.206,8,400,,,
sequence,flow.Sequence,4_111,2023-11-03T19:08:54.570Z,,0,,,4432.6979999970645,completion,,,,,false,,,,568500.1999999955,568499.799999997,564060.271,564065,564067.102,568507.206,8,400,,,
trial,html.Screen,4_112_0,2023-11-03T19:08:58.189Z,,0,3,,3611.1939999985043,response,ISIC_0028462.JPG,6,ISIC_0060621.JPG,ISIC_0028462.JPG,false,1,keypress(m),500,572118.799999997,572118.3999999985,568493.093,568500.299999997,568507.206,572121.38,8,400,13,,ISIC_0060621.JPG
break,html.Screen,4_112_1,2023-11-03T19:08:58.190Z,,0,,,NaN,,,,,,false,,,,572119.6999999955,572119.5,,572119.1000000015,,572121.38,8,400,,,
break_continue,html.Screen,4_112_2,2023-11-03T19:08:58.191Z,,0,,,NaN,,,,,,false,,,,572120.1000000015,572120,,572119.8999999985,,572121.38,8,400,,,
sequence,flow.Sequence,4_112,2023-11-03T19:08:58.191Z,,0,,,3612.7939999999944,completion,,,,,false,,,,572120.299999997,572120,568493.093,568500.1999999955,568507.206,572121.38,8,400,,,
trial,html.Screen,4_113_0,2023-11-03T19:09:01.456Z,,0,3,,3264.2200000014855,response,ISIC_0922552.JPG,6,ISIC_0069370.JPG,ISIC_0922552.JPG,false,1,keypress(m),500,575385.6999999955,575385.6000000015,572114.215,572120.5,572121.38,575388.742,8,400,14,,ISIC_0069370.JPG
break,html.Screen,4_113_1,2023-11-03T19:09:01.457Z,,0,,,NaN,,,,,,false,,,,575386,575386,,575385.799999997,,575388.742,8,400,,,
break_continue,html.Screen,4_113_2,2023-11-03T19:09:01.457Z,,0,,,NaN,,,,,,false,,,,575386.1000000015,575386,,575386,,575388.742,8,400,,,
sequence,flow.Sequence,4_113,2023-11-03T19:09:01.457Z,,0,,,3264.6199999999953,completion,,,,,false,,,,575386.1000000015,575386,572114.215,572120.5,572121.38,575388.742,8,400,,,
trial,html.Screen,4_114_0,2023-11-03T19:09:05.395Z,,0,3,,3935.2580000000307,response,ISIC_3009877.JPG,5,ISIC_0011959.JPG,ISIC_0011959.JPG,false,0,keypress(z),500,579324.3999999985,579324,575381.723,575386.1000000015,575388.742,579329.192,8,400,15,,ISIC_3009877.JPG
break,html.Screen,4_114_1,2023-11-03T19:09:05.396Z,,0,,,NaN,,,,,,false,,,,579325.299999997,579325.1000000015,,579324.6999999955,,579329.192,8,400,,,
break_continue,html.Screen,4_114_2,2023-11-03T19:09:05.396Z,,0,,,NaN,,,,,,false,,,,579325.8999999985,579325.6000000015,,579325.5,,579329.192,8,400,,,
sequence,flow.Sequence,4_114,2023-11-03T19:09:05.397Z,,0,,,3936.858000001521,completion,,,,,false,,,,579326.1000000015,579325.6000000015,575381.723,575386.1000000015,575388.742,579329.192,8,400,,,
trial,html.Screen,4_115_0,2023-11-03T19:09:09.079Z,,0,3,,3679.307999999961,response,ISIC_0015455.JPG,5,ISIC_0941085.JPG,ISIC_0941085.JPG,false,0,keypress(z),500,583008.799999997,583008.5,579322.108,579326.1999999955,579329.192,583012.878,8,400,16,,ISIC_0015455.JPG
break,html.Screen,4_115_1,2023-11-03T19:09:09.080Z,,0,,,NaN,,,,,,false,,,,583009.799999997,583009.5,,583009.1000000015,,583012.878,8,400,,,
break_continue,html.Screen,4_115_2,2023-11-03T19:09:09.081Z,,0,,,NaN,,,,,,false,,,,583010.1999999955,583010,,583009.8999999985,,583012.878,8,400,,,
sequence,flow.Sequence,4_115,2023-11-03T19:09:09.081Z,,0,,,3680.807999999961,completion,,,,,false,,,,583010.299999997,583010,579322.108,579326.1999999955,579329.192,583012.878,8,400,,,
trial,html.Screen,4_116_0,2023-11-03T19:09:13.099Z,,0,3,,4015.121999999974,response,ISIC_3430311.JPG,5,ISIC_0028666.JPG,ISIC_0028666.JPG,false,0,keypress(z),500,587028.3999999985,587028,583005.65,583010.5,583012.878,587043.327,8,400,17,,ISIC_3430311.JPG
break,html.Screen,4_116_1,2023-11-03T19:09:13.100Z,,0,,,NaN,,,,,,false,,,,587029.299999997,587029,,587028.6000000015,,587043.327,8,400,,,
break_continue,html.Screen,4_116_2,2023-11-03T19:09:13.100Z,,0,,,NaN,,,,,,false,,,,587029.6999999955,587029.5,,587029.3999999985,,587043.327,8,400,,,
sequence,flow.Sequence,4_116,2023-11-03T19:09:13.101Z,,0,,,4016.621999999974,completion,,,,,false,,,,587030,587029.5,583005.65,583010.3999999985,583012.878,587043.327,8,400,,,
trial,html.Screen,4_117_0,2023-11-03T19:09:16.672Z,,0,3,,3557.1729999999516,response,ISIC_0065324.JPG,5,ISIC_7642500.JPG,ISIC_7642500.JPG,false,0,keypress(z),500,590600.8999999985,590600.5,587037.441,587030.1000000015,587043.327,590610.368,8,400,18,,ISIC_0065324.JPG
break,html.Screen,4_117_1,2023-11-03T19:09:16.672Z,,0,,,NaN,,,,,,false,,,,590601.799999997,590601.6000000015,,590601.1000000015,,590610.368,8,400,,,
break_continue,html.Screen,4_117_2,2023-11-03T19:09:16.673Z,,0,,,NaN,,,,,,false,,,,590602.299999997,590602.1999999955,,590601.8999999985,,590610.368,8,400,,,
sequence,flow.Sequence,4_117,2023-11-03T19:09:16.673Z,,0,,,3558.872999995481,completion,,,,,false,,,,590602.3999999985,590602.1999999955,587037.441,587030.1000000015,587043.327,590610.368,8,400,,,
trial,html.Screen,4_118_0,2023-11-03T19:09:25.635Z,,0,3,,8954.331999995513,response,ISIC_0011904.JPG,6,ISIC_7293697.JPG,ISIC_7293697.JPG,false,0,keypress(z),500,599564.799999997,599564.6999999955,590595.206,590602.6999999955,590610.368,599572.022,8,400,19,,ISIC_0011904.JPG
break,html.Screen,4_118_1,2023-11-03T19:09:25.636Z,,0,,,NaN,,,,,,false,,,,599565.1000000015,599565,,599564.8999999985,,599572.022,8,400,,,
break_continue,html.Screen,4_118_2,2023-11-03T19:09:25.636Z,,0,,,NaN,,,,,,false,,,,599565.1999999955,599565.1000000015,,599565.1000000015,,599572.022,8,400,,,
sequence,flow.Sequence,4_118,2023-11-03T19:09:25.636Z,,0,,,8954.732000001473,completion,,,,,false,,,,599565.299999997,599565.1000000015,590595.206,590602.6000000015,590610.368,599572.022,8,400,,,
trial,html.Screen,4_119_0,2023-11-03T19:09:29.653Z,,0,3,,4009.978000000003,response,ISIC_0010580.JPG,5,ISIC_0025571.JPG,ISIC_0025571.JPG,false,0,keypress(z),500,603582.3999999985,603582,599565.069,599565.299999997,599572.022,603588.812,8,400,20,,ISIC_0010580.JPG
break,html.Screen,4_119_1,2023-11-03T19:09:29.654Z,,0,,,NaN,,,,,,false,,,,603583.299999997,603583,,603582.6999999955,,603588.812,8,400,,,
break_continue,html.Screen,4_119_2,2023-11-03T19:09:29.654Z,,0,,,NaN,,,,,,false,,,,603583.6999999955,603583.6000000015,,603583.3999999985,,603588.812,8,400,,,
sequence,flow.Sequence,4_119,2023-11-03T19:09:29.655Z,,0,,,4011.578000001493,completion,,,,,false,,,,603583.8999999985,603583.6000000015,599565.069,599565.299999997,599572.022,603588.812,8,400,,,
trial,html.Screen,4_120_0,2023-11-03T19:09:33.097Z,,0,3,,3437.1879999999655,response,ISIC_0028226.JPG,5,ISIC_0072991.JPG,ISIC_0072991.JPG,false,0,keypress(z),500,607026.299999997,607026,603581.622,603584.1000000015,603588.812,607029.688,8,400,21,,ISIC_0028226.JPG
break,html.Screen,4_120_1,2023-11-03T19:09:33.098Z,,0,,,NaN,,,,,,false,,,,607027.1999999955,607027,,607026.6000000015,,607029.688,8,400,,,
break_continue,html.Screen,4_120_2,2023-11-03T19:09:33.098Z,,0,,,NaN,,,,,,false,,,,607027.6999999955,607027.6000000015,,607027.5,,607029.688,8,400,,,
sequence,flow.Sequence,4_120,2023-11-03T19:09:33.099Z,,0,,,3438.7880000014557,completion,,,,,false,,,,607027.8999999985,607027.6000000015,603581.622,603584,603588.812,607029.688,8,400,,,
trial,html.Screen,4_121_0,2023-11-03T19:09:36.365Z,,0,3,,3263.9120000015246,response,ISIC_3399603.JPG,4,ISIC_0057787.JPG,ISIC_3399603.JPG,false,1,keypress(m),500,610294,610293.6000000015,607022.481,607028.1999999955,607029.688,610297.149,8,400,22,,ISIC_0057787.JPG
break,html.Screen,4_121_1,2023-11-03T19:09:36.366Z,,0,,,NaN,,,,,,false,,,,610294.8999999985,610294.6999999955,,610294.1999999955,,610297.149,8,400,,,
break_continue,html.Screen,4_121_2,2023-11-03T19:09:36.366Z,,0,,,NaN,,,,,,false,,,,610295.299999997,610295.1999999955,,610295,,610297.149,8,400,,,
sequence,flow.Sequence,4_121,2023-11-03T19:09:36.366Z,,0,,,3265.511999995564,completion,,,,,false,,,,610295.6000000015,610295.1999999955,607022.481,607028.1000000015,607029.688,610297.149,8,400,,,
trial,html.Screen,4_122_0,2023-11-03T19:09:39.841Z,,0,3,,3473.250999998534,response,ISIC_0030663.JPG,5,ISIC_7329395.JPG,ISIC_7329395.JPG,false,0,keypress(z),500,613770.6000000015,613770.3999999985,610290.047,610295.6999999955,610297.149,613780.074,8,400,23,,ISIC_0030663.JPG
break,html.Screen,4_122_1,2023-11-03T19:09:39.842Z,,0,,,NaN,,,,,,false,,,,613771.6999999955,613771.3999999985,,613771.1000000015,,613780.074,8,400,,,
break_continue,html.Screen,4_122_2,2023-11-03T19:09:39.844Z,,0,,,NaN,,,,,,false,,,,613773.6999999955,613773.5,,613773.299999997,,613780.074,8,400,,,
sequence,flow.Sequence,4_122,2023-11-03T19:09:39.845Z,,0,,,3476.351000000024,completion,,,,,false,,,,613773.8999999985,613773.5,610290.047,610295.6000000015,610297.149,613780.074,8,400,,,
trial,html.Screen,4_123_0,2023-11-03T19:09:43.430Z,,0,3,,3579.3259999984875,response,ISIC_4644299.JPG,6,ISIC_0068727.JPG,ISIC_4644299.JPG,false,1,keypress(m),500,617359.799999997,617359.3999999985,613765.713,613774.1000000015,613780.074,617366.167,8,400,24,,ISIC_0068727.JPG
break,html.Screen,4_123_1,2023-11-03T19:09:43.431Z,,0,,,NaN,,,,,,false,,,,617360.6999999955,617360.5,,617360,,617366.167,8,400,,,
break_continue,html.Screen,4_123_2,2023-11-03T19:09:43.432Z,,0,,,NaN,,,,,,false,,,,617361.1999999955,617361,,617360.8999999985,,617366.167,8,400,,,
sequence,flow.Sequence,4_123,2023-11-03T19:09:43.432Z,,0,,,3580.9259999999776,completion,,,,,false,,,,617361.6000000015,617361,613765.713,613774.1000000015,613780.074,617366.167,8,400,,,
trial,html.Screen,4_124_0,2023-11-03T19:09:47.130Z,,0,3,,3692.832999999984,response,ISIC_1525284.JPG,5,ISIC_8246858.JPG,ISIC_8246858.JPG,false,0,keypress(z),500,621059.299999997,621059,617359.081,617361.6999999955,617366.167,621063.755,8,400,25,,ISIC_1525284.JPG
break,html.Screen,4_124_1,2023-11-03T19:09:47.131Z,,0,,,NaN,,,,,,false,,,,621060.299999997,621060,,621059.5,,621063.755,8,400,,,
break_continue,html.Screen,4_124_2,2023-11-03T19:09:47.131Z,,0,,,NaN,,,,,,false,,,,621060.799999997,621060.5,,621060.3999999985,,621063.755,8,400,,,
sequence,flow.Sequence,4_124,2023-11-03T19:09:47.132Z,,0,,,3694.332999999984,completion,,,,,false,,,,621061.1000000015,621060.5,617359.081,617361.6000000015,617366.167,621063.755,8,400,,,
trial,html.Screen,4_125_0,2023-11-03T19:09:51.358Z,,0,3,,4223.044999997015,response,ISIC_0025779.JPG,5,ISIC_3760796.JPG,ISIC_3760796.JPG,false,0,keypress(z),500,625287.1000000015,625286.799999997,621056.619,621061.299999997,621063.755,625296.504,8,400,26,,ISIC_0025779.JPG
break,html.Screen,4_125_1,2023-11-03T19:09:51.359Z,,0,,,NaN,,,,,,false,,,,625288,625287.799999997,,625287.299999997,,625296.504,8,400,,,
break_continue,html.Screen,4_125_2,2023-11-03T19:09:51.359Z,,0,,,NaN,,,,,,false,,,,625288.3999999985,625288.299999997,,625288.1000000015,,625296.504,8,400,,,
sequence,flow.Sequence,4_125,2023-11-03T19:09:51.359Z,,0,,,4224.544999997015,completion,,,,,false,,,,625288.799999997,625288.299999997,621056.619,621061.1999999955,621063.755,625296.504,8,400,,,
