sender,sender_type,sender_id,timestamp,meta,,blockNo,condition,duration,ended_on,img_left,img_reveal,img_right,loser,practice,response,response_action,selection_duration,time_commit,time_end,time_render,time_run,time_show,time_switch,total_blocks,total_trials,trialNo,url,winner
informed_consent,html.Screen,0,2023-10-31T03:13:38.664Z,"{""labjs_version"":""20.2.4"",""labjs_build"":{""flavor"":""production"",""commit"":""f5b4a49f956347addd546a832a3327688c2c0fef""},""location"":""https://run.pavlovia.org/MurrayBennett/melanoma-2afc/?participant=67584&platform=sona"",""userAgent"":""Mozilla/5.0 (Macintosh; Intel Mac OS X 10_15_7) AppleWebKit/537.36 (KHTML, like Gecko) Chrome/116.0.0.0 Safari/537.36"",""platform"":""MacIntel"",""language"":""en-US"",""locale"":""en-US"",""timeZone"":""America/Chicago"",""timezoneOffset"":300,""screen_width"":1440,""screen_height"":900,""scroll_width"":1440,""scroll_height"":767,""window_innerWidth"":1440,""window_innerHeight"":815,""devicePixelRatio"":1}",,,,10307.115,response,,,,,,consent,click button,,13394.5,13391,3067.174,3075.2000000029802,3083.885,13428.202,,,,"{""participant"":""67584"",""platform"":""sona""}",
Welcome,html.Screen,1,2023-10-31T03:13:46.978Z,,,,regular,8278.998000002981,response,,,,,,continue,click button,,21709.20000000298,21707.20000000298,13378.069,13394.90000000596,13428.202,21717.25,,,,,
trial,html.Screen,2_0_0,2023-10-31T03:13:55.352Z,,0,0,,8364.95000000298,response,ISIC_0061792.JPG,,ISIC_4679428.JPG,ISIC_0061792.JPG,true,1,keypress(m),500,30082.79999999702,30082.20000000298,21700.539,21709.40000000596,21717.25,30089.461,1,6,1,,ISIC_4679428.JPG
sequence,flow.Sequence,2_0,2023-10-31T03:13:55.352Z,,0,,,8364.95000000298,completion,,,,,true,,,,30083.20000000298,30082.20000000298,21700.539,21709.40000000596,21717.25,30089.461,1,6,,,
trial,html.Screen,2_1_0,2023-10-31T03:14:02.148Z,,0,0,,6789.239000002981,response,ISIC_0776486.JPG,,ISIC_5199497.JPG,ISIC_0776486.JPG,true,1,keypress(m),500,36879,36878.70000000298,30072.75,30083.29999999702,30089.461,36891.026,1,6,2,,ISIC_5199497.JPG
sequence,flow.Sequence,2_1,2023-10-31T03:14:02.149Z,,0,,,6789.239000002981,completion,,,,,true,,,,36879.29999999702,36878.70000000298,30072.75,30083.29999999702,30089.461,36891.026,1,6,,,
trial,html.Screen,2_2_0,2023-10-31T03:14:13.646Z,,0,0,,11514.171999999999,timeout,ISIC_2556187.JPG,,ISIC_8575776.JPG,,true,,,500,48376.79999999702,48376.59999999404,36874.315,36879.59999999404,36891.026,48405.198,1,6,3,,
sequence,flow.Sequence,2_2,2023-10-31T03:14:13.646Z,,0,,,11485.573999994042,completion,,,,,true,,,,48377.20000000298,48376.59999999404,36874.315,36879.40000000596,36891.026,48405.198,1,6,,,
trial,html.Screen,2_3_0,2023-10-31T03:14:16.753Z,,0,0,,3078.101999997023,response,ISIC_8141769.JPG,,ISIC_9238366.JPG,ISIC_8141769.JPG,true,1,keypress(m),500,51483.59999999404,51483.29999999702,48388.487,48377.5,48405.198,51496.733,1,6,4,,ISIC_9238366.JPG
sequence,flow.Sequence,2_3,2023-10-31T03:14:16.753Z,,0,,,3078.101999997023,completion,,,,,true,,,,51484.09999999404,51483.29999999702,48388.487,48377.40000000596,48405.198,51496.733,1,6,,,
trial,html.Screen,2_4_0,2023-10-31T03:14:20.741Z,,0,0,,3974.767,response,ISIC_9959593.JPG,,ISIC_8949026.JPG,ISIC_8949026.JPG,true,0,keypress(z),500,55471.70000000298,55471.5,51480.022,51484.29999999702,51496.733,55473.951,1,6,5,,ISIC_9959593.JPG
sequence,flow.Sequence,2_4,2023-10-31T03:14:20.741Z,,0,,,3974.767,completion,,,,,true,,,,55472,55471.5,51480.022,51484.20000000298,51496.733,55473.951,1,6,,,
trial,html.Screen,2_5_0,2023-10-31T03:14:25.323Z,,0,0,,4579.749000002979,response,ISIC_0460240.JPG,,ISIC_0010479.JPG,ISIC_0010479.JPG,true,0,keypress(z),500,60054.09999999404,60053.70000000298,55457.24,55472.09999999404,55473.951,60069.62,1,6,6,,ISIC_0460240.JPG
sequence,flow.Sequence,2_5,2023-10-31T03:14:25.324Z,,0,,,4579.749000002979,completion,,,,,true,,,,60054.5,60053.70000000298,55457.24,55472,55473.951,60069.62,1,6,,,
loop,flow.Loop,2,2023-10-31T03:14:25.324Z,,,,,38336.45000000298,completion,,,,,true,,,,60054.70000000298,60053.70000000298,21700.539,21709.40000000596,21717.25,60069.62,1,6,,,
exp_instructions,html.Screen,3,2023-10-31T03:14:29.138Z,,,,,3794.5800000029776,response,,,,,,continue,keypress(Space),,63868.79999999702,63864.20000000298,60052.909,60054.90000000596,60069.62,63879.728,,,,,
trial,html.Screen,4_0_0,2023-10-31T03:14:32.566Z,,0,1,,3416.6720000059577,response,ISIC_4243283.JPG,9,ISIC_4425657.JPG,ISIC_4243283.JPG,false,1,keypress(m),500,67296.59999999404,67296.40000000596,63863.017,63869.09999999404,63879.728,67305.483,8,400,1,,ISIC_4425657.JPG
break,html.Screen,4_0_1,2023-10-31T03:14:32.567Z,,0,,,NaN,,,,,,false,,,,67297.90000000596,67297.5,,67296.79999999702,,67305.483,8,400,,,
break_continue,html.Screen,4_0_2,2023-10-31T03:14:32.568Z,,0,,,NaN,,,,,,false,,,,67298.5,67298.29999999702,,67298,,67305.483,8,400,,,
sequence,flow.Sequence,4_0,2023-10-31T03:14:32.568Z,,0,,,3418.571999997017,completion,,,,,false,,,,67298.79999999702,67298.29999999702,63863.017,63869.09999999404,63879.728,67305.483,8,400,,,
trial,html.Screen,4_1_0,2023-10-31T03:14:35.653Z,,0,1,,3077.6169999940466,response,ISIC_0073015.JPG,6,ISIC_1595103.JPG,ISIC_1595103.JPG,false,0,keypress(z),500,70383.29999999702,70383.09999999404,67288.772,67298.79999999702,67305.483,70397.278,8,400,2,,ISIC_0073015.JPG
break,html.Screen,4_1_1,2023-10-31T03:14:35.654Z,,0,,,NaN,,,,,,false,,,,70384.29999999702,70384.09999999404,,70383.5,,70397.278,8,400,,,
break_continue,html.Screen,4_1_2,2023-10-31T03:14:35.654Z,,0,,,NaN,,,,,,false,,,,70384.90000000596,70384.70000000298,,70384.5,,70397.278,8,400,,,
sequence,flow.Sequence,4_1,2023-10-31T03:14:35.654Z,,0,,,3079.2170000029873,completion,,,,,false,,,,70385.09999999404,70384.70000000298,67288.772,67298.79999999702,67305.483,70397.278,8,400,,,
trial,html.Screen,4_2_0,2023-10-31T03:14:39.001Z,,0,1,,3334.2219999999943,response,ISIC_0011546.JPG,8,ISIC_5559730.JPG,ISIC_0011546.JPG,false,1,keypress(m),500,73731.79999999702,73731.5,70380.567,70385.29999999702,70397.278,73739.478,8,400,3,,ISIC_5559730.JPG
break,html.Screen,4_2_1,2023-10-31T03:14:39.003Z,,0,,,NaN,,,,,,false,,,,73733.5,73733,,73732.20000000298,,73739.478,8,400,,,
break_continue,html.Screen,4_2_2,2023-10-31T03:14:39.003Z,,0,,,NaN,,,,,,false,,,,73734.09999999404,73734,,73733.70000000298,,73739.478,8,400,,,
sequence,flow.Sequence,4_2,2023-10-31T03:14:39.004Z,,0,,,3336.7219999999943,completion,,,,,false,,,,73734.29999999702,73734,70380.567,70385.20000000298,70397.278,73739.478,8,400,,,
trial,html.Screen,4_3_0,2023-10-31T03:14:44.558Z,,0,1,,5549.422000005958,response,ISIC_0010883.JPG,8,ISIC_7327423.JPG,ISIC_7327423.JPG,false,0,keypress(z),500,79289.09999999404,79288.90000000596,73722.767,73734.5,73739.478,79304.241,8,400,4,,ISIC_0010883.JPG
break,html.Screen,4_3_1,2023-10-31T03:14:44.559Z,,0,,,NaN,,,,,,false,,,,79290.20000000298,79289.90000000596,,79289.40000000596,,79304.241,8,400,,,
break_continue,html.Screen,4_3_2,2023-10-31T03:14:44.560Z,,0,,,NaN,,,,,,false,,,,79290.70000000298,79290.5,,79290.29999999702,,79304.241,8,400,,,
sequence,flow.Sequence,4_3,2023-10-31T03:14:44.560Z,,0,,,5551.021999999997,completion,,,,,false,,,,79290.90000000596,79290.5,73722.767,73734.40000000596,73739.478,79304.241,8,400,,,
trial,html.Screen,4_4_0,2023-10-31T03:14:47.516Z,,0,1,,2941.7590000000055,response,ISIC_0031170.JPG,7,ISIC_8935085.JPG,ISIC_0031170.JPG,false,1,keypress(m),500,82246.29999999702,82246,79287.53,79291.09999999404,79304.241,82262.258,8,400,5,,ISIC_8935085.JPG
break,html.Screen,4_4_1,2023-10-31T03:14:47.517Z,,0,,,NaN,,,,,,false,,,,82247.29999999702,82247.09999999404,,82246.5,,82262.258,8,400,,,
break_continue,html.Screen,4_4_2,2023-10-31T03:14:47.517Z,,0,,,NaN,,,,,,false,,,,82247.90000000596,82247.70000000298,,82247.5,,82262.258,8,400,,,
sequence,flow.Sequence,4_4,2023-10-31T03:14:47.517Z,,0,,,2943.4590000029857,completion,,,,,false,,,,82248.09999999404,82247.70000000298,79287.53,79291,79304.241,82262.258,8,400,,,
trial,html.Screen,4_5_0,2023-10-31T03:14:51.521Z,,0,1,,3988.9420000029786,response,ISIC_5204408.JPG,8,ISIC_0027101.JPG,ISIC_5204408.JPG,false,1,keypress(m),500,86251.5,86251.20000000298,82245.547,82248.20000000298,82262.258,86256.187,8,400,6,,ISIC_0027101.JPG
break,html.Screen,4_5_1,2023-10-31T03:14:51.522Z,,0,,,NaN,,,,,,false,,,,86252.40000000596,86252.09999999404,,86251.70000000298,,86256.187,8,400,,,
break_continue,html.Screen,4_5_2,2023-10-31T03:14:51.522Z,,0,,,NaN,,,,,,false,,,,86253.09999999404,86252.90000000596,,86252.70000000298,,86256.187,8,400,,,
sequence,flow.Sequence,4_5,2023-10-31T03:14:51.523Z,,0,,,3990.642000005959,completion,,,,,false,,,,86253.40000000596,86252.90000000596,82245.547,82248.20000000298,82262.258,86256.187,8,400,,,
trial,html.Screen,4_6_0,2023-10-31T03:14:54.694Z,,0,1,,3168.6129999970144,response,ISIC_0032637.JPG,6,ISIC_0029562.JPG,ISIC_0029562.JPG,false,0,keypress(z),500,89425.09999999404,89424.79999999702,86239.476,86253.5,86256.187,89431.277,8,400,7,,ISIC_0032637.JPG
break,html.Screen,4_6_1,2023-10-31T03:14:54.695Z,,0,,,NaN,,,,,,false,,,,89426.09999999404,89425.70000000298,,89425.20000000298,,89431.277,8,400,,,
break_continue,html.Screen,4_6_2,2023-10-31T03:14:54.696Z,,0,,,NaN,,,,,,false,,,,89426.79999999702,89426.59999999404,,89426.40000000596,,89431.277,8,400,,,
sequence,flow.Sequence,4_6,2023-10-31T03:14:54.696Z,,0,,,3170.412999994034,completion,,,,,false,,,,89427,89426.59999999404,86239.476,86253.5,86256.187,89431.277,8,400,,,
trial,html.Screen,4_7_0,2023-10-31T03:14:58.660Z,,0,1,,3958.3229999940377,response,ISIC_0031674.JPG,5,ISIC_0066354.JPG,ISIC_0066354.JPG,false,0,keypress(z),500,93391.09999999404,93389.59999999404,89414.566,89427.29999999702,89431.277,93391.959,8,400,8,,ISIC_0031674.JPG
break,html.Screen,4_7_1,2023-10-31T03:14:58.661Z,,0,,,NaN,,,,,,false,,,,93392.09999999404,93391.79999999702,,93391.29999999702,,93391.959,8,400,,,
break_continue,html.Screen,4_7_2,2023-10-31T03:14:58.662Z,,0,,,NaN,,,,,,false,,,,93392.70000000298,93392.5,,93392.29999999702,,93391.959,8,400,,,
sequence,flow.Sequence,4_7,2023-10-31T03:14:58.662Z,,0,,,3961.222999999998,completion,,,,,false,,,,93392.90000000596,93392.5,89414.566,89427.09999999404,89431.277,93391.959,8,400,,,
trial,html.Screen,4_8_0,2023-10-31T03:15:03.785Z,,0,1,,5123.540999999997,response,ISIC_2559074.JPG,9,ISIC_6635699.JPG,ISIC_2559074.JPG,false,1,keypress(m),500,98515.70000000298,98515.5,93375.248,93393,93391.959,98522.236,8,400,9,,ISIC_6635699.JPG
break,html.Screen,4_8_1,2023-10-31T03:15:03.786Z,,0,,,NaN,,,,,,false,,,,98516.90000000596,98516.40000000596,,98515.90000000596,,98522.236,8,400,,,
break_continue,html.Screen,4_8_2,2023-10-31T03:15:03.787Z,,0,,,NaN,,,,,,false,,,,98517.5,98517.20000000298,,98517,,98522.236,8,400,,,
sequence,flow.Sequence,4_8,2023-10-31T03:15:03.787Z,,0,,,5125.241000002978,completion,,,,,false,,,,98517.59999999404,98517.20000000298,93375.248,93393,93391.959,98522.236,8,400,,,
trial,html.Screen,4_9_0,2023-10-31T03:15:07.101Z,,0,1,,3309.363999994035,response,ISIC_8172822.JPG,6,ISIC_9286292.JPG,ISIC_9286292.JPG,false,0,keypress(z),500,101831.90000000596,101831.59999999404,98505.525,98517.70000000298,98522.236,101847.933,8,400,10,,ISIC_8172822.JPG
break,html.Screen,4_9_1,2023-10-31T03:15:07.102Z,,0,,,NaN,,,,,,false,,,,101833,101832.59999999404,,101832.09999999404,,101847.933,8,400,,,
break_continue,html.Screen,4_9_2,2023-10-31T03:15:07.103Z,,0,,,NaN,,,,,,false,,,,101833.5,101833.40000000596,,101833.09999999404,,101847.933,8,400,,,
sequence,flow.Sequence,4_9,2023-10-31T03:15:07.103Z,,0,,,3311.164000005956,completion,,,,,false,,,,101833.70000000298,101833.40000000596,98505.525,98517.70000000298,98522.236,101847.933,8,400,,,
trial,html.Screen,4_10_0,2023-10-31T03:15:10.306Z,,0,1,,3188.8669999970152,response,ISIC_1234463.JPG,4,ISIC_0067054.JPG,ISIC_0067054.JPG,false,0,keypress(z),500,105037.09999999404,105036.79999999702,101831.222,101833.90000000596,101847.933,105039.734,8,400,11,,ISIC_1234463.JPG
break,html.Screen,4_10_1,2023-10-31T03:15:10.307Z,,0,,,NaN,,,,,,false,,,,105038,105037.79999999702,,105037.29999999702,,105039.734,8,400,,,
break_continue,html.Screen,4_10_2,2023-10-31T03:15:10.308Z,,0,,,NaN,,,,,,false,,,,105038.59999999404,105038.5,,105038.20000000298,,105039.734,8,400,,,
sequence,flow.Sequence,4_10,2023-10-31T03:15:10.308Z,,0,,,3190.5669999999955,completion,,,,,false,,,,105038.79999999702,105038.5,101831.222,101833.79999999702,101847.933,105039.734,8,400,,,
trial,html.Screen,4_11_0,2023-10-31T03:15:13.142Z,,0,1,,2832.6660000059637,response,ISIC_0027280.JPG,6,ISIC_4930632.JPG,ISIC_0027280.JPG,false,1,keypress(m),500,107872.59999999404,107872.40000000596,105023.023,105039,105039.734,107880.604,8,400,12,,ISIC_4930632.JPG
break,html.Screen,4_11_1,2023-10-31T03:15:13.143Z,,0,,,NaN,,,,,,false,,,,107873.59999999404,107873.5,,107872.90000000596,,107880.604,8,400,,,
break_continue,html.Screen,4_11_2,2023-10-31T03:15:13.143Z,,0,,,NaN,,,,,,false,,,,107874.20000000298,107874,,107873.79999999702,,107880.604,8,400,,,
sequence,flow.Sequence,4_11,2023-10-31T03:15:13.144Z,,0,,,2834.2660000000033,completion,,,,,false,,,,107874.40000000596,107874,105023.023,105038.90000000596,105039.734,107880.604,8,400,,,
trial,html.Screen,4_12_0,2023-10-31T03:15:15.931Z,,0,1,,2780.695999997013,response,ISIC_1223849.JPG,6,ISIC_0064066.JPG,ISIC_0064066.JPG,false,0,keypress(z),500,110661.59999999404,110661.29999999702,107863.893,107874.59999999404,107880.604,110671.341,8,400,13,,ISIC_1223849.JPG
break,html.Screen,4_12_1,2023-10-31T03:15:15.932Z,,0,,,NaN,,,,,,false,,,,110662.59999999404,110662.29999999702,,110661.79999999702,,110671.341,8,400,,,
break_continue,html.Screen,4_12_2,2023-10-31T03:15:15.932Z,,0,,,NaN,,,,,,false,,,,110663.29999999702,110663.09999999404,,110662.70000000298,,110671.341,8,400,,,
sequence,flow.Sequence,4_12,2023-10-31T03:15:15.933Z,,0,,,2782.495999994033,completion,,,,,false,,,,110663.5,110663.09999999404,107863.893,107874.5,107880.604,110671.341,8,400,,,
trial,html.Screen,4_13_0,2023-10-31T03:15:19.196Z,,0,1,,3255.6589999999997,response,ISIC_3786438.JPG,8,ISIC_8066660.JPG,ISIC_3786438.JPG,false,1,keypress(m),500,113927.09999999404,113927,110654.63,110663.59999999404,110671.341,113930.143,8,400,14,,ISIC_8066660.JPG
break,html.Screen,4_13_1,2023-10-31T03:15:19.197Z,,0,,,NaN,,,,,,false,,,,113928.20000000298,113927.90000000596,,113927.40000000596,,113930.143,8,400,,,
break_continue,html.Screen,4_13_2,2023-10-31T03:15:19.198Z,,0,,,NaN,,,,,,false,,,,113928.70000000298,113928.5,,113928.29999999702,,113930.143,8,400,,,
sequence,flow.Sequence,4_13,2023-10-31T03:15:19.198Z,,0,,,3257.1589999999997,completion,,,,,false,,,,113928.79999999702,113928.5,110654.63,110663.5,110671.341,113930.143,8,400,,,
trial,html.Screen,4_14_0,2023-10-31T03:15:21.874Z,,0,1,,2674.257000005964,response,ISIC_5671175.JPG,7,ISIC_5581931.JPG,ISIC_5581931.JPG,false,0,keypress(z),500,116604.70000000298,116604.40000000596,113913.432,113929.09999999404,113930.143,116620.614,8,400,15,,ISIC_5671175.JPG
break,html.Screen,4_14_1,2023-10-31T03:15:21.875Z,,0,,,NaN,,,,,,false,,,,116605.70000000298,116605.40000000596,,116604.90000000596,,116620.614,8,400,,,
break_continue,html.Screen,4_14_2,2023-10-31T03:15:21.875Z,,0,,,NaN,,,,,,false,,,,116606.20000000298,116606.09999999404,,116605.79999999702,,116620.614,8,400,,,
sequence,flow.Sequence,4_14,2023-10-31T03:15:21.876Z,,0,,,2675.956999994043,completion,,,,,false,,,,116606.40000000596,116606.09999999404,113913.432,113929,113930.143,116620.614,8,400,,,
trial,html.Screen,4_15_0,2023-10-31T03:15:24.706Z,,0,1,,2815.985999994038,response,ISIC_0068847.JPG,6,ISIC_4973666.JPG,ISIC_0068847.JPG,false,1,keypress(m),500,119436.90000000596,119436.59999999404,116603.903,116606.59999999404,116620.614,119444.773,8,400,16,,ISIC_4973666.JPG
break,html.Screen,4_15_1,2023-10-31T03:15:24.707Z,,0,,,NaN,,,,,,false,,,,119437.79999999702,119437.5,,119437.09999999404,,119444.773,8,400,,,
break_continue,html.Screen,4_15_2,2023-10-31T03:15:24.708Z,,0,,,NaN,,,,,,false,,,,119438.29999999702,119438.20000000298,,119438,,119444.773,8,400,,,
sequence,flow.Sequence,4_15,2023-10-31T03:15:24.708Z,,0,,,2817.586000002979,completion,,,,,false,,,,119438.59999999404,119438.20000000298,116603.903,116606.59999999404,116620.614,119444.773,8,400,,,
trial,html.Screen,4_16_0,2023-10-31T03:15:27.607Z,,0,1,,2892.5269999970187,response,ISIC_0026558.JPG,6,ISIC_0025472.JPG,ISIC_0025472.JPG,false,0,keypress(z),500,122337.59999999404,122337.29999999702,119428.062,119438.70000000298,119444.773,122352.69,8,400,17,,ISIC_0026558.JPG
break,html.Screen,4_16_1,2023-10-31T03:15:27.608Z,,0,,,NaN,,,,,,false,,,,122338.5,122338.29999999702,,122337.79999999702,,122352.69,8,400,,,
break_continue,html.Screen,4_16_2,2023-10-31T03:15:27.608Z,,0,,,NaN,,,,,,false,,,,122339.09999999404,122338.90000000596,,122338.70000000298,,122352.69,8,400,,,
sequence,flow.Sequence,4_16,2023-10-31T03:15:27.608Z,,0,,,2894.1270000059594,completion,,,,,false,,,,122339.20000000298,122338.90000000596,119428.062,119438.59999999404,119444.773,122352.69,8,400,,,
trial,html.Screen,4_17_0,2023-10-31T03:15:30.443Z,,0,1,,2820.710000005958,response,ISIC_4564960.JPG,6,ISIC_0031553.JPG,ISIC_4564960.JPG,false,1,keypress(m),500,125173.59999999404,125173.40000000596,122335.979,122339.40000000596,122352.69,125176.849,8,400,18,,ISIC_0031553.JPG
break,html.Screen,4_17_1,2023-10-31T03:15:30.444Z,,0,,,NaN,,,,,,false,,,,125174.5,125174.20000000298,,125173.79999999702,,125176.849,8,400,,,
break_continue,html.Screen,4_17_2,2023-10-31T03:15:30.444Z,,0,,,NaN,,,,,,false,,,,125175.09999999404,125175,,125174.70000000298,,125176.849,8,400,,,
sequence,flow.Sequence,4_17,2023-10-31T03:15:30.444Z,,0,,,2822.3099999999977,completion,,,,,false,,,,125175.29999999702,125175,122335.979,122339.40000000596,122352.69,125176.849,8,400,,,
trial,html.Screen,4_18_0,2023-10-31T03:15:33.279Z,,0,1,,2833.2509999940376,response,ISIC_1075605.JPG,5,ISIC_1968421.JPG,ISIC_1075605.JPG,false,1,keypress(m),500,128010.29999999702,128010.09999999404,125160.138,125175.5,125176.849,128017.719,8,400,19,,ISIC_1968421.JPG
break,html.Screen,4_18_1,2023-10-31T03:15:33.280Z,,0,,,NaN,,,,,,false,,,,128011.20000000298,128011,,128010.5,,128017.719,8,400,,,
break_continue,html.Screen,4_18_2,2023-10-31T03:15:33.281Z,,0,,,NaN,,,,,,false,,,,128011.70000000298,128011.59999999404,,128011.40000000596,,128017.719,8,400,,,
sequence,flow.Sequence,4_18,2023-10-31T03:15:33.281Z,,0,,,2834.7509999940376,completion,,,,,false,,,,128012,128011.59999999404,125160.138,125175.29999999702,125176.849,128017.719,8,400,,,
trial,html.Screen,4_19_0,2023-10-31T03:15:36.053Z,,0,1,,2766.2810000000027,response,ISIC_0027646.JPG,7,ISIC_0066626.JPG,ISIC_0066626.JPG,false,0,keypress(z),500,130784.09999999404,130784,128001.008,128012.09999999404,128017.719,130791.745,8,400,20,,ISIC_0027646.JPG
break,html.Screen,4_19_1,2023-10-31T03:15:36.054Z,,0,,,NaN,,,,,,false,,,,130785.09999999404,130784.79999999702,,130784.29999999702,,130791.745,8,400,,,
break_continue,html.Screen,4_19_2,2023-10-31T03:15:36.055Z,,0,,,NaN,,,,,,false,,,,130785.70000000298,130785.5,,130785.29999999702,,130791.745,8,400,,,
sequence,flow.Sequence,4_19,2023-10-31T03:15:36.055Z,,0,,,2767.7810000000027,completion,,,,,false,,,,130785.90000000596,130785.5,128001.008,128012,128017.719,130791.745,8,400,,,
trial,html.Screen,4_20_0,2023-10-31T03:15:39.307Z,,0,1,,3245.5549999970244,response,ISIC_3352962.JPG,7,ISIC_9505595.JPG,ISIC_9505595.JPG,false,0,keypress(z),500,134037.59999999404,134037.29999999702,130775.034,130786,130791.745,134050.591,8,400,21,,ISIC_3352962.JPG
break,html.Screen,4_20_1,2023-10-31T03:15:39.308Z,,0,,,NaN,,,,,,false,,,,134038.5,134038.20000000298,,134037.70000000298,,134050.591,8,400,,,
break_continue,html.Screen,4_20_2,2023-10-31T03:15:39.308Z,,0,,,NaN,,,,,,false,,,,134039.09999999404,134038.90000000596,,134038.59999999404,,134050.591,8,400,,,
sequence,flow.Sequence,4_20,2023-10-31T03:15:39.308Z,,0,,,3247.155000005965,completion,,,,,false,,,,134039.20000000298,134038.90000000596,130775.034,130786,130791.745,134050.591,8,400,,,
trial,html.Screen,4_21_0,2023-10-31T03:15:42.908Z,,0,1,,3588.1090000029944,response,ISIC_2829088.JPG,6,ISIC_5807608.JPG,ISIC_2829088.JPG,false,1,keypress(m),500,137638.90000000596,137638.70000000298,134033.88,134039.40000000596,134050.591,137643.456,8,400,22,,ISIC_5807608.JPG
break,html.Screen,4_21_1,2023-10-31T03:15:42.909Z,,0,,,NaN,,,,,,false,,,,137639.90000000596,137639.70000000298,,137639.20000000298,,137643.456,8,400,,,
break_continue,html.Screen,4_21_2,2023-10-31T03:15:42.910Z,,0,,,NaN,,,,,,false,,,,137640.5,137640.40000000596,,137640.09999999404,,137643.456,8,400,,,
sequence,flow.Sequence,4_21,2023-10-31T03:15:42.910Z,,0,,,3589.8090000059747,completion,,,,,false,,,,137640.70000000298,137640.40000000596,134033.88,134039.29999999702,134050.591,137643.456,8,400,,,
trial,html.Screen,4_22_0,2023-10-31T03:15:45.875Z,,0,1,,2962.343999997014,response,ISIC_0010017.JPG,8,ISIC_5377693.JPG,ISIC_5377693.JPG,false,0,keypress(z),500,140606,140605.79999999702,137626.745,137640.79999999702,137643.456,140618.014,8,400,23,,ISIC_0010017.JPG
break,html.Screen,4_22_1,2023-10-31T03:15:45.876Z,,0,,,NaN,,,,,,false,,,,140607.09999999404,140606.79999999702,,140606.29999999702,,140618.014,8,400,,,
break_continue,html.Screen,4_22_2,2023-10-31T03:15:45.877Z,,0,,,NaN,,,,,,false,,,,140607.59999999404,140607.40000000596,,140607.20000000298,,140618.014,8,400,,,
sequence,flow.Sequence,4_22,2023-10-31T03:15:45.877Z,,0,,,2963.944000005955,completion,,,,,false,,,,140607.79999999702,140607.40000000596,137626.745,137640.79999999702,137643.456,140618.014,8,400,,,
trial,html.Screen,4_23_0,2023-10-31T03:15:48.756Z,,0,1,,2868.585999994044,response,ISIC_0025531.JPG,7,ISIC_0066626.JPG,ISIC_0066626.JPG,false,0,keypress(z),500,143486.79999999702,143486.59999999404,140601.303,140608,140618.014,143492.389,8,400,24,,ISIC_0025531.JPG
break,html.Screen,4_23_1,2023-10-31T03:15:48.757Z,,0,,,NaN,,,,,,false,,,,143487.79999999702,143487.59999999404,,143487.09999999404,,143492.389,8,400,,,
break_continue,html.Screen,4_23_2,2023-10-31T03:15:48.758Z,,0,,,NaN,,,,,,false,,,,143488.29999999702,143488.20000000298,,143487.90000000596,,143492.389,8,400,,,
sequence,flow.Sequence,4_23,2023-10-31T03:15:48.758Z,,0,,,2870.1860000029847,completion,,,,,false,,,,143488.5,143488.20000000298,140601.303,140607.90000000596,140618.014,143492.389,8,400,,,
trial,html.Screen,4_24_0,2023-10-31T03:15:53.033Z,,0,1,,4271.210999994044,response,ISIC_1189461.JPG,6,ISIC_0990298.JPG,ISIC_1189461.JPG,false,1,keypress(m),500,147763.79999999702,147763.59999999404,143475.678,143488.70000000298,143492.389,147770.405,8,400,25,,ISIC_0990298.JPG
break,html.Screen,4_24_1,2023-10-31T03:15:53.034Z,,0,,,NaN,,,,,,false,,,,147764.90000000596,147764.59999999404,,147764,,147770.405,8,400,,,
break_continue,html.Screen,4_24_2,2023-10-31T03:15:53.035Z,,0,,,NaN,,,,,,false,,,,147765.40000000596,147765.29999999702,,147764.90000000596,,147770.405,8,400,,,
sequence,flow.Sequence,4_24,2023-10-31T03:15:53.035Z,,0,,,4272.910999997024,completion,,,,,false,,,,147765.59999999404,147765.29999999702,143475.678,143488.59999999404,143492.389,147770.405,8,400,,,
trial,html.Screen,4_25_0,2023-10-31T03:15:55.693Z,,0,1,,2653.095000000001,response,ISIC_6428021.JPG,7,ISIC_0054248.JPG,ISIC_0054248.JPG,false,0,keypress(z),500,150423.79999999702,150423.5,147753.694,147765.79999999702,147770.405,150427.454,8,400,26,,ISIC_6428021.JPG
break,html.Screen,4_25_1,2023-10-31T03:15:55.694Z,,0,,,NaN,,,,,,false,,,,150424.79999999702,150424.5,,150424,,150427.454,8,400,,,
break_continue,html.Screen,4_25_2,2023-10-31T03:15:55.695Z,,0,,,NaN,,,,,,false,,,,150425.40000000596,150425.20000000298,,150425,,150427.454,8,400,,,
sequence,flow.Sequence,4_25,2023-10-31T03:15:55.695Z,,0,,,2654.7950000029814,completion,,,,,false,,,,150425.59999999404,150425.20000000298,147753.694,147765.70000000298,147770.405,150427.454,8,400,,,
trial,html.Screen,4_26_0,2023-10-31T03:15:58.619Z,,0,1,,2921.9460000059626,response,ISIC_0031101.JPG,6,ISIC_2430137.JPG,ISIC_0031101.JPG,false,1,keypress(m),500,153349.5,153349.40000000596,150410.743,150425.70000000298,150427.454,153368.773,8,400,27,,ISIC_2430137.JPG
break,html.Screen,4_26_1,2023-10-31T03:15:58.620Z,,0,,,NaN,,,,,,false,,,,153350.59999999404,153350.20000000298,,153349.70000000298,,153368.773,8,400,,,
break_continue,html.Screen,4_26_2,2023-10-31T03:15:58.620Z,,0,,,NaN,,,,,,false,,,,153351.09999999404,153350.90000000596,,153350.70000000298,,153368.773,8,400,,,
sequence,flow.Sequence,4_26,2023-10-31T03:15:58.620Z,,0,,,2923.4460000059626,completion,,,,,false,,,,153351.29999999702,153350.90000000596,150410.743,150425.70000000298,150427.454,153368.773,8,400,,,
trial,html.Screen,4_27_0,2023-10-31T03:16:01.456Z,,0,1,,2817.326999994053,response,ISIC_0029441.JPG,7,ISIC_0000763.JPG,ISIC_0029441.JPG,false,1,keypress(m),500,156186.29999999702,156186.09999999404,153351.879,153351.40000000596,153368.773,156192.932,8,400,28,,ISIC_0000763.JPG
break,html.Screen,4_27_1,2023-10-31T03:16:01.457Z,,0,,,NaN,,,,,,false,,,,156187.29999999702,156187.09999999404,,156186.59999999404,,156192.932,8,400,,,
break_continue,html.Screen,4_27_2,2023-10-31T03:16:01.457Z,,0,,,NaN,,,,,,false,,,,156187.79999999702,156187.70000000298,,156187.5,,156192.932,8,400,,,
sequence,flow.Sequence,4_27,2023-10-31T03:16:01.457Z,,0,,,2818.9270000029937,completion,,,,,false,,,,156188,156187.70000000298,153351.879,153351.40000000596,153368.773,156192.932,8,400,,,
trial,html.Screen,4_28_0,2023-10-31T03:16:05.892Z,,0,1,,4430.067999999999,response,ISIC_0032685.JPG,7,ISIC_0063180.JPG,ISIC_0032685.JPG,false,1,keypress(m),500,160623.20000000298,160623,156176.221,156188.29999999702,156192.932,160638.058,8,400,29,,ISIC_0063180.JPG
break,html.Screen,4_28_1,2023-10-31T03:16:05.893Z,,0,,,NaN,,,,,,false,,,,160624.20000000298,160624,,160623.40000000596,,160638.058,8,400,,,
break_continue,html.Screen,4_28_2,2023-10-31T03:16:05.894Z,,0,,,NaN,,,,,,false,,,,160624.79999999702,160624.59999999404,,160624.40000000596,,160638.058,8,400,,,
sequence,flow.Sequence,4_28,2023-10-31T03:16:05.894Z,,0,,,4431.667999994039,completion,,,,,false,,,,160624.90000000596,160624.59999999404,156176.221,156188.20000000298,156192.932,160638.058,8,400,,,
trial,html.Screen,4_29_0,2023-10-31T03:16:09.683Z,,0,1,,3775.6420000029902,response,ISIC_4951213.JPG,6,ISIC_0058063.JPG,ISIC_0058063.JPG,false,0,keypress(z),500,164414,164413.70000000298,160621.347,160625.09999999404,160638.058,164415.037,8,400,30,,ISIC_4951213.JPG
break,html.Screen,4_29_1,2023-10-31T03:16:09.684Z,,0,,,NaN,,,,,,false,,,,164415.09999999404,164414.70000000298,,164414.20000000298,,164415.037,8,400,,,
break_continue,html.Screen,4_29_2,2023-10-31T03:16:09.685Z,,0,,,NaN,,,,,,false,,,,164415.59999999404,164415.5,,164415.20000000298,,164415.037,8,400,,,
sequence,flow.Sequence,4_29,2023-10-31T03:16:09.685Z,,0,,,3777.44200000001,completion,,,,,false,,,,164415.90000000596,164415.5,160621.347,160625.09999999404,160638.058,164415.037,8,400,,,
trial,html.Screen,4_30_0,2023-10-31T03:16:13.433Z,,0,1,,3748.5629999940284,response,ISIC_0069635.JPG,8,ISIC_0061320.JPG,ISIC_0061320.JPG,false,0,keypress(z),500,168163.90000000596,168163.59999999404,164398.326,164416.09999999404,164415.037,168175.012,8,400,31,,ISIC_0069635.JPG
break,html.Screen,4_30_1,2023-10-31T03:16:13.434Z,,0,,,NaN,,,,,,false,,,,168165,168164.70000000298,,168164.09999999404,,168175.012,8,400,,,
break_continue,html.Screen,4_30_2,2023-10-31T03:16:13.435Z,,0,,,NaN,,,,,,false,,,,168165.5,168165.40000000596,,168165.09999999404,,168175.012,8,400,,,
sequence,flow.Sequence,4_30,2023-10-31T03:16:13.435Z,,0,,,3750.3630000059493,completion,,,,,false,,,,168165.70000000298,168165.40000000596,164398.326,164416,164415.037,168175.012,8,400,,,
trial,html.Screen,4_31_0,2023-10-31T03:16:16.867Z,,0,1,,3422.0879999940516,response,ISIC_0061224.JPG,6,ISIC_0025218.JPG,ISIC_0061224.JPG,false,1,keypress(m),500,171597.40000000596,171597.09999999404,168158.301,168165.79999999702,168175.012,171600.767,8,400,32,,ISIC_0025218.JPG
break,html.Screen,4_31_1,2023-10-31T03:16:16.868Z,,0,,,NaN,,,,,,false,,,,171598.29999999702,171598,,171597.5,,171600.767,8,400,,,
break_continue,html.Screen,4_31_2,2023-10-31T03:16:16.868Z,,0,,,NaN,,,,,,false,,,,171598.90000000596,171598.70000000298,,171598.40000000596,,171600.767,8,400,,,
sequence,flow.Sequence,4_31,2023-10-31T03:16:16.868Z,,0,,,3423.6880000029923,completion,,,,,false,,,,171599,171598.70000000298,168158.301,168165.79999999702,168175.012,171600.767,8,400,,,
trial,html.Screen,4_32_0,2023-10-31T03:16:19.815Z,,0,1,,2944.633000005968,response,ISIC_3295750.JPG,10,ISIC_4362713.JPG,ISIC_3295750.JPG,false,1,keypress(m),500,174545.59999999404,174545.40000000596,171584.056,171599.20000000298,171600.767,174558.797,8,400,33,,ISIC_4362713.JPG
break,html.Screen,4_32_1,2023-10-31T03:16:19.816Z,,0,,,NaN,,,,,,false,,,,174546.5,174546.29999999702,,174545.79999999702,,174558.797,8,400,,,
break_continue,html.Screen,4_32_2,2023-10-31T03:16:19.816Z,,0,,,NaN,,,,,,false,,,,174547.09999999404,174546.90000000596,,174546.70000000298,,174558.797,8,400,,,
sequence,flow.Sequence,4_32,2023-10-31T03:16:19.817Z,,0,,,2946.133000005968,completion,,,,,false,,,,174547.29999999702,174546.90000000596,171584.056,171599.09999999404,171600.767,174558.797,8,400,,,
trial,html.Screen,4_33_0,2023-10-31T03:16:22.738Z,,0,1,,2910.2030000000086,response,ISIC_3351880.JPG,10,ISIC_7369690.JPG,ISIC_7369690.JPG,false,0,keypress(z),500,177469.29999999702,177469,174542.086,174547.5,174558.797,177483.222,8,400,34,,ISIC_3351880.JPG
break,html.Screen,4_33_1,2023-10-31T03:16:22.739Z,,0,,,NaN,,,,,,false,,,,177470.20000000298,177470,,177469.5,,177483.222,8,400,,,
break_continue,html.Screen,4_33_2,2023-10-31T03:16:22.740Z,,0,,,NaN,,,,,,false,,,,177470.70000000298,177470.59999999404,,177470.29999999702,,177483.222,8,400,,,
sequence,flow.Sequence,4_33,2023-10-31T03:16:22.740Z,,0,,,2911.802999994048,completion,,,,,false,,,,177471,177470.59999999404,174542.086,174547.40000000596,174558.797,177483.222,8,400,,,
trial,html.Screen,4_34_0,2023-10-31T03:16:25.751Z,,0,1,,2998.6780000059516,response,ISIC_0069970.JPG,6,ISIC_0667763.JPG,ISIC_0667763.JPG,false,0,keypress(z),500,180482.09999999404,180481.90000000596,177466.511,177471.09999999404,177483.222,180491.202,8,400,35,,ISIC_0069970.JPG
break,html.Screen,4_34_1,2023-10-31T03:16:25.752Z,,0,,,NaN,,,,,,false,,,,180483.09999999404,180482.79999999702,,180482.20000000298,,180491.202,8,400,,,
break_continue,html.Screen,4_34_2,2023-10-31T03:16:25.753Z,,0,,,NaN,,,,,,false,,,,180483.59999999404,180483.5,,180483.29999999702,,180491.202,8,400,,,
sequence,flow.Sequence,4_34,2023-10-31T03:16:25.753Z,,0,,,3000.277999999991,completion,,,,,false,,,,180483.90000000596,180483.5,177466.511,177471.09999999404,177483.222,180491.202,8,400,,,
trial,html.Screen,4_35_0,2023-10-31T03:16:29.407Z,,0,1,,3645.99800000299,response,ISIC_0941085.JPG,6,ISIC_8642938.JPG,ISIC_0941085.JPG,false,1,keypress(m),500,184137.5,184137.20000000298,180474.491,180484,180491.202,184150.911,8,400,36,,ISIC_8642938.JPG
break,html.Screen,4_35_1,2023-10-31T03:16:29.408Z,,0,,,NaN,,,,,,false,,,,184138.29999999702,184138.09999999404,,184137.59999999404,,184150.911,8,400,,,
break_continue,html.Screen,4_35_2,2023-10-31T03:16:29.408Z,,0,,,NaN,,,,,,false,,,,184138.90000000596,184138.70000000298,,184138.5,,184150.911,8,400,,,
sequence,flow.Sequence,4_35,2023-10-31T03:16:29.408Z,,0,,,3647.49800000299,completion,,,,,false,,,,184139.09999999404,184138.70000000298,180474.491,180484,180491.202,184150.911,8,400,,,
trial,html.Screen,4_36_0,2023-10-31T03:16:32.732Z,,0,1,,3311.7890000029874,response,ISIC_0057898.JPG,8,ISIC_3351880.JPG,ISIC_3351880.JPG,false,0,keypress(z),500,187462.90000000596,187462.70000000298,184134.2,184139.20000000298,184150.911,187476.596,8,400,37,,ISIC_0057898.JPG
break,html.Screen,4_36_1,2023-10-31T03:16:32.733Z,,0,,,NaN,,,,,,false,,,,187463.79999999702,187463.59999999404,,187463.09999999404,,187476.596,8,400,,,
break_continue,html.Screen,4_36_2,2023-10-31T03:16:32.734Z,,0,,,NaN,,,,,,false,,,,187464.29999999702,187464.20000000298,,187463.90000000596,,187476.596,8,400,,,
sequence,flow.Sequence,4_36,2023-10-31T03:16:32.734Z,,0,,,3313.2890000029874,completion,,,,,false,,,,187464.5,187464.20000000298,184134.2,184139.20000000298,184150.911,187476.596,8,400,,,
trial,html.Screen,4_37_0,2023-10-31T03:16:37.347Z,,0,1,,4600.60400000299,response,ISIC_0070074.JPG,8,ISIC_8909545.JPG,ISIC_0070074.JPG,false,1,keypress(m),500,192077.29999999702,192077.20000000298,187459.885,187464.59999999404,187476.596,192088.832,8,400,38,,ISIC_8909545.JPG
break,html.Screen,4_37_1,2023-10-31T03:16:37.347Z,,0,,,NaN,,,,,,false,,,,192077.79999999702,192077.79999999702,,192077.5,,192088.832,8,400,,,
break_continue,html.Screen,4_37_2,2023-10-31T03:16:37.347Z,,0,,,NaN,,,,,,false,,,,192078.09999999404,192078.09999999404,,192078,,192088.832,8,400,,,
sequence,flow.Sequence,4_37,2023-10-31T03:16:37.347Z,,0,,,4601.503999994049,completion,,,,,false,,,,192078.29999999702,192078.09999999404,187459.885,187464.59999999404,187476.596,192088.832,8,400,,,
trial,html.Screen,4_38_0,2023-10-31T03:16:41.350Z,,0,1,,3991.2679999940447,response,ISIC_0010916.JPG,5,ISIC_0014657.JPG,ISIC_0014657.JPG,false,0,keypress(z),500,196080.29999999702,196080.09999999404,192072.121,192078.29999999702,192088.832,196082.954,8,400,39,,ISIC_0010916.JPG
break,html.Screen,4_38_1,2023-10-31T03:16:41.350Z,,0,,,NaN,,,,,,false,,,,196081.29999999702,196081,,196080.5,,196082.954,8,400,,,
break_continue,html.Screen,4_38_2,2023-10-31T03:16:41.351Z,,0,,,NaN,,,,,,false,,,,196081.70000000298,196081.59999999404,,196081.5,,196082.954,8,400,,,
sequence,flow.Sequence,4_38,2023-10-31T03:16:41.351Z,,0,,,3992.7679999940447,completion,,,,,false,,,,196082,196081.59999999404,192072.121,192078.29999999702,192088.832,196082.954,8,400,,,
trial,html.Screen,4_39_0,2023-10-31T03:16:44.564Z,,0,1,,3211.4460000059626,response,ISIC_0055917.JPG,6,ISIC_8340256.JPG,ISIC_8340256.JPG,false,0,keypress(z),500,199294.70000000298,199294.40000000596,196066.243,196082.09999999404,196082.954,199308.177,8,400,40,,ISIC_0055917.JPG
break,html.Screen,4_39_1,2023-10-31T03:16:44.565Z,,0,,,NaN,,,,,,false,,,,199295.70000000298,199295.29999999702,,199294.90000000596,,199308.177,8,400,,,
break_continue,html.Screen,4_39_2,2023-10-31T03:16:44.565Z,,0,,,NaN,,,,,,false,,,,199296.20000000298,199296,,199295.79999999702,,199308.177,8,400,,,
sequence,flow.Sequence,4_39,2023-10-31T03:16:44.566Z,,0,,,3213.046000000002,completion,,,,,false,,,,199296.29999999702,199296,196066.243,196082,196082.954,199308.177,8,400,,,
trial,html.Screen,4_40_0,2023-10-31T03:16:47.402Z,,0,1,,2824.7230000059644,response,ISIC_0054705.JPG,8,ISIC_1348843.JPG,ISIC_1348843.JPG,false,0,keypress(z),500,202133.09999999404,202132.90000000596,199291.466,199296.59999999404,199308.177,202149.047,8,400,41,,ISIC_0054705.JPG
break,html.Screen,4_40_1,2023-10-31T03:16:47.403Z,,0,,,NaN,,,,,,false,,,,202133.79999999702,202133.59999999404,,202133.29999999702,,202149.047,8,400,,,
break_continue,html.Screen,4_40_2,2023-10-31T03:16:47.403Z,,0,,,NaN,,,,,,false,,,,202134.09999999404,202134,,202133.90000000596,,202149.047,8,400,,,
sequence,flow.Sequence,4_40,2023-10-31T03:16:47.403Z,,0,,,2825.823000000004,completion,,,,,false,,,,202134.20000000298,202134,199291.466,199296.5,199308.177,202149.047,8,400,,,
trial,html.Screen,4_41_0,2023-10-31T03:16:50.096Z,,0,1,,2678.052999994048,response,ISIC_6767038.JPG,8,ISIC_1293403.JPG,ISIC_1293403.JPG,false,0,keypress(z),500,204827.29999999702,204827.09999999404,202132.336,202134.29999999702,202149.047,204839.518,8,400,42,,ISIC_6767038.JPG
break,html.Screen,4_41_1,2023-10-31T03:16:50.097Z,,0,,,NaN,,,,,,false,,,,204828.20000000298,204828,,204827.5,,204839.518,8,400,,,
break_continue,html.Screen,4_41_2,2023-10-31T03:16:50.098Z,,0,,,NaN,,,,,,false,,,,204828.79999999702,204828.70000000298,,204828.40000000596,,204839.518,8,400,,,
sequence,flow.Sequence,4_41,2023-10-31T03:16:50.098Z,,0,,,2679.653000002989,completion,,,,,false,,,,204829,204828.70000000298,202132.336,202134.20000000298,202149.047,204839.518,8,400,,,
trial,html.Screen,4_42_0,2023-10-31T03:16:53.064Z,,0,1,,2954.8820000059495,response,ISIC_0071434.JPG,7,ISIC_1608524.JPG,ISIC_0071434.JPG,false,1,keypress(m),500,207794.59999999404,207794.40000000596,204822.807,204829.20000000298,204839.518,207797.552,8,400,43,,ISIC_1608524.JPG
break,html.Screen,4_42_1,2023-10-31T03:16:53.065Z,,0,,,NaN,,,,,,false,,,,207795.5,207795.29999999702,,207794.79999999702,,207797.552,8,400,,,
break_continue,html.Screen,4_42_2,2023-10-31T03:16:53.065Z,,0,,,NaN,,,,,,false,,,,207796.09999999404,207795.90000000596,,207795.59999999404,,207797.552,8,400,,,
sequence,flow.Sequence,4_42,2023-10-31T03:16:53.065Z,,0,,,2956.3820000059495,completion,,,,,false,,,,207796.29999999702,207795.90000000596,204822.807,204829.09999999404,204839.518,207797.552,8,400,,,
trial,html.Screen,4_43_0,2023-10-31T03:16:55.779Z,,0,1,,2711.7479999970237,response,ISIC_0056110.JPG,7,ISIC_6652978.JPG,ISIC_6652978.JPG,false,0,keypress(z),500,210509.5,210509.29999999702,207780.841,207796.5,207797.552,210521.445,8,400,44,,ISIC_0056110.JPG
break,html.Screen,4_43_1,2023-10-31T03:16:55.780Z,,0,,,NaN,,,,,,false,,,,210510.5,210510.29999999702,,210509.70000000298,,210521.445,8,400,,,
break_continue,html.Screen,4_43_2,2023-10-31T03:16:55.780Z,,0,,,NaN,,,,,,false,,,,210511,210510.90000000596,,210510.70000000298,,210521.445,8,400,,,
sequence,flow.Sequence,4_43,2023-10-31T03:16:55.780Z,,0,,,2713.3480000059644,completion,,,,,false,,,,210511.20000000298,210510.90000000596,207780.841,207796.40000000596,207797.552,210521.445,8,400,,,
trial,html.Screen,4_44_0,2023-10-31T03:16:58.857Z,,0,1,,3066.354999997013,response,ISIC_5318217.JPG,6,ISIC_8207162.JPG,ISIC_5318217.JPG,false,1,keypress(m),500,213588.09999999404,213587.79999999702,210504.734,210511.29999999702,210521.445,213596.269,8,400,45,,ISIC_8207162.JPG
break,html.Screen,4_44_1,2023-10-31T03:16:58.858Z,,0,,,NaN,,,,,,false,,,,213589,213588.70000000298,,213588.29999999702,,213596.269,8,400,,,
break_continue,html.Screen,4_44_2,2023-10-31T03:16:58.859Z,,0,,,NaN,,,,,,false,,,,213589.5,213589.40000000596,,213589.09999999404,,213596.269,8,400,,,
sequence,flow.Sequence,4_44,2023-10-31T03:16:58.859Z,,0,,,3067.9550000059535,completion,,,,,false,,,,213589.70000000298,213589.40000000596,210504.734,210511.29999999702,210521.445,213596.269,8,400,,,
trial,html.Screen,4_45_0,2023-10-31T03:17:01.498Z,,0,1,,2632.6310000059602,response,ISIC_1637536.JPG,6,ISIC_0008630.JPG,ISIC_1637536.JPG,false,1,keypress(m),500,216229.20000000298,216228.90000000596,213579.558,213590,213596.269,216236.607,8,400,46,,ISIC_0008630.JPG
break,html.Screen,4_45_1,2023-10-31T03:17:01.499Z,,0,,,NaN,,,,,,false,,,,216230.20000000298,216229.90000000596,,216229.40000000596,,216236.607,8,400,,,
break_continue,html.Screen,4_45_2,2023-10-31T03:17:01.500Z,,0,,,NaN,,,,,,false,,,,216230.70000000298,216230.5,,216230.20000000298,,216236.607,8,400,,,
sequence,flow.Sequence,4_45,2023-10-31T03:17:01.500Z,,0,,,2634.2309999999998,completion,,,,,false,,,,216230.79999999702,216230.5,213579.558,213589.90000000596,213596.269,216236.607,8,400,,,
trial,html.Screen,4_46_0,2023-10-31T03:17:04.545Z,,0,1,,3039.093000002991,response,ISIC_9154716.JPG,6,ISIC_0000278.JPG,ISIC_9154716.JPG,false,1,keypress(m),500,219275.90000000596,219275.70000000298,216219.896,216230.90000000596,216236.607,219278.194,8,400,47,,ISIC_0000278.JPG
break,html.Screen,4_46_1,2023-10-31T03:17:04.546Z,,0,,,NaN,,,,,,false,,,,219276.90000000596,219276.59999999404,,219276.09999999404,,219278.194,8,400,,,
break_continue,html.Screen,4_46_2,2023-10-31T03:17:04.547Z,,0,,,NaN,,,,,,false,,,,219277.40000000596,219277.29999999702,,219277,,219278.194,8,400,,,
sequence,flow.Sequence,4_46,2023-10-31T03:17:04.547Z,,0,,,3040.6929999970307,completion,,,,,false,,,,219277.59999999404,219277.29999999702,216219.896,216230.90000000596,216236.607,219278.194,8,400,,,
trial,html.Screen,4_47_0,2023-10-31T03:17:07.253Z,,0,1,,2705.206000005972,response,ISIC_0070313.JPG,7,ISIC_5874357.JPG,ISIC_0070313.JPG,false,1,keypress(m),500,221983.70000000298,221983.40000000596,219261.483,219277.70000000298,219278.194,221985.376,8,400,48,,ISIC_5874357.JPG
break,html.Screen,4_47_1,2023-10-31T03:17:07.254Z,,0,,,NaN,,,,,,false,,,,221984.59999999404,221984.29999999702,,221983.79999999702,,221985.376,8,400,,,
break_continue,html.Screen,4_47_2,2023-10-31T03:17:07.254Z,,0,,,NaN,,,,,,false,,,,221985.09999999404,221985,,221984.70000000298,,221985.376,8,400,,,
sequence,flow.Sequence,4_47,2023-10-31T03:17:07.255Z,,0,,,2706.8060000000114,completion,,,,,false,,,,221985.29999999702,221985,219261.483,219277.70000000298,219278.194,221985.376,8,400,,,
trial,html.Screen,4_48_0,2023-10-31T03:17:10.308Z,,0,1,,3053.1240000000107,response,ISIC_0046626.JPG,5,ISIC_6721869.JPG,ISIC_0046626.JPG,false,1,keypress(m),500,225038.70000000298,225038.5,221968.665,221985.5,221985.376,225043.489,8,400,49,,ISIC_6721869.JPG
break,html.Screen,4_48_1,2023-10-31T03:17:10.309Z,,0,,,NaN,,,,,,false,,,,225039.79999999702,225039.5,,225039,,225043.489,8,400,,,
break_continue,html.Screen,4_48_2,2023-10-31T03:17:10.310Z,,0,,,NaN,,,,,,false,,,,225040.29999999702,225040.20000000298,,225040,,225043.489,8,400,,,
sequence,flow.Sequence,4_48,2023-10-31T03:17:10.310Z,,0,,,3054.824000002991,completion,,,,,false,,,,225040.5,225040.20000000298,221968.665,221985.40000000596,221985.376,225043.489,8,400,,,
trial,html.Screen,4_49_0,2023-10-31T03:17:13.428Z,,0,1,,3114.610999994038,response,ISIC_6672654.JPG,8,ISIC_0011612.JPG,ISIC_6672654.JPG,false,1,keypress(m),500,228158.40000000596,228158.09999999404,225026.778,225040.70000000298,225043.489,228168.53,8,400,50,,ISIC_0011612.JPG
break,html.Screen,4_49_1,2023-10-31T03:17:23.418Z,,0,,,9993.451000000001,timeout,,,,,false,,,,238148.5,238145.27,228151.819,228158.5,228168.53,238161.981,8,400,,,
break_continue,html.Screen,4_49_2,2023-10-31T03:17:25.396Z,,0,,,1950.9190000059607,response,,,,,false,continue,keypress(Space),,240126.70000000298,240112.90000000596,238145.27,238148.70000000298,238161.981,240133.879,8,400,,,
sequence,flow.Sequence,4_49,2023-10-31T03:17:25.396Z,,0,,,15069.411000005959,completion,,,,,false,,,,240126.79999999702,240112.90000000596,225026.778,225040.70000000298,225043.489,240133.879,8,400,,,
trial,html.Screen,4_50_0,2023-10-31T03:17:28.507Z,,0,2,,3103.521000005974,response,ISIC_0066626.JPG,6,ISIC_6918995.JPG,ISIC_6918995.JPG,false,0,keypress(z),500,243237.79999999702,243237.40000000596,240117.168,240126.90000000596,240133.879,243242.125,8,400,1,,ISIC_0066626.JPG
break,html.Screen,4_50_1,2023-10-31T03:17:28.508Z,,0,,,NaN,,,,,,false,,,,243238.79999999702,243238.5,,243238,,243242.125,8,400,,,
break_continue,html.Screen,4_50_2,2023-10-31T03:17:28.509Z,,0,,,NaN,,,,,,false,,,,243239.29999999702,243239.20000000298,,243239,,243242.125,8,400,,,
sequence,flow.Sequence,4_50,2023-10-31T03:17:28.509Z,,0,,,3105.321000002994,completion,,,,,false,,,,243239.59999999404,243239.20000000298,240117.168,240126.90000000596,240133.879,243242.125,8,400,,,
trial,html.Screen,4_51_0,2023-10-31T03:17:31.232Z,,0,2,,2719.9749999940395,response,ISIC_0029651.JPG,8,ISIC_6320497.JPG,ISIC_6320497.JPG,false,0,keypress(z),500,245962.29999999702,245962.09999999404,243225.414,243239.70000000298,243242.125,245966.018,8,400,2,,ISIC_0029651.JPG
break,html.Screen,4_51_1,2023-10-31T03:17:31.232Z,,0,,,NaN,,,,,,false,,,,245963.29999999702,245963,,245962.59999999404,,245966.018,8,400,,,
break_continue,html.Screen,4_51_2,2023-10-31T03:17:31.233Z,,0,,,NaN,,,,,,false,,,,245963.70000000298,245963.70000000298,,245963.40000000596,,245966.018,8,400,,,
sequence,flow.Sequence,4_51,2023-10-31T03:17:31.233Z,,0,,,2721.5750000029802,completion,,,,,false,,,,245963.90000000596,245963.70000000298,243225.414,243239.59999999404,243242.125,245966.018,8,400,,,
trial,html.Screen,4_52_0,2023-10-31T03:17:35.179Z,,0,2,,3943.3820000059495,response,ISIC_0054770.JPG,7,ISIC_0065513.JPG,ISIC_0054770.JPG,false,1,keypress(m),500,249909.70000000298,249909.40000000596,245949.307,245964.09999999404,245966.018,249926.717,8,400,3,,ISIC_0065513.JPG
break,html.Screen,4_52_1,2023-10-31T03:17:35.180Z,,0,,,NaN,,,,,,false,,,,249910.70000000298,249910.40000000596,,249909.90000000596,,249926.717,8,400,,,
break_continue,html.Screen,4_52_2,2023-10-31T03:17:35.180Z,,0,,,NaN,,,,,,false,,,,249911.20000000298,249911.09999999404,,249910.90000000596,,249926.717,8,400,,,
sequence,flow.Sequence,4_52,2023-10-31T03:17:35.181Z,,0,,,3945.0819999940286,completion,,,,,false,,,,249911.40000000596,249911.09999999404,245949.307,245964.09999999404,245966.018,249926.717,8,400,,,
trial,html.Screen,4_53_0,2023-10-31T03:17:38.435Z,,0,2,,3238.6830000059563,response,ISIC_0000504.JPG,7,ISIC_5377977.JPG,ISIC_5377977.JPG,false,0,keypress(z),500,253165.59999999404,253165.40000000596,249910.006,249911.5,249926.717,253185.362,8,400,4,,ISIC_0000504.JPG
break,html.Screen,4_53_1,2023-10-31T03:17:38.436Z,,0,,,NaN,,,,,,false,,,,253166.70000000298,253166.40000000596,,253165.79999999702,,253185.362,8,400,,,
break_continue,html.Screen,4_53_2,2023-10-31T03:17:38.436Z,,0,,,NaN,,,,,,false,,,,253167.20000000298,253167.09999999404,,253166.90000000596,,253185.362,8,400,,,
sequence,flow.Sequence,4_53,2023-10-31T03:17:38.437Z,,0,,,3240.3829999940353,completion,,,,,false,,,,253167.5,253167.09999999404,249910.006,249911.5,249926.717,253185.362,8,400,,,
trial,html.Screen,4_54_0,2023-10-31T03:17:41.224Z,,0,2,,2769.5380000059668,response,ISIC_8684147.JPG,7,ISIC_3312201.JPG,ISIC_3312201.JPG,false,0,keypress(z),500,255955.09999999404,255954.90000000596,253168.651,253167.59999999404,253185.362,255976.099,8,400,5,,ISIC_8684147.JPG
break,html.Screen,4_54_1,2023-10-31T03:17:41.225Z,,0,,,NaN,,,,,,false,,,,255956.09999999404,255955.79999999702,,255955.29999999702,,255976.099,8,400,,,
break_continue,html.Screen,4_54_2,2023-10-31T03:17:41.226Z,,0,,,NaN,,,,,,false,,,,255956.59999999404,255956.40000000596,,255956.20000000298,,255976.099,8,400,,,
sequence,flow.Sequence,4_54,2023-10-31T03:17:41.226Z,,0,,,2771.0380000059668,completion,,,,,false,,,,255956.70000000298,255956.40000000596,253168.651,253167.59999999404,253185.362,255976.099,8,400,,,
trial,html.Screen,4_55_0,2023-10-31T03:17:44.142Z,,0,2,,2896.4010000000126,response,ISIC_9760968.JPG,8,ISIC_1142962.JPG,ISIC_1142962.JPG,false,0,keypress(z),500,258872.59999999404,258872.5,255959.388,255956.90000000596,255976.099,258883.993,8,400,6,,ISIC_9760968.JPG
break,html.Screen,4_55_1,2023-10-31T03:17:44.143Z,,0,,,NaN,,,,,,false,,,,258873.59999999404,258873.29999999702,,258872.90000000596,,258883.993,8,400,,,
break_continue,html.Screen,4_55_2,2023-10-31T03:17:44.143Z,,0,,,NaN,,,,,,false,,,,258874.09999999404,258874,,258873.70000000298,,258883.993,8,400,,,
sequence,flow.Sequence,4_55,2023-10-31T03:17:44.143Z,,0,,,2897.9010000000126,completion,,,,,false,,,,258874.29999999702,258874,255959.388,255956.90000000596,255976.099,258883.993,8,400,,,
trial,html.Screen,4_56_0,2023-10-31T03:17:47.589Z,,0,2,,3435.7070000029926,response,ISIC_0067077.JPG,7,ISIC_8431648.JPG,ISIC_0067077.JPG,false,1,keypress(m),500,262319.90000000596,262319.700000003,258867.282,258874.40000000596,258883.993,262326.459,8,400,7,,ISIC_8431648.JPG
break,html.Screen,4_56_1,2023-10-31T03:17:47.590Z,,0,,,NaN,,,,,,false,,,,262321,262320.59999999404,,262320.09999999404,,262326.459,8,400,,,
break_continue,html.Screen,4_56_2,2023-10-31T03:17:47.591Z,,0,,,NaN,,,,,,false,,,,262321.5,262321.299999997,,262321.09999999404,,262326.459,8,400,,,
sequence,flow.Sequence,4_56,2023-10-31T03:17:47.591Z,,0,,,3437.306999997032,completion,,,,,false,,,,262321.799999997,262321.299999997,258867.282,258874.40000000596,258883.993,262326.459,8,400,,,
trial,html.Screen,4_57_0,2023-10-31T03:17:51.817Z,,0,2,,4221.5410000000265,response,ISIC_0028215.JPG,5,ISIC_6157226.JPG,ISIC_6157226.JPG,false,0,keypress(z),500,266548.299999997,266548,262309.748,262321.90000000596,262326.459,266554.342,8,400,8,,ISIC_0028215.JPG
break,html.Screen,4_57_1,2023-10-31T03:17:51.818Z,,0,,,NaN,,,,,,false,,,,266549.09999999404,266548.90000000596,,266548.40000000596,,266554.342,8,400,,,
break_continue,html.Screen,4_57_2,2023-10-31T03:17:51.819Z,,0,,,NaN,,,,,,false,,,,266549.700000003,266549.59999999404,,266549.299999997,,266554.342,8,400,,,
sequence,flow.Sequence,4_57,2023-10-31T03:17:51.819Z,,0,,,4223.140999994066,completion,,,,,false,,,,266549.90000000596,266549.59999999404,262309.748,262321.799999997,262326.459,266554.342,8,400,,,
trial,html.Screen,4_58_0,2023-10-31T03:17:55.264Z,,0,2,,3440.358000002976,response,ISIC_8248922.JPG,5,ISIC_0033463.JPG,ISIC_8248922.JPG,false,1,keypress(m),500,269995,269994.700000003,266537.631,266550,266554.342,269996.921,8,400,9,,ISIC_0033463.JPG
break,html.Screen,4_58_1,2023-10-31T03:17:55.265Z,,0,,,NaN,,,,,,false,,,,269995.90000000596,269995.700000003,,269995.200000003,,269996.921,8,400,,,
break_continue,html.Screen,4_58_2,2023-10-31T03:17:55.266Z,,0,,,NaN,,,,,,false,,,,269996.5,269996.200000003,,269996.09999999404,,269996.921,8,400,,,
sequence,flow.Sequence,4_58,2023-10-31T03:17:55.266Z,,0,,,3441.858000002976,completion,,,,,false,,,,269996.59999999404,269996.200000003,266537.631,266550,266554.342,269996.921,8,400,,,
trial,html.Screen,4_59_0,2023-10-31T03:17:57.958Z,,0,2,,2691.378999997047,response,ISIC_6988514.JPG,6,ISIC_6892561.JPG,ISIC_6988514.JPG,false,1,keypress(m),500,272688.59999999404,272688.299999997,269980.21,269996.700000003,269996.921,272704.103,8,400,10,,ISIC_6892561.JPG
break,html.Screen,4_59_1,2023-10-31T03:17:57.959Z,,0,,,NaN,,,,,,false,,,,272689.59999999404,272689.299999997,,272688.799999997,,272704.103,8,400,,,
break_continue,html.Screen,4_59_2,2023-10-31T03:17:57.959Z,,0,,,NaN,,,,,,false,,,,272690,272689.90000000596,,272689.700000003,,272704.103,8,400,,,
sequence,flow.Sequence,4_59,2023-10-31T03:17:57.959Z,,0,,,2692.9790000059875,completion,,,,,false,,,,272690.200000003,272689.90000000596,269980.21,269996.700000003,269996.921,272704.103,8,400,,,
trial,html.Screen,4_60_0,2023-10-31T03:18:00.953Z,,0,2,,2979.696999997017,response,ISIC_0026586.JPG,7,ISIC_0062935.JPG,ISIC_0062935.JPG,false,0,keypress(z),500,275684.200000003,275683.799999997,272687.392,272690.40000000596,272704.103,275695.372,8,400,11,,ISIC_0026586.JPG
break,html.Screen,4_60_1,2023-10-31T03:18:00.954Z,,0,,,NaN,,,,,,false,,,,275685.09999999404,275684.90000000596,,275684.40000000596,,275695.372,8,400,,,
break_continue,html.Screen,4_60_2,2023-10-31T03:18:00.955Z,,0,,,NaN,,,,,,false,,,,275685.700000003,275685.5,,275685.299999997,,275695.372,8,400,,,
sequence,flow.Sequence,4_60,2023-10-31T03:18:00.955Z,,0,,,2981.396999999997,completion,,,,,false,,,,275685.90000000596,275685.5,272687.392,272690.299999997,272704.103,275695.372,8,400,,,
trial,html.Screen,4_61_0,2023-10-31T03:18:04.175Z,,0,2,,3210.3280000030063,response,ISIC_0015411.JPG,6,ISIC_0000421.JPG,ISIC_0015411.JPG,false,1,keypress(m),500,278906,278905.700000003,275678.661,275686,275695.372,278920.791,8,400,12,,ISIC_0000421.JPG
break,html.Screen,4_61_1,2023-10-31T03:18:04.176Z,,0,,,NaN,,,,,,false,,,,278906.90000000596,278906.59999999404,,278906.09999999404,,278920.791,8,400,,,
break_continue,html.Screen,4_61_2,2023-10-31T03:18:04.177Z,,0,,,NaN,,,,,,false,,,,278907.40000000596,278907.200000003,,278907,,278920.791,8,400,,,
sequence,flow.Sequence,4_61,2023-10-31T03:18:04.177Z,,0,,,3211.8280000030063,completion,,,,,false,,,,278907.5,278907.200000003,275678.661,275686,275695.372,278920.791,8,400,,,
trial,html.Screen,4_62_0,2023-10-31T03:18:06.807Z,,0,2,,2616.4090000029537,response,ISIC_3950753.JPG,5,ISIC_5982769.JPG,ISIC_5982769.JPG,false,0,keypress(z),500,281537.40000000596,281537.200000003,278904.08,278907.700000003,278920.791,281544.418,8,400,13,,ISIC_3950753.JPG
break,html.Screen,4_62_1,2023-10-31T03:18:06.808Z,,0,,,NaN,,,,,,false,,,,281538.40000000596,281538.09999999404,,281537.700000003,,281544.418,8,400,,,
break_continue,html.Screen,4_62_2,2023-10-31T03:18:06.808Z,,0,,,NaN,,,,,,false,,,,281538.90000000596,281538.700000003,,281538.5,,281544.418,8,400,,,
sequence,flow.Sequence,4_62,2023-10-31T03:18:06.808Z,,0,,,2617.9090000029537,completion,,,,,false,,,,281539.09999999404,281538.700000003,278904.08,278907.700000003,278920.791,281544.418,8,400,,,
trial,html.Screen,4_63_0,2023-10-31T03:18:09.467Z,,0,2,,2652.6819999940344,response,ISIC_8689112.JPG,5,ISIC_0046323.JPG,ISIC_8689112.JPG,false,1,keypress(m),500,284197.299999997,284197.09999999404,281527.707,281539.200000003,281544.418,284201.467,8,400,14,,ISIC_0046323.JPG
break,html.Screen,4_63_1,2023-10-31T03:18:09.467Z,,0,,,NaN,,,,,,false,,,,284198.200000003,284197.90000000596,,284197.5,,284201.467,8,400,,,
break_continue,html.Screen,4_63_2,2023-10-31T03:18:09.468Z,,0,,,NaN,,,,,,false,,,,284198.700000003,284198.59999999404,,284198.40000000596,,284201.467,8,400,,,
sequence,flow.Sequence,4_63,2023-10-31T03:18:09.468Z,,0,,,2654.1819999940344,completion,,,,,false,,,,284198.90000000596,284198.59999999404,281527.707,281539.200000003,281544.418,284201.467,8,400,,,
trial,html.Screen,4_64_0,2023-10-31T03:18:12.527Z,,0,2,,3056.6329999940353,response,ISIC_0011729.JPG,8,ISIC_9355535.JPG,ISIC_0011729.JPG,false,1,keypress(m),500,287258.200000003,287258.09999999404,284184.756,284199.09999999404,284201.467,287259.58,8,400,15,,ISIC_9355535.JPG
break,html.Screen,4_64_1,2023-10-31T03:18:12.528Z,,0,,,NaN,,,,,,false,,,,287259.200000003,287258.90000000596,,287258.5,,287259.58,8,400,,,
break_continue,html.Screen,4_64_2,2023-10-31T03:18:12.529Z,,0,,,NaN,,,,,,false,,,,287259.700000003,287259.5,,287259.299999997,,287259.58,8,400,,,
sequence,flow.Sequence,4_64,2023-10-31T03:18:12.529Z,,0,,,3058.032999999996,completion,,,,,false,,,,287259.90000000596,287259.5,284184.756,284199.09999999404,284201.467,287259.58,8,400,,,
trial,html.Screen,4_65_0,2023-10-31T03:18:15.446Z,,0,2,,2916.9199999999837,response,ISIC_0067696.JPG,7,ISIC_0063845.JPG,ISIC_0067696.JPG,false,1,keypress(m),500,290176.799999997,290176.5,287242.869,287260,287259.58,290184.162,8,400,16,,ISIC_0063845.JPG
break,html.Screen,4_65_1,2023-10-31T03:18:15.447Z,,0,,,NaN,,,,,,false,,,,290177.799999997,290177.5,,290177,,290184.162,8,400,,,
break_continue,html.Screen,4_65_2,2023-10-31T03:18:15.448Z,,0,,,NaN,,,,,,false,,,,290178.299999997,290178.200000003,,290178,,290184.162,8,400,,,
sequence,flow.Sequence,4_65,2023-10-31T03:18:15.448Z,,0,,,2918.620000002964,completion,,,,,false,,,,290178.5,290178.200000003,287242.869,287260,287259.58,290184.162,8,400,,,
trial,html.Screen,4_66_0,2023-10-31T03:18:19.146Z,,0,2,,3692.337999999989,response,ISIC_7748311.JPG,5,ISIC_0918078.JPG,ISIC_7748311.JPG,false,1,keypress(m),500,293876.700000003,293876.5,290167.451,290178.700000003,290184.162,293894.004,8,400,17,,ISIC_0918078.JPG
break,html.Screen,4_66_1,2023-10-31T03:18:19.147Z,,0,,,NaN,,,,,,false,,,,293877.700000003,293877.40000000596,,293877,,293894.004,8,400,,,
break_continue,html.Screen,4_66_2,2023-10-31T03:18:19.147Z,,0,,,NaN,,,,,,false,,,,293878.200000003,293878.09999999404,,293877.799999997,,293894.004,8,400,,,
sequence,flow.Sequence,4_66,2023-10-31T03:18:19.148Z,,0,,,3693.9379999940284,completion,,,,,false,,,,293878.40000000596,293878.09999999404,290167.451,290178.59999999404,290184.162,293894.004,8,400,,,
trial,html.Screen,4_67_0,2023-10-31T03:18:23.407Z,,0,2,,4243.295999997004,response,ISIC_0073115.JPG,7,ISIC_0012706.JPG,ISIC_0073115.JPG,false,1,keypress(m),500,298137.5,298137.299999997,293877.293,293878.59999999404,293894.004,298138.598,8,400,18,,ISIC_0012706.JPG
break,html.Screen,4_67_1,2023-10-31T03:18:23.408Z,,0,,,NaN,,,,,,false,,,,298138.5,298138.200000003,,298137.799999997,,298138.598,8,400,,,
break_continue,html.Screen,4_67_2,2023-10-31T03:18:23.408Z,,0,,,NaN,,,,,,false,,,,298139,298138.799999997,,298138.59999999404,,298138.598,8,400,,,
sequence,flow.Sequence,4_67,2023-10-31T03:18:23.408Z,,0,,,4244.795999997004,completion,,,,,false,,,,298139.200000003,298138.799999997,293877.293,293878.5,293894.004,298138.598,8,400,,,
trial,html.Screen,4_68_0,2023-10-31T03:18:26.420Z,,0,2,,3011.5019999940414,response,ISIC_0029652.JPG,7,ISIC_0033324.JPG,ISIC_0029652.JPG,false,1,keypress(m),500,301150.40000000596,301150.09999999404,298121.887,298139.40000000596,298138.598,301163.481,8,400,19,,ISIC_0033324.JPG
break,html.Screen,4_68_1,2023-10-31T03:18:26.421Z,,0,,,NaN,,,,,,false,,,,301151.40000000596,301151.09999999404,,301150.59999999404,,301163.481,8,400,,,
break_continue,html.Screen,4_68_2,2023-10-31T03:18:26.421Z,,0,,,NaN,,,,,,false,,,,301151.90000000596,301151.799999997,,301151.59999999404,,301163.481,8,400,,,
sequence,flow.Sequence,4_68,2023-10-31T03:18:26.421Z,,0,,,3013.2019999970216,completion,,,,,false,,,,301152.200000003,301151.799999997,298121.887,298139.40000000596,298138.598,301163.481,8,400,,,
trial,html.Screen,4_69_0,2023-10-31T03:18:29.171Z,,0,2,,2738.2190000029514,response,ISIC_7566505.JPG,7,ISIC_0002566.JPG,ISIC_7566505.JPG,false,1,keypress(m),500,303901.90000000596,303901.700000003,301146.77,301152.299999997,301163.481,303904.085,8,400,20,,ISIC_0002566.JPG
break,html.Screen,4_69_1,2023-10-31T03:18:29.172Z,,0,,,NaN,,,,,,false,,,,303902.799999997,303902.5,,303902.09999999404,,303904.085,8,400,,,
break_continue,html.Screen,4_69_2,2023-10-31T03:18:29.173Z,,0,,,NaN,,,,,,false,,,,303903.299999997,303903.200000003,,303903,,303904.085,8,400,,,
sequence,flow.Sequence,4_69,2023-10-31T03:18:29.173Z,,0,,,2739.7190000029514,completion,,,,,false,,,,303903.5,303903.200000003,301146.77,301152.299999997,301163.481,303904.085,8,400,,,
trial,html.Screen,4_70_0,2023-10-31T03:18:31.801Z,,0,2,,2627.3150000059395,response,ISIC_0014920.JPG,6,ISIC_0169604.JPG,ISIC_0169604.JPG,false,0,keypress(z),500,306531.59999999404,306531.40000000596,303887.374,303903.700000003,303904.085,306544.423,8,400,21,,ISIC_0014920.JPG
break,html.Screen,4_70_1,2023-10-31T03:18:31.802Z,,0,,,NaN,,,,,,false,,,,306532.5,306532.299999997,,306531.799999997,,306544.423,8,400,,,
break_continue,html.Screen,4_70_2,2023-10-31T03:18:31.802Z,,0,,,NaN,,,,,,false,,,,306533.09999999404,306532.90000000596,,306532.700000003,,306544.423,8,400,,,
sequence,flow.Sequence,4_70,2023-10-31T03:18:31.802Z,,0,,,2628.8150000059395,completion,,,,,false,,,,306533.299999997,306532.90000000596,303887.374,303903.59999999404,303904.085,306544.423,8,400,,,
trial,html.Screen,4_71_0,2023-10-31T03:18:34.399Z,,0,2,,2585.37699999701,response,ISIC_1293403.JPG,6,ISIC_0061643.JPG,ISIC_0061643.JPG,false,0,keypress(z),500,309130.09999999404,309129.799999997,306527.712,306533.40000000596,306544.423,309134.628,8,400,22,,ISIC_1293403.JPG
break,html.Screen,4_71_1,2023-10-31T03:18:34.400Z,,0,,,NaN,,,,,,false,,,,309131,309130.799999997,,309130.299999997,,309134.628,8,400,,,
break_continue,html.Screen,4_71_2,2023-10-31T03:18:34.401Z,,0,,,NaN,,,,,,false,,,,309131.5,309131.40000000596,,309131.09999999404,,309134.628,8,400,,,
sequence,flow.Sequence,4_71,2023-10-31T03:18:34.401Z,,0,,,2586.9770000059507,completion,,,,,false,,,,309131.799999997,309131.40000000596,306527.712,306533.40000000596,306544.423,309134.628,8,400,,,
trial,html.Screen,4_72_0,2023-10-31T03:18:37.043Z,,0,2,,2638.572000002954,response,ISIC_0013831.JPG,8,ISIC_1166678.JPG,ISIC_1166678.JPG,false,0,keypress(z),500,311773.5,311773.200000003,309117.917,309131.90000000596,309134.628,311775.278,8,400,23,,ISIC_0013831.JPG
break,html.Screen,4_72_1,2023-10-31T03:18:37.044Z,,0,,,NaN,,,,,,false,,,,311774.299999997,311774.09999999404,,311773.700000003,,311775.278,8,400,,,
break_continue,html.Screen,4_72_2,2023-10-31T03:18:37.044Z,,0,,,NaN,,,,,,false,,,,311774.90000000596,311774.799999997,,311774.5,,311775.278,8,400,,,
sequence,flow.Sequence,4_72,2023-10-31T03:18:37.044Z,,0,,,2640.1719999969937,completion,,,,,false,,,,311775.09999999404,311774.799999997,309117.917,309131.90000000596,309134.628,311775.278,8,400,,,
trial,html.Screen,4_73_0,2023-10-31T03:18:40.328Z,,0,2,,3283.6220000059693,response,ISIC_0591226.JPG,7,ISIC_7484771.JPG,ISIC_7484771.JPG,false,0,keypress(z),500,315059.200000003,315058.90000000596,311758.567,311775.200000003,311775.278,315067.345,8,400,24,,ISIC_0591226.JPG
break,html.Screen,4_73_1,2023-10-31T03:18:40.329Z,,0,,,NaN,,,,,,false,,,,315060,315059.799999997,,315059.299999997,,315067.345,8,400,,,
break_continue,html.Screen,4_73_2,2023-10-31T03:18:40.330Z,,0,,,NaN,,,,,,false,,,,315060.5,315060.40000000596,,315060.09999999404,,315067.345,8,400,,,
sequence,flow.Sequence,4_73,2023-10-31T03:18:40.330Z,,0,,,3285.1220000059693,completion,,,,,false,,,,315060.700000003,315060.40000000596,311758.567,311775.200000003,311775.278,315067.345,8,400,,,
trial,html.Screen,4_74_0,2023-10-31T03:18:44.926Z,,0,2,,4589.055000005988,response,ISIC_2621288.JPG,6,ISIC_4924690.JPG,ISIC_2621288.JPG,false,1,keypress(m),500,319656.59999999404,319656.40000000596,315050.634,315060.90000000596,315067.345,319662.87,8,400,25,,ISIC_4924690.JPG
break,html.Screen,4_74_1,2023-10-31T03:18:44.927Z,,0,,,NaN,,,,,,false,,,,319657.5,319657.299999997,,319656.799999997,,319662.87,8,400,,,
break_continue,html.Screen,4_74_2,2023-10-31T03:18:44.927Z,,0,,,NaN,,,,,,false,,,,319658.200000003,319658,,319657.59999999404,,319662.87,8,400,,,
sequence,flow.Sequence,4_74,2023-10-31T03:18:44.928Z,,0,,,4590.655000000028,completion,,,,,false,,,,319658.40000000596,319658,315050.634,315060.90000000596,315067.345,319662.87,8,400,,,
trial,html.Screen,4_75_0,2023-10-31T03:18:48.268Z,,0,2,,3335.830000002985,response,ISIC_8435105.JPG,7,ISIC_0060848.JPG,ISIC_0060848.JPG,false,0,keypress(z),500,322999,322998.700000003,319646.159,319658.5,319662.87,323005.255,8,400,26,,ISIC_8435105.JPG
break,html.Screen,4_75_1,2023-10-31T03:18:48.269Z,,0,,,NaN,,,,,,false,,,,323000,322999.700000003,,322999.200000003,,323005.255,8,400,,,
break_continue,html.Screen,4_75_2,2023-10-31T03:18:48.270Z,,0,,,NaN,,,,,,false,,,,323000.40000000596,323000.299999997,,323000.09999999404,,323005.255,8,400,,,
sequence,flow.Sequence,4_75,2023-10-31T03:18:48.270Z,,0,,,3337.4299999970244,completion,,,,,false,,,,323000.700000003,323000.299999997,319646.159,319658.5,319662.87,323005.255,8,400,,,
trial,html.Screen,4_76_0,2023-10-31T03:18:51.692Z,,0,2,,3417.2449999999953,response,ISIC_4216750.JPG,7,ISIC_3428523.JPG,ISIC_4216750.JPG,false,1,keypress(m),500,326422.700000003,326422.5,322988.544,323000.799999997,323005.255,326431.01,8,400,27,,ISIC_3428523.JPG
break,html.Screen,4_76_1,2023-10-31T03:18:51.693Z,,0,,,NaN,,,,,,false,,,,326423.59999999404,326423.40000000596,,326422.90000000596,,326431.01,8,400,,,
break_continue,html.Screen,4_76_2,2023-10-31T03:18:51.693Z,,0,,,NaN,,,,,,false,,,,326424.200000003,326424.09999999404,,326423.799999997,,326431.01,8,400,,,
sequence,flow.Sequence,4_76,2023-10-31T03:18:51.694Z,,0,,,3418.844999994035,completion,,,,,false,,,,326424.40000000596,326424.09999999404,322988.544,323000.799999997,323005.255,326431.01,8,400,,,
trial,html.Screen,4_77_0,2023-10-31T03:18:55.036Z,,0,2,,3335.190000002971,response,ISIC_6559840.JPG,9,ISIC_6985859.JPG,ISIC_6985859.JPG,false,0,keypress(z),500,329766.40000000596,329766.200000003,326414.299,326424.5,326431.01,329773.21,8,400,28,,ISIC_6559840.JPG
break,html.Screen,4_77_1,2023-10-31T03:18:55.037Z,,0,,,NaN,,,,,,false,,,,329767.299999997,329767.09999999404,,329766.59999999404,,329773.21,8,400,,,
break_continue,html.Screen,4_77_2,2023-10-31T03:18:55.037Z,,0,,,NaN,,,,,,false,,,,329767.90000000596,329767.799999997,,329767.59999999404,,329773.21,8,400,,,
sequence,flow.Sequence,4_77,2023-10-31T03:18:55.037Z,,0,,,3336.7899999970105,completion,,,,,false,,,,329768.09999999404,329767.799999997,326414.299,326424.40000000596,326431.01,329773.21,8,400,,,
trial,html.Screen,4_78_0,2023-10-31T03:18:58.240Z,,0,2,,3196.9900000029593,response,ISIC_7702857.JPG,6,ISIC_9403390.JPG,ISIC_9403390.JPG,false,0,keypress(z),500,332970.5,332970.200000003,329756.499,329768.299999997,329773.21,332998.608,8,400,29,,ISIC_7702857.JPG
break,html.Screen,4_78_1,2023-10-31T03:18:58.241Z,,0,,,NaN,,,,,,false,,,,332971.299999997,332971.09999999404,,332970.700000003,,332998.608,8,400,,,
break_continue,html.Screen,4_78_2,2023-10-31T03:18:58.241Z,,0,,,NaN,,,,,,false,,,,332971.799999997,332971.700000003,,332971.5,,332998.608,8,400,,,
sequence,flow.Sequence,4_78,2023-10-31T03:18:58.241Z,,0,,,3198.4900000029593,completion,,,,,false,,,,332972,332971.700000003,329756.499,329768.299999997,329773.21,332998.608,8,400,,,
trial,html.Screen,4_79_0,2023-10-31T03:19:03.196Z,,0,2,,4927.991999994032,response,ISIC_0014264.JPG,7,ISIC_0032988.JPG,ISIC_0014264.JPG,false,1,keypress(m),500,337926.90000000596,337926.59999999404,332981.897,332972.200000003,332998.608,337928.353,8,400,30,,ISIC_0032988.JPG
break,html.Screen,4_79_1,2023-10-31T03:19:03.197Z,,0,,,NaN,,,,,,false,,,,337927.799999997,337927.5,,337927.09999999404,,337928.353,8,400,,,
break_continue,html.Screen,4_79_2,2023-10-31T03:19:03.197Z,,0,,,NaN,,,,,,false,,,,337928.299999997,337928.200000003,,337927.90000000596,,337928.353,8,400,,,
sequence,flow.Sequence,4_79,2023-10-31T03:19:03.198Z,,0,,,4929.592000002973,completion,,,,,false,,,,337928.40000000596,337928.200000003,332981.897,332972.09999999404,332998.608,337928.353,8,400,,,
trial,html.Screen,4_80_0,2023-10-31T03:19:07.107Z,,0,2,,3908.946999997017,response,ISIC_3234816.JPG,4,ISIC_5238649.JPG,ISIC_3234816.JPG,false,1,keypress(m),500,341837.59999999404,341837.299999997,337911.642,337928.59999999404,337928.353,341838.914,8,400,31,,ISIC_5238649.JPG
break,html.Screen,4_80_1,2023-10-31T03:19:07.108Z,,0,,,NaN,,,,,,false,,,,341838.5,341838.200000003,,341837.799999997,,341838.914,8,400,,,
break_continue,html.Screen,4_80_2,2023-10-31T03:19:07.108Z,,0,,,NaN,,,,,,false,,,,341839,341838.90000000596,,341838.59999999404,,341838.914,8,400,,,
sequence,flow.Sequence,4_80,2023-10-31T03:19:07.108Z,,0,,,3910.5470000059577,completion,,,,,false,,,,341839.200000003,341838.90000000596,337911.642,337928.59999999404,337928.353,341838.914,8,400,,,
trial,html.Screen,4_81_0,2023-10-31T03:19:10.487Z,,0,2,,3378.2860000029905,response,ISIC_0026791.JPG,7,ISIC_4343836.JPG,ISIC_4343836.JPG,false,0,keypress(z),500,345217.40000000596,345217.200000003,341822.203,341839.40000000596,341838.914,345231.247,8,400,32,,ISIC_0026791.JPG
break,html.Screen,4_81_1,2023-10-31T03:19:10.487Z,,0,,,NaN,,,,,,false,,,,345218.299999997,345218,,345217.5,,345231.247,8,400,,,
break_continue,html.Screen,4_81_2,2023-10-31T03:19:10.488Z,,0,,,NaN,,,,,,false,,,,345218.799999997,345218.59999999404,,345218.40000000596,,345231.247,8,400,,,
sequence,flow.Sequence,4_81,2023-10-31T03:19:10.488Z,,0,,,3379.68599999405,completion,,,,,false,,,,345219,345218.59999999404,341822.203,341839.299999997,341838.914,345231.247,8,400,,,
trial,html.Screen,4_82_0,2023-10-31T03:19:13.755Z,,0,2,,3253.9530000030063,response,ISIC_0028326.JPG,5,ISIC_0060832.JPG,ISIC_0028326.JPG,false,1,keypress(m),500,348485.40000000596,348485.200000003,345214.536,345219.09999999404,345231.247,348489.892,8,400,33,,ISIC_0060832.JPG
break,html.Screen,4_82_1,2023-10-31T03:19:13.756Z,,0,,,NaN,,,,,,false,,,,348486.40000000596,348486.09999999404,,348485.700000003,,348489.892,8,400,,,
break_continue,html.Screen,4_82_2,2023-10-31T03:19:13.756Z,,0,,,NaN,,,,,,false,,,,348486.90000000596,348486.700000003,,348486.59999999404,,348489.892,8,400,,,
sequence,flow.Sequence,4_82,2023-10-31T03:19:13.756Z,,0,,,3255.4530000030063,completion,,,,,false,,,,348487.09999999404,348486.700000003,345214.536,345219,345231.247,348489.892,8,400,,,
trial,html.Screen,4_83_0,2023-10-31T03:19:16.963Z,,0,2,,3203.8080000029877,response,ISIC_8629635.JPG,5,ISIC_3346045.JPG,ISIC_3346045.JPG,false,0,keypress(z),500,351693.90000000596,351693.700000003,348473.181,348487.200000003,348489.892,351715.306,8,400,34,,ISIC_8629635.JPG
break,html.Screen,4_83_1,2023-10-31T03:19:16.964Z,,0,,,NaN,,,,,,false,,,,351694.799999997,351694.59999999404,,351694.09999999404,,351715.306,8,400,,,
break_continue,html.Screen,4_83_2,2023-10-31T03:19:16.965Z,,0,,,NaN,,,,,,false,,,,351695.40000000596,351695.299999997,,351695,,351715.306,8,400,,,
sequence,flow.Sequence,4_83,2023-10-31T03:19:16.965Z,,0,,,3205.407999997027,completion,,,,,false,,,,351695.59999999404,351695.299999997,348473.181,348487.200000003,348489.892,351715.306,8,400,,,
trial,html.Screen,4_84_0,2023-10-31T03:19:19.779Z,,0,2,,2794.2939999940572,response,ISIC_4810485.JPG,7,ISIC_0028226.JPG,ISIC_4810485.JPG,false,1,keypress(m),500,354509.799999997,354509.59999999404,351698.404,351695.700000003,351715.306,354522.754,8,400,35,,ISIC_0028226.JPG
break,html.Screen,4_84_1,2023-10-31T03:19:19.780Z,,0,,,NaN,,,,,,false,,,,354510.799999997,354510.40000000596,,354510,,354522.754,8,400,,,
break_continue,html.Screen,4_84_2,2023-10-31T03:19:19.780Z,,0,,,NaN,,,,,,false,,,,354511.299999997,354511.09999999404,,354510.90000000596,,354522.754,8,400,,,
sequence,flow.Sequence,4_84,2023-10-31T03:19:19.781Z,,0,,,2795.7939999940572,completion,,,,,false,,,,354511.5,354511.09999999404,351698.404,351695.700000003,351715.306,354522.754,8,400,,,
trial,html.Screen,4_85_0,2023-10-31T03:19:22.760Z,,0,2,,2967.7459999999846,response,ISIC_3900049.JPG,7,ISIC_0003925.JPG,ISIC_0003925.JPG,false,0,keypress(z),500,357490.700000003,357490.5,354506.043,354511.5,354522.754,357497.312,8,400,36,,ISIC_3900049.JPG
break,html.Screen,4_85_1,2023-10-31T03:19:22.761Z,,0,,,NaN,,,,,,false,,,,357491.700000003,357491.40000000596,,357491,,357497.312,8,400,,,
break_continue,html.Screen,4_85_2,2023-10-31T03:19:22.761Z,,0,,,NaN,,,,,,false,,,,357492.200000003,357492,,357491.90000000596,,357497.312,8,400,,,
sequence,flow.Sequence,4_85,2023-10-31T03:19:22.762Z,,0,,,2969.2459999999846,completion,,,,,false,,,,357492.299999997,357492,354506.043,354511.5,354522.754,357497.312,8,400,,,
trial,html.Screen,4_86_0,2023-10-31T03:19:26.243Z,,0,2,,3475.9879999970435,response,ISIC_0008162.JPG,9,ISIC_0028582.JPG,ISIC_0028582.JPG,false,0,keypress(z),500,360973.59999999404,360973.299999997,357480.601,357492.59999999404,357497.312,360989.911,8,400,37,,ISIC_0008162.JPG
break,html.Screen,4_86_1,2023-10-31T03:19:26.244Z,,0,,,NaN,,,,,,false,,,,360974.5,360974.299999997,,360973.799999997,,360989.911,8,400,,,
break_continue,html.Screen,4_86_2,2023-10-31T03:19:26.244Z,,0,,,NaN,,,,,,false,,,,360975.09999999404,360974.90000000596,,360974.700000003,,360989.911,8,400,,,
sequence,flow.Sequence,4_86,2023-10-31T03:19:26.244Z,,0,,,3477.588000005984,completion,,,,,false,,,,360975.299999997,360974.90000000596,357480.601,357492.5,357497.312,360989.911,8,400,,,
trial,html.Screen,4_87_0,2023-10-31T03:19:31.511Z,,0,2,,5251.989000005939,response,ISIC_7761711.JPG,9,ISIC_9795458.JPG,ISIC_7761711.JPG,false,1,keypress(m),500,366242.09999999404,366241.90000000596,360973.2,360975.299999997,360989.911,366254.057,8,400,38,,ISIC_9795458.JPG
break,html.Screen,4_87_1,2023-10-31T03:19:31.512Z,,0,,,NaN,,,,,,false,,,,366243,366242.799999997,,366242.299999997,,366254.057,8,400,,,
break_continue,html.Screen,4_87_2,2023-10-31T03:19:31.513Z,,0,,,NaN,,,,,,false,,,,366243.5,366243.40000000596,,366243.200000003,,366254.057,8,400,,,
sequence,flow.Sequence,4_87,2023-10-31T03:19:31.513Z,,0,,,5253.489000005939,completion,,,,,false,,,,366243.799999997,366243.40000000596,360973.2,360975.299999997,360989.911,366254.057,8,400,,,
trial,html.Screen,4_88_0,2023-10-31T03:19:34.413Z,,0,2,,2889.6430000030086,response,ISIC_6428021.JPG,6,ISIC_0001134.JPG,ISIC_0001134.JPG,false,0,keypress(z),500,369143.799999997,369143.700000003,366237.346,366243.90000000596,366254.057,369145.06,8,400,39,,ISIC_6428021.JPG
break,html.Screen,4_88_1,2023-10-31T03:19:34.414Z,,0,,,NaN,,,,,,false,,,,369144.40000000596,369144.299999997,,369143.90000000596,,369145.06,8,400,,,
break_continue,html.Screen,4_88_2,2023-10-31T03:19:34.414Z,,0,,,NaN,,,,,,false,,,,369144.700000003,369144.59999999404,,369144.5,,369145.06,8,400,,,
sequence,flow.Sequence,4_88,2023-10-31T03:19:34.414Z,,0,,,2890.542999994068,completion,,,,,false,,,,369144.799999997,369144.59999999404,366237.346,366243.90000000596,366254.057,369145.06,8,400,,,
trial,html.Screen,4_89_0,2023-10-31T03:19:38.545Z,,0,2,,4130.140000002983,response,ISIC_0024961.JPG,8,ISIC_0026963.JPG,ISIC_0024961.JPG,false,1,keypress(m),500,373275.40000000596,373275.200000003,369128.349,369144.90000000596,369145.06,373289.588,8,400,40,,ISIC_0026963.JPG
break,html.Screen,4_89_1,2023-10-31T03:19:38.546Z,,0,,,NaN,,,,,,false,,,,373276.299999997,373276.09999999404,,373275.59999999404,,373289.588,8,400,,,
break_continue,html.Screen,4_89_2,2023-10-31T03:19:38.546Z,,0,,,NaN,,,,,,false,,,,373276.90000000596,373276.59999999404,,373276.5,,373289.588,8,400,,,
sequence,flow.Sequence,4_89,2023-10-31T03:19:38.546Z,,0,,,4131.539999994042,completion,,,,,false,,,,373277,373276.59999999404,369128.349,369144.90000000596,369145.06,373289.588,8,400,,,
trial,html.Screen,4_90_0,2023-10-31T03:19:41.195Z,,0,2,,2635.5119999940507,response,ISIC_6652978.JPG,9,ISIC_7939816.JPG,ISIC_7939816.JPG,false,0,keypress(z),500,375925.40000000596,375925.09999999404,373272.877,373277.200000003,373289.588,375929.926,8,400,41,,ISIC_6652978.JPG
break,html.Screen,4_90_1,2023-10-31T03:19:41.196Z,,0,,,NaN,,,,,,false,,,,375926.299999997,375926.09999999404,,375925.59999999404,,375929.926,8,400,,,
break_continue,html.Screen,4_90_2,2023-10-31T03:19:41.196Z,,0,,,NaN,,,,,,false,,,,375926.90000000596,375926.799999997,,375926.5,,375929.926,8,400,,,
sequence,flow.Sequence,4_90,2023-10-31T03:19:41.196Z,,0,,,2637.211999997031,completion,,,,,false,,,,375927.09999999404,375926.799999997,373272.877,373277.09999999404,373289.588,375929.926,8,400,,,
trial,html.Screen,4_91_0,2023-10-31T03:19:44.543Z,,0,2,,3343.5740000000224,response,ISIC_9121369.JPG,6,ISIC_0005494.JPG,ISIC_0005494.JPG,false,0,keypress(z),500,379273.700000003,379273.5,375913.215,375927.200000003,375929.926,379288.837,8,400,42,,ISIC_9121369.JPG
break,html.Screen,4_91_1,2023-10-31T03:19:44.544Z,,0,,,NaN,,,,,,false,,,,379274.299999997,379274.09999999404,,379273.90000000596,,379288.837,8,400,,,
break_continue,html.Screen,4_91_2,2023-10-31T03:19:44.544Z,,0,,,NaN,,,,,,false,,,,379274.59999999404,379274.5,,379274.40000000596,,379288.837,8,400,,,
sequence,flow.Sequence,4_91,2023-10-31T03:19:44.544Z,,0,,,3344.5740000000224,completion,,,,,false,,,,379274.700000003,379274.5,375913.215,375927.200000003,375929.926,379288.837,8,400,,,
trial,html.Screen,4_92_0,2023-10-31T03:19:47.434Z,,0,2,,2875.76299999404,response,ISIC_0000483.JPG,8,ISIC_2819798.JPG,ISIC_0000483.JPG,false,1,keypress(m),500,382164.90000000596,382164.59999999404,379272.126,379274.799999997,379288.837,382179.84,8,400,43,,ISIC_2819798.JPG
break,html.Screen,4_92_1,2023-10-31T03:19:47.435Z,,0,,,NaN,,,,,,false,,,,382166,382165.700000003,,382165.09999999404,,382179.84,8,400,,,
break_continue,html.Screen,4_92_2,2023-10-31T03:19:47.436Z,,0,,,NaN,,,,,,false,,,,382166.40000000596,382166.299999997,,382166.09999999404,,382179.84,8,400,,,
sequence,flow.Sequence,4_92,2023-10-31T03:19:47.436Z,,0,,,2877.4629999970202,completion,,,,,false,,,,382166.700000003,382166.299999997,379272.126,379274.799999997,379288.837,382179.84,8,400,,,
trial,html.Screen,4_93_0,2023-10-31T03:19:50.289Z,,0,2,,2839.8600000029546,response,ISIC_4732684.JPG,6,ISIC_0069385.JPG,ISIC_0069385.JPG,false,0,keypress(z),500,385020,385019.700000003,382163.129,382166.90000000596,382179.84,385020.89,8,400,44,,ISIC_4732684.JPG
break,html.Screen,4_93_1,2023-10-31T03:19:50.290Z,,0,,,NaN,,,,,,false,,,,385020.90000000596,385020.59999999404,,385020.200000003,,385020.89,8,400,,,
break_continue,html.Screen,4_93_2,2023-10-31T03:19:50.291Z,,0,,,NaN,,,,,,false,,,,385021.5,385021.299999997,,385021.09999999404,,385020.89,8,400,,,
sequence,flow.Sequence,4_93,2023-10-31T03:19:50.291Z,,0,,,2841.459999996994,completion,,,,,false,,,,385021.59999999404,385021.299999997,382163.129,382166.90000000596,382179.84,385020.89,8,400,,,
trial,html.Screen,4_94_0,2023-10-31T03:19:53.059Z,,0,2,,2768.7099999940256,response,ISIC_5673859.JPG,7,ISIC_1745182.JPG,ISIC_1745182.JPG,false,0,keypress(z),500,387789.799999997,387789.59999999404,385004.179,385021.799999997,385020.89,387794.916,8,400,45,,ISIC_5673859.JPG
break,html.Screen,4_94_1,2023-10-31T03:19:53.060Z,,0,,,NaN,,,,,,false,,,,387790.799999997,387790.5,,387790,,387794.916,8,400,,,
break_continue,html.Screen,4_94_2,2023-10-31T03:19:53.060Z,,0,,,NaN,,,,,,false,,,,387791.200000003,387791.09999999404,,387790.90000000596,,387794.916,8,400,,,
sequence,flow.Sequence,4_94,2023-10-31T03:19:53.061Z,,0,,,2770.2099999940256,completion,,,,,false,,,,387791.40000000596,387791.09999999404,385004.179,385021.799999997,385020.89,387794.916,8,400,,,
trial,html.Screen,4_95_0,2023-10-31T03:19:56.165Z,,0,2,,3100.2840000029537,response,ISIC_2380341.JPG,6,ISIC_0634107.JPG,ISIC_2380341.JPG,false,1,keypress(m),500,390895.40000000596,390895.200000003,387778.205,387791.59999999404,387794.916,390903.162,8,400,46,,ISIC_0634107.JPG
break,html.Screen,4_95_1,2023-10-31T03:19:56.166Z,,0,,,NaN,,,,,,false,,,,390896.40000000596,390896.09999999404,,390895.700000003,,390903.162,8,400,,,
break_continue,html.Screen,4_95_2,2023-10-31T03:19:56.166Z,,0,,,NaN,,,,,,false,,,,390896.799999997,390896.799999997,,390896.5,,390903.162,8,400,,,
sequence,flow.Sequence,4_95,2023-10-31T03:19:56.166Z,,0,,,3101.883999996993,completion,,,,,false,,,,390897.09999999404,390896.799999997,387778.205,387791.59999999404,387794.916,390903.162,8,400,,,
trial,html.Screen,4_96_0,2023-10-31T03:19:58.900Z,,0,2,,2726.9379999940284,response,ISIC_5581931.JPG,6,ISIC_1619814.JPG,ISIC_5581931.JPG,false,1,keypress(m),500,393630.40000000596,393630.09999999404,390886.451,390897.200000003,390903.162,393643.925,8,400,47,,ISIC_1619814.JPG
break,html.Screen,4_96_1,2023-10-31T03:19:58.900Z,,0,,,NaN,,,,,,false,,,,393631.299999997,393631,,393630.59999999404,,393643.925,8,400,,,
break_continue,html.Screen,4_96_2,2023-10-31T03:19:58.901Z,,0,,,NaN,,,,,,false,,,,393631.799999997,393631.59999999404,,393631.40000000596,,393643.925,8,400,,,
sequence,flow.Sequence,4_96,2023-10-31T03:19:58.901Z,,0,,,2728.4379999940284,completion,,,,,false,,,,393632,393631.59999999404,390886.451,390897.200000003,390903.162,393643.925,8,400,,,
trial,html.Screen,4_97_0,2023-10-31T03:20:01.690Z,,0,2,,2776.775000002992,response,ISIC_0000551.JPG,6,ISIC_7152347.JPG,ISIC_0000551.JPG,false,1,keypress(m),500,396420.90000000596,396420.700000003,393627.214,393632.200000003,393643.925,396434.662,8,400,48,,ISIC_7152347.JPG
break,html.Screen,4_97_1,2023-10-31T03:20:01.691Z,,0,,,NaN,,,,,,false,,,,396422,396421.59999999404,,396421.200000003,,396434.662,8,400,,,
break_continue,html.Screen,4_97_2,2023-10-31T03:20:01.692Z,,0,,,NaN,,,,,,false,,,,396422.5,396422.299999997,,396422.09999999404,,396434.662,8,400,,,
sequence,flow.Sequence,4_97,2023-10-31T03:20:01.692Z,,0,,,2778.3749999970314,completion,,,,,false,,,,396422.59999999404,396422.299999997,393627.214,393632.09999999404,393643.925,396434.662,8,400,,,
trial,html.Screen,4_98_0,2023-10-31T03:20:05.235Z,,0,2,,3530.7380000059493,response,ISIC_0067476.JPG,7,ISIC_0011802.JPG,ISIC_0011802.JPG,false,0,keypress(z),500,399965.59999999404,399965.40000000596,396417.951,396422.700000003,396434.662,399977.394,8,400,49,,ISIC_0067476.JPG
break,html.Screen,4_98_1,2023-10-31T03:20:05.236Z,,0,,,NaN,,,,,,false,,,,399966.59999999404,399966.299999997,,399965.90000000596,,399977.394,8,400,,,
break_continue,html.Screen,4_98_2,2023-10-31T03:20:05.236Z,,0,,,NaN,,,,,,false,,,,399967.09999999404,399966.90000000596,,399966.700000003,,399977.394,8,400,,,
sequence,flow.Sequence,4_98,2023-10-31T03:20:05.236Z,,0,,,3532.2380000059493,completion,,,,,false,,,,399967.299999997,399966.90000000596,396417.951,396422.700000003,396434.662,399977.394,8,400,,,
trial,html.Screen,4_99_0,2023-10-31T03:20:08.453Z,,0,2,,3206.106000000029,response,ISIC_3686179.JPG,8,ISIC_3552245.JPG,ISIC_3552245.JPG,false,0,keypress(z),500,403183.700000003,403183.5,399960.683,399967.5,399977.394,403185.906,8,400,50,,ISIC_3686179.JPG
break,html.Screen,4_99_1,2023-10-31T03:20:18.433Z,,0,,,9993.392999999982,timeout,,,,,false,,,,413163.59999999404,413162.588,403169.195,403183.90000000596,403185.906,413179.299,8,400,,,
break_continue,html.Screen,4_99_2,2023-10-31T03:20:33.721Z,,0,,,15250.00099999702,response,,,,,false,continue,keypress(Space),,428451.5,428429.299999997,413162.588,413163.700000003,413179.299,428453.315,8,400,,,
sequence,flow.Sequence,4_99,2023-10-31T03:20:33.721Z,,0,,,28451.90599999705,completion,,,,,false,,,,428451.700000003,428429.299999997,399960.683,399967.40000000596,399977.394,428453.315,8,400,,,
trial,html.Screen,4_100_0,2023-10-31T03:20:37.325Z,,0,3,,3602.385000002978,response,ISIC_0786233.JPG,6,ISIC_0645454.JPG,ISIC_0645454.JPG,false,0,keypress(z),500,432055.799999997,432055.700000003,428436.604,428451.799999997,428453.315,432063.17,8,400,1,,ISIC_0786233.JPG
break,html.Screen,4_100_1,2023-10-31T03:20:37.326Z,,0,,,NaN,,,,,,false,,,,432056.799999997,432056.5,,432056.09999999404,,432063.17,8,400,,,
break_continue,html.Screen,4_100_2,2023-10-31T03:20:37.327Z,,0,,,NaN,,,,,,false,,,,432057.40000000596,432057.200000003,,432057,,432063.17,8,400,,,
sequence,flow.Sequence,4_100,2023-10-31T03:20:37.327Z,,0,,,3603.885000002978,completion,,,,,false,,,,432057.5,432057.200000003,428436.604,428451.799999997,428453.315,432063.17,8,400,,,
trial,html.Screen,4_101_0,2023-10-31T03:20:40.515Z,,0,3,,3182.3300000000163,response,ISIC_1161370.JPG,7,ISIC_4632020.JPG,ISIC_4632020.JPG,false,0,keypress(z),500,435245.700000003,435245.5,432046.459,432057.59999999404,432063.17,435254.971,8,400,2,,ISIC_1161370.JPG
break,html.Screen,4_101_1,2023-10-31T03:20:40.516Z,,0,,,NaN,,,,,,false,,,,435246.59999999404,435246.40000000596,,435245.90000000596,,435254.971,8,400,,,
break_continue,html.Screen,4_101_2,2023-10-31T03:20:40.516Z,,0,,,NaN,,,,,,false,,,,435247.09999999404,435246.90000000596,,435246.700000003,,435254.971,8,400,,,
sequence,flow.Sequence,4_101,2023-10-31T03:20:40.517Z,,0,,,3183.7300000059768,completion,,,,,false,,,,435247.40000000596,435246.90000000596,432046.459,432057.59999999404,432063.17,435254.971,8,400,,,
trial,html.Screen,4_102_0,2023-10-31T03:20:43.642Z,,0,3,,3117.62899999402,response,ISIC_6199335.JPG,6,ISIC_0005572.JPG,ISIC_6199335.JPG,false,1,keypress(m),500,438372.90000000596,438372.59999999404,435238.26,435247.5,435254.971,438379.928,8,400,3,,ISIC_0005572.JPG
break,html.Screen,4_102_1,2023-10-31T03:20:43.643Z,,0,,,NaN,,,,,,false,,,,438373.799999997,438373.5,,438373.09999999404,,438379.928,8,400,,,
break_continue,html.Screen,4_102_2,2023-10-31T03:20:43.644Z,,0,,,NaN,,,,,,false,,,,438374.40000000596,438374.200000003,,438374,,438379.928,8,400,,,
sequence,flow.Sequence,4_102,2023-10-31T03:20:43.644Z,,0,,,3119.2290000029607,completion,,,,,false,,,,438374.59999999404,438374.200000003,435238.26,435247.40000000596,435254.971,438379.928,8,400,,,
trial,html.Screen,4_103_0,2023-10-31T03:20:47.921Z,,0,3,,4272.171999994025,response,ISIC_9094080.JPG,7,ISIC_0058158.JPG,ISIC_9094080.JPG,false,1,keypress(m),500,442652.299999997,442652.09999999404,438363.217,438374.700000003,438379.928,442658.143,8,400,4,,ISIC_0058158.JPG
break,html.Screen,4_103_1,2023-10-31T03:20:47.922Z,,0,,,NaN,,,,,,false,,,,442653.200000003,442653,,442652.40000000596,,442658.143,8,400,,,
break_continue,html.Screen,4_103_2,2023-10-31T03:20:47.923Z,,0,,,NaN,,,,,,false,,,,442653.700000003,442653.59999999404,,442653.299999997,,442658.143,8,400,,,
sequence,flow.Sequence,4_103,2023-10-31T03:20:47.923Z,,0,,,4273.671999994025,completion,,,,,false,,,,442653.90000000596,442653.59999999404,438363.217,438374.700000003,438379.928,442658.143,8,400,,,
trial,html.Screen,4_104_0,2023-10-31T03:20:51.208Z,,0,3,,3280.156999997038,response,ISIC_2977718.JPG,7,ISIC_4223155.JPG,ISIC_2977718.JPG,false,1,keypress(m),500,445938.59999999404,445938.299999997,442641.432,442654.09999999404,442658.143,445950.21,8,400,5,,ISIC_4223155.JPG
break,html.Screen,4_104_1,2023-10-31T03:20:51.209Z,,0,,,NaN,,,,,,false,,,,445939.59999999404,445939.299999997,,445938.799999997,,445950.21,8,400,,,
break_continue,html.Screen,4_104_2,2023-10-31T03:20:51.209Z,,0,,,NaN,,,,,,false,,,,445940.09999999404,445939.90000000596,,445939.700000003,,445950.21,8,400,,,
sequence,flow.Sequence,4_104,2023-10-31T03:20:51.209Z,,0,,,3281.7570000059786,completion,,,,,false,,,,445940.200000003,445939.90000000596,442641.432,442654,442658.143,445950.21,8,400,,,
trial,html.Screen,4_105_0,2023-10-31T03:20:54.637Z,,0,3,,3417.289999999979,response,ISIC_5789994.JPG,7,ISIC_0010044.JPG,ISIC_0010044.JPG,false,0,keypress(z),500,449367.799999997,449367.5,445933.499,445940.40000000596,445950.21,449375.965,8,400,6,,ISIC_5789994.JPG
break,html.Screen,4_105_1,2023-10-31T03:20:54.638Z,,0,,,NaN,,,,,,false,,,,449368.700000003,449368.5,,449367.90000000596,,449375.965,8,400,,,
break_continue,html.Screen,4_105_2,2023-10-31T03:20:54.638Z,,0,,,NaN,,,,,,false,,,,449369.200000003,449369,,449368.90000000596,,449375.965,8,400,,,
sequence,flow.Sequence,4_105,2023-10-31T03:20:54.639Z,,0,,,3418.789999999979,completion,,,,,false,,,,449369.5,449369,445933.499,445940.299999997,445950.21,449375.965,8,400,,,
trial,html.Screen,4_106_0,2023-10-31T03:20:57.900Z,,0,3,,3254.435000005935,response,ISIC_5166636.JPG,7,ISIC_7685761.JPG,ISIC_7685761.JPG,false,0,keypress(z),500,452630.700000003,452630.40000000596,449359.254,449369.59999999404,449375.965,452651.519,8,400,7,,ISIC_5166636.JPG
break,html.Screen,4_106_1,2023-10-31T03:20:57.901Z,,0,,,NaN,,,,,,false,,,,452631.799999997,452631.40000000596,,452631,,452651.519,8,400,,,
break_continue,html.Screen,4_106_2,2023-10-31T03:20:57.902Z,,0,,,NaN,,,,,,false,,,,452632.40000000596,452632.200000003,,452631.90000000596,,452651.519,8,400,,,
sequence,flow.Sequence,4_106,2023-10-31T03:20:57.902Z,,0,,,3256.2350000029546,completion,,,,,false,,,,452632.700000003,452632.200000003,449359.254,449369.5,449375.965,452651.519,8,400,,,
trial,html.Screen,4_107_0,2023-10-31T03:21:01.684Z,,0,3,,3762.7809999970486,response,ISIC_0202119.JPG,6,ISIC_0064738.JPG,ISIC_0064738.JPG,false,0,keypress(z),500,456414.5,456414.299999997,452634.808,452632.90000000596,452651.519,456428.205,8,400,8,,ISIC_0202119.JPG
break,html.Screen,4_107_1,2023-10-31T03:21:01.685Z,,0,,,NaN,,,,,,false,,,,456415.5,456415.200000003,,456414.700000003,,456428.205,8,400,,,
break_continue,html.Screen,4_107_2,2023-10-31T03:21:01.685Z,,0,,,NaN,,,,,,false,,,,456416.09999999404,456415.799999997,,456415.59999999404,,456428.205,8,400,,,
sequence,flow.Sequence,4_107,2023-10-31T03:21:01.686Z,,0,,,3764.2809999970486,completion,,,,,false,,,,456416.299999997,456415.799999997,452634.808,452632.90000000596,452651.519,456428.205,8,400,,,
trial,html.Screen,4_108_0,2023-10-31T03:21:05.912Z,,0,3,,4214.195000005944,response,ISIC_1280780.JPG,9,ISIC_8869929.JPG,ISIC_8869929.JPG,false,0,keypress(z),500,460642.700000003,460642.40000000596,456411.494,456416.40000000596,456428.205,460656.088,8,400,9,,ISIC_1280780.JPG
break,html.Screen,4_108_1,2023-10-31T03:21:05.913Z,,0,,,NaN,,,,,,false,,,,460643.700000003,460643.299999997,,460642.90000000596,,460656.088,8,400,,,
break_continue,html.Screen,4_108_2,2023-10-31T03:21:05.913Z,,0,,,NaN,,,,,,false,,,,460644.09999999404,460643.90000000596,,460643.700000003,,460656.088,8,400,,,
sequence,flow.Sequence,4_108,2023-10-31T03:21:05.913Z,,0,,,4215.695000005944,completion,,,,,false,,,,460644.200000003,460643.90000000596,456411.494,456416.40000000596,456428.205,460656.088,8,400,,,
trial,html.Screen,4_109_0,2023-10-31T03:21:09.714Z,,0,3,,3788.711999997031,response,ISIC_3685955.JPG,7,ISIC_0067873.JPG,ISIC_0067873.JPG,false,0,keypress(z),500,464445,464444.799999997,460639.377,460644.5,460656.088,464449.662,8,400,10,,ISIC_3685955.JPG
break,html.Screen,4_109_1,2023-10-31T03:21:09.715Z,,0,,,NaN,,,,,,false,,,,464445.90000000596,464445.59999999404,,464445.299999997,,464449.662,8,400,,,
break_continue,html.Screen,4_109_2,2023-10-31T03:21:09.716Z,,0,,,NaN,,,,,,false,,,,464446.40000000596,464446.200000003,,464446.09999999404,,464449.662,8,400,,,
sequence,flow.Sequence,4_109,2023-10-31T03:21:09.716Z,,0,,,3790.1120000029914,completion,,,,,false,,,,464446.59999999404,464446.200000003,460639.377,460644.40000000596,460656.088,464449.662,8,400,,,
trial,html.Screen,4_110_0,2023-10-31T03:21:12.649Z,,0,3,,2930.337999999989,response,ISIC_2377039.JPG,6,ISIC_0033344.JPG,ISIC_0033344.JPG,false,0,keypress(z),500,467380.299999997,467380,464432.951,464446.799999997,464449.662,467390.798,8,400,11,,ISIC_2377039.JPG
break,html.Screen,4_110_1,2023-10-31T03:21:12.650Z,,0,,,NaN,,,,,,false,,,,467381.200000003,467380.90000000596,,467380.40000000596,,467390.798,8,400,,,
break_continue,html.Screen,4_110_2,2023-10-31T03:21:12.651Z,,0,,,NaN,,,,,,false,,,,467381.700000003,467381.5,,467381.299999997,,467390.798,8,400,,,
sequence,flow.Sequence,4_110,2023-10-31T03:21:12.651Z,,0,,,2931.837999999989,completion,,,,,false,,,,467381.90000000596,467381.5,464432.951,464446.700000003,464449.662,467390.798,8,400,,,
trial,html.Screen,4_111_0,2023-10-31T03:21:15.342Z,,0,3,,2681.4020000029705,response,ISIC_0071559.JPG,8,ISIC_0065582.JPG,ISIC_0065582.JPG,false,0,keypress(z),500,470072.40000000596,470072.200000003,467374.087,467382,467390.798,470081.269,8,400,12,,ISIC_0071559.JPG
break,html.Screen,4_111_1,2023-10-31T03:21:15.343Z,,0,,,NaN,,,,,,false,,,,470073.299999997,470073,,470072.59999999404,,470081.269,8,400,,,
break_continue,html.Screen,4_111_2,2023-10-31T03:21:15.343Z,,0,,,NaN,,,,,,false,,,,470073.90000000596,470073.59999999404,,470073.40000000596,,470081.269,8,400,,,
sequence,flow.Sequence,4_111,2023-10-31T03:21:15.343Z,,0,,,2682.8019999940298,completion,,,,,false,,,,470074.09999999404,470073.59999999404,467374.087,467382,467390.798,470081.269,8,400,,,
trial,html.Screen,4_112_0,2023-10-31T03:21:18.124Z,,0,3,,2773.231000000029,response,ISIC_2260249.JPG,6,ISIC_0032490.JPG,ISIC_0032490.JPG,false,0,keypress(z),500,472854.700000003,472854.5,470064.558,470074.200000003,470081.269,472872.1,8,400,13,,ISIC_2260249.JPG
break,html.Screen,4_112_1,2023-10-31T03:21:18.125Z,,0,,,NaN,,,,,,false,,,,472855.700000003,472855.5,,472855,,472872.1,8,400,,,
break_continue,html.Screen,4_112_2,2023-10-31T03:21:18.125Z,,0,,,NaN,,,,,,false,,,,472856.299999997,472856,,472855.90000000596,,472872.1,8,400,,,
sequence,flow.Sequence,4_112,2023-10-31T03:21:18.126Z,,0,,,2774.731000000029,completion,,,,,false,,,,472856.40000000596,472856,470064.558,470074.09999999404,470081.269,472872.1,8,400,,,
trial,html.Screen,4_113_0,2023-10-31T03:21:20.812Z,,0,3,,2670.4000000000233,response,ISIC_5555140.JPG,7,ISIC_0356904.JPG,ISIC_0356904.JPG,false,0,keypress(z),500,475542.700000003,475542.5,472855.389,472856.59999999404,472872.1,475545.86,8,400,14,,ISIC_5555140.JPG
break,html.Screen,4_113_1,2023-10-31T03:21:20.813Z,,0,,,NaN,,,,,,false,,,,475543.59999999404,475543.40000000596,,475542.90000000596,,475545.86,8,400,,,
break_continue,html.Screen,4_113_2,2023-10-31T03:21:20.813Z,,0,,,NaN,,,,,,false,,,,475544.09999999404,475544,,475543.700000003,,475545.86,8,400,,,
sequence,flow.Sequence,4_113,2023-10-31T03:21:20.813Z,,0,,,2671.9000000000233,completion,,,,,false,,,,475544.299999997,475544,472855.389,472856.59999999404,472872.1,475545.86,8,400,,,
trial,html.Screen,4_114_0,2023-10-31T03:21:23.859Z,,0,3,,3043.5400000059744,response,ISIC_0028967.JPG,8,ISIC_8008242.JPG,ISIC_8008242.JPG,false,0,keypress(z),500,478589.59999999404,478589.40000000596,475529.149,475544.40000000596,475545.86,478603.973,8,400,15,,ISIC_0028967.JPG
break,html.Screen,4_114_1,2023-10-31T03:21:23.860Z,,0,,,NaN,,,,,,false,,,,478590.5,478590.200000003,,478589.799999997,,478603.973,8,400,,,
break_continue,html.Screen,4_114_2,2023-10-31T03:21:23.860Z,,0,,,NaN,,,,,,false,,,,478591,478590.90000000596,,478590.59999999404,,478603.973,8,400,,,
sequence,flow.Sequence,4_114,2023-10-31T03:21:23.860Z,,0,,,3045.0400000059744,completion,,,,,false,,,,478591.09999999404,478590.90000000596,475529.149,475544.40000000596,475545.86,478603.973,8,400,,,
trial,html.Screen,4_115_0,2023-10-31T03:21:26.516Z,,0,3,,2643.027000000002,response,ISIC_1939413.JPG,8,ISIC_8523262.JPG,ISIC_1939413.JPG,false,1,keypress(m),500,481247.200000003,481247,478587.262,478591.299999997,478603.973,481261.022,8,400,16,,ISIC_8523262.JPG
break,html.Screen,4_115_1,2023-10-31T03:21:26.517Z,,0,,,NaN,,,,,,false,,,,481248.200000003,481247.90000000596,,481247.40000000596,,481261.022,8,400,,,
break_continue,html.Screen,4_115_2,2023-10-31T03:21:26.518Z,,0,,,NaN,,,,,,false,,,,481248.700000003,481248.5,,481248.299999997,,481261.022,8,400,,,
sequence,flow.Sequence,4_115,2023-10-31T03:21:26.518Z,,0,,,2644.527000000002,completion,,,,,false,,,,481248.90000000596,481248.5,478587.262,478591.299999997,478603.973,481261.022,8,400,,,
trial,html.Screen,4_116_0,2023-10-31T03:21:30.260Z,,0,3,,3729.5779999940423,response,ISIC_0033287.JPG,6,ISIC_0028396.JPG,ISIC_0028396.JPG,false,0,keypress(z),500,484990.90000000596,484990.59999999404,481244.311,481249,481261.022,485004.575,8,400,17,,ISIC_0033287.JPG
break,html.Screen,4_116_1,2023-10-31T03:21:30.261Z,,0,,,NaN,,,,,,false,,,,484991.700000003,484991.5,,484991,,485004.575,8,400,,,
break_continue,html.Screen,4_116_2,2023-10-31T03:21:30.261Z,,0,,,NaN,,,,,,false,,,,484992.200000003,484992.09999999404,,484991.90000000596,,485004.575,8,400,,,
sequence,flow.Sequence,4_116,2023-10-31T03:21:30.262Z,,0,,,3731.0779999940423,completion,,,,,false,,,,484992.40000000596,484992.09999999404,481244.311,481249,481261.022,485004.575,8,400,,,
trial,html.Screen,4_117_0,2023-10-31T03:21:33.240Z,,0,3,,2965.825000005949,response,ISIC_0010797.JPG,9,ISIC_3985782.JPG,ISIC_3985782.JPG,false,0,keypress(z),500,487970.59999999404,487970.40000000596,484987.864,484992.5,485004.575,487979.133,8,400,18,,ISIC_0010797.JPG
break,html.Screen,4_117_1,2023-10-31T03:21:33.241Z,,0,,,NaN,,,,,,false,,,,487971.5,487971.299999997,,487970.799999997,,487979.133,8,400,,,
break_continue,html.Screen,4_117_2,2023-10-31T03:21:33.241Z,,0,,,NaN,,,,,,false,,,,487972.09999999404,487971.90000000596,,487971.700000003,,487979.133,8,400,,,
sequence,flow.Sequence,4_117,2023-10-31T03:21:33.241Z,,0,,,2967.325000005949,completion,,,,,false,,,,487972.299999997,487971.90000000596,484987.864,484992.5,485004.575,487979.133,8,400,,,
trial,html.Screen,4_118_0,2023-10-31T03:21:35.874Z,,0,3,,2625.767000005988,response,ISIC_0071180.JPG,9,ISIC_0059569.JPG,ISIC_0071180.JPG,false,1,keypress(m),500,490605,490604.90000000596,487962.422,487972.40000000596,487979.133,490619.471,8,400,19,,ISIC_0059569.JPG
break,html.Screen,4_118_1,2023-10-31T03:21:35.875Z,,0,,,NaN,,,,,,false,,,,490605.700000003,490605.40000000596,,490605.200000003,,490619.471,8,400,,,
break_continue,html.Screen,4_118_2,2023-10-31T03:21:35.875Z,,0,,,NaN,,,,,,false,,,,490605.90000000596,490605.799999997,,490605.700000003,,490619.471,8,400,,,
sequence,flow.Sequence,4_118,2023-10-31T03:21:35.875Z,,0,,,2626.6669999970472,completion,,,,,false,,,,490606,490605.799999997,487962.422,487972.299999997,487979.133,490619.471,8,400,,,
trial,html.Screen,4_119_0,2023-10-31T03:21:39.672Z,,0,3,,3782.7290000029607,response,ISIC_0010925.JPG,4,ISIC_5098778.JPG,ISIC_0010925.JPG,false,1,keypress(m),500,494402.40000000596,494402.200000003,490602.76,490606.09999999404,490619.471,494412.985,8,400,20,,ISIC_5098778.JPG
break,html.Screen,4_119_1,2023-10-31T03:21:39.673Z,,0,,,NaN,,,,,,false,,,,494403.59999999404,494403.200000003,,494402.700000003,,494412.985,8,400,,,
break_continue,html.Screen,4_119_2,2023-10-31T03:21:39.673Z,,0,,,NaN,,,,,,false,,,,494404.09999999404,494403.90000000596,,494403.59999999404,,494412.985,8,400,,,
sequence,flow.Sequence,4_119,2023-10-31T03:21:39.673Z,,0,,,3784.429000005941,completion,,,,,false,,,,494404.200000003,494403.90000000596,490602.76,490606.09999999404,490619.471,494412.985,8,400,,,
trial,html.Screen,4_120_0,2023-10-31T03:21:42.365Z,,0,3,,2682.4150000059744,response,ISIC_6674797.JPG,6,ISIC_0030747.JPG,ISIC_6674797.JPG,false,1,keypress(m),500,497095.59999999404,497095.40000000596,494396.274,494404.40000000596,494412.985,497103.456,8,400,21,,ISIC_0030747.JPG
break,html.Screen,4_120_1,2023-10-31T03:21:42.366Z,,0,,,NaN,,,,,,false,,,,497096.5,497096.200000003,,497095.799999997,,497103.456,8,400,,,
break_continue,html.Screen,4_120_2,2023-10-31T03:21:42.366Z,,0,,,NaN,,,,,,false,,,,497097,497096.90000000596,,497096.700000003,,497103.456,8,400,,,
sequence,flow.Sequence,4_120,2023-10-31T03:21:42.366Z,,0,,,2683.9150000059744,completion,,,,,false,,,,497097.200000003,497096.90000000596,494396.274,494404.40000000596,494412.985,497103.456,8,400,,,
trial,html.Screen,4_121_0,2023-10-31T03:21:45.436Z,,0,3,,3063.2440000029746,response,ISIC_1473511.JPG,8,ISIC_2412113.JPG,ISIC_2412113.JPG,false,0,keypress(z),500,500167,500166.700000003,497086.745,497097.40000000596,497103.456,500178.28,8,400,22,,ISIC_1473511.JPG
break,html.Screen,4_121_1,2023-10-31T03:21:45.437Z,,0,,,NaN,,,,,,false,,,,500167.799999997,500167.59999999404,,500167.09999999404,,500178.28,8,400,,,
break_continue,html.Screen,4_121_2,2023-10-31T03:21:45.438Z,,0,,,NaN,,,,,,false,,,,500168.40000000596,500168.200000003,,500168,,500178.28,8,400,,,
sequence,flow.Sequence,4_121,2023-10-31T03:21:45.438Z,,0,,,3064.7440000029746,completion,,,,,false,,,,500168.5,500168.200000003,497086.745,497097.299999997,497103.456,500178.28,8,400,,,
trial,html.Screen,4_122_0,2023-10-31T03:21:48.560Z,,0,3,,3112.519999996992,response,ISIC_0055265.JPG,7,ISIC_0055624.JPG,ISIC_0055265.JPG,false,1,keypress(m),500,503291.09999999404,503290.799999997,500161.569,500168.59999999404,500178.28,503303.481,8,400,23,,ISIC_0055624.JPG
break,html.Screen,4_122_1,2023-10-31T03:21:48.561Z,,0,,,NaN,,,,,,false,,,,503292,503291.700000003,,503291.299999997,,503303.481,8,400,,,
break_continue,html.Screen,4_122_2,2023-10-31T03:21:48.562Z,,0,,,NaN,,,,,,false,,,,503292.5,503292.299999997,,503292.09999999404,,503303.481,8,400,,,
sequence,flow.Sequence,4_122,2023-10-31T03:21:48.562Z,,0,,,3114.019999996992,completion,,,,,false,,,,503292.59999999404,503292.299999997,500161.569,500168.59999999404,500178.28,503303.481,8,400,,,
trial,html.Screen,4_123_0,2023-10-31T03:21:51.974Z,,0,3,,3401.318999996991,response,ISIC_2638895.JPG,7,ISIC_0028698.JPG,ISIC_0028698.JPG,false,0,keypress(z),500,506705,506704.799999997,503286.77,503292.799999997,503303.481,506712.525,8,400,24,,ISIC_2638895.JPG
break,html.Screen,4_123_1,2023-10-31T03:21:51.975Z,,0,,,NaN,,,,,,false,,,,506705.90000000596,506705.59999999404,,506705.299999997,,506712.525,8,400,,,
break_continue,html.Screen,4_123_2,2023-10-31T03:21:51.976Z,,0,,,NaN,,,,,,false,,,,506706.299999997,506706.200000003,,506706,,506712.525,8,400,,,
sequence,flow.Sequence,4_123,2023-10-31T03:21:51.976Z,,0,,,3402.7190000029514,completion,,,,,false,,,,506706.59999999404,506706.200000003,503286.77,503292.799999997,503303.481,506712.525,8,400,,,
trial,html.Screen,4_124_0,2023-10-31T03:21:55.515Z,,0,3,,3533.2749999969965,response,ISIC_0054021.JPG,6,ISIC_3613012.JPG,ISIC_0054021.JPG,false,1,keypress(m),500,510246,510245.799999997,506695.814,506706.799999997,506712.525,510255.257,8,400,25,,ISIC_3613012.JPG
break,html.Screen,4_124_1,2023-10-31T03:21:55.516Z,,0,,,NaN,,,,,,false,,,,510247,510246.700000003,,510246.200000003,,510255.257,8,400,,,
break_continue,html.Screen,4_124_2,2023-10-31T03:21:55.517Z,,0,,,NaN,,,,,,false,,,,510247.40000000596,510247.200000003,,510247,,510255.257,8,400,,,
sequence,flow.Sequence,4_124,2023-10-31T03:21:55.517Z,,0,,,3534.675000002957,completion,,,,,false,,,,510247.59999999404,510247.200000003,506695.814,506706.700000003,506712.525,510255.257,8,400,,,
trial,html.Screen,4_125_0,2023-10-31T03:21:58.667Z,,0,3,,3142.7430000000168,response,ISIC_6278273.JPG,6,ISIC_0056930.JPG,ISIC_6278273.JPG,false,1,keypress(m),500,513398.200000003,513398,510238.546,510247.700000003,510255.257,513413.828,8,400,26,,ISIC_0056930.JPG
break,html.Screen,4_125_1,2023-10-31T03:21:58.668Z,,0,,,NaN,,,,,,false,,,,513399.09999999404,513398.799999997,,513398.40000000596,,513413.828,8,400,,,
break_continue,html.Screen,4_125_2,2023-10-31T03:21:58.669Z,,0,,,NaN,,,,,,false,,,,513399.5,513399.40000000596,,513399.299999997,,513413.828,8,400,,,
sequence,flow.Sequence,4_125,2023-10-31T03:21:58.669Z,,0,,,3144.1430000059772,completion,,,,,false,,,,513399.700000003,513399.40000000596,510238.546,510247.700000003,510255.257,513413.828,8,400,,,
