sender,sender_type,sender_id,timestamp,meta,,blockNo,condition,duration,ended_on,img_left,img_reveal,img_right,loser,practice,response,response_action,selection_duration,time_commit,time_end,time_render,time_run,time_show,time_switch,total_blocks,total_trials,trialNo,url,winner
informed_consent,html.Screen,0,2023-11-01T17:11:41.486Z,"{""labjs_version"":""20.2.4"",""labjs_build"":{""flavor"":""production"",""commit"":""f5b4a49f956347addd546a832a3327688c2c0fef""},""location"":""https://run.pavlovia.org/MurrayBennett/melanoma-2afc/?participant=66232&platform=sona"",""userAgent"":""Mozilla/5.0 (Macintosh; Intel Mac OS X 10_15_7) AppleWebKit/537.36 (KHTML, like Gecko) Chrome/118.0.0.0 Safari/537.36"",""platform"":""MacIntel"",""language"":""en-US"",""locale"":""en-US"",""timeZone"":""America/Chicago"",""timezoneOffset"":300,""screen_width"":1680,""screen_height"":1050,""scroll_width"":1680,""scroll_height"":881,""window_innerWidth"":1680,""window_innerHeight"":929,""devicePixelRatio"":2}",,,,5454.42699999702,response,,,,,,consent,click button,,10333.59999999404,10331.79999999702,4727.379,4879.79999999702,4877.373,10343.821,,,,"{""participant"":""66232"",""platform"":""sona""}",
Welcome,html.Screen,1,2023-11-01T17:11:42.604Z,,,,asymmetry,1104.7789999940396,response,,,,,,continue,click button,,11451.20000000298,11448.59999999404,10327.155,10333.70000000298,10343.821,11460.443,,,,,
trial,html.Screen,2_0_0,2023-11-01T17:11:54.101Z,,0,0,,11516.724000000002,timeout,ISIC_0069348.JPG,,ISIC_6997061.JPG,,true,,,500,22948.5,22948,11443.777,11451.59999999404,11460.443,22977.167,1,6,1,,
sequence,flow.Sequence,2_0,2023-11-01T17:11:54.102Z,,0,,,11487.557,completion,,,,,true,,,,22949.09999999404,22948,11443.777,11451.59999999404,11460.443,22977.167,1,6,,,
trial,html.Screen,2_1_0,2023-11-01T17:12:05.616Z,,0,0,,11517.324999999997,timeout,ISIC_0009529.JPG,,ISIC_0057368.JPG,,true,,,500,34463.40000000596,34462.90000000596,22960.501,22949.20000000298,22977.167,34494.492,1,6,2,,
sequence,flow.Sequence,2_1,2023-11-01T17:12:05.616Z,,0,,,11485.73300000596,completion,,,,,true,,,,34463.90000000596,34462.90000000596,22960.501,22949.09999999404,22977.167,34494.492,1,6,,,
trial,html.Screen,2_2_0,2023-11-01T17:12:17.131Z,,0,0,,11516.709000000003,timeout,ISIC_9758671.JPG,,ISIC_0064954.JPG,,true,,,500,45979,45978.40000000596,34477.826,34464.20000000298,34494.492,46011.201,1,6,3,,
sequence,flow.Sequence,2_2,2023-11-01T17:12:17.131Z,,0,,,11483.908000005962,completion,,,,,true,,,,45979.29999999702,45978.40000000596,34477.826,34464.09999999404,34494.492,46011.201,1,6,,,
trial,html.Screen,2_3_0,2023-11-01T17:12:25.664Z,,0,0,,8499.99900000298,response,ISIC_0000080.JPG,,ISIC_0005785.JPG,ISIC_0005785.JPG,true,0,keypress(z),500,54511.90000000596,54511.20000000298,45994.535,45979.40000000596,46011.201,54527.527,1,6,4,,ISIC_0000080.JPG
sequence,flow.Sequence,2_3,2023-11-01T17:12:25.664Z,,0,,,8499.99900000298,completion,,,,,true,,,,54512.40000000596,54511.20000000298,45994.535,45979.29999999702,46011.201,54527.527,1,6,,,
trial,html.Screen,2_4_0,2023-11-01T17:12:28.872Z,,0,0,,3192.1730000029784,response,ISIC_7944028.JPG,,ISIC_5390060.JPG,ISIC_7944028.JPG,true,1,keypress(m),500,57720.29999999702,57719.70000000298,54510.861,54512.59999999404,54527.527,57727.933,1,6,5,,ISIC_5390060.JPG
sequence,flow.Sequence,2_4,2023-11-01T17:12:28.873Z,,0,,,3192.1730000029784,completion,,,,,true,,,,57720.79999999702,57719.70000000298,54510.861,54512.59999999404,54527.527,57727.933,1,6,,,
trial,html.Screen,2_5_0,2023-11-01T17:12:32.718Z,,0,0,,3838.0670000000027,response,ISIC_0010188.JPG,,ISIC_0794216.JPG,ISIC_0794216.JPG,true,0,keypress(z),500,61566.40000000596,61566,57711.267,57721,57727.933,61577.779,1,6,6,,ISIC_0010188.JPG
sequence,flow.Sequence,2_5,2023-11-01T17:12:32.719Z,,0,,,3838.0670000000027,completion,,,,,true,,,,61566.79999999702,61566,57711.267,57720.90000000596,57727.933,61577.779,1,6,,,
loop,flow.Loop,2,2023-11-01T17:12:32.719Z,,,,,50105.557,completion,,,,,true,,,,61567.09999999404,61566,11443.777,11451.59999999404,11460.443,61577.779,1,6,,,
exp_instructions,html.Screen,3,2023-11-01T17:13:10.083Z,,,,,37348.32099999404,response,,,,,,continue,keypress(Space),,98932,98926.09999999404,61561.113,61567.29999999702,61577.779,98945.101,,,,,
trial,html.Screen,4_0_0,2023-11-01T17:13:13.243Z,,0,1,,3146.399000000005,response,ISIC_5776158.JPG,6,ISIC_0015185.JPG,ISIC_5776158.JPG,false,1,keypress(m),500,102092.09999999404,102091.5,98928.435,98932.59999999404,98945.101,102094.975,8,400,1,,ISIC_0015185.JPG
break,html.Screen,4_0_1,2023-11-01T17:13:13.244Z,,0,,,NaN,,,,,,false,,,,102093.5,102093.09999999404,,102092.29999999702,,102094.975,8,400,,,
break_continue,html.Screen,4_0_2,2023-11-01T17:13:13.245Z,,0,,,NaN,,,,,,false,,,,102093.90000000596,102093.79999999702,,102093.59999999404,,102094.975,8,400,,,
sequence,flow.Sequence,4_0,2023-11-01T17:13:13.245Z,,0,,,3148.6989999970247,completion,,,,,false,,,,102094.20000000298,102093.79999999702,98928.435,98932.5,98945.101,102094.975,8,400,,,
trial,html.Screen,4_1_0,2023-11-01T17:13:17.089Z,,0,1,,3842.2250000029744,response,ISIC_0056902.JPG,8,ISIC_6001716.JPG,ISIC_6001716.JPG,false,0,keypress(z),500,105937.70000000298,105937.20000000298,102078.309,102094.29999999702,102094.975,105944.821,8,400,2,,ISIC_0056902.JPG
break,html.Screen,4_1_1,2023-11-01T17:13:17.090Z,,0,,,NaN,,,,,,false,,,,105938.70000000298,105938.5,,105938,,105944.821,8,400,,,
break_continue,html.Screen,4_1_2,2023-11-01T17:13:17.090Z,,0,,,NaN,,,,,,false,,,,105939.09999999404,105938.90000000596,,105938.79999999702,,105944.821,8,400,,,
sequence,flow.Sequence,4_1,2023-11-01T17:13:17.090Z,,0,,,3843.9250000059546,completion,,,,,false,,,,105939.29999999702,105938.90000000596,102078.309,102094.29999999702,102094.975,105944.821,8,400,,,
trial,html.Screen,4_2_0,2023-11-01T17:13:19.461Z,,0,1,,2365.1790000000037,response,ISIC_1356715.JPG,9,ISIC_7814144.JPG,ISIC_7814144.JPG,false,0,keypress(z),500,108310.5,108310,105928.155,105939.40000000596,105944.821,108311.973,8,400,3,,ISIC_1356715.JPG
break,html.Screen,4_2_1,2023-11-01T17:13:19.462Z,,0,,,NaN,,,,,,false,,,,108311.5,108311.29999999702,,108310.79999999702,,108311.973,8,400,,,
break_continue,html.Screen,4_2_2,2023-11-01T17:13:19.463Z,,0,,,NaN,,,,,,false,,,,108311.79999999702,108311.79999999702,,108311.70000000298,,108311.973,8,400,,,
sequence,flow.Sequence,4_2,2023-11-01T17:13:19.463Z,,0,,,2366.9789999970235,completion,,,,,false,,,,108312.09999999404,108311.79999999702,105928.155,105939.29999999702,105944.821,108311.973,8,400,,,
trial,html.Screen,4_3_0,2023-11-01T17:13:21.756Z,,0,1,,2292.527000000002,response,ISIC_0061381.JPG,8,ISIC_0032509.JPG,ISIC_0032509.JPG,false,0,keypress(z),500,110605,110604.5,108295.307,108312.20000000298,108311.973,110611.881,8,400,4,,ISIC_0061381.JPG
break,html.Screen,4_3_1,2023-11-01T17:13:21.757Z,,0,,,NaN,,,,,,false,,,,110606.09999999404,110605.90000000596,,110605.29999999702,,110611.881,8,400,,,
break_continue,html.Screen,4_3_2,2023-11-01T17:13:21.757Z,,0,,,NaN,,,,,,false,,,,110606.29999999702,110606.29999999702,,110606.09999999404,,110611.881,8,400,,,
sequence,flow.Sequence,4_3,2023-11-01T17:13:21.757Z,,0,,,2294.3269999970216,completion,,,,,false,,,,110606.5,110606.29999999702,108295.307,108312.20000000298,108311.973,110611.881,8,400,,,
trial,html.Screen,4_4_0,2023-11-01T17:13:24.051Z,,0,1,,2287.7189999940456,response,ISIC_2445475.JPG,8,ISIC_0033500.JPG,ISIC_0033500.JPG,false,0,keypress(z),500,112900.09999999404,112899.59999999404,110595.215,110606.79999999702,110611.881,112911.789,8,400,5,,ISIC_2445475.JPG
break,html.Screen,4_4_1,2023-11-01T17:13:24.052Z,,0,,,NaN,,,,,,false,,,,112901.20000000298,112900.90000000596,,112900.40000000596,,112911.789,8,400,,,
break_continue,html.Screen,4_4_2,2023-11-01T17:13:24.052Z,,0,,,NaN,,,,,,false,,,,112901.5,112901.29999999702,,112901.29999999702,,112911.789,8,400,,,
sequence,flow.Sequence,4_4,2023-11-01T17:13:24.052Z,,0,,,2289.418999997026,completion,,,,,false,,,,112901.59999999404,112901.29999999702,110595.215,110606.79999999702,110611.881,112911.789,8,400,,,
trial,html.Screen,4_5_0,2023-11-01T17:13:26.362Z,,0,1,,2298.5109999970155,response,ISIC_0011730.JPG,7,ISIC_0005139.JPG,ISIC_0011730.JPG,false,1,keypress(m),500,115210.79999999702,115210.29999999702,112895.123,112901.90000000596,112911.789,115228.363,8,400,6,,ISIC_0005139.JPG
break,html.Screen,4_5_1,2023-11-01T17:13:26.363Z,,0,,,NaN,,,,,,false,,,,115211.90000000596,115211.70000000298,,115211.20000000298,,115228.363,8,400,,,
break_continue,html.Screen,4_5_2,2023-11-01T17:13:26.363Z,,0,,,NaN,,,,,,false,,,,115212.20000000298,115212,,115212,,115228.363,8,400,,,
sequence,flow.Sequence,4_5,2023-11-01T17:13:26.363Z,,0,,,2300.2109999999957,completion,,,,,false,,,,115212.40000000596,115212,112895.123,112901.79999999702,112911.789,115228.363,8,400,,,
trial,html.Screen,4_6_0,2023-11-01T17:13:28.641Z,,0,1,,2261.436999997022,response,ISIC_0024380.JPG,8,ISIC_0028220.JPG,ISIC_0024380.JPG,false,1,keypress(m),500,117490.09999999404,117489.79999999702,115211.697,115212.5,115228.363,117495.464,8,400,7,,ISIC_0028220.JPG
break,html.Screen,4_6_1,2023-11-01T17:13:28.642Z,,0,,,NaN,,,,,,false,,,,117490.79999999702,117490.70000000298,,117490.40000000596,,117495.464,8,400,,,
break_continue,html.Screen,4_6_2,2023-11-01T17:13:28.642Z,,0,,,NaN,,,,,,false,,,,117491.09999999404,117491,,117490.90000000596,,117495.464,8,400,,,
sequence,flow.Sequence,4_6,2023-11-01T17:13:28.642Z,,0,,,2262.6370000000024,completion,,,,,false,,,,117491.09999999404,117491,115211.697,115212.5,115228.363,117495.464,8,400,,,
trial,html.Screen,4_7_0,2023-11-01T17:13:30.965Z,,0,1,,2318.3359999970126,response,ISIC_0065714.JPG,6,ISIC_0025382.JPG,ISIC_0025382.JPG,false,0,keypress(z),500,119814.20000000298,119813.79999999702,117478.798,117491.20000000298,117495.464,119828.704,8,400,8,,ISIC_0065714.JPG
break,html.Screen,4_7_1,2023-11-01T17:13:30.966Z,,0,,,NaN,,,,,,false,,,,119815.20000000298,119814.90000000596,,119814.5,,119828.704,8,400,,,
break_continue,html.Screen,4_7_2,2023-11-01T17:13:30.966Z,,0,,,NaN,,,,,,false,,,,119815.5,119815.40000000596,,119815.20000000298,,119828.704,8,400,,,
sequence,flow.Sequence,4_7,2023-11-01T17:13:30.966Z,,0,,,2319.9360000059532,completion,,,,,false,,,,119815.70000000298,119815.40000000596,117478.798,117491.20000000298,117495.464,119828.704,8,400,,,
trial,html.Screen,4_8_0,2023-11-01T17:13:33.354Z,,0,1,,2374.6960000059626,response,ISIC_0062286.JPG,9,ISIC_0027306.JPG,ISIC_0062286.JPG,false,1,keypress(m),500,122203.79999999702,122203.40000000596,119812.038,119815.79999999702,119828.704,122211.942,8,400,9,,ISIC_0027306.JPG
break,html.Screen,4_8_1,2023-11-01T17:13:33.355Z,,0,,,NaN,,,,,,false,,,,122204.79999999702,122204.59999999404,,122204.09999999404,,122211.942,8,400,,,
break_continue,html.Screen,4_8_2,2023-11-01T17:13:33.356Z,,0,,,NaN,,,,,,false,,,,122205.20000000298,122205.09999999404,,122204.90000000596,,122211.942,8,400,,,
sequence,flow.Sequence,4_8,2023-11-01T17:13:33.356Z,,0,,,2376.3959999940416,completion,,,,,false,,,,122205.40000000596,122205.09999999404,119812.038,119815.79999999702,119828.704,122211.942,8,400,,,
trial,html.Screen,4_9_0,2023-11-01T17:13:36.069Z,,0,1,,2706.458000005965,response,ISIC_2597678.JPG,8,ISIC_4903988.JPG,ISIC_4903988.JPG,false,0,keypress(z),500,124918.79999999702,124918.40000000596,122195.276,122205.5,122211.942,124928.5,8,400,10,,ISIC_2597678.JPG
break,html.Screen,4_9_1,2023-11-01T17:13:36.070Z,,0,,,NaN,,,,,,false,,,,124919.70000000298,124919.5,,124919,,124928.5,8,400,,,
break_continue,html.Screen,4_9_2,2023-11-01T17:13:36.071Z,,0,,,NaN,,,,,,false,,,,124920,124919.90000000596,,124919.79999999702,,124928.5,8,400,,,
sequence,flow.Sequence,4_9,2023-11-01T17:13:36.071Z,,0,,,2707.958000005965,completion,,,,,false,,,,124920.20000000298,124919.90000000596,122195.276,122205.5,122211.942,124928.5,8,400,,,
trial,html.Screen,4_10_0,2023-11-01T17:13:38.700Z,,0,1,,2620.0999999940395,response,ISIC_0062530.JPG,7,ISIC_0068382.JPG,ISIC_0068382.JPG,false,0,keypress(z),500,127549,127548.59999999404,124911.834,124920.29999999702,124928.5,127562.287,8,400,11,,ISIC_0062530.JPG
break,html.Screen,4_10_1,2023-11-01T17:13:38.701Z,,0,,,NaN,,,,,,false,,,,127550.09999999404,127549.90000000596,,127549.40000000596,,127562.287,8,400,,,
break_continue,html.Screen,4_10_2,2023-11-01T17:13:38.701Z,,0,,,NaN,,,,,,false,,,,127550.29999999702,127550.20000000298,,127550.20000000298,,127562.287,8,400,,,
sequence,flow.Sequence,4_10,2023-11-01T17:13:38.701Z,,0,,,2621.7000000029802,completion,,,,,false,,,,127550.5,127550.20000000298,124911.834,124920.29999999702,124928.5,127562.287,8,400,,,
trial,html.Screen,4_11_0,2023-11-01T17:13:42.243Z,,0,1,,3530.312999994043,response,ISIC_9322551.JPG,7,ISIC_9331097.JPG,ISIC_9331097.JPG,false,0,keypress(z),500,131093,131092.59999999404,127545.621,127550.70000000298,127562.287,131095.479,8,400,12,,ISIC_9322551.JPG
break,html.Screen,4_11_1,2023-11-01T17:13:42.244Z,,0,,,NaN,,,,,,false,,,,131094,131093.79999999702,,131093.29999999702,,131095.479,8,400,,,
break_continue,html.Screen,4_11_2,2023-11-01T17:13:42.245Z,,0,,,NaN,,,,,,false,,,,131094.29999999702,131094.09999999404,,131094,,131095.479,8,400,,,
sequence,flow.Sequence,4_11,2023-11-01T17:13:42.245Z,,0,,,3531.812999994043,completion,,,,,false,,,,131094.40000000596,131094.09999999404,127545.621,127550.59999999404,127562.287,131095.479,8,400,,,
trial,html.Screen,4_12_0,2023-11-01T17:13:45.080Z,,0,1,,2834.3209999970277,response,ISIC_9699728.JPG,8,ISIC_0553932.JPG,ISIC_0553932.JPG,false,0,keypress(z),500,133930,133929.79999999702,131078.813,131094.5,131095.479,133945.365,8,400,13,,ISIC_9699728.JPG
break,html.Screen,4_12_1,2023-11-01T17:13:45.081Z,,0,,,NaN,,,,,,false,,,,133930.79999999702,133930.70000000298,,133930.20000000298,,133945.365,8,400,,,
break_continue,html.Screen,4_12_2,2023-11-01T17:13:45.081Z,,0,,,NaN,,,,,,false,,,,133931.09999999404,133931,,133930.90000000596,,133945.365,8,400,,,
sequence,flow.Sequence,4_12,2023-11-01T17:13:45.082Z,,0,,,2835.521000000008,completion,,,,,false,,,,133931.20000000298,133931,131078.813,131094.5,131095.479,133945.365,8,400,,,
trial,html.Screen,4_13_0,2023-11-01T17:13:47.550Z,,0,1,,2453.6350000000093,response,ISIC_4462476.JPG,7,ISIC_0001100.JPG,ISIC_0001100.JPG,false,0,keypress(z),500,136399.5,136399,133928.699,133931.29999999702,133945.365,136411.933,8,400,14,,ISIC_4462476.JPG
break,html.Screen,4_13_1,2023-11-01T17:13:47.551Z,,0,,,NaN,,,,,,false,,,,136400.40000000596,136400.20000000298,,136399.79999999702,,136411.933,8,400,,,
break_continue,html.Screen,4_13_2,2023-11-01T17:13:47.551Z,,0,,,NaN,,,,,,false,,,,136400.70000000298,136400.59999999404,,136400.5,,136411.933,8,400,,,
sequence,flow.Sequence,4_13,2023-11-01T17:13:47.551Z,,0,,,2455.234999994049,completion,,,,,false,,,,136400.90000000596,136400.59999999404,133928.699,133931.20000000298,133945.365,136411.933,8,400,,,
trial,html.Screen,4_14_0,2023-11-01T17:13:50.850Z,,0,1,,3287.4670000059705,response,ISIC_5662381.JPG,7,ISIC_0028467.JPG,ISIC_0028467.JPG,false,0,keypress(z),500,139699.90000000596,139699.40000000596,136395.267,136401,136411.933,139712.349,8,400,15,,ISIC_5662381.JPG
break,html.Screen,4_14_1,2023-11-01T17:13:50.851Z,,0,,,NaN,,,,,,false,,,,139700.90000000596,139700.70000000298,,139700.09999999404,,139712.349,8,400,,,
break_continue,html.Screen,4_14_2,2023-11-01T17:13:50.851Z,,0,,,NaN,,,,,,false,,,,139701.09999999404,139701,,139700.90000000596,,139712.349,8,400,,,
sequence,flow.Sequence,4_14,2023-11-01T17:13:50.852Z,,0,,,3289.06700000001,completion,,,,,false,,,,139701.29999999702,139701,136395.267,136401,136411.933,139712.349,8,400,,,
trial,html.Screen,4_15_0,2023-11-01T17:13:53.691Z,,0,1,,2828.1510000000126,response,ISIC_3493866.JPG,6,ISIC_0054233.JPG,ISIC_3493866.JPG,false,1,keypress(m),500,142541,142540.5,139695.683,139701.40000000596,139712.349,142545.569,8,400,16,,ISIC_0054233.JPG
break,html.Screen,4_15_1,2023-11-01T17:13:53.692Z,,0,,,NaN,,,,,,false,,,,142542,142541.79999999702,,142541.29999999702,,142545.569,8,400,,,
break_continue,html.Screen,4_15_2,2023-11-01T17:13:53.693Z,,0,,,NaN,,,,,,false,,,,142542.29999999702,142542.20000000298,,142542.09999999404,,142545.569,8,400,,,
sequence,flow.Sequence,4_15,2023-11-01T17:13:53.693Z,,0,,,2829.851000002993,completion,,,,,false,,,,142542.5,142542.20000000298,139695.683,139701.40000000596,139712.349,142545.569,8,400,,,
trial,html.Screen,4_16_0,2023-11-01T17:13:56.084Z,,0,1,,2387.4310000000114,response,ISIC_0000546.JPG,6,ISIC_4172470.JPG,ISIC_0000546.JPG,false,1,keypress(m),500,144933.5,144933,142528.903,142542.59999999404,142545.569,144945.473,8,400,17,,ISIC_4172470.JPG
break,html.Screen,4_16_1,2023-11-01T17:13:56.085Z,,0,,,NaN,,,,,,false,,,,144934.40000000596,144934.29999999702,,144933.90000000596,,144945.473,8,400,,,
break_continue,html.Screen,4_16_2,2023-11-01T17:13:56.085Z,,0,,,NaN,,,,,,false,,,,144934.79999999702,144934.59999999404,,144934.5,,144945.473,8,400,,,
sequence,flow.Sequence,4_16,2023-11-01T17:13:56.085Z,,0,,,2389.030999994051,completion,,,,,false,,,,144934.90000000596,144934.59999999404,142528.903,142542.59999999404,142545.569,144945.473,8,400,,,
trial,html.Screen,4_17_0,2023-11-01T17:13:58.364Z,,0,1,,2267.6269999940414,response,ISIC_0000413.JPG,8,ISIC_0004667.JPG,ISIC_0004667.JPG,false,0,keypress(z),500,147213.40000000596,147213.09999999404,144928.807,144935.20000000298,144945.473,147228.715,8,400,18,,ISIC_0000413.JPG
break,html.Screen,4_17_1,2023-11-01T17:13:58.364Z,,0,,,NaN,,,,,,false,,,,147214.09999999404,147214,,147213.59999999404,,147228.715,8,400,,,
break_continue,html.Screen,4_17_2,2023-11-01T17:13:58.364Z,,0,,,NaN,,,,,,false,,,,147214.40000000596,147214.29999999702,,147214.20000000298,,147228.715,8,400,,,
sequence,flow.Sequence,4_17,2023-11-01T17:13:58.365Z,,0,,,2268.8269999970216,completion,,,,,false,,,,147214.40000000596,147214.29999999702,144928.807,144935.09999999404,144945.473,147228.715,8,400,,,
trial,html.Screen,4_18_0,2023-11-01T17:14:02.417Z,,0,1,,4037.7850000000035,response,ISIC_2489146.JPG,5,ISIC_0029481.JPG,ISIC_0029481.JPG,false,0,keypress(z),500,151267,151266.5,147212.049,147214.59999999404,147228.715,151279.133,8,400,19,,ISIC_2489146.JPG
break,html.Screen,4_18_1,2023-11-01T17:14:02.418Z,,0,,,NaN,,,,,,false,,,,151268.20000000298,151268,,151267.5,,151279.133,8,400,,,
break_continue,html.Screen,4_18_2,2023-11-01T17:14:02.419Z,,0,,,NaN,,,,,,false,,,,151268.5,151268.40000000596,,151268.29999999702,,151279.133,8,400,,,
sequence,flow.Sequence,4_18,2023-11-01T17:14:02.419Z,,0,,,4039.685000005964,completion,,,,,false,,,,151268.70000000298,151268.40000000596,147212.049,147214.40000000596,147228.715,151279.133,8,400,,,
trial,html.Screen,4_19_0,2023-11-01T17:14:10.653Z,,0,1,,8223.966999994038,response,ISIC_2670619.JPG,8,ISIC_1002979.JPG,ISIC_2670619.JPG,false,1,keypress(m),500,159503.29999999702,159503.09999999404,151262.467,151268.79999999702,151279.133,159512.723,8,400,20,,ISIC_1002979.JPG
break,html.Screen,4_19_1,2023-11-01T17:14:10.654Z,,0,,,NaN,,,,,,false,,,,159503.79999999702,159503.70000000298,,159503.40000000596,,159512.723,8,400,,,
break_continue,html.Screen,4_19_2,2023-11-01T17:14:10.654Z,,0,,,NaN,,,,,,false,,,,159504,159504,,159503.90000000596,,159512.723,8,400,,,
sequence,flow.Sequence,4_19,2023-11-01T17:14:10.654Z,,0,,,8224.866999999998,completion,,,,,false,,,,159504.20000000298,159504,151262.467,151268.79999999702,151279.133,159512.723,8,400,,,
trial,html.Screen,4_20_0,2023-11-01T17:14:13.298Z,,0,1,,2634.977000002982,response,ISIC_0032339.JPG,8,ISIC_7340247.JPG,ISIC_7340247.JPG,false,0,keypress(z),500,162148,162147.70000000298,159496.057,159504.20000000298,159512.723,162162.617,8,400,21,,ISIC_0032339.JPG
break,html.Screen,4_20_1,2023-11-01T17:14:13.298Z,,0,,,NaN,,,,,,false,,,,162148.70000000298,162148.5,,162148.29999999702,,162162.617,8,400,,,
break_continue,html.Screen,4_20_2,2023-11-01T17:14:13.299Z,,0,,,NaN,,,,,,false,,,,162148.79999999702,162148.79999999702,,162148.70000000298,,162162.617,8,400,,,
sequence,flow.Sequence,4_20,2023-11-01T17:14:13.299Z,,0,,,2636.0769999970216,completion,,,,,false,,,,162148.90000000596,162148.79999999702,159496.057,159504.20000000298,159512.723,162162.617,8,400,,,
trial,html.Screen,4_21_0,2023-11-01T17:14:16.360Z,,0,1,,3047.6829999970214,response,ISIC_0011949.JPG,9,ISIC_0024266.JPG,ISIC_0024266.JPG,false,0,keypress(z),500,165210.59999999404,165210.29999999702,162145.951,162149.09999999404,162162.617,165212.495,8,400,22,,ISIC_0011949.JPG
break,html.Screen,4_21_1,2023-11-01T17:14:16.361Z,,0,,,NaN,,,,,,false,,,,165211.40000000596,165211.20000000298,,165210.79999999702,,165212.495,8,400,,,
break_continue,html.Screen,4_21_2,2023-11-01T17:14:16.361Z,,0,,,NaN,,,,,,false,,,,165211.5,165211.5,,165211.5,,165212.495,8,400,,,
sequence,flow.Sequence,4_21,2023-11-01T17:14:16.361Z,,0,,,3048.8830000000016,completion,,,,,false,,,,165211.70000000298,165211.5,162145.951,162149.09999999404,162162.617,165212.495,8,400,,,
trial,html.Screen,4_22_0,2023-11-01T17:14:20.498Z,,0,1,,4135.804999997024,response,ISIC_5843614.JPG,9,ISIC_0014027.JPG,ISIC_5843614.JPG,false,1,keypress(m),500,169348.59999999404,169348.29999999702,165195.829,165211.90000000596,165212.495,169379.515,8,400,23,,ISIC_0014027.JPG
break,html.Screen,4_22_1,2023-11-01T17:14:20.499Z,,0,,,NaN,,,,,,false,,,,169349.20000000298,169349.09999999404,,169348.79999999702,,169379.515,8,400,,,
break_continue,html.Screen,4_22_2,2023-11-01T17:14:20.499Z,,0,,,NaN,,,,,,false,,,,169349.40000000596,169349.40000000596,,169349.29999999702,,169379.515,8,400,,,
sequence,flow.Sequence,4_22,2023-11-01T17:14:20.499Z,,0,,,4136.905000005965,completion,,,,,false,,,,169349.5,169349.40000000596,165195.829,165211.79999999702,165212.495,169379.515,8,400,,,
trial,html.Screen,4_23_0,2023-11-01T17:14:23.641Z,,0,1,,3111.284999997006,response,ISIC_4289906.JPG,8,ISIC_9688119.JPG,ISIC_9688119.JPG,false,0,keypress(z),500,172491.09999999404,172490.79999999702,169362.849,169349.59999999404,169379.515,172496.057,8,400,24,,ISIC_4289906.JPG
break,html.Screen,4_23_1,2023-11-01T17:14:23.641Z,,0,,,NaN,,,,,,false,,,,172491.79999999702,172491.59999999404,,172491.29999999702,,172496.057,8,400,,,
break_continue,html.Screen,4_23_2,2023-11-01T17:14:23.642Z,,0,,,NaN,,,,,,false,,,,172492,172491.90000000596,,172491.79999999702,,172496.057,8,400,,,
sequence,flow.Sequence,4_23,2023-11-01T17:14:23.642Z,,0,,,3112.3850000059465,completion,,,,,false,,,,172492,172491.90000000596,169362.849,169349.5,169379.515,172496.057,8,400,,,
trial,html.Screen,4_24_0,2023-11-01T17:14:26.430Z,,0,1,,2784.242999997019,response,ISIC_0356611.JPG,7,ISIC_4821309.JPG,ISIC_4821309.JPG,false,0,keypress(z),500,175280.70000000298,175280.29999999702,172479.391,172492.09999999404,172496.057,175295.945,8,400,25,,ISIC_0356611.JPG
break,html.Screen,4_24_1,2023-11-01T17:14:26.431Z,,0,,,NaN,,,,,,false,,,,175281.29999999702,175281.20000000298,,175280.79999999702,,175295.945,8,400,,,
break_continue,html.Screen,4_24_2,2023-11-01T17:14:26.431Z,,0,,,NaN,,,,,,false,,,,175281.5,175281.40000000596,,175281.40000000596,,175295.945,8,400,,,
sequence,flow.Sequence,4_24,2023-11-01T17:14:26.431Z,,0,,,2785.3430000059598,completion,,,,,false,,,,175281.5,175281.40000000596,172479.391,172492.09999999404,172496.057,175295.945,8,400,,,
trial,html.Screen,4_25_0,2023-11-01T17:14:30.355Z,,0,1,,3909.2550000029732,response,ISIC_0024246.JPG,7,ISIC_0069505.JPG,ISIC_0024246.JPG,false,1,keypress(m),500,179205.5,179205.20000000298,175279.279,175281.59999999404,175295.945,179212.455,8,400,26,,ISIC_0069505.JPG
break,html.Screen,4_25_1,2023-11-01T17:14:30.356Z,,0,,,NaN,,,,,,false,,,,179206.20000000298,179206,,179205.70000000298,,179212.455,8,400,,,
break_continue,html.Screen,4_25_2,2023-11-01T17:14:30.356Z,,0,,,NaN,,,,,,false,,,,179206.40000000596,179206.29999999702,,179206.20000000298,,179212.455,8,400,,,
sequence,flow.Sequence,4_25,2023-11-01T17:14:30.356Z,,0,,,3910.354999997013,completion,,,,,false,,,,179206.40000000596,179206.29999999702,175279.279,175281.59999999404,175295.945,179212.455,8,400,,,
trial,html.Screen,4_26_0,2023-11-01T17:14:33.146Z,,0,1,,2784.245000002993,response,ISIC_0011040.JPG,9,ISIC_0071826.JPG,ISIC_0011040.JPG,false,1,keypress(m),500,181997.09999999404,181996.70000000298,179195.789,179206.40000000596,179212.455,182012.888,8,400,27,,ISIC_0071826.JPG
break,html.Screen,4_26_1,2023-11-01T17:14:33.147Z,,0,,,NaN,,,,,,false,,,,181997.59999999404,181997.59999999404,,181997.29999999702,,182012.888,8,400,,,
break_continue,html.Screen,4_26_2,2023-11-01T17:14:33.147Z,,0,,,NaN,,,,,,false,,,,181997.90000000596,181997.79999999702,,181997.70000000298,,182012.888,8,400,,,
sequence,flow.Sequence,4_26,2023-11-01T17:14:33.147Z,,0,,,2785.3449999970326,completion,,,,,false,,,,181997.90000000596,181997.79999999702,179195.789,179206.40000000596,179212.455,182012.888,8,400,,,
trial,html.Screen,4_27_0,2023-11-01T17:14:35.427Z,,0,1,,2264.312000002974,response,ISIC_0283541.JPG,7,ISIC_6131393.JPG,ISIC_6131393.JPG,false,0,keypress(z),500,184277.59999999404,184277.20000000298,181996.222,181998,182012.888,184279.464,8,400,28,,ISIC_0283541.JPG
break,html.Screen,4_27_1,2023-11-01T17:14:35.428Z,,0,,,NaN,,,,,,false,,,,184278.20000000298,184278.09999999404,,184277.79999999702,,184279.464,8,400,,,
break_continue,html.Screen,4_27_2,2023-11-01T17:14:35.428Z,,0,,,NaN,,,,,,false,,,,184278.29999999702,184278.29999999702,,184278.20000000298,,184279.464,8,400,,,
sequence,flow.Sequence,4_27,2023-11-01T17:14:35.428Z,,0,,,2265.4119999970135,completion,,,,,false,,,,184278.40000000596,184278.29999999702,181996.222,181997.90000000596,182012.888,184279.464,8,400,,,
trial,html.Screen,4_28_0,2023-11-01T17:14:37.788Z,,0,1,,2359.035999999993,response,ISIC_0024624.JPG,7,ISIC_8759726.JPG,ISIC_8759726.JPG,false,0,keypress(z),500,186638.79999999702,186638.5,184262.798,184278.5,184279.464,186646.036,8,400,29,,ISIC_0024624.JPG
break,html.Screen,4_28_1,2023-11-01T17:14:37.789Z,,0,,,NaN,,,,,,false,,,,186639.29999999702,186639.20000000298,,186639,,186646.036,8,400,,,
break_continue,html.Screen,4_28_2,2023-11-01T17:14:37.789Z,,0,,,NaN,,,,,,false,,,,186639.59999999404,186639.5,,186639.5,,186646.036,8,400,,,
sequence,flow.Sequence,4_28,2023-11-01T17:14:37.789Z,,0,,,2360.035999999993,completion,,,,,false,,,,186639.70000000298,186639.5,184262.798,184278.5,184279.464,186646.036,8,400,,,
trial,html.Screen,4_29_0,2023-11-01T17:14:42.657Z,,0,1,,4861.864000005968,response,ISIC_6414435.JPG,8,ISIC_0060481.JPG,ISIC_6414435.JPG,false,1,keypress(m),500,191508.29999999702,191507.90000000596,186629.37,186639.79999999702,186646.036,191513.129,8,400,30,,ISIC_0060481.JPG
break,html.Screen,4_29_1,2023-11-01T17:14:42.658Z,,0,,,NaN,,,,,,false,,,,191508.79999999702,191508.70000000298,,191508.40000000596,,191513.129,8,400,,,
break_continue,html.Screen,4_29_2,2023-11-01T17:14:42.658Z,,0,,,NaN,,,,,,false,,,,191509.09999999404,191509,,191508.90000000596,,191513.129,8,400,,,
sequence,flow.Sequence,4_29,2023-11-01T17:14:42.658Z,,0,,,4862.964000000007,completion,,,,,false,,,,191509.09999999404,191509,186629.37,186639.70000000298,186646.036,191513.129,8,400,,,
trial,html.Screen,4_30_0,2023-11-01T17:14:45.013Z,,0,1,,2350.571000002994,response,ISIC_2232442.JPG,8,ISIC_5415749.JPG,ISIC_5415749.JPG,false,0,keypress(z),500,193864.09999999404,193863.70000000298,191496.463,191509.20000000298,191513.129,193879.701,8,400,31,,ISIC_2232442.JPG
break,html.Screen,4_30_1,2023-11-01T17:14:45.014Z,,0,,,NaN,,,,,,false,,,,193864.70000000298,193864.59999999404,,193864.20000000298,,193879.701,8,400,,,
break_continue,html.Screen,4_30_2,2023-11-01T17:14:45.014Z,,0,,,NaN,,,,,,false,,,,193864.90000000596,193864.79999999702,,193864.70000000298,,193879.701,8,400,,,
sequence,flow.Sequence,4_30,2023-11-01T17:14:45.014Z,,0,,,2351.6709999970335,completion,,,,,false,,,,193865,193864.79999999702,191496.463,191509.20000000298,191513.129,193879.701,8,400,,,
trial,html.Screen,4_31_0,2023-11-01T17:14:47.502Z,,0,1,,2473.1990000059595,response,ISIC_6448312.JPG,8,ISIC_0028488.JPG,ISIC_6448312.JPG,false,1,keypress(m),500,196353.20000000298,196352.90000000596,193863.035,193865,193879.701,196362.935,8,400,32,,ISIC_0028488.JPG
break,html.Screen,4_31_1,2023-11-01T17:14:47.503Z,,0,,,NaN,,,,,,false,,,,196353.90000000596,196353.79999999702,,196353.5,,196362.935,8,400,,,
break_continue,html.Screen,4_31_2,2023-11-01T17:14:47.503Z,,0,,,NaN,,,,,,false,,,,196354.09999999404,196354,,196354,,196362.935,8,400,,,
sequence,flow.Sequence,4_31,2023-11-01T17:14:47.503Z,,0,,,2474.298999999999,completion,,,,,false,,,,196354.20000000298,196354,193863.035,193865,193879.701,196362.935,8,400,,,
trial,html.Screen,4_32_0,2023-11-01T17:14:50.853Z,,0,1,,3340.164999994042,response,ISIC_3979323.JPG,6,ISIC_3234816.JPG,ISIC_3234816.JPG,false,0,keypress(z),500,199703.5,199703.09999999404,196346.269,196354.20000000298,196362.935,199712.801,8,400,33,,ISIC_3979323.JPG
break,html.Screen,4_32_1,2023-11-01T17:14:50.853Z,,0,,,NaN,,,,,,false,,,,199704.20000000298,199704,,199703.70000000298,,199712.801,8,400,,,
break_continue,html.Screen,4_32_2,2023-11-01T17:14:50.853Z,,0,,,NaN,,,,,,false,,,,199704.29999999702,199704.20000000298,,199704.20000000298,,199712.801,8,400,,,
sequence,flow.Sequence,4_32,2023-11-01T17:14:50.853Z,,0,,,3341.2650000029826,completion,,,,,false,,,,199704.29999999702,199704.20000000298,196346.269,196354.20000000298,196362.935,199712.801,8,400,,,
trial,html.Screen,4_33_0,2023-11-01T17:14:53.610Z,,0,1,,2747.798999994033,response,ISIC_0064113.JPG,8,ISIC_0029562.JPG,ISIC_0064113.JPG,false,1,keypress(m),500,202460.90000000596,202460.59999999404,199696.135,199704.40000000596,199712.801,202463.229,8,400,34,,ISIC_0029562.JPG
break,html.Screen,4_33_1,2023-11-01T17:14:53.611Z,,0,,,NaN,,,,,,false,,,,202461.59999999404,202461.5,,202461.09999999404,,202463.229,8,400,,,
break_continue,html.Screen,4_33_2,2023-11-01T17:14:53.611Z,,0,,,NaN,,,,,,false,,,,202461.79999999702,202461.70000000298,,202461.59999999404,,202463.229,8,400,,,
sequence,flow.Sequence,4_33,2023-11-01T17:14:53.611Z,,0,,,2748.8990000029735,completion,,,,,false,,,,202461.79999999702,202461.70000000298,199696.135,199704.40000000596,199712.801,202463.229,8,400,,,
trial,html.Screen,4_34_0,2023-11-01T17:14:55.950Z,,0,1,,2337.1710000059684,response,ISIC_2603420.JPG,5,ISIC_7468304.JPG,ISIC_7468304.JPG,false,0,keypress(z),500,204800.70000000298,204800.40000000596,202446.563,202461.90000000596,202463.229,204813.135,8,400,35,,ISIC_2603420.JPG
break,html.Screen,4_34_1,2023-11-01T17:14:55.950Z,,0,,,NaN,,,,,,false,,,,204801.40000000596,204801.40000000596,,204800.90000000596,,204813.135,8,400,,,
break_continue,html.Screen,4_34_2,2023-11-01T17:14:55.951Z,,0,,,NaN,,,,,,false,,,,204801.59999999404,204801.5,,204801.5,,204813.135,8,400,,,
sequence,flow.Sequence,4_34,2023-11-01T17:14:55.951Z,,0,,,2338.271000000008,completion,,,,,false,,,,204801.70000000298,204801.5,202446.563,202461.90000000596,202463.229,204813.135,8,400,,,
trial,html.Screen,4_35_0,2023-11-01T17:14:58.339Z,,0,1,,2376.765000005951,response,ISIC_4873045.JPG,6,ISIC_5498651.JPG,ISIC_4873045.JPG,false,1,keypress(m),500,207190.20000000298,207189.90000000596,204796.469,204801.70000000298,204813.135,207196.373,8,400,36,,ISIC_5498651.JPG
break,html.Screen,4_35_1,2023-11-01T17:14:58.340Z,,0,,,NaN,,,,,,false,,,,207190.90000000596,207190.79999999702,,207190.40000000596,,207196.373,8,400,,,
break_continue,html.Screen,4_35_2,2023-11-01T17:14:58.340Z,,0,,,NaN,,,,,,false,,,,207191,207191,,207190.90000000596,,207196.373,8,400,,,
sequence,flow.Sequence,4_35,2023-11-01T17:14:58.340Z,,0,,,2377.8649999999907,completion,,,,,false,,,,207191.09999999404,207191,204796.469,204801.70000000298,204813.135,207196.373,8,400,,,
trial,html.Screen,4_36_0,2023-11-01T17:15:00.712Z,,0,1,,2366.4269999970275,response,ISIC_0027171.JPG,6,ISIC_1514401.JPG,ISIC_1514401.JPG,false,0,keypress(z),500,209563.20000000298,209562.79999999702,207179.707,207191.20000000298,207196.373,209579.611,8,400,37,,ISIC_0027171.JPG
break,html.Screen,4_36_1,2023-11-01T17:15:00.713Z,,0,,,NaN,,,,,,false,,,,209563.70000000298,209563.59999999404,,209563.29999999702,,209579.611,8,400,,,
break_continue,html.Screen,4_36_2,2023-11-01T17:15:00.713Z,,0,,,NaN,,,,,,false,,,,209563.90000000596,209563.79999999702,,209563.79999999702,,209579.611,8,400,,,
sequence,flow.Sequence,4_36,2023-11-01T17:15:00.713Z,,0,,,2367.4269999970275,completion,,,,,false,,,,209564,209563.79999999702,207179.707,207191.20000000298,207196.373,209579.611,8,400,,,
trial,html.Screen,4_37_0,2023-11-01T17:15:03.260Z,,0,1,,2530.988999994035,response,ISIC_8447658.JPG,7,ISIC_0069556.JPG,ISIC_8447658.JPG,false,1,keypress(m),500,212110.90000000596,212110.59999999404,209562.945,209564.09999999404,209579.611,212113.362,8,400,38,,ISIC_0069556.JPG
break,html.Screen,4_37_1,2023-11-01T17:15:03.261Z,,0,,,NaN,,,,,,false,,,,212111.70000000298,212111.59999999404,,212111.20000000298,,212113.362,8,400,,,
break_continue,html.Screen,4_37_2,2023-11-01T17:15:03.261Z,,0,,,NaN,,,,,,false,,,,212111.90000000596,212111.79999999702,,212111.70000000298,,212113.362,8,400,,,
sequence,flow.Sequence,4_37,2023-11-01T17:15:03.261Z,,0,,,2532.1889999970153,completion,,,,,false,,,,212112,212111.79999999702,209562.945,209564.09999999404,209579.611,212113.362,8,400,,,
trial,html.Screen,4_38_0,2023-11-01T17:15:05.779Z,,0,1,,2517.0380000059668,response,ISIC_6661904.JPG,7,ISIC_8684147.JPG,ISIC_8684147.JPG,false,0,keypress(z),500,214630.70000000298,214630.40000000596,212096.696,212112.09999999404,212113.362,214646.594,8,400,39,,ISIC_6661904.JPG
break,html.Screen,4_38_1,2023-11-01T17:15:05.780Z,,0,,,NaN,,,,,,false,,,,214631.20000000298,214631.20000000298,,214630.79999999702,,214646.594,8,400,,,
break_continue,html.Screen,4_38_2,2023-11-01T17:15:05.780Z,,0,,,NaN,,,,,,false,,,,214631.5,214631.5,,214631.40000000596,,214646.594,8,400,,,
sequence,flow.Sequence,4_38,2023-11-01T17:15:05.780Z,,0,,,2518.1380000000063,completion,,,,,false,,,,214631.59999999404,214631.5,212096.696,212112,212113.362,214646.594,8,400,,,
trial,html.Screen,4_39_0,2023-11-01T17:15:09.608Z,,0,1,,3812.8060000059486,response,ISIC_0010942.JPG,5,ISIC_6640227.JPG,ISIC_0010942.JPG,false,1,keypress(m),500,218459.79999999702,218459.40000000596,214629.928,214631.59999999404,214646.594,218463.108,8,400,40,,ISIC_6640227.JPG
break,html.Screen,4_39_1,2023-11-01T17:15:09.609Z,,0,,,NaN,,,,,,false,,,,218460.40000000596,218460.29999999702,,218460,,218463.108,8,400,,,
break_continue,html.Screen,4_39_2,2023-11-01T17:15:09.609Z,,0,,,NaN,,,,,,false,,,,218460.70000000298,218460.5,,218460.5,,218463.108,8,400,,,
sequence,flow.Sequence,4_39,2023-11-01T17:15:09.609Z,,0,,,3813.905999999988,completion,,,,,false,,,,218460.70000000298,218460.5,214629.928,214631.59999999404,214646.594,218463.108,8,400,,,
trial,html.Screen,4_40_0,2023-11-01T17:15:11.856Z,,0,1,,2243.792000005953,response,ISIC_8060329.JPG,6,ISIC_0033802.JPG,ISIC_8060329.JPG,false,1,keypress(m),500,220707.29999999702,220706.90000000596,218446.442,218460.70000000298,218463.108,220713.018,8,400,41,,ISIC_0033802.JPG
break,html.Screen,4_40_1,2023-11-01T17:15:11.857Z,,0,,,NaN,,,,,,false,,,,220708,220707.90000000596,,220707.5,,220713.018,8,400,,,
break_continue,html.Screen,4_40_2,2023-11-01T17:15:11.857Z,,0,,,NaN,,,,,,false,,,,220708.09999999404,220708.09999999404,,220708,,220713.018,8,400,,,
sequence,flow.Sequence,4_40,2023-11-01T17:15:11.857Z,,0,,,2244.991999994032,completion,,,,,false,,,,220708.20000000298,220708.09999999404,218446.442,218460.70000000298,218463.108,220713.018,8,400,,,
trial,html.Screen,4_41_0,2023-11-01T17:15:14.228Z,,0,1,,2365.981999999989,response,ISIC_1046678.JPG,5,ISIC_0010724.JPG,ISIC_0010724.JPG,false,0,keypress(z),500,223079.29999999702,223079,220696.352,220708.29999999702,220713.018,223080.151,8,400,42,,ISIC_1046678.JPG
break,html.Screen,4_41_1,2023-11-01T17:15:14.229Z,,0,,,NaN,,,,,,false,,,,223080,223079.90000000596,,223079.59999999404,,223080.151,8,400,,,
break_continue,html.Screen,4_41_2,2023-11-01T17:15:14.229Z,,0,,,NaN,,,,,,false,,,,223080.20000000298,223080.09999999404,,223080.09999999404,,223080.151,8,400,,,
sequence,flow.Sequence,4_41,2023-11-01T17:15:14.229Z,,0,,,2367.0819999940286,completion,,,,,false,,,,223080.29999999702,223080.09999999404,220696.352,220708.29999999702,220713.018,223080.151,8,400,,,
trial,html.Screen,4_42_0,2023-11-01T17:15:21.514Z,,0,1,,7285.148999997007,response,ISIC_0015208.JPG,5,ISIC_0016139.JPG,ISIC_0015208.JPG,false,1,keypress(m),500,230365.70000000298,230365.29999999702,223063.485,223080.40000000596,223080.151,230379.859,8,400,43,,ISIC_0016139.JPG
break,html.Screen,4_42_1,2023-11-01T17:15:21.515Z,,0,,,NaN,,,,,,false,,,,230366.40000000596,230366.29999999702,,230365.90000000596,,230379.859,8,400,,,
break_continue,html.Screen,4_42_2,2023-11-01T17:15:21.515Z,,0,,,NaN,,,,,,false,,,,230366.59999999404,230366.5,,230366.5,,230379.859,8,400,,,
sequence,flow.Sequence,4_42,2023-11-01T17:15:21.515Z,,0,,,7286.348999999987,completion,,,,,false,,,,230366.70000000298,230366.5,223063.485,223080.29999999702,223080.151,230379.859,8,400,,,
trial,html.Screen,4_43_0,2023-11-01T17:15:23.855Z,,0,1,,2326.5410000059637,response,ISIC_0032722.JPG,7,ISIC_2332127.JPG,ISIC_2332127.JPG,false,0,keypress(z),500,232706.70000000298,232706.40000000596,230363.193,230366.79999999702,230379.859,232713.632,8,400,44,,ISIC_0032722.JPG
break,html.Screen,4_43_1,2023-11-01T17:15:23.856Z,,0,,,NaN,,,,,,false,,,,232707.40000000596,232707.20000000298,,232706.90000000596,,232713.632,8,400,,,
break_continue,html.Screen,4_43_2,2023-11-01T17:15:23.856Z,,0,,,NaN,,,,,,false,,,,232707.5,232707.5,,232707.40000000596,,232713.632,8,400,,,
sequence,flow.Sequence,4_43,2023-11-01T17:15:23.856Z,,0,,,2327.6410000000033,completion,,,,,false,,,,232707.59999999404,232707.5,230363.193,230366.70000000298,230379.859,232713.632,8,400,,,
trial,html.Screen,4_44_0,2023-11-01T17:15:26.260Z,,0,1,,2398.068000002968,response,ISIC_0011099.JPG,8,ISIC_9529297.JPG,ISIC_0011099.JPG,false,1,keypress(m),500,235112,235111.70000000298,232696.966,232707.70000000298,232713.632,235113.536,8,400,45,,ISIC_9529297.JPG
break,html.Screen,4_44_1,2023-11-01T17:15:26.261Z,,0,,,NaN,,,,,,false,,,,235112.59999999404,235112.5,,235112.09999999404,,235113.536,8,400,,,
break_continue,html.Screen,4_44_2,2023-11-01T17:15:26.261Z,,0,,,NaN,,,,,,false,,,,235112.90000000596,235112.70000000298,,235112.70000000298,,235113.536,8,400,,,
sequence,flow.Sequence,4_44,2023-11-01T17:15:26.261Z,,0,,,2399.068000002968,completion,,,,,false,,,,235112.90000000596,235112.70000000298,232696.966,232707.70000000298,232713.632,235113.536,8,400,,,
trial,html.Screen,4_45_0,2023-11-01T17:15:29.786Z,,0,1,,3523.5639999940468,response,ISIC_0651353.JPG,6,ISIC_0026500.JPG,ISIC_0026500.JPG,false,0,keypress(z),500,238637.59999999404,238637.09999999404,235096.87,235113,235113.536,238646.728,8,400,46,,ISIC_0651353.JPG
break,html.Screen,4_45_1,2023-11-01T17:15:29.787Z,,0,,,NaN,,,,,,false,,,,238638.5,238638.29999999702,,238637.79999999702,,238646.728,8,400,,,
break_continue,html.Screen,4_45_2,2023-11-01T17:15:29.787Z,,0,,,NaN,,,,,,false,,,,238638.90000000596,238638.70000000298,,238638.59999999404,,238646.728,8,400,,,
sequence,flow.Sequence,4_45,2023-11-01T17:15:29.787Z,,0,,,3525.1640000029874,completion,,,,,false,,,,238639,238638.70000000298,235096.87,235113,235113.536,238646.728,8,400,,,
trial,html.Screen,4_46_0,2023-11-01T17:15:32.864Z,,0,1,,3068.571999997017,response,ISIC_0003925.JPG,8,ISIC_7077047.JPG,ISIC_7077047.JPG,false,0,keypress(z),500,241715.79999999702,241715.29999999702,238630.062,238639.09999999404,238646.728,241729.938,8,400,47,,ISIC_0003925.JPG
break,html.Screen,4_46_1,2023-11-01T17:15:32.865Z,,0,,,NaN,,,,,,false,,,,241716.59999999404,241716.40000000596,,241716,,241729.938,8,400,,,
break_continue,html.Screen,4_46_2,2023-11-01T17:15:32.865Z,,0,,,NaN,,,,,,false,,,,241716.90000000596,241716.90000000596,,241716.79999999702,,241729.938,8,400,,,
sequence,flow.Sequence,4_46,2023-11-01T17:15:32.865Z,,0,,,3070.1720000059577,completion,,,,,false,,,,241717,241716.90000000596,238630.062,238639.09999999404,238646.728,241729.938,8,400,,,
trial,html.Screen,4_47_0,2023-11-01T17:15:36.198Z,,0,1,,3319.7620000029856,response,ISIC_0004961.JPG,8,ISIC_6066292.JPG,ISIC_0004961.JPG,false,1,keypress(m),500,245050.09999999404,245049.70000000298,241713.272,241717.20000000298,241729.938,245063.664,8,400,48,,ISIC_6066292.JPG
break,html.Screen,4_47_1,2023-11-01T17:15:36.199Z,,0,,,NaN,,,,,,false,,,,245051.20000000298,245051,,245050.40000000596,,245063.664,8,400,,,
break_continue,html.Screen,4_47_2,2023-11-01T17:15:36.200Z,,0,,,NaN,,,,,,false,,,,245051.5,245051.29999999702,,245051.20000000298,,245063.664,8,400,,,
sequence,flow.Sequence,4_47,2023-11-01T17:15:36.200Z,,0,,,3321.361999997025,completion,,,,,false,,,,245051.70000000298,245051.29999999702,241713.272,241717.20000000298,241729.938,245063.664,8,400,,,
trial,html.Screen,4_48_0,2023-11-01T17:15:38.653Z,,0,1,,2441.0360000029905,response,ISIC_0069056.JPG,7,ISIC_2337650.JPG,ISIC_2337650.JPG,false,0,keypress(z),500,247505.20000000298,247504.70000000298,245046.998,245051.79999999702,245063.664,247513.566,8,400,49,,ISIC_0069056.JPG
break,html.Screen,4_48_1,2023-11-01T17:15:38.654Z,,0,,,NaN,,,,,,false,,,,247506.09999999404,247505.90000000596,,247505.5,,247513.566,8,400,,,
break_continue,html.Screen,4_48_2,2023-11-01T17:15:38.655Z,,0,,,NaN,,,,,,false,,,,247506.5,247506.29999999702,,247506.20000000298,,247513.566,8,400,,,
sequence,flow.Sequence,4_48,2023-11-01T17:15:38.655Z,,0,,,2442.63599999703,completion,,,,,false,,,,247506.70000000298,247506.29999999702,245046.998,245051.70000000298,245063.664,247513.566,8,400,,,
trial,html.Screen,4_49_0,2023-11-01T17:15:42.521Z,,0,1,,3859.033999994048,response,ISIC_0011234.JPG,8,ISIC_2153686.JPG,ISIC_0011234.JPG,false,1,keypress(m),500,251373.09999999404,251372.59999999404,247496.9,247506.70000000298,247513.566,251380.078,8,400,50,,ISIC_2153686.JPG
break,html.Screen,4_49_1,2023-11-01T17:15:52.516Z,,0,,,10000.165999999997,timeout,,,,,false,,,,261367.70000000298,261363.578,251363.412,251373.29999999702,251380.078,261380.244,8,400,,,
break_continue,html.Screen,4_49_2,2023-11-01T17:16:32.736Z,,0,,,40176.656000005954,response,,,,,false,continue,keypress(Space),,301589.200000003,301556.90000000596,261363.578,261367.79999999702,261380.244,301595.302,8,400,,,
sequence,flow.Sequence,4_49,2023-11-01T17:16:32.736Z,,0,,,54043.33400000597,completion,,,,,false,,,,301589.299999997,301556.90000000596,247496.9,247506.70000000298,247513.566,301595.302,8,400,,,
trial,html.Screen,4_50_0,2023-11-01T17:16:36.199Z,,0,2,,3455.697999999975,response,ISIC_0006181.JPG,7,ISIC_4411889.JPG,ISIC_0006181.JPG,false,1,keypress(m),500,305051.5,305051,301578.636,301589.40000000596,301595.302,305064.365,8,400,1,,ISIC_4411889.JPG
break,html.Screen,4_50_1,2023-11-01T17:16:36.199Z,,0,,,NaN,,,,,,false,,,,305052.5,305052.299999997,,305051.799999997,,305064.365,8,400,,,
break_continue,html.Screen,4_50_2,2023-11-01T17:16:36.200Z,,0,,,NaN,,,,,,false,,,,305052.799999997,305052.700000003,,305052.59999999404,,305064.365,8,400,,,
sequence,flow.Sequence,4_50,2023-11-01T17:16:36.200Z,,0,,,3457.398000002955,completion,,,,,false,,,,305052.90000000596,305052.700000003,301578.636,301589.40000000596,301595.302,305064.365,8,400,,,
trial,html.Screen,4_51_0,2023-11-01T17:16:38.747Z,,0,2,,2535.3350000029895,response,ISIC_5287679.JPG,8,ISIC_0025499.JPG,ISIC_0025499.JPG,false,0,keypress(z),500,307600,307599.700000003,305047.699,305053.09999999404,305064.365,307614.263,8,400,2,,ISIC_5287679.JPG
break,html.Screen,4_51_1,2023-11-01T17:16:38.748Z,,0,,,NaN,,,,,,false,,,,307600.700000003,307600.5,,307600.200000003,,307614.263,8,400,,,
break_continue,html.Screen,4_51_2,2023-11-01T17:16:38.748Z,,0,,,NaN,,,,,,false,,,,307600.90000000596,307600.700000003,,307600.700000003,,307614.263,8,400,,,
sequence,flow.Sequence,4_51,2023-11-01T17:16:38.748Z,,0,,,2536.3350000029895,completion,,,,,false,,,,307600.90000000596,307600.700000003,305047.699,305053.09999999404,305064.365,307614.263,8,400,,,
trial,html.Screen,4_52_0,2023-11-01T17:16:41.280Z,,0,2,,2518.1370000059833,response,ISIC_0013565.JPG,8,ISIC_8539990.JPG,ISIC_8539990.JPG,false,0,keypress(z),500,310133,310132.40000000596,307597.597,307601,307614.263,310147.495,8,400,3,,ISIC_0013565.JPG
break,html.Screen,4_52_1,2023-11-01T17:16:41.281Z,,0,,,NaN,,,,,,false,,,,310133.90000000596,310133.700000003,,310133.200000003,,310147.495,8,400,,,
break_continue,html.Screen,4_52_2,2023-11-01T17:16:41.281Z,,0,,,NaN,,,,,,false,,,,310134.200000003,310134.09999999404,,310134,,310147.495,8,400,,,
sequence,flow.Sequence,4_52,2023-11-01T17:16:41.281Z,,0,,,2519.8369999940624,completion,,,,,false,,,,310134.5,310134.09999999404,307597.597,307600.90000000596,307614.263,310147.495,8,400,,,
trial,html.Screen,4_53_0,2023-11-01T17:16:44.165Z,,0,2,,2869.905000005965,response,ISIC_0072568.JPG,9,ISIC_0026694.JPG,ISIC_0072568.JPG,false,1,keypress(m),500,313017.799999997,313017.40000000596,310130.829,310134.59999999404,310147.495,313031.261,8,400,4,,ISIC_0026694.JPG
break,html.Screen,4_53_1,2023-11-01T17:16:44.165Z,,0,,,NaN,,,,,,false,,,,313018.40000000596,313018.299999997,,313018,,313031.261,8,400,,,
break_continue,html.Screen,4_53_2,2023-11-01T17:16:44.165Z,,0,,,NaN,,,,,,false,,,,313018.59999999404,313018.5,,313018.40000000596,,313031.261,8,400,,,
sequence,flow.Sequence,4_53,2023-11-01T17:16:44.166Z,,0,,,2871.0050000000047,completion,,,,,false,,,,313018.59999999404,313018.5,310130.829,310134.5,310147.495,313031.261,8,400,,,
trial,html.Screen,4_54_0,2023-11-01T17:16:46.778Z,,0,2,,2599.9390000029816,response,ISIC_9588065.JPG,8,ISIC_0056692.JPG,ISIC_0056692.JPG,false,0,keypress(z),500,315631.700000003,315631.200000003,313014.595,313018.700000003,313031.261,315647.823,8,400,5,,ISIC_9588065.JPG
break,html.Screen,4_54_1,2023-11-01T17:16:46.779Z,,0,,,NaN,,,,,,false,,,,315632.59999999404,315632.40000000596,,315631.90000000596,,315647.823,8,400,,,
break_continue,html.Screen,4_54_2,2023-11-01T17:16:46.780Z,,0,,,NaN,,,,,,false,,,,315633,315632.799999997,,315632.799999997,,315647.823,8,400,,,
sequence,flow.Sequence,4_54,2023-11-01T17:16:46.780Z,,0,,,2601.538999997021,completion,,,,,false,,,,315633.200000003,315632.799999997,313014.595,313018.700000003,313031.261,315647.823,8,400,,,
trial,html.Screen,4_55_0,2023-11-01T17:16:49.615Z,,0,2,,2820.177000000025,response,ISIC_2935987.JPG,8,ISIC_0011733.JPG,ISIC_2935987.JPG,false,1,keypress(m),500,318468.5,318468,315631.157,315633.299999997,315647.823,318481.043,8,400,6,,ISIC_0011733.JPG
break,html.Screen,4_55_1,2023-11-01T17:16:49.616Z,,0,,,NaN,,,,,,false,,,,318469.200000003,318469,,318468.700000003,,318481.043,8,400,,,
break_continue,html.Screen,4_55_2,2023-11-01T17:16:49.616Z,,0,,,NaN,,,,,,false,,,,318469.40000000596,318469.299999997,,318469.200000003,,318481.043,8,400,,,
sequence,flow.Sequence,4_55,2023-11-01T17:16:49.616Z,,0,,,2821.476999997045,completion,,,,,false,,,,318469.5,318469.299999997,315631.157,315633.200000003,315647.823,318481.043,8,400,,,
trial,html.Screen,4_56_0,2023-11-01T17:16:52.085Z,,0,2,,2456.7569999970146,response,ISIC_0192490.JPG,6,ISIC_0066379.JPG,ISIC_0066379.JPG,false,0,keypress(z),500,320938.299999997,320937.799999997,318464.377,318469.59999999404,318481.043,320947.611,8,400,7,,ISIC_0192490.JPG
break,html.Screen,4_56_1,2023-11-01T17:16:52.086Z,,0,,,NaN,,,,,,false,,,,320939.200000003,320939,,320938.5,,320947.611,8,400,,,
break_continue,html.Screen,4_56_2,2023-11-01T17:16:52.086Z,,0,,,NaN,,,,,,false,,,,320939.59999999404,320939.40000000596,,320939.299999997,,320947.611,8,400,,,
sequence,flow.Sequence,4_56,2023-11-01T17:16:52.086Z,,0,,,2458.3570000059553,completion,,,,,false,,,,320939.700000003,320939.40000000596,318464.377,318469.5,318481.043,320947.611,8,400,,,
trial,html.Screen,4_57_0,2023-11-01T17:16:54.490Z,,0,2,,2395.488999994064,response,ISIC_0058858.JPG,6,ISIC_0034316.JPG,ISIC_0034316.JPG,false,0,keypress(z),500,323343.59999999404,323343.09999999404,320930.945,320939.90000000596,320947.611,323348.084,8,400,8,,ISIC_0058858.JPG
break,html.Screen,4_57_1,2023-11-01T17:16:54.491Z,,0,,,NaN,,,,,,false,,,,323344.59999999404,323344.299999997,,323343.90000000596,,323348.084,8,400,,,
break_continue,html.Screen,4_57_2,2023-11-01T17:16:54.492Z,,0,,,NaN,,,,,,false,,,,323345.09999999404,323344.90000000596,,323344.799999997,,323348.084,8,400,,,
sequence,flow.Sequence,4_57,2023-11-01T17:16:54.492Z,,0,,,2397.289000005985,completion,,,,,false,,,,323345.299999997,323344.90000000596,320930.945,320939.90000000596,320947.611,323348.084,8,400,,,
trial,html.Screen,4_58_0,2023-11-01T17:17:00.035Z,,0,2,,5539.515999994066,response,ISIC_3558747.JPG,6,ISIC_6991849.JPG,ISIC_3558747.JPG,false,1,keypress(m),500,328888.09999999404,328887.59999999404,323331.418,323345.40000000596,323348.084,328897.862,8,400,9,,ISIC_6991849.JPG
break,html.Screen,4_58_1,2023-11-01T17:17:00.036Z,,0,,,NaN,,,,,,false,,,,328889,328888.90000000596,,328888.40000000596,,328897.862,8,400,,,
break_continue,html.Screen,4_58_2,2023-11-01T17:17:00.036Z,,0,,,NaN,,,,,,false,,,,328889.40000000596,328889.299999997,,328889.200000003,,328897.862,8,400,,,
sequence,flow.Sequence,4_58,2023-11-01T17:17:00.036Z,,0,,,5541.215999997046,completion,,,,,false,,,,328889.59999999404,328889.299999997,323331.418,323345.299999997,323348.084,328897.862,8,400,,,
trial,html.Screen,4_59_0,2023-11-01T17:17:02.425Z,,0,2,,2380.437999996997,response,ISIC_0071132.JPG,8,ISIC_0012099.JPG,ISIC_0071132.JPG,false,1,keypress(m),500,331278.700000003,331278.299999997,328881.196,328889.700000003,328897.862,331281.1,8,400,10,,ISIC_0012099.JPG
break,html.Screen,4_59_1,2023-11-01T17:17:02.426Z,,0,,,NaN,,,,,,false,,,,331279.700000003,331279.5,,331278.90000000596,,331281.1,8,400,,,
break_continue,html.Screen,4_59_2,2023-11-01T17:17:02.427Z,,0,,,NaN,,,,,,false,,,,331280,331279.90000000596,,331279.799999997,,331281.1,8,400,,,
sequence,flow.Sequence,4_59,2023-11-01T17:17:02.427Z,,0,,,2382.0380000059376,completion,,,,,false,,,,331280.09999999404,331279.90000000596,328881.196,328889.700000003,328897.862,331281.1,8,400,,,
trial,html.Screen,4_60_0,2023-11-01T17:17:06.512Z,,0,2,,4083.6000000030035,response,ISIC_0031705.JPG,7,ISIC_0067296.JPG,ISIC_0067296.JPG,false,0,keypress(z),500,335365.200000003,335364.700000003,331264.434,331280.299999997,331281.1,335381.458,8,400,11,,ISIC_0031705.JPG
break,html.Screen,4_60_1,2023-11-01T17:17:06.513Z,,0,,,NaN,,,,,,false,,,,335366.200000003,335366,,335365.5,,335381.458,8,400,,,
break_continue,html.Screen,4_60_2,2023-11-01T17:17:06.513Z,,0,,,NaN,,,,,,false,,,,335366.59999999404,335366.5,,335366.299999997,,335381.458,8,400,,,
sequence,flow.Sequence,4_60,2023-11-01T17:17:06.513Z,,0,,,4085.4000000000233,completion,,,,,false,,,,335366.700000003,335366.5,331264.434,331280.200000003,331281.1,335381.458,8,400,,,
trial,html.Screen,4_61_0,2023-11-01T17:17:08.821Z,,0,2,,2292.3419999970356,response,ISIC_0000173.JPG,5,ISIC_0011922.JPG,ISIC_0011922.JPG,false,0,keypress(z),500,337674.200000003,337673.799999997,335364.792,335366.799999997,335381.458,337681.366,8,400,12,,ISIC_0000173.JPG
break,html.Screen,4_61_1,2023-11-01T17:17:08.822Z,,0,,,NaN,,,,,,false,,,,337675.200000003,337675.09999999404,,337674.59999999404,,337681.366,8,400,,,
break_continue,html.Screen,4_61_2,2023-11-01T17:17:08.822Z,,0,,,NaN,,,,,,false,,,,337675.59999999404,337675.5,,337675.299999997,,337681.366,8,400,,,
sequence,flow.Sequence,4_61,2023-11-01T17:17:08.822Z,,0,,,2294.042000000016,completion,,,,,false,,,,337675.799999997,337675.5,335364.792,335366.799999997,335381.458,337681.366,8,400,,,
trial,html.Screen,4_62_0,2023-11-01T17:17:11.498Z,,0,2,,2669.63400000002,response,ISIC_3380212.JPG,8,ISIC_8749288.JPG,ISIC_8749288.JPG,false,0,keypress(z),500,340351.5,340351,337664.7,337675.90000000596,337681.366,340364.592,8,400,13,,ISIC_3380212.JPG
break,html.Screen,4_62_1,2023-11-01T17:17:11.499Z,,0,,,NaN,,,,,,false,,,,340352.40000000596,340352.299999997,,340351.799999997,,340364.592,8,400,,,
break_continue,html.Screen,4_62_2,2023-11-01T17:17:11.499Z,,0,,,NaN,,,,,,false,,,,340352.799999997,340352.700000003,,340352.59999999404,,340364.592,8,400,,,
sequence,flow.Sequence,4_62,2023-11-01T17:17:11.499Z,,0,,,2671.3340000030003,completion,,,,,false,,,,340353,340352.700000003,337664.7,337675.90000000596,337681.366,340364.592,8,400,,,
trial,html.Screen,4_63_0,2023-11-01T17:17:14.049Z,,0,2,,2537.2079999970156,response,ISIC_8024841.JPG,7,ISIC_0066564.JPG,ISIC_8024841.JPG,false,1,keypress(m),500,342902.299999997,342901.799999997,340347.926,340353.09999999404,340364.592,342915.044,8,400,14,,ISIC_0066564.JPG
break,html.Screen,4_63_1,2023-11-01T17:17:14.050Z,,0,,,NaN,,,,,,false,,,,342903.299999997,342903.09999999404,,342902.59999999404,,342915.044,8,400,,,
break_continue,html.Screen,4_63_2,2023-11-01T17:17:14.050Z,,0,,,NaN,,,,,,false,,,,342903.700000003,342903.5,,342903.40000000596,,342915.044,8,400,,,
sequence,flow.Sequence,4_63,2023-11-01T17:17:14.050Z,,0,,,2538.907999999996,completion,,,,,false,,,,342903.799999997,342903.5,340347.926,340353,340364.592,342915.044,8,400,,,
trial,html.Screen,4_64_0,2023-11-01T17:17:16.580Z,,0,2,,2518.656000002986,response,ISIC_2445765.JPG,5,ISIC_0026655.JPG,ISIC_0026655.JPG,false,0,keypress(z),500,345434.09999999404,345433.700000003,342898.378,342904,342915.044,345448.276,8,400,15,,ISIC_2445765.JPG
break,html.Screen,4_64_1,2023-11-01T17:17:16.581Z,,0,,,NaN,,,,,,false,,,,345435.09999999404,345434.90000000596,,345434.5,,345448.276,8,400,,,
break_continue,html.Screen,4_64_2,2023-11-01T17:17:16.582Z,,0,,,NaN,,,,,,false,,,,345435.5,345435.40000000596,,345435.299999997,,345448.276,8,400,,,
sequence,flow.Sequence,4_64,2023-11-01T17:17:16.582Z,,0,,,2520.356000005966,completion,,,,,false,,,,345435.59999999404,345435.40000000596,342898.378,342903.90000000596,342915.044,345448.276,8,400,,,
trial,html.Screen,4_65_0,2023-11-01T17:17:19.417Z,,0,2,,2821.523999997007,response,ISIC_0056226.JPG,6,ISIC_0063447.JPG,ISIC_0056226.JPG,false,1,keypress(m),500,348270.299999997,348269.799999997,345431.61,345435.799999997,345448.276,348281.496,8,400,16,,ISIC_0063447.JPG
break,html.Screen,4_65_1,2023-11-01T17:17:19.417Z,,0,,,NaN,,,,,,false,,,,348271.40000000596,348271.09999999404,,348270.59999999404,,348281.496,8,400,,,
break_continue,html.Screen,4_65_2,2023-11-01T17:17:19.418Z,,0,,,NaN,,,,,,false,,,,348271.59999999404,348271.59999999404,,348271.40000000596,,348281.496,8,400,,,
sequence,flow.Sequence,4_65,2023-11-01T17:17:19.418Z,,0,,,2823.323999994027,completion,,,,,false,,,,348271.799999997,348271.59999999404,345431.61,345435.700000003,345448.276,348281.496,8,400,,,
trial,html.Screen,4_66_0,2023-11-01T17:17:21.710Z,,0,2,,2282.2040000029956,response,ISIC_0057259.JPG,8,ISIC_0071651.JPG,ISIC_0071651.JPG,false,0,keypress(z),500,350564.09999999404,350563.700000003,348264.83,348271.90000000596,348281.496,350581.404,8,400,17,,ISIC_0057259.JPG
break,html.Screen,4_66_1,2023-11-01T17:17:21.711Z,,0,,,NaN,,,,,,false,,,,350565.09999999404,350564.90000000596,,350564.40000000596,,350581.404,8,400,,,
break_continue,html.Screen,4_66_2,2023-11-01T17:17:21.712Z,,0,,,NaN,,,,,,false,,,,350565.5,350565.40000000596,,350565.299999997,,350581.404,8,400,,,
sequence,flow.Sequence,4_66,2023-11-01T17:17:21.712Z,,0,,,2283.904000005976,completion,,,,,false,,,,350565.59999999404,350565.40000000596,348264.83,348271.90000000596,348281.496,350581.404,8,400,,,
trial,html.Screen,4_67_0,2023-11-01T17:17:27.476Z,,0,2,,5748.296000003,response,ISIC_0033320.JPG,7,ISIC_0063070.JPG,ISIC_0033320.JPG,false,1,keypress(m),500,356330,356329.700000003,350564.738,350565.799999997,350581.404,356331.684,8,400,18,,ISIC_0063070.JPG
break,html.Screen,4_67_1,2023-11-01T17:17:27.477Z,,0,,,NaN,,,,,,false,,,,356330.700000003,356330.59999999404,,356330.09999999404,,356331.684,8,400,,,
break_continue,html.Screen,4_67_2,2023-11-01T17:17:27.477Z,,0,,,NaN,,,,,,false,,,,356330.90000000596,356330.799999997,,356330.799999997,,356331.684,8,400,,,
sequence,flow.Sequence,4_67,2023-11-01T17:17:27.477Z,,0,,,5749.395999997039,completion,,,,,false,,,,356331,356330.799999997,350564.738,350565.700000003,350581.404,356331.684,8,400,,,
trial,html.Screen,4_68_0,2023-11-01T17:17:29.819Z,,0,2,,2341.016000002972,response,ISIC_0056796.JPG,7,ISIC_5261146.JPG,ISIC_5261146.JPG,false,0,keypress(z),500,358673.09999999404,358672.700000003,356315.018,356331.09999999404,356331.684,358681.59,8,400,19,,ISIC_0056796.JPG
break,html.Screen,4_68_1,2023-11-01T17:17:29.820Z,,0,,,NaN,,,,,,false,,,,358674.09999999404,358673.90000000596,,358673.5,,358681.59,8,400,,,
break_continue,html.Screen,4_68_2,2023-11-01T17:17:29.820Z,,0,,,NaN,,,,,,false,,,,358674.5,358674.299999997,,358674.200000003,,358681.59,8,400,,,
sequence,flow.Sequence,4_68,2023-11-01T17:17:29.821Z,,0,,,2342.6159999970114,completion,,,,,false,,,,358674.59999999404,358674.299999997,356315.018,356331,356331.684,358681.59,8,400,,,
trial,html.Screen,4_69_0,2023-11-01T17:17:33.815Z,,0,2,,3986.6100000029546,response,ISIC_1988058.JPG,8,ISIC_8689112.JPG,ISIC_1988058.JPG,false,1,keypress(m),500,362668.700000003,362668.200000003,358664.924,358674.700000003,358681.59,362681.43,8,400,20,,ISIC_8689112.JPG
break,html.Screen,4_69_1,2023-11-01T17:17:33.816Z,,0,,,NaN,,,,,,false,,,,362669.700000003,362669.5,,362669,,362681.43,8,400,,,
break_continue,html.Screen,4_69_2,2023-11-01T17:17:33.816Z,,0,,,NaN,,,,,,false,,,,362670,362669.90000000596,,362669.799999997,,362681.43,8,400,,,
sequence,flow.Sequence,4_69,2023-11-01T17:17:33.816Z,,0,,,3988.310000005935,completion,,,,,false,,,,362670.200000003,362669.90000000596,358664.924,358674.59999999404,358681.59,362681.43,8,400,,,
trial,html.Screen,4_70_0,2023-11-01T17:17:37.819Z,,0,2,,3990.9700000059674,response,ISIC_2797576.JPG,8,ISIC_0010140.JPG,ISIC_0010140.JPG,false,0,keypress(z),500,366672.90000000596,366672.40000000596,362664.764,362670.299999997,362681.43,366681.882,8,400,21,,ISIC_2797576.JPG
break,html.Screen,4_70_1,2023-11-01T17:17:37.820Z,,0,,,NaN,,,,,,false,,,,366673.90000000596,366673.700000003,,366673.200000003,,366681.882,8,400,,,
break_continue,html.Screen,4_70_2,2023-11-01T17:17:37.820Z,,0,,,NaN,,,,,,false,,,,366674.299999997,366674.200000003,,366674,,366681.882,8,400,,,
sequence,flow.Sequence,4_70,2023-11-01T17:17:37.820Z,,0,,,3992.770000002987,completion,,,,,false,,,,366674.40000000596,366674.200000003,362664.764,362670.299999997,362681.43,366681.882,8,400,,,
trial,html.Screen,4_71_0,2023-11-01T17:17:40.210Z,,0,2,,2382.0180000059772,response,ISIC_1758558.JPG,8,ISIC_6483504.JPG,ISIC_1758558.JPG,false,1,keypress(m),500,369064.40000000596,369063.90000000596,366665.216,366674.59999999404,366681.882,369081.786,8,400,22,,ISIC_6483504.JPG
break,html.Screen,4_71_1,2023-11-01T17:17:40.211Z,,0,,,NaN,,,,,,false,,,,369065.40000000596,369065.200000003,,369064.59999999404,,369081.786,8,400,,,
break_continue,html.Screen,4_71_2,2023-11-01T17:17:40.211Z,,0,,,NaN,,,,,,false,,,,369065.700000003,369065.700000003,,369065.5,,369081.786,8,400,,,
sequence,flow.Sequence,4_71,2023-11-01T17:17:40.212Z,,0,,,2383.818000002997,completion,,,,,false,,,,369065.90000000596,369065.700000003,366665.216,366674.5,366681.882,369081.786,8,400,,,
trial,html.Screen,4_72_0,2023-11-01T17:17:42.536Z,,0,2,,2308.213999999978,response,ISIC_0057083.JPG,8,ISIC_0064877.JPG,ISIC_0064877.JPG,false,0,keypress(z),500,371390.40000000596,371390,369065.12,369066.09999999404,369081.786,371398.36,8,400,23,,ISIC_0057083.JPG
break,html.Screen,4_72_1,2023-11-01T17:17:42.537Z,,0,,,NaN,,,,,,false,,,,371391.40000000596,371391.299999997,,371390.799999997,,371398.36,8,400,,,
break_continue,html.Screen,4_72_2,2023-11-01T17:17:42.538Z,,0,,,NaN,,,,,,false,,,,371391.700000003,371391.700000003,,371391.5,,371398.36,8,400,,,
sequence,flow.Sequence,4_72,2023-11-01T17:17:42.538Z,,0,,,2309.9140000029583,completion,,,,,false,,,,371391.90000000596,371391.700000003,369065.12,369066.09999999404,369081.786,371398.36,8,400,,,
trial,html.Screen,4_73_0,2023-11-01T17:17:45.278Z,,0,2,,2733.640000000014,response,ISIC_0744870.JPG,6,ISIC_4471367.JPG,ISIC_0744870.JPG,false,1,keypress(m),500,374132.40000000596,374132,371381.694,371392.09999999404,371398.36,374148.25,8,400,24,,ISIC_4471367.JPG
break,html.Screen,4_73_1,2023-11-01T17:17:45.279Z,,0,,,NaN,,,,,,false,,,,374133.40000000596,374133.200000003,,374132.700000003,,374148.25,8,400,,,
break_continue,html.Screen,4_73_2,2023-11-01T17:17:45.279Z,,0,,,NaN,,,,,,false,,,,374133.700000003,374133.700000003,,374133.5,,374148.25,8,400,,,
sequence,flow.Sequence,4_73,2023-11-01T17:17:45.280Z,,0,,,2735.340000002994,completion,,,,,false,,,,374133.90000000596,374133.700000003,371381.694,371392,371398.36,374148.25,8,400,,,
trial,html.Screen,4_74_0,2023-11-01T17:17:48.024Z,,0,2,,2729.9500000029802,response,ISIC_7413149.JPG,8,ISIC_5934239.JPG,ISIC_5934239.JPG,false,0,keypress(z),500,376878.700000003,376878.200000003,374131.584,374134,374148.25,376882.024,8,400,25,,ISIC_7413149.JPG
break,html.Screen,4_74_1,2023-11-01T17:17:48.025Z,,0,,,NaN,,,,,,false,,,,376879.59999999404,376879.5,,376879,,376882.024,8,400,,,
break_continue,html.Screen,4_74_2,2023-11-01T17:17:48.026Z,,0,,,NaN,,,,,,false,,,,376880,376879.799999997,,376879.799999997,,376882.024,8,400,,,
sequence,flow.Sequence,4_74,2023-11-01T17:17:48.026Z,,0,,,2731.5499999970198,completion,,,,,false,,,,376880.200000003,376879.799999997,374131.584,374134,374148.25,376882.024,8,400,,,
trial,html.Screen,4_75_0,2023-11-01T17:17:50.447Z,,0,2,,2419.0759999940637,response,ISIC_8689112.JPG,7,ISIC_0025186.JPG,ISIC_8689112.JPG,false,1,keypress(m),500,379301.59999999404,379301.09999999404,376865.358,376880.299999997,376882.024,379315.26,8,400,26,,ISIC_0025186.JPG
break,html.Screen,4_75_1,2023-11-01T17:17:50.448Z,,0,,,NaN,,,,,,false,,,,379302.59999999404,379302.299999997,,379301.90000000596,,379315.26,8,400,,,
break_continue,html.Screen,4_75_2,2023-11-01T17:17:50.448Z,,0,,,NaN,,,,,,false,,,,379302.90000000596,379302.799999997,,379302.700000003,,379315.26,8,400,,,
sequence,flow.Sequence,4_75,2023-11-01T17:17:50.449Z,,0,,,2420.775999997044,completion,,,,,false,,,,379303.09999999404,379302.799999997,376865.358,376880.200000003,376882.024,379315.26,8,400,,,
trial,html.Screen,4_76_0,2023-11-01T17:17:52.787Z,,0,2,,2326.140000005951,response,ISIC_0028691.JPG,7,ISIC_4894929.JPG,ISIC_4894929.JPG,false,0,keypress(z),500,381642,381641.40000000596,379298.594,379303.200000003,379315.26,381648.5,8,400,27,,ISIC_0028691.JPG
break,html.Screen,4_76_1,2023-11-01T17:17:52.789Z,,0,,,NaN,,,,,,false,,,,381643,381642.90000000596,,381642.299999997,,381648.5,8,400,,,
break_continue,html.Screen,4_76_2,2023-11-01T17:17:52.789Z,,0,,,NaN,,,,,,false,,,,381643.40000000596,381643.299999997,,381643.09999999404,,381648.5,8,400,,,
sequence,flow.Sequence,4_76,2023-11-01T17:17:52.789Z,,0,,,2328.0399999970105,completion,,,,,false,,,,381643.5,381643.299999997,379298.594,379303.200000003,379315.26,381648.5,8,400,,,
trial,html.Screen,4_77_0,2023-11-01T17:17:56.778Z,,0,2,,3983.0999999940395,response,ISIC_0071367.JPG,5,ISIC_0000277.JPG,ISIC_0071367.JPG,false,1,keypress(m),500,385632.200000003,385631.59999999404,381631.834,381643.59999999404,381648.5,385648.919,8,400,28,,ISIC_0000277.JPG
break,html.Screen,4_77_1,2023-11-01T17:17:56.779Z,,0,,,NaN,,,,,,false,,,,385633.299999997,385632.90000000596,,385632.5,,385648.919,8,400,,,
break_continue,html.Screen,4_77_2,2023-11-01T17:17:56.779Z,,0,,,NaN,,,,,,false,,,,385633.59999999404,385633.5,,385633.40000000596,,385648.919,8,400,,,
sequence,flow.Sequence,4_77,2023-11-01T17:17:56.779Z,,0,,,3985,completion,,,,,false,,,,385633.799999997,385633.5,381631.834,381643.59999999404,381648.5,385648.919,8,400,,,
trial,html.Screen,4_78_0,2023-11-01T17:17:59.170Z,,0,2,,2375.8809999970254,response,ISIC_0033689.JPG,8,ISIC_0011607.JPG,ISIC_0011607.JPG,false,0,keypress(z),500,388025.09999999404,388024.799999997,385632.253,385633.90000000596,385648.919,388048.823,8,400,29,,ISIC_0033689.JPG
break,html.Screen,4_78_1,2023-11-01T17:17:59.171Z,,0,,,NaN,,,,,,false,,,,388025.59999999404,388025.40000000596,,388025.200000003,,388048.823,8,400,,,
break_continue,html.Screen,4_78_2,2023-11-01T17:17:59.171Z,,0,,,NaN,,,,,,false,,,,388025.700000003,388025.700000003,,388025.700000003,,388048.823,8,400,,,
sequence,flow.Sequence,4_78,2023-11-01T17:17:59.171Z,,0,,,2376.781000002986,completion,,,,,false,,,,388025.799999997,388025.700000003,385632.253,385633.90000000596,385648.919,388048.823,8,400,,,
trial,html.Screen,4_79_0,2023-11-01T17:18:01.368Z,,0,2,,2173.0770000059856,response,ISIC_0024496.JPG,6,ISIC_5650816.JPG,ISIC_5650816.JPG,false,0,keypress(z),500,390222.299999997,390221.90000000596,388015.491,388025.90000000596,388048.823,390248.735,8,400,30,,ISIC_0024496.JPG
break,html.Screen,4_79_1,2023-11-01T17:18:01.369Z,,0,,,NaN,,,,,,false,,,,390223.09999999404,390223,,390222.5,,390248.735,8,400,,,
break_continue,html.Screen,4_79_2,2023-11-01T17:18:01.369Z,,0,,,NaN,,,,,,false,,,,390223.40000000596,390223.299999997,,390223.299999997,,390248.735,8,400,,,
sequence,flow.Sequence,4_79,2023-11-01T17:18:01.369Z,,0,,,2174.476999997045,completion,,,,,false,,,,390223.59999999404,390223.299999997,388015.491,388025.90000000596,388048.823,390248.735,8,400,,,
trial,html.Screen,4_80_0,2023-11-01T17:18:04.012Z,,0,2,,2617.1650000059744,response,ISIC_0061803.JPG,8,ISIC_4463086.JPG,ISIC_4463086.JPG,false,0,keypress(z),500,392866.40000000596,392865.90000000596,390215.403,390223.700000003,390248.735,392898.629,8,400,31,,ISIC_0061803.JPG
break,html.Screen,4_80_1,2023-11-01T17:18:04.013Z,,0,,,NaN,,,,,,false,,,,392867.299999997,392867.09999999404,,392866.59999999404,,392898.629,8,400,,,
break_continue,html.Screen,4_80_2,2023-11-01T17:18:04.013Z,,0,,,NaN,,,,,,false,,,,392867.700000003,392867.59999999404,,392867.5,,392898.629,8,400,,,
sequence,flow.Sequence,4_80,2023-11-01T17:18:04.013Z,,0,,,2618.8649999940535,completion,,,,,false,,,,392867.90000000596,392867.59999999404,390215.403,390223.700000003,390248.735,392898.629,8,400,,,
trial,html.Screen,4_81_0,2023-11-01T17:18:07.490Z,,0,2,,3445.970999994024,response,ISIC_7131973.JPG,8,ISIC_0062440.JPG,ISIC_7131973.JPG,false,1,keypress(m),500,396345.09999999404,396344.59999999404,392865.297,392868,392898.629,396365.669,8,400,32,,ISIC_0062440.JPG
break,html.Screen,4_81_1,2023-11-01T17:18:07.491Z,,0,,,NaN,,,,,,false,,,,396346,396345.799999997,,396345.40000000596,,396365.669,8,400,,,
break_continue,html.Screen,4_81_2,2023-11-01T17:18:07.492Z,,0,,,NaN,,,,,,false,,,,396346.299999997,396346.299999997,,396346.200000003,,396365.669,8,400,,,
sequence,flow.Sequence,4_81,2023-11-01T17:18:07.492Z,,0,,,3447.6709999970044,completion,,,,,false,,,,396346.5,396346.299999997,392865.297,392868,392898.629,396365.669,8,400,,,
trial,html.Screen,4_82_0,2023-11-01T17:18:16.840Z,,0,2,,9329.231000005966,response,ISIC_0011215.JPG,8,ISIC_0000129.JPG,ISIC_0000129.JPG,false,0,keypress(z),500,405695.299999997,405694.90000000596,396332.337,396346.59999999404,396365.669,405715.295,8,400,33,,ISIC_0011215.JPG
break,html.Screen,4_82_1,2023-11-01T17:18:16.841Z,,0,,,NaN,,,,,,false,,,,405696.40000000596,405696.200000003,,405695.59999999404,,405715.295,8,400,,,
break_continue,html.Screen,4_82_2,2023-11-01T17:18:16.842Z,,0,,,NaN,,,,,,false,,,,405696.59999999404,405696.5,,405696.40000000596,,405715.295,8,400,,,
sequence,flow.Sequence,4_82,2023-11-01T17:18:16.842Z,,0,,,9330.831000000006,completion,,,,,false,,,,405696.799999997,405696.5,396332.337,396346.59999999404,396365.669,405715.295,8,400,,,
trial,html.Screen,4_83_0,2023-11-01T17:18:19.135Z,,0,2,,2274.4050000029965,response,ISIC_0012208.JPG,7,ISIC_0058676.JPG,ISIC_0058676.JPG,false,0,keypress(z),500,407990.200000003,407989.700000003,405681.963,405696.90000000596,405715.295,408015.763,8,400,34,,ISIC_0012208.JPG
break,html.Screen,4_83_1,2023-11-01T17:18:19.136Z,,0,,,NaN,,,,,,false,,,,407991.200000003,407991,,407990.5,,408015.763,8,400,,,
break_continue,html.Screen,4_83_2,2023-11-01T17:18:19.136Z,,0,,,NaN,,,,,,false,,,,407991.40000000596,407991.299999997,,407991.200000003,,408015.763,8,400,,,
sequence,flow.Sequence,4_83,2023-11-01T17:18:19.137Z,,0,,,2276.004999997036,completion,,,,,false,,,,407991.5,407991.299999997,405681.963,405696.799999997,405715.295,408015.763,8,400,,,
trial,html.Screen,4_84_0,2023-11-01T17:18:25.286Z,,0,2,,6124.536999997043,response,ISIC_0072441.JPG,5,ISIC_0055147.JPG,ISIC_0072441.JPG,false,1,keypress(m),500,414140.799999997,414140.299999997,407982.431,407991.700000003,408015.763,414165.517,8,400,35,,ISIC_0055147.JPG
break,html.Screen,4_84_1,2023-11-01T17:18:25.287Z,,0,,,NaN,,,,,,false,,,,414141.59999999404,414141.5,,414141,,414165.517,8,400,,,
break_continue,html.Screen,4_84_2,2023-11-01T17:18:25.287Z,,0,,,NaN,,,,,,false,,,,414142,414141.90000000596,,414141.799999997,,414165.517,8,400,,,
sequence,flow.Sequence,4_84,2023-11-01T17:18:25.287Z,,0,,,6126.137000005983,completion,,,,,false,,,,414142.200000003,414141.90000000596,407982.431,407991.700000003,408015.763,414165.517,8,400,,,
trial,html.Screen,4_85_0,2023-11-01T17:18:27.516Z,,0,2,,2204.9830000000075,response,ISIC_0244240.JPG,6,ISIC_0010655.JPG,ISIC_0010655.JPG,false,0,keypress(z),500,416371,416370.5,414132.185,414142.299999997,414165.517,416399.297,8,400,36,,ISIC_0244240.JPG
break,html.Screen,4_85_1,2023-11-01T17:18:27.517Z,,0,,,NaN,,,,,,false,,,,416371.90000000596,416371.700000003,,416371.200000003,,416399.297,8,400,,,
break_continue,html.Screen,4_85_2,2023-11-01T17:18:27.517Z,,0,,,NaN,,,,,,false,,,,416372.200000003,416372.09999999404,,416372,,416399.297,8,400,,,
sequence,flow.Sequence,4_85,2023-11-01T17:18:27.517Z,,0,,,2206.582999994047,completion,,,,,false,,,,416372.40000000596,416372.09999999404,414132.185,414142.200000003,414165.517,416399.297,8,400,,,
trial,html.Screen,4_86_0,2023-11-01T17:18:30.035Z,,0,2,,2490.302999994019,response,ISIC_8139762.JPG,6,ISIC_6228471.JPG,ISIC_8139762.JPG,false,1,keypress(m),500,418890,418889.59999999404,416365.965,416372.59999999404,416399.297,418915.863,8,400,37,,ISIC_6228471.JPG
break,html.Screen,4_86_1,2023-11-01T17:18:30.036Z,,0,,,NaN,,,,,,false,,,,418891,418890.90000000596,,418890.299999997,,418915.863,8,400,,,
break_continue,html.Screen,4_86_2,2023-11-01T17:18:30.036Z,,0,,,NaN,,,,,,false,,,,418891.40000000596,418891.200000003,,418891.09999999404,,418915.863,8,400,,,
sequence,flow.Sequence,4_86,2023-11-01T17:18:30.036Z,,0,,,2491.9030000029597,completion,,,,,false,,,,418891.59999999404,418891.200000003,416365.965,416372.5,416399.297,418915.863,8,400,,,
trial,html.Screen,4_87_0,2023-11-01T17:18:32.541Z,,0,2,,2479.337000002968,response,ISIC_0057244.JPG,6,ISIC_4257634.JPG,ISIC_4257634.JPG,false,0,keypress(z),500,421395.799999997,421395.200000003,418882.531,418891.700000003,418915.863,421415.763,8,400,38,,ISIC_0057244.JPG
break,html.Screen,4_87_1,2023-11-01T17:18:32.541Z,,0,,,NaN,,,,,,false,,,,421396.700000003,421396.5,,421396.09999999404,,421415.763,8,400,,,
break_continue,html.Screen,4_87_2,2023-11-01T17:18:32.542Z,,0,,,NaN,,,,,,false,,,,421397.09999999404,421396.90000000596,,421396.799999997,,421415.763,8,400,,,
sequence,flow.Sequence,4_87,2023-11-01T17:18:32.542Z,,0,,,2481.0370000059484,completion,,,,,false,,,,421397.09999999404,421396.90000000596,418882.531,418891.700000003,418915.863,421415.763,8,400,,,
trial,html.Screen,4_88_0,2023-11-01T17:18:34.978Z,,0,2,,2417.437000003003,response,ISIC_0066366.JPG,4,ISIC_0027560.JPG,ISIC_0066366.JPG,false,1,keypress(m),500,423833.700000003,423833.200000003,421382.431,421397.299999997,421415.763,423865.665,8,400,39,,ISIC_0027560.JPG
break,html.Screen,4_88_1,2023-11-01T17:18:34.979Z,,0,,,NaN,,,,,,false,,,,423834.59999999404,423834.5,,423834,,423865.665,8,400,,,
break_continue,html.Screen,4_88_2,2023-11-01T17:18:34.980Z,,0,,,NaN,,,,,,false,,,,423834.90000000596,423834.799999997,,423834.700000003,,423865.665,8,400,,,
sequence,flow.Sequence,4_88,2023-11-01T17:18:34.980Z,,0,,,2419.0369999970426,completion,,,,,false,,,,423835.09999999404,423834.799999997,421382.431,421397.299999997,421415.763,423865.665,8,400,,,
trial,html.Screen,4_89_0,2023-11-01T17:18:46.465Z,,0,2,,11516.743000000017,timeout,ISIC_1507583.JPG,8,ISIC_6793983.JPG,,false,,,500,435320.5,435319.90000000596,423832.333,423835.200000003,423865.665,435382.408,8,400,40,,
break,html.Screen,4_89_1,2023-11-01T17:18:46.466Z,,0,,,NaN,,,,,,false,,,,435321.40000000596,435321.09999999404,,435320.59999999404,,435382.408,8,400,,,
break_continue,html.Screen,4_89_2,2023-11-01T17:18:46.466Z,,0,,,NaN,,,,,,false,,,,435321.59999999404,435321.59999999404,,435321.5,,435382.408,8,400,,,
sequence,flow.Sequence,4_89,2023-11-01T17:18:46.466Z,,0,,,11455.93499999406,completion,,,,,false,,,,435321.799999997,435321.59999999404,423832.333,423835.200000003,423865.665,435382.408,8,400,,,
trial,html.Screen,4_90_0,2023-11-01T17:18:54.040Z,,0,2,,7512.391999997024,response,ISIC_7477006.JPG,7,ISIC_4955457.JPG,ISIC_7477006.JPG,false,1,keypress(m),500,442895.40000000596,442894.799999997,435349.076,435321.90000000596,435382.408,442915.992,8,400,41,,ISIC_4955457.JPG
break,html.Screen,4_90_1,2023-11-01T17:18:54.041Z,,0,,,NaN,,,,,,false,,,,442896.200000003,442896.09999999404,,442895.59999999404,,442915.992,8,400,,,
break_continue,html.Screen,4_90_2,2023-11-01T17:18:54.041Z,,0,,,NaN,,,,,,false,,,,442896.59999999404,442896.40000000596,,442896.299999997,,442915.992,8,400,,,
sequence,flow.Sequence,4_90,2023-11-01T17:18:54.041Z,,0,,,7513.992000005965,completion,,,,,false,,,,442896.799999997,442896.40000000596,435349.076,435321.90000000596,435382.408,442915.992,8,400,,,
trial,html.Screen,4_91_0,2023-11-01T17:19:05.514Z,,0,2,,11517.021999999997,timeout,ISIC_7530414.JPG,6,ISIC_0011481.JPG,,false,,,500,454370.09999999404,454370,442882.66,442896.799999997,442915.992,454433.014,8,400,42,,
break,html.Screen,4_91_1,2023-11-01T17:19:05.515Z,,0,,,NaN,,,,,,false,,,,454370.5,454370.40000000596,,454370.200000003,,454433.014,8,400,,,
break_continue,html.Screen,4_91_2,2023-11-01T17:19:05.515Z,,0,,,NaN,,,,,,false,,,,454370.700000003,454370.59999999404,,454370.5,,454433.014,8,400,,,
sequence,flow.Sequence,4_91,2023-11-01T17:19:05.515Z,,0,,,11454.607999994012,completion,,,,,false,,,,454370.700000003,454370.59999999404,442882.66,442896.799999997,442915.992,454433.014,8,400,,,
trial,html.Screen,4_92_0,2023-11-01T17:19:17.032Z,,0,2,,11516.837999999989,timeout,ISIC_7724764.JPG,5,ISIC_3466769.JPG,,false,,,500,465888.299999997,465887.799999997,454399.682,454370.700000003,454433.014,465949.852,8,400,43,,
break,html.Screen,4_92_1,2023-11-01T17:19:17.033Z,,0,,,NaN,,,,,,false,,,,465889.09999999404,465889,,465888.5,,465949.852,8,400,,,
break_continue,html.Screen,4_92_2,2023-11-01T17:19:17.033Z,,0,,,NaN,,,,,,false,,,,465889.5,465889.40000000596,,465889.299999997,,465949.852,8,400,,,
sequence,flow.Sequence,4_92,2023-11-01T17:19:17.034Z,,0,,,11456.386000005936,completion,,,,,false,,,,465889.59999999404,465889.40000000596,454399.682,454370.700000003,454433.014,465949.852,8,400,,,
trial,html.Screen,4_93_0,2023-11-01T17:19:21.518Z,,0,2,,4423.947999997006,response,ISIC_0060848.JPG,8,ISIC_8135931.JPG,ISIC_8135931.JPG,false,0,keypress(z),500,470374.200000003,470373.799999997,465916.52,465889.799999997,465949.852,470399.674,8,400,44,,ISIC_0060848.JPG
break,html.Screen,4_93_1,2023-11-01T17:19:21.519Z,,0,,,NaN,,,,,,false,,,,470375.200000003,470375,,470374.59999999404,,470399.674,8,400,,,
break_continue,html.Screen,4_93_2,2023-11-01T17:19:21.519Z,,0,,,NaN,,,,,,false,,,,470375.5,470375.40000000596,,470375.40000000596,,470399.674,8,400,,,
sequence,flow.Sequence,4_93,2023-11-01T17:19:21.520Z,,0,,,4425.548000005947,completion,,,,,false,,,,470375.700000003,470375.40000000596,465916.52,465889.700000003,465949.852,470399.674,8,400,,,
trial,html.Screen,4_94_0,2023-11-01T17:19:24.325Z,,0,2,,2780.7260000059614,response,ISIC_0003851.JPG,7,ISIC_0069891.JPG,ISIC_0003851.JPG,false,1,keypress(m),500,473180.700000003,473180.40000000596,470366.342,470375.90000000596,470399.674,473199.562,8,400,45,,ISIC_0069891.JPG
break,html.Screen,4_94_1,2023-11-01T17:19:24.326Z,,0,,,NaN,,,,,,false,,,,473181.799999997,473181.59999999404,,473181.09999999404,,473199.562,8,400,,,
break_continue,html.Screen,4_94_2,2023-11-01T17:19:24.326Z,,0,,,NaN,,,,,,false,,,,473182.09999999404,473182,,473181.90000000596,,473199.562,8,400,,,
sequence,flow.Sequence,4_94,2023-11-01T17:19:24.326Z,,0,,,2782.326000000001,completion,,,,,false,,,,473182.299999997,473182,470366.342,470375.90000000596,470399.674,473199.562,8,400,,,
trial,html.Screen,4_95_0,2023-11-01T17:19:27.148Z,,0,2,,2804.0379999940633,response,ISIC_1860707.JPG,7,ISIC_2660216.JPG,ISIC_2660216.JPG,false,0,keypress(z),500,476004.09999999404,476003.59999999404,473166.23,473182.40000000596,473199.562,476033.327,8,400,46,,ISIC_1860707.JPG
break,html.Screen,4_95_1,2023-11-01T17:19:27.149Z,,0,,,NaN,,,,,,false,,,,476005.09999999404,476004.90000000596,,476004.40000000596,,476033.327,8,400,,,
break_continue,html.Screen,4_95_2,2023-11-01T17:19:27.149Z,,0,,,NaN,,,,,,false,,,,476005.59999999404,476005.40000000596,,476005.299999997,,476033.327,8,400,,,
sequence,flow.Sequence,4_95,2023-11-01T17:19:27.149Z,,0,,,2805.838000005984,completion,,,,,false,,,,476005.700000003,476005.40000000596,473166.23,473182.40000000596,473199.562,476033.327,8,400,,,
trial,html.Screen,4_96_0,2023-11-01T17:19:29.542Z,,0,2,,2364.17300000001,response,ISIC_0024298.JPG,8,ISIC_1102075.JPG,ISIC_0024298.JPG,false,1,keypress(m),500,478398,478397.5,475999.995,476005.799999997,476033.327,478416.565,8,400,47,,ISIC_1102075.JPG
break,html.Screen,4_96_1,2023-11-01T17:19:29.543Z,,0,,,NaN,,,,,,false,,,,478399,478398.700000003,,478398.299999997,,478416.565,8,400,,,
break_continue,html.Screen,4_96_2,2023-11-01T17:19:29.543Z,,0,,,NaN,,,,,,false,,,,478399.299999997,478399.200000003,,478399.09999999404,,478416.565,8,400,,,
sequence,flow.Sequence,4_96,2023-11-01T17:19:29.543Z,,0,,,2365.87300000299,completion,,,,,false,,,,478399.40000000596,478399.200000003,475999.995,476005.700000003,476033.327,478416.565,8,400,,,
trial,html.Screen,4_97_0,2023-11-01T17:19:41.032Z,,0,2,,11533.485999999975,timeout,ISIC_8943906.JPG,7,ISIC_0065351.JPG,,false,,,500,489888.200000003,489887.59999999404,478383.233,478399.59999999404,478416.565,489950.051,8,400,48,,
break,html.Screen,4_97_1,2023-11-01T17:19:41.033Z,,0,,,NaN,,,,,,false,,,,489889.09999999404,489888.90000000596,,489888.40000000596,,489950.051,8,400,,,
break_continue,html.Screen,4_97_2,2023-11-01T17:19:41.033Z,,0,,,NaN,,,,,,false,,,,489889.40000000596,489889.299999997,,489889.299999997,,489950.051,8,400,,,
sequence,flow.Sequence,4_97,2023-11-01T17:19:41.033Z,,0,,,11472.734999997017,completion,,,,,false,,,,489889.59999999404,489889.299999997,478383.233,478399.5,478416.565,489950.051,8,400,,,
trial,html.Screen,4_98_0,2023-11-01T17:19:52.548Z,,0,2,,11516.890000000014,timeout,ISIC_4277207.JPG,7,ISIC_0000957.JPG,,false,,,500,501404.299999997,501404.09999999404,489916.719,489889.799999997,489950.051,501466.941,8,400,49,,
break,html.Screen,4_98_1,2023-11-01T17:19:52.549Z,,0,,,NaN,,,,,,false,,,,501406,501405.799999997,,501405.59999999404,,501466.941,8,400,,,
break_continue,html.Screen,4_98_2,2023-11-01T17:19:52.550Z,,0,,,NaN,,,,,,false,,,,501406.40000000596,501406.299999997,,501406.200000003,,501466.941,8,400,,,
sequence,flow.Sequence,4_98,2023-11-01T17:19:52.550Z,,0,,,11456.248999997042,completion,,,,,false,,,,501406.40000000596,501406.299999997,489916.719,489889.700000003,489950.051,501466.941,8,400,,,
trial,html.Screen,4_99_0,2023-11-01T17:20:04.062Z,,0,2,,11516.837999999989,timeout,ISIC_3025889.JPG,8,ISIC_0231745.JPG,,false,,,500,512918.700000003,512918.200000003,501433.609,501406.5,501466.941,512983.779,8,400,50,,
break,html.Screen,4_99_1,2023-11-01T17:20:14.096Z,,0,,,10000.151000000013,timeout,,,,,false,,,,522953.40000000596,522950.598,512950.447,512918.90000000596,512983.779,522983.93,8,400,,,
break_continue,html.Screen,4_99_2,2023-11-01T17:20:17.884Z,,0,,,3741.8699999970268,response,,,,,false,continue,keypress(Space),,526741.400000006,526725.799999997,522950.598,522953.5,522983.93,526767.112,8,400,,,
sequence,flow.Sequence,4_99,2023-11-01T17:20:17.884Z,,0,,,25258.858999997028,completion,,,,,false,,,,526741.5,526725.799999997,501433.609,501406.40000000596,501466.941,526767.112,8,400,,,
trial,html.Screen,4_100_0,2023-11-01T17:20:20.561Z,,0,3,,2651.288000005996,response,ISIC_0014501.JPG,6,ISIC_0055435.JPG,ISIC_0055435.JPG,false,0,keypress(z),500,529418.700000003,529418.400000006,526733.78,526741.599999994,526767.112,529450.338,8,400,1,,ISIC_0014501.JPG
break,html.Screen,4_100_1,2023-11-01T17:20:20.562Z,,0,,,NaN,,,,,,false,,,,529419.200000003,529419.099999994,,529418.799999997,,529450.338,8,400,,,
break_continue,html.Screen,4_100_2,2023-11-01T17:20:20.562Z,,0,,,NaN,,,,,,false,,,,529419.5,529419.400000006,,529419.299999997,,529450.338,8,400,,,
sequence,flow.Sequence,4_100,2023-11-01T17:20:20.562Z,,0,,,2652.288000005996,completion,,,,,false,,,,529419.599999994,529419.400000006,526733.78,526741.599999994,526767.112,529450.338,8,400,,,
trial,html.Screen,4_101_0,2023-11-01T17:20:22.885Z,,0,3,,2291.2619999940507,response,ISIC_0683389.JPG,7,ISIC_8622365.JPG,ISIC_0683389.JPG,false,1,keypress(m),500,531742,531741.599999994,529417.006,529419.700000003,529450.338,531766.912,8,400,2,,ISIC_8622365.JPG
break,html.Screen,4_101_1,2023-11-01T17:20:22.885Z,,0,,,NaN,,,,,,false,,,,531742.700000003,531742.700000003,,531742.299999997,,531766.912,8,400,,,
break_continue,html.Screen,4_101_2,2023-11-01T17:20:22.886Z,,0,,,NaN,,,,,,false,,,,531743,531742.900000006,,531742.799999997,,531766.912,8,400,,,
sequence,flow.Sequence,4_101,2023-11-01T17:20:22.886Z,,0,,,2292.5620000059716,completion,,,,,false,,,,531743.099999994,531742.900000006,529417.006,529419.599999994,529450.338,531766.912,8,400,,,
trial,html.Screen,4_102_0,2023-11-01T17:20:25.353Z,,0,3,,2443.1879999940284,response,ISIC_8843592.JPG,8,ISIC_7711947.JPG,ISIC_7711947.JPG,false,0,keypress(z),500,534210.599999994,534210.099999994,531733.58,531743.099999994,531766.912,534234.03,8,400,3,,ISIC_8843592.JPG
break,html.Screen,4_102_1,2023-11-01T17:20:25.354Z,,0,,,NaN,,,,,,false,,,,534211.299999997,534211.099999994,,534210.799999997,,534234.03,8,400,,,
break_continue,html.Screen,4_102_2,2023-11-01T17:20:25.354Z,,0,,,NaN,,,,,,false,,,,534211.5,534211.400000006,,534211.400000006,,534234.03,8,400,,,
sequence,flow.Sequence,4_102,2023-11-01T17:20:25.354Z,,0,,,2444.4880000059493,completion,,,,,false,,,,534211.5,534211.400000006,531733.58,531743.099999994,531766.912,534234.03,8,400,,,
trial,html.Screen,4_103_0,2023-11-01T17:20:27.981Z,,0,3,,2603.769999996992,response,ISIC_0007884.JPG,7,ISIC_9207137.JPG,ISIC_0007884.JPG,false,1,keypress(m),500,536838.099999994,536837.799999997,534200.698,534211.700000003,534234.03,536867.258,8,400,4,,ISIC_9207137.JPG
break,html.Screen,4_103_1,2023-11-01T17:20:27.981Z,,0,,,NaN,,,,,,false,,,,536838.799999997,536838.700000003,,536838.299999997,,536867.258,8,400,,,
break_continue,html.Screen,4_103_2,2023-11-01T17:20:27.982Z,,0,,,NaN,,,,,,false,,,,536839,536838.900000006,,536838.799999997,,536867.258,8,400,,,
sequence,flow.Sequence,4_103,2023-11-01T17:20:27.982Z,,0,,,2604.8700000059325,completion,,,,,false,,,,536839.200000003,536838.900000006,534200.698,534211.599999994,534234.03,536867.258,8,400,,,
trial,html.Screen,4_104_0,2023-11-01T17:20:30.307Z,,0,3,,2296.9420000029495,response,ISIC_0031401.JPG,7,ISIC_4114269.JPG,ISIC_4114269.JPG,false,0,keypress(z),500,539164.599999994,539164.200000003,536833.926,536839.200000003,536867.258,539183.832,8,400,5,,ISIC_0031401.JPG
break,html.Screen,4_104_1,2023-11-01T17:20:30.308Z,,0,,,NaN,,,,,,false,,,,539165.5,539165.400000006,,539164.900000006,,539183.832,8,400,,,
break_continue,html.Screen,4_104_2,2023-11-01T17:20:30.308Z,,0,,,NaN,,,,,,false,,,,539165.700000003,539165.599999994,,539165.599999994,,539183.832,8,400,,,
sequence,flow.Sequence,4_104,2023-11-01T17:20:30.308Z,,0,,,2298.341999994009,completion,,,,,false,,,,539165.799999997,539165.599999994,536833.926,536839.200000003,536867.258,539183.832,8,400,,,
trial,html.Screen,4_105_0,2023-11-01T17:20:32.538Z,,0,3,,2211.0680000059074,response,ISIC_0033655.JPG,4,ISIC_4345000.JPG,ISIC_0033655.JPG,false,1,keypress(m),500,541395.200000003,541394.900000006,539150.5,539165.799999997,539183.832,541417.076,8,400,6,,ISIC_4345000.JPG
break,html.Screen,4_105_1,2023-11-01T17:20:32.538Z,,0,,,NaN,,,,,,false,,,,541395.900000006,541395.799999997,,541395.400000006,,541417.076,8,400,,,
break_continue,html.Screen,4_105_2,2023-11-01T17:20:32.538Z,,0,,,NaN,,,,,,false,,,,541396,541396,,541395.900000006,,541417.076,8,400,,,
sequence,flow.Sequence,4_105,2023-11-01T17:20:32.540Z,,0,,,2212.167999999947,completion,,,,,false,,,,541397.200000003,541396,539150.5,539165.799999997,539183.832,541417.076,8,400,,,
trial,html.Screen,4_106_0,2023-11-01T17:20:34.800Z,,0,3,,2240.6240000029793,response,ISIC_0032232.JPG,8,ISIC_2998367.JPG,ISIC_2998367.JPG,false,0,keypress(z),500,543658,543657.700000003,541383.744,541397.299999997,541417.076,543684.214,8,400,7,,ISIC_0032232.JPG
break,html.Screen,4_106_1,2023-11-01T17:20:34.801Z,,0,,,NaN,,,,,,false,,,,543658.700000003,543658.5,,543658.200000003,,543684.214,8,400,,,
break_continue,html.Screen,4_106_2,2023-11-01T17:20:34.801Z,,0,,,NaN,,,,,,false,,,,543658.799999997,543658.799999997,,543658.799999997,,543684.214,8,400,,,
sequence,flow.Sequence,4_106,2023-11-01T17:20:34.801Z,,0,,,2241.723999997019,completion,,,,,false,,,,543658.900000006,543658.799999997,541383.744,541397.299999997,541417.076,543684.214,8,400,,,
trial,html.Screen,4_107_0,2023-11-01T17:20:37.172Z,,0,3,,2345.186000005924,response,ISIC_1453146.JPG,8,ISIC_0027406.JPG,ISIC_0027406.JPG,false,0,keypress(z),500,546029.799999997,546029.400000006,543650.882,543659.099999994,543684.214,546050.786,8,400,8,,ISIC_1453146.JPG
break,html.Screen,4_107_1,2023-11-01T17:20:37.173Z,,0,,,NaN,,,,,,false,,,,546030.299999997,546030.200000003,,546029.900000006,,546050.786,8,400,,,
break_continue,html.Screen,4_107_2,2023-11-01T17:20:37.173Z,,0,,,NaN,,,,,,false,,,,546030.599999994,546030.5,,546030.5,,546050.786,8,400,,,
sequence,flow.Sequence,4_107,2023-11-01T17:20:37.173Z,,0,,,2346.2859999999637,completion,,,,,false,,,,546030.599999994,546030.5,543650.882,543659,543684.214,546050.786,8,400,,,
trial,html.Screen,4_108_0,2023-11-01T17:20:39.480Z,,0,3,,2286.4140000030166,response,ISIC_2904474.JPG,9,ISIC_0030616.JPG,ISIC_0030616.JPG,false,0,keypress(z),500,548337.5,548337.200000003,546017.454,546030.700000003,546050.786,548367.36,8,400,9,,ISIC_2904474.JPG
break,html.Screen,4_108_1,2023-11-01T17:20:39.480Z,,0,,,NaN,,,,,,false,,,,548338.200000003,548338,,548337.700000003,,548367.36,8,400,,,
break_continue,html.Screen,4_108_2,2023-11-01T17:20:39.481Z,,0,,,NaN,,,,,,false,,,,548338.400000006,548338.299999997,,548338.299999997,,548367.36,8,400,,,
sequence,flow.Sequence,4_108,2023-11-01T17:20:39.481Z,,0,,,2287.513999997056,completion,,,,,false,,,,548338.400000006,548338.299999997,546017.454,546030.599999994,546050.786,548367.36,8,400,,,
trial,html.Screen,4_109_0,2023-11-01T17:20:41.886Z,,0,3,,2376.140000000014,response,ISIC_8505412.JPG,8,ISIC_0003122.JPG,ISIC_0003122.JPG,false,0,keypress(z),500,550743.900000006,550743.5,548334.028,548338.599999994,548367.36,550767.264,8,400,10,,ISIC_8505412.JPG
break,html.Screen,4_109_1,2023-11-01T17:20:41.887Z,,0,,,NaN,,,,,,false,,,,550744.700000003,550744.5,,550744.200000003,,550767.264,8,400,,,
break_continue,html.Screen,4_109_2,2023-11-01T17:20:41.887Z,,0,,,NaN,,,,,,false,,,,550744.900000006,550744.799999997,,550744.799999997,,550767.264,8,400,,,
sequence,flow.Sequence,4_109,2023-11-01T17:20:41.887Z,,0,,,2377.4399999970337,completion,,,,,false,,,,550745,550744.799999997,548334.028,548338.599999994,548367.36,550767.264,8,400,,,
trial,html.Screen,4_110_0,2023-11-01T17:20:46.210Z,,0,3,,4300.136000005994,response,ISIC_8883212.JPG,7,ISIC_0033228.JPG,ISIC_0033228.JPG,false,0,keypress(z),500,555067.700000003,555067.400000006,550733.932,550745,550767.264,555100.975,8,400,11,,ISIC_8883212.JPG
break,html.Screen,4_110_1,2023-11-01T17:20:46.211Z,,0,,,NaN,,,,,,false,,,,555068.5,555068.400000006,,555068,,555100.975,8,400,,,
break_continue,html.Screen,4_110_2,2023-11-01T17:20:46.211Z,,0,,,NaN,,,,,,false,,,,555068.599999994,555068.599999994,,555068.5,,555100.975,8,400,,,
sequence,flow.Sequence,4_110,2023-11-01T17:20:46.211Z,,0,,,4301.335999994073,completion,,,,,false,,,,555068.700000003,555068.599999994,550733.932,550745,550767.264,555100.975,8,400,,,
trial,html.Screen,4_111_0,2023-11-01T17:20:49.206Z,,0,3,,2962.824999997043,response,ISIC_5584185.JPG,8,ISIC_0004794.JPG,ISIC_0004794.JPG,false,0,keypress(z),500,558064.099999994,558063.799999997,555067.643,555068.700000003,555100.975,558084.189,8,400,12,,ISIC_5584185.JPG
break,html.Screen,4_111_1,2023-11-01T17:20:49.207Z,,0,,,NaN,,,,,,false,,,,558064.799999997,558064.700000003,,558064.299999997,,558084.189,8,400,,,
break_continue,html.Screen,4_111_2,2023-11-01T17:20:49.207Z,,0,,,NaN,,,,,,false,,,,558065,558064.900000006,,558064.799999997,,558084.189,8,400,,,
sequence,flow.Sequence,4_111,2023-11-01T17:20:49.207Z,,0,,,2963.9250000059837,completion,,,,,false,,,,558065,558064.900000006,555067.643,555068.700000003,555100.975,558084.189,8,400,,,
trial,html.Screen,4_112_0,2023-11-01T17:20:52.331Z,,0,3,,3104.7110000059474,response,ISIC_0022328.JPG,5,ISIC_0009984.JPG,ISIC_0022328.JPG,false,1,keypress(m),500,561189.299999997,561188.900000006,558050.857,558065.099999994,558084.189,561217.397,8,400,13,,ISIC_0009984.JPG
break,html.Screen,4_112_1,2023-11-01T17:20:52.332Z,,0,,,NaN,,,,,,false,,,,561190,561189.900000006,,561189.5,,561217.397,8,400,,,
break_continue,html.Screen,4_112_2,2023-11-01T17:20:52.332Z,,0,,,NaN,,,,,,false,,,,561190.200000003,561190.099999994,,561190,,561217.397,8,400,,,
sequence,flow.Sequence,4_112,2023-11-01T17:20:52.332Z,,0,,,3105.9109999940265,completion,,,,,false,,,,561190.200000003,561190.099999994,558050.857,558065.099999994,558084.189,561217.397,8,400,,,
trial,html.Screen,4_113_0,2023-11-01T17:20:54.738Z,,0,3,,2378.5030000059633,response,ISIC_7594601.JPG,8,ISIC_3251773.JPG,ISIC_7594601.JPG,false,1,keypress(m),500,563596.299999997,563595.900000006,561184.065,561190.299999997,561217.397,563617.84,8,400,14,,ISIC_3251773.JPG
break,html.Screen,4_113_1,2023-11-01T17:20:54.739Z,,0,,,NaN,,,,,,false,,,,563597,563596.900000006,,563596.5,,563617.84,8,400,,,
break_continue,html.Screen,4_113_2,2023-11-01T17:20:54.739Z,,0,,,NaN,,,,,,false,,,,563597.200000003,563597.099999994,,563597.099999994,,563617.84,8,400,,,
sequence,flow.Sequence,4_113,2023-11-01T17:20:54.739Z,,0,,,2379.7029999940423,completion,,,,,false,,,,563597.200000003,563597.099999994,561184.065,561190.200000003,561217.397,563617.84,8,400,,,
trial,html.Screen,4_114_0,2023-11-01T17:20:56.859Z,,0,3,,2098.360000003013,response,ISIC_0033393.JPG,7,ISIC_0029815.JPG,ISIC_0029815.JPG,false,0,keypress(z),500,565716.700000003,565716.200000003,563583.969,563597.400000006,563617.84,565734.422,8,400,15,,ISIC_0033393.JPG
break,html.Screen,4_114_1,2023-11-01T17:20:56.859Z,,0,,,NaN,,,,,,false,,,,565717.400000006,565717.299999997,,565716.900000006,,565734.422,8,400,,,
break_continue,html.Screen,4_114_2,2023-11-01T17:20:56.860Z,,0,,,NaN,,,,,,false,,,,565717.599999994,565717.5,,565717.5,,565734.422,8,400,,,
sequence,flow.Sequence,4_114,2023-11-01T17:20:56.860Z,,0,,,2099.6600000000326,completion,,,,,false,,,,565717.700000003,565717.5,563583.969,563597.400000006,563617.84,565734.422,8,400,,,
trial,html.Screen,4_115_0,2023-11-01T17:20:59.616Z,,0,3,,2739.7780000029597,response,ISIC_0015291.JPG,8,ISIC_0027021.JPG,ISIC_0027021.JPG,false,0,keypress(z),500,568474.599999994,568474.200000003,565701.09,565717.799999997,565734.422,568500.978,8,400,16,,ISIC_0015291.JPG
break,html.Screen,4_115_1,2023-11-01T17:20:59.617Z,,0,,,NaN,,,,,,false,,,,568475.299999997,568475.200000003,,568474.799999997,,568500.978,8,400,,,
break_continue,html.Screen,4_115_2,2023-11-01T17:20:59.617Z,,0,,,NaN,,,,,,false,,,,568475.5,568475.400000006,,568475.400000006,,568500.978,8,400,,,
sequence,flow.Sequence,4_115,2023-11-01T17:20:59.617Z,,0,,,2740.97800000594,completion,,,,,false,,,,568475.599999994,568475.400000006,565701.09,565717.799999997,565734.422,568500.978,8,400,,,
trial,html.Screen,4_116_0,2023-11-01T17:21:01.940Z,,0,3,,2296.521999999997,response,ISIC_1081051.JPG,7,ISIC_2940684.JPG,ISIC_2940684.JPG,false,0,keypress(z),500,570797.799999997,570797.5,568467.646,568475.599999994,568500.978,570817.552,8,400,17,,ISIC_1081051.JPG
break,html.Screen,4_116_1,2023-11-01T17:21:01.940Z,,0,,,NaN,,,,,,false,,,,570798.599999994,570798.400000006,,570798,,570817.552,8,400,,,
break_continue,html.Screen,4_116_2,2023-11-01T17:21:01.941Z,,0,,,NaN,,,,,,false,,,,570798.700000003,570798.599999994,,570798.599999994,,570817.552,8,400,,,
sequence,flow.Sequence,4_116,2023-11-01T17:21:01.941Z,,0,,,2297.6219999940367,completion,,,,,false,,,,570798.799999997,570798.599999994,568467.646,568475.599999994,568500.978,570817.552,8,400,,,
trial,html.Screen,4_117_0,2023-11-01T17:21:04.696Z,,0,3,,2736.0479999940144,response,ISIC_0046773.JPG,8,ISIC_9568138.JPG,ISIC_9568138.JPG,false,0,keypress(z),500,573553.799999997,573553.599999994,570784.22,570798.900000006,570817.552,573600.774,8,400,18,,ISIC_0046773.JPG
break,html.Screen,4_117_1,2023-11-01T17:21:04.696Z,,0,,,NaN,,,,,,false,,,,573554.5,573554.400000006,,573554,,573600.774,8,400,,,
break_continue,html.Screen,4_117_2,2023-11-01T17:21:04.696Z,,0,,,NaN,,,,,,false,,,,573554.700000003,573554.599999994,,573554.599999994,,573600.774,8,400,,,
sequence,flow.Sequence,4_117,2023-11-01T17:21:04.697Z,,0,,,2737.0479999940144,completion,,,,,false,,,,573554.700000003,573554.599999994,570784.22,570798.900000006,570817.552,573600.774,8,400,,,
trial,html.Screen,4_118_0,2023-11-01T17:21:07.083Z,,0,3,,2340.6260000059847,response,ISIC_7619234.JPG,6,ISIC_8324870.JPG,ISIC_8324870.JPG,false,0,keypress(z),500,575941.700000003,575941.400000006,573567.442,573554.799999997,573600.774,575967.898,8,400,19,,ISIC_7619234.JPG
break,html.Screen,4_118_1,2023-11-01T17:21:07.084Z,,0,,,NaN,,,,,,false,,,,575942.5,575942.299999997,,575941.900000006,,575967.898,8,400,,,
break_continue,html.Screen,4_118_2,2023-11-01T17:21:07.084Z,,0,,,NaN,,,,,,false,,,,575942.700000003,575942.599999994,,575942.599999994,,575967.898,8,400,,,
sequence,flow.Sequence,4_118,2023-11-01T17:21:07.084Z,,0,,,2341.8259999940637,completion,,,,,false,,,,575942.799999997,575942.599999994,573567.442,573554.799999997,573600.774,575967.898,8,400,,,
trial,html.Screen,4_119_0,2023-11-01T17:21:09.506Z,,0,3,,2396.3020000029355,response,ISIC_8011058.JPG,5,ISIC_3382231.JPG,ISIC_8011058.JPG,false,1,keypress(m),500,578364.599999994,578364.200000003,575934.566,575942.900000006,575967.898,578417.8,8,400,20,,ISIC_3382231.JPG
break,html.Screen,4_119_1,2023-11-01T17:21:09.507Z,,0,,,NaN,,,,,,false,,,,578365.299999997,578365.200000003,,578364.799999997,,578417.8,8,400,,,
break_continue,html.Screen,4_119_2,2023-11-01T17:21:09.507Z,,0,,,NaN,,,,,,false,,,,578365.5,578365.400000006,,578365.400000006,,578417.8,8,400,,,
sequence,flow.Sequence,4_119,2023-11-01T17:21:09.507Z,,0,,,2397.5020000059158,completion,,,,,false,,,,578365.599999994,578365.400000006,575934.566,575942.799999997,575967.898,578417.8,8,400,,,
trial,html.Screen,4_120_0,2023-11-01T17:21:11.849Z,,0,3,,2288.9000000029337,response,ISIC_0034100.JPG,6,ISIC_5662381.JPG,ISIC_0034100.JPG,false,1,keypress(m),500,580707.099999994,580706.700000003,578384.468,578365.700000003,578417.8,580751.04,8,400,21,,ISIC_5662381.JPG
break,html.Screen,4_120_1,2023-11-01T17:21:11.849Z,,0,,,NaN,,,,,,false,,,,580707.700000003,580707.599999994,,580707.299999997,,580751.04,8,400,,,
break_continue,html.Screen,4_120_2,2023-11-01T17:21:11.850Z,,0,,,NaN,,,,,,false,,,,580708,580707.900000006,,580707.799999997,,580751.04,8,400,,,
sequence,flow.Sequence,4_120,2023-11-01T17:21:11.850Z,,0,,,2290.100000005914,completion,,,,,false,,,,580708,580707.900000006,578384.468,578365.599999994,578417.8,580751.04,8,400,,,
trial,html.Screen,4_121_0,2023-11-01T17:21:15.085Z,,0,3,,3191.7599999969825,response,ISIC_0002295.JPG,8,ISIC_6974830.JPG,ISIC_0002295.JPG,false,1,keypress(m),500,583943.200000003,583942.799999997,580717.708,580708.099999994,580751.04,583967.578,8,400,22,,ISIC_6974830.JPG
break,html.Screen,4_121_1,2023-11-01T17:21:15.085Z,,0,,,NaN,,,,,,false,,,,583944,583943.799999997,,583943.400000006,,583967.578,8,400,,,
break_continue,html.Screen,4_121_2,2023-11-01T17:21:15.086Z,,0,,,NaN,,,,,,false,,,,583944.099999994,583944.099999994,,583944,,583967.578,8,400,,,
sequence,flow.Sequence,4_121,2023-11-01T17:21:15.086Z,,0,,,3193.0599999940023,completion,,,,,false,,,,583944.200000003,583944.099999994,580717.708,580708.099999994,580751.04,583967.578,8,400,,,
trial,html.Screen,4_122_0,2023-11-01T17:21:19.267Z,,0,3,,4157.52199999406,response,ISIC_0003111.JPG,7,ISIC_0489267.JPG,ISIC_0489267.JPG,false,0,keypress(z),500,588125.599999994,588125.099999994,583934.246,583944.299999997,583967.578,588151.286,8,400,23,,ISIC_0003111.JPG
break,html.Screen,4_122_1,2023-11-01T17:21:19.268Z,,0,,,NaN,,,,,,false,,,,588126.700000003,588126.400000006,,588126,,588151.286,8,400,,,
break_continue,html.Screen,4_122_2,2023-11-01T17:21:19.269Z,,0,,,NaN,,,,,,false,,,,588127.200000003,588126.900000006,,588126.799999997,,588151.286,8,400,,,
sequence,flow.Sequence,4_122,2023-11-01T17:21:19.269Z,,0,,,4159.322000005981,completion,,,,,false,,,,588127.299999997,588126.900000006,583934.246,583944.299999997,583967.578,588151.286,8,400,,,
trial,html.Screen,4_123_0,2023-11-01T17:21:22.250Z,,0,3,,2957.013999997056,response,ISIC_0072136.JPG,9,ISIC_8441905.JPG,ISIC_0072136.JPG,false,1,keypress(m),500,591108.700000003,591108.299999997,588117.954,588127.400000006,588151.286,591134.5,8,400,24,,ISIC_8441905.JPG
break,html.Screen,4_123_1,2023-11-01T17:21:22.251Z,,0,,,NaN,,,,,,false,,,,591109.700000003,591109.5,,591109.099999994,,591134.5,8,400,,,
break_continue,html.Screen,4_123_2,2023-11-01T17:21:22.252Z,,0,,,NaN,,,,,,false,,,,591110.099999994,591110,,591109.900000006,,591134.5,8,400,,,
sequence,flow.Sequence,4_123,2023-11-01T17:21:22.252Z,,0,,,2958.7140000000363,completion,,,,,false,,,,591110.299999997,591110,588117.954,588127.400000006,588151.286,591134.5,8,400,,,
trial,html.Screen,4_124_0,2023-11-01T17:21:24.753Z,,0,3,,2477.0999999940395,response,ISIC_0030072.JPG,5,ISIC_9412963.JPG,ISIC_0030072.JPG,false,1,keypress(m),500,593612.099999994,593611.599999994,591101.168,591110.299999997,591134.5,593634.4,8,400,25,,ISIC_9412963.JPG
break,html.Screen,4_124_1,2023-11-01T17:21:24.755Z,,0,,,NaN,,,,,,false,,,,593613.200000003,593613,,593612.400000006,,593634.4,8,400,,,
break_continue,html.Screen,4_124_2,2023-11-01T17:21:24.755Z,,0,,,NaN,,,,,,false,,,,593613.599999994,593613.299999997,,593613.299999997,,593634.4,8,400,,,
sequence,flow.Sequence,4_124,2023-11-01T17:21:24.755Z,,0,,,2478.7999999970198,completion,,,,,false,,,,593613.900000006,593613.299999997,591101.168,591110.299999997,591134.5,593634.4,8,400,,,
trial,html.Screen,4_125_0,2023-11-01T17:21:26.888Z,,0,3,,2111.5999999999767,response,ISIC_3771332.JPG,8,ISIC_5682259.JPG,ISIC_3771332.JPG,false,1,keypress(m),500,595746.700000003,595746,593601.068,593614.200000003,593634.4,595768.215,8,400,26,,ISIC_5682259.JPG
break,html.Screen,4_125_1,2023-11-01T17:21:26.889Z,,0,,,NaN,,,,,,false,,,,595747.599999994,595747.5,,595747,,595768.215,8,400,,,
break_continue,html.Screen,4_125_2,2023-11-01T17:21:26.889Z,,0,,,NaN,,,,,,false,,,,595748,595747.900000006,,595747.799999997,,595768.215,8,400,,,
sequence,flow.Sequence,4_125,2023-11-01T17:21:26.890Z,,0,,,2113.500000005937,completion,,,,,false,,,,595748.299999997,595747.900000006,593601.068,593614.099999994,593634.4,595768.215,8,400,,,
trial,html.Screen,4_126_0,2023-11-01T17:21:29.469Z,,0,3,,2558.5849999970524,response,ISIC_0010789.JPG,8,ISIC_3673517.JPG,ISIC_3673517.JPG,false,0,keypress(z),500,598327.299999997,598326.799999997,595734.883,595748.400000006,595768.215,598351.445,8,400,27,,ISIC_0010789.JPG
break,html.Screen,4_126_1,2023-11-01T17:21:29.470Z,,0,,,NaN,,,,,,false,,,,598328.299999997,598328.099999994,,598327.599999994,,598351.445,8,400,,,
break_continue,html.Screen,4_126_2,2023-11-01T17:21:29.470Z,,0,,,NaN,,,,,,false,,,,598328.599999994,598328.5,,598328.400000006,,598351.445,8,400,,,
