sender,sender_type,sender_id,timestamp,meta,,blockNo,condition,duration,ended_on,img_left,img_reveal,img_right,loser,practice,response,response_action,selection_duration,time_commit,time_end,time_render,time_run,time_show,time_switch,total_blocks,total_trials,trialNo,url,winner
informed_consent,html.Screen,0,2023-09-15T19:57:26.327Z,"{""labjs_version"":""20.2.4"",""labjs_build"":{""flavor"":""production"",""commit"":""f5b4a49f956347addd546a832a3327688c2c0fef""},""location"":""https://run.pavlovia.org/MurrayBennett/melanoma-2afc/?participant=66208&platform=sona"",""userAgent"":""Mozilla/5.0 (Macintosh; Intel Mac OS X 10.15; rv:109.0) Gecko/20100101 Firefox/117.0"",""platform"":""MacIntel"",""language"":""en-US"",""locale"":""en"",""timeZone"":""America/Chicago"",""timezoneOffset"":300,""screen_width"":1760,""screen_height"":990,""scroll_width"":1760,""scroll_height"":837,""window_innerWidth"":1760,""window_innerHeight"":885,""devicePixelRatio"":1.0909090909090908}",,,,24878.38,response,,,,,,consent,click button,,28425,28422,3526.18,3529,3543.62,28426.96,,,,"{""participant"":""66208"",""platform"":""sona""}",
Welcome,html.Screen,1,2023-09-15T19:58:30.043Z,,,,asymmetry,63709.04,response,,,,,,continue,click button,,92140,92136,28424.34,28426,28426.96,92141.5,,,,,
trial,html.Screen,2_0_0,2023-09-15T19:58:38.291Z,,0,0,,8247.5,response,ISIC_0069348.JPG,,ISIC_6997061.JPG,ISIC_6997061.JPG,true,0,keypress(z),500,100389,100389,92138.92,92141,92141.5,100391.64,1,6,1,,ISIC_0069348.JPG
sequence,flow.Sequence,2_0,2023-09-15T19:58:38.291Z,,0,,,8247.5,completion,,,,,true,,,,100390,100389,92138.92,92141,92141.5,100391.64,1,6,,,
trial,html.Screen,2_1_0,2023-09-15T19:58:45.631Z,,0,0,,7337.360000000001,response,ISIC_0057368.JPG,,ISIC_0009529.JPG,ISIC_0009529.JPG,true,0,keypress(z),500,107729,107729,100389.7,100390,100391.64,107741,1,6,2,,ISIC_0057368.JPG
sequence,flow.Sequence,2_1,2023-09-15T19:58:45.631Z,,0,,,7337.360000000001,completion,,,,,true,,,,107730,107729,100389.7,100390,100391.64,107741,1,6,,,
trial,html.Screen,2_2_0,2023-09-15T19:58:57.136Z,,0,0,,11524.779999999999,timeout,ISIC_0064954.JPG,,ISIC_9758671.JPG,,true,,,500,119234,119234,107729.38,107730,107741,119265.78,1,6,3,,
sequence,flow.Sequence,2_2,2023-09-15T19:58:57.136Z,,0,,,11493,completion,,,,,true,,,,119234,119234,107729.38,107730,107741,119265.78,1,6,,,
trial,html.Screen,2_3_0,2023-09-15T19:59:01.760Z,,0,0,,4591.220000000001,response,ISIC_0005785.JPG,,ISIC_0000080.JPG,ISIC_0000080.JPG,true,0,keypress(z),500,123857,123857,119249.12,119234,119265.78,123862.44,1,6,4,,ISIC_0005785.JPG
sequence,flow.Sequence,2_3,2023-09-15T19:59:01.760Z,,0,,,4591.220000000001,completion,,,,,true,,,,123857,123857,119249.12,119234,119265.78,123862.44,1,6,,,
trial,html.Screen,2_4_0,2023-09-15T19:59:05.747Z,,0,0,,3981.5599999999977,response,ISIC_7944028.JPG,,ISIC_5390060.JPG,ISIC_7944028.JPG,true,1,keypress(m),500,127845,127844,123858.08,123858,123862.44,127846.28,1,6,5,,ISIC_5390060.JPG
sequence,flow.Sequence,2_4,2023-09-15T19:59:05.747Z,,0,,,3981.5599999999977,completion,,,,,true,,,,127845,127844,123858.08,123858,123862.44,127846.28,1,6,,,
trial,html.Screen,2_5_0,2023-09-15T19:59:09.652Z,,0,0,,3903.720000000001,response,ISIC_0010188.JPG,,ISIC_0794216.JPG,ISIC_0794216.JPG,true,0,keypress(z),500,131750,131750,127845.16,127845,127846.28,131762.96,1,6,6,,ISIC_0010188.JPG
sequence,flow.Sequence,2_5,2023-09-15T19:59:09.652Z,,0,,,3903.720000000001,completion,,,,,true,,,,131750,131750,127845.16,127845,127846.28,131762.96,1,6,,,
loop,flow.Loop,2,2023-09-15T19:59:09.652Z,,,,,39608.5,completion,,,,,true,,,,131750,131750,92138.92,92141,92141.5,131762.96,1,6,,,
exp_instructions,html.Screen,3,2023-09-15T19:59:17.324Z,,,,,7653.040000000008,response,,,,,,continue,keypress(Space),,139421,139416,131750.22,131750,131762.96,139429.62,,,,,
trial,html.Screen,4_0_0,2023-09-15T19:59:23.030Z,,0,1,,5698.380000000005,response,ISIC_2559074.JPG,10,ISIC_0056119.JPG,ISIC_2559074.JPG,false,1,keypress(m),500,145128,145128,139421.48,139421,139429.62,145129.62,8,400,1,,ISIC_0056119.JPG
break,html.Screen,4_0_1,2023-09-15T19:59:23.032Z,,0,,,NaN,,,,,,false,,,,145129,145129,,145128,,145129.62,8,400,,,
break_continue,html.Screen,4_0_2,2023-09-15T19:59:23.032Z,,0,,,NaN,,,,,,false,,,,145129,145129,,145129,,145129.62,8,400,,,
sequence,flow.Sequence,4_0,2023-09-15T19:59:23.032Z,,0,,,5699.380000000005,completion,,,,,false,,,,145129,145129,139421.48,139421,139429.62,145129.62,8,400,,,
trial,html.Screen,4_1_0,2023-09-15T19:59:30.330Z,,0,1,,7297.380000000005,response,ISIC_0058837.JPG,1,ISIC_0060452.JPG,ISIC_0060452.JPG,false,0,keypress(z),500,152427,152427,145128.82,145130,145129.62,152429.62,8,400,2,,ISIC_0058837.JPG
break,html.Screen,4_1_1,2023-09-15T19:59:30.330Z,,0,,,NaN,,,,,,false,,,,152428,152427,,152427,,152429.62,8,400,,,
break_continue,html.Screen,4_1_2,2023-09-15T19:59:30.330Z,,0,,,NaN,,,,,,false,,,,152428,152428,,152428,,152429.62,8,400,,,
sequence,flow.Sequence,4_1,2023-09-15T19:59:30.330Z,,0,,,7298.380000000005,completion,,,,,false,,,,152428,152428,145128.82,145130,145129.62,152429.62,8,400,,,
trial,html.Screen,4_2_0,2023-09-15T19:59:33.695Z,,0,1,,3363.3800000000047,response,ISIC_7492046.JPG,5,ISIC_0031101.JPG,ISIC_7492046.JPG,false,1,keypress(m),500,155793,155793,152427.7,152428,152429.62,155795.48,8,400,3,,ISIC_0031101.JPG
break,html.Screen,4_2_1,2023-09-15T19:59:33.695Z,,0,,,NaN,,,,,,false,,,,155793,155793,,155793,,155795.48,8,400,,,
break_continue,html.Screen,4_2_2,2023-09-15T19:59:33.696Z,,0,,,NaN,,,,,,false,,,,155794,155794,,155794,,155795.48,8,400,,,
sequence,flow.Sequence,4_2,2023-09-15T19:59:33.696Z,,0,,,3364.3800000000047,completion,,,,,false,,,,155794,155794,152427.7,152428,152429.62,155795.48,8,400,,,
trial,html.Screen,4_3_0,2023-09-15T19:59:36.768Z,,0,1,,3070.5199999999895,response,ISIC_5942564.JPG,13,ISIC_0061643.JPG,ISIC_5942564.JPG,false,1,keypress(m),500,158866,158866,155792.74,155794,155795.48,158879.62,8,400,4,,ISIC_0061643.JPG
break,html.Screen,4_3_1,2023-09-15T19:59:36.769Z,,0,,,NaN,,,,,,false,,,,158867,158867,,158867,,158879.62,8,400,,,
break_continue,html.Screen,4_3_2,2023-09-15T19:59:36.770Z,,0,,,NaN,,,,,,false,,,,158867,158867,,158867,,158879.62,8,400,,,
sequence,flow.Sequence,4_3,2023-09-15T19:59:36.770Z,,0,,,3071.5199999999895,completion,,,,,false,,,,158867,158867,155792.74,155794,155795.48,158879.62,8,400,,,
trial,html.Screen,4_4_0,2023-09-15T19:59:40.968Z,,0,1,,4186.380000000005,response,ISIC_8025644.JPG,10,ISIC_6942437.JPG,ISIC_6942437.JPG,false,0,keypress(z),500,163066,163066,158866.74,158867,158879.62,163079.62,8,400,5,,ISIC_8025644.JPG
break,html.Screen,4_4_1,2023-09-15T19:59:40.969Z,,0,,,NaN,,,,,,false,,,,163067,163067,,163066,,163079.62,8,400,,,
break_continue,html.Screen,4_4_2,2023-09-15T19:59:40.969Z,,0,,,NaN,,,,,,false,,,,163067,163067,,163067,,163079.62,8,400,,,
sequence,flow.Sequence,4_4,2023-09-15T19:59:40.969Z,,0,,,4187.380000000005,completion,,,,,false,,,,163067,163067,158866.74,158867,158879.62,163079.62,8,400,,,
trial,html.Screen,4_5_0,2023-09-15T19:59:44.411Z,,0,1,,3429.3800000000047,response,ISIC_6265473.JPG,6,ISIC_0055314.JPG,ISIC_6265473.JPG,false,1,keypress(m),500,166509,166509,163066.06,163067,163079.62,166512.5,8,400,6,,ISIC_0055314.JPG
break,html.Screen,4_5_1,2023-09-15T19:59:44.412Z,,0,,,NaN,,,,,,false,,,,166510,166509,,166509,,166512.5,8,400,,,
break_continue,html.Screen,4_5_2,2023-09-15T19:59:44.412Z,,0,,,NaN,,,,,,false,,,,166510,166510,,166510,,166512.5,8,400,,,
sequence,flow.Sequence,4_5,2023-09-15T19:59:44.412Z,,0,,,3430.3800000000047,completion,,,,,false,,,,166510,166510,163066.06,163067,163079.62,166512.5,8,400,,,
trial,html.Screen,4_6_0,2023-09-15T19:59:52.375Z,,0,1,,7961.5,response,ISIC_0004794.JPG,10,ISIC_8869929.JPG,ISIC_8869929.JPG,false,0,keypress(z),500,174474,174474,166509.24,166510,166512.5,174479.62,8,400,7,,ISIC_0004794.JPG
break,html.Screen,4_6_1,2023-09-15T19:59:52.377Z,,0,,,NaN,,,,,,false,,,,174474,174474,,174474,,174479.62,8,400,,,
break_continue,html.Screen,4_6_2,2023-09-15T19:59:52.377Z,,0,,,NaN,,,,,,false,,,,174474,174474,,174474,,174479.62,8,400,,,
sequence,flow.Sequence,4_6,2023-09-15T19:59:52.377Z,,0,,,7961.5,completion,,,,,false,,,,174474,174474,166509.24,166510,166512.5,174479.62,8,400,,,
trial,html.Screen,4_7_0,2023-09-15T19:59:58.034Z,,0,1,,5652.380000000005,response,ISIC_1118894.JPG,12,ISIC_1081430.JPG,ISIC_1081430.JPG,false,0,keypress(z),500,180132,180132,174473.88,174475,174479.62,180145.98,8,400,8,,ISIC_1118894.JPG
break,html.Screen,4_7_1,2023-09-15T19:59:58.034Z,,0,,,NaN,,,,,,false,,,,180133,180133,,180132,,180145.98,8,400,,,
break_continue,html.Screen,4_7_2,2023-09-15T19:59:58.035Z,,0,,,NaN,,,,,,false,,,,180133,180133,,180133,,180145.98,8,400,,,
sequence,flow.Sequence,4_7,2023-09-15T19:59:58.035Z,,0,,,5653.380000000005,completion,,,,,false,,,,180133,180133,174473.88,174474,174479.62,180145.98,8,400,,,
trial,html.Screen,4_8_0,2023-09-15T20:00:02.338Z,,0,1,,4290.0199999999895,response,ISIC_9929097.JPG,13,ISIC_9851899.JPG,ISIC_9851899.JPG,false,0,keypress(z),500,184436,184436,180132.24,180133,180145.98,184462.94,8,400,9,,ISIC_9929097.JPG
break,html.Screen,4_8_1,2023-09-15T20:00:02.338Z,,0,,,NaN,,,,,,false,,,,184436,184436,,184436,,184462.94,8,400,,,
break_continue,html.Screen,4_8_2,2023-09-15T20:00:02.339Z,,0,,,NaN,,,,,,false,,,,184437,184436,,184436,,184462.94,8,400,,,
sequence,flow.Sequence,4_8,2023-09-15T20:00:02.339Z,,0,,,4290.0199999999895,completion,,,,,false,,,,184437,184436,180132.24,180133,180145.98,184462.94,8,400,,,
trial,html.Screen,4_9_0,2023-09-15T20:00:05.945Z,,0,1,,3580.0599999999977,response,ISIC_0032509.JPG,13,ISIC_0060955.JPG,ISIC_0032509.JPG,false,1,keypress(m),500,188043,188043,184446.28,184437,184462.94,188045.76,8,400,10,,ISIC_0060955.JPG
break,html.Screen,4_9_1,2023-09-15T20:00:05.946Z,,0,,,NaN,,,,,,false,,,,188044,188044,,188043,,188045.76,8,400,,,
break_continue,html.Screen,4_9_2,2023-09-15T20:00:05.946Z,,0,,,NaN,,,,,,false,,,,188044,188044,,188044,,188045.76,8,400,,,
sequence,flow.Sequence,4_9,2023-09-15T20:00:05.946Z,,0,,,3581.0599999999977,completion,,,,,false,,,,188044,188044,184446.28,184437,184462.94,188045.76,8,400,,,
trial,html.Screen,4_10_0,2023-09-15T20:00:09.022Z,,0,1,,3073.2399999999907,response,ISIC_6455702.JPG,17,ISIC_0033166.JPG,ISIC_0033166.JPG,false,0,keypress(z),500,191120,191119,188042.8,188044,188045.76,191129.62,8,400,11,,ISIC_6455702.JPG
break,html.Screen,4_10_1,2023-09-15T20:00:09.023Z,,0,,,NaN,,,,,,false,,,,191121,191120,,191120,,191129.62,8,400,,,
break_continue,html.Screen,4_10_2,2023-09-15T20:00:09.023Z,,0,,,NaN,,,,,,false,,,,191121,191121,,191121,,191129.62,8,400,,,
sequence,flow.Sequence,4_10,2023-09-15T20:00:09.023Z,,0,,,3075.2399999999907,completion,,,,,false,,,,191121,191121,188042.8,188044,188045.76,191129.62,8,400,,,
trial,html.Screen,4_11_0,2023-09-15T20:00:11.759Z,,0,1,,2726.3800000000047,response,ISIC_0054941.JPG,5,ISIC_4695051.JPG,ISIC_4695051.JPG,false,0,keypress(z),500,193856,193856,191120.32,191121,191129.62,193862.94,8,400,12,,ISIC_0054941.JPG
break,html.Screen,4_11_1,2023-09-15T20:00:11.760Z,,0,,,NaN,,,,,,false,,,,193857,193857,,193856,,193862.94,8,400,,,
break_continue,html.Screen,4_11_2,2023-09-15T20:00:11.760Z,,0,,,NaN,,,,,,false,,,,193857,193857,,193857,,193862.94,8,400,,,
sequence,flow.Sequence,4_11,2023-09-15T20:00:11.760Z,,0,,,2727.3800000000047,completion,,,,,false,,,,193857,193857,191120.32,191121,191129.62,193862.94,8,400,,,
trial,html.Screen,4_12_0,2023-09-15T20:00:14.311Z,,0,1,,2545.0599999999977,response,ISIC_0030769.JPG,14,ISIC_0961235.JPG,ISIC_0961235.JPG,false,0,keypress(z),500,196408,196408,193856.94,193857,193862.94,196412.94,8,400,13,,ISIC_0030769.JPG
break,html.Screen,4_12_1,2023-09-15T20:00:14.311Z,,0,,,NaN,,,,,,false,,,,196409,196408,,196408,,196412.94,8,400,,,
break_continue,html.Screen,4_12_2,2023-09-15T20:00:14.311Z,,0,,,NaN,,,,,,false,,,,196409,196409,,196409,,196412.94,8,400,,,
sequence,flow.Sequence,4_12,2023-09-15T20:00:14.311Z,,0,,,2546.0599999999977,completion,,,,,false,,,,196409,196409,193856.94,193857,193862.94,196412.94,8,400,,,
trial,html.Screen,4_13_0,2023-09-15T20:00:17.414Z,,0,1,,3099.0599999999977,response,ISIC_0032779.JPG,17,ISIC_0011077.JPG,ISIC_0011077.JPG,false,0,keypress(z),500,199512,199512,196408.3,196409,196412.94,199512.94,8,400,14,,ISIC_0032779.JPG
break,html.Screen,4_13_1,2023-09-15T20:00:17.415Z,,0,,,NaN,,,,,,false,,,,199513,199513,,199512,,199512.94,8,400,,,
break_continue,html.Screen,4_13_2,2023-09-15T20:00:17.415Z,,0,,,NaN,,,,,,false,,,,199513,199513,,199513,,199512.94,8,400,,,
sequence,flow.Sequence,4_13,2023-09-15T20:00:17.415Z,,0,,,3100.0599999999977,completion,,,,,false,,,,199514,199513,196408.3,196409,196412.94,199512.94,8,400,,,
trial,html.Screen,4_14_0,2023-09-15T20:00:21.773Z,,0,1,,4358.059999999998,response,ISIC_8087949.JPG,6,ISIC_5126638.JPG,ISIC_8087949.JPG,false,1,keypress(m),500,203872,203871,199512.04,199514,199512.94,203879.24,8,400,15,,ISIC_5126638.JPG
break,html.Screen,4_14_1,2023-09-15T20:00:21.773Z,,0,,,NaN,,,,,,false,,,,203872,203872,,203872,,203879.24,8,400,,,
break_continue,html.Screen,4_14_2,2023-09-15T20:00:21.774Z,,0,,,NaN,,,,,,false,,,,203872,203872,,203872,,203879.24,8,400,,,
sequence,flow.Sequence,4_14,2023-09-15T20:00:21.774Z,,0,,,4359.059999999998,completion,,,,,false,,,,203872,203872,199512.04,199514,199512.94,203879.24,8,400,,,
trial,html.Screen,4_15_0,2023-09-15T20:00:25.062Z,,0,1,,3280.7600000000093,response,ISIC_8224270.JPG,4,ISIC_5744196.JPG,ISIC_8224270.JPG,false,1,keypress(m),500,207160,207160,203871.14,203872,203879.24,207162.94,8,400,16,,ISIC_5744196.JPG
break,html.Screen,4_15_1,2023-09-15T20:00:25.063Z,,0,,,NaN,,,,,,false,,,,207160,207160,,207160,,207162.94,8,400,,,
break_continue,html.Screen,4_15_2,2023-09-15T20:00:25.063Z,,0,,,NaN,,,,,,false,,,,207161,207161,,207161,,207162.94,8,400,,,
sequence,flow.Sequence,4_15,2023-09-15T20:00:25.063Z,,0,,,3281.7600000000093,completion,,,,,false,,,,207161,207161,203871.14,203872,203879.24,207162.94,8,400,,,
trial,html.Screen,4_16_0,2023-09-15T20:00:28.992Z,,0,1,,3927.0599999999977,response,ISIC_8082460.JPG,10,ISIC_7319169.JPG,ISIC_7319169.JPG,false,0,keypress(z),500,211090,211090,207160.16,207161,207162.94,211095.82,8,400,17,,ISIC_8082460.JPG
break,html.Screen,4_16_1,2023-09-15T20:00:28.993Z,,0,,,NaN,,,,,,false,,,,211091,211091,,211091,,211095.82,8,400,,,
break_continue,html.Screen,4_16_2,2023-09-15T20:00:28.994Z,,0,,,NaN,,,,,,false,,,,211091,211091,,211091,,211095.82,8,400,,,
sequence,flow.Sequence,4_16,2023-09-15T20:00:28.994Z,,0,,,3928.0599999999977,completion,,,,,false,,,,211091,211091,207160.16,207161,207162.94,211095.82,8,400,,,
trial,html.Screen,4_17_0,2023-09-15T20:00:32.796Z,,0,1,,3797.179999999993,response,ISIC_5108076.JPG,2,ISIC_7888672.JPG,ISIC_5108076.JPG,false,1,keypress(m),500,214893,214893,211090.56,211092,211095.82,214896.28,8,400,18,,ISIC_7888672.JPG
break,html.Screen,4_17_1,2023-09-15T20:00:32.796Z,,0,,,NaN,,,,,,false,,,,214894,214894,,214894,,214896.28,8,400,,,
break_continue,html.Screen,4_17_2,2023-09-15T20:00:32.797Z,,0,,,NaN,,,,,,false,,,,214894,214894,,214894,,214896.28,8,400,,,
sequence,flow.Sequence,4_17,2023-09-15T20:00:32.797Z,,0,,,3798.179999999993,completion,,,,,false,,,,214894,214894,211090.56,211092,211095.82,214896.28,8,400,,,
trial,html.Screen,4_18_0,2023-09-15T20:00:44.282Z,,0,1,,11516.660000000003,timeout,ISIC_5055871.JPG,13,ISIC_0014308.JPG,,false,,,500,226380,226380,214893.7,214894,214896.28,226412.94,8,400,19,,
break,html.Screen,4_18_1,2023-09-15T20:00:44.283Z,,0,,,NaN,,,,,,false,,,,226381,226380,,226380,,226412.94,8,400,,,
break_continue,html.Screen,4_18_2,2023-09-15T20:00:44.283Z,,0,,,NaN,,,,,,false,,,,226381,226381,,226381,,226412.94,8,400,,,
sequence,flow.Sequence,4_18,2023-09-15T20:00:44.283Z,,0,,,11484.720000000001,completion,,,,,false,,,,226381,226381,214893.7,214894,214896.28,226412.94,8,400,,,
trial,html.Screen,4_19_0,2023-09-15T20:00:55.249Z,,0,1,,10934.059999999998,response,ISIC_0014745.JPG,2,ISIC_0029809.JPG,ISIC_0014745.JPG,false,1,keypress(m),500,237347,237347,226396.28,226381,226412.94,237362.94,8,400,20,,ISIC_0029809.JPG
break,html.Screen,4_19_1,2023-09-15T20:00:55.250Z,,0,,,NaN,,,,,,false,,,,237347,237347,,237347,,237362.94,8,400,,,
break_continue,html.Screen,4_19_2,2023-09-15T20:00:55.250Z,,0,,,NaN,,,,,,false,,,,237347,237347,,237347,,237362.94,8,400,,,
sequence,flow.Sequence,4_19,2023-09-15T20:00:55.250Z,,0,,,10934.059999999998,completion,,,,,false,,,,237347,237347,226396.28,226381,226412.94,237362.94,8,400,,,
trial,html.Screen,4_20_0,2023-09-15T20:01:00.107Z,,0,1,,4842.059999999998,response,ISIC_8561963.JPG,12,ISIC_2536779.JPG,ISIC_2536779.JPG,false,0,keypress(z),500,242205,242205,237346.7,237349,237362.94,242212.9,8,400,21,,ISIC_8561963.JPG
break,html.Screen,4_20_1,2023-09-15T20:01:00.108Z,,0,,,NaN,,,,,,false,,,,242205,242205,,242205,,242212.9,8,400,,,
break_continue,html.Screen,4_20_2,2023-09-15T20:01:00.108Z,,0,,,NaN,,,,,,false,,,,242206,242206,,242205,,242212.9,8,400,,,
sequence,flow.Sequence,4_20,2023-09-15T20:01:00.109Z,,0,,,4843.059999999998,completion,,,,,false,,,,242206,242206,237346.7,237347,237362.94,242212.9,8,400,,,
trial,html.Screen,4_21_0,2023-09-15T20:01:03.265Z,,0,1,,3150.100000000006,response,ISIC_0014026.JPG,7,ISIC_0062162.JPG,ISIC_0014026.JPG,false,1,keypress(m),500,245363,245363,242205.2,242206,242212.9,245362.94,8,400,22,,ISIC_0062162.JPG
break,html.Screen,4_21_1,2023-09-15T20:01:03.265Z,,0,,,NaN,,,,,,false,,,,245363,245363,,245363,,245362.94,8,400,,,
break_continue,html.Screen,4_21_2,2023-09-15T20:01:03.266Z,,0,,,NaN,,,,,,false,,,,245363,245363,,245363,,245362.94,8,400,,,
sequence,flow.Sequence,4_21,2023-09-15T20:01:03.266Z,,0,,,3150.100000000006,completion,,,,,false,,,,245363,245363,242205.2,242206,242212.9,245362.94,8,400,,,
trial,html.Screen,4_22_0,2023-09-15T20:01:06.894Z,,0,1,,3629.0599999999977,response,ISIC_0003217.JPG,3,ISIC_6576397.JPG,ISIC_0003217.JPG,false,1,keypress(m),500,248992,248992,245362.36,245363,245362.94,248996.28,8,400,23,,ISIC_6576397.JPG
break,html.Screen,4_22_1,2023-09-15T20:01:06.895Z,,0,,,NaN,,,,,,false,,,,248992,248992,,248992,,248996.28,8,400,,,
break_continue,html.Screen,4_22_2,2023-09-15T20:01:06.895Z,,0,,,NaN,,,,,,false,,,,248992,248992,,248992,,248996.28,8,400,,,
sequence,flow.Sequence,4_22,2023-09-15T20:01:06.895Z,,0,,,3629.0599999999977,completion,,,,,false,,,,248992,248992,245362.36,245363,245362.94,248996.28,8,400,,,
trial,html.Screen,4_23_0,2023-09-15T20:01:11.282Z,,0,1,,4383.720000000001,response,ISIC_3585381.JPG,16,ISIC_0032233.JPG,ISIC_0032233.JPG,false,0,keypress(z),500,253380,253380,248992.02,248993,248996.28,253396.28,8,400,24,,ISIC_3585381.JPG
break,html.Screen,4_23_1,2023-09-15T20:01:11.282Z,,0,,,NaN,,,,,,false,,,,253380,253380,,253380,,253396.28,8,400,,,
break_continue,html.Screen,4_23_2,2023-09-15T20:01:11.282Z,,0,,,NaN,,,,,,false,,,,253381,253380,,253380,,253396.28,8,400,,,
sequence,flow.Sequence,4_23,2023-09-15T20:01:11.282Z,,0,,,4383.720000000001,completion,,,,,false,,,,253381,253380,248992.02,248993,248996.28,253396.28,8,400,,,
trial,html.Screen,4_24_0,2023-09-15T20:01:15.879Z,,0,1,,4579.720000000001,response,ISIC_9596721.JPG,7,ISIC_4842269.JPG,ISIC_4842269.JPG,false,0,keypress(z),500,257977,257976,253379.72,253381,253396.28,257979.62,8,400,25,,ISIC_9596721.JPG
break,html.Screen,4_24_1,2023-09-15T20:01:15.879Z,,0,,,NaN,,,,,,false,,,,257977,257977,,257977,,257979.62,8,400,,,
break_continue,html.Screen,4_24_2,2023-09-15T20:01:15.879Z,,0,,,NaN,,,,,,false,,,,257977,257977,,257977,,257979.62,8,400,,,
sequence,flow.Sequence,4_24,2023-09-15T20:01:15.880Z,,0,,,4580.720000000001,completion,,,,,false,,,,257978,257977,253379.72,253381,253396.28,257979.62,8,400,,,
trial,html.Screen,4_25_0,2023-09-15T20:01:20.910Z,,0,1,,5028.380000000005,response,ISIC_8041078.JPG,4,ISIC_0012183.JPG,ISIC_8041078.JPG,false,1,keypress(m),500,263009,263008,257976.4,257978,257979.62,263012.94,8,400,26,,ISIC_0012183.JPG
break,html.Screen,4_25_1,2023-09-15T20:01:20.912Z,,0,,,NaN,,,,,,false,,,,263009,263009,,263009,,263012.94,8,400,,,
break_continue,html.Screen,4_25_2,2023-09-15T20:01:20.912Z,,0,,,NaN,,,,,,false,,,,263009,263009,,263009,,263012.94,8,400,,,
sequence,flow.Sequence,4_25,2023-09-15T20:01:20.912Z,,0,,,5029.380000000005,completion,,,,,false,,,,263009,263009,257976.4,257978,257979.62,263012.94,8,400,,,
trial,html.Screen,4_26_0,2023-09-15T20:01:27.066Z,,0,1,,6149.059999999998,response,ISIC_8397285.JPG,8,ISIC_0032133.JPG,ISIC_0032133.JPG,false,0,keypress(z),500,269163,269162,263008.36,263009,263012.94,269179.62,8,400,27,,ISIC_8397285.JPG
break,html.Screen,4_26_1,2023-09-15T20:01:27.066Z,,0,,,NaN,,,,,,false,,,,269163,269163,,269163,,269179.62,8,400,,,
break_continue,html.Screen,4_26_2,2023-09-15T20:01:27.066Z,,0,,,NaN,,,,,,false,,,,269163,269163,,269163,,269179.62,8,400,,,
sequence,flow.Sequence,4_26,2023-09-15T20:01:27.066Z,,0,,,6150.059999999998,completion,,,,,false,,,,269163,269163,263008.36,263009,263012.94,269179.62,8,400,,,
trial,html.Screen,4_27_0,2023-09-15T20:01:31.654Z,,0,1,,4572.380000000005,response,ISIC_0011039.JPG,1,ISIC_3478473.JPG,ISIC_3478473.JPG,false,0,keypress(z),500,273752,273752,269163.04,269163,269179.62,273762.94,8,400,28,,ISIC_0011039.JPG
break,html.Screen,4_27_1,2023-09-15T20:01:31.655Z,,0,,,NaN,,,,,,false,,,,273752,273752,,273752,,273762.94,8,400,,,
break_continue,html.Screen,4_27_2,2023-09-15T20:01:31.655Z,,0,,,NaN,,,,,,false,,,,273752,273752,,273752,,273762.94,8,400,,,
sequence,flow.Sequence,4_27,2023-09-15T20:01:31.655Z,,0,,,4572.380000000005,completion,,,,,false,,,,273753,273752,269163.04,269163,269179.62,273762.94,8,400,,,
trial,html.Screen,4_28_0,2023-09-15T20:01:36.040Z,,0,1,,4374.059999999998,response,ISIC_0029405.JPG,4,ISIC_0283506.JPG,ISIC_0029405.JPG,false,1,keypress(m),500,278137,278137,273751.46,273753,273762.94,278146.28,8,400,29,,ISIC_0283506.JPG
break,html.Screen,4_28_1,2023-09-15T20:01:36.040Z,,0,,,NaN,,,,,,false,,,,278138,278138,,278137,,278146.28,8,400,,,
break_continue,html.Screen,4_28_2,2023-09-15T20:01:36.041Z,,0,,,NaN,,,,,,false,,,,278138,278138,,278138,,278146.28,8,400,,,
sequence,flow.Sequence,4_28,2023-09-15T20:01:36.041Z,,0,,,4375.059999999998,completion,,,,,false,,,,278138,278138,273751.46,273753,273762.94,278146.28,8,400,,,
trial,html.Screen,4_29_0,2023-09-15T20:01:38.899Z,,0,1,,2848.719999999972,response,ISIC_0064997.JPG,10,ISIC_0024455.JPG,ISIC_0024455.JPG,false,0,keypress(z),500,280996,280995,278137.62,278138,278146.28,280996.28,8,400,30,,ISIC_0064997.JPG
break,html.Screen,4_29_1,2023-09-15T20:01:38.899Z,,0,,,NaN,,,,,,false,,,,280996,280996,,280996,,280996.28,8,400,,,
break_continue,html.Screen,4_29_2,2023-09-15T20:01:38.899Z,,0,,,NaN,,,,,,false,,,,280996,280996,,280996,,280996.28,8,400,,,
sequence,flow.Sequence,4_29,2023-09-15T20:01:38.899Z,,0,,,2849.719999999972,completion,,,,,false,,,,280996,280996,278137.62,278138,278146.28,280996.28,8,400,,,
trial,html.Screen,4_30_0,2023-09-15T20:01:43.959Z,,0,1,,5059.719999999972,response,ISIC_0025754.JPG,12,ISIC_0069058.JPG,ISIC_0069058.JPG,false,0,keypress(z),500,286057,286056,280995.88,280996,280996.28,286062.94,8,400,31,,ISIC_0025754.JPG
break,html.Screen,4_30_1,2023-09-15T20:01:43.959Z,,0,,,NaN,,,,,,false,,,,286057,286057,,286057,,286062.94,8,400,,,
break_continue,html.Screen,4_30_2,2023-09-15T20:01:43.959Z,,0,,,NaN,,,,,,false,,,,286058,286058,,286058,,286062.94,8,400,,,
sequence,flow.Sequence,4_30,2023-09-15T20:01:43.959Z,,0,,,5061.719999999972,completion,,,,,false,,,,286058,286058,280995.88,280996,280996.28,286062.94,8,400,,,
trial,html.Screen,4_31_0,2023-09-15T20:01:47.593Z,,0,1,,3627.0599999999977,response,ISIC_0064941.JPG,0,ISIC_0030597.JPG,ISIC_0064941.JPG,false,1,keypress(m),500,289690,289690,286056.56,286058,286062.94,289695.94,8,400,32,,ISIC_0030597.JPG
break,html.Screen,4_31_1,2023-09-15T20:01:47.593Z,,0,,,NaN,,,,,,false,,,,289690,289690,,289690,,289695.94,8,400,,,
break_continue,html.Screen,4_31_2,2023-09-15T20:01:47.594Z,,0,,,NaN,,,,,,false,,,,289691,289690,,289690,,289695.94,8,400,,,
sequence,flow.Sequence,4_31,2023-09-15T20:01:47.594Z,,0,,,3627.0599999999977,completion,,,,,false,,,,289691,289690,286056.56,286058,286062.94,289695.94,8,400,,,
trial,html.Screen,4_32_0,2023-09-15T20:01:53.845Z,,0,1,,6246.059999999998,response,ISIC_4001990.JPG,3,ISIC_2054180.JPG,ISIC_4001990.JPG,false,1,keypress(m),500,295942,295942,289689.94,289691,289695.94,295968.8,8,400,33,,ISIC_2054180.JPG
break,html.Screen,4_32_1,2023-09-15T20:01:53.845Z,,0,,,NaN,,,,,,false,,,,295942,295942,,295942,,295968.8,8,400,,,
break_continue,html.Screen,4_32_2,2023-09-15T20:01:53.846Z,,0,,,NaN,,,,,,false,,,,295942,295942,,295942,,295968.8,8,400,,,
sequence,flow.Sequence,4_32,2023-09-15T20:01:53.846Z,,0,,,6246.059999999998,completion,,,,,false,,,,295942,295942,289689.94,289691,289695.94,295968.8,8,400,,,
trial,html.Screen,4_33_0,2023-09-15T20:01:57.401Z,,0,1,,3530.2000000000116,response,ISIC_2365588.JPG,2,ISIC_2461360.JPG,ISIC_2365588.JPG,false,1,keypress(m),500,299499,299499,295952.04,295943,295968.8,299502.14,8,400,34,,ISIC_2461360.JPG
break,html.Screen,4_33_1,2023-09-15T20:01:57.401Z,,0,,,NaN,,,,,,false,,,,299499,299499,,299499,,299502.14,8,400,,,
break_continue,html.Screen,4_33_2,2023-09-15T20:01:57.401Z,,0,,,NaN,,,,,,false,,,,299499,299499,,299499,,299502.14,8,400,,,
sequence,flow.Sequence,4_33,2023-09-15T20:01:57.401Z,,0,,,3530.2000000000116,completion,,,,,false,,,,299499,299499,295952.04,295943,295968.8,299502.14,8,400,,,
trial,html.Screen,4_34_0,2023-09-15T20:02:00.906Z,,0,1,,3500.859999999986,response,ISIC_9927486.JPG,19,ISIC_8911740.JPG,ISIC_8911740.JPG,false,0,keypress(z),500,303003,303003,299498.44,299499,299502.14,303018.2,8,400,35,,ISIC_9927486.JPG
break,html.Screen,4_34_1,2023-09-15T20:02:00.906Z,,0,,,NaN,,,,,,false,,,,303003,303003,,303003,,303018.2,8,400,,,
break_continue,html.Screen,4_34_2,2023-09-15T20:02:00.906Z,,0,,,NaN,,,,,,false,,,,303004,303004,,303003,,303018.2,8,400,,,
sequence,flow.Sequence,4_34,2023-09-15T20:02:00.906Z,,0,,,3501.859999999986,completion,,,,,false,,,,303004,303004,299498.44,299499,299502.14,303018.2,8,400,,,
trial,html.Screen,4_35_0,2023-09-15T20:02:04.698Z,,0,1,,3775.7999999999884,response,ISIC_3416107.JPG,11,ISIC_5926550.JPG,ISIC_5926550.JPG,false,0,keypress(z),500,306795,306794,303003.34,303004,303018.2,306802.14,8,400,36,,ISIC_3416107.JPG
break,html.Screen,4_35_1,2023-09-15T20:02:04.698Z,,0,,,NaN,,,,,,false,,,,306795,306795,,306795,,306802.14,8,400,,,
break_continue,html.Screen,4_35_2,2023-09-15T20:02:04.698Z,,0,,,NaN,,,,,,false,,,,306795,306795,,306795,,306802.14,8,400,,,
sequence,flow.Sequence,4_35,2023-09-15T20:02:04.698Z,,0,,,3776.7999999999884,completion,,,,,false,,,,306795,306795,303003.34,303004,303018.2,306802.14,8,400,,,
trial,html.Screen,4_36_0,2023-09-15T20:02:08.361Z,,0,1,,3655.859999999986,response,ISIC_0025413.JPG,15,ISIC_6446779.JPG,ISIC_6446779.JPG,false,0,keypress(z),500,310458,310458,306794.7,306795,306802.14,310485.48,8,400,37,,ISIC_0025413.JPG
break,html.Screen,4_36_1,2023-09-15T20:02:08.361Z,,0,,,NaN,,,,,,false,,,,310458,310458,,310458,,310485.48,8,400,,,
break_continue,html.Screen,4_36_2,2023-09-15T20:02:08.361Z,,0,,,NaN,,,,,,false,,,,310458,310458,,310458,,310485.48,8,400,,,
sequence,flow.Sequence,4_36,2023-09-15T20:02:08.362Z,,0,,,3655.859999999986,completion,,,,,false,,,,310459,310458,306794.7,306795,306802.14,310485.48,8,400,,,
trial,html.Screen,4_37_0,2023-09-15T20:02:12.049Z,,0,1,,3660.5200000000186,response,ISIC_0028573.JPG,16,ISIC_0014108.JPG,ISIC_0028573.JPG,false,1,keypress(m),500,314146,314146,310468.34,310459,310485.48,314152.14,8,400,38,,ISIC_0014108.JPG
break,html.Screen,4_37_1,2023-09-15T20:02:12.049Z,,0,,,NaN,,,,,,false,,,,314147,314147,,314146,,314152.14,8,400,,,
break_continue,html.Screen,4_37_2,2023-09-15T20:02:12.050Z,,0,,,NaN,,,,,,false,,,,314147,314147,,314147,,314152.14,8,400,,,
sequence,flow.Sequence,4_37,2023-09-15T20:02:12.050Z,,0,,,3661.5200000000186,completion,,,,,false,,,,314147,314147,310468.34,310459,310485.48,314152.14,8,400,,,
trial,html.Screen,4_38_0,2023-09-15T20:02:15.838Z,,0,1,,3782.859999999986,response,ISIC_0011988.JPG,14,ISIC_4128342.JPG,ISIC_0011988.JPG,false,1,keypress(m),500,317935,317935,314146.28,314147,314152.14,317952.14,8,400,39,,ISIC_4128342.JPG
break,html.Screen,4_38_1,2023-09-15T20:02:15.839Z,,0,,,NaN,,,,,,false,,,,317935,317935,,317935,,317952.14,8,400,,,
break_continue,html.Screen,4_38_2,2023-09-15T20:02:15.839Z,,0,,,NaN,,,,,,false,,,,317936,317936,,317936,,317952.14,8,400,,,
sequence,flow.Sequence,4_38,2023-09-15T20:02:15.839Z,,0,,,3783.859999999986,completion,,,,,false,,,,317936,317936,314146.28,314147,314152.14,317952.14,8,400,,,
trial,html.Screen,4_39_0,2023-09-15T20:02:18.850Z,,0,1,,2994.859999999986,response,ISIC_2000319.JPG,7,ISIC_3193774.JPG,ISIC_3193774.JPG,false,0,keypress(z),500,320947,320947,317935.48,317936,317952.14,320952.14,8,400,40,,ISIC_2000319.JPG
break,html.Screen,4_39_1,2023-09-15T20:02:18.851Z,,0,,,NaN,,,,,,false,,,,320947,320947,,320947,,320952.14,8,400,,,
break_continue,html.Screen,4_39_2,2023-09-15T20:02:18.851Z,,0,,,NaN,,,,,,false,,,,320949,320948,,320947,,320952.14,8,400,,,
sequence,flow.Sequence,4_39,2023-09-15T20:02:18.851Z,,0,,,2995.859999999986,completion,,,,,false,,,,320949,320948,317935.48,317936,317952.14,320952.14,8,400,,,
trial,html.Screen,4_40_0,2023-09-15T20:02:22.590Z,,0,1,,3735.859999999986,response,ISIC_0000072.JPG,13,ISIC_6793983.JPG,ISIC_0000072.JPG,false,1,keypress(m),500,324688,324688,320947.52,320949,320952.14,324701.34,8,400,41,,ISIC_6793983.JPG
break,html.Screen,4_40_1,2023-09-15T20:02:22.591Z,,0,,,NaN,,,,,,false,,,,324689,324688,,324688,,324701.34,8,400,,,
break_continue,html.Screen,4_40_2,2023-09-15T20:02:22.591Z,,0,,,NaN,,,,,,false,,,,324689,324689,,324689,,324701.34,8,400,,,
sequence,flow.Sequence,4_40,2023-09-15T20:02:22.591Z,,0,,,3736.859999999986,completion,,,,,false,,,,324689,324689,320947.52,320949,320952.14,324701.34,8,400,,,
trial,html.Screen,4_41_0,2023-09-15T20:02:34.089Z,,0,1,,11516.879999999946,timeout,ISIC_6013764.JPG,3,ISIC_0010768.JPG,,false,,,500,336186,336186,324688.18,324689,324701.34,336218.22,8,400,42,,
break,html.Screen,4_41_1,2023-09-15T20:02:34.089Z,,0,,,NaN,,,,,,false,,,,336187,336187,,336186,,336218.22,8,400,,,
break_continue,html.Screen,4_41_2,2023-09-15T20:02:34.090Z,,0,,,NaN,,,,,,false,,,,336187,336187,,336187,,336218.22,8,400,,,
sequence,flow.Sequence,4_41,2023-09-15T20:02:34.090Z,,0,,,11485.659999999974,completion,,,,,false,,,,336187,336187,324688.18,324689,324701.34,336218.22,8,400,,,
trial,html.Screen,4_42_0,2023-09-15T20:02:37.394Z,,0,1,,3272.780000000028,response,ISIC_6162545.JPG,3,ISIC_0065394.JPG,ISIC_6162545.JPG,false,1,keypress(m),500,339492,339491,336202.14,336187,336218.22,339518.8,8,400,43,,ISIC_0065394.JPG
break,html.Screen,4_42_1,2023-09-15T20:02:37.395Z,,0,,,NaN,,,,,,false,,,,339492,339492,,339492,,339518.8,8,400,,,
break_continue,html.Screen,4_42_2,2023-09-15T20:02:37.395Z,,0,,,NaN,,,,,,false,,,,339492,339492,,339492,,339518.8,8,400,,,
sequence,flow.Sequence,4_42,2023-09-15T20:02:37.395Z,,0,,,3273.780000000028,completion,,,,,false,,,,339492,339492,336202.14,336187,336218.22,339518.8,8,400,,,
trial,html.Screen,4_43_0,2023-09-15T20:02:42.400Z,,0,1,,4978.200000000012,response,ISIC_0029934.JPG,0,ISIC_4580926.JPG,ISIC_4580926.JPG,false,0,keypress(z),500,344497,344497,339501.6,339492,339518.8,344502.14,8,400,44,,ISIC_0029934.JPG
break,html.Screen,4_43_1,2023-09-15T20:02:42.400Z,,0,,,NaN,,,,,,false,,,,344497,344497,,344497,,344502.14,8,400,,,
break_continue,html.Screen,4_43_2,2023-09-15T20:02:42.400Z,,0,,,NaN,,,,,,false,,,,344498,344498,,344498,,344502.14,8,400,,,
sequence,flow.Sequence,4_43,2023-09-15T20:02:42.401Z,,0,,,4979.200000000012,completion,,,,,false,,,,344498,344498,339501.6,339492,339518.8,344502.14,8,400,,,
trial,html.Screen,4_44_0,2023-09-15T20:02:46.394Z,,0,1,,3988.859999999986,response,ISIC_0032812.JPG,6,ISIC_0027089.JPG,ISIC_0027089.JPG,false,0,keypress(z),500,348492,348491,344497.1,344498,344502.14,348502.2,8,400,45,,ISIC_0032812.JPG
break,html.Screen,4_44_1,2023-09-15T20:02:46.395Z,,0,,,NaN,,,,,,false,,,,348492,348492,,348492,,348502.2,8,400,,,
break_continue,html.Screen,4_44_2,2023-09-15T20:02:46.395Z,,0,,,NaN,,,,,,false,,,,348492,348492,,348492,,348502.2,8,400,,,
sequence,flow.Sequence,4_44,2023-09-15T20:02:46.395Z,,0,,,3989.859999999986,completion,,,,,false,,,,348492,348492,344497.1,344498,344502.14,348502.2,8,400,,,
trial,html.Screen,4_45_0,2023-09-15T20:02:49.231Z,,0,1,,2825.7999999999884,response,ISIC_0056921.JPG,4,ISIC_2072219.JPG,ISIC_2072219.JPG,false,0,keypress(z),500,351328,351328,348491.28,348492,348502.2,351336.26,8,400,46,,ISIC_0056921.JPG
break,html.Screen,4_45_1,2023-09-15T20:02:49.231Z,,0,,,NaN,,,,,,false,,,,351329,351329,,351328,,351336.26,8,400,,,
break_continue,html.Screen,4_45_2,2023-09-15T20:02:49.232Z,,0,,,NaN,,,,,,false,,,,351329,351329,,351329,,351336.26,8,400,,,
sequence,flow.Sequence,4_45,2023-09-15T20:02:49.232Z,,0,,,2826.7999999999884,completion,,,,,false,,,,351330,351329,348491.28,348492,348502.2,351336.26,8,400,,,
trial,html.Screen,4_46_0,2023-09-15T20:02:52.395Z,,0,1,,3155.7399999999907,response,ISIC_5789052.JPG,13,ISIC_5797404.JPG,ISIC_5797404.JPG,false,0,keypress(z),500,354492,354492,351327.88,351330,351336.26,354519.6,8,400,47,,ISIC_5789052.JPG
break,html.Screen,4_46_1,2023-09-15T20:02:52.395Z,,0,,,NaN,,,,,,false,,,,354492,354492,,354492,,354519.6,8,400,,,
break_continue,html.Screen,4_46_2,2023-09-15T20:02:52.395Z,,0,,,NaN,,,,,,false,,,,354492,354492,,354492,,354519.6,8,400,,,
sequence,flow.Sequence,4_46,2023-09-15T20:02:52.395Z,,0,,,3155.7399999999907,completion,,,,,false,,,,354492,354492,351327.88,351330,351336.26,354519.6,8,400,,,
trial,html.Screen,4_47_0,2023-09-15T20:02:55.544Z,,0,1,,3120.4000000000233,response,ISIC_0028501.JPG,2,ISIC_9768421.JPG,ISIC_9768421.JPG,false,0,keypress(z),500,357640,357640,354502.92,354492,354519.6,357652.92,8,400,48,,ISIC_0028501.JPG
break,html.Screen,4_47_1,2023-09-15T20:02:55.544Z,,0,,,NaN,,,,,,false,,,,357642,357640,,357640,,357652.92,8,400,,,
break_continue,html.Screen,4_47_2,2023-09-15T20:02:55.544Z,,0,,,NaN,,,,,,false,,,,357642,357642,,357642,,357652.92,8,400,,,
sequence,flow.Sequence,4_47,2023-09-15T20:02:55.544Z,,0,,,3122.4000000000233,completion,,,,,false,,,,357642,357642,354502.92,354492,354519.6,357652.92,8,400,,,
trial,html.Screen,4_48_0,2023-09-15T20:02:58.629Z,,0,1,,3073.0800000000163,response,ISIC_2430137.JPG,16,ISIC_0000523.JPG,ISIC_2430137.JPG,false,1,keypress(m),500,360726,360726,357640.78,357642,357652.92,360736.26,8,400,49,,ISIC_0000523.JPG
break,html.Screen,4_48_1,2023-09-15T20:02:58.630Z,,0,,,NaN,,,,,,false,,,,360727,360727,,360726,,360736.26,8,400,,,
break_continue,html.Screen,4_48_2,2023-09-15T20:02:58.630Z,,0,,,NaN,,,,,,false,,,,360727,360727,,360727,,360736.26,8,400,,,
sequence,flow.Sequence,4_48,2023-09-15T20:02:58.630Z,,0,,,3074.0800000000163,completion,,,,,false,,,,360727,360727,357640.78,357642,357652.92,360736.26,8,400,,,
trial,html.Screen,4_49_0,2023-09-15T20:03:01.898Z,,0,1,,3257.7399999999907,response,ISIC_0027935.JPG,0,ISIC_0061749.JPG,ISIC_0061749.JPG,false,0,keypress(z),500,363995,363994,360726.64,360728,360736.26,364002.92,8,400,50,,ISIC_0027935.JPG
break,html.Screen,4_49_1,2023-09-15T20:03:11.890Z,,0,,,10000,timeout,,,,,false,,,,373987,373985.96,363995.14,363995,364002.92,374002.92,8,400,,,
break_continue,html.Screen,4_49_2,2023-09-15T20:03:16.603Z,,0,,,4684.080000000016,response,,,,,false,continue,keypress(Space),,378701,378687,373985.96,373987,374002.92,378702.92,8,400,,,
sequence,flow.Sequence,4_49,2023-09-15T20:03:16.603Z,,0,,,17950.73999999999,completion,,,,,false,,,,378701,378687,360726.64,360727,360736.26,378702.92,8,400,,,
trial,html.Screen,4_50_0,2023-09-15T20:03:22.471Z,,0,2,,5866.080000000016,response,ISIC_5482805.JPG,2,ISIC_0009985.JPG,ISIC_0009985.JPG,false,0,keypress(z),500,384569,384569,378701,378701,378702.92,384586.26,8,400,1,,ISIC_5482805.JPG
break,html.Screen,4_50_1,2023-09-15T20:03:22.473Z,,0,,,NaN,,,,,,false,,,,384570,384570,,384569,,384586.26,8,400,,,
break_continue,html.Screen,4_50_2,2023-09-15T20:03:22.473Z,,0,,,NaN,,,,,,false,,,,384570,384570,,384570,,384586.26,8,400,,,
sequence,flow.Sequence,4_50,2023-09-15T20:03:22.473Z,,0,,,5867.080000000016,completion,,,,,false,,,,384570,384570,378701,378701,378702.92,384586.26,8,400,,,
trial,html.Screen,4_51_0,2023-09-15T20:03:25.569Z,,0,2,,3078.7399999999907,response,ISIC_9219692.JPG,13,ISIC_0027304.JPG,ISIC_0027304.JPG,false,0,keypress(z),500,387665,387665,384569.18,384570,384586.26,387669.6,8,400,2,,ISIC_9219692.JPG
break,html.Screen,4_51_1,2023-09-15T20:03:25.569Z,,0,,,NaN,,,,,,false,,,,387665,387665,,387665,,387669.6,8,400,,,
break_continue,html.Screen,4_51_2,2023-09-15T20:03:25.569Z,,0,,,NaN,,,,,,false,,,,387666,387666,,387665,,387669.6,8,400,,,
sequence,flow.Sequence,4_51,2023-09-15T20:03:25.569Z,,0,,,3079.7399999999907,completion,,,,,false,,,,387666,387666,384569.18,384570,384586.26,387669.6,8,400,,,
trial,html.Screen,4_52_0,2023-09-15T20:03:29.279Z,,0,2,,3706.4000000000233,response,ISIC_4863784.JPG,1,ISIC_0033595.JPG,ISIC_4863784.JPG,false,1,keypress(m),500,391376,391376,387665.52,387666,387669.6,391386.26,8,400,3,,ISIC_0033595.JPG
break,html.Screen,4_52_1,2023-09-15T20:03:29.279Z,,0,,,NaN,,,,,,false,,,,391376,391376,,391376,,391386.26,8,400,,,
break_continue,html.Screen,4_52_2,2023-09-15T20:03:29.279Z,,0,,,NaN,,,,,,false,,,,391376,391376,,391376,,391386.26,8,400,,,
sequence,flow.Sequence,4_52,2023-09-15T20:03:29.279Z,,0,,,3706.4000000000233,completion,,,,,false,,,,391376,391376,387665.52,387666,387669.6,391386.26,8,400,,,
trial,html.Screen,4_53_0,2023-09-15T20:03:31.713Z,,0,2,,2424.7399999999907,response,ISIC_0440582.JPG,4,ISIC_1373468.JPG,ISIC_0440582.JPG,false,1,keypress(m),500,393811,393811,391376.24,391377,391386.26,393819.6,8,400,4,,ISIC_1373468.JPG
break,html.Screen,4_53_1,2023-09-15T20:03:31.714Z,,0,,,NaN,,,,,,false,,,,393811,393811,,393811,,393819.6,8,400,,,
break_continue,html.Screen,4_53_2,2023-09-15T20:03:31.714Z,,0,,,NaN,,,,,,false,,,,393811,393811,,393811,,393819.6,8,400,,,
sequence,flow.Sequence,4_53,2023-09-15T20:03:31.714Z,,0,,,2424.7399999999907,completion,,,,,false,,,,393812,393811,391376.24,391376,391386.26,393819.6,8,400,,,
trial,html.Screen,4_54_0,2023-09-15T20:03:35.265Z,,0,2,,3542.4000000000233,response,ISIC_0024675.JPG,6,ISIC_0033878.JPG,ISIC_0033878.JPG,false,0,keypress(z),500,397362,397362,393810.36,393812,393819.6,397369.6,8,400,5,,ISIC_0024675.JPG
break,html.Screen,4_54_1,2023-09-15T20:03:35.266Z,,0,,,NaN,,,,,,false,,,,397363,397363,,397362,,397369.6,8,400,,,
break_continue,html.Screen,4_54_2,2023-09-15T20:03:35.266Z,,0,,,NaN,,,,,,false,,,,397363,397363,,397363,,397369.6,8,400,,,
sequence,flow.Sequence,4_54,2023-09-15T20:03:35.266Z,,0,,,3543.4000000000233,completion,,,,,false,,,,397363,397363,393810.36,393812,393819.6,397369.6,8,400,,,
trial,html.Screen,4_55_0,2023-09-15T20:03:38.625Z,,0,2,,3353.4000000000233,response,ISIC_5300774.JPG,13,ISIC_0029711.JPG,ISIC_5300774.JPG,false,1,keypress(m),500,400723,400723,397362.04,397363,397369.6,400736.26,8,400,6,,ISIC_0029711.JPG
break,html.Screen,4_55_1,2023-09-15T20:03:38.626Z,,0,,,NaN,,,,,,false,,,,400723,400723,,400723,,400736.26,8,400,,,
break_continue,html.Screen,4_55_2,2023-09-15T20:03:38.626Z,,0,,,NaN,,,,,,false,,,,400723,400723,,400723,,400736.26,8,400,,,
sequence,flow.Sequence,4_55,2023-09-15T20:03:38.626Z,,0,,,3353.4000000000233,completion,,,,,false,,,,400724,400723,397362.04,397363,397369.6,400736.26,8,400,,,
trial,html.Screen,4_56_0,2023-09-15T20:03:41.091Z,,0,2,,2451.7399999999907,response,ISIC_1132496.JPG,7,ISIC_0013977.JPG,ISIC_0013977.JPG,false,0,keypress(z),500,403188,403188,400722.72,400724,400736.26,403202.92,8,400,7,,ISIC_1132496.JPG
break,html.Screen,4_56_1,2023-09-15T20:03:41.091Z,,0,,,NaN,,,,,,false,,,,403188,403188,,403188,,403202.92,8,400,,,
break_continue,html.Screen,4_56_2,2023-09-15T20:03:41.091Z,,0,,,NaN,,,,,,false,,,,403188,403188,,403188,,403202.92,8,400,,,
sequence,flow.Sequence,4_56,2023-09-15T20:03:41.091Z,,0,,,2451.7399999999907,completion,,,,,false,,,,403188,403188,400722.72,400724,400736.26,403202.92,8,400,,,
trial,html.Screen,4_57_0,2023-09-15T20:03:45.367Z,,0,2,,4260.080000000016,response,ISIC_1472731.JPG,2,ISIC_3013468.JPG,ISIC_1472731.JPG,false,1,keypress(m),500,407463,407463,403187.6,403188,403202.92,407469.6,8,400,8,,ISIC_3013468.JPG
break,html.Screen,4_57_1,2023-09-15T20:03:45.367Z,,0,,,NaN,,,,,,false,,,,407463,407463,,407463,,407469.6,8,400,,,
break_continue,html.Screen,4_57_2,2023-09-15T20:03:45.367Z,,0,,,NaN,,,,,,false,,,,407463,407463,,407463,,407469.6,8,400,,,
sequence,flow.Sequence,4_57,2023-09-15T20:03:45.367Z,,0,,,4260.080000000016,completion,,,,,false,,,,407463,407463,403187.6,403188,403202.92,407469.6,8,400,,,
trial,html.Screen,4_58_0,2023-09-15T20:03:48.540Z,,0,2,,3167.4000000000233,response,ISIC_1508215.JPG,0,ISIC_6392089.JPG,ISIC_6392089.JPG,false,0,keypress(z),500,410637,410637,407463.44,407465,407469.6,410652.92,8,400,9,,ISIC_1508215.JPG
break,html.Screen,4_58_1,2023-09-15T20:03:48.540Z,,0,,,NaN,,,,,,false,,,,410638,410638,,410637,,410652.92,8,400,,,
break_continue,html.Screen,4_58_2,2023-09-15T20:03:48.540Z,,0,,,NaN,,,,,,false,,,,410638,410638,,410638,,410652.92,8,400,,,
sequence,flow.Sequence,4_58,2023-09-15T20:03:48.540Z,,0,,,3168.4000000000233,completion,,,,,false,,,,410638,410638,407463.44,407464,407469.6,410652.92,8,400,,,
trial,html.Screen,4_59_0,2023-09-15T20:03:52.646Z,,0,2,,4090.0800000000163,response,ISIC_0058206.JPG,7,ISIC_5026709.JPG,ISIC_0058206.JPG,false,1,keypress(m),500,414743,414743,410636.26,410638,410652.92,414752.92,8,400,10,,ISIC_5026709.JPG
break,html.Screen,4_59_1,2023-09-15T20:03:52.647Z,,0,,,NaN,,,,,,false,,,,414744,414744,,414744,,414752.92,8,400,,,
break_continue,html.Screen,4_59_2,2023-09-15T20:03:52.647Z,,0,,,NaN,,,,,,false,,,,414744,414744,,414744,,414752.92,8,400,,,
sequence,flow.Sequence,4_59,2023-09-15T20:03:52.647Z,,0,,,4091.0800000000163,completion,,,,,false,,,,414744,414744,410636.26,410638,410652.92,414752.92,8,400,,,
trial,html.Screen,4_60_0,2023-09-15T20:03:55.621Z,,0,2,,2964.0800000000163,response,ISIC_3651451.JPG,5,ISIC_0033738.JPG,ISIC_3651451.JPG,false,1,keypress(m),500,417718,417717,414743.58,414744,414752.92,417719.04,8,400,11,,ISIC_0033738.JPG
break,html.Screen,4_60_1,2023-09-15T20:03:55.621Z,,0,,,NaN,,,,,,false,,,,417718,417718,,417718,,417719.04,8,400,,,
break_continue,html.Screen,4_60_2,2023-09-15T20:03:55.621Z,,0,,,NaN,,,,,,false,,,,417718,417718,,417718,,417719.04,8,400,,,
sequence,flow.Sequence,4_60,2023-09-15T20:03:55.621Z,,0,,,2965.0800000000163,completion,,,,,false,,,,417718,417718,414743.58,414744,414752.92,417719.04,8,400,,,
trial,html.Screen,4_61_0,2023-09-15T20:03:57.999Z,,0,2,,2376.960000000021,response,ISIC_4412555.JPG,9,ISIC_6948604.JPG,ISIC_6948604.JPG,false,0,keypress(z),500,420096,420096,417717.8,417718,417719.04,420102.92,8,400,12,,ISIC_4412555.JPG
break,html.Screen,4_61_1,2023-09-15T20:03:58.000Z,,0,,,NaN,,,,,,false,,,,420096,420096,,420096,,420102.92,8,400,,,
break_continue,html.Screen,4_61_2,2023-09-15T20:03:58.000Z,,0,,,NaN,,,,,,false,,,,420097,420097,,420097,,420102.92,8,400,,,
sequence,flow.Sequence,4_61,2023-09-15T20:03:58.000Z,,0,,,2377.960000000021,completion,,,,,false,,,,420097,420097,417717.8,417718,417719.04,420102.92,8,400,,,
trial,html.Screen,4_62_0,2023-09-15T20:04:00.889Z,,0,2,,2883.0800000000163,response,ISIC_0072286.JPG,10,ISIC_0025217.JPG,ISIC_0072286.JPG,false,1,keypress(m),500,422986,422986,420096.2,420097,420102.92,422986.26,8,400,13,,ISIC_0025217.JPG
break,html.Screen,4_62_1,2023-09-15T20:04:00.889Z,,0,,,NaN,,,,,,false,,,,422987,422986,,422986,,422986.26,8,400,,,
break_continue,html.Screen,4_62_2,2023-09-15T20:04:00.889Z,,0,,,NaN,,,,,,false,,,,422987,422987,,422987,,422986.26,8,400,,,
sequence,flow.Sequence,4_62,2023-09-15T20:04:00.890Z,,0,,,2884.0800000000163,completion,,,,,false,,,,422987,422987,420096.2,420097,420102.92,422986.26,8,400,,,
trial,html.Screen,4_63_0,2023-09-15T20:04:03.547Z,,0,2,,2656.7399999999907,response,ISIC_3413138.JPG,7,ISIC_0939648.JPG,ISIC_3413138.JPG,false,1,keypress(m),500,425643,425643,422986.12,422987,422986.26,425652.92,8,400,14,,ISIC_0939648.JPG
break,html.Screen,4_63_1,2023-09-15T20:04:03.547Z,,0,,,NaN,,,,,,false,,,,425644,425643,,425643,,425652.92,8,400,,,
break_continue,html.Screen,4_63_2,2023-09-15T20:04:03.547Z,,0,,,NaN,,,,,,false,,,,425644,425644,,425644,,425652.92,8,400,,,
sequence,flow.Sequence,4_63,2023-09-15T20:04:03.547Z,,0,,,2657.7399999999907,completion,,,,,false,,,,425644,425644,422986.12,422987,422986.26,425652.92,8,400,,,
trial,html.Screen,4_64_0,2023-09-15T20:04:08.137Z,,0,2,,4582.080000000016,response,ISIC_0027576.JPG,9,ISIC_2260249.JPG,ISIC_2260249.JPG,false,0,keypress(z),500,430235,430235,425643.64,425644,425652.92,430237.98,8,400,15,,ISIC_0027576.JPG
break,html.Screen,4_64_1,2023-09-15T20:04:08.138Z,,0,,,NaN,,,,,,false,,,,430235,430235,,430235,,430237.98,8,400,,,
break_continue,html.Screen,4_64_2,2023-09-15T20:04:08.138Z,,0,,,NaN,,,,,,false,,,,430235,430235,,430235,,430237.98,8,400,,,
sequence,flow.Sequence,4_64,2023-09-15T20:04:08.138Z,,0,,,4582.080000000016,completion,,,,,false,,,,430236,430235,425643.64,425644,425652.92,430237.98,8,400,,,
trial,html.Screen,4_65_0,2023-09-15T20:04:12.703Z,,0,2,,4562.020000000019,response,ISIC_0034262.JPG,9,ISIC_4026540.JPG,ISIC_4026540.JPG,false,0,keypress(z),500,434800,434800,430234.7,430236,430237.98,434804.4,8,400,16,,ISIC_0034262.JPG
break,html.Screen,4_65_1,2023-09-15T20:04:12.703Z,,0,,,NaN,,,,,,false,,,,434800,434800,,434800,,434804.4,8,400,,,
break_continue,html.Screen,4_65_2,2023-09-15T20:04:12.703Z,,0,,,NaN,,,,,,false,,,,434801,434800,,434800,,434804.4,8,400,,,
sequence,flow.Sequence,4_65,2023-09-15T20:04:12.703Z,,0,,,4562.020000000019,completion,,,,,false,,,,434801,434800,430234.7,430236,430237.98,434804.4,8,400,,,
trial,html.Screen,4_66_0,2023-09-15T20:04:15.359Z,,0,2,,2651.5999999999767,response,ISIC_8709211.JPG,10,ISIC_0071303.JPG,ISIC_8709211.JPG,false,1,keypress(m),500,437456,437456,434800.16,434801,434804.4,437470.56,8,400,17,,ISIC_0071303.JPG
break,html.Screen,4_66_1,2023-09-15T20:04:15.359Z,,0,,,NaN,,,,,,false,,,,437457,437457,,437457,,437470.56,8,400,,,
break_continue,html.Screen,4_66_2,2023-09-15T20:04:15.359Z,,0,,,NaN,,,,,,false,,,,437457,437457,,437457,,437470.56,8,400,,,
sequence,flow.Sequence,4_66,2023-09-15T20:04:15.360Z,,0,,,2652.5999999999767,completion,,,,,false,,,,437457,437457,434800.16,434801,434804.4,437470.56,8,400,,,
trial,html.Screen,4_67_0,2023-09-15T20:04:18.656Z,,0,2,,3282.4400000000023,response,ISIC_0072990.JPG,11,ISIC_2051564.JPG,ISIC_2051564.JPG,false,0,keypress(z),500,440753,440753,437456.28,437457,437470.56,440754.2,8,400,18,,ISIC_0072990.JPG
break,html.Screen,4_67_1,2023-09-15T20:04:18.657Z,,0,,,NaN,,,,,,false,,,,440754,440754,,440753,,440754.2,8,400,,,
break_continue,html.Screen,4_67_2,2023-09-15T20:04:18.657Z,,0,,,NaN,,,,,,false,,,,440754,440754,,440754,,440754.2,8,400,,,
sequence,flow.Sequence,4_67,2023-09-15T20:04:18.657Z,,0,,,3283.4400000000023,completion,,,,,false,,,,440754,440754,437456.28,437457,437470.56,440754.2,8,400,,,
trial,html.Screen,4_68_0,2023-09-15T20:04:21.771Z,,0,2,,3112.7999999999884,response,ISIC_0054670.JPG,18,ISIC_6511689.JPG,ISIC_0054670.JPG,false,1,keypress(m),500,443867,443867,440753.74,440755,440754.2,443871.3,8,400,19,,ISIC_6511689.JPG
break,html.Screen,4_68_1,2023-09-15T20:04:21.771Z,,0,,,NaN,,,,,,false,,,,443868,443868,,443867,,443871.3,8,400,,,
break_continue,html.Screen,4_68_2,2023-09-15T20:04:21.771Z,,0,,,NaN,,,,,,false,,,,443868,443868,,443868,,443871.3,8,400,,,
sequence,flow.Sequence,4_68,2023-09-15T20:04:21.771Z,,0,,,3113.7999999999884,completion,,,,,false,,,,443868,443868,440753.74,440754,440754.2,443871.3,8,400,,,
trial,html.Screen,4_69_0,2023-09-15T20:04:24.111Z,,0,2,,2336.7000000000116,response,ISIC_9754098.JPG,11,ISIC_8161933.JPG,ISIC_8161933.JPG,false,0,keypress(z),500,446208,446208,443867.6,443868,443871.3,446220.6,8,400,20,,ISIC_9754098.JPG
break,html.Screen,4_69_1,2023-09-15T20:04:24.112Z,,0,,,NaN,,,,,,false,,,,446209,446209,,446208,,446220.6,8,400,,,
break_continue,html.Screen,4_69_2,2023-09-15T20:04:24.112Z,,0,,,NaN,,,,,,false,,,,446209,446209,,446209,,446220.6,8,400,,,
sequence,flow.Sequence,4_69,2023-09-15T20:04:24.112Z,,0,,,2337.7000000000116,completion,,,,,false,,,,446209,446209,443867.6,443868,443871.3,446220.6,8,400,,,
trial,html.Screen,4_70_0,2023-09-15T20:04:27.425Z,,0,2,,3300.4000000000233,response,ISIC_0014982.JPG,17,ISIC_3475932.JPG,ISIC_0014982.JPG,false,1,keypress(m),500,449522,449521,446208.08,446209,446220.6,449537.98,8,400,21,,ISIC_3475932.JPG
break,html.Screen,4_70_1,2023-09-15T20:04:27.425Z,,0,,,NaN,,,,,,false,,,,449522,449522,,449522,,449537.98,8,400,,,
break_continue,html.Screen,4_70_2,2023-09-15T20:04:27.425Z,,0,,,NaN,,,,,,false,,,,449522,449522,,449522,,449537.98,8,400,,,
sequence,flow.Sequence,4_70,2023-09-15T20:04:27.425Z,,0,,,3301.4000000000233,completion,,,,,false,,,,449522,449522,446208.08,446209,446220.6,449537.98,8,400,,,
trial,html.Screen,4_71_0,2023-09-15T20:04:30.111Z,,0,2,,2669.0200000000186,response,ISIC_9876004.JPG,7,ISIC_9276931.JPG,ISIC_9276931.JPG,false,0,keypress(z),500,452208,452207,449521.62,449522,449537.98,452221.3,8,400,22,,ISIC_9876004.JPG
break,html.Screen,4_71_1,2023-09-15T20:04:30.111Z,,0,,,NaN,,,,,,false,,,,452208,452208,,452208,,452221.3,8,400,,,
break_continue,html.Screen,4_71_2,2023-09-15T20:04:30.111Z,,0,,,NaN,,,,,,false,,,,452208,452208,,452208,,452221.3,8,400,,,
sequence,flow.Sequence,4_71,2023-09-15T20:04:30.111Z,,0,,,2670.0200000000186,completion,,,,,false,,,,452208,452208,449521.62,449522,449537.98,452221.3,8,400,,,
trial,html.Screen,4_72_0,2023-09-15T20:04:32.758Z,,0,2,,2633.7000000000116,response,ISIC_0028018.JPG,13,ISIC_0070313.JPG,ISIC_0028018.JPG,false,1,keypress(m),500,454855,454855,452207.64,452208,452221.3,454871.3,8,400,23,,ISIC_0070313.JPG
break,html.Screen,4_72_1,2023-09-15T20:04:32.758Z,,0,,,NaN,,,,,,false,,,,454856,454856,,454856,,454871.3,8,400,,,
break_continue,html.Screen,4_72_2,2023-09-15T20:04:32.758Z,,0,,,NaN,,,,,,false,,,,454856,454856,,454856,,454871.3,8,400,,,
sequence,flow.Sequence,4_72,2023-09-15T20:04:32.759Z,,0,,,2634.7000000000116,completion,,,,,false,,,,454856,454856,452207.64,452208,452221.3,454871.3,8,400,,,
trial,html.Screen,4_73_0,2023-09-15T20:04:35.130Z,,0,2,,2354.7000000000116,response,ISIC_0011799.JPG,0,ISIC_0014559.JPG,ISIC_0014559.JPG,false,0,keypress(z),500,457226,457226,454855.38,454856,454871.3,457237.98,8,400,24,,ISIC_0011799.JPG
break,html.Screen,4_73_1,2023-09-15T20:04:35.130Z,,0,,,NaN,,,,,,false,,,,457227,457226,,457226,,457237.98,8,400,,,
break_continue,html.Screen,4_73_2,2023-09-15T20:04:35.130Z,,0,,,NaN,,,,,,false,,,,457227,457227,,457227,,457237.98,8,400,,,
sequence,flow.Sequence,4_73,2023-09-15T20:04:35.130Z,,0,,,2355.7000000000116,completion,,,,,false,,,,457227,457227,454855.38,454856,454871.3,457237.98,8,400,,,
trial,html.Screen,4_74_0,2023-09-15T20:04:38.841Z,,0,2,,3700.0200000000186,response,ISIC_0034012.JPG,15,ISIC_0057067.JPG,ISIC_0034012.JPG,false,1,keypress(m),500,460938,460938,457226.56,457227,457237.98,460954.28,8,400,25,,ISIC_0057067.JPG
break,html.Screen,4_74_1,2023-09-15T20:04:38.842Z,,0,,,NaN,,,,,,false,,,,460938,460938,,460938,,460954.28,8,400,,,
break_continue,html.Screen,4_74_2,2023-09-15T20:04:38.842Z,,0,,,NaN,,,,,,false,,,,460939,460938,,460938,,460954.28,8,400,,,
sequence,flow.Sequence,4_74,2023-09-15T20:04:38.842Z,,0,,,3700.0200000000186,completion,,,,,false,,,,460939,460938,457226.56,457227,457237.98,460954.28,8,400,,,
trial,html.Screen,4_75_0,2023-09-15T20:04:41.939Z,,0,2,,3081.719999999972,response,ISIC_0033496.JPG,1,ISIC_5772938.JPG,ISIC_0033496.JPG,false,1,keypress(m),500,464036,464036,460938.12,460939,460954.28,464037.98,8,400,26,,ISIC_5772938.JPG
break,html.Screen,4_75_1,2023-09-15T20:04:41.940Z,,0,,,NaN,,,,,,false,,,,464036,464036,,464036,,464037.98,8,400,,,
break_continue,html.Screen,4_75_2,2023-09-15T20:04:41.940Z,,0,,,NaN,,,,,,false,,,,464037,464037,,464037,,464037.98,8,400,,,
sequence,flow.Sequence,4_75,2023-09-15T20:04:41.940Z,,0,,,3082.719999999972,completion,,,,,false,,,,464037,464037,460938.12,460939,460954.28,464037.98,8,400,,,
trial,html.Screen,4_76_0,2023-09-15T20:04:45.769Z,,0,2,,3827.0200000000186,response,ISIC_0030085.JPG,15,ISIC_0057759.JPG,ISIC_0057759.JPG,false,0,keypress(z),500,467865,467865,464036.28,464037,464037.98,467871.3,8,400,27,,ISIC_0030085.JPG
break,html.Screen,4_76_1,2023-09-15T20:04:45.769Z,,0,,,NaN,,,,,,false,,,,467866,467866,,467866,,467871.3,8,400,,,
break_continue,html.Screen,4_76_2,2023-09-15T20:04:45.769Z,,0,,,NaN,,,,,,false,,,,467866,467866,,467866,,467871.3,8,400,,,
sequence,flow.Sequence,4_76,2023-09-15T20:04:45.770Z,,0,,,3828.0200000000186,completion,,,,,false,,,,467867,467866,464036.28,464037,464037.98,467871.3,8,400,,,
trial,html.Screen,4_77_0,2023-09-15T20:04:48.047Z,,0,2,,2272.7000000000116,response,ISIC_8343285.JPG,6,ISIC_0032762.JPG,ISIC_8343285.JPG,false,1,keypress(m),500,470144,470144,467865.74,467867,467871.3,470154.64,8,400,28,,ISIC_0032762.JPG
break,html.Screen,4_77_1,2023-09-15T20:04:48.048Z,,0,,,NaN,,,,,,false,,,,470145,470144,,470144,,470154.64,8,400,,,
break_continue,html.Screen,4_77_2,2023-09-15T20:04:48.048Z,,0,,,NaN,,,,,,false,,,,470145,470145,,470145,,470154.64,8,400,,,
sequence,flow.Sequence,4_77,2023-09-15T20:04:48.048Z,,0,,,2273.7000000000116,completion,,,,,false,,,,470146,470145,467865.74,467867,467871.3,470154.64,8,400,,,
trial,html.Screen,4_78_0,2023-09-15T20:04:50.340Z,,0,2,,2282.359999999986,response,ISIC_8791744.JPG,5,ISIC_7349440.JPG,ISIC_7349440.JPG,false,0,keypress(z),500,472437,472437,470144.16,470146,470154.64,472437.98,8,400,29,,ISIC_8791744.JPG
break,html.Screen,4_78_1,2023-09-15T20:04:50.340Z,,0,,,NaN,,,,,,false,,,,472437,472437,,472437,,472437.98,8,400,,,
break_continue,html.Screen,4_78_2,2023-09-15T20:04:50.341Z,,0,,,NaN,,,,,,false,,,,472437,472437,,472437,,472437.98,8,400,,,
sequence,flow.Sequence,4_78,2023-09-15T20:04:50.341Z,,0,,,2282.359999999986,completion,,,,,false,,,,472437,472437,470144.16,470146,470154.64,472437.98,8,400,,,
trial,html.Screen,4_79_0,2023-09-15T20:04:52.802Z,,0,2,,2460.0200000000186,response,ISIC_0011692.JPG,4,ISIC_8621568.JPG,ISIC_0011692.JPG,false,1,keypress(m),500,474898,474898,472437.12,472437,472437.98,474904.64,8,400,30,,ISIC_8621568.JPG
break,html.Screen,4_79_1,2023-09-15T20:04:52.802Z,,0,,,NaN,,,,,,false,,,,474899,474899,,474898,,474904.64,8,400,,,
break_continue,html.Screen,4_79_2,2023-09-15T20:04:52.803Z,,0,,,NaN,,,,,,false,,,,474899,474899,,474899,,474904.64,8,400,,,
sequence,flow.Sequence,4_79,2023-09-15T20:04:52.803Z,,0,,,2461.0200000000186,completion,,,,,false,,,,474900,474899,472437.12,472437,472437.98,474904.64,8,400,,,
trial,html.Screen,4_80_0,2023-09-15T20:04:54.980Z,,0,2,,2171.359999999986,response,ISIC_3884221.JPG,8,ISIC_0579047.JPG,ISIC_3884221.JPG,false,1,keypress(m),500,477077,477076,474898.82,474900,474904.64,477087.98,8,400,31,,ISIC_0579047.JPG
break,html.Screen,4_80_1,2023-09-15T20:04:54.980Z,,0,,,NaN,,,,,,false,,,,477077,477077,,477077,,477087.98,8,400,,,
break_continue,html.Screen,4_80_2,2023-09-15T20:04:54.981Z,,0,,,NaN,,,,,,false,,,,477077,477077,,477077,,477087.98,8,400,,,
sequence,flow.Sequence,4_80,2023-09-15T20:04:54.981Z,,0,,,2172.359999999986,completion,,,,,false,,,,477077,477077,474898.82,474900,474904.64,477087.98,8,400,,,
trial,html.Screen,4_81_0,2023-09-15T20:04:57.504Z,,0,2,,2512.0200000000186,response,ISIC_6547707.JPG,16,ISIC_9511265.JPG,ISIC_9511265.JPG,false,0,keypress(z),500,479601,479600,477077.12,477078,477087.98,479604.64,8,400,32,,ISIC_6547707.JPG
break,html.Screen,4_81_1,2023-09-15T20:04:57.505Z,,0,,,NaN,,,,,,false,,,,479602,479601,,479601,,479604.64,8,400,,,
break_continue,html.Screen,4_81_2,2023-09-15T20:04:57.505Z,,0,,,NaN,,,,,,false,,,,479602,479602,,479602,,479604.64,8,400,,,
sequence,flow.Sequence,4_81,2023-09-15T20:04:57.505Z,,0,,,2514.0200000000186,completion,,,,,false,,,,479602,479602,477077.12,477077,477087.98,479604.64,8,400,,,
trial,html.Screen,4_82_0,2023-09-15T20:05:00.899Z,,0,2,,3391.359999999986,response,ISIC_3296136.JPG,5,ISIC_6356149.JPG,ISIC_3296136.JPG,false,1,keypress(m),500,482996,482996,479601.1,479602,479604.64,483004.06,8,400,33,,ISIC_6356149.JPG
break,html.Screen,4_82_1,2023-09-15T20:05:00.899Z,,0,,,NaN,,,,,,false,,,,482996,482996,,482996,,483004.06,8,400,,,
break_continue,html.Screen,4_82_2,2023-09-15T20:05:00.899Z,,0,,,NaN,,,,,,false,,,,482997,482997,,482997,,483004.06,8,400,,,
sequence,flow.Sequence,4_82,2023-09-15T20:05:00.900Z,,0,,,3392.359999999986,completion,,,,,false,,,,482997,482997,479601.1,479602,479604.64,483004.06,8,400,,,
trial,html.Screen,4_83_0,2023-09-15T20:05:04.199Z,,0,2,,3291.9400000000023,response,ISIC_1473511.JPG,14,ISIC_7440724.JPG,ISIC_1473511.JPG,false,1,keypress(m),500,486297,486296,482996.02,482997,483004.06,486304.56,8,400,34,,ISIC_7440724.JPG
break,html.Screen,4_83_1,2023-09-15T20:05:04.200Z,,0,,,NaN,,,,,,false,,,,486297,486297,,486297,,486304.56,8,400,,,
break_continue,html.Screen,4_83_2,2023-09-15T20:05:04.200Z,,0,,,NaN,,,,,,false,,,,486297,486297,,486297,,486304.56,8,400,,,
sequence,flow.Sequence,4_83,2023-09-15T20:05:04.200Z,,0,,,3292.9400000000023,completion,,,,,false,,,,486297,486297,482996.02,482997,483004.06,486304.56,8,400,,,
trial,html.Screen,4_84_0,2023-09-15T20:05:06.732Z,,0,2,,2524.4400000000023,response,ISIC_4702522.JPG,0,ISIC_0060705.JPG,ISIC_0060705.JPG,false,0,keypress(z),500,488829,488829,486296.42,486298,486304.56,488854.64,8,400,35,,ISIC_4702522.JPG
break,html.Screen,4_84_1,2023-09-15T20:05:06.732Z,,0,,,NaN,,,,,,false,,,,488829,488829,,488829,,488854.64,8,400,,,
break_continue,html.Screen,4_84_2,2023-09-15T20:05:06.732Z,,0,,,NaN,,,,,,false,,,,488829,488829,,488829,,488854.64,8,400,,,
sequence,flow.Sequence,4_84,2023-09-15T20:05:06.733Z,,0,,,2524.4400000000023,completion,,,,,false,,,,488829,488829,486296.42,486297,486304.56,488854.64,8,400,,,
trial,html.Screen,4_85_0,2023-09-15T20:05:09.442Z,,0,2,,2684.359999999986,response,ISIC_1441260.JPG,8,ISIC_0028716.JPG,ISIC_1441260.JPG,false,1,keypress(m),500,491539,491539,488837.98,488829,488854.64,491554.64,8,400,36,,ISIC_0028716.JPG
break,html.Screen,4_85_1,2023-09-15T20:05:09.442Z,,0,,,NaN,,,,,,false,,,,491539,491539,,491539,,491554.64,8,400,,,
break_continue,html.Screen,4_85_2,2023-09-15T20:05:09.442Z,,0,,,NaN,,,,,,false,,,,491540,491540,,491540,,491554.64,8,400,,,
sequence,flow.Sequence,4_85,2023-09-15T20:05:09.442Z,,0,,,2685.359999999986,completion,,,,,false,,,,491540,491540,488837.98,488829,488854.64,491554.64,8,400,,,
trial,html.Screen,4_86_0,2023-09-15T20:05:11.875Z,,0,2,,2417.359999999986,response,ISIC_3433060.JPG,5,ISIC_7129085.JPG,ISIC_7129085.JPG,false,0,keypress(z),500,493972,493972,491538.58,491540,491554.64,493987.98,8,400,37,,ISIC_3433060.JPG
break,html.Screen,4_86_1,2023-09-15T20:05:11.876Z,,0,,,NaN,,,,,,false,,,,493973,493973,,493972,,493987.98,8,400,,,
break_continue,html.Screen,4_86_2,2023-09-15T20:05:11.876Z,,0,,,NaN,,,,,,false,,,,493973,493973,,493973,,493987.98,8,400,,,
sequence,flow.Sequence,4_86,2023-09-15T20:05:11.876Z,,0,,,2418.359999999986,completion,,,,,false,,,,493973,493973,491538.58,491540,491554.64,493987.98,8,400,,,
trial,html.Screen,4_87_0,2023-09-15T20:05:15.291Z,,0,2,,3400.0200000000186,response,ISIC_0026781.JPG,9,ISIC_9257356.JPG,ISIC_0026781.JPG,false,1,keypress(m),500,497388,497388,493971.86,493973,493987.98,497404.64,8,400,38,,ISIC_9257356.JPG
break,html.Screen,4_87_1,2023-09-15T20:05:15.293Z,,0,,,NaN,,,,,,false,,,,497389,497389,,497388,,497404.64,8,400,,,
break_continue,html.Screen,4_87_2,2023-09-15T20:05:15.293Z,,0,,,NaN,,,,,,false,,,,497389,497389,,497389,,497404.64,8,400,,,
sequence,flow.Sequence,4_87,2023-09-15T20:05:15.293Z,,0,,,3401.0200000000186,completion,,,,,false,,,,497389,497389,493971.86,493973,493987.98,497404.64,8,400,,,
trial,html.Screen,4_88_0,2023-09-15T20:05:18.724Z,,0,2,,3416.359999999986,response,ISIC_0062133.JPG,8,ISIC_0879097.JPG,ISIC_0879097.JPG,false,0,keypress(z),500,500821,500821,497388.58,497389,497404.64,500837.96,8,400,39,,ISIC_0062133.JPG
break,html.Screen,4_88_1,2023-09-15T20:05:18.725Z,,0,,,NaN,,,,,,false,,,,500822,500821,,500821,,500837.96,8,400,,,
break_continue,html.Screen,4_88_2,2023-09-15T20:05:18.725Z,,0,,,NaN,,,,,,false,,,,500822,500822,,500822,,500837.96,8,400,,,
sequence,flow.Sequence,4_88,2023-09-15T20:05:18.725Z,,0,,,3417.359999999986,completion,,,,,false,,,,500822,500822,497388.58,497389,497404.64,500837.96,8,400,,,
trial,html.Screen,4_89_0,2023-09-15T20:05:21.069Z,,0,2,,2327.039999999979,response,ISIC_0068438.JPG,4,ISIC_0033512.JPG,ISIC_0033512.JPG,false,0,keypress(z),500,503165,503165,500821.44,500822,500837.96,503171.3,8,400,40,,ISIC_0068438.JPG
break,html.Screen,4_89_1,2023-09-15T20:05:21.069Z,,0,,,NaN,,,,,,false,,,,503165,503165,,503165,,503171.3,8,400,,,
break_continue,html.Screen,4_89_2,2023-09-15T20:05:21.069Z,,0,,,NaN,,,,,,false,,,,503167,503166,,503165,,503171.3,8,400,,,
sequence,flow.Sequence,4_89,2023-09-15T20:05:21.069Z,,0,,,2328.039999999979,completion,,,,,false,,,,503167,503166,500821.44,500822,500837.96,503171.3,8,400,,,
trial,html.Screen,4_90_0,2023-09-15T20:05:23.897Z,,0,2,,2822.7000000000116,response,ISIC_2365588.JPG,12,ISIC_0061300.JPG,ISIC_0061300.JPG,false,0,keypress(z),500,505994,505994,503165.5,503167,503171.3,506004.64,8,400,41,,ISIC_2365588.JPG
break,html.Screen,4_90_1,2023-09-15T20:05:23.898Z,,0,,,NaN,,,,,,false,,,,505994,505994,,505994,,506004.64,8,400,,,
break_continue,html.Screen,4_90_2,2023-09-15T20:05:23.898Z,,0,,,NaN,,,,,,false,,,,505995,505995,,505994,,506004.64,8,400,,,
sequence,flow.Sequence,4_90,2023-09-15T20:05:23.898Z,,0,,,2823.7000000000116,completion,,,,,false,,,,505995,505995,503165.5,503167,503171.3,506004.64,8,400,,,
trial,html.Screen,4_91_0,2023-09-15T20:05:30.025Z,,0,2,,6117.359999999986,response,ISIC_7129085.JPG,14,ISIC_0026112.JPG,ISIC_7129085.JPG,false,1,keypress(m),500,512122,512122,505994.46,505995,506004.64,512137.96,8,400,42,,ISIC_0026112.JPG
break,html.Screen,4_91_1,2023-09-15T20:05:30.026Z,,0,,,NaN,,,,,,false,,,,512123,512123,,512123,,512137.96,8,400,,,
break_continue,html.Screen,4_91_2,2023-09-15T20:05:30.026Z,,0,,,NaN,,,,,,false,,,,512123,512123,,512123,,512137.96,8,400,,,
sequence,flow.Sequence,4_91,2023-09-15T20:05:30.026Z,,0,,,6118.359999999986,completion,,,,,false,,,,512123,512123,505994.46,505995,506004.64,512137.96,8,400,,,
trial,html.Screen,4_92_0,2023-09-15T20:05:40.401Z,,0,2,,10359.039999999979,response,ISIC_0025056.JPG,10,ISIC_0070888.JPG,ISIC_0025056.JPG,false,1,keypress(m),500,522498,522497,512122.1,512123,512137.96,522504.48,8,400,43,,ISIC_0070888.JPG
break,html.Screen,4_92_1,2023-09-15T20:05:40.402Z,,0,,,NaN,,,,,,false,,,,522498,522498,,522498,,522504.48,8,400,,,
break_continue,html.Screen,4_92_2,2023-09-15T20:05:40.402Z,,0,,,NaN,,,,,,false,,,,522498,522498,,522498,,522504.48,8,400,,,
sequence,flow.Sequence,4_92,2023-09-15T20:05:40.402Z,,0,,,10360.039999999979,completion,,,,,false,,,,522498,522498,512122.1,512123,512137.96,522504.48,8,400,,,
trial,html.Screen,4_93_0,2023-09-15T20:05:43.820Z,,0,2,,3411.5200000000186,response,ISIC_3377082.JPG,13,ISIC_5581936.JPG,ISIC_3377082.JPG,false,1,keypress(m),500,525917,525916,522497.88,522499,522504.48,525920.62,8,400,44,,ISIC_5581936.JPG
break,html.Screen,4_93_1,2023-09-15T20:05:43.820Z,,0,,,NaN,,,,,,false,,,,525917,525917,,525917,,525920.62,8,400,,,
break_continue,html.Screen,4_93_2,2023-09-15T20:05:43.821Z,,0,,,NaN,,,,,,false,,,,525917,525917,,525917,,525920.62,8,400,,,
sequence,flow.Sequence,4_93,2023-09-15T20:05:43.821Z,,0,,,3412.5200000000186,completion,,,,,false,,,,525917,525917,522497.88,522499,522504.48,525920.62,8,400,,,
trial,html.Screen,4_94_0,2023-09-15T20:05:47.315Z,,0,2,,3490.3800000000047,response,ISIC_0032960.JPG,10,ISIC_0011922.JPG,ISIC_0011922.JPG,false,0,keypress(z),500,529411,529411,525916.42,525917,525920.62,529421.1,8,400,45,,ISIC_0032960.JPG
break,html.Screen,4_94_1,2023-09-15T20:05:47.315Z,,0,,,NaN,,,,,,false,,,,529412,529412,,529412,,529421.1,8,400,,,
break_continue,html.Screen,4_94_2,2023-09-15T20:05:47.315Z,,0,,,NaN,,,,,,false,,,,529412,529412,,529412,,529421.1,8,400,,,
sequence,flow.Sequence,4_94,2023-09-15T20:05:47.316Z,,0,,,3491.3800000000047,completion,,,,,false,,,,529412,529412,525916.42,525917,525920.62,529421.1,8,400,,,
trial,html.Screen,4_95_0,2023-09-15T20:05:50.457Z,,0,2,,3131.9000000000233,response,ISIC_3779093.JPG,15,ISIC_0000395.JPG,ISIC_3779093.JPG,false,1,keypress(m),500,532554,532553,529411.34,529412,529421.1,532554.64,8,400,46,,ISIC_0000395.JPG
break,html.Screen,4_95_1,2023-09-15T20:05:50.457Z,,0,,,NaN,,,,,,false,,,,532554,532554,,532554,,532554.64,8,400,,,
break_continue,html.Screen,4_95_2,2023-09-15T20:05:50.457Z,,0,,,NaN,,,,,,false,,,,532554,532554,,532554,,532554.64,8,400,,,
sequence,flow.Sequence,4_95,2023-09-15T20:05:50.457Z,,0,,,3132.9000000000233,completion,,,,,false,,,,532554,532554,529411.34,529412,529421.1,532554.64,8,400,,,
trial,html.Screen,4_96_0,2023-09-15T20:05:53.497Z,,0,2,,3038.359999999986,response,ISIC_0032160.JPG,13,ISIC_0026516.JPG,ISIC_0026516.JPG,false,0,keypress(z),500,535594,535593,532553.5,532555,532554.64,535604.64,8,400,47,,ISIC_0032160.JPG
break,html.Screen,4_96_1,2023-09-15T20:05:53.497Z,,0,,,NaN,,,,,,false,,,,535594,535594,,535594,,535604.64,8,400,,,
break_continue,html.Screen,4_96_2,2023-09-15T20:05:53.498Z,,0,,,NaN,,,,,,false,,,,535594,535594,,535594,,535604.64,8,400,,,
sequence,flow.Sequence,4_96,2023-09-15T20:05:53.498Z,,0,,,3039.359999999986,completion,,,,,false,,,,535594,535594,532553.5,532555,532554.64,535604.64,8,400,,,
trial,html.Screen,4_97_0,2023-09-15T20:05:56.438Z,,0,2,,2929.359999999986,response,ISIC_0033472.JPG,15,ISIC_0024321.JPG,ISIC_0033472.JPG,false,1,keypress(m),500,538535,538534,535594.06,535594,535604.64,538537.96,8,400,48,,ISIC_0024321.JPG
break,html.Screen,4_97_1,2023-09-15T20:05:56.438Z,,0,,,NaN,,,,,,false,,,,538535,538535,,538535,,538537.96,8,400,,,
break_continue,html.Screen,4_97_2,2023-09-15T20:05:56.439Z,,0,,,NaN,,,,,,false,,,,538535,538535,,538535,,538537.96,8,400,,,
sequence,flow.Sequence,4_97,2023-09-15T20:05:56.439Z,,0,,,2930.359999999986,completion,,,,,false,,,,538535,538535,535594.06,535594,535604.64,538537.96,8,400,,,
trial,html.Screen,4_98_0,2023-09-15T20:05:59.055Z,,0,2,,2614.0400000000373,response,ISIC_0027561.JPG,6,ISIC_0029581.JPG,ISIC_0029581.JPG,false,0,keypress(z),500,541152,541152,538534.58,538535,538537.96,541154.64,8,400,49,,ISIC_0027561.JPG
break,html.Screen,4_98_1,2023-09-15T20:05:59.056Z,,0,,,NaN,,,,,,false,,,,541153,541153,,541153,,541154.64,8,400,,,
break_continue,html.Screen,4_98_2,2023-09-15T20:05:59.056Z,,0,,,NaN,,,,,,false,,,,541153,541153,,541153,,541154.64,8,400,,,
sequence,flow.Sequence,4_98,2023-09-15T20:05:59.056Z,,0,,,2615.0400000000373,completion,,,,,false,,,,541153,541153,538534.58,538535,538537.96,541154.64,8,400,,,
trial,html.Screen,4_99_0,2023-09-15T20:06:01.471Z,,0,2,,2413.359999999986,response,ISIC_0010671.JPG,4,ISIC_2202486.JPG,ISIC_2202486.JPG,false,0,keypress(z),500,543568,543568,541152.18,541153,541154.64,543571.3,8,400,50,,ISIC_0010671.JPG
break,html.Screen,4_99_1,2023-09-15T20:06:11.458Z,,0,,,10000,timeout,,,,,false,,,,553554,553553.76,543568.12,543568,543571.3,553571.3,8,400,,,
break_continue,html.Screen,4_99_2,2023-09-15T20:06:53.947Z,,0,,,42460.69999999995,response,,,,,false,continue,keypress(Space),,596043,596032,553553.76,553554,553571.3,596057.98,8,400,,,
sequence,flow.Sequence,4_99,2023-09-15T20:06:53.947Z,,0,,,54877.359999999986,completion,,,,,false,,,,596043,596032,541152.18,541153,541154.64,596057.98,8,400,,,
trial,html.Screen,4_100_0,2023-09-15T20:06:58.719Z,,0,3,,4757.020000000019,response,ISIC_8751106.JPG,8,ISIC_3913709.JPG,ISIC_8751106.JPG,false,1,keypress(m),500,600815,600815,596041.32,596043,596057.98,600823.88,8,400,1,,ISIC_3913709.JPG
break,html.Screen,4_100_1,2023-09-15T20:06:58.719Z,,0,,,NaN,,,,,,false,,,,600816,600816,,600815,,600823.88,8,400,,,
break_continue,html.Screen,4_100_2,2023-09-15T20:06:58.719Z,,0,,,NaN,,,,,,false,,,,600816,600816,,600816,,600823.88,8,400,,,
sequence,flow.Sequence,4_100,2023-09-15T20:06:58.719Z,,0,,,4758.020000000019,completion,,,,,false,,,,600816,600816,596041.32,596043,596057.98,600823.88,8,400,,,
trial,html.Screen,4_101_0,2023-09-15T20:07:02.001Z,,0,3,,3273.1199999999953,response,ISIC_0000519.JPG,8,ISIC_0071966.JPG,ISIC_0071966.JPG,false,0,keypress(z),500,604097,604097,600814.92,600816,600823.88,604107.98,8,400,2,,ISIC_0000519.JPG
break,html.Screen,4_101_1,2023-09-15T20:07:02.001Z,,0,,,NaN,,,,,,false,,,,604098,604098,,604097,,604107.98,8,400,,,
break_continue,html.Screen,4_101_2,2023-09-15T20:07:02.001Z,,0,,,NaN,,,,,,false,,,,604098,604098,,604098,,604107.98,8,400,,,
sequence,flow.Sequence,4_101,2023-09-15T20:07:02.001Z,,0,,,3274.1199999999953,completion,,,,,false,,,,604098,604098,600814.92,600816,600823.88,604107.98,8,400,,,
trial,html.Screen,4_102_0,2023-09-15T20:07:04.801Z,,0,3,,2790.0200000000186,response,ISIC_6392478.JPG,3,ISIC_0055393.JPG,ISIC_0055393.JPG,false,0,keypress(z),500,606898,606898,604097.52,604098,604107.98,606907.98,8,400,3,,ISIC_6392478.JPG
break,html.Screen,4_102_1,2023-09-15T20:07:04.802Z,,0,,,NaN,,,,,,false,,,,606898,606898,,606898,,606907.98,8,400,,,
break_continue,html.Screen,4_102_2,2023-09-15T20:07:04.802Z,,0,,,NaN,,,,,,false,,,,606899,606899,,606898,,606907.98,8,400,,,
sequence,flow.Sequence,4_102,2023-09-15T20:07:04.802Z,,0,,,2791.0200000000186,completion,,,,,false,,,,606899,606899,604097.52,604098,604107.98,606907.98,8,400,,,
trial,html.Screen,4_103_0,2023-09-15T20:07:08.107Z,,0,3,,3296.0200000000186,response,ISIC_0054080.JPG,9,ISIC_2587955.JPG,ISIC_0054080.JPG,false,1,keypress(m),500,610204,610204,606897.74,606899,606907.98,610207.98,8,400,4,,ISIC_2587955.JPG
break,html.Screen,4_103_1,2023-09-15T20:07:08.108Z,,0,,,NaN,,,,,,false,,,,610204,610204,,610204,,610207.98,8,400,,,
break_continue,html.Screen,4_103_2,2023-09-15T20:07:08.108Z,,0,,,NaN,,,,,,false,,,,610205,610204,,610204,,610207.98,8,400,,,
sequence,flow.Sequence,4_103,2023-09-15T20:07:08.108Z,,0,,,3296.0200000000186,completion,,,,,false,,,,610205,610204,606897.74,606899,606907.98,610207.98,8,400,,,
trial,html.Screen,4_104_0,2023-09-15T20:07:12.048Z,,0,3,,3936.0200000000186,response,ISIC_9513808.JPG,13,ISIC_3416107.JPG,ISIC_3416107.JPG,false,0,keypress(z),500,614144,614144,610203.6,610205,610207.98,614157.98,8,400,5,,ISIC_9513808.JPG
break,html.Screen,4_104_1,2023-09-15T20:07:12.048Z,,0,,,NaN,,,,,,false,,,,614145,614145,,614144,,614157.98,8,400,,,
break_continue,html.Screen,4_104_2,2023-09-15T20:07:12.049Z,,0,,,NaN,,,,,,false,,,,614145,614145,,614145,,614157.98,8,400,,,
sequence,flow.Sequence,4_104,2023-09-15T20:07:12.049Z,,0,,,3937.0200000000186,completion,,,,,false,,,,614145,614145,610203.6,610205,610207.98,614157.98,8,400,,,
trial,html.Screen,4_105_0,2023-09-15T20:07:16.943Z,,0,3,,4881.020000000019,response,ISIC_3679789.JPG,0,ISIC_0011546.JPG,ISIC_0011546.JPG,false,0,keypress(z),500,619039,619039,614144.8,614145,614157.98,619041.32,8,400,6,,ISIC_3679789.JPG
break,html.Screen,4_105_1,2023-09-15T20:07:16.943Z,,0,,,NaN,,,,,,false,,,,619040,619040,,619040,,619041.32,8,400,,,
break_continue,html.Screen,4_105_2,2023-09-15T20:07:16.943Z,,0,,,NaN,,,,,,false,,,,619040,619040,,619040,,619041.32,8,400,,,
sequence,flow.Sequence,4_105,2023-09-15T20:07:16.943Z,,0,,,4882.020000000019,completion,,,,,false,,,,619040,619040,614144.8,614145,614157.98,619041.32,8,400,,,
trial,html.Screen,4_106_0,2023-09-15T20:07:22.697Z,,0,3,,5751.680000000051,response,ISIC_3952694.JPG,5,ISIC_0025748.JPG,ISIC_3952694.JPG,false,1,keypress(m),500,624793,624793,619039.18,619040,619041.32,624807.98,8,400,7,,ISIC_0025748.JPG
break,html.Screen,4_106_1,2023-09-15T20:07:22.697Z,,0,,,NaN,,,,,,false,,,,624794,624794,,624794,,624807.98,8,400,,,
break_continue,html.Screen,4_106_2,2023-09-15T20:07:22.697Z,,0,,,NaN,,,,,,false,,,,624794,624794,,624794,,624807.98,8,400,,,
sequence,flow.Sequence,4_106,2023-09-15T20:07:22.697Z,,0,,,5752.680000000051,completion,,,,,false,,,,624794,624794,619039.18,619040,619041.32,624807.98,8,400,,,
trial,html.Screen,4_107_0,2023-09-15T20:07:28.385Z,,0,3,,5674.020000000019,response,ISIC_0056063.JPG,13,ISIC_0069292.JPG,ISIC_0069292.JPG,false,0,keypress(z),500,630482,630482,624793.44,624794,624807.98,630491.32,8,400,8,,ISIC_0056063.JPG
break,html.Screen,4_107_1,2023-09-15T20:07:28.386Z,,0,,,NaN,,,,,,false,,,,630482,630482,,630482,,630491.32,8,400,,,
break_continue,html.Screen,4_107_2,2023-09-15T20:07:28.386Z,,0,,,NaN,,,,,,false,,,,630483,630483,,630482,,630491.32,8,400,,,
sequence,flow.Sequence,4_107,2023-09-15T20:07:28.387Z,,0,,,5675.020000000019,completion,,,,,false,,,,630483,630483,624793.44,624794,624807.98,630491.32,8,400,,,
trial,html.Screen,4_108_0,2023-09-15T20:07:32.828Z,,0,3,,4433.680000000051,response,ISIC_0056466.JPG,15,ISIC_0062241.JPG,ISIC_0056466.JPG,false,1,keypress(m),500,634925,634925,630481.6,630483,630491.32,634941.32,8,400,9,,ISIC_0062241.JPG
break,html.Screen,4_108_1,2023-09-15T20:07:32.829Z,,0,,,NaN,,,,,,false,,,,634925,634925,,634925,,634941.32,8,400,,,
break_continue,html.Screen,4_108_2,2023-09-15T20:07:32.829Z,,0,,,NaN,,,,,,false,,,,634925,634925,,634925,,634941.32,8,400,,,
sequence,flow.Sequence,4_108,2023-09-15T20:07:32.829Z,,0,,,4433.680000000051,completion,,,,,false,,,,634925,634925,630481.6,630483,630491.32,634941.32,8,400,,,
trial,html.Screen,4_109_0,2023-09-15T20:07:36.432Z,,0,3,,3586.680000000051,response,ISIC_5290521.JPG,19,ISIC_0011094.JPG,ISIC_5290521.JPG,false,1,keypress(m),500,638528,638528,634924.84,634925,634941.32,638541.32,8,400,10,,ISIC_0011094.JPG
break,html.Screen,4_109_1,2023-09-15T20:07:36.432Z,,0,,,NaN,,,,,,false,,,,638529,638528,,638528,,638541.32,8,400,,,
break_continue,html.Screen,4_109_2,2023-09-15T20:07:36.433Z,,0,,,NaN,,,,,,false,,,,638529,638529,,638529,,638541.32,8,400,,,
sequence,flow.Sequence,4_109,2023-09-15T20:07:36.433Z,,0,,,3587.680000000051,completion,,,,,false,,,,638529,638529,634924.84,634925,634941.32,638541.32,8,400,,,
trial,html.Screen,4_110_0,2023-09-15T20:07:40.354Z,,0,3,,3908.680000000051,response,ISIC_1117369.JPG,8,ISIC_4074537.JPG,ISIC_4074537.JPG,false,0,keypress(z),500,642450,642450,638528.24,638529,638541.32,642457.98,8,400,11,,ISIC_1117369.JPG
break,html.Screen,4_110_1,2023-09-15T20:07:40.354Z,,0,,,NaN,,,,,,false,,,,642451,642451,,642450,,642457.98,8,400,,,
break_continue,html.Screen,4_110_2,2023-09-15T20:07:40.354Z,,0,,,NaN,,,,,,false,,,,642451,642451,,642451,,642457.98,8,400,,,
sequence,flow.Sequence,4_110,2023-09-15T20:07:40.354Z,,0,,,3909.680000000051,completion,,,,,false,,,,642451,642451,638528.24,638529,638541.32,642457.98,8,400,,,
trial,html.Screen,4_111_0,2023-09-15T20:07:43.186Z,,0,3,,2825.0200000000186,response,ISIC_7454699.JPG,8,ISIC_0026963.JPG,ISIC_7454699.JPG,false,1,keypress(m),500,645283,645283,642450.26,642451,642457.98,645291.32,8,400,12,,ISIC_0026963.JPG
break,html.Screen,4_111_1,2023-09-15T20:07:43.187Z,,0,,,NaN,,,,,,false,,,,645283,645283,,645283,,645291.32,8,400,,,
break_continue,html.Screen,4_111_2,2023-09-15T20:07:43.187Z,,0,,,NaN,,,,,,false,,,,645284,645284,,645284,,645291.32,8,400,,,
sequence,flow.Sequence,4_111,2023-09-15T20:07:43.187Z,,0,,,2826.0200000000186,completion,,,,,false,,,,645284,645284,642450.26,642451,642457.98,645291.32,8,400,,,
trial,html.Screen,4_112_0,2023-09-15T20:07:48.136Z,,0,3,,4941.680000000051,response,ISIC_0014926.JPG,12,ISIC_0056771.JPG,ISIC_0014926.JPG,false,1,keypress(m),500,650233,650233,645282.88,645284,645291.32,650241.32,8,400,13,,ISIC_0056771.JPG
break,html.Screen,4_112_1,2023-09-15T20:07:48.137Z,,0,,,NaN,,,,,,false,,,,650233,650233,,650233,,650241.32,8,400,,,
break_continue,html.Screen,4_112_2,2023-09-15T20:07:48.137Z,,0,,,NaN,,,,,,false,,,,650233,650233,,650233,,650241.32,8,400,,,
sequence,flow.Sequence,4_112,2023-09-15T20:07:48.137Z,,0,,,4941.680000000051,completion,,,,,false,,,,650233,650233,645282.88,645284,645291.32,650241.32,8,400,,,
trial,html.Screen,4_113_0,2023-09-15T20:07:51.305Z,,0,3,,3159.680000000051,response,ISIC_1023339.JPG,2,ISIC_2521424.JPG,ISIC_2521424.JPG,false,0,keypress(z),500,653401,653401,650232.9,650234,650241.32,653407.16,8,400,14,,ISIC_1023339.JPG
break,html.Screen,4_113_1,2023-09-15T20:07:51.305Z,,0,,,NaN,,,,,,false,,,,653401,653401,,653401,,653407.16,8,400,,,
break_continue,html.Screen,4_113_2,2023-09-15T20:07:51.305Z,,0,,,NaN,,,,,,false,,,,653402,653402,,653402,,653407.16,8,400,,,
sequence,flow.Sequence,4_113,2023-09-15T20:07:51.305Z,,0,,,3160.680000000051,completion,,,,,false,,,,653402,653402,650232.9,650234,650241.32,653407.16,8,400,,,
trial,html.Screen,4_114_0,2023-09-15T20:07:54.500Z,,0,3,,3188.8399999999674,response,ISIC_0595080.JPG,5,ISIC_7759376.JPG,ISIC_0595080.JPG,false,1,keypress(m),500,656596,656596,653400.62,653402,653407.16,656607.98,8,400,15,,ISIC_7759376.JPG
break,html.Screen,4_114_1,2023-09-15T20:07:54.500Z,,0,,,NaN,,,,,,false,,,,656596,656596,,656596,,656607.98,8,400,,,
break_continue,html.Screen,4_114_2,2023-09-15T20:07:54.500Z,,0,,,NaN,,,,,,false,,,,656597,656597,,656597,,656607.98,8,400,,,
sequence,flow.Sequence,4_114,2023-09-15T20:07:54.500Z,,0,,,3189.8399999999674,completion,,,,,false,,,,656597,656597,653400.62,653402,653407.16,656607.98,8,400,,,
trial,html.Screen,4_115_0,2023-09-15T20:07:57.402Z,,0,3,,2890.0200000000186,response,ISIC_2853290.JPG,8,ISIC_4519298.JPG,ISIC_4519298.JPG,false,0,keypress(z),500,659498,659498,656595.84,656597,656607.98,659507.96,8,400,16,,ISIC_2853290.JPG
break,html.Screen,4_115_1,2023-09-15T20:07:57.402Z,,0,,,NaN,,,,,,false,,,,659499,659498,,659498,,659507.96,8,400,,,
break_continue,html.Screen,4_115_2,2023-09-15T20:07:57.402Z,,0,,,NaN,,,,,,false,,,,659499,659499,,659499,,659507.96,8,400,,,
sequence,flow.Sequence,4_115,2023-09-15T20:07:57.402Z,,0,,,2891.0200000000186,completion,,,,,false,,,,659499,659499,656595.84,656597,656607.98,659507.96,8,400,,,
trial,html.Screen,4_116_0,2023-09-15T20:08:07.472Z,,0,3,,10060.040000000037,response,ISIC_8588957.JPG,10,ISIC_1695424.JPG,ISIC_8588957.JPG,false,1,keypress(m),500,669568,669568,659497.82,659499,659507.96,669574.42,8,400,17,,ISIC_1695424.JPG
break,html.Screen,4_116_1,2023-09-15T20:08:07.472Z,,0,,,NaN,,,,,,false,,,,669569,669569,,669568,,669574.42,8,400,,,
break_continue,html.Screen,4_116_2,2023-09-15T20:08:07.472Z,,0,,,NaN,,,,,,false,,,,669569,669569,,669569,,669574.42,8,400,,,
sequence,flow.Sequence,4_116,2023-09-15T20:08:07.472Z,,0,,,10061.040000000037,completion,,,,,false,,,,669569,669569,659497.82,659499,659507.96,669574.42,8,400,,,
trial,html.Screen,4_117_0,2023-09-15T20:08:10.307Z,,0,3,,2828.579999999958,response,ISIC_6487069.JPG,12,ISIC_0028306.JPG,ISIC_6487069.JPG,false,1,keypress(m),500,672403,672403,669568.12,669569,669574.42,672407.98,8,400,18,,ISIC_0028306.JPG
break,html.Screen,4_117_1,2023-09-15T20:08:10.308Z,,0,,,NaN,,,,,,false,,,,672404,672404,,672404,,672407.98,8,400,,,
break_continue,html.Screen,4_117_2,2023-09-15T20:08:10.308Z,,0,,,NaN,,,,,,false,,,,672404,672404,,672404,,672407.98,8,400,,,
sequence,flow.Sequence,4_117,2023-09-15T20:08:10.308Z,,0,,,2829.579999999958,completion,,,,,false,,,,672404,672404,669568.12,669569,669574.42,672407.98,8,400,,,
trial,html.Screen,4_118_0,2023-09-15T20:08:13.008Z,,0,3,,2695.0200000000186,response,ISIC_0026089.JPG,12,ISIC_8199467.JPG,ISIC_8199467.JPG,false,0,keypress(z),500,675104,675103,672403.9,672404,672407.98,675107.98,8,400,19,,ISIC_0026089.JPG
break,html.Screen,4_118_1,2023-09-15T20:08:13.008Z,,0,,,NaN,,,,,,false,,,,675104,675104,,675104,,675107.98,8,400,,,
break_continue,html.Screen,4_118_2,2023-09-15T20:08:13.008Z,,0,,,NaN,,,,,,false,,,,675104,675104,,675104,,675107.98,8,400,,,
sequence,flow.Sequence,4_118,2023-09-15T20:08:13.008Z,,0,,,2696.0200000000186,completion,,,,,false,,,,675104,675104,672403.9,672404,672407.98,675107.98,8,400,,,
trial,html.Screen,4_119_0,2023-09-15T20:08:18.079Z,,0,3,,5067.020000000019,response,ISIC_8866896.JPG,4,ISIC_0005494.JPG,ISIC_0005494.JPG,false,0,keypress(z),500,680175,680175,675103.78,675104,675107.98,680191.32,8,400,20,,ISIC_8866896.JPG
break,html.Screen,4_119_1,2023-09-15T20:08:18.079Z,,0,,,NaN,,,,,,false,,,,680175,680175,,680175,,680191.32,8,400,,,
break_continue,html.Screen,4_119_2,2023-09-15T20:08:18.080Z,,0,,,NaN,,,,,,false,,,,680176,680176,,680176,,680191.32,8,400,,,
sequence,flow.Sequence,4_119,2023-09-15T20:08:18.080Z,,0,,,5068.020000000019,completion,,,,,false,,,,680176,680176,675103.78,675104,675107.98,680191.32,8,400,,,
trial,html.Screen,4_120_0,2023-09-15T20:08:22.928Z,,0,3,,4832.680000000051,response,ISIC_5966190.JPG,14,ISIC_0069273.JPG,ISIC_5966190.JPG,false,1,keypress(m),500,685025,685024,680175.06,680176,680191.32,685041.32,8,400,21,,ISIC_0069273.JPG
break,html.Screen,4_120_1,2023-09-15T20:08:22.929Z,,0,,,NaN,,,,,,false,,,,685025,685025,,685025,,685041.32,8,400,,,
break_continue,html.Screen,4_120_2,2023-09-15T20:08:22.929Z,,0,,,NaN,,,,,,false,,,,685026,685025,,685025,,685041.32,8,400,,,
sequence,flow.Sequence,4_120,2023-09-15T20:08:22.929Z,,0,,,4833.680000000051,completion,,,,,false,,,,685026,685025,680175.06,680176,680191.32,685041.32,8,400,,,
trial,html.Screen,4_121_0,2023-09-15T20:08:25.815Z,,0,3,,2870.680000000051,response,ISIC_9723646.JPG,17,ISIC_3613012.JPG,ISIC_3613012.JPG,false,0,keypress(z),500,687912,687912,685024.64,685026,685041.32,687924.64,8,400,22,,ISIC_9723646.JPG
break,html.Screen,4_121_1,2023-09-15T20:08:25.816Z,,0,,,NaN,,,,,,false,,,,687913,687913,,687912,,687924.64,8,400,,,
break_continue,html.Screen,4_121_2,2023-09-15T20:08:25.817Z,,0,,,NaN,,,,,,false,,,,687913,687913,,687913,,687924.64,8,400,,,
sequence,flow.Sequence,4_121,2023-09-15T20:08:25.817Z,,0,,,2871.680000000051,completion,,,,,false,,,,687913,687913,685024.64,685026,685041.32,687924.64,8,400,,,
trial,html.Screen,4_122_0,2023-09-15T20:08:37.315Z,,0,3,,11516.679999999935,timeout,ISIC_0011870.JPG,9,ISIC_0029316.JPG,,false,,,500,699411,699411,687912.4,687913,687924.64,699441.32,8,400,23,,
break,html.Screen,4_122_1,2023-09-15T20:08:37.315Z,,0,,,NaN,,,,,,false,,,,699411,699411,,699411,,699441.32,8,400,,,
break_continue,html.Screen,4_122_2,2023-09-15T20:08:37.315Z,,0,,,NaN,,,,,,false,,,,699412,699411,,699411,,699441.32,8,400,,,
sequence,flow.Sequence,4_122,2023-09-15T20:08:37.315Z,,0,,,11486.359999999986,completion,,,,,false,,,,699412,699411,687912.4,687913,687924.64,699441.32,8,400,,,
trial,html.Screen,4_123_0,2023-09-15T20:08:39.753Z,,0,3,,2406.680000000051,response,ISIC_7130929.JPG,5,ISIC_0068413.JPG,ISIC_7130929.JPG,false,1,keypress(m),500,701848,701848,699424.64,699412,699441.32,701857.98,8,400,24,,ISIC_0068413.JPG
break,html.Screen,4_123_1,2023-09-15T20:08:39.753Z,,0,,,NaN,,,,,,false,,,,701849,701849,,701849,,701857.98,8,400,,,
break_continue,html.Screen,4_123_2,2023-09-15T20:08:39.753Z,,0,,,NaN,,,,,,false,,,,701849,701849,,701849,,701857.98,8,400,,,
sequence,flow.Sequence,4_123,2023-09-15T20:08:39.753Z,,0,,,2407.680000000051,completion,,,,,false,,,,701849,701849,699424.64,699412,699441.32,701857.98,8,400,,,
trial,html.Screen,4_124_0,2023-09-15T20:08:42.102Z,,0,3,,2340.0200000000186,response,ISIC_0032624.JPG,15,ISIC_8570555.JPG,ISIC_8570555.JPG,false,0,keypress(z),500,704198,704198,701848.8,701849,701857.98,704207.36,8,400,25,,ISIC_0032624.JPG
break,html.Screen,4_124_1,2023-09-15T20:08:42.103Z,,0,,,NaN,,,,,,false,,,,704199,704199,,704199,,704207.36,8,400,,,
break_continue,html.Screen,4_124_2,2023-09-15T20:08:42.103Z,,0,,,NaN,,,,,,false,,,,704199,704199,,704199,,704207.36,8,400,,,
sequence,flow.Sequence,4_124,2023-09-15T20:08:42.103Z,,0,,,2341.0200000000186,completion,,,,,false,,,,704199,704199,701848.8,701849,701857.98,704207.36,8,400,,,
trial,html.Screen,4_125_0,2023-09-15T20:08:44.416Z,,0,3,,2303.640000000014,response,ISIC_0011381.JPG,18,ISIC_0069633.JPG,ISIC_0011381.JPG,false,1,keypress(m),500,706511,706511,704198.74,704199,704207.36,706524.64,8,400,26,,ISIC_0069633.JPG
break,html.Screen,4_125_1,2023-09-15T20:08:44.416Z,,0,,,NaN,,,,,,false,,,,706512,706512,,706511,,706524.64,8,400,,,
break_continue,html.Screen,4_125_2,2023-09-15T20:08:44.416Z,,0,,,NaN,,,,,,false,,,,706512,706512,,706512,,706524.64,8,400,,,
sequence,flow.Sequence,4_125,2023-09-15T20:08:44.417Z,,0,,,2304.640000000014,completion,,,,,false,,,,706512,706512,704198.74,704199,704207.36,706524.64,8,400,,,
trial,html.Screen,4_126_0,2023-09-15T20:08:46.607Z,,0,3,,2178.359999999986,response,ISIC_0030029.JPG,4,ISIC_0604532.JPG,ISIC_0604532.JPG,false,0,keypress(z),500,708703,708703,706511.66,706513,706524.64,708707.98,8,400,27,,ISIC_0030029.JPG
break,html.Screen,4_126_1,2023-09-15T20:08:46.608Z,,0,,,NaN,,,,,,false,,,,708703,708703,,708703,,708707.98,8,400,,,
break_continue,html.Screen,4_126_2,2023-09-15T20:08:46.608Z,,0,,,NaN,,,,,,false,,,,708704,708704,,708704,,708707.98,8,400,,,
sequence,flow.Sequence,4_126,2023-09-15T20:08:46.608Z,,0,,,2179.359999999986,completion,,,,,false,,,,708704,708704,706511.66,706512,706524.64,708707.98,8,400,,,
trial,html.Screen,4_127_0,2023-09-15T20:08:49.026Z,,0,3,,2414.0200000000186,response,ISIC_1952599.JPG,1,ISIC_3397174.JPG,ISIC_1952599.JPG,false,1,keypress(m),500,711122,711122,708703.68,708704,708707.98,711124.64,8,400,28,,ISIC_3397174.JPG
break,html.Screen,4_127_1,2023-09-15T20:08:49.027Z,,0,,,NaN,,,,,,false,,,,711123,711123,,711122,,711124.64,8,400,,,
break_continue,html.Screen,4_127_2,2023-09-15T20:08:49.027Z,,0,,,NaN,,,,,,false,,,,711123,711123,,711123,,711124.64,8,400,,,
sequence,flow.Sequence,4_127,2023-09-15T20:08:49.027Z,,0,,,2415.0200000000186,completion,,,,,false,,,,711123,711123,708703.68,708704,708707.98,711124.64,8,400,,,
trial,html.Screen,4_128_0,2023-09-15T20:08:51.458Z,,0,3,,2429.359999999986,response,ISIC_0032726.JPG,5,ISIC_4582670.JPG,ISIC_4582670.JPG,false,0,keypress(z),500,713554,713554,711122.84,711123,711124.64,713557.98,8,400,29,,ISIC_0032726.JPG
break,html.Screen,4_128_1,2023-09-15T20:08:51.459Z,,0,,,NaN,,,,,,false,,,,713555,713555,,713554,,713557.98,8,400,,,
break_continue,html.Screen,4_128_2,2023-09-15T20:08:51.459Z,,0,,,NaN,,,,,,false,,,,713555,713555,,713555,,713557.98,8,400,,,
sequence,flow.Sequence,4_128,2023-09-15T20:08:51.459Z,,0,,,2430.359999999986,completion,,,,,false,,,,713555,713555,711122.84,711123,711124.64,713557.98,8,400,,,
trial,html.Screen,4_129_0,2023-09-15T20:08:53.547Z,,0,3,,2085.0200000000186,response,ISIC_0000551.JPG,0,ISIC_0058022.JPG,ISIC_0000551.JPG,false,1,keypress(m),500,715643,715643,713554.64,713555,713557.98,715657.98,8,400,30,,ISIC_0058022.JPG
break,html.Screen,4_129_1,2023-09-15T20:08:53.547Z,,0,,,NaN,,,,,,false,,,,715643,715643,,715643,,715657.98,8,400,,,
break_continue,html.Screen,4_129_2,2023-09-15T20:08:53.547Z,,0,,,NaN,,,,,,false,,,,715643,715643,,715643,,715657.98,8,400,,,
sequence,flow.Sequence,4_129,2023-09-15T20:08:53.547Z,,0,,,2085.0200000000186,completion,,,,,false,,,,715643,715643,713554.64,713555,713557.98,715657.98,8,400,,,
trial,html.Screen,4_130_0,2023-09-15T20:08:56.529Z,,0,3,,2967.0200000000186,response,ISIC_4965832.JPG,16,ISIC_0071111.JPG,ISIC_0071111.JPG,false,0,keypress(z),500,718626,718625,715642.86,715643,715657.98,718641.3,8,400,31,,ISIC_4965832.JPG
break,html.Screen,4_130_1,2023-09-15T20:08:56.530Z,,0,,,NaN,,,,,,false,,,,718626,718626,,718626,,718641.3,8,400,,,
break_continue,html.Screen,4_130_2,2023-09-15T20:08:56.530Z,,0,,,NaN,,,,,,false,,,,718626,718626,,718626,,718641.3,8,400,,,
sequence,flow.Sequence,4_130,2023-09-15T20:08:56.530Z,,0,,,2968.0200000000186,completion,,,,,false,,,,718626,718626,715642.86,715643,715657.98,718641.3,8,400,,,
trial,html.Screen,4_131_0,2023-09-15T20:08:59.139Z,,0,3,,2593.6999999999534,response,ISIC_0033055.JPG,0,ISIC_5098778.JPG,ISIC_0033055.JPG,false,1,keypress(m),500,721235,721235,718624.64,718626,718641.3,721241.3,8,400,32,,ISIC_5098778.JPG
break,html.Screen,4_131_1,2023-09-15T20:08:59.139Z,,0,,,NaN,,,,,,false,,,,721236,721235,,721235,,721241.3,8,400,,,
break_continue,html.Screen,4_131_2,2023-09-15T20:08:59.140Z,,0,,,NaN,,,,,,false,,,,721236,721236,,721236,,721241.3,8,400,,,
sequence,flow.Sequence,4_131,2023-09-15T20:08:59.140Z,,0,,,2594.6999999999534,completion,,,,,false,,,,721236,721236,718624.64,718626,718641.3,721241.3,8,400,,,
trial,html.Screen,4_132_0,2023-09-15T20:09:01.820Z,,0,3,,2674.6999999999534,response,ISIC_0975874.JPG,16,ISIC_4701900.JPG,ISIC_4701900.JPG,false,0,keypress(z),500,723916,723916,721235.66,721237,721241.3,723924.52,8,400,33,,ISIC_0975874.JPG
break,html.Screen,4_132_1,2023-09-15T20:09:01.822Z,,0,,,NaN,,,,,,false,,,,723919,723918,,723917,,723924.52,8,400,,,
break_continue,html.Screen,4_132_2,2023-09-15T20:09:01.823Z,,0,,,NaN,,,,,,false,,,,723919,723919,,723919,,723924.52,8,400,,,
sequence,flow.Sequence,4_132,2023-09-15T20:09:01.824Z,,0,,,2677.6999999999534,completion,,,,,false,,,,723919,723919,721235.66,721236,721241.3,723924.52,8,400,,,
trial,html.Screen,4_133_0,2023-09-15T20:09:05.552Z,,0,3,,3723.4799999999814,response,ISIC_0015167.JPG,5,ISIC_0082704.JPG,ISIC_0015167.JPG,false,1,keypress(m),500,727648,727648,723917.02,723919,723924.52,727657.98,8,400,34,,ISIC_0082704.JPG
break,html.Screen,4_133_1,2023-09-15T20:09:05.553Z,,0,,,NaN,,,,,,false,,,,727648,727648,,727648,,727657.98,8,400,,,
break_continue,html.Screen,4_133_2,2023-09-15T20:09:05.553Z,,0,,,NaN,,,,,,false,,,,727649,727649,,727649,,727657.98,8,400,,,
sequence,flow.Sequence,4_133,2023-09-15T20:09:05.553Z,,0,,,3724.4799999999814,completion,,,,,false,,,,727649,727649,723917.02,723919,723924.52,727657.98,8,400,,,
trial,html.Screen,4_134_0,2023-09-15T20:09:09.324Z,,0,3,,3763.0200000000186,response,ISIC_0072001.JPG,11,ISIC_0033029.JPG,ISIC_0072001.JPG,false,1,keypress(m),500,731421,731421,727648.42,727649,727657.98,731424.64,8,400,35,,ISIC_0033029.JPG
break,html.Screen,4_134_1,2023-09-15T20:09:09.324Z,,0,,,NaN,,,,,,false,,,,731421,731421,,731421,,731424.64,8,400,,,
break_continue,html.Screen,4_134_2,2023-09-15T20:09:09.325Z,,0,,,NaN,,,,,,false,,,,731421,731421,,731421,,731424.64,8,400,,,
sequence,flow.Sequence,4_134,2023-09-15T20:09:09.325Z,,0,,,3763.0200000000186,completion,,,,,false,,,,731421,731421,727648.42,727649,727657.98,731424.64,8,400,,,
trial,html.Screen,4_135_0,2023-09-15T20:09:14.410Z,,0,3,,5081.359999999986,response,ISIC_0061829.JPG,14,ISIC_6945634.JPG,ISIC_6945634.JPG,false,0,keypress(z),500,736506,736506,731420.52,731421,731424.64,736507.98,8,400,36,,ISIC_0061829.JPG
break,html.Screen,4_135_1,2023-09-15T20:09:14.411Z,,0,,,NaN,,,,,,false,,,,736506,736506,,736506,,736507.98,8,400,,,
break_continue,html.Screen,4_135_2,2023-09-15T20:09:14.411Z,,0,,,NaN,,,,,,false,,,,736506,736506,,736506,,736507.98,8,400,,,
sequence,flow.Sequence,4_135,2023-09-15T20:09:14.411Z,,0,,,5081.359999999986,completion,,,,,false,,,,736507,736506,731420.52,731421,731424.64,736507.98,8,400,,,
trial,html.Screen,4_136_0,2023-09-15T20:09:17.186Z,,0,3,,2774.0200000000186,response,ISIC_0012049.JPG,7,ISIC_0056119.JPG,ISIC_0012049.JPG,false,1,keypress(m),500,739282,739282,736506.02,736507,736507.98,739291.3,8,400,37,,ISIC_0056119.JPG
break,html.Screen,4_136_1,2023-09-15T20:09:17.187Z,,0,,,NaN,,,,,,false,,,,739282,739282,,739282,,739291.3,8,400,,,
break_continue,html.Screen,4_136_2,2023-09-15T20:09:17.187Z,,0,,,NaN,,,,,,false,,,,739283,739283,,739282,,739291.3,8,400,,,
sequence,flow.Sequence,4_136,2023-09-15T20:09:17.187Z,,0,,,2775.0200000000186,completion,,,,,false,,,,739283,739283,736506.02,736507,736507.98,739291.3,8,400,,,
trial,html.Screen,4_137_0,2023-09-15T20:09:21.472Z,,0,3,,4276.699999999953,response,ISIC_9475559.JPG,5,ISIC_1453899.JPG,ISIC_9475559.JPG,false,1,keypress(m),500,743568,743568,739282.38,739283,739291.3,743574.64,8,400,38,,ISIC_1453899.JPG
break,html.Screen,4_137_1,2023-09-15T20:09:21.473Z,,0,,,NaN,,,,,,false,,,,743569,743569,,743568,,743574.64,8,400,,,
break_continue,html.Screen,4_137_2,2023-09-15T20:09:21.473Z,,0,,,NaN,,,,,,false,,,,743569,743569,,743569,,743574.64,8,400,,,
sequence,flow.Sequence,4_137,2023-09-15T20:09:21.473Z,,0,,,4277.699999999953,completion,,,,,false,,,,743569,743569,739282.38,739283,739291.3,743574.64,8,400,,,
trial,html.Screen,4_138_0,2023-09-15T20:09:25.296Z,,0,3,,3817.359999999986,response,ISIC_0064860.JPG,2,ISIC_3882374.JPG,ISIC_3882374.JPG,false,0,keypress(z),500,747392,747392,743568.26,743569,743574.64,747407.98,8,400,39,,ISIC_0064860.JPG
break,html.Screen,4_138_1,2023-09-15T20:09:25.296Z,,0,,,NaN,,,,,,false,,,,747392,747392,,747392,,747407.98,8,400,,,
break_continue,html.Screen,4_138_2,2023-09-15T20:09:25.296Z,,0,,,NaN,,,,,,false,,,,747392,747392,,747392,,747407.98,8,400,,,
sequence,flow.Sequence,4_138,2023-09-15T20:09:25.296Z,,0,,,3817.359999999986,completion,,,,,false,,,,747393,747392,743568.26,743569,743574.64,747407.98,8,400,,,
trial,html.Screen,4_139_0,2023-09-15T20:09:28.850Z,,0,3,,3538.0200000000186,response,ISIC_0053659.JPG,10,ISIC_5360921.JPG,ISIC_0053659.JPG,false,1,keypress(m),500,750946,750946,747391.8,747393,747407.98,750957.98,8,400,40,,ISIC_5360921.JPG
break,html.Screen,4_139_1,2023-09-15T20:09:28.850Z,,0,,,NaN,,,,,,false,,,,750946,750946,,750946,,750957.98,8,400,,,
break_continue,html.Screen,4_139_2,2023-09-15T20:09:28.850Z,,0,,,NaN,,,,,,false,,,,750947,750947,,750946,,750957.98,8,400,,,
sequence,flow.Sequence,4_139,2023-09-15T20:09:28.851Z,,0,,,3539.0200000000186,completion,,,,,false,,,,750947,750947,747391.8,747393,747407.98,750957.98,8,400,,,
trial,html.Screen,4_140_0,2023-09-15T20:09:33.242Z,,0,3,,4379.020000000019,response,ISIC_0011728.JPG,2,ISIC_1258763.JPG,ISIC_1258763.JPG,false,0,keypress(z),500,755337,755337,750945.98,750947,750957.98,755341.3,8,400,41,,ISIC_0011728.JPG
break,html.Screen,4_140_1,2023-09-15T20:09:33.242Z,,0,,,NaN,,,,,,false,,,,755338,755338,,755338,,755341.3,8,400,,,
break_continue,html.Screen,4_140_2,2023-09-15T20:09:33.243Z,,0,,,NaN,,,,,,false,,,,755338,755338,,755338,,755341.3,8,400,,,
sequence,flow.Sequence,4_140,2023-09-15T20:09:33.243Z,,0,,,4380.020000000019,completion,,,,,false,,,,755338,755338,750945.98,750947,750957.98,755341.3,8,400,,,
trial,html.Screen,4_141_0,2023-09-15T20:09:36.037Z,,0,3,,2791.6999999999534,response,ISIC_0610477.JPG,16,ISIC_7227223.JPG,ISIC_0610477.JPG,false,1,keypress(m),500,758133,758133,755337.98,755338,755341.3,758141.3,8,400,42,,ISIC_7227223.JPG
break,html.Screen,4_141_1,2023-09-15T20:09:36.037Z,,0,,,NaN,,,,,,false,,,,758133,758133,,758133,,758141.3,8,400,,,
break_continue,html.Screen,4_141_2,2023-09-15T20:09:36.038Z,,0,,,NaN,,,,,,false,,,,758133,758133,,758133,,758141.3,8,400,,,
sequence,flow.Sequence,4_141,2023-09-15T20:09:36.038Z,,0,,,2791.6999999999534,completion,,,,,false,,,,758133,758133,755337.98,755338,755341.3,758141.3,8,400,,,
trial,html.Screen,4_142_0,2023-09-15T20:09:38.905Z,,0,3,,2859.6999999999534,response,ISIC_0059248.JPG,7,ISIC_0060999.JPG,ISIC_0060999.JPG,false,0,keypress(z),500,761002,761001,758132.84,758133,758141.3,761007.98,8,400,43,,ISIC_0059248.JPG
break,html.Screen,4_142_1,2023-09-15T20:09:38.906Z,,0,,,NaN,,,,,,false,,,,761002,761002,,761002,,761007.98,8,400,,,
break_continue,html.Screen,4_142_2,2023-09-15T20:09:38.906Z,,0,,,NaN,,,,,,false,,,,761002,761002,,761002,,761007.98,8,400,,,
sequence,flow.Sequence,4_142,2023-09-15T20:09:38.906Z,,0,,,2860.6999999999534,completion,,,,,false,,,,761002,761002,758132.84,758133,758141.3,761007.98,8,400,,,
trial,html.Screen,4_143_0,2023-09-15T20:09:41.705Z,,0,3,,2793.0200000000186,response,ISIC_0027170.JPG,15,ISIC_0000087.JPG,ISIC_0027170.JPG,false,1,keypress(m),500,763802,763801,761001.62,761002,761007.98,763807.98,8,400,44,,ISIC_0000087.JPG
break,html.Screen,4_143_1,2023-09-15T20:09:41.705Z,,0,,,NaN,,,,,,false,,,,763802,763802,,763802,,763807.98,8,400,,,
break_continue,html.Screen,4_143_2,2023-09-15T20:09:41.705Z,,0,,,NaN,,,,,,false,,,,763802,763802,,763802,,763807.98,8,400,,,
sequence,flow.Sequence,4_143,2023-09-15T20:09:41.705Z,,0,,,2794.0200000000186,completion,,,,,false,,,,763802,763802,761001.62,761002,761007.98,763807.98,8,400,,,
trial,html.Screen,4_144_0,2023-09-15T20:09:44.473Z,,0,3,,2760.0200000000186,response,ISIC_7892362.JPG,15,ISIC_0000296.JPG,ISIC_0000296.JPG,false,0,keypress(z),500,766568,766568,763801.4,763802,763807.98,766574.64,8,400,45,,ISIC_7892362.JPG
break,html.Screen,4_144_1,2023-09-15T20:09:44.473Z,,0,,,NaN,,,,,,false,,,,766569,766569,,766569,,766574.64,8,400,,,
break_continue,html.Screen,4_144_2,2023-09-15T20:09:44.474Z,,0,,,NaN,,,,,,false,,,,766569,766569,,766569,,766574.64,8,400,,,
sequence,flow.Sequence,4_144,2023-09-15T20:09:44.474Z,,0,,,2761.0200000000186,completion,,,,,false,,,,766569,766569,763801.4,763802,763807.98,766574.64,8,400,,,
trial,html.Screen,4_145_0,2023-09-15T20:09:47.090Z,,0,3,,2611.359999999986,response,ISIC_9699238.JPG,2,ISIC_0012047.JPG,ISIC_9699238.JPG,false,1,keypress(m),500,769186,769186,766568.88,766569,766574.64,769191.3,8,400,46,,ISIC_0012047.JPG
break,html.Screen,4_145_1,2023-09-15T20:09:47.091Z,,0,,,NaN,,,,,,false,,,,769187,769187,,769187,,769191.3,8,400,,,
break_continue,html.Screen,4_145_2,2023-09-15T20:09:47.091Z,,0,,,NaN,,,,,,false,,,,769187,769187,,769187,,769191.3,8,400,,,
sequence,flow.Sequence,4_145,2023-09-15T20:09:47.091Z,,0,,,2612.359999999986,completion,,,,,false,,,,769187,769187,766568.88,766569,766574.64,769191.3,8,400,,,
trial,html.Screen,4_146_0,2023-09-15T20:09:49.409Z,,0,3,,2313.6999999999534,response,ISIC_0064014.JPG,2,ISIC_7581199.JPG,ISIC_7581199.JPG,false,0,keypress(z),500,771505,771505,769186.96,769187,769191.3,771507.98,8,400,47,,ISIC_0064014.JPG
break,html.Screen,4_146_1,2023-09-15T20:09:49.409Z,,0,,,NaN,,,,,,false,,,,771505,771505,,771505,,771507.98,8,400,,,
break_continue,html.Screen,4_146_2,2023-09-15T20:09:49.410Z,,0,,,NaN,,,,,,false,,,,771505,771505,,771505,,771507.98,8,400,,,
sequence,flow.Sequence,4_146,2023-09-15T20:09:49.410Z,,0,,,2313.6999999999534,completion,,,,,false,,,,771505,771505,769186.96,769187,769191.3,771507.98,8,400,,,
trial,html.Screen,4_147_0,2023-09-15T20:09:53.127Z,,0,3,,3715.0200000000186,response,ISIC_0002811.JPG,11,ISIC_8897947.JPG,ISIC_0002811.JPG,false,1,keypress(m),500,775223,775223,771504.98,771505,771507.98,775224.64,8,400,48,,ISIC_8897947.JPG
break,html.Screen,4_147_1,2023-09-15T20:09:53.128Z,,0,,,NaN,,,,,,false,,,,775224,775224,,775223,,775224.64,8,400,,,
break_continue,html.Screen,4_147_2,2023-09-15T20:09:53.128Z,,0,,,NaN,,,,,,false,,,,775224,775224,,775224,,775224.64,8,400,,,
sequence,flow.Sequence,4_147,2023-09-15T20:09:53.128Z,,0,,,3716.0200000000186,completion,,,,,false,,,,775224,775224,771504.98,771505,771507.98,775224.64,8,400,,,
trial,html.Screen,4_148_0,2023-09-15T20:09:55.912Z,,0,3,,2783.359999999986,response,ISIC_6705966.JPG,10,ISIC_5059476.JPG,ISIC_5059476.JPG,false,0,keypress(z),500,778008,778008,775223.3,775224,775224.64,778024.64,8,400,49,,ISIC_6705966.JPG
break,html.Screen,4_148_1,2023-09-15T20:09:55.912Z,,0,,,NaN,,,,,,false,,,,778009,778009,,778008,,778024.64,8,400,,,
break_continue,html.Screen,4_148_2,2023-09-15T20:09:55.912Z,,0,,,NaN,,,,,,false,,,,778009,778009,,778009,,778024.64,8,400,,,
sequence,flow.Sequence,4_148,2023-09-15T20:09:55.912Z,,0,,,2784.359999999986,completion,,,,,false,,,,778009,778009,775223.3,775224,775224.64,778024.64,8,400,,,
trial,html.Screen,4_149_0,2023-09-15T20:09:59.729Z,,0,3,,3799.359999999986,response,ISIC_3971712.JPG,0,ISIC_0010866.JPG,ISIC_3971712.JPG,false,1,keypress(m),500,781824,781824,778008.08,778009,778024.64,781841.3,8,400,50,,ISIC_0010866.JPG
break,html.Screen,4_149_1,2023-09-15T20:10:09.732Z,,0,,,10000,timeout,,,,,false,,,,791827,791824.64,781824.68,781824,781841.3,791841.3,8,400,,,
break_continue,html.Screen,4_149_2,2023-09-15T20:10:10.303Z,,0,,,542.6999999999534,response,,,,,false,continue,keypress(Space),,792399,792384,791824.64,791827,791841.3,792407.92,8,400,,,
sequence,flow.Sequence,4_149,2023-09-15T20:10:10.305Z,,0,,,14359.359999999986,completion,,,,,false,,,,792401,792384,778008.08,778009,778024.64,792407.92,8,400,,,
trial,html.Screen,4_150_0,2023-09-15T20:10:13.215Z,,0,4,,2903.079999999958,response,ISIC_6382207.JPG,6,ISIC_0031621.JPG,ISIC_0031621.JPG,false,0,keypress(z),500,795311,795311,792401.16,792401,792407.92,795324.24,8,400,1,,ISIC_6382207.JPG
break,html.Screen,4_150_1,2023-09-15T20:10:13.215Z,,0,,,NaN,,,,,,false,,,,795312,795312,,795311,,795324.24,8,400,,,
