sender,sender_type,sender_id,timestamp,meta,,blockNo,condition,duration,ended_on,img_left,img_reveal,img_right,loser,practice,response,response_action,selection_duration,time_commit,time_end,time_render,time_run,time_show,time_switch,total_blocks,total_trials,trialNo,url,winner
informed_consent,html.Screen,0,2023-11-01T17:13:44.793Z,"{""labjs_version"":""20.2.4"",""labjs_build"":{""flavor"":""production"",""commit"":""f5b4a49f956347addd546a832a3327688c2c0fef""},""location"":""https://run.pavlovia.org/MurrayBennett/melanoma-2afc/?participant=66917&platform=sona"",""userAgent"":""Mozilla/5.0 (X11; CrOS x86_64 14541.0.0) AppleWebKit/537.36 (KHTML, like Gecko) Chrome/118.0.0.0 Safari/537.36"",""platform"":""Linux x86_64"",""language"":""en-US"",""locale"":""en-US"",""timeZone"":""America/Chicago"",""timezoneOffset"":300,""screen_width"":1300,""screen_height"":730,""scroll_width"":1300,""scroll_height"":574,""window_innerWidth"":1300,""window_innerHeight"":622,""devicePixelRatio"":1.0507692098617554}",,,,19753.401999999813,response,,,,,,consent,click button,,22682.899999999907,22676.299999999814,2139.486,2922.7999999998137,2922.898,22724.96,,,,"{""participant"":""66917"",""platform"":""sona""}",
Welcome,html.Screen,1,2023-11-01T17:14:14.461Z,,,,uniform,29622.439999999908,response,,,,,,continue,click button,,52350.19999999995,52347.39999999991,22674.956,22683.199999999953,22724.96,52378.067,,,,,
trial,html.Screen,2_0_0,2023-11-01T17:14:19.808Z,,0,0,,5318.932999999997,response,ISIC_0025593.JPG,,ISIC_0063388.JPG,ISIC_0063388.JPG,true,0,keypress(z),500,57697.799999999814,57697,52361.392,52350.59999999986,52378.067,57711.934,1,6,1,,ISIC_0025593.JPG
sequence,flow.Sequence,2_0,2023-11-01T17:14:19.809Z,,0,,,5318.932999999997,completion,,,,,true,,,,57699,57697,52361.392,52350.59999999986,52378.067,57711.934,1,6,,,
trial,html.Screen,2_1_0,2023-11-01T17:14:24.457Z,,0,0,,4633.465999999906,response,ISIC_0028178.JPG,,ISIC_1309015.JPG,ISIC_0028178.JPG,true,1,keypress(m),500,62346.09999999986,62345.39999999991,57695.266,57699.799999999814,57711.934,62362.433,1,6,2,,ISIC_1309015.JPG
sequence,flow.Sequence,2_1,2023-11-01T17:14:24.457Z,,0,,,4633.465999999906,completion,,,,,true,,,,62346.39999999991,62345.39999999991,57695.266,57699.69999999995,57711.934,62362.433,1,6,,,
trial,html.Screen,2_2_0,2023-11-01T17:14:27.951Z,,0,0,,3477.0670000000027,response,ISIC_0031128.JPG,,ISIC_3314853.JPG,ISIC_3314853.JPG,true,0,keypress(z),500,65840.09999999986,65839.5,62345.757,62346.59999999986,62362.433,65846.12,1,6,3,,ISIC_0031128.JPG
sequence,flow.Sequence,2_2,2023-11-01T17:14:27.951Z,,0,,,3477.0670000000027,completion,,,,,true,,,,65841,65839.5,62345.757,62346.59999999986,62362.433,65846.12,1,6,,,
trial,html.Screen,2_3_0,2023-11-01T17:14:31.528Z,,0,0,,3571.1799999998184,response,ISIC_8980141.JPG,,ISIC_0031612.JPG,ISIC_8980141.JPG,true,1,keypress(m),500,69417.59999999986,69417.29999999981,65829.452,65841.59999999986,65846.12,69429.826,1,6,4,,ISIC_0031612.JPG
sequence,flow.Sequence,2_3,2023-11-01T17:14:31.529Z,,0,,,3571.1799999998184,completion,,,,,true,,,,69418.59999999986,69417.29999999981,65829.452,65841.3999999999,65846.12,69429.826,1,6,,,
trial,html.Screen,2_4_0,2023-11-01T17:14:34.798Z,,0,0,,3256.673999999999,response,ISIC_9721604.JPG,,ISIC_1197737.JPG,ISIC_1197737.JPG,true,0,keypress(z),500,72687.29999999981,72686.5,69413.158,69419.09999999986,69429.826,72696.834,1,6,5,,ISIC_9721604.JPG
sequence,flow.Sequence,2_4,2023-11-01T17:14:34.799Z,,0,,,3256.673999999999,completion,,,,,true,,,,72688.29999999981,72686.5,69413.158,69418.8999999999,69429.826,72696.834,1,6,,,
trial,html.Screen,2_5_0,2023-11-01T17:14:38.082Z,,0,0,,3273.865999999951,response,ISIC_0010681.JPG,,ISIC_0025346.JPG,ISIC_0010681.JPG,true,1,keypress(m),500,75971.19999999995,75970.69999999995,72680.166,72688.59999999986,72696.834,75980.513,1,6,6,,ISIC_0025346.JPG
sequence,flow.Sequence,2_5,2023-11-01T17:14:38.082Z,,0,,,3273.865999999951,completion,,,,,true,,,,75971.8999999999,75970.69999999995,72680.166,72688.5,72696.834,75980.513,1,6,,,
loop,flow.Loop,2,2023-11-01T17:14:38.083Z,,,,,23592.63299999995,completion,,,,,true,,,,75972.59999999986,75970.69999999995,52361.392,52350.5,52378.067,75980.513,1,6,,,
exp_instructions,html.Screen,3,2023-11-01T17:16:16.891Z,,,,,98794.68699999995,response,,,,,,continue,keypress(Space),,174780.59999999986,174775.19999999995,75963.845,75973.09999999986,75980.513,174788.425,,,,,
trial,html.Screen,4_0_0,2023-11-01T17:16:21.781Z,,0,1,,4880.4749999999185,response,ISIC_0072429.JPG,5,ISIC_3545622.JPG,ISIC_0072429.JPG,false,1,keypress(m),500,179670.19999999995,179668.8999999999,174771.757,174781.2999999998,174788.425,179674.654,8,400,1,,ISIC_3545622.JPG
break,html.Screen,4_0_1,2023-11-01T17:16:21.784Z,,0,,,NaN,,,,,,false,,,,179673.09999999986,179672.3999999999,,179670.69999999995,,179674.654,8,400,,,
break_continue,html.Screen,4_0_2,2023-11-01T17:16:21.785Z,,0,,,NaN,,,,,,false,,,,179674.8999999999,179674.3999999999,,179673.8999999999,,179674.654,8,400,,,
sequence,flow.Sequence,4_0,2023-11-01T17:16:21.786Z,,0,,,4885.9749999999185,completion,,,,,false,,,,179675.59999999986,179674.3999999999,174771.757,174781.2999999998,174788.425,179674.654,8,400,,,
trial,html.Screen,4_1_0,2023-11-01T17:16:24.782Z,,0,1,,2996.7459999998973,response,ISIC_8953848.JPG,5,ISIC_0064307.JPG,ISIC_0064307.JPG,false,0,keypress(z),500,182672,182671.3999999999,179657.986,179675.8999999999,179674.654,182674.977,8,400,2,,ISIC_8953848.JPG
break,html.Screen,4_1_1,2023-11-01T17:16:24.788Z,,0,,,NaN,,,,,,false,,,,182677.2999999998,182673.2999999998,,182672.5,,182674.977,8,400,,,
break_continue,html.Screen,4_1_2,2023-11-01T17:16:24.789Z,,0,,,NaN,,,,,,false,,,,182678.7999999998,182678.19999999995,,182677.69999999995,,182674.977,8,400,,,
sequence,flow.Sequence,4_1,2023-11-01T17:16:24.790Z,,0,,,3003.545999999944,completion,,,,,false,,,,182679.3999999999,182678.19999999995,179657.986,179675.7999999998,179674.654,182674.977,8,400,,,
trial,html.Screen,4_2_0,2023-11-01T17:16:27.706Z,,0,1,,2920.122999999847,response,ISIC_0068837.JPG,5,ISIC_0033241.JPG,ISIC_0068837.JPG,false,1,keypress(m),500,185595.59999999986,185595.09999999986,182658.309,182679.7999999998,182674.977,185608.607,8,400,3,,ISIC_0033241.JPG
break,html.Screen,4_2_1,2023-11-01T17:16:27.708Z,,0,,,NaN,,,,,,false,,,,185597.69999999995,185597.19999999995,,185596.09999999986,,185608.607,8,400,,,
break_continue,html.Screen,4_2_2,2023-11-01T17:16:27.709Z,,0,,,NaN,,,,,,false,,,,185598.69999999995,185598.3999999999,,185598,,185608.607,8,400,,,
sequence,flow.Sequence,4_2,2023-11-01T17:16:27.710Z,,0,,,2923.4229999998934,completion,,,,,false,,,,185599.19999999995,185598.3999999999,182658.309,182679.69999999995,182674.977,185608.607,8,400,,,
trial,html.Screen,4_3_0,2023-11-01T17:16:30.657Z,,0,1,,2937.893000000011,response,ISIC_4524488.JPG,4,ISIC_0028910.JPG,ISIC_0028910.JPG,false,0,keypress(z),500,188547,188546.5,185591.939,185599.59999999986,185608.607,188558.925,8,400,4,,ISIC_4524488.JPG
break,html.Screen,4_3_1,2023-11-01T17:16:30.659Z,,0,,,NaN,,,,,,false,,,,188548.69999999995,188548.2999999998,,188547.5,,188558.925,8,400,,,
break_continue,html.Screen,4_3_2,2023-11-01T17:16:30.660Z,,0,,,NaN,,,,,,false,,,,188549.69999999995,188549.5,,188549.09999999986,,188558.925,8,400,,,
sequence,flow.Sequence,4_3,2023-11-01T17:16:30.661Z,,0,,,2940.893000000011,completion,,,,,false,,,,188550.2999999998,188549.5,185591.939,185599.5,185608.607,188558.925,8,400,,,
trial,html.Screen,4_4_0,2023-11-01T17:16:35.464Z,,0,1,,4794.575000000012,response,ISIC_7114660.JPG,5,ISIC_1149693.JPG,ISIC_7114660.JPG,false,1,keypress(m),500,193354.09999999986,193353.5,188542.257,188550.59999999986,188558.925,193359.417,8,400,5,,ISIC_1149693.JPG
break,html.Screen,4_4_1,2023-11-01T17:16:35.466Z,,0,,,NaN,,,,,,false,,,,193355.8999999999,193355.5,,193354.59999999986,,193359.417,8,400,,,
break_continue,html.Screen,4_4_2,2023-11-01T17:16:35.467Z,,0,,,NaN,,,,,,false,,,,193356.7999999998,193356.5,,193356.19999999995,,193359.417,8,400,,,
sequence,flow.Sequence,4_4,2023-11-01T17:16:35.468Z,,0,,,4797.575000000012,completion,,,,,false,,,,193357.3999999999,193356.5,188542.257,188550.5,188558.925,193359.417,8,400,,,
trial,html.Screen,4_5_0,2023-11-01T17:16:38.416Z,,0,1,,2945.1829999998736,response,ISIC_0070974.JPG,5,ISIC_7433993.JPG,ISIC_0070974.JPG,false,1,keypress(m),500,196305.19999999995,196304.59999999986,193342.749,193357.7999999998,193359.417,196309.727,8,400,6,,ISIC_7433993.JPG
break,html.Screen,4_5_1,2023-11-01T17:16:38.417Z,,0,,,NaN,,,,,,false,,,,196307,196306.5,,196305.59999999986,,196309.727,8,400,,,
break_continue,html.Screen,4_5_2,2023-11-01T17:16:38.418Z,,0,,,NaN,,,,,,false,,,,196308,196307.59999999986,,196307.2999999998,,196309.727,8,400,,,
sequence,flow.Sequence,4_5,2023-11-01T17:16:38.419Z,,0,,,2948.1829999998736,completion,,,,,false,,,,196308.3999999999,196307.59999999986,193342.749,193357.59999999986,193359.417,196309.727,8,400,,,
trial,html.Screen,4_6_0,2023-11-01T17:16:40.919Z,,0,1,,2497.872999999847,response,ISIC_0025987.JPG,5,ISIC_4153234.JPG,ISIC_0025987.JPG,false,1,keypress(m),500,198808.09999999986,198807.59999999986,196293.059,196308.7999999998,196309.727,198809.98,8,400,7,,ISIC_4153234.JPG
break,html.Screen,4_6_1,2023-11-01T17:16:40.921Z,,0,,,NaN,,,,,,false,,,,198810.09999999986,198809.59999999986,,198808.5,,198809.98,8,400,,,
break_continue,html.Screen,4_6_2,2023-11-01T17:16:40.922Z,,0,,,NaN,,,,,,false,,,,198811.19999999995,198810.8999999999,,198810.5,,198809.98,8,400,,,
sequence,flow.Sequence,4_6,2023-11-01T17:16:40.922Z,,0,,,2501.1729999998934,completion,,,,,false,,,,198811.59999999986,198810.8999999999,196293.059,196308.69999999995,196309.727,198809.98,8,400,,,
trial,html.Screen,4_7_0,2023-11-01T17:16:43.520Z,,0,1,,2598.61999999985,response,ISIC_0031941.JPG,5,ISIC_4780541.JPG,ISIC_0031941.JPG,false,1,keypress(m),500,201409.09999999986,201408.59999999986,198793.312,198812,198809.98,201426.933,8,400,8,,ISIC_4780541.JPG
break,html.Screen,4_7_1,2023-11-01T17:16:43.521Z,,0,,,NaN,,,,,,false,,,,201411.09999999986,201410.5,,201409.59999999986,,201426.933,8,400,,,
break_continue,html.Screen,4_7_2,2023-11-01T17:16:43.523Z,,0,,,NaN,,,,,,false,,,,201412.19999999995,201411.7999999998,,201411.3999999999,,201426.933,8,400,,,
sequence,flow.Sequence,4_7,2023-11-01T17:16:43.523Z,,0,,,2601.8199999998033,completion,,,,,false,,,,201412.59999999986,201411.7999999998,198793.312,198811.7999999998,198809.98,201426.933,8,400,,,
trial,html.Screen,4_8_0,2023-11-01T17:16:45.995Z,,0,1,,2456.6669999998703,response,ISIC_0027956.JPG,5,ISIC_5648111.JPG,ISIC_0027956.JPG,false,1,keypress(m),500,203884.09999999986,203883.59999999986,201410.265,201413.09999999986,201426.933,203893.842,8,400,9,,ISIC_5648111.JPG
break,html.Screen,4_8_1,2023-11-01T17:16:45.997Z,,0,,,NaN,,,,,,false,,,,203886.69999999995,203886.19999999995,,203884.59999999986,,203893.842,8,400,,,
break_continue,html.Screen,4_8_2,2023-11-01T17:16:45.998Z,,0,,,NaN,,,,,,false,,,,203887.69999999995,203887.3999999999,,203887.09999999986,,203893.842,8,400,,,
sequence,flow.Sequence,4_8,2023-11-01T17:16:45.999Z,,0,,,2460.466999999917,completion,,,,,false,,,,203888.19999999995,203887.3999999999,201410.265,201412.8999999999,201426.933,203893.842,8,400,,,
trial,html.Screen,4_9_0,2023-11-01T17:16:48.696Z,,0,1,,2690.657999999996,response,ISIC_0013617.JPG,5,ISIC_7519274.JPG,ISIC_0013617.JPG,false,1,keypress(m),500,206585.19999999995,206584.5,203877.174,203888.59999999986,203893.842,206594.124,8,400,10,,ISIC_7519274.JPG
break,html.Screen,4_9_1,2023-11-01T17:16:48.698Z,,0,,,NaN,,,,,,false,,,,206587.3999999999,206586.8999999999,,206585.59999999986,,206594.124,8,400,,,
break_continue,html.Screen,4_9_2,2023-11-01T17:16:48.699Z,,0,,,NaN,,,,,,false,,,,206588.5,206588.19999999995,,206587.69999999995,,206594.124,8,400,,,
sequence,flow.Sequence,4_9,2023-11-01T17:16:48.699Z,,0,,,2694.3579999999492,completion,,,,,false,,,,206589,206588.19999999995,203877.174,203888.5,203893.842,206594.124,8,400,,,
trial,html.Screen,4_10_0,2023-11-01T17:16:51.103Z,,0,1,,2397.8759999999893,response,ISIC_0027420.JPG,5,ISIC_4907595.JPG,ISIC_0027420.JPG,false,1,keypress(m),500,208992.5,208992,206577.456,206589.2999999998,206594.124,208994.391,8,400,11,,ISIC_4907595.JPG
break,html.Screen,4_10_1,2023-11-01T17:16:51.105Z,,0,,,NaN,,,,,,false,,,,208994.09999999986,208993.69999999995,,208993,,208994.391,8,400,,,
break_continue,html.Screen,4_10_2,2023-11-01T17:16:51.106Z,,0,,,NaN,,,,,,false,,,,208995.09999999986,208994.69999999995,,208994.3999999999,,208994.391,8,400,,,
sequence,flow.Sequence,4_10,2023-11-01T17:16:51.106Z,,0,,,2400.5759999999427,completion,,,,,false,,,,208995.5,208994.69999999995,206577.456,206589.2999999998,206594.124,208994.391,8,400,,,
trial,html.Screen,4_11_0,2023-11-01T17:16:53.893Z,,0,1,,2788.0089999999036,response,ISIC_0034311.JPG,5,ISIC_0011994.JPG,ISIC_0011994.JPG,false,0,keypress(z),500,211782.8999999999,211782.3999999999,208977.723,208995.8999999999,208994.391,211794.675,8,400,12,,ISIC_0034311.JPG
break,html.Screen,4_11_1,2023-11-01T17:16:53.895Z,,0,,,NaN,,,,,,false,,,,211784.59999999986,211784.19999999995,,211783.3999999999,,211794.675,8,400,,,
break_continue,html.Screen,4_11_2,2023-11-01T17:16:53.896Z,,0,,,NaN,,,,,,false,,,,211785.59999999986,211785.2999999998,,211785,,211794.675,8,400,,,
sequence,flow.Sequence,4_11,2023-11-01T17:16:53.897Z,,0,,,2790.9089999998105,completion,,,,,false,,,,211786.09999999986,211785.2999999998,208977.723,208995.7999999998,208994.391,211794.675,8,400,,,
trial,html.Screen,4_12_0,2023-11-01T17:16:56.433Z,,0,1,,2527.6249999998254,response,ISIC_8478591.JPG,4,ISIC_0027573.JPG,ISIC_0027573.JPG,false,0,keypress(z),500,214322.7999999998,214322.2999999998,211778.007,211786.5,211794.675,214328.269,8,400,13,,ISIC_8478591.JPG
break,html.Screen,4_12_1,2023-11-01T17:16:56.435Z,,0,,,NaN,,,,,,false,,,,214324.8999999999,214324.2999999998,,214323.19999999995,,214328.269,8,400,,,
break_continue,html.Screen,4_12_2,2023-11-01T17:16:56.436Z,,0,,,NaN,,,,,,false,,,,214325.7999999998,214325.5,,214325.19999999995,,214328.269,8,400,,,
sequence,flow.Sequence,4_12,2023-11-01T17:16:56.437Z,,0,,,2530.8250000000116,completion,,,,,false,,,,214326.2999999998,214325.5,211778.007,211786.2999999998,211794.675,214328.269,8,400,,,
trial,html.Screen,4_13_0,2023-11-01T17:16:59.338Z,,0,1,,2899.33099999986,response,ISIC_0031408.JPG,5,ISIC_0030107.JPG,ISIC_0030107.JPG,false,0,keypress(z),500,217227.8999999999,217227.59999999986,214311.601,214326.69999999995,214328.269,217245.248,8,400,14,,ISIC_0031408.JPG
break,html.Screen,4_13_1,2023-11-01T17:16:59.339Z,,0,,,NaN,,,,,,false,,,,217228.7999999998,217228.5,,217228.19999999995,,217245.248,8,400,,,
break_continue,html.Screen,4_13_2,2023-11-01T17:16:59.340Z,,0,,,NaN,,,,,,false,,,,217229.19999999995,217229,,217228.8999999999,,217245.248,8,400,,,
sequence,flow.Sequence,4_13,2023-11-01T17:16:59.340Z,,0,,,2900.7309999999998,completion,,,,,false,,,,217229.3999999999,217229,214311.601,214326.59999999986,214328.269,217245.248,8,400,,,
trial,html.Screen,4_14_0,2023-11-01T17:17:02.610Z,,0,1,,3253.7520000000077,response,ISIC_0428383.JPG,5,ISIC_1292607.JPG,ISIC_0428383.JPG,false,1,keypress(m),500,220499.59999999986,220499,217228.58,217229.59999999986,217245.248,220512.256,8,400,15,,ISIC_1292607.JPG
break,html.Screen,4_14_1,2023-11-01T17:17:02.612Z,,0,,,NaN,,,,,,false,,,,220501.5,220501,,220500.09999999986,,220512.256,8,400,,,
break_continue,html.Screen,4_14_2,2023-11-01T17:17:02.613Z,,0,,,NaN,,,,,,false,,,,220502.3999999999,220502.09999999986,,220501.7999999998,,220512.256,8,400,,,
sequence,flow.Sequence,4_14,2023-11-01T17:17:02.613Z,,0,,,3256.851999999868,completion,,,,,false,,,,220502.8999999999,220502.09999999986,217228.58,217229.5,217245.248,220512.256,8,400,,,
trial,html.Screen,4_15_0,2023-11-01T17:17:05.801Z,,0,1,,3177.4439999999595,response,ISIC_5994645.JPG,5,ISIC_5548914.JPG,ISIC_5994645.JPG,false,1,keypress(m),500,223690.19999999995,223689.69999999995,220495.588,220503.2999999998,220512.256,223695.911,8,400,16,,ISIC_5548914.JPG
break,html.Screen,4_15_1,2023-11-01T17:17:05.803Z,,0,,,NaN,,,,,,false,,,,223692.2999999998,223691.7999999998,,223690.69999999995,,223695.911,8,400,,,
break_continue,html.Screen,4_15_2,2023-11-01T17:17:05.804Z,,0,,,NaN,,,,,,false,,,,223693.19999999995,223692.8999999999,,223692.59999999986,,223695.911,8,400,,,
sequence,flow.Sequence,4_15,2023-11-01T17:17:05.804Z,,0,,,3180.643999999913,completion,,,,,false,,,,223693.69999999995,223692.8999999999,220495.588,220503.19999999995,220512.256,223695.911,8,400,,,
trial,html.Screen,4_16_0,2023-11-01T17:17:10.003Z,,0,1,,4196.488999999914,response,ISIC_3981425.JPG,5,ISIC_0806140.JPG,ISIC_0806140.JPG,false,0,keypress(z),500,227893.09999999986,227892.3999999999,223679.243,223694.09999999986,223695.911,227896.358,8,400,17,,ISIC_3981425.JPG
break,html.Screen,4_16_1,2023-11-01T17:17:10.005Z,,0,,,NaN,,,,,,false,,,,227894.8999999999,227894.3999999999,,227893.5,,227896.358,8,400,,,
break_continue,html.Screen,4_16_2,2023-11-01T17:17:10.006Z,,0,,,NaN,,,,,,false,,,,227895.8999999999,227895.5,,227895.2999999998,,227896.358,8,400,,,
sequence,flow.Sequence,4_16,2023-11-01T17:17:10.007Z,,0,,,4199.589000000007,completion,,,,,false,,,,227896.3999999999,227895.5,223679.243,223694,223695.911,227896.358,8,400,,,
trial,html.Screen,4_17_0,2023-11-01T17:17:12.890Z,,0,1,,2882.9419999998063,response,ISIC_0231167.JPG,4,ISIC_0054357.JPG,ISIC_0054357.JPG,false,0,keypress(z),500,230779.7999999998,230779.2999999998,227879.69,227897,227896.358,230796.665,8,400,18,,ISIC_0231167.JPG
break,html.Screen,4_17_1,2023-11-01T17:17:12.892Z,,0,,,NaN,,,,,,false,,,,230781.59999999986,230781,,230780.2999999998,,230796.665,8,400,,,
break_continue,html.Screen,4_17_2,2023-11-01T17:17:12.893Z,,0,,,NaN,,,,,,false,,,,230782.69999999995,230782.2999999998,,230781.8999999999,,230796.665,8,400,,,
sequence,flow.Sequence,4_17,2023-11-01T17:17:12.894Z,,0,,,2885.9419999998063,completion,,,,,false,,,,230783.09999999986,230782.2999999998,227879.69,227896.69999999995,227896.358,230796.665,8,400,,,
trial,html.Screen,4_18_0,2023-11-01T17:17:16.465Z,,0,1,,3557.5349999999453,response,ISIC_6793603.JPG,4,ISIC_0057978.JPG,ISIC_0057978.JPG,false,0,keypress(z),500,234354.7999999998,234354.19999999995,230779.997,230783.5,230796.665,234363.696,8,400,19,,ISIC_6793603.JPG
break,html.Screen,4_18_1,2023-11-01T17:17:16.467Z,,0,,,NaN,,,,,,false,,,,234356.69999999995,234356.19999999995,,234355.2999999998,,234363.696,8,400,,,
break_continue,html.Screen,4_18_2,2023-11-01T17:17:16.468Z,,0,,,NaN,,,,,,false,,,,234357.69999999995,234357.2999999998,,234357,,234363.696,8,400,,,
sequence,flow.Sequence,4_18,2023-11-01T17:17:16.469Z,,0,,,3560.6349999998056,completion,,,,,false,,,,234358.19999999995,234357.2999999998,230779.997,230783.5,230796.665,234363.696,8,400,,,
trial,html.Screen,4_19_0,2023-11-01T17:17:19.501Z,,0,1,,3026.403999999864,response,ISIC_5247383.JPG,5,ISIC_3941123.JPG,ISIC_3941123.JPG,false,0,keypress(z),500,237390.59999999986,237390.09999999986,234347.028,234358.5,234363.696,237397.345,8,400,20,,ISIC_5247383.JPG
break,html.Screen,4_19_1,2023-11-01T17:17:19.503Z,,0,,,NaN,,,,,,false,,,,237392.7999999998,237392.2999999998,,237391.19999999995,,237397.345,8,400,,,
break_continue,html.Screen,4_19_2,2023-11-01T17:17:19.504Z,,0,,,NaN,,,,,,false,,,,237393.69999999995,237393.3999999999,,237393.09999999986,,237397.345,8,400,,,
sequence,flow.Sequence,4_19,2023-11-01T17:17:19.505Z,,0,,,3029.7039999999106,completion,,,,,false,,,,237394.2999999998,237393.3999999999,234347.028,234358.3999999999,234363.696,237397.345,8,400,,,
trial,html.Screen,4_20_0,2023-11-01T17:17:22.308Z,,0,1,,2799.654999999999,response,ISIC_0072714.JPG,4,ISIC_1843053.JPG,ISIC_1843053.JPG,false,0,keypress(z),500,240197.59999999986,240197,237380.677,237394.59999999986,237397.345,240214.304,8,400,21,,ISIC_0072714.JPG
break,html.Screen,4_20_1,2023-11-01T17:17:22.310Z,,0,,,NaN,,,,,,false,,,,240199.3999999999,240199.09999999986,,240198,,240214.304,8,400,,,
break_continue,html.Screen,4_20_2,2023-11-01T17:17:22.311Z,,0,,,NaN,,,,,,false,,,,240200.5,240200.19999999995,,240199.7999999998,,240214.304,8,400,,,
sequence,flow.Sequence,4_20,2023-11-01T17:17:22.311Z,,0,,,2802.8549999999523,completion,,,,,false,,,,240201,240200.19999999995,237380.677,237394.5,237397.345,240214.304,8,400,,,
trial,html.Screen,4_21_0,2023-11-01T17:17:24.897Z,,0,1,,2571.6959999999963,response,ISIC_2513481.JPG,5,ISIC_0054341.JPG,ISIC_0054341.JPG,false,0,keypress(z),500,242786.59999999986,242786,240197.636,240201.2999999998,240214.304,242797.911,8,400,22,,ISIC_2513481.JPG
break,html.Screen,4_21_1,2023-11-01T17:17:24.899Z,,0,,,NaN,,,,,,false,,,,242788.59999999986,242788.09999999986,,242787.09999999986,,242797.911,8,400,,,
break_continue,html.Screen,4_21_2,2023-11-01T17:17:24.900Z,,0,,,NaN,,,,,,false,,,,242789.5,242789.19999999995,,242788.8999999999,,242797.911,8,400,,,
sequence,flow.Sequence,4_21,2023-11-01T17:17:24.900Z,,0,,,2574.8959999999497,completion,,,,,false,,,,242790,242789.19999999995,240197.636,240201.2999999998,240214.304,242797.911,8,400,,,
trial,html.Screen,4_22_0,2023-11-01T17:17:27.560Z,,0,1,,2651.2889999999607,response,ISIC_9852341.JPG,4,ISIC_0647224.JPG,ISIC_0647224.JPG,false,0,keypress(z),500,245449.2999999998,245449.19999999995,242781.243,242790.59999999986,242797.911,245464.873,8,400,23,,ISIC_9852341.JPG
break,html.Screen,4_22_1,2023-11-01T17:17:27.560Z,,0,,,NaN,,,,,,false,,,,245450.09999999986,245449.8999999999,,245449.5,,245464.873,8,400,,,
break_continue,html.Screen,4_22_2,2023-11-01T17:17:27.561Z,,0,,,NaN,,,,,,false,,,,245450.3999999999,245450.2999999998,,245450.19999999995,,245464.873,8,400,,,
sequence,flow.Sequence,4_22,2023-11-01T17:17:27.561Z,,0,,,2652.388999999821,completion,,,,,false,,,,245450.5,245450.2999999998,242781.243,242790.3999999999,242797.911,245464.873,8,400,,,
trial,html.Screen,4_23_0,2023-11-01T17:17:30.368Z,,0,1,,2792.1270000000077,response,ISIC_0066213.JPG,4,ISIC_0063234.JPG,ISIC_0063234.JPG,false,0,keypress(z),500,248257.59999999986,248257,245448.186,245450.59999999986,245464.873,248265.149,8,400,24,,ISIC_0066213.JPG
break,html.Screen,4_23_1,2023-11-01T17:17:30.370Z,,0,,,NaN,,,,,,false,,,,248259.3999999999,248259,,248258,,248265.149,8,400,,,
break_continue,html.Screen,4_23_2,2023-11-01T17:17:30.371Z,,0,,,NaN,,,,,,false,,,,248260.2999999998,248260,,248259.69999999995,,248265.149,8,400,,,
sequence,flow.Sequence,4_23,2023-11-01T17:17:30.371Z,,0,,,2795.1270000000077,completion,,,,,false,,,,248260.7999999998,248260,245448.186,245450.59999999986,245464.873,248265.149,8,400,,,
trial,html.Screen,4_24_0,2023-11-01T17:17:33.405Z,,0,1,,3028.9509999998554,response,ISIC_1109641.JPG,5,ISIC_0068015.JPG,ISIC_0068015.JPG,false,0,keypress(z),500,251294.59999999986,251294.09999999986,248248.481,248261.19999999995,248265.149,251298.788,8,400,25,,ISIC_1109641.JPG
break,html.Screen,4_24_1,2023-11-01T17:17:33.407Z,,0,,,NaN,,,,,,false,,,,251296.5,251295.7999999998,,251295.09999999986,,251298.788,8,400,,,
break_continue,html.Screen,4_24_2,2023-11-01T17:17:33.408Z,,0,,,NaN,,,,,,false,,,,251297.3999999999,251297.09999999986,,251296.7999999998,,251298.788,8,400,,,
sequence,flow.Sequence,4_24,2023-11-01T17:17:33.408Z,,0,,,3031.9509999998554,completion,,,,,false,,,,251297.8999999999,251297.09999999986,248248.481,248261,248265.149,251298.788,8,400,,,
trial,html.Screen,4_25_0,2023-11-01T17:17:36.645Z,,0,1,,3235.0119999998133,response,ISIC_3979323.JPG,5,ISIC_7365615.JPG,ISIC_3979323.JPG,false,1,keypress(m),500,254534.2999999998,254533.7999999998,251282.12,251298.19999999995,251298.788,254549.136,8,400,26,,ISIC_7365615.JPG
break,html.Screen,4_25_1,2023-11-01T17:17:36.646Z,,0,,,NaN,,,,,,false,,,,254536.09999999986,254535.5,,254534.7999999998,,254549.136,8,400,,,
break_continue,html.Screen,4_25_2,2023-11-01T17:17:36.647Z,,0,,,NaN,,,,,,false,,,,254537,254536.59999999986,,254536.2999999998,,254549.136,8,400,,,
sequence,flow.Sequence,4_25,2023-11-01T17:17:36.648Z,,0,,,3237.81199999986,completion,,,,,false,,,,254537.3999999999,254536.59999999986,251282.12,251298.09999999986,251298.788,254549.136,8,400,,,
trial,html.Screen,4_26_0,2023-11-01T17:17:39.707Z,,0,1,,3047.3640000000014,response,ISIC_2259190.JPG,5,ISIC_6440229.JPG,ISIC_6440229.JPG,false,0,keypress(z),500,257597,257596.5,254532.468,254537.7999999998,254549.136,257599.456,8,400,27,,ISIC_2259190.JPG
break,html.Screen,4_26_1,2023-11-01T17:17:39.709Z,,0,,,NaN,,,,,,false,,,,257598.7999999998,257598.3999999999,,257597.5,,257599.456,8,400,,,
break_continue,html.Screen,4_26_2,2023-11-01T17:17:39.710Z,,0,,,NaN,,,,,,false,,,,257600,257599.5,,257599.19999999995,,257599.456,8,400,,,
sequence,flow.Sequence,4_26,2023-11-01T17:17:39.711Z,,0,,,3050.3640000000014,completion,,,,,false,,,,257600.3999999999,257599.5,254532.468,254537.69999999995,254549.136,257599.456,8,400,,,
trial,html.Screen,4_27_0,2023-11-01T17:17:43.571Z,,0,1,,3860.243999999948,response,ISIC_7888517.JPG,5,ISIC_0027659.JPG,ISIC_7888517.JPG,false,1,keypress(m),500,261460.19999999995,261459.69999999995,257582.788,257600.7999999998,257599.456,261466.517,8,400,28,,ISIC_0027659.JPG
break,html.Screen,4_27_1,2023-11-01T17:17:43.573Z,,0,,,NaN,,,,,,false,,,,261462.19999999995,261461.69999999995,,261460.59999999986,,261466.517,8,400,,,
break_continue,html.Screen,4_27_2,2023-11-01T17:17:43.573Z,,0,,,NaN,,,,,,false,,,,261463.09999999986,261462.7999999998,,261462.3999999999,,261466.517,8,400,,,
sequence,flow.Sequence,4_27,2023-11-01T17:17:43.574Z,,0,,,3863.343999999808,completion,,,,,false,,,,261463.5,261462.7999999998,257582.788,257600.69999999995,257599.456,261466.517,8,400,,,
trial,html.Screen,4_28_0,2023-11-01T17:17:46.782Z,,0,1,,3204.4830000000075,response,ISIC_0046443.JPG,5,ISIC_2997601.JPG,ISIC_0046443.JPG,false,1,keypress(m),500,264671.59999999986,264671,261449.849,261463.8999999999,261466.517,264683.522,8,400,29,,ISIC_2997601.JPG
break,html.Screen,4_28_1,2023-11-01T17:17:46.784Z,,0,,,NaN,,,,,,false,,,,264673.5,264673.09999999986,,264672,,264683.522,8,400,,,
break_continue,html.Screen,4_28_2,2023-11-01T17:17:46.785Z,,0,,,NaN,,,,,,false,,,,264674.3999999999,264674.09999999986,,264673.7999999998,,264683.522,8,400,,,
sequence,flow.Sequence,4_28,2023-11-01T17:17:46.785Z,,0,,,3207.5829999998678,completion,,,,,false,,,,264674.8999999999,264674.09999999986,261449.849,261463.7999999998,261466.517,264683.522,8,400,,,
trial,html.Screen,4_29_0,2023-11-01T17:17:49.669Z,,0,1,,2874.077999999863,response,ISIC_4474170.JPG,5,ISIC_0031146.JPG,ISIC_4474170.JPG,false,1,keypress(m),500,267558.09999999986,267557.59999999986,264666.854,264675.2999999998,264683.522,267583.839,8,400,30,,ISIC_0031146.JPG
break,html.Screen,4_29_1,2023-11-01T17:17:49.670Z,,0,,,NaN,,,,,,false,,,,267559.69999999995,267559.2999999998,,267558.59999999986,,267583.839,8,400,,,
break_continue,html.Screen,4_29_2,2023-11-01T17:17:49.671Z,,0,,,NaN,,,,,,false,,,,267560.59999999986,267560.2999999998,,267560,,267583.839,8,400,,,
sequence,flow.Sequence,4_29,2023-11-01T17:17:49.672Z,,0,,,2876.7779999998165,completion,,,,,false,,,,267561.09999999986,267560.2999999998,264666.854,264675.19999999995,264683.522,267583.839,8,400,,,
trial,html.Screen,4_30_0,2023-11-01T17:17:53.883Z,,0,1,,4188.360999999975,response,ISIC_7278885.JPG,5,ISIC_7205745.JPG,ISIC_7278885.JPG,false,1,keypress(m),500,271772.69999999995,271772.19999999995,267567.162,267561.5,267583.839,271784.267,8,400,31,,ISIC_7205745.JPG
break,html.Screen,4_30_1,2023-11-01T17:17:53.885Z,,0,,,NaN,,,,,,false,,,,271774.5,271773.8999999999,,271773.19999999995,,271784.267,8,400,,,
break_continue,html.Screen,4_30_2,2023-11-01T17:17:53.886Z,,0,,,NaN,,,,,,false,,,,271775.5,271775.09999999986,,271774.7999999998,,271784.267,8,400,,,
sequence,flow.Sequence,4_30,2023-11-01T17:17:53.886Z,,0,,,4191.260999999882,completion,,,,,false,,,,271775.7999999998,271775.09999999986,267567.162,267561.2999999998,267583.839,271784.267,8,400,,,
trial,html.Screen,4_31_0,2023-11-01T17:17:57.090Z,,0,1,,3194.3329999998678,response,ISIC_0028919.JPG,5,ISIC_4949672.JPG,ISIC_0028919.JPG,false,1,keypress(m),500,274979.19999999995,274978.59999999986,271767.599,271776.19999999995,271784.267,274984.6,8,400,32,,ISIC_4949672.JPG
break,html.Screen,4_31_1,2023-11-01T17:17:57.091Z,,0,,,NaN,,,,,,false,,,,274980.7999999998,274980.3999999999,,274979.59999999986,,274984.6,8,400,,,
break_continue,html.Screen,4_31_2,2023-11-01T17:17:57.092Z,,0,,,NaN,,,,,,false,,,,274981.69999999995,274981.2999999998,,274981.09999999986,,274984.6,8,400,,,
sequence,flow.Sequence,4_31,2023-11-01T17:17:57.093Z,,0,,,3197.032999999821,completion,,,,,false,,,,274982.19999999995,274981.2999999998,271767.599,271776.19999999995,271784.267,274984.6,8,400,,,
trial,html.Screen,4_32_0,2023-11-01T17:18:01.352Z,,0,1,,4256.29999999993,response,ISIC_3416324.JPG,4,ISIC_0056141.JPG,ISIC_0056141.JPG,false,0,keypress(z),500,279241.5,279240.8999999999,274967.932,274982.5,274984.6,279251.716,8,400,33,,ISIC_3416324.JPG
break,html.Screen,4_32_1,2023-11-01T17:18:01.354Z,,0,,,NaN,,,,,,false,,,,279243.09999999986,279242.59999999986,,279241.8999999999,,279251.716,8,400,,,
break_continue,html.Screen,4_32_2,2023-11-01T17:18:01.354Z,,0,,,NaN,,,,,,false,,,,279244.09999999986,279243.7999999998,,279243.3999999999,,279251.716,8,400,,,
sequence,flow.Sequence,4_32,2023-11-01T17:18:01.355Z,,0,,,4259.199999999837,completion,,,,,false,,,,279244.5,279243.7999999998,274967.932,274982.5,274984.6,279251.716,8,400,,,
trial,html.Screen,4_33_0,2023-11-01T17:18:04.302Z,,0,1,,2939.683999999892,response,ISIC_0033687.JPG,5,ISIC_1081430.JPG,ISIC_0033687.JPG,false,1,keypress(m),500,282192,282191.3999999999,279235.048,279244.7999999998,279251.716,282202.019,8,400,34,,ISIC_1081430.JPG
break,html.Screen,4_33_1,2023-11-01T17:18:04.304Z,,0,,,NaN,,,,,,false,,,,282193.59999999986,282193.2999999998,,282192.3999999999,,282202.019,8,400,,,
break_continue,html.Screen,4_33_2,2023-11-01T17:18:04.305Z,,0,,,NaN,,,,,,false,,,,282194.59999999986,282194.2999999998,,282194,,282202.019,8,400,,,
sequence,flow.Sequence,4_33,2023-11-01T17:18:04.305Z,,0,,,2942.583999999799,completion,,,,,false,,,,282195.09999999986,282194.2999999998,279235.048,279244.69999999995,279251.716,282202.019,8,400,,,
trial,html.Screen,4_34_0,2023-11-01T17:18:07.494Z,,0,1,,3181.3809999999357,response,ISIC_0065378.JPG,5,ISIC_6553579.JPG,ISIC_6553579.JPG,false,0,keypress(z),500,285384,285383.3999999999,282185.351,282195.3999999999,282202.019,285385.685,8,400,35,,ISIC_0065378.JPG
break,html.Screen,4_34_1,2023-11-01T17:18:07.496Z,,0,,,NaN,,,,,,false,,,,285385.8999999999,285385.5,,285384.5,,285385.685,8,400,,,
break_continue,html.Screen,4_34_2,2023-11-01T17:18:07.497Z,,0,,,NaN,,,,,,false,,,,285386.8999999999,285386.5,,285386.2999999998,,285385.685,8,400,,,
sequence,flow.Sequence,4_34,2023-11-01T17:18:07.498Z,,0,,,3184.481000000029,completion,,,,,false,,,,285387.3999999999,285386.5,282185.351,282195.3999999999,282202.019,285385.685,8,400,,,
trial,html.Screen,4_35_0,2023-11-01T17:18:10.765Z,,0,1,,3268.5149999999558,response,ISIC_2707664.JPG,5,ISIC_5595054.JPG,ISIC_5595054.JPG,false,0,keypress(z),500,288654.5,288654.19999999995,285369.017,285387.7999999998,285385.685,288669.36,8,400,36,,ISIC_2707664.JPG
break,html.Screen,4_35_1,2023-11-01T17:18:10.766Z,,0,,,NaN,,,,,,false,,,,288655.19999999995,288655.09999999986,,288654.69999999995,,288669.36,8,400,,,
break_continue,html.Screen,4_35_2,2023-11-01T17:18:10.766Z,,0,,,NaN,,,,,,false,,,,288655.5,288655.3999999999,,288655.2999999998,,288669.36,8,400,,,
sequence,flow.Sequence,4_35,2023-11-01T17:18:10.766Z,,0,,,3269.714999999909,completion,,,,,false,,,,288655.59999999986,288655.3999999999,285369.017,285387.69999999995,285385.685,288669.36,8,400,,,
trial,html.Screen,4_36_0,2023-11-01T17:18:14.064Z,,0,1,,3283.9399999998277,response,ISIC_8777813.JPG,4,ISIC_5538169.JPG,ISIC_5538169.JPG,false,0,keypress(z),500,291953.8999999999,291953.2999999998,288652.692,288655.7999999998,288669.36,291969.712,8,400,37,,ISIC_8777813.JPG
break,html.Screen,4_36_1,2023-11-01T17:18:14.066Z,,0,,,NaN,,,,,,false,,,,291955.69999999995,291955.2999999998,,291954.2999999998,,291969.712,8,400,,,
break_continue,html.Screen,4_36_2,2023-11-01T17:18:14.067Z,,0,,,NaN,,,,,,false,,,,291956.69999999995,291956.2999999998,,291956,,291969.712,8,400,,,
sequence,flow.Sequence,4_36,2023-11-01T17:18:14.068Z,,0,,,3286.9399999998277,completion,,,,,false,,,,291957.09999999986,291956.2999999998,288652.692,288655.69999999995,288669.36,291969.712,8,400,,,
trial,html.Screen,4_37_0,2023-11-01T17:18:17.223Z,,0,1,,3142.087999999814,response,ISIC_0030003.JPG,5,ISIC_9154716.JPG,ISIC_9154716.JPG,false,0,keypress(z),500,295112.3999999999,295111.7999999998,291953.044,291957.3999999999,291969.712,295120.031,8,400,38,,ISIC_0030003.JPG
break,html.Screen,4_37_1,2023-11-01T17:18:17.224Z,,0,,,NaN,,,,,,false,,,,295114.09999999986,295113.69999999995,,295112.7999999998,,295120.031,8,400,,,
break_continue,html.Screen,4_37_2,2023-11-01T17:18:17.225Z,,0,,,NaN,,,,,,false,,,,295115,295114.69999999995,,295114.2999999998,,295120.031,8,400,,,
sequence,flow.Sequence,4_37,2023-11-01T17:18:17.226Z,,0,,,3144.987999999954,completion,,,,,false,,,,295115.5,295114.69999999995,291953.044,291957.2999999998,291969.712,295120.031,8,400,,,
trial,html.Screen,4_38_0,2023-11-01T17:18:20.405Z,,0,1,,3173.668999999936,response,ISIC_8195528.JPG,5,ISIC_0028484.JPG,ISIC_0028484.JPG,false,0,keypress(z),500,298294.19999999995,298293.69999999995,295103.363,295115.8999999999,295120.031,298303.693,8,400,39,,ISIC_8195528.JPG
break,html.Screen,4_38_1,2023-11-01T17:18:20.407Z,,0,,,NaN,,,,,,false,,,,298296.09999999986,298295.59999999986,,298294.59999999986,,298303.693,8,400,,,
break_continue,html.Screen,4_38_2,2023-11-01T17:18:20.408Z,,0,,,NaN,,,,,,false,,,,298297.09999999986,298296.69999999995,,298296.3999999999,,298303.693,8,400,,,
sequence,flow.Sequence,4_38,2023-11-01T17:18:20.408Z,,0,,,3176.668999999936,completion,,,,,false,,,,298297.5,298296.69999999995,295103.363,295115.69999999995,295120.031,298303.693,8,400,,,
trial,html.Screen,4_39_0,2023-11-01T17:18:23.292Z,,0,1,,2876.906999999832,response,ISIC_6515546.JPG,5,ISIC_0011996.JPG,ISIC_0011996.JPG,false,0,keypress(z),500,301181.19999999995,301180.59999999986,298287.025,298297.8999999999,298303.693,301187.329,8,400,40,,ISIC_6515546.JPG
break,html.Screen,4_39_1,2023-11-01T17:18:23.293Z,,0,,,NaN,,,,,,false,,,,301182.7999999998,301182.3999999999,,301181.69999999995,,301187.329,8,400,,,
break_continue,html.Screen,4_39_2,2023-11-01T17:18:23.294Z,,0,,,NaN,,,,,,false,,,,301183.7999999998,301183.5,,301183.09999999986,,301187.329,8,400,,,
sequence,flow.Sequence,4_39,2023-11-01T17:18:23.295Z,,0,,,2879.8069999999716,completion,,,,,false,,,,301184.2999999998,301183.5,298287.025,298297.7999999998,298303.693,301187.329,8,400,,,
trial,html.Screen,4_40_0,2023-11-01T17:18:27.972Z,,0,1,,4673.970999999787,response,ISIC_7242542.JPG,5,ISIC_7268123.JPG,ISIC_7242542.JPG,false,1,keypress(m),500,305861.8999999999,305861.2999999998,301170.661,301184.69999999995,301187.329,305871.164,8,400,41,,ISIC_7268123.JPG
break,html.Screen,4_40_1,2023-11-01T17:18:27.974Z,,0,,,NaN,,,,,,false,,,,305863.5,305863.09999999986,,305862.2999999998,,305871.164,8,400,,,
break_continue,html.Screen,4_40_2,2023-11-01T17:18:27.975Z,,0,,,NaN,,,,,,false,,,,305864.7999999998,305864.5,,305864.09999999986,,305871.164,8,400,,,
sequence,flow.Sequence,4_40,2023-11-01T17:18:27.976Z,,0,,,4677.170999999973,completion,,,,,false,,,,305865.2999999998,305864.5,301170.661,301184.59999999986,301187.329,305871.164,8,400,,,
trial,html.Screen,4_41_0,2023-11-01T17:18:30.767Z,,0,1,,2785.4359999998705,response,ISIC_9219356.JPG,5,ISIC_4343836.JPG,ISIC_9219356.JPG,false,1,keypress(m),500,308656.7999999998,308656.59999999986,305854.496,305865.69999999995,305871.164,308671.461,8,400,42,,ISIC_4343836.JPG
break,html.Screen,4_41_1,2023-11-01T17:18:30.768Z,,0,,,NaN,,,,,,false,,,,308657.69999999995,308657.3999999999,,308657.09999999986,,308671.461,8,400,,,
break_continue,html.Screen,4_41_2,2023-11-01T17:18:30.768Z,,0,,,NaN,,,,,,false,,,,308657.8999999999,308657.7999999998,,308657.69999999995,,308671.461,8,400,,,
sequence,flow.Sequence,4_41,2023-11-01T17:18:30.769Z,,0,,,2786.635999999824,completion,,,,,false,,,,308658.09999999986,308657.7999999998,305854.496,305865.5,305871.164,308671.461,8,400,,,
trial,html.Screen,4_42_0,2023-11-01T17:18:33.379Z,,0,1,,2596.13899999985,response,ISIC_0014527.JPG,5,ISIC_0030910.JPG,ISIC_0030910.JPG,false,0,keypress(z),500,311268.09999999986,311267.59999999986,308654.776,308658.19999999995,308671.461,311271.722,8,400,43,,ISIC_0014527.JPG
break,html.Screen,4_42_1,2023-11-01T17:18:33.380Z,,0,,,NaN,,,,,,false,,,,311270,311269.59999999986,,311268.5,,311271.722,8,400,,,
break_continue,html.Screen,4_42_2,2023-11-01T17:18:33.381Z,,0,,,NaN,,,,,,false,,,,311270.8999999999,311270.5,,311270.2999999998,,311271.722,8,400,,,
sequence,flow.Sequence,4_42,2023-11-01T17:18:33.382Z,,0,,,2599.0389999999898,completion,,,,,false,,,,311271.2999999998,311270.5,308654.776,308658.19999999995,308671.461,311271.722,8,400,,,
trial,html.Screen,4_43_0,2023-11-01T17:18:36.617Z,,0,1,,3234.4779999999446,response,ISIC_6745554.JPG,4,ISIC_6809191.JPG,ISIC_6745554.JPG,false,1,keypress(m),500,314506.69999999995,314506.19999999995,311255.054,311271.59999999986,311271.722,314522.058,8,400,44,,ISIC_6809191.JPG
break,html.Screen,4_43_1,2023-11-01T17:18:36.619Z,,0,,,NaN,,,,,,false,,,,314508.59999999986,314508.19999999995,,314507.19999999995,,314522.058,8,400,,,
break_continue,html.Screen,4_43_2,2023-11-01T17:18:36.620Z,,0,,,NaN,,,,,,false,,,,314509.59999999986,314509.2999999998,,314508.8999999999,,314522.058,8,400,,,
sequence,flow.Sequence,4_43,2023-11-01T17:18:36.621Z,,0,,,3237.577999999805,completion,,,,,false,,,,314510.09999999986,314509.2999999998,311255.054,311271.5,311271.722,314522.058,8,400,,,
trial,html.Screen,4_44_0,2023-11-01T17:18:39.686Z,,0,1,,3053.041999999841,response,ISIC_4183816.JPG,5,ISIC_6366631.JPG,ISIC_6366631.JPG,false,0,keypress(z),500,317575.59999999986,317575.09999999986,314505.39,314510.3999999999,314522.058,317589.044,8,400,45,,ISIC_4183816.JPG
break,html.Screen,4_44_1,2023-11-01T17:18:39.688Z,,0,,,NaN,,,,,,false,,,,317577.3999999999,317576.7999999998,,317576.09999999986,,317589.044,8,400,,,
break_continue,html.Screen,4_44_2,2023-11-01T17:18:39.689Z,,0,,,NaN,,,,,,false,,,,317578.3999999999,317578,,317577.7999999998,,317589.044,8,400,,,
sequence,flow.Sequence,4_44,2023-11-01T17:18:39.689Z,,0,,,3055.941999999981,completion,,,,,false,,,,317578.7999999998,317578,314505.39,314510.2999999998,314522.058,317589.044,8,400,,,
trial,html.Screen,4_45_0,2023-11-01T17:18:42.865Z,,0,1,,3165.2559999998193,response,ISIC_0033213.JPG,5,ISIC_0060829.JPG,ISIC_0033213.JPG,false,1,keypress(m),500,320754.8999999999,320754.2999999998,317572.376,317579.19999999995,317589.044,320772.709,8,400,46,,ISIC_0060829.JPG
break,html.Screen,4_45_1,2023-11-01T17:18:42.867Z,,0,,,NaN,,,,,,false,,,,320757,320756.5,,320755.69999999995,,320772.709,8,400,,,
break_continue,html.Screen,4_45_2,2023-11-01T17:18:42.868Z,,0,,,NaN,,,,,,false,,,,320758,320757.59999999986,,320757.2999999998,,320772.709,8,400,,,
sequence,flow.Sequence,4_45,2023-11-01T17:18:42.869Z,,0,,,3168.555999999866,completion,,,,,false,,,,320758.3999999999,320757.59999999986,317572.376,317579.19999999995,317589.044,320772.709,8,400,,,
trial,html.Screen,4_46_0,2023-11-01T17:18:45.915Z,,0,1,,3030.890999999887,response,ISIC_0244240.JPG,5,ISIC_0032939.JPG,ISIC_0032939.JPG,false,0,keypress(z),500,323804.19999999995,323803.59999999986,320756.041,320758.7999999998,320772.709,323806.359,8,400,47,,ISIC_0244240.JPG
break,html.Screen,4_46_1,2023-11-01T17:18:45.916Z,,0,,,NaN,,,,,,false,,,,323806,323805.3999999999,,323804.69999999995,,323806.359,8,400,,,
break_continue,html.Screen,4_46_2,2023-11-01T17:18:45.917Z,,0,,,NaN,,,,,,false,,,,323807,323806.59999999986,,323806.2999999998,,323806.359,8,400,,,
sequence,flow.Sequence,4_46,2023-11-01T17:18:45.918Z,,0,,,3033.890999999887,completion,,,,,false,,,,323807.5,323806.59999999986,320756.041,320758.69999999995,320772.709,323806.359,8,400,,,
trial,html.Screen,4_47_0,2023-11-01T17:18:49.861Z,,0,1,,3943.3409999999567,response,ISIC_0028764.JPG,4,ISIC_3717983.JPG,ISIC_3717983.JPG,false,0,keypress(z),500,327750.2999999998,327749.69999999995,323789.691,323807.59999999986,323806.359,327756.762,8,400,48,,ISIC_0028764.JPG
break,html.Screen,4_47_1,2023-11-01T17:18:49.863Z,,0,,,NaN,,,,,,false,,,,327752.09999999986,327751.69999999995,,327750.69999999995,,327756.762,8,400,,,
break_continue,html.Screen,4_47_2,2023-11-01T17:18:49.864Z,,0,,,NaN,,,,,,false,,,,327753.09999999986,327752.69999999995,,327752.3999999999,,327756.762,8,400,,,
sequence,flow.Sequence,4_47,2023-11-01T17:18:49.864Z,,0,,,3946.3409999999567,completion,,,,,false,,,,327753.5,327752.69999999995,323789.691,323807.5,323806.359,327756.762,8,400,,,
trial,html.Screen,4_48_0,2023-11-01T17:18:52.588Z,,0,1,,2719.738000000012,response,ISIC_0378399.JPG,5,ISIC_3791309.JPG,ISIC_0378399.JPG,false,1,keypress(m),500,330477.09999999986,330476.5,327740.094,327754,327756.762,330490.385,8,400,49,,ISIC_3791309.JPG
break,html.Screen,4_48_1,2023-11-01T17:18:52.589Z,,0,,,NaN,,,,,,false,,,,330478.69999999995,330478.2999999998,,330477.5,,330490.385,8,400,,,
break_continue,html.Screen,4_48_2,2023-11-01T17:18:52.590Z,,0,,,NaN,,,,,,false,,,,330479.69999999995,330479.3999999999,,330479,,330490.385,8,400,,,
sequence,flow.Sequence,4_48,2023-11-01T17:18:52.591Z,,0,,,2722.637999999919,completion,,,,,false,,,,330480.19999999995,330479.3999999999,327740.094,327753.7999999998,327756.762,330490.385,8,400,,,
trial,html.Screen,4_49_0,2023-11-01T17:18:55.394Z,,0,1,,2792.9149999998044,response,ISIC_0027063.JPG,4,ISIC_0063642.JPG,ISIC_0027063.JPG,false,1,keypress(m),500,333283.8999999999,333283.2999999998,330473.717,330480.59999999986,330490.385,333290.677,8,400,50,,ISIC_0063642.JPG
break,html.Screen,4_49_1,2023-11-01T17:19:05.388Z,,0,,,10001.06899999996,timeout,,,,,false,,,,343277.1000000001,343275.067,333274.009,333284.3999999999,333290.677,343291.746,8,400,,,
break_continue,html.Screen,4_49_2,2023-11-01T17:19:07.175Z,,0,,,1738.2540000000154,response,,,,,false,continue,keypress(Space),,345064.7999999998,345030,343275.067,343277.5,343291.746,345075.211,8,400,,,
sequence,flow.Sequence,4_49,2023-11-01T17:19:07.176Z,,0,,,14539.61499999999,completion,,,,,false,,,,345065.5,345030,330473.717,330480.5,330490.385,345075.211,8,400,,,
trial,html.Screen,4_50_0,2023-11-01T17:19:10.116Z,,0,2,,2929.7889999999898,response,ISIC_9088073.JPG,5,ISIC_0028022.JPG,ISIC_9088073.JPG,false,1,keypress(m),500,348005.6000000001,348005,345058.543,345065.8999999999,345075.211,348008.888,8,400,1,,ISIC_0028022.JPG
break,html.Screen,4_50_1,2023-11-01T17:19:10.118Z,,0,,,NaN,,,,,,false,,,,348007.6999999997,348006.8999999999,,348006.1000000001,,348008.888,8,400,,,
break_continue,html.Screen,4_50_2,2023-11-01T17:19:10.119Z,,0,,,NaN,,,,,,false,,,,348008.6000000001,348008.2999999998,,348008,,348008.888,8,400,,,
sequence,flow.Sequence,4_50,2023-11-01T17:19:10.120Z,,0,,,2933.0889999998035,completion,,,,,false,,,,348009.1000000001,348008.2999999998,345058.543,345065.6999999997,345075.211,348008.888,8,400,,,
trial,html.Screen,4_51_0,2023-11-01T17:19:12.750Z,,0,2,,2630.112000000023,response,ISIC_0034263.JPG,5,ISIC_2904474.JPG,ISIC_0034263.JPG,false,1,keypress(m),500,350639.1999999997,350639,347992.22,348009.5,348008.888,350642.499,8,400,2,,ISIC_2904474.JPG
break,html.Screen,4_51_1,2023-11-01T17:19:12.750Z,,0,,,NaN,,,,,,false,,,,350640,350639.7999999998,,350639.3999999999,,350642.499,8,400,,,
break_continue,html.Screen,4_51_2,2023-11-01T17:19:12.751Z,,0,,,NaN,,,,,,false,,,,350640.3999999999,350640.1999999997,,350640.1000000001,,350642.499,8,400,,,
sequence,flow.Sequence,4_51,2023-11-01T17:19:12.751Z,,0,,,2631.3119999997434,completion,,,,,false,,,,350640.8999999999,350640.1999999997,347992.22,348009.3999999999,348008.888,350642.499,8,400,,,
trial,html.Screen,4_52_0,2023-11-01T17:19:17.474Z,,0,2,,4720.000999999989,response,ISIC_2071966.JPG,5,ISIC_1351604.JPG,ISIC_1351604.JPG,false,0,keypress(z),500,355363.1999999997,355362.5,350625.831,350641.1000000001,350642.499,355376.32,8,400,3,,ISIC_2071966.JPG
break,html.Screen,4_52_1,2023-11-01T17:19:17.476Z,,0,,,NaN,,,,,,false,,,,355365.1999999997,355364.6000000001,,355363.7999999998,,355376.32,8,400,,,
break_continue,html.Screen,4_52_2,2023-11-01T17:19:17.477Z,,0,,,NaN,,,,,,false,,,,355366.1999999997,355365.7999999998,,355365.5,,355376.32,8,400,,,
sequence,flow.Sequence,4_52,2023-11-01T17:19:17.477Z,,0,,,4723.300999999803,completion,,,,,false,,,,355366.6999999997,355365.7999999998,350625.831,350641.1000000001,350642.499,355376.32,8,400,,,
trial,html.Screen,4_53_0,2023-11-01T17:19:20.505Z,,0,2,,3017.780000000086,response,ISIC_3018550.JPG,5,ISIC_6326803.JPG,ISIC_6326803.JPG,false,0,keypress(z),500,358394.6000000001,358394.1000000001,355359.652,355367.1999999997,355376.32,358409.962,8,400,4,,ISIC_3018550.JPG
break,html.Screen,4_53_1,2023-11-01T17:19:20.507Z,,0,,,NaN,,,,,,false,,,,358396.6000000001,358396,,358395.1000000001,,358409.962,8,400,,,
break_continue,html.Screen,4_53_2,2023-11-01T17:19:20.508Z,,0,,,NaN,,,,,,false,,,,358397.5,358397.1000000001,,358396.8999999999,,358409.962,8,400,,,
sequence,flow.Sequence,4_53,2023-11-01T17:19:20.508Z,,0,,,3020.780000000086,completion,,,,,false,,,,358397.8999999999,358397.1000000001,355359.652,355367,355376.32,358409.962,8,400,,,
trial,html.Screen,4_54_0,2023-11-01T17:19:24.272Z,,0,2,,3750.837999999814,response,ISIC_0001572.JPG,5,ISIC_9626777.JPG,ISIC_0001572.JPG,false,1,keypress(m),500,362161.5,362160.7999999998,358393.294,358398.3999999999,358409.962,362177.032,8,400,5,,ISIC_9626777.JPG
break,html.Screen,4_54_1,2023-11-01T17:19:24.274Z,,0,,,NaN,,,,,,false,,,,362163.6999999997,362163.5,,362162,,362177.032,8,400,,,
break_continue,html.Screen,4_54_2,2023-11-01T17:19:24.275Z,,0,,,NaN,,,,,,false,,,,362164.8999999999,362163.8999999999,,362163.7999999998,,362177.032,8,400,,,
sequence,flow.Sequence,4_54,2023-11-01T17:19:24.276Z,,0,,,3753.9379999999073,completion,,,,,false,,,,362165.1999999997,362163.8999999999,358393.294,358398.2999999998,358409.962,362177.032,8,400,,,
trial,html.Screen,4_55_0,2023-11-01T17:19:27.607Z,,0,2,,3318.4679999999935,response,ISIC_0046623.JPG,5,ISIC_0067167.JPG,ISIC_0046623.JPG,false,1,keypress(m),500,365496.1000000001,365495.5,362160.364,362165.2999999998,362177.032,365510.71,8,400,6,,ISIC_0067167.JPG
break,html.Screen,4_55_1,2023-11-01T17:19:27.608Z,,0,,,NaN,,,,,,false,,,,365498,365497.6000000001,,365496.6000000001,,365510.71,8,400,,,
break_continue,html.Screen,4_55_2,2023-11-01T17:19:27.609Z,,0,,,NaN,,,,,,false,,,,365499.1000000001,365498.6999999997,,365498.2999999998,,365510.71,8,400,,,
sequence,flow.Sequence,4_55,2023-11-01T17:19:27.610Z,,0,,,3321.667999999714,completion,,,,,false,,,,365499.5,365498.6999999997,362160.364,362165.2999999998,362177.032,365510.71,8,400,,,
trial,html.Screen,4_56_0,2023-11-01T17:19:31.214Z,,0,2,,3591.789999999979,response,ISIC_8023705.JPG,5,ISIC_7822725.JPG,ISIC_8023705.JPG,false,1,keypress(m),500,369103.1000000001,369102.5,365494.042,365499.7999999998,365510.71,369111.086,8,400,7,,ISIC_7822725.JPG
break,html.Screen,4_56_1,2023-11-01T17:19:31.215Z,,0,,,NaN,,,,,,false,,,,369104.8999999999,369104.2999999998,,369103.6000000001,,369111.086,8,400,,,
break_continue,html.Screen,4_56_2,2023-11-01T17:19:31.216Z,,0,,,NaN,,,,,,false,,,,369105.7999999998,369105.5,,369105.1999999997,,369111.086,8,400,,,
sequence,flow.Sequence,4_56,2023-11-01T17:19:31.217Z,,0,,,3594.789999999979,completion,,,,,false,,,,369106.2999999998,369105.5,365494.042,365499.6999999997,365510.71,369111.086,8,400,,,
trial,html.Screen,4_57_0,2023-11-01T17:19:34.036Z,,0,2,,2814.3139999998966,response,ISIC_0030922.JPG,4,ISIC_0437978.JPG,ISIC_0437978.JPG,false,0,keypress(z),500,371925.8999999999,371925.3999999999,369094.418,369106.6999999997,369111.086,371928.045,8,400,8,,ISIC_0030922.JPG
break,html.Screen,4_57_1,2023-11-01T17:19:34.038Z,,0,,,NaN,,,,,,false,,,,371927.6000000001,371927.1999999997,,371926.3999999999,,371928.045,8,400,,,
break_continue,html.Screen,4_57_2,2023-11-01T17:19:34.039Z,,0,,,NaN,,,,,,false,,,,371928.5,371928.1000000001,,371927.8999999999,,371928.045,8,400,,,
sequence,flow.Sequence,4_57,2023-11-01T17:19:34.039Z,,0,,,2817.014000000083,completion,,,,,false,,,,371929,371928.1000000001,369094.418,369106.6000000001,369111.086,371928.045,8,400,,,
trial,html.Screen,4_58_0,2023-11-01T17:19:36.987Z,,0,2,,2947.4550000000163,response,ISIC_0865706.JPG,5,ISIC_0026087.JPG,ISIC_0865706.JPG,false,1,keypress(m),500,374876.1000000001,374875.5,371911.377,371929.3999999999,371928.045,374878.353,8,400,9,,ISIC_0026087.JPG
break,html.Screen,4_58_1,2023-11-01T17:19:36.988Z,,0,,,NaN,,,,,,false,,,,374878,374877.5,,374876.5,,374878.353,8,400,,,
break_continue,html.Screen,4_58_2,2023-11-01T17:19:36.989Z,,0,,,NaN,,,,,,false,,,,374879,374878.5,,374878.1999999997,,374878.353,8,400,,,
sequence,flow.Sequence,4_58,2023-11-01T17:19:36.990Z,,0,,,2950.4550000000163,completion,,,,,false,,,,374879.5,374878.5,371911.377,371929.1999999997,371928.045,374878.353,8,400,,,
trial,html.Screen,4_59_0,2023-11-01T17:19:39.585Z,,0,2,,2595.946999999811,response,ISIC_0026360.JPG,5,ISIC_0067077.JPG,ISIC_0026360.JPG,false,1,keypress(m),500,377474.7999999998,377474.2999999998,374861.685,374879.7999999998,374878.353,377478.62,8,400,10,,ISIC_0067077.JPG
break,html.Screen,4_59_1,2023-11-01T17:19:39.587Z,,0,,,NaN,,,,,,false,,,,377476.5,377476.1000000001,,377475.2999999998,,377478.62,8,400,,,
break_continue,html.Screen,4_59_2,2023-11-01T17:19:39.588Z,,0,,,NaN,,,,,,false,,,,377477.5,377477.1000000001,,377476.7999999998,,377478.62,8,400,,,
sequence,flow.Sequence,4_59,2023-11-01T17:19:39.588Z,,0,,,2598.7470000000903,completion,,,,,false,,,,377478,377477.1000000001,374861.685,374879.6999999997,374878.353,377478.62,8,400,,,
trial,html.Screen,4_60_0,2023-11-01T17:19:42.968Z,,0,2,,3378.3800000000047,response,ISIC_1850674.JPG,5,ISIC_1076474.JPG,ISIC_1076474.JPG,false,0,keypress(z),500,380857.6000000001,380857,377461.952,377478.3999999999,377478.62,380862.31,8,400,11,,ISIC_1850674.JPG
break,html.Screen,4_60_1,2023-11-01T17:19:42.970Z,,0,,,NaN,,,,,,false,,,,380859.6000000001,380859.1000000001,,380858,,380862.31,8,400,,,
break_continue,html.Screen,4_60_2,2023-11-01T17:19:42.971Z,,0,,,NaN,,,,,,false,,,,380860.3999999999,380860.1000000001,,380859.7999999998,,380862.31,8,400,,,
sequence,flow.Sequence,4_60,2023-11-01T17:19:42.971Z,,0,,,3381.480000000098,completion,,,,,false,,,,380860.8999999999,380860.1000000001,377461.952,377478.2999999998,377478.62,380862.31,8,400,,,
trial,html.Screen,4_61_0,2023-11-01T17:19:45.935Z,,0,2,,2961.389999999723,response,ISIC_0011260.JPG,5,ISIC_4201891.JPG,ISIC_0011260.JPG,false,1,keypress(m),500,383824.2999999998,383823.6999999997,380845.642,380861.1999999997,380862.31,383829.296,8,400,12,,ISIC_4201891.JPG
break,html.Screen,4_61_1,2023-11-01T17:19:45.937Z,,0,,,NaN,,,,,,false,,,,383826.1000000001,383825.6000000001,,383824.6999999997,,383829.296,8,400,,,
break_continue,html.Screen,4_61_2,2023-11-01T17:19:45.937Z,,0,,,NaN,,,,,,false,,,,383827,383826.6999999997,,383826.3999999999,,383829.296,8,400,,,
sequence,flow.Sequence,4_61,2023-11-01T17:19:45.938Z,,0,,,2964.389999999723,completion,,,,,false,,,,383827.5,383826.6999999997,380845.642,380861.1000000001,380862.31,383829.296,8,400,,,
trial,html.Screen,4_62_0,2023-11-01T17:19:49.142Z,,0,2,,3201.204000000027,response,ISIC_0911264.JPG,5,ISIC_0025184.JPG,ISIC_0911264.JPG,false,1,keypress(m),500,387031.1000000001,387030.5,383812.628,383827.7999999998,383829.296,387046.286,8,400,13,,ISIC_0025184.JPG
break,html.Screen,4_62_1,2023-11-01T17:19:49.143Z,,0,,,NaN,,,,,,false,,,,387032.7999999998,387032.2999999998,,387031.6000000001,,387046.286,8,400,,,
break_continue,html.Screen,4_62_2,2023-11-01T17:19:49.144Z,,0,,,NaN,,,,,,false,,,,387033.6999999997,387033.2999999998,,387033.1000000001,,387046.286,8,400,,,
sequence,flow.Sequence,4_62,2023-11-01T17:19:49.145Z,,0,,,3204.0039999998407,completion,,,,,false,,,,387034.1999999997,387033.2999999998,383812.628,383827.7999999998,383829.296,387046.286,8,400,,,
trial,html.Screen,4_63_0,2023-11-01T17:19:52.460Z,,0,2,,3302.9139999996987,response,ISIC_1492055.JPG,4,ISIC_0612080.JPG,ISIC_1492055.JPG,false,1,keypress(m),500,390349.6999999997,390349.1999999997,387029.618,387034.6000000001,387046.286,390363.302,8,400,14,,ISIC_0612080.JPG
break,html.Screen,4_63_1,2023-11-01T17:19:52.462Z,,0,,,NaN,,,,,,false,,,,390351.3999999999,390351,,390350.2999999998,,390363.302,8,400,,,
break_continue,html.Screen,4_63_2,2023-11-01T17:19:52.463Z,,0,,,NaN,,,,,,false,,,,390352.3999999999,390352,,390351.6999999997,,390363.302,8,400,,,
sequence,flow.Sequence,4_63,2023-11-01T17:19:52.463Z,,0,,,3305.713999999978,completion,,,,,false,,,,390352.7999999998,390352,387029.618,387034.5,387046.286,390363.302,8,400,,,
trial,html.Screen,4_64_0,2023-11-01T17:19:55.386Z,,0,2,,2911.697999999975,response,ISIC_0031010.JPG,5,ISIC_0030085.JPG,ISIC_0030085.JPG,false,0,keypress(z),500,393275.6999999997,393275,390346.634,390353.1999999997,390363.302,393280.27,8,400,15,,ISIC_0031010.JPG
break,html.Screen,4_64_1,2023-11-01T17:19:55.388Z,,0,,,NaN,,,,,,false,,,,393277.5,393277.1000000001,,393276.1000000001,,393280.27,8,400,,,
break_continue,html.Screen,4_64_2,2023-11-01T17:19:55.389Z,,0,,,NaN,,,,,,false,,,,393278.3999999999,393278.1000000001,,393277.7999999998,,393280.27,8,400,,,
sequence,flow.Sequence,4_64,2023-11-01T17:19:55.389Z,,0,,,2914.798000000068,completion,,,,,false,,,,393278.8999999999,393278.1000000001,390346.634,390353.1000000001,390363.302,393280.27,8,400,,,
trial,html.Screen,4_65_0,2023-11-01T17:19:58.152Z,,0,2,,2760.529999999795,response,ISIC_0057496.JPG,5,ISIC_3416324.JPG,ISIC_0057496.JPG,false,1,keypress(m),500,396041.3999999999,396040.7999999998,393263.602,393279.1999999997,393280.27,396047.228,8,400,16,,ISIC_3416324.JPG
break,html.Screen,4_65_1,2023-11-01T17:19:58.154Z,,0,,,NaN,,,,,,false,,,,396043.1999999997,396042.6999999997,,396041.7999999998,,396047.228,8,400,,,
break_continue,html.Screen,4_65_2,2023-11-01T17:19:58.155Z,,0,,,NaN,,,,,,false,,,,396044.1999999997,396043.7999999998,,396043.5,,396047.228,8,400,,,
sequence,flow.Sequence,4_65,2023-11-01T17:19:58.155Z,,0,,,2763.529999999795,completion,,,,,false,,,,396044.6000000001,396043.7999999998,393263.602,393279.1999999997,393280.27,396047.228,8,400,,,
trial,html.Screen,4_66_0,2023-11-01T17:20:00.726Z,,0,2,,2567.8720000000903,response,ISIC_6126620.JPG,5,ISIC_0010869.JPG,ISIC_6126620.JPG,false,1,keypress(m),500,398615.6999999997,398615.1000000001,396030.56,396045,396047.228,398630.829,8,400,17,,ISIC_0010869.JPG
break,html.Screen,4_66_1,2023-11-01T17:20:00.728Z,,0,,,NaN,,,,,,false,,,,398617.6000000001,398616.8999999999,,398616.1000000001,,398630.829,8,400,,,
break_continue,html.Screen,4_66_2,2023-11-01T17:20:00.729Z,,0,,,NaN,,,,,,false,,,,398618.5,398618.1999999997,,398617.7999999998,,398630.829,8,400,,,
sequence,flow.Sequence,4_66,2023-11-01T17:20:00.729Z,,0,,,2570.971999999718,completion,,,,,false,,,,398619,398618.1999999997,396030.56,396044.8999999999,396047.228,398630.829,8,400,,,
trial,html.Screen,4_67_0,2023-11-01T17:20:04.173Z,,0,2,,3431.3709999996936,response,ISIC_0000522.JPG,5,ISIC_0059925.JPG,ISIC_0059925.JPG,false,0,keypress(z),500,402062.6999999997,402062.1999999997,398614.161,398619.3999999999,398630.829,402064.52,8,400,18,,ISIC_0000522.JPG
break,html.Screen,4_67_1,2023-11-01T17:20:04.175Z,,0,,,NaN,,,,,,false,,,,402064.7999999998,402064.1000000001,,402063.1999999997,,402064.52,8,400,,,
break_continue,html.Screen,4_67_2,2023-11-01T17:20:04.176Z,,0,,,NaN,,,,,,false,,,,402066,402065.5,,402065.1000000001,,402064.52,8,400,,,
sequence,flow.Sequence,4_67,2023-11-01T17:20:04.177Z,,0,,,3434.670999999973,completion,,,,,false,,,,402066.5,402065.5,398614.161,398619.2999999998,398630.829,402064.52,8,400,,,
trial,html.Screen,4_68_0,2023-11-01T17:20:08.116Z,,0,2,,3940.9799999999814,response,ISIC_0055624.JPG,5,ISIC_1597566.JPG,ISIC_1597566.JPG,false,0,keypress(z),500,406006,406005.5,402047.852,402066.7999999998,402064.52,406031.62,8,400,19,,ISIC_0055624.JPG
break,html.Screen,4_68_1,2023-11-01T17:20:08.118Z,,0,,,NaN,,,,,,false,,,,406007.6000000001,406007.1000000001,,406006.5,,406031.62,8,400,,,
break_continue,html.Screen,4_68_2,2023-11-01T17:20:08.119Z,,0,,,NaN,,,,,,false,,,,406008.5,406008.1999999997,,406007.7999999998,,406031.62,8,400,,,
sequence,flow.Sequence,4_68,2023-11-01T17:20:08.119Z,,0,,,3943.679999999702,completion,,,,,false,,,,406009,406008.1999999997,402047.852,402066.6999999997,402064.52,406031.62,8,400,,,
trial,html.Screen,4_69_0,2023-11-01T17:20:10.619Z,,0,2,,2476.0799999997253,response,ISIC_0572205.JPG,5,ISIC_1142962.JPG,ISIC_0572205.JPG,false,1,keypress(m),500,408508.2999999998,408507.6999999997,406014.941,406009.3999999999,406031.62,408531.869,8,400,20,,ISIC_1142962.JPG
break,html.Screen,4_69_1,2023-11-01T17:20:10.620Z,,0,,,NaN,,,,,,false,,,,408509.8999999999,408509.3999999999,,408508.6999999997,,408531.869,8,400,,,
break_continue,html.Screen,4_69_2,2023-11-01T17:20:10.621Z,,0,,,NaN,,,,,,false,,,,408510.7999999998,408510.5,,408510.1999999997,,408531.869,8,400,,,
sequence,flow.Sequence,4_69,2023-11-01T17:20:10.622Z,,0,,,2478.8800000000047,completion,,,,,false,,,,408511.3999999999,408510.5,406014.941,406009.2999999998,406031.62,408531.869,8,400,,,
trial,html.Screen,4_70_0,2023-11-01T17:20:13.265Z,,0,2,,2622.4309999998077,response,ISIC_2957732.JPG,4,ISIC_0693902.JPG,ISIC_2957732.JPG,false,1,keypress(m),500,411155,411154.2999999998,408515.192,408511.6999999997,408531.869,411165.471,8,400,21,,ISIC_0693902.JPG
break,html.Screen,4_70_1,2023-11-01T17:20:13.267Z,,0,,,NaN,,,,,,false,,,,411156.6000000001,411156.1000000001,,411155.3999999999,,411165.471,8,400,,,
break_continue,html.Screen,4_70_2,2023-11-01T17:20:13.268Z,,0,,,NaN,,,,,,false,,,,411157.5,411157.1000000001,,411156.8999999999,,411165.471,8,400,,,
sequence,flow.Sequence,4_70,2023-11-01T17:20:13.268Z,,0,,,2625.231000000087,completion,,,,,false,,,,411158,411157.1000000001,408515.192,408511.6000000001,408531.869,411165.471,8,400,,,
trial,html.Screen,4_71_0,2023-11-01T17:20:15.880Z,,0,2,,2603.1290000000736,response,ISIC_0033122.JPG,5,ISIC_0553932.JPG,ISIC_0033122.JPG,false,1,keypress(m),500,413769.2999999998,413768.6000000001,411148.803,411158.3999999999,411165.471,413782.415,8,400,22,,ISIC_0553932.JPG
break,html.Screen,4_71_1,2023-11-01T17:20:15.882Z,,0,,,NaN,,,,,,false,,,,413771.1999999997,413770.7999999998,,413769.6999999997,,413782.415,8,400,,,
break_continue,html.Screen,4_71_2,2023-11-01T17:20:15.883Z,,0,,,NaN,,,,,,false,,,,413772.1000000001,413771.7999999998,,413771.5,,413782.415,8,400,,,
sequence,flow.Sequence,4_71,2023-11-01T17:20:15.883Z,,0,,,2606.328999999794,completion,,,,,false,,,,413772.6000000001,413771.7999999998,411148.803,411158.2999999998,411165.471,413782.415,8,400,,,
trial,html.Screen,4_72_0,2023-11-01T17:20:18.371Z,,0,2,,2477.685000000114,response,ISIC_2498064.JPG,5,ISIC_0504730.JPG,ISIC_0504730.JPG,false,0,keypress(z),500,416260.6000000001,416260.1000000001,413765.747,413773.1000000001,413782.415,416266.007,8,400,23,,ISIC_2498064.JPG
break,html.Screen,4_72_1,2023-11-01T17:20:18.373Z,,0,,,NaN,,,,,,false,,,,416262.5,416261.8999999999,,416261.1000000001,,416266.007,8,400,,,
break_continue,html.Screen,4_72_2,2023-11-01T17:20:18.374Z,,0,,,NaN,,,,,,false,,,,416263.3999999999,416263,,416262.7999999998,,416266.007,8,400,,,
sequence,flow.Sequence,4_72,2023-11-01T17:20:18.374Z,,0,,,2480.585000000021,completion,,,,,false,,,,416263.8999999999,416263,413765.747,413772.7999999998,413782.415,416266.007,8,400,,,
trial,html.Screen,4_73_0,2023-11-01T17:20:20.922Z,,0,2,,2544.6929999997374,response,ISIC_6098768.JPG,5,ISIC_0014501.JPG,ISIC_0014501.JPG,false,0,keypress(z),500,418811.2999999998,418810.6999999997,416249.339,416264.2999999998,416266.007,418816.266,8,400,24,,ISIC_6098768.JPG
break,html.Screen,4_73_1,2023-11-01T17:20:20.924Z,,0,,,NaN,,,,,,false,,,,418813.1999999997,418812.6000000001,,418811.7999999998,,418816.266,8,400,,,
break_continue,html.Screen,4_73_2,2023-11-01T17:20:20.924Z,,0,,,NaN,,,,,,false,,,,418814,418813.6999999997,,418813.3999999999,,418816.266,8,400,,,
sequence,flow.Sequence,4_73,2023-11-01T17:20:20.925Z,,0,,,2547.6929999997374,completion,,,,,false,,,,418814.6000000001,418813.6999999997,416249.339,416264.1000000001,416266.007,418816.266,8,400,,,
trial,html.Screen,4_74_0,2023-11-01T17:20:24.328Z,,0,2,,3400.4339999997173,response,ISIC_1375476.JPG,5,ISIC_0068107.JPG,ISIC_1375476.JPG,false,1,keypress(m),500,422217.2999999998,422216.6999999997,418799.598,418814.8999999999,418816.266,422233.285,8,400,25,,ISIC_0068107.JPG
break,html.Screen,4_74_1,2023-11-01T17:20:24.330Z,,0,,,NaN,,,,,,false,,,,422219.1000000001,422218.6999999997,,422217.7999999998,,422233.285,8,400,,,
break_continue,html.Screen,4_74_2,2023-11-01T17:20:24.330Z,,0,,,NaN,,,,,,false,,,,422220.1000000001,422219.6999999997,,422219.5,,422233.285,8,400,,,
sequence,flow.Sequence,4_74,2023-11-01T17:20:24.331Z,,0,,,3403.4339999997173,completion,,,,,false,,,,422220.5,422219.6999999997,418799.598,418814.7999999998,418816.266,422233.285,8,400,,,
trial,html.Screen,4_75_0,2023-11-01T17:20:27.103Z,,0,2,,2758.2150000000256,response,ISIC_0070352.JPG,5,ISIC_0014160.JPG,ISIC_0070352.JPG,false,1,keypress(m),500,424992.1000000001,424991.5,422216.617,422221,422233.285,425000.255,8,400,26,,ISIC_0014160.JPG
break,html.Screen,4_75_1,2023-11-01T17:20:27.105Z,,0,,,NaN,,,,,,false,,,,424994.1000000001,424993.6000000001,,424992.5,,425000.255,8,400,,,
break_continue,html.Screen,4_75_2,2023-11-01T17:20:27.105Z,,0,,,NaN,,,,,,false,,,,424995.1000000001,424994.6999999997,,424994.3999999999,,425000.255,8,400,,,
sequence,flow.Sequence,4_75,2023-11-01T17:20:27.106Z,,0,,,2761.414999999746,completion,,,,,false,,,,424995.5,424994.6999999997,422216.617,422220.7999999998,422233.285,425000.255,8,400,,,
trial,html.Screen,4_76_0,2023-11-01T17:20:29.608Z,,0,2,,2496.8450000000885,response,ISIC_0002288.JPG,5,ISIC_0016131.JPG,ISIC_0016131.JPG,false,0,keypress(z),500,427497.6999999997,427497.1000000001,424983.587,424995.8999999999,425000.255,427517.177,8,400,27,,ISIC_0002288.JPG
break,html.Screen,4_76_1,2023-11-01T17:20:29.610Z,,0,,,NaN,,,,,,false,,,,427499.5,427499,,427498.1999999997,,427517.177,8,400,,,
break_continue,html.Screen,4_76_2,2023-11-01T17:20:29.611Z,,0,,,NaN,,,,,,false,,,,427500.2999999998,427500.1000000001,,427499.6999999997,,427517.177,8,400,,,
sequence,flow.Sequence,4_76,2023-11-01T17:20:29.611Z,,0,,,2499.8450000000885,completion,,,,,false,,,,427500.8999999999,427500.1000000001,424983.587,424995.6999999997,425000.255,427517.177,8,400,,,
trial,html.Screen,4_77_0,2023-11-01T17:20:33.045Z,,0,2,,3417.322999999975,response,ISIC_1292607.JPG,5,ISIC_0034076.JPG,ISIC_0034076.JPG,false,0,keypress(z),500,430935,430934.5,427500.509,427501.3999999999,427517.177,430950.869,8,400,28,,ISIC_1292607.JPG
break,html.Screen,4_77_1,2023-11-01T17:20:33.047Z,,0,,,NaN,,,,,,false,,,,430937,430936.5,,430935.5,,430950.869,8,400,,,
break_continue,html.Screen,4_77_2,2023-11-01T17:20:33.048Z,,0,,,NaN,,,,,,false,,,,430937.8999999999,430937.5,,430937.2999999998,,430950.869,8,400,,,
sequence,flow.Sequence,4_77,2023-11-01T17:20:33.049Z,,0,,,3420.322999999975,completion,,,,,false,,,,430938.2999999998,430937.5,427500.509,427501.2999999998,427517.177,430950.869,8,400,,,
trial,html.Screen,4_78_0,2023-11-01T17:20:36.236Z,,0,2,,3174.231000000087,response,ISIC_4573624.JPG,5,ISIC_4220326.JPG,ISIC_4220326.JPG,false,0,keypress(z),500,434125.6999999997,434125.1000000001,430934.201,430938.6999999997,430950.869,434134.543,8,400,29,,ISIC_4573624.JPG
break,html.Screen,4_78_1,2023-11-01T17:20:36.238Z,,0,,,NaN,,,,,,false,,,,434127.3999999999,434126.7999999998,,434126.1000000001,,434134.543,8,400,,,
break_continue,html.Screen,4_78_2,2023-11-01T17:20:36.239Z,,0,,,NaN,,,,,,false,,,,434128.2999999998,434128,,434127.6000000001,,434134.543,8,400,,,
sequence,flow.Sequence,4_78,2023-11-01T17:20:36.239Z,,0,,,3177.130999999994,completion,,,,,false,,,,434128.7999999998,434128,430934.201,430938.6000000001,430950.869,434134.543,8,400,,,
trial,html.Screen,4_79_0,2023-11-01T17:20:39.191Z,,0,2,,2945.956999999995,response,ISIC_4236274.JPG,5,ISIC_4174983.JPG,ISIC_4174983.JPG,false,0,keypress(z),500,437081,437080.5,434117.875,434129.1999999997,434134.543,437084.841,8,400,30,,ISIC_4236274.JPG
break,html.Screen,4_79_1,2023-11-01T17:20:39.193Z,,0,,,NaN,,,,,,false,,,,437082.6999999997,437082.2999999998,,437081.5,,437084.841,8,400,,,
break_continue,html.Screen,4_79_2,2023-11-01T17:20:39.194Z,,0,,,NaN,,,,,,false,,,,437083.6999999997,437083.2999999998,,437083.1000000001,,437084.841,8,400,,,
sequence,flow.Sequence,4_79,2023-11-01T17:20:39.195Z,,0,,,2948.7569999998086,completion,,,,,false,,,,437084.1999999997,437083.2999999998,434117.875,434129,434134.543,437084.841,8,400,,,
trial,html.Screen,4_80_0,2023-11-01T17:20:41.699Z,,0,2,,2503.658999999985,response,ISIC_0031070.JPG,4,ISIC_3376976.JPG,ISIC_0031070.JPG,false,1,keypress(m),500,439589.1000000001,439588.5,437068.173,437084.5,437084.841,439601.772,8,400,31,,ISIC_3376976.JPG
break,html.Screen,4_80_1,2023-11-01T17:20:41.701Z,,0,,,NaN,,,,,,false,,,,439591,439590.3999999999,,439589.6000000001,,439601.772,8,400,,,
break_continue,html.Screen,4_80_2,2023-11-01T17:20:41.702Z,,0,,,NaN,,,,,,false,,,,439591.7999999998,439591.5,,439591.2999999998,,439601.772,8,400,,,
sequence,flow.Sequence,4_80,2023-11-01T17:20:41.703Z,,0,,,2506.658999999985,completion,,,,,false,,,,439592.2999999998,439591.5,437068.173,437084.3999999999,437084.841,439601.772,8,400,,,
trial,html.Screen,4_81_0,2023-11-01T17:20:45.137Z,,0,2,,3424.5279999998165,response,ISIC_0000174.JPG,4,ISIC_0033464.JPG,ISIC_0033464.JPG,false,0,keypress(z),500,443027,443026.2999999998,439585.104,439592.6999999997,439601.772,443035.461,8,400,32,,ISIC_0000174.JPG
break,html.Screen,4_81_1,2023-11-01T17:20:45.140Z,,0,,,NaN,,,,,,false,,,,443029.8999999999,443028.8999999999,,443027.3999999999,,443035.461,8,400,,,
break_continue,html.Screen,4_81_2,2023-11-01T17:20:45.141Z,,0,,,NaN,,,,,,false,,,,443030.8999999999,443030.6000000001,,443030.1999999997,,443035.461,8,400,,,
sequence,flow.Sequence,4_81,2023-11-01T17:20:45.142Z,,0,,,3428.828000000096,completion,,,,,false,,,,443031.5,443030.6000000001,439585.104,439592.6000000001,439601.772,443035.461,8,400,,,
trial,html.Screen,4_82_0,2023-11-01T17:20:47.802Z,,0,2,,2655.2389999997104,response,ISIC_0011007.JPG,5,ISIC_5318217.JPG,ISIC_0011007.JPG,false,1,keypress(m),500,445691.2999999998,445690.6999999997,443018.793,443031.7999999998,443035.461,445702.405,8,400,33,,ISIC_5318217.JPG
break,html.Screen,4_82_1,2023-11-01T17:20:47.804Z,,0,,,NaN,,,,,,false,,,,445693.1000000001,445692.6000000001,,445691.6999999997,,445702.405,8,400,,,
break_continue,html.Screen,4_82_2,2023-11-01T17:20:47.804Z,,0,,,NaN,,,,,,false,,,,445694,445693.6999999997,,445693.3999999999,,445702.405,8,400,,,
sequence,flow.Sequence,4_82,2023-11-01T17:20:47.805Z,,0,,,2658.2389999997104,completion,,,,,false,,,,445694.5,445693.6999999997,443018.793,443031.7999999998,443035.461,445702.405,8,400,,,
trial,html.Screen,4_83_0,2023-11-01T17:20:50.598Z,,0,2,,2784.594999999972,response,ISIC_0026314.JPG,5,ISIC_8463871.JPG,ISIC_0026314.JPG,false,1,keypress(m),500,448487.6999999997,448487,445685.737,445694.8999999999,445702.405,448502.701,8,400,34,,ISIC_8463871.JPG
break,html.Screen,4_83_1,2023-11-01T17:20:50.600Z,,0,,,NaN,,,,,,false,,,,448489.2999999998,448488.7999999998,,448488.1000000001,,448502.701,8,400,,,
break_continue,html.Screen,4_83_2,2023-11-01T17:20:50.601Z,,0,,,NaN,,,,,,false,,,,448490.2999999998,448489.7999999998,,448489.6000000001,,448502.701,8,400,,,
sequence,flow.Sequence,4_83,2023-11-01T17:20:50.601Z,,0,,,2787.394999999786,completion,,,,,false,,,,448490.6999999997,448489.7999999998,445685.737,445694.7999999998,445702.405,448502.701,8,400,,,
trial,html.Screen,4_84_0,2023-11-01T17:20:53.309Z,,0,2,,2694.899000000092,response,ISIC_9760968.JPG,5,ISIC_0032680.JPG,ISIC_9760968.JPG,false,1,keypress(m),500,451198.1999999997,451197.6000000001,448486.033,448491.1000000001,448502.701,451202.971,8,400,35,,ISIC_0032680.JPG
break,html.Screen,4_84_1,2023-11-01T17:20:53.310Z,,0,,,NaN,,,,,,false,,,,451200.1000000001,451199.6000000001,,451198.6999999997,,451202.971,8,400,,,
break_continue,html.Screen,4_84_2,2023-11-01T17:20:53.311Z,,0,,,NaN,,,,,,false,,,,451201,451200.6000000001,,451200.3999999999,,451202.971,8,400,,,
sequence,flow.Sequence,4_84,2023-11-01T17:20:53.312Z,,0,,,2697.899000000092,completion,,,,,false,,,,451201.3999999999,451200.6000000001,448486.033,448491,448502.701,451202.971,8,400,,,
trial,html.Screen,4_85_0,2023-11-01T17:20:56.516Z,,0,2,,3201.5289999999804,response,ISIC_4539674.JPG,5,ISIC_0032774.JPG,ISIC_0032774.JPG,false,0,keypress(z),500,454405.1999999997,454404.5,451186.303,451201.7999999998,451202.971,454419.981,8,400,36,,ISIC_4539674.JPG
break,html.Screen,4_85_1,2023-11-01T17:20:56.518Z,,0,,,NaN,,,,,,false,,,,454407.1000000001,454406.6000000001,,454405.6000000001,,454419.981,8,400,,,
break_continue,html.Screen,4_85_2,2023-11-01T17:20:56.518Z,,0,,,NaN,,,,,,false,,,,454408.1000000001,454407.6999999997,,454407.3999999999,,454419.981,8,400,,,
sequence,flow.Sequence,4_85,2023-11-01T17:20:56.519Z,,0,,,3204.728999999701,completion,,,,,false,,,,454408.5,454407.6999999997,451186.303,451201.6999999997,451202.971,454419.981,8,400,,,
trial,html.Screen,4_86_0,2023-11-01T17:20:59.418Z,,0,2,,2887.1190000000643,response,ISIC_0061418.JPG,5,ISIC_3836576.JPG,ISIC_0061418.JPG,false,1,keypress(m),500,457307.6999999997,457307.1000000001,454403.313,454408.8999999999,454419.981,457320.282,8,400,37,,ISIC_3836576.JPG
break,html.Screen,4_86_1,2023-11-01T17:20:59.420Z,,0,,,NaN,,,,,,false,,,,457309.6999999997,457309.1000000001,,457308.1000000001,,457320.282,8,400,,,
break_continue,html.Screen,4_86_2,2023-11-01T17:20:59.421Z,,0,,,NaN,,,,,,false,,,,457310.6999999997,457310.1999999997,,457310,,457320.282,8,400,,,
sequence,flow.Sequence,4_86,2023-11-01T17:20:59.422Z,,0,,,2890.2189999996917,completion,,,,,false,,,,457311.1999999997,457310.1999999997,454403.313,454408.7999999998,454419.981,457320.282,8,400,,,
trial,html.Screen,4_87_0,2023-11-01T17:21:02.257Z,,0,2,,2826.017999999807,response,ISIC_0014233.JPG,4,ISIC_8359258.JPG,ISIC_8359258.JPG,false,0,keypress(z),500,460146.8999999999,460146.2999999998,457303.614,457311.6999999997,457320.282,460153.91,8,400,38,,ISIC_0014233.JPG
break,html.Screen,4_87_1,2023-11-01T17:21:02.259Z,,0,,,NaN,,,,,,false,,,,460148.6999999997,460148.1999999997,,460147.2999999998,,460153.91,8,400,,,
break_continue,html.Screen,4_87_2,2023-11-01T17:21:02.260Z,,0,,,NaN,,,,,,false,,,,460149.6999999997,460149.3999999999,,460149,,460153.91,8,400,,,
sequence,flow.Sequence,4_87,2023-11-01T17:21:02.261Z,,0,,,2829.1179999999003,completion,,,,,false,,,,460150.1999999997,460149.3999999999,457303.614,457311.6000000001,457320.282,460153.91,8,400,,,
trial,html.Screen,4_88_0,2023-11-01T17:21:04.920Z,,0,2,,2655.3899999998393,response,ISIC_9709594.JPG,4,ISIC_0061558.JPG,ISIC_0061558.JPG,false,0,keypress(z),500,462809.7999999998,462809.2999999998,460137.242,460150.6000000001,460153.91,462820.858,8,400,39,,ISIC_9709594.JPG
break,html.Screen,4_88_1,2023-11-01T17:21:04.922Z,,0,,,NaN,,,,,,false,,,,462811.7999999998,462811.2999999998,,462810.2999999998,,462820.858,8,400,,,
break_continue,html.Screen,4_88_2,2023-11-01T17:21:04.923Z,,0,,,NaN,,,,,,false,,,,462812.6999999997,462812.2999999998,,462812,,462820.858,8,400,,,
sequence,flow.Sequence,4_88,2023-11-01T17:21:04.924Z,,0,,,2658.3899999998393,completion,,,,,false,,,,462813.1000000001,462812.2999999998,460137.242,460150.3999999999,460153.91,462820.858,8,400,,,
trial,html.Screen,4_89_0,2023-11-01T17:21:08.303Z,,0,2,,3370.9419999998063,response,ISIC_8015541.JPG,4,ISIC_9407667.JPG,ISIC_9407667.JPG,false,0,keypress(z),500,466192.3999999999,466191.7999999998,462804.19,462813.5,462820.858,466204.543,8,400,40,,ISIC_8015541.JPG
break,html.Screen,4_89_1,2023-11-01T17:21:08.305Z,,0,,,NaN,,,,,,false,,,,466194.1000000001,466193.6000000001,,466192.8999999999,,466204.543,8,400,,,
break_continue,html.Screen,4_89_2,2023-11-01T17:21:08.305Z,,0,,,NaN,,,,,,false,,,,466195,466194.6999999997,,466194.3999999999,,466204.543,8,400,,,
sequence,flow.Sequence,4_89,2023-11-01T17:21:08.306Z,,0,,,3373.841999999713,completion,,,,,false,,,,466195.6000000001,466194.6999999997,462804.19,462813.3999999999,462820.858,466204.543,8,400,,,
trial,html.Screen,4_90_0,2023-11-01T17:21:11.707Z,,0,2,,3390.956999999995,response,ISIC_0065727.JPG,5,ISIC_0070032.JPG,ISIC_0065727.JPG,false,1,keypress(m),500,469596.1000000001,469595.5,466187.875,466195.8999999999,466204.543,469604.91,8,400,41,,ISIC_0070032.JPG
break,html.Screen,4_90_1,2023-11-01T17:21:11.708Z,,0,,,NaN,,,,,,false,,,,469598,469597.6000000001,,469596.5,,469604.91,8,400,,,
break_continue,html.Screen,4_90_2,2023-11-01T17:21:11.709Z,,0,,,NaN,,,,,,false,,,,469599,469598.6000000001,,469598.2999999998,,469604.91,8,400,,,
sequence,flow.Sequence,4_90,2023-11-01T17:21:11.710Z,,0,,,3394.057000000088,completion,,,,,false,,,,469599.5,469598.6000000001,466187.875,466195.7999999998,466204.543,469604.91,8,400,,,
trial,html.Screen,4_91_0,2023-11-01T17:21:15.973Z,,0,2,,4257.389999999839,response,ISIC_0003113.JPG,5,ISIC_0001148.JPG,ISIC_0003113.JPG,false,1,keypress(m),500,473863,473862.2999999998,469588.242,469599.7999999998,469604.91,473872.008,8,400,42,,ISIC_0001148.JPG
break,html.Screen,4_91_1,2023-11-01T17:21:15.975Z,,0,,,NaN,,,,,,false,,,,473864.6000000001,473864.1999999997,,473863.3999999999,,473872.008,8,400,,,
break_continue,html.Screen,4_91_2,2023-11-01T17:21:15.976Z,,0,,,NaN,,,,,,false,,,,473865.5,473865.1999999997,,473864.8999999999,,473872.008,8,400,,,
sequence,flow.Sequence,4_91,2023-11-01T17:21:15.976Z,,0,,,4260.289999999746,completion,,,,,false,,,,473866,473865.1999999997,469588.242,469599.6999999997,469604.91,473872.008,8,400,,,
trial,html.Screen,4_92_0,2023-11-01T17:21:19.648Z,,0,2,,3664.9920000000275,response,ISIC_6938608.JPG,5,ISIC_0056799.JPG,ISIC_6938608.JPG,false,1,keypress(m),500,477537.6000000001,477537,473855.34,473866.3999999999,473872.008,477555.734,8,400,43,,ISIC_0056799.JPG
break,html.Screen,4_92_1,2023-11-01T17:21:19.650Z,,0,,,NaN,,,,,,false,,,,477539.1999999997,477538.6999999997,,477538,,477555.734,8,400,,,
break_continue,html.Screen,4_92_2,2023-11-01T17:21:19.651Z,,0,,,NaN,,,,,,false,,,,477540.1000000001,477539.7999999998,,477539.5,,477555.734,8,400,,,
sequence,flow.Sequence,4_92,2023-11-01T17:21:19.651Z,,0,,,3667.791999999841,completion,,,,,false,,,,477540.6000000001,477539.7999999998,473855.34,473866.2999999998,473872.008,477555.734,8,400,,,
trial,html.Screen,4_93_0,2023-11-01T17:21:23.206Z,,0,2,,3539.7660000000033,response,ISIC_5607452.JPG,5,ISIC_1932064.JPG,ISIC_1932064.JPG,false,0,keypress(z),500,481096.1000000001,481095.5,477539.066,477541,477555.734,481106.092,8,400,44,,ISIC_5607452.JPG
break,html.Screen,4_93_1,2023-11-01T17:21:23.208Z,,0,,,NaN,,,,,,false,,,,481097.6000000001,481097.2999999998,,481096.5,,481106.092,8,400,,,
break_continue,html.Screen,4_93_2,2023-11-01T17:21:23.209Z,,0,,,NaN,,,,,,false,,,,481098.6000000001,481098.2999999998,,481098,,481106.092,8,400,,,
sequence,flow.Sequence,4_93,2023-11-01T17:21:23.209Z,,0,,,3542.565999999817,completion,,,,,false,,,,481099.1000000001,481098.2999999998,477539.066,477540.7999999998,477555.734,481106.092,8,400,,,
trial,html.Screen,4_94_0,2023-11-01T17:21:26.317Z,,0,2,,3099.508000000089,response,ISIC_4481362.JPG,5,ISIC_0046773.JPG,ISIC_0046773.JPG,false,0,keypress(z),500,484206.2999999998,484205.6000000001,481089.424,481099.3999999999,481106.092,484223.095,8,400,45,,ISIC_4481362.JPG
break,html.Screen,4_94_1,2023-11-01T17:21:26.319Z,,0,,,NaN,,,,,,false,,,,484208.1999999997,484207.5,,484206.6999999997,,484223.095,8,400,,,
break_continue,html.Screen,4_94_2,2023-11-01T17:21:26.319Z,,0,,,NaN,,,,,,false,,,,484209,484208.6999999997,,484208.3999999999,,484223.095,8,400,,,
sequence,flow.Sequence,4_94,2023-11-01T17:21:26.320Z,,0,,,3102.6079999997164,completion,,,,,false,,,,484209.6000000001,484208.6999999997,481089.424,481099.2999999998,481106.092,484223.095,8,400,,,
trial,html.Screen,4_95_0,2023-11-01T17:21:29.491Z,,0,2,,3157.304999999935,response,ISIC_3021188.JPG,5,ISIC_8901371.JPG,ISIC_8901371.JPG,false,0,keypress(z),500,487380.8999999999,487380.3999999999,484206.427,484209.8999999999,484223.095,487390.095,8,400,46,,ISIC_3021188.JPG
break,html.Screen,4_95_1,2023-11-01T17:21:29.493Z,,0,,,NaN,,,,,,false,,,,487382.6000000001,487382.1000000001,,487381.3999999999,,487390.095,8,400,,,
break_continue,html.Screen,4_95_2,2023-11-01T17:21:29.494Z,,0,,,NaN,,,,,,false,,,,487383.6999999997,487383.2999999998,,487383,,487390.095,8,400,,,
sequence,flow.Sequence,4_95,2023-11-01T17:21:29.495Z,,0,,,3160.2049999998417,completion,,,,,false,,,,487384.1999999997,487383.2999999998,484206.427,484209.7999999998,484223.095,487390.095,8,400,,,
trial,html.Screen,4_96_0,2023-11-01T17:21:32.490Z,,0,2,,2989.1049999997485,response,ISIC_4899386.JPG,4,ISIC_0057184.JPG,ISIC_0057184.JPG,false,0,keypress(z),500,490379.7999999998,490379.1999999997,487373.427,487384.5,487390.095,490390.395,8,400,47,,ISIC_4899386.JPG
break,html.Screen,4_96_1,2023-11-01T17:21:32.492Z,,0,,,NaN,,,,,,false,,,,490381.6999999997,490381.1999999997,,490380.1999999997,,490390.395,8,400,,,
break_continue,html.Screen,4_96_2,2023-11-01T17:21:32.493Z,,0,,,NaN,,,,,,false,,,,490382.6000000001,490382.2999999998,,490382,,490390.395,8,400,,,
sequence,flow.Sequence,4_96,2023-11-01T17:21:32.494Z,,0,,,2992.2049999998417,completion,,,,,false,,,,490383.1000000001,490382.2999999998,487373.427,487384.5,487390.095,490390.395,8,400,,,
trial,html.Screen,4_97_0,2023-11-01T17:21:35.089Z,,0,2,,2587.404999999795,response,ISIC_2918117.JPG,5,ISIC_0031224.JPG,ISIC_2918117.JPG,false,1,keypress(m),500,492978.6000000001,492977.7999999998,490373.727,490383.5,490390.395,492990.69,8,400,48,,ISIC_0031224.JPG
break,html.Screen,4_97_1,2023-11-01T17:21:35.090Z,,0,,,NaN,,,,,,false,,,,492979.3999999999,492979.1999999997,,492978.7999999998,,492990.69,8,400,,,
break_continue,html.Screen,4_97_2,2023-11-01T17:21:35.090Z,,0,,,NaN,,,,,,false,,,,492979.6999999997,492979.6999999997,,492979.5,,492990.69,8,400,,,
sequence,flow.Sequence,4_97,2023-11-01T17:21:35.090Z,,0,,,2589.304999999702,completion,,,,,false,,,,492979.8999999999,492979.6999999997,490373.727,490383.2999999998,490390.395,492990.69,8,400,,,
trial,html.Screen,4_98_0,2023-11-01T17:21:37.657Z,,0,2,,2555.0099999997183,response,ISIC_0011374.JPG,5,ISIC_2203247.JPG,ISIC_0011374.JPG,false,1,keypress(m),500,495546.3999999999,495545.6999999997,492974.014,492980.1000000001,492990.69,495557.606,8,400,49,,ISIC_2203247.JPG
break,html.Screen,4_98_1,2023-11-01T17:21:37.659Z,,0,,,NaN,,,,,,false,,,,495548.5,495548,,495547.1000000001,,495557.606,8,400,,,
break_continue,html.Screen,4_98_2,2023-11-01T17:21:37.660Z,,0,,,NaN,,,,,,false,,,,495549.5,495549.1000000001,,495548.6999999997,,495557.606,8,400,,,
sequence,flow.Sequence,4_98,2023-11-01T17:21:37.661Z,,0,,,2558.410000000091,completion,,,,,false,,,,495550.1000000001,495549.1000000001,492974.014,492980,492990.69,495557.606,8,400,,,
trial,html.Screen,4_99_0,2023-11-01T17:21:42.352Z,,0,2,,4683.793999999878,response,ISIC_4009870.JPG,4,ISIC_0032121.JPG,ISIC_4009870.JPG,false,1,keypress(m),500,500242,500241.3999999999,495540.938,495550.5,495557.606,500258.106,8,400,50,,ISIC_0032121.JPG
break,html.Screen,4_99_1,2023-11-01T17:21:52.354Z,,0,,,10001.047999999952,timeout,,,,,false,,,,510243.6000000001,510242.484,500241.438,500242.5,500258.106,510259.154,8,400,,,
break_continue,html.Screen,4_99_2,2023-11-01T17:22:01.397Z,,0,,,8999.145999999833,response,,,,,false,continue,keypress(Space),,519286.3999999999,519258.2999999998,510242.484,510243.7999999998,510259.154,519293.204,8,400,,,
sequence,flow.Sequence,4_99,2023-11-01T17:22:01.397Z,,0,,,23700.693999999785,completion,,,,,false,,,,519286.7999999998,519258.2999999998,495540.938,495550.3999999999,495557.606,519293.204,8,400,,,
trial,html.Screen,4_100_0,2023-11-01T17:22:04.601Z,,0,3,,3196.9959999996936,response,ISIC_4216750.JPG,5,ISIC_9336830.JPG,ISIC_9336830.JPG,false,0,keypress(z),500,522490.7999999998,522490.1999999997,519276.536,519287,519293.204,522493.749,8,400,1,,ISIC_4216750.JPG
break,html.Screen,4_100_1,2023-11-01T17:22:04.603Z,,0,,,NaN,,,,,,false,,,,522492.6999999997,522492.2999999998,,522491.1999999997,,522493.749,8,400,,,
break_continue,html.Screen,4_100_2,2023-11-01T17:22:04.604Z,,0,,,NaN,,,,,,false,,,,522493.6000000001,522493.2999999998,,522493,,522493.749,8,400,,,
sequence,flow.Sequence,4_100,2023-11-01T17:22:04.605Z,,0,,,3200.0959999997867,completion,,,,,false,,,,522494.1999999997,522493.2999999998,519276.536,519286.8999999999,519293.204,522493.749,8,400,,,
trial,html.Screen,4_101_0,2023-11-01T17:22:07.783Z,,0,3,,3178.45099999971,response,ISIC_6293107.JPG,5,ISIC_2829088.JPG,ISIC_6293107.JPG,false,1,keypress(m),500,525672.6999999997,525672.1999999997,522477.081,522494.6999999997,522493.749,525677.418,8,400,2,,ISIC_2829088.JPG
break,html.Screen,4_101_1,2023-11-01T17:22:07.785Z,,0,,,NaN,,,,,,false,,,,525674.5,525674,,525673.2999999998,,525677.418,8,400,,,
break_continue,html.Screen,4_101_2,2023-11-01T17:22:07.786Z,,0,,,NaN,,,,,,false,,,,525675.5,525675.1000000001,,525674.7999999998,,525677.418,8,400,,,
sequence,flow.Sequence,4_101,2023-11-01T17:22:07.786Z,,0,,,3181.3510000000824,completion,,,,,false,,,,525676,525675.1000000001,522477.081,522494.5,522493.749,525677.418,8,400,,,
trial,html.Screen,4_102_0,2023-11-01T17:22:11.009Z,,0,3,,3220.182000000146,response,ISIC_0030437.JPG,5,ISIC_0055361.JPG,ISIC_0030437.JPG,false,1,keypress(m),500,528898.1000000001,528897.6000000001,525660.75,525676.2999999998,525677.418,528911.086,8,400,3,,ISIC_0055361.JPG
break,html.Screen,4_102_1,2023-11-01T17:22:11.010Z,,0,,,NaN,,,,,,false,,,,528899.7999999998,528899.3999999999,,528898.5,,528911.086,8,400,,,
break_continue,html.Screen,4_102_2,2023-11-01T17:22:11.011Z,,0,,,NaN,,,,,,false,,,,528900.6999999997,528900.3999999999,,528900.1000000001,,528911.086,8,400,,,
sequence,flow.Sequence,4_102,2023-11-01T17:22:11.012Z,,0,,,3222.98199999996,completion,,,,,false,,,,528901.2999999998,528900.3999999999,525660.75,525676.1999999997,525677.418,528911.086,8,400,,,
trial,html.Screen,4_103_0,2023-11-01T17:22:14.887Z,,0,3,,3865.2139999998035,response,ISIC_7806926.JPG,4,ISIC_1352841.JPG,ISIC_7806926.JPG,false,1,keypress(m),500,532776.8999999999,532776.2999999998,528894.418,528901.6000000001,528911.086,532794.823,8,400,4,,ISIC_1352841.JPG
break,html.Screen,4_103_1,2023-11-01T17:22:14.889Z,,0,,,NaN,,,,,,false,,,,532778.7999999998,532778.2999999998,,532777.3999999999,,532794.823,8,400,,,
break_continue,html.Screen,4_103_2,2023-11-01T17:22:14.890Z,,0,,,NaN,,,,,,false,,,,532779.7999999998,532779.3999999999,,532779.1999999997,,532794.823,8,400,,,
sequence,flow.Sequence,4_103,2023-11-01T17:22:14.891Z,,0,,,3868.3139999998966,completion,,,,,false,,,,532780.3999999999,532779.3999999999,528894.418,528901.5,528911.086,532794.823,8,400,,,
trial,html.Screen,4_104_0,2023-11-01T17:22:17.760Z,,0,3,,2854.576999999932,response,ISIC_0033180.JPG,5,ISIC_0026198.JPG,ISIC_0033180.JPG,false,1,keypress(m),500,535650,535649.3999999999,532778.155,532780.7999999998,532794.823,535678.468,8,400,5,,ISIC_0026198.JPG
break,html.Screen,4_104_1,2023-11-01T17:22:17.765Z,,0,,,NaN,,,,,,false,,,,535654.2999999998,535651.1999999997,,535650.5,,535678.468,8,400,,,
break_continue,html.Screen,4_104_2,2023-11-01T17:22:17.766Z,,0,,,NaN,,,,,,false,,,,535655.3999999999,535655.1000000001,,535654.6000000001,,535678.468,8,400,,,
sequence,flow.Sequence,4_104,2023-11-01T17:22:17.766Z,,0,,,2860.2770000001183,completion,,,,,false,,,,535656,535655.1000000001,532778.155,532780.6999999997,532794.823,535678.468,8,400,,,
trial,html.Screen,4_105_0,2023-11-01T17:22:20.698Z,,0,3,,2908.231999999727,response,ISIC_0066328.JPG,5,ISIC_0281179.JPG,ISIC_0281179.JPG,false,0,keypress(z),500,538587.2999999998,538586.6999999997,535661.793,535656.2999999998,535678.468,538595.432,8,400,6,,ISIC_0066328.JPG
break,html.Screen,4_105_1,2023-11-01T17:22:20.700Z,,0,,,NaN,,,,,,false,,,,538589.1999999997,538588.7999999998,,538587.6999999997,,538595.432,8,400,,,
break_continue,html.Screen,4_105_2,2023-11-01T17:22:20.701Z,,0,,,NaN,,,,,,false,,,,538590.2999999998,538589.7999999998,,538589.6000000001,,538595.432,8,400,,,
sequence,flow.Sequence,4_105,2023-11-01T17:22:20.701Z,,0,,,2911.3319999998203,completion,,,,,false,,,,538590.6999999997,538589.7999999998,535661.793,535656.1999999997,535678.468,538595.432,8,400,,,
trial,html.Screen,4_106_0,2023-11-01T17:22:24.401Z,,0,3,,3694.1680000000633,response,ISIC_3016754.JPG,5,ISIC_2031626.JPG,ISIC_3016754.JPG,false,1,keypress(m),500,542290.2999999998,542289.6000000001,538578.764,538591.1000000001,538595.432,542295.809,8,400,7,,ISIC_2031626.JPG
break,html.Screen,4_106_1,2023-11-01T17:22:24.403Z,,0,,,NaN,,,,,,false,,,,542292.2999999998,542291.6999999997,,542290.7999999998,,542295.809,8,400,,,
break_continue,html.Screen,4_106_2,2023-11-01T17:22:24.404Z,,0,,,NaN,,,,,,false,,,,542293.1999999997,542292.8999999999,,542292.5,,542295.809,8,400,,,
sequence,flow.Sequence,4_106,2023-11-01T17:22:24.404Z,,0,,,3697.467999999877,completion,,,,,false,,,,542293.6000000001,542292.8999999999,538578.764,538591,538595.432,542295.809,8,400,,,
trial,html.Screen,4_107_0,2023-11-01T17:22:27.581Z,,0,3,,3174.2910000000848,response,ISIC_0027263.JPG,5,ISIC_0897248.JPG,ISIC_0897248.JPG,false,0,keypress(z),500,545470.6000000001,545470.1000000001,542279.141,542294,542295.809,545479.485,8,400,8,,ISIC_0027263.JPG
break,html.Screen,4_107_1,2023-11-01T17:22:27.583Z,,0,,,NaN,,,,,,false,,,,545472.6000000001,545471.7999999998,,545471.1999999997,,545479.485,8,400,,,
break_continue,html.Screen,4_107_2,2023-11-01T17:22:27.584Z,,0,,,NaN,,,,,,false,,,,545473.5,545473.1000000001,,545472.7999999998,,545479.485,8,400,,,
sequence,flow.Sequence,4_107,2023-11-01T17:22:27.584Z,,0,,,3177.2910000000848,completion,,,,,false,,,,545474,545473.1000000001,542279.141,542294,542295.809,545479.485,8,400,,,
trial,html.Screen,4_108_0,2023-11-01T17:22:35.076Z,,0,3,,7485.314999999828,response,ISIC_5754233.JPG,5,ISIC_0014557.JPG,ISIC_5754233.JPG,false,1,keypress(m),500,552965.3999999999,552964.7999999998,545462.817,545474.3999999999,545479.485,552980.267,8,400,9,,ISIC_0014557.JPG
break,html.Screen,4_108_1,2023-11-01T17:22:35.078Z,,0,,,NaN,,,,,,false,,,,552967.1999999997,552966.6000000001,,552965.7999999998,,552980.267,8,400,,,
break_continue,html.Screen,4_108_2,2023-11-01T17:22:35.078Z,,0,,,NaN,,,,,,false,,,,552968,552967.6999999997,,552967.3999999999,,552980.267,8,400,,,
sequence,flow.Sequence,4_108,2023-11-01T17:22:35.079Z,,0,,,7488.214999999735,completion,,,,,false,,,,552968.6000000001,552967.6999999997,545462.817,545474.1999999997,545479.485,552980.267,8,400,,,
trial,html.Screen,4_109_0,2023-11-01T17:22:38.497Z,,0,3,,3405.6329999999143,response,ISIC_5382189.JPG,5,ISIC_0204355.JPG,ISIC_0204355.JPG,false,0,keypress(z),500,556386.5,556385.8999999999,552963.599,552969,552980.267,556397.288,8,400,10,,ISIC_5382189.JPG
break,html.Screen,4_109_1,2023-11-01T17:22:38.499Z,,0,,,NaN,,,,,,false,,,,556388.1999999997,556387.6999999997,,556387,,556397.288,8,400,,,
break_continue,html.Screen,4_109_2,2023-11-01T17:22:38.500Z,,0,,,NaN,,,,,,false,,,,556389.1999999997,556388.7999999998,,556388.5,,556397.288,8,400,,,
sequence,flow.Sequence,4_109,2023-11-01T17:22:38.500Z,,0,,,3408.532999999821,completion,,,,,false,,,,556389.6999999997,556388.7999999998,552963.599,552968.7999999998,552980.267,556397.288,8,400,,,
trial,html.Screen,4_110_0,2023-11-01T17:22:42.424Z,,0,3,,3915.312000000151,response,ISIC_0078703.JPG,5,ISIC_6785249.JPG,ISIC_6785249.JPG,false,0,keypress(z),500,560313.2999999998,560312.6000000001,556380.62,556390,556397.288,560331.034,8,400,11,,ISIC_0078703.JPG
break,html.Screen,4_110_1,2023-11-01T17:22:42.426Z,,0,,,NaN,,,,,,false,,,,560315.1999999997,560314.5,,560313.6999999997,,560331.034,8,400,,,
break_continue,html.Screen,4_110_2,2023-11-01T17:22:42.427Z,,0,,,NaN,,,,,,false,,,,560316.1000000001,560315.6999999997,,560315.3999999999,,560331.034,8,400,,,
sequence,flow.Sequence,4_110,2023-11-01T17:22:42.427Z,,0,,,3918.4119999997783,completion,,,,,false,,,,560316.5,560315.6999999997,556380.62,556389.8999999999,556397.288,560331.034,8,400,,,
trial,html.Screen,4_111_0,2023-11-01T17:22:45.494Z,,0,3,,3052.2659999998286,response,ISIC_5122220.JPG,5,ISIC_8435105.JPG,ISIC_8435105.JPG,false,0,keypress(z),500,563383.8999999999,563383.2999999998,560314.366,560317,560331.034,563398.021,8,400,12,,ISIC_5122220.JPG
break,html.Screen,4_111_1,2023-11-01T17:22:45.496Z,,0,,,NaN,,,,,,false,,,,563385.7999999998,563385.3999999999,,563384.5,,563398.021,8,400,,,
break_continue,html.Screen,4_111_2,2023-11-01T17:22:45.497Z,,0,,,NaN,,,,,,false,,,,563386.7999999998,563386.5,,563386.1000000001,,563398.021,8,400,,,
sequence,flow.Sequence,4_111,2023-11-01T17:22:45.498Z,,0,,,3055.466000000015,completion,,,,,false,,,,563387.2999999998,563386.5,560314.366,560316.7999999998,560331.034,563398.021,8,400,,,
trial,html.Screen,4_112_0,2023-11-01T17:22:48.653Z,,0,3,,3143.878999999957,response,ISIC_0030657.JPG,5,ISIC_0028986.JPG,ISIC_0030657.JPG,false,1,keypress(m),500,566542.2999999998,566541.8999999999,563381.353,563387.6000000001,563398.021,566548.335,8,400,13,,ISIC_0028986.JPG
break,html.Screen,4_112_1,2023-11-01T17:22:48.653Z,,0,,,NaN,,,,,,false,,,,566542.8999999999,566542.7999999998,,566542.3999999999,,566548.335,8,400,,,
break_continue,html.Screen,4_112_2,2023-11-01T17:22:48.654Z,,0,,,NaN,,,,,,false,,,,566543.1999999997,566543.1999999997,,566543.1000000001,,566548.335,8,400,,,
sequence,flow.Sequence,4_112,2023-11-01T17:22:48.654Z,,0,,,3145.178999999771,completion,,,,,false,,,,566543.5,566543.1999999997,563381.353,563387.6000000001,563398.021,566548.335,8,400,,,
trial,html.Screen,4_113_0,2023-11-01T17:22:51.344Z,,0,3,,2684.2650000001304,response,ISIC_4604654.JPG,4,ISIC_0032604.JPG,ISIC_0032604.JPG,false,0,keypress(z),500,569233.1999999997,569232.6000000001,566531.667,566543.6000000001,566548.335,569248.623,8,400,14,,ISIC_4604654.JPG
break,html.Screen,4_113_1,2023-11-01T17:22:51.346Z,,0,,,NaN,,,,,,false,,,,569235.2999999998,569234.7999999998,,569233.6999999997,,569248.623,8,400,,,
break_continue,html.Screen,4_113_2,2023-11-01T17:22:51.347Z,,0,,,NaN,,,,,,false,,,,569236.1999999997,569236,,569235.6000000001,,569248.623,8,400,,,
sequence,flow.Sequence,4_113,2023-11-01T17:22:51.347Z,,0,,,2687.6650000000373,completion,,,,,false,,,,569236.6999999997,569236,566531.667,566543.5,566548.335,569248.623,8,400,,,
trial,html.Screen,4_114_0,2023-11-01T17:22:54.222Z,,0,3,,2862.3769999999786,response,ISIC_0010671.JPG,5,ISIC_7236365.JPG,ISIC_7236365.JPG,false,0,keypress(z),500,572111.6999999997,572111,569231.955,569237.1000000001,569248.623,572115.592,8,400,15,,ISIC_0010671.JPG
break,html.Screen,4_114_1,2023-11-01T17:22:54.224Z,,0,,,NaN,,,,,,false,,,,572113.7999999998,572113.1999999997,,572112.3999999999,,572115.592,8,400,,,
break_continue,html.Screen,4_114_2,2023-11-01T17:22:54.225Z,,0,,,NaN,,,,,,false,,,,572114.7999999998,572114.3999999999,,572114.1000000001,,572115.592,8,400,,,
sequence,flow.Sequence,4_114,2023-11-01T17:22:54.226Z,,0,,,2865.7769999998854,completion,,,,,false,,,,572115.2999999998,572114.3999999999,569231.955,569237,569248.623,572115.592,8,400,,,
trial,html.Screen,4_115_0,2023-11-01T17:22:57.206Z,,0,3,,2979.1079999997746,response,ISIC_4131353.JPG,5,ISIC_8154363.JPG,ISIC_4131353.JPG,false,1,keypress(m),500,575095.2999999998,575094.6999999997,572098.924,572115.6999999997,572115.592,575115.912,8,400,16,,ISIC_8154363.JPG
break,html.Screen,4_115_1,2023-11-01T17:22:57.207Z,,0,,,NaN,,,,,,false,,,,575097,575096.5,,575095.6999999997,,575115.912,8,400,,,
break_continue,html.Screen,4_115_2,2023-11-01T17:22:57.208Z,,0,,,NaN,,,,,,false,,,,575098.1000000001,575097.6000000001,,575097.2999999998,,575115.912,8,400,,,
sequence,flow.Sequence,4_115,2023-11-01T17:22:57.209Z,,0,,,2982.008000000147,completion,,,,,false,,,,575098.5,575097.6000000001,572098.924,572115.6000000001,572115.592,575115.912,8,400,,,
trial,html.Screen,4_116_0,2023-11-01T17:23:00.493Z,,0,3,,3265.688000000082,response,ISIC_9944714.JPG,5,ISIC_9354604.JPG,ISIC_9354604.JPG,false,0,keypress(z),500,578382.2999999998,578381.6000000001,575099.242,575098.8999999999,575115.912,578399.581,8,400,17,,ISIC_9944714.JPG
break,html.Screen,4_116_1,2023-11-01T17:23:00.495Z,,0,,,NaN,,,,,,false,,,,578384.1999999997,578383.6000000001,,578382.6999999997,,578399.581,8,400,,,
break_continue,html.Screen,4_116_2,2023-11-01T17:23:00.496Z,,0,,,NaN,,,,,,false,,,,578385.1000000001,578384.6999999997,,578384.5,,578399.581,8,400,,,
sequence,flow.Sequence,4_116,2023-11-01T17:23:00.496Z,,0,,,3268.7879999997094,completion,,,,,false,,,,578385.6000000001,578384.6999999997,575099.242,575098.7999999998,575115.912,578399.581,8,400,,,
trial,html.Screen,4_117_0,2023-11-01T17:23:03.972Z,,0,3,,3461.0190000000875,response,ISIC_0032844.JPG,5,ISIC_0056152.JPG,ISIC_0032844.JPG,false,1,keypress(m),500,581861.1999999997,581860.6000000001,578382.913,578386,578399.581,581866.612,8,400,18,,ISIC_0056152.JPG
break,html.Screen,4_117_1,2023-11-01T17:23:03.974Z,,0,,,NaN,,,,,,false,,,,581863.1000000001,581862.6000000001,,581861.6000000001,,581866.612,8,400,,,
break_continue,html.Screen,4_117_2,2023-11-01T17:23:03.974Z,,0,,,NaN,,,,,,false,,,,581864.1000000001,581863.6999999997,,581863.3999999999,,581866.612,8,400,,,
sequence,flow.Sequence,4_117,2023-11-01T17:23:03.975Z,,0,,,3464.118999999715,completion,,,,,false,,,,581864.5,581863.6999999997,578382.913,578385.8999999999,578399.581,581866.612,8,400,,,
trial,html.Screen,4_118_0,2023-11-01T17:23:06.898Z,,0,3,,2919.9880000001285,response,ISIC_0030440.JPG,5,ISIC_0016103.JPG,ISIC_0030440.JPG,false,1,keypress(m),500,584787.1999999997,584786.6000000001,581849.944,581864.8999999999,581866.612,584800.241,8,400,19,,ISIC_0016103.JPG
break,html.Screen,4_118_1,2023-11-01T17:23:06.900Z,,0,,,NaN,,,,,,false,,,,584789.1999999997,584788.6000000001,,584787.6999999997,,584800.241,8,400,,,
break_continue,html.Screen,4_118_2,2023-11-01T17:23:06.901Z,,0,,,NaN,,,,,,false,,,,584790.1000000001,584789.7999999998,,584789.3999999999,,584800.241,8,400,,,
sequence,flow.Sequence,4_118,2023-11-01T17:23:06.901Z,,0,,,2923.187999999849,completion,,,,,false,,,,584790.6000000001,584789.7999999998,581849.944,581864.7999999998,581866.612,584800.241,8,400,,,
trial,html.Screen,4_119_0,2023-11-01T17:23:10.862Z,,0,3,,3951.258999999962,response,ISIC_0000167.JPG,5,ISIC_0002901.JPG,ISIC_0000167.JPG,false,1,keypress(m),500,588752,588751.5,584783.573,584791,584800.241,588767.323,8,400,20,,ISIC_0002901.JPG
break,html.Screen,4_119_1,2023-11-01T17:23:10.864Z,,0,,,NaN,,,,,,false,,,,588753.8999999999,588753.3999999999,,588752.5,,588767.323,8,400,,,
break_continue,html.Screen,4_119_2,2023-11-01T17:23:10.865Z,,0,,,NaN,,,,,,false,,,,588754.7999999998,588754.3999999999,,588754.1000000001,,588767.323,8,400,,,
sequence,flow.Sequence,4_119,2023-11-01T17:23:10.866Z,,0,,,3954.1589999998687,completion,,,,,false,,,,588755.1999999997,588754.3999999999,584783.573,584790.7999999998,584800.241,588767.323,8,400,,,
trial,html.Screen,4_120_0,2023-11-01T17:23:14.566Z,,0,3,,3688.076999999932,response,ISIC_0010503.JPG,5,ISIC_0013988.JPG,ISIC_0013988.JPG,false,0,keypress(z),500,592456.1000000001,592455.3999999999,588750.655,588755.5,588767.323,592467.715,8,400,21,,ISIC_0010503.JPG
break,html.Screen,4_120_1,2023-11-01T17:23:14.568Z,,0,,,NaN,,,,,,false,,,,592457.8999999999,592457.5,,592456.3999999999,,592467.715,8,400,,,
break_continue,html.Screen,4_120_2,2023-11-01T17:23:14.569Z,,0,,,NaN,,,,,,false,,,,592458.7999999998,592458.3999999999,,592458.1999999997,,592467.715,8,400,,,
sequence,flow.Sequence,4_120,2023-11-01T17:23:14.570Z,,0,,,3691.076999999932,completion,,,,,false,,,,592459.2999999998,592458.3999999999,588750.655,588755.5,588767.323,592467.715,8,400,,,
trial,html.Screen,4_121_0,2023-11-01T17:23:17.469Z,,0,3,,2890.484999999753,response,ISIC_0056364.JPG,4,ISIC_0029652.JPG,ISIC_0029652.JPG,false,0,keypress(z),500,595358.6999999997,595358.1999999997,592451.047,592459.6000000001,592467.715,595368.016,8,400,22,,ISIC_0056364.JPG
break,html.Screen,4_121_1,2023-11-01T17:23:17.471Z,,0,,,NaN,,,,,,false,,,,595360.3999999999,595360,,595359.2999999998,,595368.016,8,400,,,
break_continue,html.Screen,4_121_2,2023-11-01T17:23:17.472Z,,0,,,NaN,,,,,,false,,,,595361.6000000001,595361.2999999998,,595361,,595368.016,8,400,,,
sequence,flow.Sequence,4_121,2023-11-01T17:23:17.473Z,,0,,,2893.5849999998463,completion,,,,,false,,,,595362.1999999997,595361.2999999998,592451.047,592459.5,592467.715,595368.016,8,400,,,
trial,html.Screen,4_122_0,2023-11-01T17:23:20.388Z,,0,3,,2909.1839999997756,response,ISIC_0011490.JPG,4,ISIC_1782911.JPG,ISIC_1782911.JPG,false,0,keypress(z),500,598277.7999999998,598277.1999999997,595351.348,595362.6000000001,595368.016,598284.982,8,400,23,,ISIC_0011490.JPG
break,html.Screen,4_122_1,2023-11-01T17:23:20.390Z,,0,,,NaN,,,,,,false,,,,598279.6999999997,598279.2999999998,,598278.2999999998,,598284.982,8,400,,,
break_continue,html.Screen,4_122_2,2023-11-01T17:23:20.391Z,,0,,,NaN,,,,,,false,,,,598281,598280.3999999999,,598280.1999999997,,598284.982,8,400,,,
sequence,flow.Sequence,4_122,2023-11-01T17:23:20.392Z,,0,,,2912.383999999962,completion,,,,,false,,,,598281.6000000001,598280.3999999999,595351.348,595362.5,595368.016,598284.982,8,400,,,
trial,html.Screen,4_123_0,2023-11-01T17:23:23.419Z,,0,3,,3023.51800000004,response,ISIC_5879418.JPG,5,ISIC_0283506.JPG,ISIC_5879418.JPG,false,1,keypress(m),500,601309.1000000001,601308.5,598268.314,598282.1000000001,598284.982,601318.637,8,400,24,,ISIC_0283506.JPG
break,html.Screen,4_123_1,2023-11-01T17:23:23.422Z,,0,,,NaN,,,,,,false,,,,601311.1999999997,601310.6999999997,,601309.6000000001,,601318.637,8,400,,,
break_continue,html.Screen,4_123_2,2023-11-01T17:23:23.423Z,,0,,,NaN,,,,,,false,,,,601312.3999999999,601312,,601311.6999999997,,601318.637,8,400,,,
sequence,flow.Sequence,4_123,2023-11-01T17:23:23.423Z,,0,,,3027.01800000004,completion,,,,,false,,,,601313.1000000001,601312,598268.314,598281.8999999999,598284.982,601318.637,8,400,,,
trial,html.Screen,4_124_0,2023-11-01T17:23:26.108Z,,0,3,,2678.4630000001052,response,ISIC_0033206.JPG,4,ISIC_3123377.JPG,ISIC_0033206.JPG,false,1,keypress(m),500,603997.6000000001,603997.1000000001,601301.969,601313.5,601318.637,604002.261,8,400,25,,ISIC_3123377.JPG
break,html.Screen,4_124_1,2023-11-01T17:23:26.110Z,,0,,,NaN,,,,,,false,,,,603999.3999999999,603998.8999999999,,603998.1000000001,,604002.261,8,400,,,
break_continue,html.Screen,4_124_2,2023-11-01T17:23:26.111Z,,0,,,NaN,,,,,,false,,,,604000.2999999998,604000,,603999.6999999997,,604002.261,8,400,,,
sequence,flow.Sequence,4_124,2023-11-01T17:23:26.111Z,,0,,,2681.363000000012,completion,,,,,false,,,,604000.7999999998,604000,601301.969,601313.2999999998,601318.637,604002.261,8,400,,,
trial,html.Screen,4_125_0,2023-11-01T17:23:29.011Z,,0,3,,2897.3390000000363,response,ISIC_0029693.JPG,5,ISIC_6463417.JPG,ISIC_0029693.JPG,false,1,keypress(m),500,606900.5,606899.6000000001,603985.593,604001.1999999997,604002.261,606902.552,8,400,26,,ISIC_6463417.JPG
break,html.Screen,4_125_1,2023-11-01T17:23:29.014Z,,0,,,NaN,,,,,,false,,,,606903.6000000001,606902.6000000001,,606901,,606902.552,8,400,,,
break_continue,html.Screen,4_125_2,2023-11-01T17:23:29.015Z,,0,,,NaN,,,,,,false,,,,606904.7999999998,606904.2999999998,,606904,,606902.552,8,400,,,
sequence,flow.Sequence,4_125,2023-11-01T17:23:29.016Z,,0,,,2902.038999999757,completion,,,,,false,,,,606905.5,606904.2999999998,603985.593,604001.1000000001,604002.261,606902.552,8,400,,,
trial,html.Screen,4_126_0,2023-11-01T17:23:31.612Z,,0,3,,2598.048000000068,response,ISIC_0000239.JPG,5,ISIC_0069488.JPG,ISIC_0000239.JPG,false,1,keypress(m),500,609501.1999999997,609500.6000000001,606885.884,606905.8999999999,606902.552,609502.828,8,400,27,,ISIC_0069488.JPG
break,html.Screen,4_126_1,2023-11-01T17:23:31.613Z,,0,,,NaN,,,,,,false,,,,609502.8999999999,609502.2999999998,,609501.6999999997,,609502.828,8,400,,,
