sender,sender_type,sender_id,timestamp,meta,,blockNo,condition,duration,ended_on,img_left,img_reveal,img_right,loser,practice,response,response_action,selection_duration,time_commit,time_end,time_render,time_run,time_show,time_switch,total_blocks,total_trials,trialNo,url,winner
informed_consent,html.Screen,0,2023-09-11T18:11:49.404Z,"{""labjs_version"":""20.2.4"",""labjs_build"":{""flavor"":""production"",""commit"":""f5b4a49f956347addd546a832a3327688c2c0fef""},""location"":""https://run.pavlovia.org/MurrayBennett/melanoma-2afc/?participant=67309&platform=sona"",""userAgent"":""Mozilla/5.0 (Macintosh; Intel Mac OS X 10_15_7) AppleWebKit/537.36 (KHTML, like Gecko) Chrome/116.0.0.0 Safari/537.36"",""platform"":""MacIntel"",""language"":""en-US"",""locale"":""en-US"",""timeZone"":""America/Chicago"",""timezoneOffset"":300,""screen_width"":1440,""screen_height"":900,""scroll_width"":1440,""scroll_height"":735,""window_innerWidth"":1440,""window_innerHeight"":783,""devicePixelRatio"":2}",,,,10889.576000017882,response,,,,,,consent,click button,,12571.09999999404,12567.700000017881,1661.458,1663.300000011921,1678.124,12579.047,,,,"{""participant"":""67309"",""platform"":""sona""}",
Welcome,html.Screen,1,2023-09-11T18:12:21.236Z,,,,irregular,31823.253000011922,response,,,,,,continue,click button,,44404.70000001788,44402.30000001192,12562.381,12571.5,12579.047,44413.063,,,,,
trial,html.Screen,2_0_0,2023-09-11T18:12:27.996Z,,0,0,,6750.936999999998,response,ISIC_0061792.JPG,,ISIC_4679428.JPG,ISIC_4679428.JPG,true,0,keypress(z),500,51164.5,51164,44396.397,44405.09999999404,44413.063,51180.708,1,6,1,,ISIC_0061792.JPG
sequence,flow.Sequence,2_0,2023-09-11T18:12:27.996Z,,0,,,6750.936999999998,completion,,,,,true,,,,51165,51164,44396.397,44405.09999999404,44413.063,51180.708,1,6,,,
trial,html.Screen,2_1_0,2023-09-11T18:12:32.498Z,,0,0,,4485.391999994041,response,ISIC_0776486.JPG,,ISIC_5199497.JPG,ISIC_0776486.JPG,true,1,keypress(m),500,55666.70000001788,55666.09999999404,51164.042,51165.20000001788,51180.708,55680.528,1,6,2,,ISIC_5199497.JPG
sequence,flow.Sequence,2_1,2023-09-11T18:12:32.498Z,,0,,,4485.391999994041,completion,,,,,true,,,,55667.09999999404,55666.09999999404,51164.042,51165.09999999404,51180.708,55680.528,1,6,,,
trial,html.Screen,2_2_0,2023-09-11T18:12:38.279Z,,0,0,,5767.571999994041,response,ISIC_8575776.JPG,,ISIC_2556187.JPG,ISIC_8575776.JPG,true,1,keypress(m),500,61448.70000001788,61448.09999999404,55663.862,55667.40000000596,55680.528,61464.535,1,6,3,,ISIC_2556187.JPG
sequence,flow.Sequence,2_2,2023-09-11T18:12:38.280Z,,0,,,5767.571999994041,completion,,,,,true,,,,61449.09999999404,61448.09999999404,55663.862,55667.30000001192,55680.528,61464.535,1,6,,,
trial,html.Screen,2_3_0,2023-09-11T18:12:41.899Z,,0,0,,3602.9649999999965,response,ISIC_9238366.JPG,,ISIC_8141769.JPG,ISIC_9238366.JPG,true,1,keypress(m),500,65068,65067.5,61447.869,61449.40000000596,61464.535,65081.057,1,6,4,,ISIC_8141769.JPG
sequence,flow.Sequence,2_3,2023-09-11T18:12:41.899Z,,0,,,3602.9649999999965,completion,,,,,true,,,,65068.59999999404,65067.5,61447.869,61449.20000001788,61464.535,65081.057,1,6,,,
trial,html.Screen,2_4_0,2023-09-11T18:12:46.609Z,,0,0,,4696.942999999999,response,ISIC_9959593.JPG,,ISIC_8949026.JPG,ISIC_8949026.JPG,true,0,keypress(z),500,69778.59999999404,69778,65064.391,65068.90000000596,65081.057,69781.626,1,6,5,,ISIC_9959593.JPG
sequence,flow.Sequence,2_4,2023-09-11T18:12:46.609Z,,0,,,4696.942999999999,completion,,,,,true,,,,69779.09999999404,69778,65064.391,65068.70000001788,65081.057,69781.626,1,6,,,
trial,html.Screen,2_5_0,2023-09-11T18:12:50.043Z,,0,0,,3430.4739999940357,response,ISIC_0010479.JPG,,ISIC_0460240.JPG,ISIC_0460240.JPG,true,0,keypress(z),500,73212.80000001192,73212.09999999404,69764.96,69779.30000001192,69781.626,73214.822,1,6,6,,ISIC_0010479.JPG
sequence,flow.Sequence,2_5,2023-09-11T18:12:50.044Z,,0,,,3430.4739999940357,completion,,,,,true,,,,73213.20000001788,73212.09999999404,69764.96,69779.20000001788,69781.626,73214.822,1,6,,,
loop,flow.Loop,2,2023-09-11T18:12:50.044Z,,,,,28799.036999994038,completion,,,,,true,,,,73213.5,73212.09999999404,44396.397,44405,44413.063,73214.822,1,6,,,
exp_instructions,html.Screen,3,2023-09-11T18:13:03.315Z,,,,,13263.678,response,,,,,,continue,keypress(Space),,86484.70000001788,86478.5,73198.156,73213.70000001788,73214.822,86498.279,,,,,
trial,html.Screen,4_0_0,2023-09-11T18:13:07.444Z,,0,1,,4115.6210000059655,response,ISIC_0030110.JPG,8,ISIC_0059671.JPG,ISIC_0030110.JPG,false,1,keypress(m),500,90614.40000000596,90613.90000000596,86481.613,86485.09999999404,86498.279,90616.139,8,400,1,,ISIC_0059671.JPG
break,html.Screen,4_0_1,2023-09-11T18:13:07.445Z,,0,,,NaN,,,,,,false,,,,90615.80000001192,90615.5,,90614.70000001788,,90616.139,8,400,,,
break_continue,html.Screen,4_0_2,2023-09-11T18:13:07.446Z,,0,,,NaN,,,,,,false,,,,90616.30000001192,90616.09999999404,,90616,,90616.139,8,400,,,
sequence,flow.Sequence,4_0,2023-09-11T18:13:07.446Z,,0,,,4117.8209999940445,completion,,,,,false,,,,90616.5,90616.09999999404,86481.613,86485,86498.279,90616.139,8,400,,,
trial,html.Screen,4_1_0,2023-09-11T18:13:12.825Z,,0,1,,5378.960999994044,response,ISIC_0011139.JPG,7,ISIC_0032645.JPG,ISIC_0032645.JPG,false,0,keypress(z),500,95995.70000001788,95995.09999999404,90599.473,90616.59999999404,90616.139,95999.257,8,400,2,,ISIC_0011139.JPG
break,html.Screen,4_1_1,2023-09-11T18:13:12.826Z,,0,,,NaN,,,,,,false,,,,95996.70000001788,95996.40000000596,,95996,,95999.257,8,400,,,
break_continue,html.Screen,4_1_2,2023-09-11T18:13:12.827Z,,0,,,NaN,,,,,,false,,,,95997.09999999404,95996.90000000596,,95996.80000001192,,95999.257,8,400,,,
sequence,flow.Sequence,4_1,2023-09-11T18:13:12.827Z,,0,,,5380.761000005965,completion,,,,,false,,,,95997.30000001192,95996.90000000596,90599.473,90616.5,90616.139,95999.257,8,400,,,
trial,html.Screen,4_2_0,2023-09-11T18:13:17.418Z,,0,1,,4588.543000011923,response,ISIC_0830131.JPG,8,ISIC_0010752.JPG,ISIC_0830131.JPG,false,1,keypress(m),500,100588.40000000596,100587.80000001192,95982.591,95997.40000000596,95999.257,100616.542,8,400,3,,ISIC_0010752.JPG
break,html.Screen,4_2_1,2023-09-11T18:13:17.419Z,,0,,,NaN,,,,,,false,,,,100589.30000001192,100589,,100588.59999999404,,100616.542,8,400,,,
break_continue,html.Screen,4_2_2,2023-09-11T18:13:17.419Z,,0,,,NaN,,,,,,false,,,,100589.70000001788,100589.5,,100589.40000000596,,100616.542,8,400,,,
sequence,flow.Sequence,4_2,2023-09-11T18:13:17.419Z,,0,,,4590.243000000002,completion,,,,,false,,,,100589.80000001192,100589.5,95982.591,95997.30000001192,95999.257,100616.542,8,400,,,
trial,html.Screen,4_3_0,2023-09-11T18:13:22.574Z,,0,1,,5127.457999999999,response,ISIC_0490442.JPG,8,ISIC_6634951.JPG,ISIC_0490442.JPG,false,1,keypress(m),500,105744.40000000596,105744,100599.876,100590,100616.542,105749.67,8,400,4,,ISIC_6634951.JPG
break,html.Screen,4_3_1,2023-09-11T18:13:22.575Z,,0,,,NaN,,,,,,false,,,,105745.40000000596,105745.20000001788,,105744.70000001788,,105749.67,8,400,,,
break_continue,html.Screen,4_3_2,2023-09-11T18:13:22.575Z,,0,,,NaN,,,,,,false,,,,105745.80000001192,105745.59999999404,,105745.5,,105749.67,8,400,,,
sequence,flow.Sequence,4_3,2023-09-11T18:13:22.575Z,,0,,,5129.057999994038,completion,,,,,false,,,,105746,105745.59999999404,100599.876,100589.90000000596,100616.542,105749.67,8,400,,,
trial,html.Screen,4_4_0,2023-09-11T18:13:26.073Z,,0,1,,3494.530000017883,response,ISIC_1885174.JPG,8,ISIC_1155782.JPG,ISIC_1155782.JPG,false,0,keypress(z),500,109244.30000001192,109244.20000001788,105733.004,105746.20000001788,105749.67,109249.53,8,400,5,,ISIC_1885174.JPG
break,html.Screen,4_4_1,2023-09-11T18:13:26.074Z,,0,,,NaN,,,,,,false,,,,109244.70000001788,109244.59999999404,,109244.40000000596,,109249.53,8,400,,,
break_continue,html.Screen,4_4_2,2023-09-11T18:13:26.074Z,,0,,,NaN,,,,,,false,,,,109244.80000001192,109244.70000001788,,109244.70000001788,,109249.53,8,400,,,
sequence,flow.Sequence,4_4,2023-09-11T18:13:26.074Z,,0,,,3495.030000017883,completion,,,,,false,,,,109244.90000000596,109244.70000001788,105733.004,105746,105749.67,109249.53,8,400,,,
trial,html.Screen,4_5_0,2023-09-11T18:13:29.918Z,,0,1,,3838.8700000059616,response,ISIC_9466794.JPG,8,ISIC_1897507.JPG,ISIC_9466794.JPG,false,1,keypress(m),500,113088.90000000596,113088.40000000596,109232.864,109245,109249.53,113100.195,8,400,6,,ISIC_1897507.JPG
break,html.Screen,4_5_1,2023-09-11T18:13:29.919Z,,0,,,NaN,,,,,,false,,,,113089.90000000596,113089.70000001788,,113089.20000001788,,113100.195,8,400,,,
break_continue,html.Screen,4_5_2,2023-09-11T18:13:29.919Z,,0,,,NaN,,,,,,false,,,,113090.20000001788,113090.09999999404,,113090,,113100.195,8,400,,,
sequence,flow.Sequence,4_5,2023-09-11T18:13:29.919Z,,0,,,3840.5699999940407,completion,,,,,false,,,,113090.5,113090.09999999404,109232.864,109244.90000000596,109249.53,113100.195,8,400,,,
trial,html.Screen,4_6_0,2023-09-11T18:13:33.749Z,,0,1,,3819.5050000178744,response,ISIC_0070860.JPG,8,ISIC_0034090.JPG,ISIC_0070860.JPG,false,1,keypress(m),500,116920.09999999404,116919.70000001788,113083.529,113090.5,113100.195,116933.375,8,400,7,,ISIC_0034090.JPG
break,html.Screen,4_6_1,2023-09-11T18:13:33.750Z,,0,,,NaN,,,,,,false,,,,116921.09999999404,116920.90000000596,,116920.40000000596,,116933.375,8,400,,,
break_continue,html.Screen,4_6_2,2023-09-11T18:13:33.750Z,,0,,,NaN,,,,,,false,,,,116921.59999999404,116921.40000000596,,116921.20000001788,,116933.375,8,400,,,
sequence,flow.Sequence,4_6,2023-09-11T18:13:33.750Z,,0,,,3821.2050000059535,completion,,,,,false,,,,116921.70000001788,116921.40000000596,113083.529,113090.5,113100.195,116933.375,8,400,,,
trial,html.Screen,4_7_0,2023-09-11T18:13:37.259Z,,0,1,,3496.7249999940395,response,ISIC_9826778.JPG,6,ISIC_0024310.JPG,ISIC_9826778.JPG,false,1,keypress(m),500,120430.5,120430.09999999404,116916.709,116921.90000000596,116933.375,120433.235,8,400,8,,ISIC_0024310.JPG
break,html.Screen,4_7_1,2023-09-11T18:13:37.260Z,,0,,,NaN,,,,,,false,,,,120431.5,120431.30000001192,,120430.80000001192,,120433.235,8,400,,,
break_continue,html.Screen,4_7_2,2023-09-11T18:13:37.261Z,,0,,,NaN,,,,,,false,,,,120431.90000000596,120431.80000001192,,120431.70000001788,,120433.235,8,400,,,
sequence,flow.Sequence,4_7,2023-09-11T18:13:37.261Z,,0,,,3498.425000011921,completion,,,,,false,,,,120432.09999999404,120431.80000001192,116916.709,116921.80000001192,116933.375,120433.235,8,400,,,
trial,html.Screen,4_8_0,2023-09-11T18:13:42.858Z,,0,1,,5595.764999999999,response,ISIC_2937407.JPG,8,ISIC_1858237.JPG,ISIC_1858237.JPG,false,0,keypress(z),500,126029.40000000596,126029,120416.569,120432.20000001788,120433.235,126033.831,8,400,9,,ISIC_2937407.JPG
break,html.Screen,4_8_1,2023-09-11T18:13:42.859Z,,0,,,NaN,,,,,,false,,,,126030.5,126030.20000001788,,126029.80000001192,,126033.831,8,400,,,
break_continue,html.Screen,4_8_2,2023-09-11T18:13:42.859Z,,0,,,NaN,,,,,,false,,,,126030.80000001192,126030.70000001788,,126030.70000001788,,126033.831,8,400,,,
sequence,flow.Sequence,4_8,2023-09-11T18:13:42.859Z,,0,,,5597.465000017881,completion,,,,,false,,,,126031,126030.70000001788,120416.569,120432.20000001788,120433.235,126033.831,8,400,,,
trial,html.Screen,4_9_0,2023-09-11T18:13:46.273Z,,0,1,,3410.569000005955,response,ISIC_5602826.JPG,7,ISIC_7079349.JPG,ISIC_7079349.JPG,false,0,keypress(z),500,129444.90000000596,129444.40000000596,126017.165,126031.20000001788,126033.831,129450.361,8,400,10,,ISIC_5602826.JPG
break,html.Screen,4_9_1,2023-09-11T18:13:46.274Z,,0,,,NaN,,,,,,false,,,,129445.90000000596,129445.70000001788,,129445.09999999404,,129450.361,8,400,,,
break_continue,html.Screen,4_9_2,2023-09-11T18:13:46.274Z,,0,,,NaN,,,,,,false,,,,129446.09999999404,129446.09999999404,,129445.90000000596,,129450.361,8,400,,,
sequence,flow.Sequence,4_9,2023-09-11T18:13:46.275Z,,0,,,3412.268999994034,completion,,,,,false,,,,129446.40000000596,129446.09999999404,126017.165,126031.20000001788,126033.831,129450.361,8,400,,,
trial,html.Screen,4_10_0,2023-09-11T18:13:50.486Z,,0,1,,4206.638999999996,response,ISIC_8906583.JPG,6,ISIC_4602691.JPG,ISIC_8906583.JPG,false,1,keypress(m),500,133657.59999999404,133657,129433.695,129446.5,129450.361,133667.706,8,400,11,,ISIC_4602691.JPG
break,html.Screen,4_10_1,2023-09-11T18:13:50.487Z,,0,,,NaN,,,,,,false,,,,133658.5,133658.40000000596,,133657.90000000596,,133667.706,8,400,,,
break_continue,html.Screen,4_10_2,2023-09-11T18:13:50.487Z,,0,,,NaN,,,,,,false,,,,133658.90000000596,133658.80000001192,,133658.70000001788,,133667.706,8,400,,,
sequence,flow.Sequence,4_10,2023-09-11T18:13:50.487Z,,0,,,4208.4390000119165,completion,,,,,false,,,,133659.09999999404,133658.80000001192,129433.695,129446.5,129450.361,133667.706,8,400,,,
trial,html.Screen,4_11_0,2023-09-11T18:13:54.352Z,,0,1,,3855.694000005955,response,ISIC_0069617.JPG,8,ISIC_6340564.JPG,ISIC_0069617.JPG,false,1,keypress(m),500,137523.90000000596,137523.40000000596,133651.04,133659.30000001192,133667.706,137534.218,8,400,12,,ISIC_6340564.JPG
break,html.Screen,4_11_1,2023-09-11T18:13:54.353Z,,0,,,NaN,,,,,,false,,,,137524.80000001192,137524.59999999404,,137524.09999999404,,137534.218,8,400,,,
break_continue,html.Screen,4_11_2,2023-09-11T18:13:54.353Z,,0,,,NaN,,,,,,false,,,,137525.20000001788,137525,,137524.90000000596,,137534.218,8,400,,,
sequence,flow.Sequence,4_11,2023-09-11T18:13:54.353Z,,0,,,3857.2939999999944,completion,,,,,false,,,,137525.30000001192,137525,133651.04,133659.20000001788,133667.706,137534.218,8,400,,,
trial,html.Screen,4_12_0,2023-09-11T18:13:59.815Z,,0,1,,5452.881999994046,response,ISIC_4582670.JPG,8,ISIC_7452410.JPG,ISIC_7452410.JPG,false,0,keypress(z),500,142987.5,142987.09999999404,137517.552,137525.5,137534.218,143000.666,8,400,13,,ISIC_4582670.JPG
break,html.Screen,4_12_1,2023-09-11T18:13:59.816Z,,0,,,NaN,,,,,,false,,,,142988.5,142988.30000001192,,142987.90000000596,,143000.666,8,400,,,
break_continue,html.Screen,4_12_2,2023-09-11T18:13:59.817Z,,0,,,NaN,,,,,,false,,,,142988.90000000596,142988.80000001192,,142988.59999999404,,143000.666,8,400,,,
sequence,flow.Sequence,4_12,2023-09-11T18:13:59.817Z,,0,,,5454.582000011927,completion,,,,,false,,,,142989,142988.80000001192,137517.552,137525.40000000596,137534.218,143000.666,8,400,,,
trial,html.Screen,4_13_0,2023-09-11T18:14:04.155Z,,0,1,,4326.433999994042,response,ISIC_5116614.JPG,7,ISIC_0067318.JPG,ISIC_5116614.JPG,false,1,keypress(m),500,147327.59999999404,147327.09999999404,142984,142989.20000001788,143000.666,147334.811,8,400,14,,ISIC_0067318.JPG
break,html.Screen,4_13_1,2023-09-11T18:14:04.156Z,,0,,,NaN,,,,,,false,,,,147328.40000000596,147328.30000001192,,147327.80000001192,,147334.811,8,400,,,
break_continue,html.Screen,4_13_2,2023-09-11T18:14:04.157Z,,0,,,NaN,,,,,,false,,,,147328.90000000596,147328.70000001788,,147328.59999999404,,147334.811,8,400,,,
sequence,flow.Sequence,4_13,2023-09-11T18:14:04.157Z,,0,,,4328.034000017884,completion,,,,,false,,,,147329,147328.70000001788,142984,142989.09999999404,143000.666,147334.811,8,400,,,
trial,html.Screen,4_14_0,2023-09-11T18:14:07.480Z,,0,1,,3317.0890000059735,response,ISIC_9555291.JPG,7,ISIC_0010587.JPG,ISIC_9555291.JPG,false,1,keypress(m),500,150652.40000000596,150651.90000000596,147318.145,147329.20000001788,147334.811,150668.011,8,400,15,,ISIC_0010587.JPG
break,html.Screen,4_14_1,2023-09-11T18:14:07.481Z,,0,,,NaN,,,,,,false,,,,150653.5,150653.30000001192,,150652.70000001788,,150668.011,8,400,,,
break_continue,html.Screen,4_14_2,2023-09-11T18:14:07.481Z,,0,,,NaN,,,,,,false,,,,150653.90000000596,150653.80000001192,,150653.59999999404,,150668.011,8,400,,,
sequence,flow.Sequence,4_14,2023-09-11T18:14:07.482Z,,0,,,3318.989000011934,completion,,,,,false,,,,150654.09999999404,150653.80000001192,147318.145,147329.20000001788,147334.811,150668.011,8,400,,,
trial,html.Screen,4_15_0,2023-09-11T18:14:12.895Z,,0,1,,5398.989000000001,response,ISIC_3006279.JPG,8,ISIC_0001480.JPG,ISIC_0001480.JPG,false,0,keypress(z),500,156067.40000000596,156067,150651.345,150654.30000001192,150668.011,156068.789,8,400,16,,ISIC_3006279.JPG
break,html.Screen,4_15_1,2023-09-11T18:14:12.896Z,,0,,,NaN,,,,,,false,,,,156068.5,156068.30000001192,,156067.70000001788,,156068.789,8,400,,,
break_continue,html.Screen,4_15_2,2023-09-11T18:14:12.896Z,,0,,,NaN,,,,,,false,,,,156068.80000001192,156068.59999999404,,156068.5,,156068.789,8,400,,,
sequence,flow.Sequence,4_15,2023-09-11T18:14:12.896Z,,0,,,5400.588999994041,completion,,,,,false,,,,156069,156068.59999999404,150651.345,150654.20000001788,150668.011,156068.789,8,400,,,
trial,html.Screen,4_16_0,2023-09-11T18:14:16.151Z,,0,1,,3254.81099999405,response,ISIC_0001108.JPG,8,ISIC_0054677.JPG,ISIC_0054677.JPG,false,0,keypress(z),500,159324.09999999404,159323.59999999404,156052.123,156069.09999999404,156068.789,159335.325,8,400,17,,ISIC_0001108.JPG
break,html.Screen,4_16_1,2023-09-11T18:14:16.152Z,,0,,,NaN,,,,,,false,,,,159325,159324.90000000596,,159324.30000001192,,159335.325,8,400,,,
break_continue,html.Screen,4_16_2,2023-09-11T18:14:16.153Z,,0,,,NaN,,,,,,false,,,,159325.40000000596,159325.30000001192,,159325.20000001788,,159335.325,8,400,,,
sequence,flow.Sequence,4_16,2023-09-11T18:14:16.153Z,,0,,,3256.511000011931,completion,,,,,false,,,,159325.59999999404,159325.30000001192,156052.123,156069.09999999404,156068.789,159335.325,8,400,,,
trial,html.Screen,4_17_0,2023-09-11T18:14:19.276Z,,0,1,,3113.075000005949,response,ISIC_8355344.JPG,8,ISIC_7948290.JPG,ISIC_8355344.JPG,false,1,keypress(m),500,162448.90000000596,162448.40000000596,159318.659,159325.70000001788,159335.325,162451.867,8,400,18,,ISIC_7948290.JPG
break,html.Screen,4_17_1,2023-09-11T18:14:19.277Z,,0,,,NaN,,,,,,false,,,,162449.90000000596,162449.70000001788,,162449.20000001788,,162451.867,8,400,,,
break_continue,html.Screen,4_17_2,2023-09-11T18:14:19.277Z,,0,,,NaN,,,,,,false,,,,162450.20000001788,162450.09999999404,,162450,,162451.867,8,400,,,
sequence,flow.Sequence,4_17,2023-09-11T18:14:19.277Z,,0,,,3114.774999994028,completion,,,,,false,,,,162450.40000000596,162450.09999999404,159318.659,159325.70000001788,159335.325,162451.867,8,400,,,
trial,html.Screen,4_18_0,2023-09-11T18:14:22.208Z,,0,1,,2928.6330000000016,response,ISIC_4836699.JPG,9,ISIC_0029698.JPG,ISIC_4836699.JPG,false,1,keypress(m),500,165380.90000000596,165380.5,162435.201,162450.5,162451.867,165385.083,8,400,19,,ISIC_0029698.JPG
break,html.Screen,4_18_1,2023-09-11T18:14:22.209Z,,0,,,NaN,,,,,,false,,,,165381.90000000596,165381.70000001788,,165381.20000001788,,165385.083,8,400,,,
break_continue,html.Screen,4_18_2,2023-09-11T18:14:22.209Z,,0,,,NaN,,,,,,false,,,,165382.20000001788,165382.20000001788,,165382.09999999404,,165385.083,8,400,,,
sequence,flow.Sequence,4_18,2023-09-11T18:14:22.209Z,,0,,,2930.333000017883,completion,,,,,false,,,,165382.5,165382.20000001788,162435.201,162450.5,162451.867,165385.083,8,400,,,
trial,html.Screen,4_19_0,2023-09-11T18:14:27.112Z,,0,1,,4899.416999999987,response,ISIC_2993517.JPG,8,ISIC_7210296.JPG,ISIC_2993517.JPG,false,1,keypress(m),500,170285,170284.5,165368.417,165382.59999999404,165385.083,170302.347,8,400,20,,ISIC_7210296.JPG
break,html.Screen,4_19_1,2023-09-11T18:14:27.113Z,,0,,,NaN,,,,,,false,,,,170286,170285.90000000596,,170285.30000001192,,170302.347,8,400,,,
break_continue,html.Screen,4_19_2,2023-09-11T18:14:27.113Z,,0,,,NaN,,,,,,false,,,,170286.40000000596,170286.20000001788,,170286.09999999404,,170302.347,8,400,,,
sequence,flow.Sequence,4_19,2023-09-11T18:14:27.113Z,,0,,,4901.117000017868,completion,,,,,false,,,,170286.59999999404,170286.20000001788,165368.417,165382.5,165385.083,170302.347,8,400,,,
trial,html.Screen,4_20_0,2023-09-11T18:14:31.036Z,,0,1,,3906.3530000178725,response,ISIC_0033546.JPG,7,ISIC_0032544.JPG,ISIC_0033546.JPG,false,1,keypress(m),500,174209.09999999404,174208.70000001788,170285.681,170286.70000001788,170302.347,174218.857,8,400,21,,ISIC_0032544.JPG
break,html.Screen,4_20_1,2023-09-11T18:14:31.037Z,,0,,,NaN,,,,,,false,,,,174210.09999999404,174210,,174209.40000000596,,174218.857,8,400,,,
break_continue,html.Screen,4_20_2,2023-09-11T18:14:31.037Z,,0,,,NaN,,,,,,false,,,,174210.5,174210.40000000596,,174210.20000001788,,174218.857,8,400,,,
sequence,flow.Sequence,4_20,2023-09-11T18:14:31.037Z,,0,,,3908.0530000059516,completion,,,,,false,,,,174210.59999999404,174210.40000000596,170285.681,170286.70000001788,170302.347,174218.857,8,400,,,
trial,html.Screen,4_21_0,2023-09-11T18:14:34.387Z,,0,1,,3340.943000011932,response,ISIC_1495793.JPG,7,ISIC_5307210.JPG,ISIC_1495793.JPG,false,1,keypress(m),500,177560.20000001788,177559.80000001192,174202.191,174210.80000001192,174218.857,177569.662,8,400,22,,ISIC_5307210.JPG
break,html.Screen,4_21_1,2023-09-11T18:14:34.388Z,,0,,,NaN,,,,,,false,,,,177561.20000001788,177561,,177560.5,,177569.662,8,400,,,
break_continue,html.Screen,4_21_2,2023-09-11T18:14:34.388Z,,0,,,NaN,,,,,,false,,,,177561.59999999404,177561.5,,177561.40000000596,,177569.662,8,400,,,
sequence,flow.Sequence,4_21,2023-09-11T18:14:34.388Z,,0,,,3342.643000000011,completion,,,,,false,,,,177561.70000001788,177561.5,174202.191,174210.70000001788,174218.857,177569.662,8,400,,,
trial,html.Screen,4_22_0,2023-09-11T18:14:37.560Z,,0,1,,3163.837999999989,response,ISIC_0026963.JPG,7,ISIC_0034052.JPG,ISIC_0026963.JPG,false,1,keypress(m),500,180734,180733.5,177552.996,177562,177569.662,180736.202,8,400,23,,ISIC_0034052.JPG
break,html.Screen,4_22_1,2023-09-11T18:14:37.561Z,,0,,,NaN,,,,,,false,,,,180734.90000000596,180734.70000001788,,180734.30000001192,,180736.202,8,400,,,
break_continue,html.Screen,4_22_2,2023-09-11T18:14:37.562Z,,0,,,NaN,,,,,,false,,,,180735.30000001192,180735.30000001192,,180735.09999999404,,180736.202,8,400,,,
sequence,flow.Sequence,4_22,2023-09-11T18:14:37.562Z,,0,,,3165.6380000119098,completion,,,,,false,,,,180735.5,180735.30000001192,177552.996,177561.90000000596,177569.662,180736.202,8,400,,,
trial,html.Screen,4_23_0,2023-09-11T18:14:41.567Z,,0,1,,4004.3979999940493,response,ISIC_8234773.JPG,7,ISIC_0011137.JPG,ISIC_0011137.JPG,false,0,keypress(z),500,184741,184740.59999999404,180719.536,180735.70000001788,180736.202,184752.708,8,400,24,,ISIC_8234773.JPG
break,html.Screen,4_23_1,2023-09-11T18:14:41.568Z,,0,,,NaN,,,,,,false,,,,184742,184741.80000001192,,184741.30000001192,,184752.708,8,400,,,
break_continue,html.Screen,4_23_2,2023-09-11T18:14:41.569Z,,0,,,NaN,,,,,,false,,,,184742.40000000596,184742.40000000596,,184742.20000001788,,184752.708,8,400,,,
sequence,flow.Sequence,4_23,2023-09-11T18:14:41.569Z,,0,,,4006.1980000059702,completion,,,,,false,,,,184742.70000001788,184742.40000000596,180719.536,180735.59999999404,180736.202,184752.708,8,400,,,
trial,html.Screen,4_24_0,2023-09-11T18:14:45.527Z,,0,1,,3947.192000005947,response,ISIC_1874480.JPG,4,ISIC_0056915.JPG,ISIC_1874480.JPG,false,1,keypress(m),500,188700.30000001192,188699.90000000596,184736.042,184742.80000001192,184752.708,188703.292,8,400,25,,ISIC_0056915.JPG
break,html.Screen,4_24_1,2023-09-11T18:14:45.528Z,,0,,,NaN,,,,,,false,,,,188701.40000000596,188701.30000001192,,188700.70000001788,,188703.292,8,400,,,
break_continue,html.Screen,4_24_2,2023-09-11T18:14:45.528Z,,0,,,NaN,,,,,,false,,,,188701.70000001788,188701.70000001788,,188701.5,,188703.292,8,400,,,
sequence,flow.Sequence,4_24,2023-09-11T18:14:45.528Z,,0,,,3948.992000017868,completion,,,,,false,,,,188701.90000000596,188701.70000001788,184736.042,184742.80000001192,184752.708,188703.292,8,400,,,
trial,html.Screen,4_25_0,2023-09-11T18:14:48.550Z,,0,1,,3020.008000011934,response,ISIC_3447331.JPG,8,ISIC_0064606.JPG,ISIC_3447331.JPG,false,1,keypress(m),500,191723.70000001788,191723.30000001192,188686.626,188702.09999999404,188703.292,191736.504,8,400,26,,ISIC_0064606.JPG
break,html.Screen,4_25_1,2023-09-11T18:14:48.551Z,,0,,,NaN,,,,,,false,,,,191724.70000001788,191724.59999999404,,191724,,191736.504,8,400,,,
break_continue,html.Screen,4_25_2,2023-09-11T18:14:48.551Z,,0,,,NaN,,,,,,false,,,,191725.20000001788,191725.09999999404,,191725,,191736.504,8,400,,,
sequence,flow.Sequence,4_25,2023-09-11T18:14:48.551Z,,0,,,3021.807999994053,completion,,,,,false,,,,191725.40000000596,191725.09999999404,188686.626,188702.09999999404,188703.292,191736.504,8,400,,,
trial,html.Screen,4_26_0,2023-09-11T18:14:52.094Z,,0,1,,3530.7960000119347,response,ISIC_0055450.JPG,8,ISIC_0030072.JPG,ISIC_0030072.JPG,false,0,keypress(z),500,195267.70000001788,195267.30000001192,191719.838,191725.59999999404,191736.504,195269.696,8,400,27,,ISIC_0055450.JPG
break,html.Screen,4_26_1,2023-09-11T18:14:52.095Z,,0,,,NaN,,,,,,false,,,,195268.70000001788,195268.5,,195268,,195269.696,8,400,,,
break_continue,html.Screen,4_26_2,2023-09-11T18:14:52.095Z,,0,,,NaN,,,,,,false,,,,195269.09999999404,195268.90000000596,,195268.80000001192,,195269.696,8,400,,,
sequence,flow.Sequence,4_26,2023-09-11T18:14:52.095Z,,0,,,3532.396000005974,completion,,,,,false,,,,195269.20000001788,195268.90000000596,191719.838,191725.5,191736.504,195269.696,8,400,,,
trial,html.Screen,4_27_0,2023-09-11T18:14:57.634Z,,0,1,,5537.903999994043,response,ISIC_0068610.JPG,8,ISIC_0032968.JPG,ISIC_0032968.JPG,false,0,keypress(z),500,200807.90000000596,200807.59999999404,195253.03,195269.30000001192,195269.696,200836.989,8,400,28,,ISIC_0068610.JPG
break,html.Screen,4_27_1,2023-09-11T18:14:57.635Z,,0,,,NaN,,,,,,false,,,,200809.09999999404,200808.80000001192,,200808.09999999404,,200836.989,8,400,,,
break_continue,html.Screen,4_27_2,2023-09-11T18:14:57.635Z,,0,,,NaN,,,,,,false,,,,200809.5,200809.40000000596,,200809.20000001788,,200836.989,8,400,,,
sequence,flow.Sequence,4_27,2023-09-11T18:14:57.635Z,,0,,,5539.704000005964,completion,,,,,false,,,,200809.59999999404,200809.40000000596,195253.03,195269.20000001788,195269.696,200836.989,8,400,,,
trial,html.Screen,4_28_0,2023-09-11T18:15:02.409Z,,0,1,,4746.110999994038,response,ISIC_2625894.JPG,8,ISIC_2555494.JPG,ISIC_2625894.JPG,false,1,keypress(m),500,205583.59999999404,205583.09999999404,200820.323,200809.80000001192,200836.989,205586.799,8,400,29,,ISIC_2555494.JPG
break,html.Screen,4_28_1,2023-09-11T18:15:02.410Z,,0,,,NaN,,,,,,false,,,,205584.59999999404,205584.5,,205583.90000000596,,205586.799,8,400,,,
break_continue,html.Screen,4_28_2,2023-09-11T18:15:02.411Z,,0,,,NaN,,,,,,false,,,,205585,205584.80000001192,,205584.70000001788,,205586.799,8,400,,,
sequence,flow.Sequence,4_28,2023-09-11T18:15:02.411Z,,0,,,4747.8110000119195,completion,,,,,false,,,,205585.09999999404,205584.80000001192,200820.323,200809.80000001192,200836.989,205586.799,8,400,,,
trial,html.Screen,4_29_0,2023-09-11T18:15:05.421Z,,0,1,,3008.9010000178823,response,ISIC_2872107.JPG,8,ISIC_0026231.JPG,ISIC_2872107.JPG,false,1,keypress(m),500,208596.09999999404,208595.70000001788,205570.133,205585.30000001192,205586.799,208603.345,8,400,30,,ISIC_0026231.JPG
break,html.Screen,4_29_1,2023-09-11T18:15:05.422Z,,0,,,NaN,,,,,,false,,,,208596.70000001788,208596.59999999404,,208596.30000001192,,208603.345,8,400,,,
break_continue,html.Screen,4_29_2,2023-09-11T18:15:05.422Z,,0,,,NaN,,,,,,false,,,,208596.90000000596,208596.80000001192,,208596.70000001788,,208603.345,8,400,,,
sequence,flow.Sequence,4_29,2023-09-11T18:15:05.422Z,,0,,,3010.001000011922,completion,,,,,false,,,,208597,208596.80000001192,205570.133,205585.30000001192,205586.799,208603.345,8,400,,,
trial,html.Screen,4_30_0,2023-09-11T18:15:09.602Z,,0,1,,4173.055000005959,response,ISIC_4899386.JPG,6,ISIC_0064344.JPG,ISIC_4899386.JPG,false,1,keypress(m),500,212776.80000001192,212776.40000000596,208586.679,208597.09999999404,208603.345,212787.421,8,400,31,,ISIC_0064344.JPG
break,html.Screen,4_30_1,2023-09-11T18:15:09.603Z,,0,,,NaN,,,,,,false,,,,212777.80000001192,212777.5,,212777,,212787.421,8,400,,,
break_continue,html.Screen,4_30_2,2023-09-11T18:15:09.603Z,,0,,,NaN,,,,,,false,,,,212778.09999999404,212778,,212777.80000001192,,212787.421,8,400,,,
sequence,flow.Sequence,4_30,2023-09-11T18:15:09.604Z,,0,,,4174.654999999999,completion,,,,,false,,,,212778.20000001788,212778,208586.679,208597.09999999404,208603.345,212787.421,8,400,,,
trial,html.Screen,4_31_0,2023-09-11T18:15:12.734Z,,0,1,,3120.578999999998,response,ISIC_0062158.JPG,10,ISIC_0069292.JPG,ISIC_0062158.JPG,false,1,keypress(m),500,215908.5,215908,212770.755,212778.40000000596,212787.421,215920.629,8,400,32,,ISIC_0069292.JPG
break,html.Screen,4_31_1,2023-09-11T18:15:12.735Z,,0,,,NaN,,,,,,false,,,,215909.40000000596,215909.30000001192,,215908.80000001192,,215920.629,8,400,,,
break_continue,html.Screen,4_31_2,2023-09-11T18:15:12.735Z,,0,,,NaN,,,,,,false,,,,215909.80000001192,215909.70000001788,,215909.59999999404,,215920.629,8,400,,,
sequence,flow.Sequence,4_31,2023-09-11T18:15:12.735Z,,0,,,3122.2790000178793,completion,,,,,false,,,,215910,215909.70000001788,212770.755,212778.40000000596,212787.421,215920.629,8,400,,,
trial,html.Screen,4_32_0,2023-09-11T18:15:16.148Z,,0,1,,3402.1710000119347,response,ISIC_0399142.JPG,7,ISIC_3687259.JPG,ISIC_3687259.JPG,false,0,keypress(z),500,219323.20000001788,219322.80000001192,215903.963,215910.20000001788,215920.629,219337.912,8,400,33,,ISIC_0399142.JPG
break,html.Screen,4_32_1,2023-09-11T18:15:16.149Z,,0,,,NaN,,,,,,false,,,,219324.20000001788,219324,,219323.5,,219337.912,8,400,,,
break_continue,html.Screen,4_32_2,2023-09-11T18:15:16.150Z,,0,,,NaN,,,,,,false,,,,219324.59999999404,219324.40000000596,,219324.30000001192,,219337.912,8,400,,,
sequence,flow.Sequence,4_32,2023-09-11T18:15:16.150Z,,0,,,3403.771000005974,completion,,,,,false,,,,219324.80000001192,219324.40000000596,215903.963,215910.09999999404,215920.629,219337.912,8,400,,,
trial,html.Screen,4_33_0,2023-09-11T18:15:19.719Z,,0,1,,3555.78800001787,response,ISIC_0034144.JPG,7,ISIC_4177043.JPG,ISIC_4177043.JPG,false,0,keypress(z),500,222894.09999999404,222893.70000001788,219321.246,219325,219337.912,222904.436,8,400,34,,ISIC_0034144.JPG
break,html.Screen,4_33_1,2023-09-11T18:15:19.720Z,,0,,,NaN,,,,,,false,,,,222895.09999999404,222894.80000001192,,222894.40000000596,,222904.436,8,400,,,
break_continue,html.Screen,4_33_2,2023-09-11T18:15:19.720Z,,0,,,NaN,,,,,,false,,,,222895.30000001192,222895.20000001788,,222895.09999999404,,222904.436,8,400,,,
sequence,flow.Sequence,4_33,2023-09-11T18:15:19.720Z,,0,,,3557.28800001787,completion,,,,,false,,,,222895.5,222895.20000001788,219321.246,219324.90000000596,219337.912,222904.436,8,400,,,
trial,html.Screen,4_34_0,2023-09-11T18:15:22.700Z,,0,1,,2970.564000000013,response,ISIC_0031674.JPG,9,ISIC_9475559.JPG,ISIC_9475559.JPG,false,0,keypress(z),500,225875.5,225875,222887.77,222895.59999999404,222904.436,225887.65,8,400,35,,ISIC_0031674.JPG
break,html.Screen,4_34_1,2023-09-11T18:15:22.701Z,,0,,,NaN,,,,,,false,,,,225876.40000000596,225876.30000001192,,225875.80000001192,,225887.65,8,400,,,
break_continue,html.Screen,4_34_2,2023-09-11T18:15:22.702Z,,0,,,NaN,,,,,,false,,,,225876.90000000596,225876.80000001192,,225876.59999999404,,225887.65,8,400,,,
sequence,flow.Sequence,4_34,2023-09-11T18:15:22.702Z,,0,,,2972.364000011934,completion,,,,,false,,,,225877,225876.80000001192,222887.77,222895.59999999404,222904.436,225887.65,8,400,,,
trial,html.Screen,4_35_0,2023-09-11T18:15:26.405Z,,0,1,,3692.050000017887,response,ISIC_7333928.JPG,6,ISIC_0014264.JPG,ISIC_7333928.JPG,false,1,keypress(m),500,229580.20000001788,229579.70000001788,225870.984,225877.20000001788,225887.65,229588.44,8,400,36,,ISIC_0014264.JPG
break,html.Screen,4_35_1,2023-09-11T18:15:26.406Z,,0,,,NaN,,,,,,false,,,,229581.20000001788,229580.90000000596,,229580.5,,229588.44,8,400,,,
break_continue,html.Screen,4_35_2,2023-09-11T18:15:26.406Z,,0,,,NaN,,,,,,false,,,,229581.5,229581.40000000596,,229581.30000001192,,229588.44,8,400,,,
sequence,flow.Sequence,4_35,2023-09-11T18:15:26.406Z,,0,,,3693.7500000059663,completion,,,,,false,,,,229581.70000001788,229581.40000000596,225870.984,225877.20000001788,225887.65,229588.44,8,400,,,
trial,html.Screen,4_36_0,2023-09-11T18:15:31.117Z,,0,1,,4703.659999994037,response,ISIC_0028009.JPG,9,ISIC_0058529.JPG,ISIC_0028009.JPG,false,1,keypress(m),500,234292.59999999404,234292.09999999404,229571.774,229581.90000000596,229588.44,234304.918,8,400,37,,ISIC_0058529.JPG
break,html.Screen,4_36_1,2023-09-11T18:15:31.118Z,,0,,,NaN,,,,,,false,,,,234293.5,234293.30000001192,,234292.90000000596,,234304.918,8,400,,,
break_continue,html.Screen,4_36_2,2023-09-11T18:15:31.118Z,,0,,,NaN,,,,,,false,,,,234293.90000000596,234293.80000001192,,234293.70000001788,,234304.918,8,400,,,
sequence,flow.Sequence,4_36,2023-09-11T18:15:31.119Z,,0,,,4705.360000011919,completion,,,,,false,,,,234294.09999999404,234293.80000001192,229571.774,229581.80000001192,229588.44,234304.918,8,400,,,
trial,html.Screen,4_37_0,2023-09-11T18:15:34.271Z,,0,1,,3140.9820000059553,response,ISIC_0030689.JPG,6,ISIC_0029078.JPG,ISIC_0029078.JPG,false,0,keypress(z),500,237446.30000001192,237445.90000000596,234288.252,234294.20000001788,234304.918,237454.792,8,400,38,,ISIC_0030689.JPG
break,html.Screen,4_37_1,2023-09-11T18:15:34.272Z,,0,,,NaN,,,,,,false,,,,237447.20000001788,237447.09999999404,,237446.59999999404,,237454.792,8,400,,,
break_continue,html.Screen,4_37_2,2023-09-11T18:15:34.272Z,,0,,,NaN,,,,,,false,,,,237447.70000001788,237447.59999999404,,237447.40000000596,,237454.792,8,400,,,
sequence,flow.Sequence,4_37,2023-09-11T18:15:34.272Z,,0,,,3142.6819999940344,completion,,,,,false,,,,237447.80000001192,237447.59999999404,234288.252,234294.20000001788,234304.918,237454.792,8,400,,,
trial,html.Screen,4_38_0,2023-09-11T18:15:37.765Z,,0,1,,3485.4080000178947,response,ISIC_0064240.JPG,8,ISIC_0067985.JPG,ISIC_0064240.JPG,false,1,keypress(m),500,240940.70000001788,240940.20000001788,237438.126,237448,237454.792,240955.449,8,400,39,,ISIC_0067985.JPG
break,html.Screen,4_38_1,2023-09-11T18:15:37.766Z,,0,,,NaN,,,,,,false,,,,240941.70000001788,240941.5,,240941,,240955.449,8,400,,,
break_continue,html.Screen,4_38_2,2023-09-11T18:15:37.766Z,,0,,,NaN,,,,,,false,,,,240942,240942,,240941.80000001192,,240955.449,8,400,,,
sequence,flow.Sequence,4_38,2023-09-11T18:15:37.767Z,,0,,,3487.2080000000133,completion,,,,,false,,,,240942.20000001788,240942,237438.126,237447.90000000596,237454.792,240955.449,8,400,,,
trial,html.Screen,4_39_0,2023-09-11T18:15:40.790Z,,0,1,,3009.751000017888,response,ISIC_8917755.JPG,8,ISIC_0072182.JPG,ISIC_8917755.JPG,false,1,keypress(m),500,243965.70000001788,243965.20000001788,240938.783,240942.40000000596,240955.449,243971.995,8,400,40,,ISIC_0072182.JPG
break,html.Screen,4_39_1,2023-09-11T18:15:40.791Z,,0,,,NaN,,,,,,false,,,,243966.59999999404,243966.5,,243966,,243971.995,8,400,,,
break_continue,html.Screen,4_39_2,2023-09-11T18:15:40.791Z,,0,,,NaN,,,,,,false,,,,243967.09999999404,243966.90000000596,,243966.80000001192,,243971.995,8,400,,,
sequence,flow.Sequence,4_39,2023-09-11T18:15:40.791Z,,0,,,3011.451000005967,completion,,,,,false,,,,243967.20000001788,243966.90000000596,240938.783,240942.40000000596,240955.449,243971.995,8,400,,,
trial,html.Screen,4_40_0,2023-09-11T18:15:43.963Z,,0,1,,3166.3050000119256,response,ISIC_1108178.JPG,8,ISIC_4358550.JPG,ISIC_1108178.JPG,false,1,keypress(m),500,247138.90000000596,247138.30000001192,243955.329,243967.40000000596,243971.995,247155.201,8,400,41,,ISIC_4358550.JPG
break,html.Screen,4_40_1,2023-09-11T18:15:43.964Z,,0,,,NaN,,,,,,false,,,,247139.80000001192,247139.59999999404,,247139.20000001788,,247155.201,8,400,,,
break_continue,html.Screen,4_40_2,2023-09-11T18:15:43.964Z,,0,,,NaN,,,,,,false,,,,247140.20000001788,247140,,247140,,247155.201,8,400,,,
sequence,flow.Sequence,4_40,2023-09-11T18:15:43.964Z,,0,,,3168.0050000000047,completion,,,,,false,,,,247140.40000000596,247140,243955.329,243967.30000001192,243971.995,247155.201,8,400,,,
trial,html.Screen,4_41_0,2023-09-11T18:15:46.948Z,,0,1,,2968.8989999940386,response,ISIC_0033073.JPG,7,ISIC_7127760.JPG,ISIC_7127760.JPG,false,0,keypress(z),500,250124.59999999404,250124.09999999404,247138.535,247140.59999999404,247155.201,250139.196,8,400,42,,ISIC_0033073.JPG
break,html.Screen,4_41_1,2023-09-11T18:15:46.950Z,,0,,,NaN,,,,,,false,,,,250125.59999999404,250125.30000001192,,250124.90000000596,,250139.196,8,400,,,
break_continue,html.Screen,4_41_2,2023-09-11T18:15:46.950Z,,0,,,NaN,,,,,,false,,,,250126.09999999404,250125.80000001192,,250125.70000001788,,250139.196,8,400,,,
sequence,flow.Sequence,4_41,2023-09-11T18:15:46.950Z,,0,,,2970.59900001192,completion,,,,,false,,,,250126.20000001788,250125.80000001192,247138.535,247140.5,247155.201,250139.196,8,400,,,
trial,html.Screen,4_42_0,2023-09-11T18:15:49.692Z,,0,1,,2728.3040000000037,response,ISIC_0014221.JPG,8,ISIC_0029056.JPG,ISIC_0014221.JPG,false,1,keypress(m),500,252867.90000000596,252867.5,250122.53,250126.40000000596,250139.196,252872.42,8,400,43,,ISIC_0029056.JPG
break,html.Screen,4_42_1,2023-09-11T18:15:49.693Z,,0,,,NaN,,,,,,false,,,,252868.90000000596,252868.70000001788,,252868.20000001788,,252872.42,8,400,,,
break_continue,html.Screen,4_42_2,2023-09-11T18:15:49.693Z,,0,,,NaN,,,,,,false,,,,252869.20000001788,252869.09999999404,,252868.90000000596,,252872.42,8,400,,,
sequence,flow.Sequence,4_42,2023-09-11T18:15:49.693Z,,0,,,2729.9039999940433,completion,,,,,false,,,,252869.40000000596,252869.09999999404,250122.53,250126.40000000596,250139.196,252872.42,8,400,,,
trial,html.Screen,4_43_0,2023-09-11T18:15:52.435Z,,0,1,,2738.7800000178686,response,ISIC_3963183.JPG,8,ISIC_0066671.JPG,ISIC_3963183.JPG,false,1,keypress(m),500,255611.70000001788,255611.20000001788,252855.754,252869.59999999404,252872.42,255622.31,8,400,44,,ISIC_0066671.JPG
break,html.Screen,4_43_1,2023-09-11T18:15:52.436Z,,0,,,NaN,,,,,,false,,,,255612.70000001788,255612.5,,255612,,255622.31,8,400,,,
break_continue,html.Screen,4_43_2,2023-09-11T18:15:52.437Z,,0,,,NaN,,,,,,false,,,,255613,255613,,255612.80000001192,,255622.31,8,400,,,
sequence,flow.Sequence,4_43,2023-09-11T18:15:52.437Z,,0,,,2740.579999999987,completion,,,,,false,,,,255613.20000001788,255613,252855.754,252869.5,252872.42,255622.31,8,400,,,
trial,html.Screen,4_44_0,2023-09-11T18:15:55.146Z,,0,1,,2699.9900000119233,response,ISIC_2075546.JPG,6,ISIC_0032484.JPG,ISIC_2075546.JPG,false,1,keypress(m),500,258322.70000001788,258322.30000001192,255605.644,255613.40000000596,255622.31,258338.868,8,400,45,,ISIC_0032484.JPG
break,html.Screen,4_44_1,2023-09-11T18:15:55.147Z,,0,,,NaN,,,,,,false,,,,258323.80000001192,258323.59999999404,,258323.09999999404,,258338.868,8,400,,,
break_continue,html.Screen,4_44_2,2023-09-11T18:15:55.148Z,,0,,,NaN,,,,,,false,,,,258324.20000001788,258324,,258323.90000000596,,258338.868,8,400,,,
sequence,flow.Sequence,4_44,2023-09-11T18:15:55.148Z,,0,,,2701.6900000000023,completion,,,,,false,,,,258324.40000000596,258324,255605.644,255613.30000001192,255622.31,258338.868,8,400,,,
trial,html.Screen,4_45_0,2023-09-11T18:15:58.110Z,,0,1,,2947.4320000119333,response,ISIC_0065463.JPG,7,ISIC_8959410.JPG,ISIC_8959410.JPG,false,0,keypress(z),500,261286.80000001192,261286.30000001192,258322.202,258324.5,258338.868,261289.611,8,400,46,,ISIC_0065463.JPG
break,html.Screen,4_45_1,2023-09-11T18:15:58.111Z,,0,,,NaN,,,,,,false,,,,261287.80000001192,261287.5,,261287,,261289.611,8,400,,,
break_continue,html.Screen,4_45_2,2023-09-11T18:15:58.112Z,,0,,,NaN,,,,,,false,,,,261288.09999999404,261288,,261287.90000000596,,261289.611,8,400,,,
sequence,flow.Sequence,4_45,2023-09-11T18:15:58.112Z,,0,,,2949.1320000000123,completion,,,,,false,,,,261288.30000001192,261288,258322.202,258324.40000000596,258338.868,261289.611,8,400,,,
trial,html.Screen,4_46_0,2023-09-11T18:16:01.196Z,,0,1,,3082.488999994035,response,ISIC_7460111.JPG,4,ISIC_2089231.JPG,ISIC_7460111.JPG,false,1,keypress(m),500,264372.59999999404,264372.09999999404,261272.945,261288.30000001192,261289.611,264389.487,8,400,47,,ISIC_2089231.JPG
break,html.Screen,4_46_1,2023-09-11T18:16:01.197Z,,0,,,NaN,,,,,,false,,,,264373.5,264373.3000000119,,264372.90000000596,,264389.487,8,400,,,
break_continue,html.Screen,4_46_2,2023-09-11T18:16:01.197Z,,0,,,NaN,,,,,,false,,,,264373.90000000596,264373.7000000179,,264373.59999999404,,264389.487,8,400,,,
sequence,flow.Sequence,4_46,2023-09-11T18:16:01.198Z,,0,,,3084.089000017877,completion,,,,,false,,,,264374.09999999404,264373.7000000179,261272.945,261288.30000001192,261289.611,264389.487,8,400,,,
trial,html.Screen,4_47_0,2023-09-11T18:16:04.052Z,,0,1,,2838.6129999940167,response,ISIC_0032858.JPG,6,ISIC_2479134.JPG,ISIC_2479134.JPG,false,0,keypress(z),500,267228.5,267228.09999999404,264372.821,264374.3000000119,264389.487,267239.373,8,400,48,,ISIC_0032858.JPG
break,html.Screen,4_47_1,2023-09-11T18:16:04.053Z,,0,,,NaN,,,,,,false,,,,267229.5,267229.3000000119,,267228.8000000119,,267239.373,8,400,,,
break_continue,html.Screen,4_47_2,2023-09-11T18:16:04.053Z,,0,,,NaN,,,,,,false,,,,267230,267229.90000000596,,267229.7000000179,,267239.373,8,400,,,
sequence,flow.Sequence,4_47,2023-09-11T18:16:04.053Z,,0,,,2840.4130000059376,completion,,,,,false,,,,267230.2000000179,267229.90000000596,264372.821,264374.09999999404,264389.487,267239.373,8,400,,,
trial,html.Screen,4_48_0,2023-09-11T18:16:06.843Z,,0,1,,2779.6269999999786,response,ISIC_0033802.JPG,8,ISIC_0033625.JPG,ISIC_0033802.JPG,false,1,keypress(m),500,270019.40000000596,270019,267222.707,267230.3000000119,267239.373,270022.595,8,400,49,,ISIC_0033625.JPG
break,html.Screen,4_48_1,2023-09-11T18:16:06.844Z,,0,,,NaN,,,,,,false,,,,270020.40000000596,270020.2000000179,,270019.7000000179,,270022.595,8,400,,,
break_continue,html.Screen,4_48_2,2023-09-11T18:16:06.844Z,,0,,,NaN,,,,,,false,,,,270020.8000000119,270020.7000000179,,270020.59999999404,,270022.595,8,400,,,
sequence,flow.Sequence,4_48,2023-09-11T18:16:06.844Z,,0,,,2781.32700001786,completion,,,,,false,,,,270021,270020.7000000179,267222.707,267230.3000000119,267239.373,270022.595,8,400,,,
trial,html.Screen,4_49_0,2023-09-11T18:16:10.496Z,,0,1,,3649.705000011949,response,ISIC_1687004.JPG,6,ISIC_0697953.JPG,ISIC_0697953.JPG,false,0,keypress(z),500,273672.90000000596,273672.3000000119,270005.929,270021.2000000179,270022.595,273689.934,8,400,50,,ISIC_1687004.JPG
break,html.Screen,4_49_1,2023-09-11T18:16:20.498Z,,0,,,10000.450000000012,timeout,,,,,false,,,,283675.40000000596,283673.718,273673.268,273673.2000000179,273689.934,283690.384,8,400,,,
break_continue,html.Screen,4_49_2,2023-09-11T18:16:25.851Z,,0,,,5326.01600000594,response,,,,,false,continue,keypress(Space),,289028,289016.40000000596,283673.718,283675.5,283690.384,289040.17,8,400,,,
sequence,flow.Sequence,4_49,2023-09-11T18:16:25.851Z,,0,,,18993.80500000599,completion,,,,,false,,,,289028.3000000119,289016.40000000596,270005.929,270021.09999999404,270022.595,289040.17,8,400,,,
trial,html.Screen,4_50_0,2023-09-11T18:16:28.989Z,,0,2,,3125.929999994056,response,ISIC_0029120.JPG,7,ISIC_0067564.JPG,ISIC_0029120.JPG,false,1,keypress(m),500,292166.59999999404,292166.09999999404,289023.504,289028.40000000596,289040.17,292174.183,8,400,1,,ISIC_0067564.JPG
break,html.Screen,4_50_1,2023-09-11T18:16:28.990Z,,0,,,NaN,,,,,,false,,,,292167.59999999404,292167.40000000596,,292167,,292174.183,8,400,,,
break_continue,html.Screen,4_50_2,2023-09-11T18:16:28.990Z,,0,,,NaN,,,,,,false,,,,292168,292167.90000000596,,292167.8000000119,,292174.183,8,400,,,
sequence,flow.Sequence,4_50,2023-09-11T18:16:28.991Z,,0,,,3127.7300000059768,completion,,,,,false,,,,292168.2000000179,292167.90000000596,289023.504,289028.40000000596,289040.17,292174.183,8,400,,,
trial,html.Screen,4_51_0,2023-09-11T18:16:32.012Z,,0,2,,3015.0170000178623,response,ISIC_0150363.JPG,8,ISIC_0394140.JPG,ISIC_0150363.JPG,false,1,keypress(m),500,295189.7000000179,295189.2000000179,292157.517,292168.40000000596,292174.183,295190.729,8,400,2,,ISIC_0394140.JPG
break,html.Screen,4_51_1,2023-09-11T18:16:32.013Z,,0,,,NaN,,,,,,false,,,,295190.7000000179,295190.5,,295190,,295190.729,8,400,,,
break_continue,html.Screen,4_51_2,2023-09-11T18:16:32.013Z,,0,,,NaN,,,,,,false,,,,295191,295190.90000000596,,295190.8000000119,,295190.729,8,400,,,
sequence,flow.Sequence,4_51,2023-09-11T18:16:32.014Z,,0,,,3016.7170000059414,completion,,,,,false,,,,295191.2000000179,295190.90000000596,292157.517,292168.40000000596,292174.183,295190.729,8,400,,,
trial,html.Screen,4_52_0,2023-09-11T18:16:36.162Z,,0,2,,4148.171000005968,response,ISIC_0024260.JPG,8,ISIC_1560272.JPG,ISIC_1560272.JPG,false,0,keypress(z),500,299339.3000000119,299338.90000000596,295174.063,295191.40000000596,295190.729,299340.563,8,400,3,,ISIC_0024260.JPG
break,html.Screen,4_52_1,2023-09-11T18:16:36.162Z,,0,,,NaN,,,,,,false,,,,299340.3000000119,299340.09999999404,,299339.59999999404,,299340.563,8,400,,,
break_continue,html.Screen,4_52_2,2023-09-11T18:16:36.163Z,,0,,,NaN,,,,,,false,,,,299340.59999999404,299340.59999999404,,299340.40000000596,,299340.563,8,400,,,
sequence,flow.Sequence,4_52,2023-09-11T18:16:36.163Z,,0,,,4149.870999994047,completion,,,,,false,,,,299340.90000000596,299340.59999999404,295174.063,295191.3000000119,295190.729,299340.563,8,400,,,
trial,html.Screen,4_53_0,2023-09-11T18:16:39.195Z,,0,2,,3031.8370000059367,response,ISIC_0046394.JPG,8,ISIC_0014013.JPG,ISIC_0014013.JPG,false,0,keypress(z),500,302372.59999999404,302372.40000000596,299323.897,299341.09999999404,299340.563,302374.606,8,400,4,,ISIC_0046394.JPG
break,html.Screen,4_53_1,2023-09-11T18:16:39.195Z,,0,,,NaN,,,,,,false,,,,302373.09999999404,302373,,302372.8000000119,,302374.606,8,400,,,
break_continue,html.Screen,4_53_2,2023-09-11T18:16:39.195Z,,0,,,NaN,,,,,,false,,,,302373.2000000179,302373.2000000179,,302373.2000000179,,302374.606,8,400,,,
sequence,flow.Sequence,4_53,2023-09-11T18:16:39.195Z,,0,,,3032.6370000178576,completion,,,,,false,,,,302373.3000000119,302373.2000000179,299323.897,299341,299340.563,302374.606,8,400,,,
trial,html.Screen,4_54_0,2023-09-11T18:16:42.543Z,,0,2,,3345.7940000059316,response,ISIC_0076742.JPG,4,ISIC_0385633.JPG,ISIC_0076742.JPG,false,1,keypress(m),500,305720.8000000119,305720.40000000596,302357.94,302373.40000000596,302374.606,305724.472,8,400,5,,ISIC_0385633.JPG
break,html.Screen,4_54_1,2023-09-11T18:16:42.544Z,,0,,,NaN,,,,,,false,,,,305721.8000000119,305721.59999999404,,305721.09999999404,,305724.472,8,400,,,
break_continue,html.Screen,4_54_2,2023-09-11T18:16:42.544Z,,0,,,NaN,,,,,,false,,,,305722.09999999404,305722,,305721.90000000596,,305724.472,8,400,,,
sequence,flow.Sequence,4_54,2023-09-11T18:16:42.544Z,,0,,,3347.393999999971,completion,,,,,false,,,,305722.3000000119,305722,302357.94,302373.3000000119,302374.606,305724.472,8,400,,,
trial,html.Screen,4_55_0,2023-09-11T18:16:45.524Z,,0,2,,2977.527999999991,response,ISIC_8064866.JPG,5,ISIC_0032913.JPG,ISIC_8064866.JPG,false,1,keypress(m),500,308702.40000000596,308702,305707.806,305722.40000000596,305724.472,308707.686,8,400,6,,ISIC_0032913.JPG
break,html.Screen,4_55_1,2023-09-11T18:16:45.525Z,,0,,,NaN,,,,,,false,,,,308703.5,308703.2000000179,,308702.7000000179,,308707.686,8,400,,,
break_continue,html.Screen,4_55_2,2023-09-11T18:16:45.526Z,,0,,,NaN,,,,,,false,,,,308703.8000000119,308703.59999999404,,308703.5,,308707.686,8,400,,,
sequence,flow.Sequence,4_55,2023-09-11T18:16:45.526Z,,0,,,2979.1279999940307,completion,,,,,false,,,,308703.90000000596,308703.59999999404,305707.806,305722.3000000119,305724.472,308707.686,8,400,,,
trial,html.Screen,4_56_0,2023-09-11T18:16:50.233Z,,0,2,,4703.2140000059735,response,ISIC_7781213.JPG,9,ISIC_3012778.JPG,ISIC_7781213.JPG,false,1,keypress(m),500,313411.3000000119,313410.90000000596,308691.02,308704.09999999404,308707.686,313424.958,8,400,7,,ISIC_3012778.JPG
break,html.Screen,4_56_1,2023-09-11T18:16:50.234Z,,0,,,NaN,,,,,,false,,,,313411.90000000596,313411.8000000119,,313411.5,,313424.958,8,400,,,
break_continue,html.Screen,4_56_2,2023-09-11T18:16:50.234Z,,0,,,NaN,,,,,,false,,,,313412.3000000119,313412.2000000179,,313412.09999999404,,313424.958,8,400,,,
sequence,flow.Sequence,4_56,2023-09-11T18:16:50.234Z,,0,,,4704.514000017894,completion,,,,,false,,,,313412.40000000596,313412.2000000179,308691.02,308704,308707.686,313424.958,8,400,,,
trial,html.Screen,4_57_0,2023-09-11T18:16:53.598Z,,0,2,,3351.4420000059763,response,ISIC_9167290.JPG,6,ISIC_0485914.JPG,ISIC_0485914.JPG,false,0,keypress(z),500,316776.8000000119,316776.40000000596,313408.292,313412.59999999404,313424.958,316791.49,8,400,8,,ISIC_9167290.JPG
break,html.Screen,4_57_1,2023-09-11T18:16:53.599Z,,0,,,NaN,,,,,,false,,,,316777.8000000119,316777.59999999404,,316777.09999999404,,316791.49,8,400,,,
break_continue,html.Screen,4_57_2,2023-09-11T18:16:53.600Z,,0,,,NaN,,,,,,false,,,,316778.40000000596,316778.09999999404,,316777.90000000596,,316791.49,8,400,,,
sequence,flow.Sequence,4_57,2023-09-11T18:16:53.600Z,,0,,,3353.1419999940554,completion,,,,,false,,,,316778.59999999404,316778.09999999404,313408.292,313412.5,313424.958,316791.49,8,400,,,
trial,html.Screen,4_58_0,2023-09-11T18:16:56.614Z,,0,2,,3000.109999994049,response,ISIC_7499769.JPG,9,ISIC_0011128.JPG,ISIC_7499769.JPG,false,1,keypress(m),500,319792.09999999404,319791.59999999404,316774.824,316778.7000000179,316791.49,319808.036,8,400,9,,ISIC_0011128.JPG
break,html.Screen,4_58_1,2023-09-11T18:16:56.615Z,,0,,,NaN,,,,,,false,,,,319793,319792.90000000596,,319792.40000000596,,319808.036,8,400,,,
break_continue,html.Screen,4_58_2,2023-09-11T18:16:56.615Z,,0,,,NaN,,,,,,false,,,,319793.40000000596,319793.3000000119,,319793.2000000179,,319808.036,8,400,,,
sequence,flow.Sequence,4_58,2023-09-11T18:16:56.615Z,,0,,,3001.8100000119302,completion,,,,,false,,,,319793.59999999404,319793.3000000119,316774.824,316778.59999999404,316791.49,319808.036,8,400,,,
trial,html.Screen,4_59_0,2023-09-11T18:16:59.820Z,,0,2,,3190.3640000059386,response,ISIC_6758042.JPG,8,ISIC_5514594.JPG,ISIC_6758042.JPG,false,1,keypress(m),500,322998.8000000119,322998.40000000596,319791.37,319793.7000000179,319808.036,323008.802,8,400,10,,ISIC_5514594.JPG
break,html.Screen,4_59_1,2023-09-11T18:16:59.821Z,,0,,,NaN,,,,,,false,,,,322999.8000000119,322999.59999999404,,322999.2000000179,,323008.802,8,400,,,
break_continue,html.Screen,4_59_2,2023-09-11T18:16:59.822Z,,0,,,NaN,,,,,,false,,,,323000.2000000179,323000.09999999404,,323000,,323008.802,8,400,,,
sequence,flow.Sequence,4_59,2023-09-11T18:16:59.822Z,,0,,,3192.0639999940176,completion,,,,,false,,,,323000.5,323000.09999999404,319791.37,319793.7000000179,319808.036,323008.802,8,400,,,
trial,html.Screen,4_60_0,2023-09-11T18:17:03.940Z,,0,2,,4109.098000005935,response,ISIC_5055871.JPG,7,ISIC_2843983.JPG,ISIC_5055871.JPG,false,1,keypress(m),500,327118.40000000596,327117.90000000596,322992.136,323000.59999999404,323008.802,327125.304,8,400,11,,ISIC_2843983.JPG
break,html.Screen,4_60_1,2023-09-11T18:17:03.941Z,,0,,,NaN,,,,,,false,,,,327119.3000000119,327119.09999999404,,327118.7000000179,,327125.304,8,400,,,
break_continue,html.Screen,4_60_2,2023-09-11T18:17:03.941Z,,0,,,NaN,,,,,,false,,,,327119.59999999404,327119.59999999404,,327119.40000000596,,327125.304,8,400,,,
sequence,flow.Sequence,4_60,2023-09-11T18:17:03.941Z,,0,,,4110.797999994014,completion,,,,,false,,,,327119.8000000119,327119.59999999404,322992.136,323000.59999999404,323008.802,327125.304,8,400,,,
trial,html.Screen,4_61_0,2023-09-11T18:17:06.793Z,,0,2,,2845.6959999999963,response,ISIC_0025491.JPG,5,ISIC_0060716.JPG,ISIC_0060716.JPG,false,0,keypress(z),500,329971.5,329971,327108.638,327119.90000000596,327125.304,329975.19,8,400,12,,ISIC_0025491.JPG
break,html.Screen,4_61_1,2023-09-11T18:17:06.794Z,,0,,,NaN,,,,,,false,,,,329972.5,329972.2000000179,,329971.7000000179,,329975.19,8,400,,,
break_continue,html.Screen,4_61_2,2023-09-11T18:17:06.794Z,,0,,,NaN,,,,,,false,,,,329972.90000000596,329972.7000000179,,329972.7000000179,,329975.19,8,400,,,
sequence,flow.Sequence,4_61,2023-09-11T18:17:06.794Z,,0,,,2847.3960000178777,completion,,,,,false,,,,329973,329972.7000000179,327108.638,327119.90000000596,327125.304,329975.19,8,400,,,
trial,html.Screen,4_62_0,2023-09-11T18:17:10.493Z,,0,2,,3696.8099999999977,response,ISIC_7162711.JPG,8,ISIC_2380341.JPG,ISIC_2380341.JPG,false,0,keypress(z),500,333672.5,333672,329958.524,329973.2000000179,329975.19,333675.862,8,400,13,,ISIC_7162711.JPG
break,html.Screen,4_62_1,2023-09-11T18:17:10.494Z,,0,,,NaN,,,,,,false,,,,333673.5,333673.2000000179,,333672.7000000179,,333675.862,8,400,,,
break_continue,html.Screen,4_62_2,2023-09-11T18:17:10.495Z,,0,,,NaN,,,,,,false,,,,333673.90000000596,333673.7000000179,,333673.5,,333675.862,8,400,,,
sequence,flow.Sequence,4_62,2023-09-11T18:17:10.495Z,,0,,,3698.510000017879,completion,,,,,false,,,,333673.90000000596,333673.7000000179,329958.524,329973.09999999404,329975.19,333675.862,8,400,,,
trial,html.Screen,4_63_0,2023-09-11T18:17:13.641Z,,0,2,,3144.137999999977,response,ISIC_1632313.JPG,8,ISIC_0032783.JPG,ISIC_1632313.JPG,false,1,keypress(m),500,336820.5,336820,333659.196,333674,333675.862,336825.736,8,400,14,,ISIC_0032783.JPG
break,html.Screen,4_63_1,2023-09-11T18:17:13.642Z,,0,,,NaN,,,,,,false,,,,336821.40000000596,336821.2000000179,,336820.7000000179,,336825.736,8,400,,,
break_continue,html.Screen,4_63_2,2023-09-11T18:17:13.643Z,,0,,,NaN,,,,,,false,,,,336821.7000000179,336821.59999999404,,336821.5,,336825.736,8,400,,,
sequence,flow.Sequence,4_63,2023-09-11T18:17:13.643Z,,0,,,3145.7379999940167,completion,,,,,false,,,,336821.8000000119,336821.59999999404,333659.196,333674,333675.862,336825.736,8,400,,,
trial,html.Screen,4_64_0,2023-09-11T18:17:16.895Z,,0,2,,3247.964000017906,response,ISIC_0455743.JPG,8,ISIC_6785680.JPG,ISIC_0455743.JPG,false,1,keypress(m),500,340074.2000000179,340073.7000000179,336809.07,336821.90000000596,336825.736,340075.606,8,400,15,,ISIC_6785680.JPG
break,html.Screen,4_64_1,2023-09-11T18:17:16.896Z,,0,,,NaN,,,,,,false,,,,340075.09999999404,340074.90000000596,,340074.40000000596,,340075.606,8,400,,,
break_continue,html.Screen,4_64_2,2023-09-11T18:17:16.896Z,,0,,,NaN,,,,,,false,,,,340075.40000000596,340075.3000000119,,340075.2000000179,,340075.606,8,400,,,
sequence,flow.Sequence,4_64,2023-09-11T18:17:16.896Z,,0,,,3249.5640000119456,completion,,,,,false,,,,340075.59999999404,340075.3000000119,336809.07,336821.8000000119,336825.736,340075.606,8,400,,,
trial,html.Screen,4_65_0,2023-09-11T18:17:19.975Z,,0,2,,3077.7940000059316,response,ISIC_0032988.JPG,8,ISIC_3673517.JPG,ISIC_0032988.JPG,false,1,keypress(m),500,343153.90000000596,343153.40000000596,340058.94,340075.7000000179,340075.606,343158.816,8,400,16,,ISIC_3673517.JPG
break,html.Screen,4_65_1,2023-09-11T18:17:19.976Z,,0,,,NaN,,,,,,false,,,,343154.90000000596,343154.7000000179,,343154.2000000179,,343158.816,8,400,,,
break_continue,html.Screen,4_65_2,2023-09-11T18:17:19.976Z,,0,,,NaN,,,,,,false,,,,343155.3000000119,343155.09999999404,,343155,,343158.816,8,400,,,
sequence,flow.Sequence,4_65,2023-09-11T18:17:19.976Z,,0,,,3079.4939999940107,completion,,,,,false,,,,343155.40000000596,343155.09999999404,340058.94,340075.7000000179,340075.606,343158.816,8,400,,,
trial,html.Screen,4_66_0,2023-09-11T18:17:23.217Z,,0,2,,3237.1840000000084,response,ISIC_1140410.JPG,8,ISIC_5218530.JPG,ISIC_5218530.JPG,false,0,keypress(z),500,346396.5,346396,343142.15,343155.59999999404,343158.816,346409.585,8,400,17,,ISIC_1140410.JPG
break,html.Screen,4_66_1,2023-09-11T18:17:23.218Z,,0,,,NaN,,,,,,false,,,,346397.5,346397.3000000119,,346396.90000000596,,346409.585,8,400,,,
break_continue,html.Screen,4_66_2,2023-09-11T18:17:23.218Z,,0,,,NaN,,,,,,false,,,,346397.90000000596,346397.8000000119,,346397.7000000179,,346409.585,8,400,,,
sequence,flow.Sequence,4_66,2023-09-11T18:17:23.219Z,,0,,,3238.9840000119293,completion,,,,,false,,,,346398.09999999404,346397.8000000119,343142.15,343155.59999999404,343158.816,346409.585,8,400,,,
trial,html.Screen,4_67_0,2023-09-11T18:17:25.586Z,,0,2,,2356.0149999940186,response,ISIC_1838888.JPG,7,ISIC_7814144.JPG,ISIC_1838888.JPG,false,1,keypress(m),500,348766,348765.59999999404,346392.919,346398.3000000119,346409.585,348776.157,8,400,18,,ISIC_7814144.JPG
break,html.Screen,4_67_1,2023-09-11T18:17:25.587Z,,0,,,NaN,,,,,,false,,,,348767,348766.8000000119,,348766.3000000119,,348776.157,8,400,,,
break_continue,html.Screen,4_67_2,2023-09-11T18:17:25.588Z,,0,,,NaN,,,,,,false,,,,348767.40000000596,348767.3000000119,,348767.09999999404,,348776.157,8,400,,,
sequence,flow.Sequence,4_67,2023-09-11T18:17:25.588Z,,0,,,2357.7150000119,completion,,,,,false,,,,348767.59999999404,348767.3000000119,346392.919,346398.3000000119,346409.585,348776.157,8,400,,,
trial,html.Screen,4_68_0,2023-09-11T18:17:29.110Z,,0,2,,3513.442999994033,response,ISIC_3123711.JPG,8,ISIC_0001149.JPG,ISIC_3123711.JPG,false,1,keypress(m),500,352290.09999999404,352289.59999999404,348759.491,348767.7000000179,348776.157,352292.683,8,400,19,,ISIC_0001149.JPG
break,html.Screen,4_68_1,2023-09-11T18:17:29.111Z,,0,,,NaN,,,,,,false,,,,352291.09999999404,352290.90000000596,,352290.40000000596,,352292.683,8,400,,,
break_continue,html.Screen,4_68_2,2023-09-11T18:17:29.112Z,,0,,,NaN,,,,,,false,,,,352291.40000000596,352291.3000000119,,352291.09999999404,,352292.683,8,400,,,
sequence,flow.Sequence,4_68,2023-09-11T18:17:29.112Z,,0,,,3515.1430000119144,completion,,,,,false,,,,352291.59999999404,352291.3000000119,348759.491,348767.59999999404,348776.157,352292.683,8,400,,,
trial,html.Screen,4_69_0,2023-09-11T18:17:32.173Z,,0,2,,3059.316999999981,response,ISIC_0060390.JPG,6,ISIC_4718313.JPG,ISIC_4718313.JPG,false,0,keypress(z),500,355352.5,355352,352276.017,352291.8000000119,352292.683,355360.005,8,400,20,,ISIC_0060390.JPG
break,html.Screen,4_69_1,2023-09-11T18:17:32.174Z,,0,,,NaN,,,,,,false,,,,355353.5,355353.2000000179,,355352.8000000119,,355360.005,8,400,,,
break_continue,html.Screen,4_69_2,2023-09-11T18:17:32.174Z,,0,,,NaN,,,,,,false,,,,355353.8000000119,355353.8000000119,,355353.59999999404,,355360.005,8,400,,,
sequence,flow.Sequence,4_69,2023-09-11T18:17:32.174Z,,0,,,3061.117000011902,completion,,,,,false,,,,355354,355353.8000000119,352276.017,352291.7000000179,352292.683,355360.005,8,400,,,
trial,html.Screen,4_70_0,2023-09-11T18:17:35.764Z,,0,2,,3583.395000005956,response,ISIC_9767255.JPG,9,ISIC_6536232.JPG,ISIC_9767255.JPG,false,1,keypress(m),500,358943.90000000596,358943.40000000596,355343.339,355354.3000000119,355360.005,358959.861,8,400,21,,ISIC_6536232.JPG
break,html.Screen,4_70_1,2023-09-11T18:17:35.765Z,,0,,,NaN,,,,,,false,,,,358944.90000000596,358944.7000000179,,358944.2000000179,,358959.861,8,400,,,
break_continue,html.Screen,4_70_2,2023-09-11T18:17:35.765Z,,0,,,NaN,,,,,,false,,,,358945.2000000179,358945.09999999404,,358945,,358959.861,8,400,,,
sequence,flow.Sequence,4_70,2023-09-11T18:17:35.765Z,,0,,,3585.094999994035,completion,,,,,false,,,,358945.40000000596,358945.09999999404,355343.339,355354.09999999404,355360.005,358959.861,8,400,,,
trial,html.Screen,4_71_0,2023-09-11T18:17:38.795Z,,0,2,,3014.839000017906,response,ISIC_0024865.JPG,5,ISIC_0033878.JPG,ISIC_0024865.JPG,false,1,keypress(m),500,361975.2000000179,361974.7000000179,358943.195,358945.59999999404,358959.861,361976.407,8,400,22,,ISIC_0033878.JPG
break,html.Screen,4_71_1,2023-09-11T18:17:38.796Z,,0,,,NaN,,,,,,false,,,,361976.3000000119,361976,,361975.5,,361976.407,8,400,,,
break_continue,html.Screen,4_71_2,2023-09-11T18:17:38.797Z,,0,,,NaN,,,,,,false,,,,361976.59999999404,361976.40000000596,,361976.40000000596,,361976.407,8,400,,,
sequence,flow.Sequence,4_71,2023-09-11T18:17:38.797Z,,0,,,3016.539000005985,completion,,,,,false,,,,361976.7000000179,361976.40000000596,358943.195,358945.5,358959.861,361976.407,8,400,,,
trial,html.Screen,4_72_0,2023-09-11T18:17:41.896Z,,0,2,,3099.493000005954,response,ISIC_0073043.JPG,8,ISIC_7826557.JPG,ISIC_7826557.JPG,false,0,keypress(z),500,365076.3000000119,365075.90000000596,361959.741,361976.8000000119,361976.407,365093.811,8,400,23,,ISIC_0073043.JPG
break,html.Screen,4_72_1,2023-09-11T18:17:41.897Z,,0,,,NaN,,,,,,false,,,,365077.3000000119,365077,,365076.59999999404,,365093.811,8,400,,,
break_continue,html.Screen,4_72_2,2023-09-11T18:17:41.897Z,,0,,,NaN,,,,,,false,,,,365077.59999999404,365077.5,,365077.3000000119,,365093.811,8,400,,,
sequence,flow.Sequence,4_72,2023-09-11T18:17:41.898Z,,0,,,3101.0929999999935,completion,,,,,false,,,,365077.8000000119,365077.5,361959.741,361976.8000000119,361976.407,365093.811,8,400,,,
trial,html.Screen,4_73_0,2023-09-11T18:17:45.020Z,,0,2,,3105.8890000178944,response,ISIC_0644590.JPG,8,ISIC_9779803.JPG,ISIC_9779803.JPG,false,0,keypress(z),500,368200.2000000179,368199.7000000179,365077.145,365077.90000000596,365093.811,368210.353,8,400,24,,ISIC_0644590.JPG
break,html.Screen,4_73_1,2023-09-11T18:17:45.021Z,,0,,,NaN,,,,,,false,,,,368201,368200.8000000119,,368200.40000000596,,368210.353,8,400,,,
break_continue,html.Screen,4_73_2,2023-09-11T18:17:45.021Z,,0,,,NaN,,,,,,false,,,,368201.3000000119,368201.3000000119,,368201.09999999404,,368210.353,8,400,,,
sequence,flow.Sequence,4_73,2023-09-11T18:17:45.021Z,,0,,,3107.489000011934,completion,,,,,false,,,,368201.5,368201.3000000119,365077.145,365077.8000000119,365093.811,368210.353,8,400,,,
trial,html.Screen,4_74_0,2023-09-11T18:17:49.801Z,,0,2,,4770.646999999997,response,ISIC_0010382.JPG,6,ISIC_0032858.JPG,ISIC_0032858.JPG,false,0,keypress(z),500,372981.5,372981,368193.687,368201.59999999404,368210.353,372993.495,8,400,25,,ISIC_0010382.JPG
break,html.Screen,4_74_1,2023-09-11T18:17:49.802Z,,0,,,NaN,,,,,,false,,,,372982.40000000596,372982.3000000119,,372981.8000000119,,372993.495,8,400,,,
break_continue,html.Screen,4_74_2,2023-09-11T18:17:49.802Z,,0,,,NaN,,,,,,false,,,,372982.8000000119,372982.7000000179,,372982.5,,372993.495,8,400,,,
sequence,flow.Sequence,4_74,2023-09-11T18:17:49.803Z,,0,,,4772.347000017879,completion,,,,,false,,,,372982.90000000596,372982.7000000179,368193.687,368201.5,368210.353,372993.495,8,400,,,
trial,html.Screen,4_75_0,2023-09-11T18:17:53.150Z,,0,2,,3336.5050000000047,response,ISIC_0027663.JPG,8,ISIC_2226940.JPG,ISIC_2226940.JPG,false,0,keypress(z),500,376330.5,376330,372976.829,372983.09999999404,372993.495,376344.165,8,400,26,,ISIC_0027663.JPG
break,html.Screen,4_75_1,2023-09-11T18:17:53.151Z,,0,,,NaN,,,,,,false,,,,376331.5,376331.3000000119,,376330.8000000119,,376344.165,8,400,,,
break_continue,html.Screen,4_75_2,2023-09-11T18:17:53.151Z,,0,,,NaN,,,,,,false,,,,376331.90000000596,376331.7000000179,,376331.59999999404,,376344.165,8,400,,,
sequence,flow.Sequence,4_75,2023-09-11T18:17:53.151Z,,0,,,3338.205000017886,completion,,,,,false,,,,376332,376331.7000000179,372976.829,372983.09999999404,372993.495,376344.165,8,400,,,
trial,html.Screen,4_76_0,2023-09-11T18:17:56.086Z,,0,2,,2921.5350000179023,response,ISIC_9395707.JPG,8,ISIC_4463086.JPG,ISIC_9395707.JPG,false,1,keypress(m),500,379266.2000000179,379265.7000000179,376327.499,376332.2000000179,376344.165,379277.381,8,400,27,,ISIC_4463086.JPG
break,html.Screen,4_76_1,2023-09-11T18:17:56.087Z,,0,,,NaN,,,,,,false,,,,379267.2000000179,379267,,379266.5,,379277.381,8,400,,,
break_continue,html.Screen,4_76_2,2023-09-11T18:17:56.087Z,,0,,,NaN,,,,,,false,,,,379267.59999999404,379267.5,,379267.3000000119,,379277.381,8,400,,,
sequence,flow.Sequence,4_76,2023-09-11T18:17:56.087Z,,0,,,2923.335000000021,completion,,,,,false,,,,379267.7000000179,379267.5,376327.499,376332.09999999404,376344.165,379277.381,8,400,,,
trial,html.Screen,4_77_0,2023-09-11T18:17:58.986Z,,0,2,,2888.7189999940456,response,ISIC_8159718.JPG,8,ISIC_0011481.JPG,ISIC_8159718.JPG,false,1,keypress(m),500,382166.5,382166.09999999404,379260.715,379267.8000000119,379277.381,382177.265,8,400,28,,ISIC_0011481.JPG
break,html.Screen,4_77_1,2023-09-11T18:17:58.987Z,,0,,,NaN,,,,,,false,,,,382167.3000000119,382167.2000000179,,382166.7000000179,,382177.265,8,400,,,
break_continue,html.Screen,4_77_2,2023-09-11T18:17:58.987Z,,0,,,NaN,,,,,,false,,,,382167.7000000179,382167.59999999404,,382167.40000000596,,382177.265,8,400,,,
sequence,flow.Sequence,4_77,2023-09-11T18:17:58.987Z,,0,,,2890.2189999940456,completion,,,,,false,,,,382167.90000000596,382167.59999999404,379260.715,379267.8000000119,379277.381,382177.265,8,400,,,
trial,html.Screen,4_78_0,2023-09-11T18:18:02.432Z,,0,2,,3435.035000011907,response,ISIC_9895436.JPG,8,ISIC_2535382.JPG,ISIC_2535382.JPG,false,0,keypress(z),500,385612.8000000119,385612.3000000119,382160.599,382168,382177.265,385628.105,8,400,29,,ISIC_9895436.JPG
break,html.Screen,4_78_1,2023-09-11T18:18:02.433Z,,0,,,NaN,,,,,,false,,,,385613.90000000596,385613.59999999404,,385613,,385628.105,8,400,,,
break_continue,html.Screen,4_78_2,2023-09-11T18:18:02.433Z,,0,,,NaN,,,,,,false,,,,385614.3000000119,385614.09999999404,,385614.09999999404,,385628.105,8,400,,,
sequence,flow.Sequence,4_78,2023-09-11T18:18:02.434Z,,0,,,3436.8349999940256,completion,,,,,false,,,,385614.5,385614.09999999404,382160.599,382168,382177.265,385628.105,8,400,,,
trial,html.Screen,4_79_0,2023-09-11T18:18:06.277Z,,0,2,,3829.0950000179,response,ISIC_0071169.JPG,8,ISIC_0032447.JPG,ISIC_0032447.JPG,false,0,keypress(z),500,389457.7000000179,389457.2000000179,385611.439,385614.59999999404,385628.105,389461.285,8,400,30,,ISIC_0071169.JPG
break,html.Screen,4_79_1,2023-09-11T18:18:06.278Z,,0,,,NaN,,,,,,false,,,,389458.59999999404,389458.5,,389458,,389461.285,8,400,,,
break_continue,html.Screen,4_79_2,2023-09-11T18:18:06.278Z,,0,,,NaN,,,,,,false,,,,389458.90000000596,389458.8000000119,,389458.8000000119,,389461.285,8,400,,,
sequence,flow.Sequence,4_79,2023-09-11T18:18:06.278Z,,0,,,3830.6950000119396,completion,,,,,false,,,,389459.09999999404,389458.8000000119,385611.439,385614.59999999404,385628.105,389461.285,8,400,,,
trial,html.Screen,4_80_0,2023-09-11T18:18:09.435Z,,0,2,,3154.615000005986,response,ISIC_0024652.JPG,8,ISIC_3666094.JPG,ISIC_3666094.JPG,false,0,keypress(z),500,392616.40000000596,392615.90000000596,389444.619,389459.3000000119,389461.285,392627.825,8,400,31,,ISIC_0024652.JPG
break,html.Screen,4_80_1,2023-09-11T18:18:09.436Z,,0,,,NaN,,,,,,false,,,,392617.40000000596,392617.2000000179,,392616.7000000179,,392627.825,8,400,,,
break_continue,html.Screen,4_80_2,2023-09-11T18:18:09.436Z,,0,,,NaN,,,,,,false,,,,392617.7000000179,392617.59999999404,,392617.40000000596,,392627.825,8,400,,,
sequence,flow.Sequence,4_80,2023-09-11T18:18:09.436Z,,0,,,3156.314999994065,completion,,,,,false,,,,392617.90000000596,392617.59999999404,389444.619,389459.3000000119,389461.285,392627.825,8,400,,,
trial,html.Screen,4_81_0,2023-09-11T18:18:12.751Z,,0,2,,3306.4750000119093,response,ISIC_0024459.JPG,8,ISIC_0072157.JPG,ISIC_0024459.JPG,false,1,keypress(m),500,395934.8000000119,395934.3000000119,392611.159,392618,392627.825,395945.19,8,400,32,,ISIC_0072157.JPG
break,html.Screen,4_81_1,2023-09-11T18:18:12.752Z,,0,,,NaN,,,,,,false,,,,395935.8000000119,395935.59999999404,,395935.09999999404,,395945.19,8,400,,,
break_continue,html.Screen,4_81_2,2023-09-11T18:18:12.752Z,,0,,,NaN,,,,,,false,,,,395936.09999999404,395936,,395935.90000000596,,395945.19,8,400,,,
sequence,flow.Sequence,4_81,2023-09-11T18:18:12.753Z,,0,,,3308.1749999999884,completion,,,,,false,,,,395936.3000000119,395936,392611.159,392618,392627.825,395945.19,8,400,,,
trial,html.Screen,4_82_0,2023-09-11T18:18:15.762Z,,0,2,,3001.909999994037,response,ISIC_0066740.JPG,5,ISIC_3609379.JPG,ISIC_3609379.JPG,false,0,keypress(z),500,398947.5,398947.09999999404,395928.524,395936.40000000596,395945.19,398961.736,8,400,33,,ISIC_0066740.JPG
break,html.Screen,4_82_1,2023-09-11T18:18:15.763Z,,0,,,NaN,,,,,,false,,,,398948.59999999404,398948.3000000119,,398947.8000000119,,398961.736,8,400,,,
break_continue,html.Screen,4_82_2,2023-09-11T18:18:15.764Z,,0,,,NaN,,,,,,false,,,,398948.90000000596,398948.90000000596,,398948.7000000179,,398961.736,8,400,,,
sequence,flow.Sequence,4_82,2023-09-11T18:18:15.764Z,,0,,,3003.710000005958,completion,,,,,false,,,,398949.09999999404,398948.90000000596,395928.524,395936.40000000596,395945.19,398961.736,8,400,,,
trial,html.Screen,4_83_0,2023-09-11T18:18:18.787Z,,0,2,,3011.5640000119456,response,ISIC_0098784.JPG,5,ISIC_0059884.JPG,ISIC_0098784.JPG,false,1,keypress(m),500,401973.8000000119,401973.3000000119,398945.07,398949.3000000119,398961.736,401978.282,8,400,34,,ISIC_0059884.JPG
break,html.Screen,4_83_1,2023-09-11T18:18:18.788Z,,0,,,NaN,,,,,,false,,,,401974.7000000179,401974.59999999404,,401974,,401978.282,8,400,,,
break_continue,html.Screen,4_83_2,2023-09-11T18:18:18.788Z,,0,,,NaN,,,,,,false,,,,401975.09999999404,401974.90000000596,,401974.90000000596,,401978.282,8,400,,,
sequence,flow.Sequence,4_83,2023-09-11T18:18:18.788Z,,0,,,3013.164000005985,completion,,,,,false,,,,401975.3000000119,401974.90000000596,398945.07,398949.3000000119,398961.736,401978.282,8,400,,,
trial,html.Screen,4_84_0,2023-09-11T18:18:21.670Z,,0,2,,2879.418000017875,response,ISIC_0005261.JPG,7,ISIC_2758999.JPG,ISIC_0005261.JPG,false,1,keypress(m),500,404858.3000000119,404857.7000000179,401961.616,401975.40000000596,401978.282,404861.5,8,400,35,,ISIC_2758999.JPG
break,html.Screen,4_84_1,2023-09-11T18:18:21.671Z,,0,,,NaN,,,,,,false,,,,404859.3000000119,404859,,404858.59999999404,,404861.5,8,400,,,
break_continue,html.Screen,4_84_2,2023-09-11T18:18:21.672Z,,0,,,NaN,,,,,,false,,,,404859.59999999404,404859.5,,404859.40000000596,,404861.5,8,400,,,
sequence,flow.Sequence,4_84,2023-09-11T18:18:21.672Z,,0,,,2881.2179999999935,completion,,,,,false,,,,404859.8000000119,404859.5,401961.616,401975.40000000596,401978.282,404861.5,8,400,,,
trial,html.Screen,4_85_0,2023-09-11T18:18:24.331Z,,0,2,,2657.9000000059605,response,ISIC_9694020.JPG,6,ISIC_1758558.JPG,ISIC_9694020.JPG,false,1,keypress(m),500,407519.90000000596,407519.40000000596,404844.834,404860,404861.5,407528.82,8,400,36,,ISIC_1758558.JPG
break,html.Screen,4_85_1,2023-09-11T18:18:24.332Z,,0,,,NaN,,,,,,false,,,,407520.90000000596,407520.7000000179,,407520.2000000179,,407528.82,8,400,,,
break_continue,html.Screen,4_85_2,2023-09-11T18:18:24.332Z,,0,,,NaN,,,,,,false,,,,407521.2000000179,407521.09999999404,,407520.90000000596,,407528.82,8,400,,,
sequence,flow.Sequence,4_85,2023-09-11T18:18:24.333Z,,0,,,2659.5999999940395,completion,,,,,false,,,,407521.40000000596,407521.09999999404,404844.834,404859.90000000596,404861.5,407528.82,8,400,,,
trial,html.Screen,4_86_0,2023-09-11T18:18:27.376Z,,0,2,,3036.3800000178744,response,ISIC_0031795.JPG,8,ISIC_0066854.JPG,ISIC_0066854.JPG,false,0,keypress(z),500,410565.59999999404,410565.2000000179,407512.154,407521.5,407528.82,410578.698,8,400,37,,ISIC_0031795.JPG
break,html.Screen,4_86_1,2023-09-11T18:18:27.377Z,,0,,,NaN,,,,,,false,,,,410566.59999999404,410566.40000000596,,410565.90000000596,,410578.698,8,400,,,
break_continue,html.Screen,4_86_2,2023-09-11T18:18:27.377Z,,0,,,NaN,,,,,,false,,,,410567,410566.8000000119,,410566.8000000119,,410578.698,8,400,,,
sequence,flow.Sequence,4_86,2023-09-11T18:18:27.377Z,,0,,,3037.980000011914,completion,,,,,false,,,,410567.2000000179,410566.8000000119,407512.154,407521.5,407528.82,410578.698,8,400,,,
trial,html.Screen,4_87_0,2023-09-11T18:18:30.598Z,,0,2,,3209.7020000059856,response,ISIC_0065378.JPG,8,ISIC_7394897.JPG,ISIC_7394897.JPG,false,0,keypress(z),500,413788.7000000179,413788.40000000596,410562.032,410567.3000000119,410578.698,413795.236,8,400,38,,ISIC_0065378.JPG
break,html.Screen,4_87_1,2023-09-11T18:18:30.599Z,,0,,,NaN,,,,,,false,,,,413789.7000000179,413789.5,,413789,,413795.236,8,400,,,
break_continue,html.Screen,4_87_2,2023-09-11T18:18:30.600Z,,0,,,NaN,,,,,,false,,,,413790.09999999404,413790,,413789.8000000119,,413795.236,8,400,,,
sequence,flow.Sequence,4_87,2023-09-11T18:18:30.600Z,,0,,,3211.302000000025,completion,,,,,false,,,,413790.3000000119,413790,410562.032,410567.3000000119,410578.698,413795.236,8,400,,,
trial,html.Screen,4_88_0,2023-09-11T18:18:33.495Z,,0,2,,2889.863999994064,response,ISIC_0025603.JPG,8,ISIC_8207974.JPG,ISIC_8207974.JPG,false,0,keypress(z),500,416685.59999999404,416685.09999999404,413778.57,413790.40000000596,413795.236,416695.961,8,400,39,,ISIC_0025603.JPG
break,html.Screen,4_88_1,2023-09-11T18:18:33.496Z,,0,,,NaN,,,,,,false,,,,416686.7000000179,416686.40000000596,,416685.90000000596,,416695.961,8,400,,,
break_continue,html.Screen,4_88_2,2023-09-11T18:18:33.496Z,,0,,,NaN,,,,,,false,,,,416686.90000000596,416686.8000000119,,416686.7000000179,,416695.961,8,400,,,
sequence,flow.Sequence,4_88,2023-09-11T18:18:33.496Z,,0,,,2891.5640000119456,completion,,,,,false,,,,416687.09999999404,416686.8000000119,413778.57,413790.40000000596,413795.236,416695.961,8,400,,,
trial,html.Screen,4_89_0,2023-09-11T18:18:36.637Z,,0,2,,3131.739000017871,response,ISIC_9611100.JPG,7,ISIC_0030981.JPG,ISIC_9611100.JPG,false,1,keypress(m),500,419828.09999999404,419827.7000000179,416679.295,416687.2000000179,416695.961,419829.169,8,400,40,,ISIC_0030981.JPG
break,html.Screen,4_89_1,2023-09-11T18:18:36.638Z,,0,,,NaN,,,,,,false,,,,419829.2000000179,419828.90000000596,,419828.5,,419829.169,8,400,,,
break_continue,html.Screen,4_89_2,2023-09-11T18:18:36.638Z,,0,,,NaN,,,,,,false,,,,419829.5,419829.40000000596,,419829.3000000119,,419829.169,8,400,,,
sequence,flow.Sequence,4_89,2023-09-11T18:18:36.638Z,,0,,,3133.43900000595,completion,,,,,false,,,,419829.59999999404,419829.40000000596,416679.295,416687.2000000179,416695.961,419829.169,8,400,,,
trial,html.Screen,4_90_0,2023-09-11T18:18:39.427Z,,0,2,,2789.1310000119265,response,ISIC_0065066.JPG,7,ISIC_0034074.JPG,ISIC_0065066.JPG,false,1,keypress(m),500,422618.7000000179,422618.3000000119,419812.503,419829.8000000119,419829.169,422629.057,8,400,41,,ISIC_0034074.JPG
break,html.Screen,4_90_1,2023-09-11T18:18:39.428Z,,0,,,NaN,,,,,,false,,,,422619.7000000179,422619.5,,422619,,422629.057,8,400,,,
break_continue,html.Screen,4_90_2,2023-09-11T18:18:39.428Z,,0,,,NaN,,,,,,false,,,,422620.09999999404,422620,,422619.8000000119,,422629.057,8,400,,,
sequence,flow.Sequence,4_90,2023-09-11T18:18:39.428Z,,0,,,2790.8310000000056,completion,,,,,false,,,,422620.2000000179,422620,419812.503,419829.8000000119,419829.169,422629.057,8,400,,,
trial,html.Screen,4_91_0,2023-09-11T18:18:42.838Z,,0,2,,3401.14300001791,response,ISIC_2272218.JPG,7,ISIC_0399220.JPG,ISIC_0399220.JPG,false,0,keypress(z),500,426030.7000000179,426030.2000000179,422612.391,422620.40000000596,422629.057,426045.587,8,400,42,,ISIC_2272218.JPG
break,html.Screen,4_91_1,2023-09-11T18:18:42.839Z,,0,,,NaN,,,,,,false,,,,426031.7000000179,426031.5,,426031,,426045.587,8,400,,,
break_continue,html.Screen,4_91_2,2023-09-11T18:18:42.840Z,,0,,,NaN,,,,,,false,,,,426032.09999999404,426031.90000000596,,426031.90000000596,,426045.587,8,400,,,
sequence,flow.Sequence,4_91,2023-09-11T18:18:42.840Z,,0,,,3402.843000005989,completion,,,,,false,,,,426032.3000000119,426031.90000000596,422612.391,422620.3000000119,422629.057,426045.587,8,400,,,
trial,html.Screen,4_92_0,2023-09-11T18:18:46.619Z,,0,2,,3766.2130000119214,response,ISIC_5795486.JPG,8,ISIC_2440407.JPG,ISIC_2440407.JPG,false,0,keypress(z),500,429812.2000000179,429811.8000000119,426028.921,426032.40000000596,426045.587,429829.633,8,400,43,,ISIC_5795486.JPG
break,html.Screen,4_92_1,2023-09-11T18:18:46.620Z,,0,,,NaN,,,,,,false,,,,429813.2000000179,429813.09999999404,,429812.59999999404,,429829.633,8,400,,,
break_continue,html.Screen,4_92_2,2023-09-11T18:18:46.621Z,,0,,,NaN,,,,,,false,,,,429813.59999999404,429813.5,,429813.40000000596,,429829.633,8,400,,,
sequence,flow.Sequence,4_92,2023-09-11T18:18:46.621Z,,0,,,3767.9130000000005,completion,,,,,false,,,,429813.8000000119,429813.5,426028.921,426032.40000000596,426045.587,429829.633,8,400,,,
trial,html.Screen,4_93_0,2023-09-11T18:18:50.499Z,,0,2,,3862.567000017909,response,ISIC_0027132.JPG,7,ISIC_0147869.JPG,ISIC_0147869.JPG,false,0,keypress(z),500,433692.7000000179,433692.2000000179,429812.967,429813.90000000596,429829.633,433696.145,8,400,44,,ISIC_0027132.JPG
break,html.Screen,4_93_1,2023-09-11T18:18:50.500Z,,0,,,NaN,,,,,,false,,,,433693.7000000179,433693.5,,433693,,433696.145,8,400,,,
break_continue,html.Screen,4_93_2,2023-09-11T18:18:50.501Z,,0,,,NaN,,,,,,false,,,,433694.09999999404,433693.90000000596,,433693.8000000119,,433696.145,8,400,,,
sequence,flow.Sequence,4_93,2023-09-11T18:18:50.501Z,,0,,,3864.267000005988,completion,,,,,false,,,,433694.3000000119,433693.90000000596,429812.967,429813.90000000596,429829.633,433696.145,8,400,,,
trial,html.Screen,4_94_0,2023-09-11T18:18:53.785Z,,0,2,,3282.255000005942,response,ISIC_9545819.JPG,8,ISIC_0058432.JPG,ISIC_9545819.JPG,false,1,keypress(m),500,436978.8000000119,436978.40000000596,433679.479,433694.40000000596,433696.145,436996.013,8,400,45,,ISIC_0058432.JPG
break,html.Screen,4_94_1,2023-09-11T18:18:53.786Z,,0,,,NaN,,,,,,false,,,,436979.8000000119,436979.59999999404,,436979.09999999404,,436996.013,8,400,,,
break_continue,html.Screen,4_94_2,2023-09-11T18:18:53.787Z,,0,,,NaN,,,,,,false,,,,436980.2000000179,436980,,436979.8000000119,,436996.013,8,400,,,
sequence,flow.Sequence,4_94,2023-09-11T18:18:53.787Z,,0,,,3283.8549999999814,completion,,,,,false,,,,436980.3000000119,436980,433679.479,433694.40000000596,433696.145,436996.013,8,400,,,
trial,html.Screen,4_95_0,2023-09-11T18:18:57.181Z,,0,2,,3377.987000000023,response,ISIC_6192289.JPG,7,ISIC_0055393.JPG,ISIC_6192289.JPG,false,1,keypress(m),500,440374.5,440374,436979.347,436980.5,436996.013,440380.094,8,400,46,,ISIC_0055393.JPG
break,html.Screen,4_95_1,2023-09-11T18:18:57.182Z,,0,,,NaN,,,,,,false,,,,440375.59999999404,440375.40000000596,,440374.90000000596,,440380.094,8,400,,,
break_continue,html.Screen,4_95_2,2023-09-11T18:18:57.182Z,,0,,,NaN,,,,,,false,,,,440376,440375.90000000596,,440375.7000000179,,440380.094,8,400,,,
sequence,flow.Sequence,4_95,2023-09-11T18:18:57.182Z,,0,,,3379.8870000059833,completion,,,,,false,,,,440376.09999999404,440375.90000000596,436979.347,436980.40000000596,436996.013,440380.094,8,400,,,
trial,html.Screen,4_96_0,2023-09-11T18:19:00.160Z,,0,2,,2973.5059999940568,response,ISIC_0024529.JPG,8,ISIC_6441128.JPG,ISIC_6441128.JPG,false,0,keypress(z),500,443354,443353.59999999404,440363.428,440376.3000000119,440380.094,443363.308,8,400,47,,ISIC_0024529.JPG
break,html.Screen,4_96_1,2023-09-11T18:19:00.161Z,,0,,,NaN,,,,,,false,,,,443355,443354.8000000119,,443354.3000000119,,443363.308,8,400,,,
break_continue,html.Screen,4_96_2,2023-09-11T18:19:00.161Z,,0,,,NaN,,,,,,false,,,,443355.40000000596,443355.3000000119,,443355.09999999404,,443363.308,8,400,,,
sequence,flow.Sequence,4_96,2023-09-11T18:19:00.162Z,,0,,,2975.206000011938,completion,,,,,false,,,,443355.5,443355.3000000119,440363.428,440376.3000000119,440380.094,443363.308,8,400,,,
trial,html.Screen,4_97_0,2023-09-11T18:19:03.268Z,,0,2,,3098.2919999940204,response,ISIC_9927486.JPG,8,ISIC_0056156.JPG,ISIC_9927486.JPG,false,1,keypress(m),500,446462,446461.59999999404,443346.642,443355.7000000179,443363.308,446463.184,8,400,48,,ISIC_0056156.JPG
break,html.Screen,4_97_1,2023-09-11T18:19:03.269Z,,0,,,NaN,,,,,,false,,,,446462.90000000596,446462.8000000119,,446462.3000000119,,446463.184,8,400,,,
break_continue,html.Screen,4_97_2,2023-09-11T18:19:03.269Z,,0,,,NaN,,,,,,false,,,,446463.3000000119,446463.2000000179,,446463,,446463.184,8,400,,,
sequence,flow.Sequence,4_97,2023-09-11T18:19:03.269Z,,0,,,3099.8920000178623,completion,,,,,false,,,,446463.5,446463.2000000179,443346.642,443355.7000000179,443363.308,446463.184,8,400,,,
trial,html.Screen,4_98_0,2023-09-11T18:19:09.387Z,,0,2,,6117.415999994031,response,ISIC_8348712.JPG,7,ISIC_0228772.JPG,ISIC_0228772.JPG,false,0,keypress(z),500,452581.09999999404,452580.59999999404,446446.518,446463.5,446463.184,452597.036,8,400,49,,ISIC_8348712.JPG
break,html.Screen,4_98_1,2023-09-11T18:19:09.388Z,,0,,,NaN,,,,,,false,,,,452582.09999999404,452581.90000000596,,452581.40000000596,,452597.036,8,400,,,
break_continue,html.Screen,4_98_2,2023-09-11T18:19:09.388Z,,0,,,NaN,,,,,,false,,,,452582.5,452582.40000000596,,452582.2000000179,,452597.036,8,400,,,
sequence,flow.Sequence,4_98,2023-09-11T18:19:09.388Z,,0,,,6119.216000005952,completion,,,,,false,,,,452582.59999999404,452582.40000000596,446446.518,446463.5,446463.184,452597.036,8,400,,,
trial,html.Screen,4_99_0,2023-09-11T18:19:12.762Z,,0,2,,3359.5639999940176,response,ISIC_0010034.JPG,8,ISIC_6443700.JPG,ISIC_6443700.JPG,false,0,keypress(z),500,455957,455956.59999999404,452580.37,452582.8000000119,452597.036,455963.568,8,400,50,,ISIC_0010034.JPG
break,html.Screen,4_99_1,2023-09-11T18:19:22.767Z,,0,,,2371252.866,timeout,,,,,false,,,,465960.2000000179,465959.8000000119,455946.902,455957.3000000119,455963.568,2827216.434,8,400,,,
break_continue,html.Screen,4_99_2,2023-09-11T19:23:41.039Z,,0,,,434046.366000012,response,,,,,false,continue,keypress(Space),,3261270.300000012,3261262.800000012,465959.8000000119,465960.3000000119,2827216.434,3261284.095,8,400,,,
sequence,flow.Sequence,4_99,2023-09-11T19:23:41.039Z,,0,,,2808665.764000012,completion,,,,,false,,,,3261270.5,3261262.800000012,452580.37,452582.7000000179,452597.036,3261284.095,8,400,,,
trial,html.Screen,4_100_0,2023-09-11T19:23:44.323Z,,0,3,,3269.8050000057556,response,ISIC_0010967.JPG,8,ISIC_8711854.JPG,ISIC_8711854.JPG,false,0,keypress(z),500,3264554.400000006,3264553.900000006,3261267.429,3261270.5,3261284.095,3264567.297,8,400,1,,ISIC_0010967.JPG
break,html.Screen,4_100_1,2023-09-11T19:23:44.324Z,,0,,,NaN,,,,,,false,,,,3264555.5,3264555.300000012,,3264554.700000018,,3264567.297,8,400,,,
break_continue,html.Screen,4_100_2,2023-09-11T19:23:44.324Z,,0,,,NaN,,,,,,false,,,,3264555.800000012,3264555.800000012,,3264555.700000018,,3264567.297,8,400,,,
sequence,flow.Sequence,4_100,2023-09-11T19:23:44.324Z,,0,,,3271.705000011716,completion,,,,,false,,,,3264556.099999994,3264555.800000012,3261267.429,3261270.5,3261284.095,3264567.297,8,400,,,
trial,html.Screen,4_101_0,2023-09-11T19:23:55.823Z,,0,3,,11517.003000000026,timeout,ISIC_4721599.JPG,8,ISIC_5127759.JPG,,false,,,500,3276055.099999994,3276054.700000018,3264550.631,3264556.300000012,3264567.297,3276084.3,8,400,2,,
break,html.Screen,4_101_1,2023-09-11T19:23:55.824Z,,0,,,NaN,,,,,,false,,,,3276056.200000018,3276055.900000006,,3276055.400000006,,3276084.3,8,400,,,
break_continue,html.Screen,4_101_2,2023-09-11T19:23:55.824Z,,0,,,NaN,,,,,,false,,,,3276056.5,3276056.400000006,,3276056.300000012,,3276084.3,8,400,,,
sequence,flow.Sequence,4_101,2023-09-11T19:23:55.824Z,,0,,,11489.103000006173,completion,,,,,false,,,,3276056.800000012,3276056.400000006,3264550.631,3264556.200000018,3264567.297,3276084.3,8,400,,,
trial,html.Screen,4_102_0,2023-09-11T19:24:07.340Z,,0,3,,11516.992000000086,timeout,ISIC_4707475.JPG,5,ISIC_4777536.JPG,,false,,,500,3287573.200000018,3287572.700000018,3276067.634,3276056.900000006,3276084.3,3287601.292,8,400,3,,
break,html.Screen,4_102_1,2023-09-11T19:24:07.341Z,,0,,,NaN,,,,,,false,,,,3287574.300000012,3287574.099999994,,3287573.5,,3287601.292,8,400,,,
break_continue,html.Screen,4_102_2,2023-09-11T19:24:07.343Z,,0,,,NaN,,,,,,false,,,,3287576.200000018,3287574.5,,3287574.5,,3287601.292,8,400,,,
sequence,flow.Sequence,4_102,2023-09-11T19:24:07.343Z,,0,,,11490.200000000186,completion,,,,,false,,,,3287576.400000006,3287574.5,3276067.634,3276056.800000012,3276084.3,3287601.292,8,400,,,
trial,html.Screen,4_103_0,2023-09-11T19:24:18.857Z,,0,3,,11506.074000017717,timeout,ISIC_6384927.JPG,5,ISIC_0009939.JPG,ISIC_6384927.JPG,false,,,500,3299091.099999994,3299090.700000018,3287584.626,3287576.400000006,3287601.292,,8,400,4,,ISIC_0009939.JPG
break,html.Screen,4_103_1,2023-09-11T19:24:18.859Z,,0,,,NaN,,,,,,false,,,,3299092.200000018,3299091.900000006,,3299091.400000006,,3299118.764,8,400,,,
break_continue,html.Screen,4_103_2,2023-09-11T19:24:18.859Z,,0,,,NaN,,,,,,false,,,,3299092.5,3299092.400000006,,3299092.300000012,,3299118.764,8,400,,,
sequence,flow.Sequence,4_103,2023-09-11T19:24:18.859Z,,0,,,11491.108000006061,completion,,,,,false,,,,3299092.700000018,3299092.400000006,3287584.626,3287576.400000006,3287601.292,3299118.764,8,400,,,
trial,html.Screen,4_103_0,2023-09-11T19:24:18.879Z,,0,3,,11511.108000006061,response,ISIC_6384927.JPG,5,ISIC_0009939.JPG,ISIC_6384927.JPG,false,1,keypress(m),500,3299112.599999994,3299112.400000006,3287584.626,3287576.400000006,3287601.292,3299118.764,8,400,4,,ISIC_0009939.JPG
trial,html.Screen,4_104_0,2023-09-11T19:24:21.679Z,,0,3,,2793.636000005994,response,ISIC_3877643.JPG,7,ISIC_0066012.JPG,ISIC_3877643.JPG,false,1,keypress(m),500,3301913,3301912.400000006,3299102.098,3299092.800000012,3299118.764,3301918.652,8,400,5,,ISIC_0066012.JPG
break,html.Screen,4_104_1,2023-09-11T19:24:21.680Z,,0,,,NaN,,,,,,false,,,,3301914,3301913.800000012,,3301913.300000012,,3301918.652,8,400,,,
break_continue,html.Screen,4_104_2,2023-09-11T19:24:21.681Z,,0,,,NaN,,,,,,false,,,,3301914.400000006,3301914.300000012,,3301914.200000018,,3301918.652,8,400,,,
sequence,flow.Sequence,4_104,2023-09-11T19:24:21.681Z,,0,,,2795.5360000119545,completion,,,,,false,,,,3301914.599999994,3301914.300000012,3299102.098,3299092.800000012,3299118.764,3301918.652,8,400,,,
trial,html.Screen,4_105_0,2023-09-11T19:24:24.502Z,,0,3,,2816.2480000061914,response,ISIC_6523645.JPG,7,ISIC_0001102.JPG,ISIC_6523645.JPG,false,1,keypress(m),500,3304735.5,3304734.900000006,3301901.986,3301914.800000012,3301918.652,3304751.872,8,400,6,,ISIC_0001102.JPG
break,html.Screen,4_105_1,2023-09-11T19:24:24.503Z,,0,,,NaN,,,,,,false,,,,3304736.700000018,3304736.400000006,,3304735.800000012,,3304751.872,8,400,,,
break_continue,html.Screen,4_105_2,2023-09-11T19:24:24.503Z,,0,,,NaN,,,,,,false,,,,3304737.099999994,3304737,,3304736.800000012,,3304751.872,8,400,,,
sequence,flow.Sequence,4_105,2023-09-11T19:24:24.503Z,,0,,,2818.348000000231,completion,,,,,false,,,,3304737.300000012,3304737,3301901.986,3301914.800000012,3301918.652,3304751.872,8,400,,,
trial,html.Screen,4_106_0,2023-09-11T19:24:27.139Z,,0,3,,2620.2279999940656,response,ISIC_2924968.JPG,6,ISIC_4272317.JPG,ISIC_4272317.JPG,false,0,keypress(z),500,3307372.599999994,3307372.099999994,3304735.206,3304737.5,3304751.872,3307385.1,8,400,7,,ISIC_2924968.JPG
break,html.Screen,4_106_1,2023-09-11T19:24:27.140Z,,0,,,NaN,,,,,,false,,,,3307373.599999994,3307373.400000006,,3307372.900000006,,3307385.1,8,400,,,
break_continue,html.Screen,4_106_2,2023-09-11T19:24:27.140Z,,0,,,NaN,,,,,,false,,,,3307374,3307373.800000012,,3307373.800000012,,3307385.1,8,400,,,
sequence,flow.Sequence,4_106,2023-09-11T19:24:27.140Z,,0,,,2621.928000011947,completion,,,,,false,,,,3307374.200000018,3307373.800000012,3304735.206,3304737.400000006,3304751.872,3307385.1,8,400,,,
trial,html.Screen,4_107_0,2023-09-11T19:24:29.785Z,,0,3,,2633.200000011828,response,ISIC_0026371.JPG,6,ISIC_0101540.JPG,ISIC_0026371.JPG,false,1,keypress(m),500,3310018.800000012,3310018.300000012,3307368.434,3307374.300000012,3307385.1,3310035.994,8,400,8,,ISIC_0101540.JPG
break,html.Screen,4_107_1,2023-09-11T19:24:29.786Z,,0,,,NaN,,,,,,false,,,,3310019.800000012,3310019.599999994,,3310019.099999994,,3310035.994,8,400,,,
break_continue,html.Screen,4_107_2,2023-09-11T19:24:29.786Z,,0,,,NaN,,,,,,false,,,,3310020.200000018,3310020.099999994,,3310020,,3310035.994,8,400,,,
sequence,flow.Sequence,4_107,2023-09-11T19:24:29.786Z,,0,,,2634.9999999939464,completion,,,,,false,,,,3310020.400000006,3310020.099999994,3307368.434,3307374.200000018,3307385.1,3310035.994,8,400,,,
trial,html.Screen,4_108_0,2023-09-11T19:24:32.335Z,,0,3,,2532.7060000179335,response,ISIC_0011077.JPG,7,ISIC_0485417.JPG,ISIC_0485417.JPG,false,0,keypress(z),500,3312569.200000018,3312568.700000018,3310019.328,3310020.599999994,3310035.994,3312585.892,8,400,9,,ISIC_0011077.JPG
break,html.Screen,4_108_1,2023-09-11T19:24:32.336Z,,0,,,NaN,,,,,,false,,,,3312570.200000018,3312570.099999994,,3312569.599999994,,3312585.892,8,400,,,
break_continue,html.Screen,4_108_2,2023-09-11T19:24:32.336Z,,0,,,NaN,,,,,,false,,,,3312570.700000018,3312570.5,,3312570.400000006,,3312585.892,8,400,,,
sequence,flow.Sequence,4_108,2023-09-11T19:24:32.336Z,,0,,,2534.506000000052,completion,,,,,false,,,,3312570.900000006,3312570.5,3310019.328,3310020.5,3310035.994,3312585.892,8,400,,,
trial,html.Screen,4_109_0,2023-09-11T19:24:35.012Z,,0,3,,2660.4080000119284,response,ISIC_1550721.JPG,6,ISIC_2279679.JPG,ISIC_2279679.JPG,false,0,keypress(z),500,3315246.700000018,3315246.300000012,3312569.226,3312571,3312585.892,3315252.452,8,400,10,,ISIC_1550721.JPG
break,html.Screen,4_109_1,2023-09-11T19:24:35.013Z,,0,,,NaN,,,,,,false,,,,3315247.5,3315247.300000012,,3315246.900000006,,3315252.452,8,400,,,
break_continue,html.Screen,4_109_2,2023-09-11T19:24:35.013Z,,0,,,NaN,,,,,,false,,,,3315247.700000018,3315247.599999994,,3315247.5,,3315252.452,8,400,,,
sequence,flow.Sequence,4_109,2023-09-11T19:24:35.013Z,,0,,,2661.707999994047,completion,,,,,false,,,,3315247.800000012,3315247.599999994,3312569.226,3312571,3312585.892,3315252.452,8,400,,,
trial,html.Screen,4_110_0,2023-09-11T19:24:37.954Z,,0,3,,2935.647999993991,response,ISIC_0057026.JPG,8,ISIC_0001103.JPG,ISIC_0057026.JPG,false,1,keypress(m),500,3318188.5,3318188.099999994,3315235.786,3315247.900000006,3315252.452,3318202.334,8,400,11,,ISIC_0001103.JPG
break,html.Screen,4_110_1,2023-09-11T19:24:37.955Z,,0,,,NaN,,,,,,false,,,,3318189.599999994,3318189.400000006,,3318188.900000006,,3318202.334,8,400,,,
break_continue,html.Screen,4_110_2,2023-09-11T19:24:37.955Z,,0,,,NaN,,,,,,false,,,,3318190,3318189.900000006,,3318189.800000012,,3318202.334,8,400,,,
sequence,flow.Sequence,4_110,2023-09-11T19:24:37.956Z,,0,,,2937.448000005912,completion,,,,,false,,,,3318190.200000018,3318189.900000006,3315235.786,3315247.800000012,3315252.452,3318202.334,8,400,,,
trial,html.Screen,4_111_0,2023-09-11T19:24:41.030Z,,0,3,,3062.466000012122,response,ISIC_1947833.JPG,9,ISIC_9232615.JPG,ISIC_9232615.JPG,false,0,keypress(z),500,3321265.300000012,3321264.800000012,3318185.668,3318190.300000012,3318202.334,3321269.748,8,400,12,,ISIC_1947833.JPG
break,html.Screen,4_111_1,2023-09-11T19:24:41.031Z,,0,,,NaN,,,,,,false,,,,3321266.300000012,3321266,,3321265.599999994,,3321269.748,8,400,,,
break_continue,html.Screen,4_111_2,2023-09-11T19:24:41.032Z,,0,,,NaN,,,,,,false,,,,3321266.5,3321266.400000006,,3321266.300000012,,3321269.748,8,400,,,
sequence,flow.Sequence,4_111,2023-09-11T19:24:41.032Z,,0,,,3064.0660000061616,completion,,,,,false,,,,3321266.700000018,3321266.400000006,3318185.668,3318190.300000012,3318202.334,3321269.748,8,400,,,
trial,html.Screen,4_112_0,2023-09-11T19:24:44.715Z,,0,3,,3679.751999999862,response,ISIC_0028878.JPG,8,ISIC_0031324.JPG,ISIC_0031324.JPG,false,0,keypress(z),500,3324950.099999994,3324949.5,3321253.082,3321266.800000012,3321269.748,3324952.934,8,400,13,,ISIC_0028878.JPG
break,html.Screen,4_112_1,2023-09-11T19:24:44.716Z,,0,,,NaN,,,,,,false,,,,3324951,3324950.800000012,,3324950.300000012,,3324952.934,8,400,,,
break_continue,html.Screen,4_112_2,2023-09-11T19:24:44.716Z,,0,,,NaN,,,,,,false,,,,3324951.400000006,3324951.200000018,,3324951.200000018,,3324952.934,8,400,,,
sequence,flow.Sequence,4_112,2023-09-11T19:24:44.717Z,,0,,,3681.4520000177436,completion,,,,,false,,,,3324951.599999994,3324951.200000018,3321253.082,3321266.800000012,3321269.748,3324952.934,8,400,,,
trial,html.Screen,4_113_0,2023-09-11T19:24:48.946Z,,0,3,,4228.066000000108,response,ISIC_0651114.JPG,8,ISIC_8429798.JPG,ISIC_0651114.JPG,false,1,keypress(m),500,3329181.5,3329181,3324936.268,3324951.800000012,3324952.934,3329186.098,8,400,14,,ISIC_8429798.JPG
break,html.Screen,4_113_1,2023-09-11T19:24:48.947Z,,0,,,NaN,,,,,,false,,,,3329182.400000006,3329182.099999994,,3329181.700000018,,3329186.098,8,400,,,
break_continue,html.Screen,4_113_2,2023-09-11T19:24:48.947Z,,0,,,NaN,,,,,,false,,,,3329182.700000018,3329182.599999994,,3329182.599999994,,3329186.098,8,400,,,
sequence,flow.Sequence,4_113,2023-09-11T19:24:48.948Z,,0,,,4229.665999994148,completion,,,,,false,,,,3329183,3329182.599999994,3324936.268,3324951.700000018,3324952.934,3329186.098,8,400,,,
trial,html.Screen,4_114_0,2023-09-11T19:24:51.521Z,,0,3,,2570.3020000057295,response,ISIC_0033485.JPG,8,ISIC_0011126.JPG,ISIC_0033485.JPG,false,1,keypress(m),500,3331756.900000006,3331756.400000006,3329169.432,3329183.099999994,3329186.098,3331770.132,8,400,15,,ISIC_0011126.JPG
break,html.Screen,4_114_1,2023-09-11T19:24:51.523Z,,0,,,NaN,,,,,,false,,,,3331758,3331757.700000018,,3331757.200000018,,3331770.132,8,400,,,
break_continue,html.Screen,4_114_2,2023-09-11T19:24:51.523Z,,0,,,NaN,,,,,,false,,,,3331758.300000012,3331758.200000018,,3331758.099999994,,3331770.132,8,400,,,
sequence,flow.Sequence,4_114,2023-09-11T19:24:51.523Z,,0,,,2572.1020000176504,completion,,,,,false,,,,3331758.5,3331758.200000018,3329169.432,3329183,3329186.098,3331770.132,8,400,,,
trial,html.Screen,4_115_0,2023-09-11T19:24:54.546Z,,0,3,,3011.2680000057444,response,ISIC_1394786.JPG,9,ISIC_9929097.JPG,ISIC_1394786.JPG,false,1,keypress(m),500,3334781.900000006,3334781.400000006,3331753.466,3331758.700000018,3331770.132,3334786.678,8,400,16,,ISIC_9929097.JPG
break,html.Screen,4_115_1,2023-09-11T19:24:54.547Z,,0,,,NaN,,,,,,false,,,,3334782.900000006,3334782.700000018,,3334782.300000012,,3334786.678,8,400,,,
break_continue,html.Screen,4_115_2,2023-09-11T19:24:54.548Z,,0,,,NaN,,,,,,false,,,,3334783.300000012,3334783.200000018,,3334783,,3334786.678,8,400,,,
sequence,flow.Sequence,4_115,2023-09-11T19:24:54.548Z,,0,,,3013.0680000176653,completion,,,,,false,,,,3334783.5,3334783.200000018,3331753.466,3331758.599999994,3331770.132,3334786.678,8,400,,,
trial,html.Screen,4_116_0,2023-09-11T19:24:57.770Z,,0,3,,3218.2220000061207,response,ISIC_3084322.JPG,7,ISIC_3617159.JPG,ISIC_3617159.JPG,false,0,keypress(z),500,3338005.300000012,3338004.900000006,3334770.012,3334783.599999994,3334786.678,3338019.882,8,400,17,,ISIC_3084322.JPG
break,html.Screen,4_116_1,2023-09-11T19:24:57.771Z,,0,,,NaN,,,,,,false,,,,3338006.400000006,3338006.099999994,,3338005.599999994,,3338019.882,8,400,,,
break_continue,html.Screen,4_116_2,2023-09-11T19:24:57.771Z,,0,,,NaN,,,,,,false,,,,3338006.700000018,3338006.599999994,,3338006.5,,3338019.882,8,400,,,
sequence,flow.Sequence,4_116,2023-09-11T19:24:57.771Z,,0,,,3219.9219999941997,completion,,,,,false,,,,3338006.900000006,3338006.599999994,3334770.012,3334783.599999994,3334786.678,3338019.882,8,400,,,
trial,html.Screen,4_117_0,2023-09-11T19:25:00.304Z,,0,3,,2520.0180000057444,response,ISIC_2122488.JPG,8,ISIC_4517738.JPG,ISIC_2122488.JPG,false,1,keypress(m),500,3340540.300000012,3340539.900000006,3338003.216,3338007.099999994,3338019.882,3340553.114,8,400,18,,ISIC_4517738.JPG
break,html.Screen,4_117_1,2023-09-11T19:25:00.305Z,,0,,,NaN,,,,,,false,,,,3340541.400000006,3340541.200000018,,3340540.599999994,,3340553.114,8,400,,,
break_continue,html.Screen,4_117_2,2023-09-11T19:25:00.306Z,,0,,,NaN,,,,,,false,,,,3340541.700000018,3340541.700000018,,3340541.5,,3340553.114,8,400,,,
sequence,flow.Sequence,4_117,2023-09-11T19:25:00.306Z,,0,,,2521.8180000176653,completion,,,,,false,,,,3340541.900000006,3340541.700000018,3338003.216,3338007,3338019.882,3340553.114,8,400,,,
trial,html.Screen,4_118_0,2023-09-11T19:25:02.967Z,,0,3,,2649.1860000118613,response,ISIC_0728350.JPG,8,ISIC_0034222.JPG,ISIC_0728350.JPG,false,1,keypress(m),500,3343202.800000012,3343202.300000012,3340536.448,3340542.099999994,3340553.114,3343203.923,8,400,19,,ISIC_0034222.JPG
break,html.Screen,4_118_1,2023-09-11T19:25:02.968Z,,0,,,NaN,,,,,,false,,,,3343203.900000006,3343203.599999994,,3343203.099999994,,3343203.923,8,400,,,
break_continue,html.Screen,4_118_2,2023-09-11T19:25:02.968Z,,0,,,NaN,,,,,,false,,,,3343204.200000018,3343204.099999994,,3343204,,3343203.923,8,400,,,
sequence,flow.Sequence,4_118,2023-09-11T19:25:02.968Z,,0,,,2650.98599999398,completion,,,,,false,,,,3343204.400000006,3343204.099999994,3340536.448,3340542.099999994,3340553.114,3343203.923,8,400,,,
trial,html.Screen,4_119_0,2023-09-11T19:25:05.869Z,,0,3,,2900.477000006009,response,ISIC_0626501.JPG,6,ISIC_3459981.JPG,ISIC_3459981.JPG,false,0,keypress(z),500,3346104.900000006,3346104.400000006,3343187.257,3343204.599999994,3343203.923,3346120.473,8,400,20,,ISIC_0626501.JPG
break,html.Screen,4_119_1,2023-09-11T19:25:05.870Z,,0,,,NaN,,,,,,false,,,,3346105.900000006,3346105.700000018,,3346105.200000018,,3346120.473,8,400,,,
break_continue,html.Screen,4_119_2,2023-09-11T19:25:05.870Z,,0,,,NaN,,,,,,false,,,,3346106.300000012,3346106.200000018,,3346106.099999994,,3346120.473,8,400,,,
sequence,flow.Sequence,4_119,2023-09-11T19:25:05.870Z,,0,,,2902.27700001793,completion,,,,,false,,,,3346106.5,3346106.200000018,3343187.257,3343204.5,3343203.923,3346120.473,8,400,,,
trial,html.Screen,4_120_0,2023-09-11T19:25:08.856Z,,0,3,,2971.9270000057295,response,ISIC_0974833.JPG,8,ISIC_0002613.JPG,ISIC_0002613.JPG,false,0,keypress(z),500,3349092.900000006,3349092.400000006,3346103.807,3346106.700000018,3346120.473,3349103.687,8,400,21,,ISIC_0974833.JPG
break,html.Screen,4_120_1,2023-09-11T19:25:08.858Z,,0,,,NaN,,,,,,false,,,,3349093.900000006,3349093.700000018,,3349093.099999994,,3349103.687,8,400,,,
break_continue,html.Screen,4_120_2,2023-09-11T19:25:08.858Z,,0,,,NaN,,,,,,false,,,,3349094.300000012,3349094.200000018,,3349094.099999994,,3349103.687,8,400,,,
sequence,flow.Sequence,4_120,2023-09-11T19:25:08.858Z,,0,,,2973.7270000176504,completion,,,,,false,,,,3349094.400000006,3349094.200000018,3346103.807,3346106.599999994,3346120.473,3349103.687,8,400,,,
trial,html.Screen,4_121_0,2023-09-11T19:25:11.821Z,,0,3,,2953.7130000060424,response,ISIC_0030470.JPG,8,ISIC_0054280.JPG,ISIC_0030470.JPG,false,1,keypress(m),500,3352057.900000006,3352057.400000006,3349087.021,3349094.599999994,3349103.687,3352071.005,8,400,22,,ISIC_0054280.JPG
break,html.Screen,4_121_1,2023-09-11T19:25:11.822Z,,0,,,NaN,,,,,,false,,,,3352058.800000012,3352058.599999994,,3352058.200000018,,3352071.005,8,400,,,
break_continue,html.Screen,4_121_2,2023-09-11T19:25:11.823Z,,0,,,NaN,,,,,,false,,,,3352059.200000018,3352059.099999994,,3352059,,3352071.005,8,400,,,
sequence,flow.Sequence,4_121,2023-09-11T19:25:11.823Z,,0,,,2955.4129999941215,completion,,,,,false,,,,3352059.400000006,3352059.099999994,3349087.021,3349094.599999994,3349103.687,3352071.005,8,400,,,
trial,html.Screen,4_122_0,2023-09-11T19:25:14.882Z,,0,3,,3046.695000017993,response,ISIC_0060832.JPG,7,ISIC_8492957.JPG,ISIC_8492957.JPG,false,0,keypress(z),500,3355118.300000012,3355117.700000018,3352054.339,3352059.5,3352071.005,3355120.883,8,400,23,,ISIC_0060832.JPG
break,html.Screen,4_122_1,2023-09-11T19:25:14.883Z,,0,,,NaN,,,,,,false,,,,3355119.300000012,3355119,,3355118.5,,3355120.883,8,400,,,
break_continue,html.Screen,4_122_2,2023-09-11T19:25:14.883Z,,0,,,NaN,,,,,,false,,,,3355119.599999994,3355119.5,,3355119.400000006,,3355120.883,8,400,,,
sequence,flow.Sequence,4_122,2023-09-11T19:25:14.883Z,,0,,,3048.4950000001118,completion,,,,,false,,,,3355119.800000012,3355119.5,3352054.339,3352059.5,3352071.005,3355120.883,8,400,,,
trial,html.Screen,4_123_0,2023-09-11T19:25:17.553Z,,0,3,,2668.317000017967,response,ISIC_0031501.JPG,7,ISIC_7532154.JPG,ISIC_0031501.JPG,false,1,keypress(m),500,3357789.700000018,3357789.200000018,3355104.217,3355120,3355120.883,3357804.109,8,400,24,,ISIC_7532154.JPG
break,html.Screen,4_123_1,2023-09-11T19:25:17.554Z,,0,,,NaN,,,,,,false,,,,3357790.700000018,3357790.599999994,,3357790.099999994,,3357804.109,8,400,,,
break_continue,html.Screen,4_123_2,2023-09-11T19:25:17.554Z,,0,,,NaN,,,,,,false,,,,3357791.099999994,3357791,,3357790.900000006,,3357804.109,8,400,,,
sequence,flow.Sequence,4_123,2023-09-11T19:25:17.554Z,,0,,,2670.1170000000857,completion,,,,,false,,,,3357791.300000012,3357791,3355104.217,3355119.900000006,3355120.883,3357804.109,8,400,,,
trial,html.Screen,4_124_0,2023-09-11T19:25:20.192Z,,0,3,,2624.291000005789,response,ISIC_4350093.JPG,8,ISIC_3942075.JPG,ISIC_4350093.JPG,false,1,keypress(m),500,3360428.900000006,3360428.400000006,3357787.443,3357791.700000018,3357804.109,3360437.337,8,400,25,,ISIC_3942075.JPG
break,html.Screen,4_124_1,2023-09-11T19:25:20.193Z,,0,,,NaN,,,,,,false,,,,3360430,3360429.800000012,,3360429.300000012,,3360437.337,8,400,,,
break_continue,html.Screen,4_124_2,2023-09-11T19:25:20.193Z,,0,,,NaN,,,,,,false,,,,3360430.400000006,3360430.300000012,,3360430.200000018,,3360437.337,8,400,,,
sequence,flow.Sequence,4_124,2023-09-11T19:25:20.194Z,,0,,,2626.1910000117496,completion,,,,,false,,,,3360430.599999994,3360430.300000012,3357787.443,3357791.599999994,3357804.109,3360437.337,8,400,,,
