sender,sender_type,sender_id,timestamp,meta,,blockNo,condition,duration,ended_on,img_left,img_reveal,img_right,loser,practice,response,response_action,selection_duration,time_commit,time_end,time_render,time_run,time_show,time_switch,total_blocks,total_trials,trialNo,url,winner
informed_consent,html.Screen,0,2023-10-31T00:31:02.699Z,"{""labjs_version"":""20.2.4"",""labjs_build"":{""flavor"":""production"",""commit"":""f5b4a49f956347addd546a832a3327688c2c0fef""},""location"":""https://run.pavlovia.org/MurrayBennett/melanoma-2afc/?participant=66483&platform=sona"",""userAgent"":""Mozilla/5.0 (Macintosh; Intel Mac OS X 10_15_7) AppleWebKit/537.36 (KHTML, like Gecko) Chrome/118.0.0.0 Safari/537.36"",""platform"":""MacIntel"",""language"":""en-US"",""locale"":""en-US"",""timeZone"":""America/Chicago"",""timezoneOffset"":300,""screen_width"":1440,""screen_height"":900,""scroll_width"":1440,""scroll_height"":767,""window_innerWidth"":1440,""window_innerHeight"":815,""devicePixelRatio"":2}",,,,230933.89500001192,response,,,,,,consent,click button,,233438.39999997616,233416.80000001192,2466.25,2458.800000011921,2482.905,233463.349,,,,"{""participant"":""66483"",""platform"":""sona""}",
Welcome,html.Screen,1,2023-11-01T20:00:54.108Z,,,,asymmetry,46436611.45100001,response,,,,,,continue,click button,,46670109.100000024,46670074.80000001,233430.039,233439.39999997616,233463.349,46670128.708,,,,,
trial,html.Screen,2_0_0,2023-11-01T20:01:02.876Z,,0,0,,8747.991999991238,response,ISIC_6997061.JPG,,ISIC_0069348.JPG,ISIC_6997061.JPG,true,1,keypress(m),500,46678877.30000001,46678876.69999999,46670095.398,46670110.600000024,46670128.708,46678889.238,1,6,1,,ISIC_0069348.JPG
sequence,flow.Sequence,2_0,2023-11-01T20:01:02.877Z,,0,,,8747.991999991238,completion,,,,,true,,,,46678878.30000001,46678876.69999999,46670095.398,46670110.399999976,46670128.708,46678889.238,1,6,,,
trial,html.Screen,2_1_0,2023-11-01T20:01:07.265Z,,0,0,,4376.661999978125,response,ISIC_0057368.JPG,,ISIC_0009529.JPG,ISIC_0009529.JPG,true,0,keypress(z),500,46683266.399999976,46683265.899999976,46678872.583,46678878.600000024,46678889.238,46683269.912,1,6,2,,ISIC_0057368.JPG
sequence,flow.Sequence,2_1,2023-11-01T20:01:07.266Z,,0,,,4376.661999978125,completion,,,,,true,,,,46683266.899999976,46683265.899999976,46678872.583,46678878.600000024,46678889.238,46683269.912,1,6,,,
trial,html.Screen,2_2_0,2023-11-01T20:01:11.782Z,,0,0,,4513.087999999523,response,ISIC_0064954.JPG,,ISIC_9758671.JPG,ISIC_0064954.JPG,true,1,keypress(m),500,46687783.69999999,46687783,46683253.257,46683267.30000001,46683269.912,46687800.072,1,6,3,,ISIC_9758671.JPG
sequence,flow.Sequence,2_2,2023-11-01T20:01:11.783Z,,0,,,4513.087999999523,completion,,,,,true,,,,46687784.100000024,46687783,46683253.257,46683267.100000024,46683269.912,46687800.072,1,6,,,
trial,html.Screen,2_3_0,2023-11-01T20:01:16.235Z,,0,0,,4435.928000003099,response,ISIC_0000080.JPG,,ISIC_0005785.JPG,ISIC_0000080.JPG,true,1,keypress(m),500,46692236.5,46692236,46687783.417,46687784.30000001,46687800.072,46692247.401,1,6,4,,ISIC_0005785.JPG
sequence,flow.Sequence,2_3,2023-11-01T20:01:16.236Z,,0,,,4435.928000003099,completion,,,,,true,,,,46692237.30000001,46692236,46687783.417,46687784.19999999,46687800.072,46692247.401,1,6,,,
trial,html.Screen,2_4_0,2023-11-01T20:01:19.618Z,,0,0,,3372.0989999994636,response,ISIC_5390060.JPG,,ISIC_7944028.JPG,ISIC_7944028.JPG,true,0,keypress(z),500,46695620,46695619.5,46692230.746,46692237.600000024,46692247.401,46695628.366,1,6,5,,ISIC_5390060.JPG
sequence,flow.Sequence,2_4,2023-11-01T20:01:19.619Z,,0,,,3372.0989999994636,completion,,,,,true,,,,46695620.5,46695619.5,46692230.746,46692237.600000024,46692247.401,46695628.366,1,6,,,
trial,html.Screen,2_5_0,2023-11-01T20:01:22.569Z,,0,0,,2942.033999979496,response,ISIC_0794216.JPG,,ISIC_0010188.JPG,ISIC_0794216.JPG,true,1,keypress(m),500,46698570.80000001,46698570.399999976,46695611.711,46695620.80000001,46695628.366,46698576.301,1,6,6,,ISIC_0010188.JPG
sequence,flow.Sequence,2_5,2023-11-01T20:01:22.570Z,,0,,,2942.033999979496,completion,,,,,true,,,,46698571.30000001,46698570.399999976,46695611.711,46695620.69999999,46695628.366,46698576.301,1,6,,,
loop,flow.Loop,2,2023-11-01T20:01:22.570Z,,,,,28441.691999979317,completion,,,,,true,,,,46698571.899999976,46698570.399999976,46670095.398,46670110.19999999,46670128.708,46698576.301,1,6,,,
exp_instructions,html.Screen,3,2023-11-01T20:01:40.993Z,,,,,18411.499000012875,response,,,,,,continue,keypress(Space),,46716994.899999976,46716987.80000001,46698559.646,46698572,46698576.301,46717013.386,,,,,
trial,html.Screen,4_0_0,2023-11-01T20:01:48.387Z,,0,1,,7374.9140000119805,response,ISIC_0027552.JPG,6,ISIC_0032680.JPG,ISIC_0032680.JPG,false,0,keypress(z),500,46724388.80000001,46724388.30000001,46716996.731,46716996.399999976,46717013.386,46724392.499,8,400,1,,ISIC_0027552.JPG
break,html.Screen,4_0_1,2023-11-01T20:01:48.388Z,,0,,,NaN,,,,,,false,,,,46724390.5,46724390.19999999,,46724389.100000024,,46724392.499,8,400,,,
break_continue,html.Screen,4_0_2,2023-11-01T20:01:48.389Z,,0,,,NaN,,,,,,false,,,,46724391.30000001,46724391.100000024,,46724390.899999976,,46724392.499,8,400,,,
sequence,flow.Sequence,4_0,2023-11-01T20:01:48.389Z,,0,,,7377.7140000239015,completion,,,,,false,,,,46724391.5,46724391.100000024,46716996.731,46716996.30000001,46717013.386,46724392.499,8,400,,,
trial,html.Screen,4_1_0,2023-11-01T20:01:52.377Z,,0,1,,3986.5010000020266,response,ISIC_0033905.JPG,7,ISIC_9525136.JPG,ISIC_9525136.JPG,false,0,keypress(z),500,46728379.5,46728379,46724375.844,46724391.69999999,46724392.499,46728390.108,8,400,2,,ISIC_0033905.JPG
break,html.Screen,4_1_1,2023-11-01T20:01:52.379Z,,0,,,NaN,,,,,,false,,,,46728380.80000001,46728380.399999976,,46728379.899999976,,46728390.108,8,400,,,
break_continue,html.Screen,4_1_2,2023-11-01T20:01:52.379Z,,0,,,NaN,,,,,,false,,,,46728381.399999976,46728381.19999999,,46728381,,46728390.108,8,400,,,
sequence,flow.Sequence,4_1,2023-11-01T20:01:52.380Z,,0,,,3988.7009999901056,completion,,,,,false,,,,46728381.80000001,46728381.19999999,46724375.844,46724391.600000024,46724392.499,46728390.108,8,400,,,
trial,html.Screen,4_2_0,2023-11-01T20:01:56.273Z,,0,1,,3884.9920000210404,response,ISIC_0063168.JPG,9,ISIC_2433965.JPG,ISIC_2433965.JPG,false,0,keypress(z),500,46732275.399999976,46732275.100000024,46728373.453,46728382.19999999,46728390.108,46732287.378,8,400,3,,ISIC_0063168.JPG
break,html.Screen,4_2_1,2023-11-01T20:01:56.274Z,,0,,,NaN,,,,,,false,,,,46732276.80000001,46732276.5,,46732275.899999976,,46732287.378,8,400,,,
break_continue,html.Screen,4_2_2,2023-11-01T20:01:56.275Z,,0,,,NaN,,,,,,false,,,,46732277.69999999,46732277.5,,46732276.899999976,,46732287.378,8,400,,,
sequence,flow.Sequence,4_2,2023-11-01T20:01:56.276Z,,0,,,3887.3919999971986,completion,,,,,false,,,,46732277.899999976,46732277.5,46728373.453,46728382.19999999,46728390.108,46732287.378,8,400,,,
trial,html.Screen,4_3_0,2023-11-01T20:01:59.672Z,,0,1,,3386.82199998945,response,ISIC_0030508.JPG,5,ISIC_0032569.JPG,ISIC_0030508.JPG,false,1,keypress(m),500,46735674.5,46735674.19999999,46732270.723,46732278.100000024,46732287.378,46735684.998,8,400,4,,ISIC_0032569.JPG
break,html.Screen,4_3_1,2023-11-01T20:01:59.673Z,,0,,,NaN,,,,,,false,,,,46735675.19999999,46735675,,46735674.600000024,,46735684.998,8,400,,,
break_continue,html.Screen,4_3_2,2023-11-01T20:01:59.673Z,,0,,,NaN,,,,,,false,,,,46735675.5,46735675.399999976,,46735675.30000001,,46735684.998,8,400,,,
sequence,flow.Sequence,4_3,2023-11-01T20:01:59.673Z,,0,,,3388.021999977529,completion,,,,,false,,,,46735675.69999999,46735675.399999976,46732270.723,46732278,46732287.378,46735684.998,8,400,,,
trial,html.Screen,4_4_0,2023-11-01T20:02:03.870Z,,0,1,,4186.0019999966025,response,ISIC_6458982.JPG,6,ISIC_0011509.JPG,ISIC_6458982.JPG,false,1,keypress(m),500,46739871.899999976,46739871,46735668.343,46735675.899999976,46735684.998,46739882.446,8,400,5,,ISIC_0011509.JPG
break,html.Screen,4_4_1,2023-11-01T20:02:03.871Z,,0,,,NaN,,,,,,false,,,,46739872.899999976,46739872.69999999,,46739872.19999999,,46739882.446,8,400,,,
break_continue,html.Screen,4_4_2,2023-11-01T20:02:03.873Z,,0,,,NaN,,,,,,false,,,,46739875.399999976,46739875.100000024,,46739874.69999999,,46739882.446,8,400,,,
sequence,flow.Sequence,4_4,2023-11-01T20:02:03.873Z,,0,,,4190.102000020444,completion,,,,,false,,,,46739875.69999999,46739875.100000024,46735668.343,46735675.899999976,46735684.998,46739882.446,8,400,,,
trial,html.Screen,4_5_0,2023-11-01T20:02:08.724Z,,0,1,,4843.2539999857545,response,ISIC_0030032.JPG,5,ISIC_0962121.JPG,ISIC_0962121.JPG,false,0,keypress(z),500,46744726.100000024,46744725.69999999,46739865.791,46739875.80000001,46739882.446,46744729.051,8,400,6,,ISIC_0030032.JPG
break,html.Screen,4_5_1,2023-11-01T20:02:08.725Z,,0,,,NaN,,,,,,false,,,,46744727.100000024,46744726.899999976,,46744726.399999976,,46744729.051,8,400,,,
break_continue,html.Screen,4_5_2,2023-11-01T20:02:08.725Z,,0,,,NaN,,,,,,false,,,,46744727.600000024,46744727.399999976,,46744727.30000001,,46744729.051,8,400,,,
sequence,flow.Sequence,4_5,2023-11-01T20:02:08.725Z,,0,,,4844.953999973834,completion,,,,,false,,,,46744727.80000001,46744727.399999976,46739865.791,46739875.80000001,46739882.446,46744729.051,8,400,,,
trial,html.Screen,4_6_0,2023-11-01T20:02:16.924Z,,0,1,,8197.348999977112,response,ISIC_0011789.JPG,7,ISIC_0031079.JPG,ISIC_0011789.JPG,false,1,keypress(m),500,46752926.69999999,46752926.399999976,46744712.396,46744728,46744729.051,46752940.397,8,400,7,,ISIC_0031079.JPG
break,html.Screen,4_6_1,2023-11-01T20:02:16.925Z,,0,,,NaN,,,,,,false,,,,46752927.80000001,46752927.600000024,,46752927,,46752940.397,8,400,,,
break_continue,html.Screen,4_6_2,2023-11-01T20:02:16.926Z,,0,,,NaN,,,,,,false,,,,46752928.19999999,46752928.100000024,,46752927.899999976,,46752940.397,8,400,,,
sequence,flow.Sequence,4_6,2023-11-01T20:02:16.926Z,,0,,,8199.049000024796,completion,,,,,false,,,,46752928.399999976,46752928.100000024,46744712.396,46744728,46744729.051,46752940.397,8,400,,,
trial,html.Screen,4_7_0,2023-11-01T20:02:19.987Z,,0,1,,3049.3029999881983,response,ISIC_9441572.JPG,6,ISIC_7775535.JPG,ISIC_9441572.JPG,false,1,keypress(m),500,46755990,46755989.69999999,46752923.742,46752928.69999999,46752940.397,46756004.917,8,400,8,,ISIC_7775535.JPG
break,html.Screen,4_7_1,2023-11-01T20:02:19.989Z,,0,,,NaN,,,,,,false,,,,46755991.80000001,46755990.899999976,,46755990.30000001,,46756004.917,8,400,,,
break_continue,html.Screen,4_7_2,2023-11-01T20:02:19.990Z,,0,,,NaN,,,,,,false,,,,46755992.69999999,46755992.399999976,,46755992.100000024,,46756004.917,8,400,,,
sequence,flow.Sequence,4_7,2023-11-01T20:02:19.990Z,,0,,,3052.0029999762774,completion,,,,,false,,,,46755992.899999976,46755992.399999976,46752923.742,46752928.5,46752940.397,46756004.917,8,400,,,
trial,html.Screen,4_8_0,2023-11-01T20:02:23.482Z,,0,1,,3478.982999972999,response,ISIC_2945324.JPG,8,ISIC_3298596.JPG,ISIC_3298596.JPG,false,0,keypress(z),500,46759484.30000001,46759483.899999976,46755988.262,46755993.100000024,46756004.917,46759485.812,8,400,9,,ISIC_2945324.JPG
break,html.Screen,4_8_1,2023-11-01T20:02:23.483Z,,0,,,NaN,,,,,,false,,,,46759485.30000001,46759485,,46759484.5,,46759485.812,8,400,,,
break_continue,html.Screen,4_8_2,2023-11-01T20:02:23.483Z,,0,,,NaN,,,,,,false,,,,46759485.69999999,46759485.600000024,,46759485.399999976,,46759485.812,8,400,,,
sequence,flow.Sequence,4_8,2023-11-01T20:02:23.483Z,,0,,,3480.683000020683,completion,,,,,false,,,,46759485.80000001,46759485.600000024,46755988.262,46755993,46756004.917,46759485.812,8,400,,,
trial,html.Screen,4_9_0,2023-11-01T20:02:26.741Z,,0,1,,3257.488000012934,response,ISIC_3238687.JPG,6,ISIC_0331389.JPG,ISIC_3238687.JPG,false,1,keypress(m),500,46762743.600000024,46762743.30000001,46759469.157,46759486,46759485.812,46762750.597,8,400,10,,ISIC_0331389.JPG
break,html.Screen,4_9_1,2023-11-01T20:02:26.742Z,,0,,,NaN,,,,,,false,,,,46762744.80000001,46762744.5,,46762743.80000001,,46762750.597,8,400,,,
break_continue,html.Screen,4_9_2,2023-11-01T20:02:26.743Z,,0,,,NaN,,,,,,false,,,,46762745.399999976,46762745.19999999,,46762745,,46762750.597,8,400,,,
sequence,flow.Sequence,4_9,2023-11-01T20:02:26.743Z,,0,,,3259.3879999890924,completion,,,,,false,,,,46762745.69999999,46762745.19999999,46759469.157,46759485.899999976,46759485.812,46762750.597,8,400,,,
trial,html.Screen,4_10_0,2023-11-01T20:02:31.681Z,,0,1,,4932.602999985218,response,ISIC_6705966.JPG,6,ISIC_0007257.JPG,ISIC_0007257.JPG,false,0,keypress(z),500,46767683.600000024,46767683.19999999,46762733.942,46762745.80000001,46762750.597,46767697.132,8,400,11,,ISIC_6705966.JPG
break,html.Screen,4_10_1,2023-11-01T20:02:31.682Z,,0,,,NaN,,,,,,false,,,,46767684.80000001,46767684.600000024,,46767684.100000024,,46767697.132,8,400,,,
break_continue,html.Screen,4_10_2,2023-11-01T20:02:31.685Z,,0,,,NaN,,,,,,false,,,,46767688.30000001,46767687.600000024,,46767687.100000024,,46767697.132,8,400,,,
sequence,flow.Sequence,4_10,2023-11-01T20:02:31.686Z,,0,,,4937.003000020981,completion,,,,,false,,,,46767688.5,46767687.600000024,46762733.942,46762745.69999999,46762750.597,46767697.132,8,400,,,
trial,html.Screen,4_11_0,2023-11-01T20:02:39.274Z,,0,1,,7579.267999976873,response,ISIC_6118204.JPG,8,ISIC_8356468.JPG,ISIC_6118204.JPG,false,1,keypress(m),500,46775276.80000001,46775276.399999976,46767680.477,46767688.69999999,46767697.132,46775292.266,8,400,12,,ISIC_8356468.JPG
break,html.Screen,4_11_1,2023-11-01T20:02:39.275Z,,0,,,NaN,,,,,,false,,,,46775277.80000001,46775277.5,,46775277,,46775292.266,8,400,,,
break_continue,html.Screen,4_11_2,2023-11-01T20:02:39.275Z,,0,,,NaN,,,,,,false,,,,46775278.30000001,46775278.19999999,,46775278,,46775292.266,8,400,,,
sequence,flow.Sequence,4_11,2023-11-01T20:02:39.276Z,,0,,,7581.067999988794,completion,,,,,false,,,,46775278.600000024,46775278.19999999,46767680.477,46767688.69999999,46767697.132,46775292.266,8,400,,,
trial,html.Screen,4_12_0,2023-11-01T20:02:42.434Z,,0,1,,3144.3340000212193,response,ISIC_3372750.JPG,6,ISIC_0029026.JPG,ISIC_3372750.JPG,false,1,keypress(m),500,46778437,46778436.600000024,46775275.611,46775278.80000001,46775292.266,46778440.061,8,400,13,,ISIC_0029026.JPG
break,html.Screen,4_12_1,2023-11-01T20:02:42.435Z,,0,,,NaN,,,,,,false,,,,46778438.19999999,46778437.80000001,,46778437.30000001,,46778440.061,8,400,,,
break_continue,html.Screen,4_12_2,2023-11-01T20:02:42.436Z,,0,,,NaN,,,,,,false,,,,46778438.600000024,46778438.5,,46778438.30000001,,46778440.061,8,400,,,
sequence,flow.Sequence,4_12,2023-11-01T20:02:42.436Z,,0,,,3146.2339999973774,completion,,,,,false,,,,46778438.899999976,46778438.5,46775275.611,46775278.69999999,46775292.266,46778440.061,8,400,,,
trial,html.Screen,4_13_0,2023-11-01T20:02:46.902Z,,0,1,,4464.338999979198,response,ISIC_0060741.JPG,4,ISIC_5777181.JPG,ISIC_0060741.JPG,false,1,keypress(m),500,46782904.80000001,46782904.399999976,46778423.406,46778439,46778440.061,46782920.256,8,400,14,,ISIC_5777181.JPG
break,html.Screen,4_13_1,2023-11-01T20:02:46.903Z,,0,,,NaN,,,,,,false,,,,46782905.80000001,46782905.600000024,,46782905,,46782920.256,8,400,,,
break_continue,html.Screen,4_13_2,2023-11-01T20:02:46.903Z,,0,,,NaN,,,,,,false,,,,46782906.30000001,46782906.100000024,,46782906,,46782920.256,8,400,,,
sequence,flow.Sequence,4_13,2023-11-01T20:02:46.903Z,,0,,,4466.039000026882,completion,,,,,false,,,,46782906.5,46782906.100000024,46778423.406,46778439,46778440.061,46782920.256,8,400,,,
trial,html.Screen,4_14_0,2023-11-01T20:02:51.562Z,,0,1,,4644.443999990821,response,ISIC_0061152.JPG,9,ISIC_0021901.JPG,ISIC_0021901.JPG,false,0,keypress(z),500,46787565.100000024,46787564.69999999,46782903.601,46782906.80000001,46782920.256,46787567.388,8,400,15,,ISIC_0061152.JPG
break,html.Screen,4_14_1,2023-11-01T20:02:51.563Z,,0,,,NaN,,,,,,false,,,,46787566.30000001,46787566,,46787565.399999976,,46787567.388,8,400,,,
break_continue,html.Screen,4_14_2,2023-11-01T20:02:51.564Z,,0,,,NaN,,,,,,false,,,,46787566.69999999,46787566.600000024,,46787566.5,,46787567.388,8,400,,,
sequence,flow.Sequence,4_14,2023-11-01T20:02:51.564Z,,0,,,4646.344000026584,completion,,,,,false,,,,46787567.100000024,46787566.600000024,46782903.601,46782906.69999999,46782920.256,46787567.388,8,400,,,
trial,html.Screen,4_15_0,2023-11-01T20:02:57.551Z,,0,1,,5986.511999979615,response,ISIC_0026506.JPG,8,ISIC_8796632.JPG,ISIC_0026506.JPG,false,1,keypress(m),500,46793554.30000001,46793553.899999976,46787550.733,46787567.19999999,46787567.388,46793563.569,8,400,16,,ISIC_8796632.JPG
break,html.Screen,4_15_1,2023-11-01T20:02:57.552Z,,0,,,NaN,,,,,,false,,,,46793555.399999976,46793555.19999999,,46793554.600000024,,46793563.569,8,400,,,
break_continue,html.Screen,4_15_2,2023-11-01T20:02:57.553Z,,0,,,NaN,,,,,,false,,,,46793556,46793555.80000001,,46793555.600000024,,46793563.569,8,400,,,
sequence,flow.Sequence,4_15,2023-11-01T20:02:57.553Z,,0,,,5988.412000015378,completion,,,,,false,,,,46793556.30000001,46793555.80000001,46787550.733,46787567.19999999,46787567.388,46793563.569,8,400,,,
trial,html.Screen,4_16_0,2023-11-01T20:03:04.983Z,,0,1,,7422.4310000017285,response,ISIC_0002184.JPG,7,ISIC_4166490.JPG,ISIC_0002184.JPG,false,1,keypress(m),500,46800986.5,46800986,46793546.914,46793556.399999976,46793563.569,46800991.699,8,400,17,,ISIC_4166490.JPG
break,html.Screen,4_16_1,2023-11-01T20:03:04.984Z,,0,,,NaN,,,,,,false,,,,46800987.899999976,46800987.69999999,,46800987.100000024,,46800991.699,8,400,,,
break_continue,html.Screen,4_16_2,2023-11-01T20:03:04.985Z,,0,,,NaN,,,,,,false,,,,46800988.399999976,46800988.30000001,,46800988,,46800991.699,8,400,,,
sequence,flow.Sequence,4_16,2023-11-01T20:03:04.985Z,,0,,,7424.7310000136495,completion,,,,,false,,,,46800988.600000024,46800988.30000001,46793546.914,46793556.30000001,46793563.569,46800991.699,8,400,,,
trial,html.Screen,4_17_0,2023-11-01T20:03:11.183Z,,0,1,,6194.300999999046,response,ISIC_0009622.JPG,6,ISIC_7535412.JPG,ISIC_7535412.JPG,false,0,keypress(z),500,46807186.30000001,46807186,46800975.044,46800988.899999976,46800991.699,46807187.747,8,400,18,,ISIC_0009622.JPG
break,html.Screen,4_17_1,2023-11-01T20:03:11.184Z,,0,,,NaN,,,,,,false,,,,46807187.5,46807187.30000001,,46807186.69999999,,46807187.747,8,400,,,
break_continue,html.Screen,4_17_2,2023-11-01T20:03:11.184Z,,0,,,NaN,,,,,,false,,,,46807188.100000024,46807187.80000001,,46807187.69999999,,46807187.747,8,400,,,
sequence,flow.Sequence,4_17,2023-11-01T20:03:11.185Z,,0,,,6196.101000010967,completion,,,,,false,,,,46807188.19999999,46807187.80000001,46800975.044,46800988.80000001,46800991.699,46807187.747,8,400,,,
trial,html.Screen,4_18_0,2023-11-01T20:03:14.709Z,,0,1,,3524.353000022471,response,ISIC_0046647.JPG,6,ISIC_6024335.JPG,ISIC_0046647.JPG,false,1,keypress(m),500,46810712.399999976,46810712.100000024,46807171.092,46807188.399999976,46807187.747,46810718.607,8,400,19,,ISIC_6024335.JPG
break,html.Screen,4_18_1,2023-11-01T20:03:14.710Z,,0,,,NaN,,,,,,false,,,,46810713.399999976,46810713.19999999,,46810712.69999999,,46810718.607,8,400,,,
break_continue,html.Screen,4_18_2,2023-11-01T20:03:14.710Z,,0,,,NaN,,,,,,false,,,,46810713.899999976,46810713.80000001,,46810713.5,,46810718.607,8,400,,,
sequence,flow.Sequence,4_18,2023-11-01T20:03:14.710Z,,0,,,3526.05300001055,completion,,,,,false,,,,46810714.100000024,46810713.80000001,46807171.092,46807188.30000001,46807187.747,46810718.607,8,400,,,
trial,html.Screen,4_19_0,2023-11-01T20:03:20.123Z,,0,1,,5407.592999987304,response,ISIC_0006750.JPG,6,ISIC_7755106.JPG,ISIC_0006750.JPG,false,1,keypress(m),500,46816126.600000024,46816126.19999999,46810701.952,46810714.30000001,46810718.607,46816131.941,8,400,20,,ISIC_7755106.JPG
break,html.Screen,4_19_1,2023-11-01T20:03:20.124Z,,0,,,NaN,,,,,,false,,,,46816127.80000001,46816127.5,,46816127,,46816131.941,8,400,,,
break_continue,html.Screen,4_19_2,2023-11-01T20:03:20.125Z,,0,,,NaN,,,,,,false,,,,46816128.30000001,46816128.100000024,,46816127.899999976,,46816131.941,8,400,,,
sequence,flow.Sequence,4_19,2023-11-01T20:03:20.125Z,,0,,,5409.493000023067,completion,,,,,false,,,,46816128.5,46816128.100000024,46810701.952,46810714.19999999,46810718.607,46816131.941,8,400,,,
trial,html.Screen,4_20_0,2023-11-01T20:03:23.599Z,,0,1,,3470.7589999884367,response,ISIC_2732573.JPG,5,ISIC_8292279.JPG,ISIC_8292279.JPG,false,0,keypress(z),500,46819603.19999999,46819602.69999999,46816115.286,46816128.80000001,46816131.941,46819612.836,8,400,21,,ISIC_2732573.JPG
break,html.Screen,4_20_1,2023-11-01T20:03:23.601Z,,0,,,NaN,,,,,,false,,,,46819604.5,46819604.19999999,,46819603.69999999,,46819612.836,8,400,,,
break_continue,html.Screen,4_20_2,2023-11-01T20:03:23.601Z,,0,,,NaN,,,,,,false,,,,46819604.80000001,46819604.69999999,,46819604.600000024,,46819612.836,8,400,,,
sequence,flow.Sequence,4_20,2023-11-01T20:03:23.601Z,,0,,,3472.7589999884367,completion,,,,,false,,,,46819605,46819604.69999999,46816115.286,46816128.600000024,46816131.941,46819612.836,8,400,,,
trial,html.Screen,4_21_0,2023-11-01T20:03:29.108Z,,0,1,,5499.0639999732375,response,ISIC_8207162.JPG,7,ISIC_8685259.JPG,ISIC_8207162.JPG,false,1,keypress(m),500,46825112.19999999,46825111.899999976,46819596.181,46819605.100000024,46819612.836,46825125.641,8,400,22,,ISIC_8685259.JPG
break,html.Screen,4_21_1,2023-11-01T20:03:29.109Z,,0,,,NaN,,,,,,false,,,,46825113.19999999,46825112.899999976,,46825112.5,,46825125.641,8,400,,,
break_continue,html.Screen,4_21_2,2023-11-01T20:03:29.110Z,,0,,,NaN,,,,,,false,,,,46825113.80000001,46825113.600000024,,46825113.399999976,,46825125.641,8,400,,,
sequence,flow.Sequence,4_21,2023-11-01T20:03:29.110Z,,0,,,5500.764000020921,completion,,,,,false,,,,46825114,46825113.600000024,46819596.181,46819605,46819612.836,46825125.641,8,400,,,
trial,html.Screen,4_22_0,2023-11-01T20:03:32.138Z,,0,1,,3016.0589999854565,response,ISIC_8691327.JPG,5,ISIC_4563766.JPG,ISIC_4563766.JPG,false,0,keypress(z),500,46828142,46828141.69999999,46825108.986,46825114.399999976,46825125.641,46828157.239,8,400,23,,ISIC_8691327.JPG
break,html.Screen,4_22_1,2023-11-01T20:03:32.139Z,,0,,,NaN,,,,,,false,,,,46828143,46828142.80000001,,46828142.30000001,,46828157.239,8,400,,,
break_continue,html.Screen,4_22_2,2023-11-01T20:03:32.140Z,,0,,,NaN,,,,,,false,,,,46828143.5,46828143.399999976,,46828143.19999999,,46828157.239,8,400,,,
sequence,flow.Sequence,4_22,2023-11-01T20:03:32.140Z,,0,,,3017.7589999735355,completion,,,,,false,,,,46828143.899999976,46828143.399999976,46825108.986,46825114.399999976,46825125.641,46828157.239,8,400,,,
trial,html.Screen,4_23_0,2023-11-01T20:03:36.782Z,,0,1,,4628.76099999994,response,ISIC_0046642.JPG,6,ISIC_0070601.JPG,ISIC_0046642.JPG,false,1,keypress(m),500,46832786.5,46832786,46828140.584,46828144.399999976,46828157.239,46832803.984,8,400,24,,ISIC_0070601.JPG
break,html.Screen,4_23_1,2023-11-01T20:03:36.784Z,,0,,,NaN,,,,,,false,,,,46832787.600000024,46832787.399999976,,46832786.899999976,,46832803.984,8,400,,,
break_continue,html.Screen,4_23_2,2023-11-01T20:03:36.784Z,,0,,,NaN,,,,,,false,,,,46832788.100000024,46832788,,46832787.80000001,,46832803.984,8,400,,,
sequence,flow.Sequence,4_23,2023-11-01T20:03:36.785Z,,0,,,4630.76099999994,completion,,,,,false,,,,46832788.69999999,46832788,46828140.584,46828144,46828157.239,46832803.984,8,400,,,
trial,html.Screen,4_24_0,2023-11-01T20:03:40.387Z,,0,1,,3586.7159999907017,response,ISIC_0024702.JPG,6,ISIC_0064060.JPG,ISIC_0064060.JPG,false,0,keypress(z),500,46836391,46836390.69999999,46832787.329,46832788.899999976,46832803.984,46836401.464,8,400,25,,ISIC_0024702.JPG
break,html.Screen,4_24_1,2023-11-01T20:03:40.388Z,,0,,,NaN,,,,,,false,,,,46836392,46836391.69999999,,46836391.30000001,,46836401.464,8,400,,,
break_continue,html.Screen,4_24_2,2023-11-01T20:03:40.388Z,,0,,,NaN,,,,,,false,,,,46836392.399999976,46836392.30000001,,46836392.19999999,,46836401.464,8,400,,,
sequence,flow.Sequence,4_24,2023-11-01T20:03:40.388Z,,0,,,3588.3160000145435,completion,,,,,false,,,,46836392.5,46836392.30000001,46832787.329,46832788.80000001,46832803.984,46836401.464,8,400,,,
trial,html.Screen,4_25_0,2023-11-01T20:03:43.609Z,,0,1,,3211.636000022292,response,ISIC_3013468.JPG,7,ISIC_6978997.JPG,ISIC_3013468.JPG,false,1,keypress(m),500,46839613.5,46839613.100000024,46836384.809,46836392.69999999,46836401.464,46839616.27,8,400,26,,ISIC_6978997.JPG
break,html.Screen,4_25_1,2023-11-01T20:03:43.610Z,,0,,,NaN,,,,,,false,,,,46839614.5,46839614.30000001,,46839613.80000001,,46839616.27,8,400,,,
break_continue,html.Screen,4_25_2,2023-11-01T20:03:43.611Z,,0,,,NaN,,,,,,false,,,,46839615.100000024,46839614.80000001,,46839614.69999999,,46839616.27,8,400,,,
sequence,flow.Sequence,4_25,2023-11-01T20:03:43.611Z,,0,,,3213.336000010371,completion,,,,,false,,,,46839615.30000001,46839614.80000001,46836384.809,46836392.69999999,46836401.464,46839616.27,8,400,,,
trial,html.Screen,4_26_0,2023-11-01T20:03:46.833Z,,0,1,,3220.8300000205636,response,ISIC_0011211.JPG,6,ISIC_0067318.JPG,ISIC_0067318.JPG,false,0,keypress(z),500,46842837.5,46842837.100000024,46839599.615,46839615.5,46839616.27,46842847.34,8,400,27,,ISIC_0011211.JPG
break,html.Screen,4_26_1,2023-11-01T20:03:46.834Z,,0,,,NaN,,,,,,false,,,,46842838.5,46842838.30000001,,46842837.80000001,,46842847.34,8,400,,,
break_continue,html.Screen,4_26_2,2023-11-01T20:03:46.835Z,,0,,,NaN,,,,,,false,,,,46842839,46842838.80000001,,46842838.69999999,,46842847.34,8,400,,,
sequence,flow.Sequence,4_26,2023-11-01T20:03:46.835Z,,0,,,3222.5300000086427,completion,,,,,false,,,,46842839.19999999,46842838.80000001,46839599.615,46839615.5,46839616.27,46842847.34,8,400,,,
trial,html.Screen,4_27_0,2023-11-01T20:03:51.658Z,,0,1,,4814.159999996424,response,ISIC_0032052.JPG,8,ISIC_4272317.JPG,ISIC_4272317.JPG,false,0,keypress(z),500,46847661.899999976,46847661.5,46842830.685,46842839.399999976,46842847.34,46847677.694,8,400,28,,ISIC_0032052.JPG
break,html.Screen,4_27_1,2023-11-01T20:03:51.659Z,,0,,,NaN,,,,,,false,,,,46847663.600000024,46847663.30000001,,46847662.30000001,,46847677.694,8,400,,,
break_continue,html.Screen,4_27_2,2023-11-01T20:03:51.660Z,,0,,,NaN,,,,,,false,,,,46847664.19999999,46847664,,46847663.80000001,,46847677.694,8,400,,,
sequence,flow.Sequence,4_27,2023-11-01T20:03:51.660Z,,0,,,4816.659999996424,completion,,,,,false,,,,46847664.399999976,46847664,46842830.685,46842839.30000001,46842847.34,46847677.694,8,400,,,
trial,html.Screen,4_28_0,2023-11-01T20:03:57.361Z,,0,1,,5687.505999989808,response,ISIC_6815524.JPG,5,ISIC_8427534.JPG,ISIC_8427534.JPG,false,0,keypress(z),500,46853365.5,46853365.19999999,46847661.039,46847664.600000024,46847677.694,46853373.704,8,400,29,,ISIC_6815524.JPG
break,html.Screen,4_28_1,2023-11-01T20:03:57.362Z,,0,,,NaN,,,,,,false,,,,46853366.899999976,46853366.600000024,,46853365.80000001,,46853373.704,8,400,,,
break_continue,html.Screen,4_28_2,2023-11-01T20:03:57.363Z,,0,,,NaN,,,,,,false,,,,46853367.399999976,46853367.19999999,,46853367.100000024,,46853373.704,8,400,,,
sequence,flow.Sequence,4_28,2023-11-01T20:03:57.363Z,,0,,,5689.505999989808,completion,,,,,false,,,,46853367.600000024,46853367.19999999,46847661.039,46847664.5,46847677.694,46853373.704,8,400,,,
trial,html.Screen,4_29_0,2023-11-01T20:04:01.511Z,,0,1,,4141.295999996364,response,ISIC_9543945.JPG,6,ISIC_5233226.JPG,ISIC_5233226.JPG,false,0,keypress(z),500,46857515.30000001,46857515,46853357.049,46853367.80000001,46853373.704,46857520.799,8,400,30,,ISIC_9543945.JPG
break,html.Screen,4_29_1,2023-11-01T20:04:01.512Z,,0,,,NaN,,,,,,false,,,,46857516.19999999,46857516,,46857515.600000024,,46857520.799,8,400,,,
break_continue,html.Screen,4_29_2,2023-11-01T20:04:01.512Z,,0,,,NaN,,,,,,false,,,,46857516.600000024,46857516.399999976,,46857516.30000001,,46857520.799,8,400,,,
sequence,flow.Sequence,4_29,2023-11-01T20:04:01.512Z,,0,,,4142.695999972522,completion,,,,,false,,,,46857516.80000001,46857516.399999976,46853357.049,46853367.69999999,46853373.704,46857520.799,8,400,,,
trial,html.Screen,4_30_0,2023-11-01T20:04:07.741Z,,0,1,,6224.301000021398,response,ISIC_6056121.JPG,7,ISIC_0004558.JPG,ISIC_6056121.JPG,false,1,keypress(m),500,46863745.600000024,46863745.100000024,46857504.144,46857516.899999976,46857520.799,46863750.157,8,400,31,,ISIC_0004558.JPG
break,html.Screen,4_30_1,2023-11-01T20:04:07.742Z,,0,,,NaN,,,,,,false,,,,46863746.30000001,46863746.19999999,,46863745.80000001,,46863750.157,8,400,,,
break_continue,html.Screen,4_30_2,2023-11-01T20:04:07.742Z,,0,,,NaN,,,,,,false,,,,46863746.600000024,46863746.5,,46863746.399999976,,46863750.157,8,400,,,
sequence,flow.Sequence,4_30,2023-11-01T20:04:07.742Z,,0,,,6225.700999997556,completion,,,,,false,,,,46863746.69999999,46863746.5,46857504.144,46857516.899999976,46857520.799,46863750.157,8,400,,,
trial,html.Screen,4_31_0,2023-11-01T20:04:10.834Z,,0,1,,3088.3430000022054,response,ISIC_3436139.JPG,7,ISIC_3238687.JPG,ISIC_3238687.JPG,false,0,keypress(z),500,46866838.899999976,46866838.5,46863733.502,46863746.80000001,46863750.157,46866847.987,8,400,32,,ISIC_3436139.JPG
break,html.Screen,4_31_1,2023-11-01T20:04:10.835Z,,0,,,NaN,,,,,,false,,,,46866839.80000001,46866839.5,,46866839.100000024,,46866847.987,8,400,,,
break_continue,html.Screen,4_31_2,2023-11-01T20:04:10.836Z,,0,,,NaN,,,,,,false,,,,46866840.30000001,46866840.19999999,,46866840,,46866847.987,8,400,,,
sequence,flow.Sequence,4_31,2023-11-01T20:04:10.836Z,,0,,,3090.0429999902844,completion,,,,,false,,,,46866840.5,46866840.19999999,46863733.502,46863746.80000001,46863750.157,46866847.987,8,400,,,
trial,html.Screen,4_32_0,2023-11-01T20:04:18.250Z,,0,1,,7406.412999972701,response,ISIC_0054523.JPG,6,ISIC_0033856.JPG,ISIC_0054523.JPG,false,1,keypress(m),500,46874254.80000001,46874254.399999976,46866831.332,46866840.69999999,46866847.987,46874259.851,8,400,33,,ISIC_0033856.JPG
break,html.Screen,4_32_1,2023-11-01T20:04:18.251Z,,0,,,NaN,,,,,,false,,,,46874255.80000001,46874255.5,,46874255.19999999,,46874259.851,8,400,,,
break_continue,html.Screen,4_32_2,2023-11-01T20:04:18.251Z,,0,,,NaN,,,,,,false,,,,46874256.19999999,46874256.100000024,,46874255.899999976,,46874259.851,8,400,,,
sequence,flow.Sequence,4_32,2023-11-01T20:04:18.252Z,,0,,,7408.113000020385,completion,,,,,false,,,,46874256.5,46874256.100000024,46866831.332,46866840.600000024,46866847.987,46874259.851,8,400,,,
trial,html.Screen,4_33_0,2023-11-01T20:04:21.297Z,,0,1,,3041.0489999726415,response,ISIC_3716686.JPG,6,ISIC_8048162.JPG,ISIC_3716686.JPG,false,1,keypress(m),500,46877301.600000024,46877300.899999976,46874243.196,46874256.69999999,46874259.851,46877307.716,8,400,34,,ISIC_8048162.JPG
break,html.Screen,4_33_1,2023-11-01T20:04:21.298Z,,0,,,NaN,,,,,,false,,,,46877302.69999999,46877302.19999999,,46877301.899999976,,46877307.716,8,400,,,
break_continue,html.Screen,4_33_2,2023-11-01T20:04:21.299Z,,0,,,NaN,,,,,,false,,,,46877303.600000024,46877303.19999999,,46877303,,46877307.716,8,400,,,
sequence,flow.Sequence,4_33,2023-11-01T20:04:21.299Z,,0,,,3043.3489999845624,completion,,,,,false,,,,46877304,46877303.19999999,46874243.196,46874256.600000024,46874259.851,46877307.716,8,400,,,
trial,html.Screen,4_34_0,2023-11-01T20:04:24.487Z,,0,1,,3183.983999989927,response,ISIC_0032019.JPG,4,ISIC_2616719.JPG,ISIC_2616719.JPG,false,0,keypress(z),500,46880492,46880491.69999999,46877291.061,46877304.100000024,46877307.716,46880505.868,8,400,35,,ISIC_0032019.JPG
break,html.Screen,4_34_1,2023-11-01T20:04:24.488Z,,0,,,NaN,,,,,,false,,,,46880492.899999976,46880492.69999999,,46880492.19999999,,46880505.868,8,400,,,
break_continue,html.Screen,4_34_2,2023-11-01T20:04:24.489Z,,0,,,NaN,,,,,,false,,,,46880493.69999999,46880493.5,,46880493.30000001,,46880505.868,8,400,,,
sequence,flow.Sequence,4_34,2023-11-01T20:04:24.489Z,,0,,,3185.7840000018477,completion,,,,,false,,,,46880494,46880493.5,46877291.061,46877304.100000024,46877307.716,46880505.868,8,400,,,
trial,html.Screen,4_35_0,2023-11-01T20:04:32.988Z,,0,1,,8486.331999987364,response,ISIC_9141817.JPG,5,ISIC_0010478.JPG,ISIC_9141817.JPG,false,1,keypress(m),500,46888992.5,46888992.19999999,46880489.213,46880494.19999999,46880505.868,46889000.3,8,400,36,,ISIC_0010478.JPG
break,html.Screen,4_35_1,2023-11-01T20:04:32.988Z,,0,,,NaN,,,,,,false,,,,46888993.5,46888993.30000001,,46888992.80000001,,46889000.3,8,400,,,
break_continue,html.Screen,4_35_2,2023-11-01T20:04:32.989Z,,0,,,NaN,,,,,,false,,,,46888994,46888993.80000001,,46888993.69999999,,46889000.3,8,400,,,
sequence,flow.Sequence,4_35,2023-11-01T20:04:32.989Z,,0,,,8487.932000011206,completion,,,,,false,,,,46888994.19999999,46888993.80000001,46880489.213,46880494.100000024,46880505.868,46889000.3,8,400,,,
trial,html.Screen,4_36_0,2023-11-01T20:04:40.743Z,,0,1,,7747.300000026822,response,ISIC_0522926.JPG,8,ISIC_6544382.JPG,ISIC_0522926.JPG,false,1,keypress(m),500,46896747.899999976,46896747.600000024,46888983.645,46888994.399999976,46889000.3,46896761.53,8,400,37,,ISIC_6544382.JPG
break,html.Screen,4_36_1,2023-11-01T20:04:40.744Z,,0,,,NaN,,,,,,false,,,,46896748.80000001,46896748.600000024,,46896748.19999999,,46896761.53,8,400,,,
break_continue,html.Screen,4_36_2,2023-11-01T20:04:40.744Z,,0,,,NaN,,,,,,false,,,,46896749.100000024,46896749,,46896748.80000001,,46896761.53,8,400,,,
sequence,flow.Sequence,4_36,2023-11-01T20:04:40.744Z,,0,,,7748.70000000298,completion,,,,,false,,,,46896749.30000001,46896749,46888983.645,46888994.30000001,46889000.3,46896761.53,8,400,,,
trial,html.Screen,4_37_0,2023-11-01T20:04:49.755Z,,0,1,,8998.669999986887,response,ISIC_0026103.JPG,5,ISIC_0064964.JPG,ISIC_0026103.JPG,false,1,keypress(m),500,46905760.600000024,46905760.19999999,46896744.875,46896749.30000001,46896761.53,46905772.273,8,400,38,,ISIC_0064964.JPG
break,html.Screen,4_37_1,2023-11-01T20:04:49.757Z,,0,,,NaN,,,,,,false,,,,46905761.899999976,46905761.30000001,,46905760.899999976,,46905772.273,8,400,,,
break_continue,html.Screen,4_37_2,2023-11-01T20:04:49.757Z,,0,,,NaN,,,,,,false,,,,46905762.399999976,46905762.19999999,,46905762,,46905772.273,8,400,,,
sequence,flow.Sequence,4_37,2023-11-01T20:04:49.757Z,,0,,,9000.669999986887,completion,,,,,false,,,,46905762.5,46905762.19999999,46896744.875,46896749.30000001,46896761.53,46905772.273,8,400,,,
trial,html.Screen,4_38_0,2023-11-01T20:04:52.767Z,,0,1,,3000.3270000219345,response,ISIC_0062111.JPG,6,ISIC_9126992.JPG,ISIC_9126992.JPG,false,0,keypress(z),500,46908772.899999976,46908772.600000024,46905755.618,46905762.600000024,46905772.273,46908786.828,8,400,39,,ISIC_0062111.JPG
break,html.Screen,4_38_1,2023-11-01T20:04:52.768Z,,0,,,NaN,,,,,,false,,,,46908773.899999976,46908773.69999999,,46908773.19999999,,46908786.828,8,400,,,
break_continue,html.Screen,4_38_2,2023-11-01T20:04:52.769Z,,0,,,NaN,,,,,,false,,,,46908774.30000001,46908774.30000001,,46908774,,46908786.828,8,400,,,
sequence,flow.Sequence,4_38,2023-11-01T20:04:52.769Z,,0,,,3002.0270000100136,completion,,,,,false,,,,46908774.80000001,46908774.30000001,46905755.618,46905762.600000024,46905772.273,46908786.828,8,400,,,
trial,html.Screen,4_39_0,2023-11-01T20:04:58.357Z,,0,1,,5575.472000010312,response,ISIC_0068234.JPG,7,ISIC_9672482.JPG,ISIC_0068234.JPG,false,1,keypress(m),500,46914362.80000001,46914362.30000001,46908770.173,46908774.899999976,46908786.828,46914366.664,8,400,40,,ISIC_9672482.JPG
break,html.Screen,4_39_1,2023-11-01T20:04:58.359Z,,0,,,NaN,,,,,,false,,,,46914364.899999976,46914364.399999976,,46914363.100000024,,46914366.664,8,400,,,
break_continue,html.Screen,4_39_2,2023-11-01T20:04:58.360Z,,0,,,NaN,,,,,,false,,,,46914365.80000001,46914365.399999976,,46914365.100000024,,46914366.664,8,400,,,
sequence,flow.Sequence,4_39,2023-11-01T20:04:58.361Z,,0,,,5578.571999974549,completion,,,,,false,,,,46914366.100000024,46914365.399999976,46908770.173,46908774.899999976,46908786.828,46914366.664,8,400,,,
trial,html.Screen,4_40_0,2023-11-01T20:05:01.421Z,,0,1,,3059.1360000148416,response,ISIC_7566505.JPG,7,ISIC_2682861.JPG,ISIC_7566505.JPG,false,1,keypress(m),500,46917426.30000001,46917425.80000001,46914350.009,46914366.19999999,46914366.664,46917431.184,8,400,41,,ISIC_2682861.JPG
break,html.Screen,4_40_1,2023-11-01T20:05:01.422Z,,0,,,NaN,,,,,,false,,,,46917427,46917426.899999976,,46917426.600000024,,46917431.184,8,400,,,
break_continue,html.Screen,4_40_2,2023-11-01T20:05:01.422Z,,0,,,NaN,,,,,,false,,,,46917427.399999976,46917427.30000001,,46917427.19999999,,46917431.184,8,400,,,
sequence,flow.Sequence,4_40,2023-11-01T20:05:01.422Z,,0,,,3060.6360000148416,completion,,,,,false,,,,46917427.5,46917427.30000001,46914350.009,46914366.19999999,46914366.664,46917431.184,8,400,,,
trial,html.Screen,4_41_0,2023-11-01T20:05:05.569Z,,0,1,,4142.616000011563,response,ISIC_0348633.JPG,8,ISIC_9545819.JPG,ISIC_0348633.JPG,false,1,keypress(m),500,46921574.19999999,46921573.80000001,46917414.529,46917427.69999999,46917431.184,46921578.702,8,400,42,,ISIC_9545819.JPG
break,html.Screen,4_41_1,2023-11-01T20:05:05.570Z,,0,,,NaN,,,,,,false,,,,46921575.30000001,46921575.100000024,,46921574.600000024,,46921578.702,8,400,,,
break_continue,html.Screen,4_41_2,2023-11-01T20:05:05.570Z,,0,,,NaN,,,,,,false,,,,46921575.80000001,46921575.600000024,,46921575.399999976,,46921578.702,8,400,,,
sequence,flow.Sequence,4_41,2023-11-01T20:05:05.570Z,,0,,,4144.416000023484,completion,,,,,false,,,,46921576,46921575.600000024,46917414.529,46917427.69999999,46917431.184,46921578.702,8,400,,,
trial,html.Screen,4_42_0,2023-11-01T20:05:08.684Z,,0,1,,3110.398000024259,response,ISIC_0054705.JPG,4,ISIC_0058666.JPG,ISIC_0054705.JPG,false,1,keypress(m),500,46924689.399999976,46924689.100000024,46921562.047,46921576.100000024,46921578.702,46924693.187,8,400,43,,ISIC_0058666.JPG
break,html.Screen,4_42_1,2023-11-01T20:05:08.685Z,,0,,,NaN,,,,,,false,,,,46924690.600000024,46924690.399999976,,46924689.69999999,,46924693.187,8,400,,,
break_continue,html.Screen,4_42_2,2023-11-01T20:05:08.686Z,,0,,,NaN,,,,,,false,,,,46924691.30000001,46924691.100000024,,46924690.899999976,,46924693.187,8,400,,,
sequence,flow.Sequence,4_42,2023-11-01T20:05:08.686Z,,0,,,3112.398000024259,completion,,,,,false,,,,46924691.399999976,46924691.100000024,46921562.047,46921576.100000024,46921578.702,46924693.187,8,400,,,
trial,html.Screen,4_43_0,2023-11-01T20:05:12.354Z,,0,1,,3665.913000024855,response,ISIC_4663883.JPG,8,ISIC_5458933.JPG,ISIC_4663883.JPG,false,1,keypress(m),500,46928359.5,46928359.100000024,46924676.532,46924691.600000024,46924693.187,46928373.942,8,400,44,,ISIC_5458933.JPG
break,html.Screen,4_43_1,2023-11-01T20:05:12.355Z,,0,,,NaN,,,,,,false,,,,46928360.30000001,46928360.100000024,,46928359.69999999,,46928373.942,8,400,,,
break_continue,html.Screen,4_43_2,2023-11-01T20:05:12.355Z,,0,,,NaN,,,,,,false,,,,46928360.600000024,46928360.5,,46928360.5,,46928373.942,8,400,,,
sequence,flow.Sequence,4_43,2023-11-01T20:05:12.355Z,,0,,,3667.3130000010133,completion,,,,,false,,,,46928360.80000001,46928360.5,46924676.532,46924691.600000024,46924693.187,46928373.942,8,400,,,
trial,html.Screen,4_44_0,2023-11-01T20:05:15.526Z,,0,1,,3157.358000010252,response,ISIC_6435644.JPG,7,ISIC_7079349.JPG,ISIC_6435644.JPG,false,1,keypress(m),500,46931531.5,46931531.30000001,46928357.287,46928360.80000001,46928373.942,46931555.435,8,400,45,,ISIC_7079349.JPG
break,html.Screen,4_44_1,2023-11-01T20:05:15.527Z,,0,,,NaN,,,,,,false,,,,46931532.69999999,46931532.399999976,,46931531.69999999,,46931555.435,8,400,,,
break_continue,html.Screen,4_44_2,2023-11-01T20:05:15.527Z,,0,,,NaN,,,,,,false,,,,46931533,46931532.899999976,,46931532.69999999,,46931555.435,8,400,,,
sequence,flow.Sequence,4_44,2023-11-01T20:05:15.527Z,,0,,,3158.957999974489,completion,,,,,false,,,,46931533.100000024,46931532.899999976,46928357.287,46928360.80000001,46928373.942,46931555.435,8,400,,,
trial,html.Screen,4_45_0,2023-11-01T20:05:19.243Z,,0,1,,3693.3650000095367,response,ISIC_9308275.JPG,5,ISIC_0058164.JPG,ISIC_9308275.JPG,false,1,keypress(m),500,46935249.19999999,46935248.80000001,46931538.78,46931533.30000001,46931555.435,46935252.845,8,400,46,,ISIC_0058164.JPG
break,html.Screen,4_45_1,2023-11-01T20:05:19.244Z,,0,,,NaN,,,,,,false,,,,46935250.19999999,46935250,,46935249.5,,46935252.845,8,400,,,
break_continue,html.Screen,4_45_2,2023-11-01T20:05:19.245Z,,0,,,NaN,,,,,,false,,,,46935250.80000001,46935250.600000024,,46935250.399999976,,46935252.845,8,400,,,
sequence,flow.Sequence,4_45,2023-11-01T20:05:19.245Z,,0,,,3695.1650000214577,completion,,,,,false,,,,46935251,46935250.600000024,46931538.78,46931533.30000001,46931555.435,46935252.845,8,400,,,
trial,html.Screen,4_46_0,2023-11-01T20:05:22.085Z,,0,1,,2837.655000001192,response,ISIC_0013917.JPG,10,ISIC_0066289.JPG,ISIC_0013917.JPG,false,1,keypress(m),500,46938090.80000001,46938090.5,46935236.19,46935251.19999999,46935252.845,46938100.85,8,400,47,,ISIC_0066289.JPG
break,html.Screen,4_46_1,2023-11-01T20:05:22.086Z,,0,,,NaN,,,,,,false,,,,46938092,46938091.69999999,,46938091.19999999,,46938100.85,8,400,,,
break_continue,html.Screen,4_46_2,2023-11-01T20:05:22.087Z,,0,,,NaN,,,,,,false,,,,46938092.399999976,46938092.30000001,,46938092.100000024,,46938100.85,8,400,,,
sequence,flow.Sequence,4_46,2023-11-01T20:05:22.087Z,,0,,,2839.455000013113,completion,,,,,false,,,,46938092.600000024,46938092.30000001,46935236.19,46935251.100000024,46935252.845,46938100.85,8,400,,,
trial,html.Screen,4_47_0,2023-11-01T20:05:25.135Z,,0,1,,3039.349999986589,response,ISIC_0059216.JPG,8,ISIC_7429127.JPG,ISIC_7429127.JPG,false,0,keypress(z),500,46941140.5,46941140.19999999,46938084.195,46938094.80000001,46938100.85,46941148.715,8,400,48,,ISIC_0059216.JPG
break,html.Screen,4_47_1,2023-11-01T20:05:25.136Z,,0,,,NaN,,,,,,false,,,,46941141.69999999,46941141.30000001,,46941140.899999976,,46941148.715,8,400,,,
break_continue,html.Screen,4_47_2,2023-11-01T20:05:25.136Z,,0,,,NaN,,,,,,false,,,,46941142.19999999,46941142.100000024,,46941141.899999976,,46941148.715,8,400,,,
sequence,flow.Sequence,4_47,2023-11-01T20:05:25.136Z,,0,,,3041.2500000223517,completion,,,,,false,,,,46941142.5,46941142.100000024,46938084.195,46938094.5,46938100.85,46941148.715,8,400,,,
trial,html.Screen,4_48_0,2023-11-01T20:05:30.227Z,,0,1,,5084.284999996424,response,ISIC_1835041.JPG,5,ISIC_0029550.JPG,ISIC_0029550.JPG,false,0,keypress(z),500,46946233.19999999,46946233,46941132.06,46941142.69999999,46941148.715,46946245.521,8,400,49,,ISIC_1835041.JPG
break,html.Screen,4_48_1,2023-11-01T20:05:30.228Z,,0,,,NaN,,,,,,false,,,,46946233.69999999,46946233.5,,46946233.30000001,,46946245.521,8,400,,,
break_continue,html.Screen,4_48_2,2023-11-01T20:05:30.228Z,,0,,,NaN,,,,,,false,,,,46946234.399999976,46946234.100000024,,46946234,,46946245.521,8,400,,,
sequence,flow.Sequence,4_48,2023-11-01T20:05:30.229Z,,0,,,5085.385000020266,completion,,,,,false,,,,46946235,46946234.100000024,46941132.06,46941142.5,46941148.715,46946245.521,8,400,,,
trial,html.Screen,4_49_0,2023-11-01T20:05:33.962Z,,0,1,,3722.178999990225,response,ISIC_8869249.JPG,5,ISIC_0061029.JPG,ISIC_8869249.JPG,false,1,keypress(m),500,46949968,46949967.69999999,46946228.866,46946235.19999999,46946245.521,46949976.241,8,400,50,,ISIC_0061029.JPG
break,html.Screen,4_49_1,2023-11-01T20:05:43.950Z,,0,,,9993.376000002027,timeout,,,,,false,,,,46959956,46959952.962,46949959.586,46949968.30000001,46949976.241,46959969.617,8,400,,,
break_continue,html.Screen,4_49_2,2023-11-01T20:05:46.899Z,,0,,,2916.5829999893904,response,,,,,false,continue,keypress(Space),,46962905.100000024,46962886.19999999,46959952.962,46959956.19999999,46959969.617,46962917.552,8,400,,,
sequence,flow.Sequence,4_49,2023-11-01T20:05:46.899Z,,0,,,16640.678999990225,completion,,,,,false,,,,46962905.19999999,46962886.19999999,46946228.866,46946235.19999999,46946245.521,46962917.552,8,400,,,
trial,html.Screen,4_50_0,2023-11-01T20:05:51.415Z,,0,2,,4503.847999975085,response,ISIC_7369690.JPG,6,ISIC_1068686.JPG,ISIC_1068686.JPG,false,0,keypress(z),500,46967421.69999999,46967421.399999976,46962900.897,46962905.19999999,46962917.552,46967431.487,8,400,1,,ISIC_7369690.JPG
break,html.Screen,4_50_1,2023-11-01T20:05:51.416Z,,0,,,NaN,,,,,,false,,,,46967422.69999999,46967422.5,,46967422,,46967431.487,8,400,,,
break_continue,html.Screen,4_50_2,2023-11-01T20:05:51.417Z,,0,,,NaN,,,,,,false,,,,46967423.19999999,46967423.100000024,,46967422.899999976,,46967431.487,8,400,,,
sequence,flow.Sequence,4_50,2023-11-01T20:05:51.417Z,,0,,,4505.548000022769,completion,,,,,false,,,,46967423.399999976,46967423.100000024,46962900.897,46962905.19999999,46962917.552,46967431.487,8,400,,,
trial,html.Screen,4_51_0,2023-11-01T20:05:56.285Z,,0,2,,4859.512999996543,response,ISIC_0010765.JPG,7,ISIC_0066109.JPG,ISIC_0066109.JPG,false,0,keypress(z),500,46972291.399999976,46972291,46967414.832,46967423.600000024,46967431.487,46972294.747,8,400,2,,ISIC_0010765.JPG
break,html.Screen,4_51_1,2023-11-01T20:05:56.286Z,,0,,,NaN,,,,,,false,,,,46972292.30000001,46972292.100000024,,46972291.600000024,,46972294.747,8,400,,,
break_continue,html.Screen,4_51_2,2023-11-01T20:05:56.286Z,,0,,,NaN,,,,,,false,,,,46972292.80000001,46972292.69999999,,46972292.5,,46972294.747,8,400,,,
sequence,flow.Sequence,4_51,2023-11-01T20:05:56.287Z,,0,,,4861.212999984622,completion,,,,,false,,,,46972293.5,46972292.69999999,46967414.832,46967423.5,46967431.487,46972294.747,8,400,,,
trial,html.Screen,4_52_0,2023-11-01T20:06:01.204Z,,0,2,,4915.452999986708,response,ISIC_0069995.JPG,7,ISIC_0054292.JPG,ISIC_0069995.JPG,false,1,keypress(m),500,46977210.5,46977210.19999999,46972278.092,46972293.600000024,46972294.747,46977225.017,8,400,3,,ISIC_0054292.JPG
break,html.Screen,4_52_1,2023-11-01T20:06:01.207Z,,0,,,NaN,,,,,,false,,,,46977213.5,46977212.19999999,,46977210.69999999,,46977225.017,8,400,,,
break_continue,html.Screen,4_52_2,2023-11-01T20:06:01.208Z,,0,,,NaN,,,,,,false,,,,46977214.19999999,46977214.100000024,,46977213.899999976,,46977225.017,8,400,,,
sequence,flow.Sequence,4_52,2023-11-01T20:06:01.208Z,,0,,,4919.353000022471,completion,,,,,false,,,,46977214.399999976,46977214.100000024,46972278.092,46972293.600000024,46972294.747,46977225.017,8,400,,,
trial,html.Screen,4_53_0,2023-11-01T20:06:04.785Z,,0,2,,3566.5830000266433,response,ISIC_7240424.JPG,8,ISIC_0054570.JPG,ISIC_7240424.JPG,false,1,keypress(m),500,46980791.899999976,46980791.600000024,46977208.362,46977214.5,46977225.017,46980805.842,8,400,4,,ISIC_0054570.JPG
break,html.Screen,4_53_1,2023-11-01T20:06:04.786Z,,0,,,NaN,,,,,,false,,,,46980792.69999999,46980792.5,,46980792.100000024,,46980805.842,8,400,,,
break_continue,html.Screen,4_53_2,2023-11-01T20:06:04.786Z,,0,,,NaN,,,,,,false,,,,46980793.100000024,46980792.899999976,,46980792.80000001,,46980805.842,8,400,,,
sequence,flow.Sequence,4_53,2023-11-01T20:06:04.787Z,,0,,,3567.8829999789596,completion,,,,,false,,,,46980793.19999999,46980792.899999976,46977208.362,46977214.399999976,46977225.017,46980805.842,8,400,,,
trial,html.Screen,4_54_0,2023-11-01T20:06:10.920Z,,0,2,,6120.557999975979,response,ISIC_1225511.JPG,6,ISIC_0030695.JPG,ISIC_1225511.JPG,false,1,keypress(m),500,46986926.69999999,46986926.399999976,46980789.187,46980793.30000001,46980805.842,46986935.375,8,400,5,,ISIC_0030695.JPG
break,html.Screen,4_54_1,2023-11-01T20:06:10.921Z,,0,,,NaN,,,,,,false,,,,46986927.69999999,46986927.5,,46986927,,46986935.375,8,400,,,
break_continue,html.Screen,4_54_2,2023-11-01T20:06:10.921Z,,0,,,NaN,,,,,,false,,,,46986928.100000024,46986927.899999976,,46986927.899999976,,46986935.375,8,400,,,
sequence,flow.Sequence,4_54,2023-11-01T20:06:10.922Z,,0,,,6122.057999975979,completion,,,,,false,,,,46986928.399999976,46986927.899999976,46980789.187,46980793.30000001,46980805.842,46986935.375,8,400,,,
trial,html.Screen,4_55_0,2023-11-01T20:06:15.088Z,,0,2,,4158.824999988079,response,ISIC_0013052.JPG,5,ISIC_6410859.JPG,ISIC_6410859.JPG,false,0,keypress(z),500,46991094.5,46991094.19999999,46986918.72,46986928.5,46986935.375,46991099.125,8,400,6,,ISIC_0013052.JPG
break,html.Screen,4_55_1,2023-11-01T20:06:15.089Z,,0,,,NaN,,,,,,false,,,,46991095.5,46991095.30000001,,46991094.80000001,,46991099.125,8,400,,,
break_continue,html.Screen,4_55_2,2023-11-01T20:06:15.089Z,,0,,,NaN,,,,,,false,,,,46991095.899999976,46991095.80000001,,46991095.69999999,,46991099.125,8,400,,,
sequence,flow.Sequence,4_55,2023-11-01T20:06:15.089Z,,0,,,4160.425000011921,completion,,,,,false,,,,46991096.30000001,46991095.80000001,46986918.72,46986928.5,46986935.375,46991099.125,8,400,,,
trial,html.Screen,4_56_0,2023-11-01T20:06:18.727Z,,0,2,,3634.274999976158,response,ISIC_1977315.JPG,6,ISIC_6323420.JPG,ISIC_1977315.JPG,false,1,keypress(m),500,46994733.80000001,46994733.399999976,46991082.47,46991096.69999999,46991099.125,46994746.57,8,400,7,,ISIC_6323420.JPG
break,html.Screen,4_56_1,2023-11-01T20:06:18.728Z,,0,,,NaN,,,,,,false,,,,46994734.80000001,46994734.5,,46994734,,46994746.57,8,400,,,
break_continue,html.Screen,4_56_2,2023-11-01T20:06:18.728Z,,0,,,NaN,,,,,,false,,,,46994735.30000001,46994735,,46994734.899999976,,46994746.57,8,400,,,
sequence,flow.Sequence,4_56,2023-11-01T20:06:18.729Z,,0,,,3635.875,completion,,,,,false,,,,46994735.69999999,46994735,46991082.47,46991096.600000024,46991099.125,46994746.57,8,400,,,
trial,html.Screen,4_57_0,2023-11-01T20:06:25.646Z,,0,2,,6906.230000011623,response,ISIC_8319768.JPG,8,ISIC_2219050.JPG,ISIC_8319768.JPG,false,1,keypress(m),500,47001653.19999999,47001652.80000001,46994729.915,46994736,46994746.57,47001658.783,8,400,8,,ISIC_2219050.JPG
break,html.Screen,4_57_1,2023-11-01T20:06:25.647Z,,0,,,NaN,,,,,,false,,,,47001654.100000024,47001654,,47001653.399999976,,47001658.783,8,400,,,
break_continue,html.Screen,4_57_2,2023-11-01T20:06:25.648Z,,0,,,NaN,,,,,,false,,,,47001654.600000024,47001654.5,,47001654.399999976,,47001658.783,8,400,,,
sequence,flow.Sequence,4_57,2023-11-01T20:06:25.648Z,,0,,,6907.929999999702,completion,,,,,false,,,,47001654.899999976,47001654.5,46994729.915,46994736,46994746.57,47001658.783,8,400,,,
trial,html.Screen,4_58_0,2023-11-01T20:06:33.270Z,,0,2,,7618.0170000121,response,ISIC_0071434.JPG,6,ISIC_5964676.JPG,ISIC_0071434.JPG,false,1,keypress(m),500,47009277.399999976,47009276.80000001,47001642.128,47001655,47001658.783,47009287.224,8,400,9,,ISIC_5964676.JPG
break,html.Screen,4_58_1,2023-11-01T20:06:33.272Z,,0,,,NaN,,,,,,false,,,,47009279.600000024,47009279.100000024,,47009278,,47009287.224,8,400,,,
break_continue,html.Screen,4_58_2,2023-11-01T20:06:33.273Z,,0,,,NaN,,,,,,false,,,,47009280,47009279.899999976,,47009279.80000001,,47009287.224,8,400,,,
sequence,flow.Sequence,4_58,2023-11-01T20:06:33.273Z,,0,,,7621.116999976337,completion,,,,,false,,,,47009280.100000024,47009279.899999976,47001642.128,47001655,47001658.783,47009287.224,8,400,,,
trial,html.Screen,4_59_0,2023-11-01T20:06:37.966Z,,0,2,,4684.876000024378,response,ISIC_7667157.JPG,5,ISIC_3148886.JPG,ISIC_3148886.JPG,false,0,keypress(z),500,47013973.100000024,47013972.100000024,47009270.569,47009280.30000001,47009287.224,47013983.934,8,400,10,,ISIC_7667157.JPG
break,html.Screen,4_59_1,2023-11-01T20:06:37.967Z,,0,,,NaN,,,,,,false,,,,47013974.19999999,47013974,,47013973.5,,47013983.934,8,400,,,
break_continue,html.Screen,4_59_2,2023-11-01T20:06:37.967Z,,0,,,NaN,,,,,,false,,,,47013974.80000001,47013974.5,,47013974.30000001,,47013983.934,8,400,,,
sequence,flow.Sequence,4_59,2023-11-01T20:06:37.968Z,,0,,,4687.276000000536,completion,,,,,false,,,,47013975.100000024,47013974.5,47009270.569,47009280.30000001,47009287.224,47013983.934,8,400,,,
trial,html.Screen,4_60_0,2023-11-01T20:06:41.576Z,,0,2,,3598.5659999996424,response,ISIC_6628544.JPG,7,ISIC_0033595.JPG,ISIC_6628544.JPG,false,1,keypress(m),500,47017583.30000001,47017582.5,47013967.279,47013975.19999999,47013983.934,47017598.069,8,400,11,,ISIC_0033595.JPG
break,html.Screen,4_60_1,2023-11-01T20:06:41.577Z,,0,,,NaN,,,,,,false,,,,47017584.600000024,47017584.399999976,,47017583.899999976,,47017598.069,8,400,,,
break_continue,html.Screen,4_60_2,2023-11-01T20:06:41.578Z,,0,,,NaN,,,,,,false,,,,47017585.100000024,47017584.899999976,,47017584.80000001,,47017598.069,8,400,,,
sequence,flow.Sequence,4_60,2023-11-01T20:06:41.578Z,,0,,,3600.9659999758005,completion,,,,,false,,,,47017585.30000001,47017584.899999976,47013967.279,47013975.100000024,47013983.934,47017598.069,8,400,,,
trial,html.Screen,4_61_0,2023-11-01T20:06:45.090Z,,0,2,,3498.6309999898076,response,ISIC_0072473.JPG,5,ISIC_8535943.JPG,ISIC_8535943.JPG,false,0,keypress(z),500,47021097.100000024,47021096.69999999,47017581.414,47017585.5,47017598.069,47021112.661,8,400,12,,ISIC_0072473.JPG
break,html.Screen,4_61_1,2023-11-01T20:06:45.091Z,,0,,,NaN,,,,,,false,,,,47021098,47021097.80000001,,47021097.399999976,,47021112.661,8,400,,,
break_continue,html.Screen,4_61_2,2023-11-01T20:06:45.091Z,,0,,,NaN,,,,,,false,,,,47021098.80000001,47021098.600000024,,47021098.5,,47021112.661,8,400,,,
sequence,flow.Sequence,4_61,2023-11-01T20:06:45.092Z,,0,,,3500.5310000255704,completion,,,,,false,,,,47021098.899999976,47021098.600000024,47017581.414,47017585.5,47017598.069,47021112.661,8,400,,,
trial,html.Screen,4_62_0,2023-11-01T20:06:48.775Z,,0,2,,3669.238999977708,response,ISIC_3736075.JPG,9,ISIC_0010358.JPG,ISIC_0010358.JPG,false,0,keypress(z),500,47024782.30000001,47024781.899999976,47021096.006,47021099.100000024,47021112.661,47024793.416,8,400,13,,ISIC_3736075.JPG
break,html.Screen,4_62_1,2023-11-01T20:06:48.776Z,,0,,,NaN,,,,,,false,,,,47024783.30000001,47024783,,47024782.5,,47024793.416,8,400,,,
break_continue,html.Screen,4_62_2,2023-11-01T20:06:48.776Z,,0,,,NaN,,,,,,false,,,,47024783.80000001,47024783.600000024,,47024783.5,,47024793.416,8,400,,,
sequence,flow.Sequence,4_62,2023-11-01T20:06:48.776Z,,0,,,3670.9390000253916,completion,,,,,false,,,,47024784,47024783.600000024,47021096.006,47021099.100000024,47021112.661,47024793.416,8,400,,,
trial,html.Screen,4_63_0,2023-11-01T20:06:52.306Z,,0,2,,3520.0839999988675,response,ISIC_8748070.JPG,9,ISIC_0013530.JPG,ISIC_8748070.JPG,false,1,keypress(m),500,47028313.899999976,47028313.5,47024776.761,47024784.100000024,47024793.416,47028324.276,8,400,14,,ISIC_0013530.JPG
break,html.Screen,4_63_1,2023-11-01T20:06:52.308Z,,0,,,NaN,,,,,,false,,,,47028315.399999976,47028315.100000024,,47028314.100000024,,47028324.276,8,400,,,
break_continue,html.Screen,4_63_2,2023-11-01T20:06:52.309Z,,0,,,NaN,,,,,,false,,,,47028316.100000024,47028315.80000001,,47028315.600000024,,47028324.276,8,400,,,
sequence,flow.Sequence,4_63,2023-11-01T20:06:52.309Z,,0,,,3522.3840000107884,completion,,,,,false,,,,47028316.5,47028315.80000001,47024776.761,47024784.100000024,47024793.416,47028324.276,8,400,,,
trial,html.Screen,4_64_0,2023-11-01T20:07:03.797Z,,0,2,,11509.376000002027,timeout,ISIC_0031883.JPG,5,ISIC_3181394.JPG,,false,,,500,47039804.399999976,47039804,47028307.621,47028316.69999999,47028324.276,47039833.652,8,400,15,,
break,html.Screen,4_64_1,2023-11-01T20:07:03.798Z,,0,,,NaN,,,,,,false,,,,47039805.600000024,47039805.100000024,,47039804.600000024,,47039833.652,8,400,,,
break_continue,html.Screen,4_64_2,2023-11-01T20:07:03.798Z,,0,,,NaN,,,,,,false,,,,47039806.19999999,47039806.100000024,,47039805.899999976,,47039833.652,8,400,,,
sequence,flow.Sequence,4_64,2023-11-01T20:07:03.799Z,,0,,,11481.824000023305,completion,,,,,false,,,,47039806.5,47039806.100000024,47028307.621,47028316.69999999,47028324.276,47039833.652,8,400,,,
trial,html.Screen,4_65_0,2023-11-01T20:07:07.257Z,,0,2,,3431.247999973595,response,ISIC_0001128.JPG,6,ISIC_0030107.JPG,ISIC_0001128.JPG,false,1,keypress(m),500,47043265.100000024,47043264.899999976,47039816.997,47039806.600000024,47039833.652,47043281.237,8,400,16,,ISIC_0030107.JPG
break,html.Screen,4_65_1,2023-11-01T20:07:07.258Z,,0,,,NaN,,,,,,false,,,,47043265.899999976,47043265.69999999,,47043265.30000001,,47043281.237,8,400,,,
break_continue,html.Screen,4_65_2,2023-11-01T20:07:07.259Z,,0,,,NaN,,,,,,false,,,,47043266.5,47043266.399999976,,47043266.19999999,,47043281.237,8,400,,,
sequence,flow.Sequence,4_65,2023-11-01T20:07:07.259Z,,0,,,3432.747999973595,completion,,,,,false,,,,47043266.899999976,47043266.399999976,47039816.997,47039806.600000024,47039833.652,47043281.237,8,400,,,
trial,html.Screen,4_66_0,2023-11-01T20:07:11.316Z,,0,2,,4042.162999972701,response,ISIC_8892663.JPG,7,ISIC_0011994.JPG,ISIC_8892663.JPG,false,1,keypress(m),500,47047323.69999999,47047323.399999976,47043264.582,47043267,47043281.237,47047328.402,8,400,17,,ISIC_0011994.JPG
break,html.Screen,4_66_1,2023-11-01T20:07:11.316Z,,0,,,NaN,,,,,,false,,,,47047324.30000001,47047324.19999999,,47047323.80000001,,47047328.402,8,400,,,
break_continue,html.Screen,4_66_2,2023-11-01T20:07:11.317Z,,0,,,NaN,,,,,,false,,,,47047324.600000024,47047324.600000024,,47047324.399999976,,47047328.402,8,400,,,
sequence,flow.Sequence,4_66,2023-11-01T20:07:11.317Z,,0,,,4043.363000020385,completion,,,,,false,,,,47047324.80000001,47047324.600000024,47043264.582,47043266.899999976,47043281.237,47047328.402,8,400,,,
trial,html.Screen,4_67_0,2023-11-01T20:07:15.336Z,,0,2,,4014.997999973595,response,ISIC_2241755.JPG,5,ISIC_8733745.JPG,ISIC_8733745.JPG,false,0,keypress(z),500,47051343.80000001,47051343.399999976,47047311.747,47047324.899999976,47047328.402,47051359.289,8,400,18,,ISIC_2241755.JPG
break,html.Screen,4_67_1,2023-11-01T20:07:15.337Z,,0,,,NaN,,,,,,false,,,,47051345.399999976,47051344.5,,47051344,,47051359.289,8,400,,,
break_continue,html.Screen,4_67_2,2023-11-01T20:07:15.339Z,,0,,,NaN,,,,,,false,,,,47051346.600000024,47051345.69999999,,47051345.600000024,,47051359.289,8,400,,,
sequence,flow.Sequence,4_67,2023-11-01T20:07:15.339Z,,0,,,4017.297999985516,completion,,,,,false,,,,47051346.80000001,47051345.69999999,47047311.747,47047324.899999976,47047328.402,47051359.289,8,400,,,
trial,html.Screen,4_68_0,2023-11-01T20:07:20.252Z,,0,2,,4900.8110000267625,response,ISIC_4088444.JPG,8,ISIC_0012069.JPG,ISIC_4088444.JPG,false,1,keypress(m),500,47056260.5,47056260.100000024,47051342.634,47051346.899999976,47051359.289,47056272.514,8,400,19,,ISIC_0012069.JPG
break,html.Screen,4_68_1,2023-11-01T20:07:20.253Z,,0,,,NaN,,,,,,false,,,,47056261.5,47056261.30000001,,47056260.80000001,,47056272.514,8,400,,,
break_continue,html.Screen,4_68_2,2023-11-01T20:07:20.254Z,,0,,,NaN,,,,,,false,,,,47056261.899999976,47056261.80000001,,47056261.600000024,,47056272.514,8,400,,,
sequence,flow.Sequence,4_68,2023-11-01T20:07:20.254Z,,0,,,4902.511000014842,completion,,,,,false,,,,47056262.100000024,47056261.80000001,47051342.634,47051346.899999976,47051359.289,47056272.514,8,400,,,
trial,html.Screen,4_69_0,2023-11-01T20:07:25.201Z,,0,2,,4936.4860000014305,response,ISIC_0067743.JPG,7,ISIC_4842269.JPG,ISIC_4842269.JPG,false,0,keypress(z),500,47061209.399999976,47061209,47056255.859,47056262.30000001,47056272.514,47061236.117,8,400,20,,ISIC_0067743.JPG
break,html.Screen,4_69_1,2023-11-01T20:07:25.202Z,,0,,,NaN,,,,,,false,,,,47061210.30000001,47061210,,47061209.69999999,,47061236.117,8,400,,,
break_continue,html.Screen,4_69_2,2023-11-01T20:07:25.203Z,,0,,,NaN,,,,,,false,,,,47061210.69999999,47061210.5,,47061210.5,,47061236.117,8,400,,,
sequence,flow.Sequence,4_69,2023-11-01T20:07:25.203Z,,0,,,4937.9860000014305,completion,,,,,false,,,,47061210.899999976,47061210.5,47056255.859,47056262.30000001,47056272.514,47061236.117,8,400,,,
trial,html.Screen,4_70_0,2023-11-01T20:07:29.239Z,,0,2,,4011.0829999893904,response,ISIC_0032721.JPG,4,ISIC_1054090.JPG,ISIC_1054090.JPG,false,0,keypress(z),500,47065247.600000024,47065247.19999999,47061219.462,47061211.100000024,47061236.117,47065249.972,8,400,21,,ISIC_0032721.JPG
break,html.Screen,4_70_1,2023-11-01T20:07:29.240Z,,0,,,NaN,,,,,,false,,,,47065248.69999999,47065248.399999976,,47065247.899999976,,47065249.972,8,400,,,
break_continue,html.Screen,4_70_2,2023-11-01T20:07:29.241Z,,0,,,NaN,,,,,,false,,,,47065249.19999999,47065249,,47065248.899999976,,47065249.972,8,400,,,
sequence,flow.Sequence,4_70,2023-11-01T20:07:29.241Z,,0,,,4012.8830000013113,completion,,,,,false,,,,47065249.399999976,47065249,47061219.462,47061211,47061236.117,47065249.972,8,400,,,
trial,html.Screen,4_71_0,2023-11-01T20:07:33.453Z,,0,2,,4211.32800000906,response,ISIC_7016261.JPG,8,ISIC_0030784.JPG,ISIC_0030784.JPG,false,0,keypress(z),500,47069461.69999999,47069461.30000001,47065233.317,47065249.600000024,47065249.972,47069463.687,8,400,22,,ISIC_7016261.JPG
break,html.Screen,4_71_1,2023-11-01T20:07:33.454Z,,0,,,NaN,,,,,,false,,,,47069462.80000001,47069462.5,,47069462,,47069463.687,8,400,,,
break_continue,html.Screen,4_71_2,2023-11-01T20:07:33.455Z,,0,,,NaN,,,,,,false,,,,47069463.399999976,47069463,,47069462.899999976,,47069463.687,8,400,,,
sequence,flow.Sequence,4_71,2023-11-01T20:07:33.455Z,,0,,,4213.027999997139,completion,,,,,false,,,,47069463.600000024,47069463,47065233.317,47065249.5,47065249.972,47069463.687,8,400,,,
trial,html.Screen,4_72_0,2023-11-01T20:07:39.268Z,,0,2,,5812.712999977171,response,ISIC_5666345.JPG,6,ISIC_0025184.JPG,ISIC_0025184.JPG,false,0,keypress(z),500,47075276.80000001,47075276.399999976,47069447.032,47069463.80000001,47069463.687,47075293.322,8,400,23,,ISIC_5666345.JPG
break,html.Screen,4_72_1,2023-11-01T20:07:39.269Z,,0,,,NaN,,,,,,false,,,,47075277.69999999,47075277.5,,47075277.100000024,,47075293.322,8,400,,,
break_continue,html.Screen,4_72_2,2023-11-01T20:07:39.270Z,,0,,,NaN,,,,,,false,,,,47075278.19999999,47075278.100000024,,47075278,,47075293.322,8,400,,,
sequence,flow.Sequence,4_72,2023-11-01T20:07:39.270Z,,0,,,5814.413000024855,completion,,,,,false,,,,47075278.399999976,47075278.100000024,47069447.032,47069463.80000001,47069463.687,47075293.322,8,400,,,
trial,html.Screen,4_73_0,2023-11-01T20:07:42.336Z,,0,2,,3050.6780000030994,response,ISIC_0032724.JPG,5,ISIC_0033428.JPG,ISIC_0032724.JPG,false,1,keypress(m),500,47078344.19999999,47078344,47075276.667,47075278.600000024,47075293.322,47078357.842,8,400,24,,ISIC_0033428.JPG
break,html.Screen,4_73_1,2023-11-01T20:07:42.336Z,,0,,,NaN,,,,,,false,,,,47078344.69999999,47078344.5,,47078344.30000001,,47078357.842,8,400,,,
break_continue,html.Screen,4_73_2,2023-11-01T20:07:42.336Z,,0,,,NaN,,,,,,false,,,,47078344.899999976,47078344.80000001,,47078344.69999999,,47078357.842,8,400,,,
sequence,flow.Sequence,4_73,2023-11-01T20:07:42.336Z,,0,,,3051.4780000150204,completion,,,,,false,,,,47078344.899999976,47078344.80000001,47075276.667,47075278.5,47075293.322,47078357.842,8,400,,,
trial,html.Screen,4_74_0,2023-11-01T20:07:48.212Z,,0,2,,5861.8579999879,response,ISIC_5179884.JPG,4,ISIC_5102688.JPG,ISIC_5102688.JPG,false,0,keypress(z),500,47084220.100000024,47084219.69999999,47078341.187,47078345,47078357.842,47084237.536,8,400,25,,ISIC_5179884.JPG
break,html.Screen,4_74_1,2023-11-01T20:07:48.213Z,,0,,,NaN,,,,,,false,,,,47084221.19999999,47084220.899999976,,47084220.399999976,,47084237.536,8,400,,,
break_continue,html.Screen,4_74_2,2023-11-01T20:07:48.213Z,,0,,,NaN,,,,,,false,,,,47084221.69999999,47084221.399999976,,47084221.30000001,,47084237.536,8,400,,,
sequence,flow.Sequence,4_74,2023-11-01T20:07:48.213Z,,0,,,5863.557999975979,completion,,,,,false,,,,47084221.80000001,47084221.399999976,47078341.187,47078345,47078357.842,47084237.536,8,400,,,
trial,html.Screen,4_75_0,2023-11-01T20:07:52.280Z,,0,2,,4050.4640000015497,response,ISIC_0046609.JPG,6,ISIC_6784593.JPG,ISIC_6784593.JPG,false,0,keypress(z),500,47088288.30000001,47088288,47084220.881,47084222,47084237.536,47088318.011,8,400,26,,ISIC_0046609.JPG
break,html.Screen,4_75_1,2023-11-01T20:07:52.281Z,,0,,,NaN,,,,,,false,,,,47088289.80000001,47088289.600000024,,47088288.69999999,,47088318.011,8,400,,,
break_continue,html.Screen,4_75_2,2023-11-01T20:07:52.282Z,,0,,,NaN,,,,,,false,,,,47088290.399999976,47088290.19999999,,47088290,,47088318.011,8,400,,,
sequence,flow.Sequence,4_75,2023-11-01T20:07:52.282Z,,0,,,4052.663999989629,completion,,,,,false,,,,47088290.600000024,47088290.19999999,47084220.881,47084222,47084237.536,47088318.011,8,400,,,
trial,html.Screen,4_76_0,2023-11-01T20:07:56.349Z,,0,2,,4038.7890000119805,response,ISIC_6678508.JPG,5,ISIC_5437785.JPG,ISIC_6678508.JPG,false,1,keypress(m),500,47092357.19999999,47092356.80000001,47088301.356,47088290.80000001,47088318.011,47092365.176,8,400,27,,ISIC_5437785.JPG
break,html.Screen,4_76_1,2023-11-01T20:07:56.350Z,,0,,,NaN,,,,,,false,,,,47092358.399999976,47092358.100000024,,47092357.600000024,,47092365.176,8,400,,,
break_continue,html.Screen,4_76_2,2023-11-01T20:07:56.350Z,,0,,,NaN,,,,,,false,,,,47092358.899999976,47092358.80000001,,47092358.600000024,,47092365.176,8,400,,,
sequence,flow.Sequence,4_76,2023-11-01T20:07:56.350Z,,0,,,4040.7890000119805,completion,,,,,false,,,,47092359.100000024,47092358.80000001,47088301.356,47088290.69999999,47088318.011,47092365.176,8,400,,,
trial,html.Screen,4_77_0,2023-11-01T20:08:00.981Z,,0,2,,4623.824000000954,response,ISIC_0033607.JPG,5,ISIC_5938680.JPG,ISIC_5938680.JPG,false,0,keypress(z),500,47096989.30000001,47096989,47092348.521,47092359.19999999,47092365.176,47096995.647,8,400,28,,ISIC_0033607.JPG
break,html.Screen,4_77_1,2023-11-01T20:08:00.982Z,,0,,,NaN,,,,,,false,,,,47096990.69999999,47096990.19999999,,47096989.600000024,,47096995.647,8,400,,,
break_continue,html.Screen,4_77_2,2023-11-01T20:08:00.983Z,,0,,,NaN,,,,,,false,,,,47096991.399999976,47096991.19999999,,47096991,,47096995.647,8,400,,,
sequence,flow.Sequence,4_77,2023-11-01T20:08:00.983Z,,0,,,4626.023999989033,completion,,,,,false,,,,47096991.69999999,47096991.19999999,47092348.521,47092359.19999999,47092365.176,47096995.647,8,400,,,
trial,html.Screen,4_78_0,2023-11-01T20:08:04.458Z,,0,2,,3470.853000000119,response,ISIC_3757004.JPG,5,ISIC_4384341.JPG,ISIC_4384341.JPG,false,0,keypress(z),500,47100466.899999976,47100466.5,47096978.992,47096991.80000001,47096995.647,47100476.542,8,400,29,,ISIC_3757004.JPG
break,html.Screen,4_78_1,2023-11-01T20:08:04.459Z,,0,,,NaN,,,,,,false,,,,47100467.899999976,47100467.69999999,,47100467.19999999,,47100476.542,8,400,,,
break_continue,html.Screen,4_78_2,2023-11-01T20:08:04.460Z,,0,,,NaN,,,,,,false,,,,47100468.399999976,47100468.30000001,,47100468,,47100476.542,8,400,,,
sequence,flow.Sequence,4_78,2023-11-01T20:08:04.460Z,,0,,,3472.65300001204,completion,,,,,false,,,,47100468.600000024,47100468.30000001,47096978.992,47096991.80000001,47096995.647,47100476.542,8,400,,,
trial,html.Screen,4_79_0,2023-11-01T20:08:07.791Z,,0,2,,3323.058000020683,response,ISIC_0027304.JPG,5,ISIC_0029993.JPG,ISIC_0029993.JPG,false,0,keypress(z),500,47103800,47103799.600000024,47100459.887,47100468.80000001,47100476.542,47103807.542,8,400,30,,ISIC_0027304.JPG
break,html.Screen,4_79_1,2023-11-01T20:08:07.792Z,,0,,,NaN,,,,,,false,,,,47103801.100000024,47103800.899999976,,47103800.399999976,,47103807.542,8,400,,,
break_continue,html.Screen,4_79_2,2023-11-01T20:08:07.793Z,,0,,,NaN,,,,,,false,,,,47103801.69999999,47103801.5,,47103801.30000001,,47103807.542,8,400,,,
sequence,flow.Sequence,4_79,2023-11-01T20:08:07.793Z,,0,,,3324.957999996841,completion,,,,,false,,,,47103801.899999976,47103801.5,47100459.887,47100468.69999999,47100476.542,47103807.542,8,400,,,
trial,html.Screen,4_80_0,2023-11-01T20:08:12.810Z,,0,2,,5007.457999996841,response,ISIC_6132976.JPG,5,ISIC_9947624.JPG,ISIC_9947624.JPG,false,0,keypress(z),500,47108818.600000024,47108815,47103790.887,47103802.100000024,47103807.542,47108821.107,8,400,31,,ISIC_6132976.JPG
break,html.Screen,4_80_1,2023-11-01T20:08:12.811Z,,0,,,NaN,,,,,,false,,,,47108819.69999999,47108819.399999976,,47108819.100000024,,47108821.107,8,400,,,
break_continue,html.Screen,4_80_2,2023-11-01T20:08:12.811Z,,0,,,NaN,,,,,,false,,,,47108820,47108819.899999976,,47108819.80000001,,47108821.107,8,400,,,
sequence,flow.Sequence,4_80,2023-11-01T20:08:12.811Z,,0,,,5012.357999972999,completion,,,,,false,,,,47108820.19999999,47108819.899999976,47103790.887,47103802.100000024,47103807.542,47108821.107,8,400,,,
trial,html.Screen,4_81_0,2023-11-01T20:08:16.944Z,,0,2,,4131.592999987304,response,ISIC_0013473.JPG,5,ISIC_9194220.JPG,ISIC_9194220.JPG,false,0,keypress(z),500,47112953,47112952.69999999,47108804.452,47108820.399999976,47108821.107,47112968.202,8,400,32,,ISIC_0013473.JPG
break,html.Screen,4_81_1,2023-11-01T20:08:16.945Z,,0,,,NaN,,,,,,false,,,,47112953.899999976,47112953.69999999,,47112953.19999999,,47112968.202,8,400,,,
break_continue,html.Screen,4_81_2,2023-11-01T20:08:16.945Z,,0,,,NaN,,,,,,false,,,,47112954.399999976,47112954.19999999,,47112954.19999999,,47112968.202,8,400,,,
sequence,flow.Sequence,4_81,2023-11-01T20:08:16.946Z,,0,,,4133.092999987304,completion,,,,,false,,,,47112954.69999999,47112954.19999999,47108804.452,47108820.19999999,47108821.107,47112968.202,8,400,,,
trial,html.Screen,4_82_0,2023-11-01T20:08:21.414Z,,0,2,,4454.298000000417,response,ISIC_5063476.JPG,5,ISIC_0034022.JPG,ISIC_0034022.JPG,false,0,keypress(z),500,47117422.80000001,47117422.5,47112951.547,47112955,47112968.202,47117432.197,8,400,33,,ISIC_5063476.JPG
break,html.Screen,4_82_1,2023-11-01T20:08:21.415Z,,0,,,NaN,,,,,,false,,,,47117423.899999976,47117423.600000024,,47117423.100000024,,47117432.197,8,400,,,
break_continue,html.Screen,4_82_2,2023-11-01T20:08:21.415Z,,0,,,NaN,,,,,,false,,,,47117424.399999976,47117424.19999999,,47117424,,47117432.197,8,400,,,
sequence,flow.Sequence,4_82,2023-11-01T20:08:21.415Z,,0,,,4455.997999988496,completion,,,,,false,,,,47117424.600000024,47117424.19999999,47112951.547,47112955,47112968.202,47117432.197,8,400,,,
trial,html.Screen,4_83_0,2023-11-01T20:08:24.701Z,,0,2,,3277.7029999792576,response,ISIC_0030366.JPG,7,ISIC_7967108.JPG,ISIC_7967108.JPG,false,0,keypress(z),500,47120710.19999999,47120709.899999976,47117415.542,47117424.69999999,47117432.197,47120713.232,8,400,34,,ISIC_0030366.JPG
break,html.Screen,4_83_1,2023-11-01T20:08:24.702Z,,0,,,NaN,,,,,,false,,,,47120711.100000024,47120710.899999976,,47120710.5,,47120713.232,8,400,,,
break_continue,html.Screen,4_83_2,2023-11-01T20:08:24.702Z,,0,,,NaN,,,,,,false,,,,47120711.5,47120711.30000001,,47120711.30000001,,47120713.232,8,400,,,
sequence,flow.Sequence,4_83,2023-11-01T20:08:24.702Z,,0,,,3279.1030000150204,completion,,,,,false,,,,47120711.600000024,47120711.30000001,47117415.542,47117424.69999999,47117432.197,47120713.232,8,400,,,
trial,html.Screen,4_84_0,2023-11-01T20:08:30.307Z,,0,2,,5602.467999987304,response,ISIC_0029021.JPG,6,ISIC_0031642.JPG,ISIC_0029021.JPG,false,1,keypress(m),500,47126316.19999999,47126315.69999999,47120696.577,47120711.80000001,47120713.232,47126325.967,8,400,35,,ISIC_0031642.JPG
break,html.Screen,4_84_1,2023-11-01T20:08:30.308Z,,0,,,NaN,,,,,,false,,,,47126317.399999976,47126316.899999976,,47126316.399999976,,47126325.967,8,400,,,
break_continue,html.Screen,4_84_2,2023-11-01T20:08:30.309Z,,0,,,NaN,,,,,,false,,,,47126318,47126317.80000001,,47126317.600000024,,47126325.967,8,400,,,
sequence,flow.Sequence,4_84,2023-11-01T20:08:30.309Z,,0,,,5604.568000011146,completion,,,,,false,,,,47126318.19999999,47126317.80000001,47120696.577,47120711.80000001,47120713.232,47126325.967,8,400,,,
trial,html.Screen,4_85_0,2023-11-01T20:08:34.491Z,,0,2,,4174.133000023663,response,ISIC_0765585.JPG,5,ISIC_0032981.JPG,ISIC_0765585.JPG,false,1,keypress(m),500,47130500.5,47130500.100000024,47126309.312,47126318.5,47126325.967,47130506.76,8,400,36,,ISIC_0032981.JPG
break,html.Screen,4_85_1,2023-11-01T20:08:34.492Z,,0,,,NaN,,,,,,false,,,,47130501.5,47130501.30000001,,47130500.80000001,,47130506.76,8,400,,,
break_continue,html.Screen,4_85_2,2023-11-01T20:08:34.493Z,,0,,,NaN,,,,,,false,,,,47130502,47130501.80000001,,47130501.600000024,,47130506.76,8,400,,,
sequence,flow.Sequence,4_85,2023-11-01T20:08:34.493Z,,0,,,4175.833000011742,completion,,,,,false,,,,47130502.19999999,47130501.80000001,47126309.312,47126318.5,47126325.967,47130506.76,8,400,,,
trial,html.Screen,4_86_0,2023-11-01T20:08:38.483Z,,0,2,,3985.4399999901652,response,ISIC_0027537.JPG,6,ISIC_0062525.JPG,ISIC_0027537.JPG,false,1,keypress(m),500,47134492.600000024,47134492.19999999,47130490.105,47130502.30000001,47130506.76,47134503.96,8,400,37,,ISIC_0062525.JPG
break,html.Screen,4_86_1,2023-11-01T20:08:38.484Z,,0,,,NaN,,,,,,false,,,,47134493.80000001,47134493.399999976,,47134492.899999976,,47134503.96,8,400,,,
break_continue,html.Screen,4_86_2,2023-11-01T20:08:38.485Z,,0,,,NaN,,,,,,false,,,,47134494.5,47134494.19999999,,47134494,,47134503.96,8,400,,,
sequence,flow.Sequence,4_86,2023-11-01T20:08:38.485Z,,0,,,3987.4399999901652,completion,,,,,false,,,,47134494.69999999,47134494.19999999,47130490.105,47130502.30000001,47130506.76,47134503.96,8,400,,,
trial,html.Screen,4_87_0,2023-11-01T20:08:42.267Z,,0,2,,3772.039999999106,response,ISIC_2198823.JPG,8,ISIC_6357263.JPG,ISIC_6357263.JPG,false,0,keypress(z),500,47138276.30000001,47138276,47134487.305,47134495,47134503.96,47138285.039,8,400,38,,ISIC_2198823.JPG
break,html.Screen,4_87_1,2023-11-01T20:08:42.268Z,,0,,,NaN,,,,,,false,,,,47138277.30000001,47138277.100000024,,47138276.69999999,,47138285.039,8,400,,,
break_continue,html.Screen,4_87_2,2023-11-01T20:08:42.268Z,,0,,,NaN,,,,,,false,,,,47138277.80000001,47138277.600000024,,47138277.5,,47138285.039,8,400,,,
sequence,flow.Sequence,4_87,2023-11-01T20:08:42.269Z,,0,,,3773.640000022948,completion,,,,,false,,,,47138278,47138277.600000024,47134487.305,47134494.899999976,47134503.96,47138285.039,8,400,,,
trial,html.Screen,4_88_0,2023-11-01T20:08:47.779Z,,0,2,,5502.761000014842,response,ISIC_0004955.JPG,8,ISIC_5960641.JPG,ISIC_0004955.JPG,false,1,keypress(m),500,47143788.19999999,47143787.80000001,47138268.384,47138278.19999999,47138285.039,47143797.844,8,400,39,,ISIC_5960641.JPG
break,html.Screen,4_88_1,2023-11-01T20:08:47.780Z,,0,,,NaN,,,,,,false,,,,47143789.100000024,47143788.899999976,,47143788.5,,47143797.844,8,400,,,
break_continue,html.Screen,4_88_2,2023-11-01T20:08:47.780Z,,0,,,NaN,,,,,,false,,,,47143789.69999999,47143789.5,,47143789.30000001,,47143797.844,8,400,,,
sequence,flow.Sequence,4_88,2023-11-01T20:08:47.780Z,,0,,,5504.461000002921,completion,,,,,false,,,,47143789.80000001,47143789.5,47138268.384,47138278.19999999,47138285.039,47143797.844,8,400,,,
trial,html.Screen,4_89_0,2023-11-01T20:08:51.338Z,,0,2,,3549.3559999912977,response,ISIC_3996796.JPG,7,ISIC_0064095.JPG,ISIC_0064095.JPG,false,0,keypress(z),500,47147347.5,47147347.19999999,47143781.189,47143790,47143797.844,47147362.014,8,400,40,,ISIC_3996796.JPG
break,html.Screen,4_89_1,2023-11-01T20:08:51.339Z,,0,,,NaN,,,,,,false,,,,47147348.5,47147348.19999999,,47147347.80000001,,47147362.014,8,400,,,
break_continue,html.Screen,4_89_2,2023-11-01T20:08:51.339Z,,0,,,NaN,,,,,,false,,,,47147348.899999976,47147348.80000001,,47147348.600000024,,47147362.014,8,400,,,
sequence,flow.Sequence,4_89,2023-11-01T20:08:51.340Z,,0,,,3550.9560000151396,completion,,,,,false,,,,47147349.19999999,47147348.80000001,47143781.189,47143789.899999976,47143797.844,47147362.014,8,400,,,
trial,html.Screen,4_90_0,2023-11-01T20:08:56.928Z,,0,2,,5575.385999977589,response,ISIC_0026915.JPG,5,ISIC_7253401.JPG,ISIC_7253401.JPG,false,0,keypress(z),500,47152937.80000001,47152937.399999976,47147345.359,47147349.399999976,47147362.014,47152941.827,8,400,41,,ISIC_0026915.JPG
break,html.Screen,4_90_1,2023-11-01T20:08:56.929Z,,0,,,NaN,,,,,,false,,,,47152938.69999999,47152938.5,,47152938,,47152941.827,8,400,,,
break_continue,html.Screen,4_90_2,2023-11-01T20:08:56.929Z,,0,,,NaN,,,,,,false,,,,47152939.19999999,47152939.100000024,,47152938.899999976,,47152941.827,8,400,,,
sequence,flow.Sequence,4_90,2023-11-01T20:08:56.930Z,,0,,,5577.086000025272,completion,,,,,false,,,,47152939.5,47152939.100000024,47147345.359,47147349.30000001,47147362.014,47152941.827,8,400,,,
trial,html.Screen,4_91_0,2023-11-01T20:09:00.822Z,,0,2,,3889.273000024259,response,ISIC_0071693.JPG,6,ISIC_9646599.JPG,ISIC_0071693.JPG,false,1,keypress(m),500,47156831.5,47156831.100000024,47152925.172,47152939.600000024,47152941.827,47156839.097,8,400,42,,ISIC_9646599.JPG
break,html.Screen,4_91_1,2023-11-01T20:09:00.823Z,,0,,,NaN,,,,,,false,,,,47156832.5,47156832.19999999,,47156831.69999999,,47156839.097,8,400,,,
break_continue,html.Screen,4_91_2,2023-11-01T20:09:00.823Z,,0,,,NaN,,,,,,false,,,,47156833.19999999,47156833,,47156832.69999999,,47156839.097,8,400,,,
sequence,flow.Sequence,4_91,2023-11-01T20:09:00.823Z,,0,,,3891.1730000004172,completion,,,,,false,,,,47156833.30000001,47156833,47152925.172,47152939.600000024,47152941.827,47156839.097,8,400,,,
trial,html.Screen,4_92_0,2023-11-01T20:09:05.117Z,,0,2,,4287.503000020981,response,ISIC_1166740.JPG,8,ISIC_0005248.JPG,ISIC_0005248.JPG,false,0,keypress(z),500,47161126.899999976,47161126.600000024,47156822.442,47156833.399999976,47156839.097,47161136.471,8,400,43,,ISIC_1166740.JPG
break,html.Screen,4_92_1,2023-11-01T20:09:05.118Z,,0,,,NaN,,,,,,false,,,,47161127.899999976,47161127.600000024,,47161127.19999999,,47161136.471,8,400,,,
break_continue,html.Screen,4_92_2,2023-11-01T20:09:05.119Z,,0,,,NaN,,,,,,false,,,,47161128.5,47161128.30000001,,47161128.100000024,,47161136.471,8,400,,,
sequence,flow.Sequence,4_92,2023-11-01T20:09:05.119Z,,0,,,4289.20300000906,completion,,,,,false,,,,47161128.69999999,47161128.30000001,47156822.442,47156833.30000001,47156839.097,47161136.471,8,400,,,
trial,html.Screen,4_93_0,2023-11-01T20:09:11.713Z,,0,2,,6586.228999987245,response,ISIC_2742786.JPG,7,ISIC_0012382.JPG,ISIC_0012382.JPG,false,0,keypress(z),500,47167723,47167722.69999999,47161119.816,47161128.80000001,47161136.471,47167731.851,8,400,44,,ISIC_2742786.JPG
break,html.Screen,4_93_1,2023-11-01T20:09:11.714Z,,0,,,NaN,,,,,,false,,,,47167724,47167723.80000001,,47167723.30000001,,47167731.851,8,400,,,
break_continue,html.Screen,4_93_2,2023-11-01T20:09:11.714Z,,0,,,NaN,,,,,,false,,,,47167724.5,47167724.399999976,,47167724.30000001,,47167731.851,8,400,,,
sequence,flow.Sequence,4_93,2023-11-01T20:09:11.715Z,,0,,,6587.928999975324,completion,,,,,false,,,,47167724.69999999,47167724.399999976,47161119.816,47161128.69999999,47161136.471,47167731.851,8,400,,,
trial,html.Screen,4_94_0,2023-11-01T20:09:15.208Z,,0,2,,3486.249000020325,response,ISIC_0013626.JPG,6,ISIC_9301005.JPG,ISIC_9301005.JPG,false,0,keypress(z),500,47171218.5,47171218.100000024,47167715.196,47167724.80000001,47167731.851,47171229.791,8,400,45,,ISIC_0013626.JPG
break,html.Screen,4_94_1,2023-11-01T20:09:15.209Z,,0,,,NaN,,,,,,false,,,,47171219.5,47171219.30000001,,47171218.80000001,,47171229.791,8,400,,,
break_continue,html.Screen,4_94_2,2023-11-01T20:09:15.210Z,,0,,,NaN,,,,,,false,,,,47171220.100000024,47171219.899999976,,47171219.80000001,,47171229.791,8,400,,,
sequence,flow.Sequence,4_94,2023-11-01T20:09:15.210Z,,0,,,3488.0489999726415,completion,,,,,false,,,,47171220.30000001,47171219.899999976,47167715.196,47167724.80000001,47167731.851,47171229.791,8,400,,,
trial,html.Screen,4_95_0,2023-11-01T20:09:19.406Z,,0,2,,4186.009000010788,response,ISIC_1819358.JPG,6,ISIC_0024891.JPG,ISIC_0024891.JPG,false,0,keypress(z),500,47175416.19999999,47175415.80000001,47171213.136,47171220.399999976,47171229.791,47175426.851,8,400,46,,ISIC_1819358.JPG
break,html.Screen,4_95_1,2023-11-01T20:09:19.407Z,,0,,,NaN,,,,,,false,,,,47175417.399999976,47175417.100000024,,47175416.5,,47175426.851,8,400,,,
break_continue,html.Screen,4_95_2,2023-11-01T20:09:19.408Z,,0,,,NaN,,,,,,false,,,,47175418.100000024,47175418,,47175417.69999999,,47175426.851,8,400,,,
sequence,flow.Sequence,4_95,2023-11-01T20:09:19.408Z,,0,,,4188.2089999988675,completion,,,,,false,,,,47175418.399999976,47175418,47171213.136,47171220.399999976,47171229.791,47175426.851,8,400,,,
trial,html.Screen,4_96_0,2023-11-01T20:09:22.935Z,,0,2,,3517.9490000084043,response,ISIC_0057199.JPG,7,ISIC_9615486.JPG,ISIC_0057199.JPG,false,1,keypress(m),500,47178945.19999999,47178944.80000001,47175410.196,47175418.5,47175426.851,47178957.711,8,400,47,,ISIC_9615486.JPG
break,html.Screen,4_96_1,2023-11-01T20:09:22.936Z,,0,,,NaN,,,,,,false,,,,47178946.19999999,47178945.899999976,,47178945.5,,47178957.711,8,400,,,
break_continue,html.Screen,4_96_2,2023-11-01T20:09:22.936Z,,0,,,NaN,,,,,,false,,,,47178946.600000024,47178946.399999976,,47178946.30000001,,47178957.711,8,400,,,
sequence,flow.Sequence,4_96,2023-11-01T20:09:22.937Z,,0,,,3519.5489999726415,completion,,,,,false,,,,47178946.80000001,47178946.399999976,47175410.196,47175418.5,47175426.851,47178957.711,8,400,,,
trial,html.Screen,4_97_0,2023-11-01T20:09:26.883Z,,0,2,,3934.6889999732375,response,ISIC_6959281.JPG,7,ISIC_7090336.JPG,ISIC_7090336.JPG,false,0,keypress(z),500,47182892.899999976,47182892.399999976,47178941.056,47178947,47178957.711,47182905.329,8,400,48,,ISIC_6959281.JPG
break,html.Screen,4_97_1,2023-11-01T20:09:26.884Z,,0,,,NaN,,,,,,false,,,,47182893.80000001,47182893.600000024,,47182893.100000024,,47182905.329,8,400,,,
break_continue,html.Screen,4_97_2,2023-11-01T20:09:26.884Z,,0,,,NaN,,,,,,false,,,,47182894.30000001,47182894.19999999,,47182893.899999976,,47182905.329,8,400,,,
sequence,flow.Sequence,4_97,2023-11-01T20:09:26.884Z,,0,,,3936.4889999851584,completion,,,,,false,,,,47182894.5,47182894.19999999,47178941.056,47178947,47178957.711,47182905.329,8,400,,,
trial,html.Screen,4_98_0,2023-11-01T20:09:31.479Z,,0,2,,4583.271000020206,response,ISIC_1818238.JPG,5,ISIC_0013636.JPG,ISIC_0013636.JPG,false,0,keypress(z),500,47187489,47187488.600000024,47182888.674,47182894.80000001,47182905.329,47187502.109,8,400,49,,ISIC_1818238.JPG
break,html.Screen,4_98_1,2023-11-01T20:09:31.480Z,,0,,,NaN,,,,,,false,,,,47187490.100000024,47187489.80000001,,47187489.30000001,,47187502.109,8,400,,,
break_continue,html.Screen,4_98_2,2023-11-01T20:09:31.480Z,,0,,,NaN,,,,,,false,,,,47187490.600000024,47187490.399999976,,47187490.30000001,,47187502.109,8,400,,,
sequence,flow.Sequence,4_98,2023-11-01T20:09:31.480Z,,0,,,4585.070999972522,completion,,,,,false,,,,47187490.899999976,47187490.399999976,47182888.674,47182894.69999999,47182905.329,47187502.109,8,400,,,
trial,html.Screen,4_99_0,2023-11-01T20:09:35.564Z,,0,2,,4072.1910000145435,response,ISIC_3902917.JPG,5,ISIC_3372067.JPG,ISIC_3902917.JPG,false,1,keypress(m),500,47191574.80000001,47191574.30000001,47187485.454,47187491.100000024,47187502.109,47191582.961,8,400,50,,ISIC_3372067.JPG
break,html.Screen,4_99_1,2023-11-01T20:09:45.552Z,,0,,,9993.375999994576,timeout,,,,,false,,,,47201562.5,47201559.682,47191566.306,47191575.100000024,47191582.961,47201576.337,8,400,,,
break_continue,html.Screen,4_99_2,2023-11-01T20:10:58.326Z,,0,,,72735.56299997866,response,,,,,false,continue,keypress(Space),,47274337.899999976,47274311.899999976,47201559.682,47201562.600000024,47201576.337,47274344.714,8,400,,,
sequence,flow.Sequence,4_99,2023-11-01T20:10:58.326Z,,0,,,86809.79099997878,completion,,,,,false,,,,47274338,47274311.899999976,47187485.454,47187491,47187502.109,47274344.714,8,400,,,
trial,html.Screen,4_100_0,2023-11-01T20:11:02.828Z,,0,3,,4494.386000022292,response,ISIC_0056247.JPG,7,ISIC_0071916.JPG,ISIC_0071916.JPG,false,0,keypress(z),500,47278839.5,47278839.100000024,47274328.059,47274338.100000024,47274344.714,47278841.564,8,400,1,,ISIC_0056247.JPG
break,html.Screen,4_100_1,2023-11-01T20:11:02.829Z,,0,,,NaN,,,,,,false,,,,47278840.600000024,47278840.30000001,,47278839.899999976,,47278841.564,8,400,,,
break_continue,html.Screen,4_100_2,2023-11-01T20:11:02.829Z,,0,,,NaN,,,,,,false,,,,47278841.100000024,47278841,,47278840.80000001,,47278841.564,8,400,,,
sequence,flow.Sequence,4_100,2023-11-01T20:11:02.829Z,,0,,,4496.28599999845,completion,,,,,false,,,,47278841.30000001,47278841,47274328.059,47274338.100000024,47274344.714,47278841.564,8,400,,,
trial,html.Screen,4_101_0,2023-11-01T20:11:08.480Z,,0,3,,5650.135999985039,response,ISIC_4846741.JPG,8,ISIC_0071367.JPG,ISIC_4846741.JPG,false,1,keypress(m),500,47284492,47284491.69999999,47278824.909,47278841.5,47278841.564,47284504.771,8,400,2,,ISIC_0071367.JPG
break,html.Screen,4_101_1,2023-11-01T20:11:08.481Z,,0,,,NaN,,,,,,false,,,,47284493.100000024,47284492.80000001,,47284492.30000001,,47284504.771,8,400,,,
break_continue,html.Screen,4_101_2,2023-11-01T20:11:08.482Z,,0,,,NaN,,,,,,false,,,,47284493.69999999,47284493.30000001,,47284493.19999999,,47284504.771,8,400,,,
sequence,flow.Sequence,4_101,2023-11-01T20:11:08.482Z,,0,,,5651.736000008881,completion,,,,,false,,,,47284494.19999999,47284493.30000001,47278824.909,47278841.5,47278841.564,47284504.771,8,400,,,
trial,html.Screen,4_102_0,2023-11-01T20:11:12.948Z,,0,3,,4455.029000014067,response,ISIC_0031626.JPG,8,ISIC_1460932.JPG,ISIC_1460932.JPG,false,0,keypress(z),500,47288960.19999999,47288959.80000001,47284488.116,47284494.399999976,47284504.771,47288968.311,8,400,3,,ISIC_0031626.JPG
break,html.Screen,4_102_1,2023-11-01T20:11:12.949Z,,0,,,NaN,,,,,,false,,,,47288961.399999976,47288961,,47288960.5,,47288968.311,8,400,,,
break_continue,html.Screen,4_102_2,2023-11-01T20:11:12.950Z,,0,,,NaN,,,,,,false,,,,47288962,47288961.80000001,,47288961.5,,47288968.311,8,400,,,
sequence,flow.Sequence,4_102,2023-11-01T20:11:12.950Z,,0,,,4457.029000014067,completion,,,,,false,,,,47288962.19999999,47288961.80000001,47284488.116,47284494.30000001,47284504.771,47288968.311,8,400,,,
trial,html.Screen,4_103_0,2023-11-01T20:11:17.067Z,,0,3,,4110.289000026882,response,ISIC_1945381.JPG,5,ISIC_7185036.JPG,ISIC_1945381.JPG,false,1,keypress(m),500,47293078.899999976,47293078.600000024,47288951.656,47288962.399999976,47288968.311,47293098.751,8,400,4,,ISIC_7185036.JPG
break,html.Screen,4_103_1,2023-11-01T20:11:17.068Z,,0,,,NaN,,,,,,false,,,,47293079.80000001,47293079.399999976,,47293079.100000024,,47293098.751,8,400,,,
break_continue,html.Screen,4_103_2,2023-11-01T20:11:17.068Z,,0,,,NaN,,,,,,false,,,,47293080.5,47293080.19999999,,47293080,,47293098.751,8,400,,,
sequence,flow.Sequence,4_103,2023-11-01T20:11:17.068Z,,0,,,4111.888999991119,completion,,,,,false,,,,47293080.69999999,47293080.19999999,47288951.656,47288962.30000001,47288968.311,47293098.751,8,400,,,
trial,html.Screen,4_104_0,2023-11-01T20:11:20.786Z,,0,3,,3699.2489999979734,response,ISIC_0000539.JPG,8,ISIC_4595741.JPG,ISIC_0000539.JPG,false,1,keypress(m),500,47296798.30000001,47296798,47293082.096,47293081.100000024,47293098.751,47296813.195,8,400,5,,ISIC_4595741.JPG
break,html.Screen,4_104_1,2023-11-01T20:11:20.787Z,,0,,,NaN,,,,,,false,,,,47296799.399999976,47296799,,47296798.600000024,,47296813.195,8,400,,,
break_continue,html.Screen,4_104_2,2023-11-01T20:11:20.788Z,,0,,,NaN,,,,,,false,,,,47296799.899999976,47296799.80000001,,47296799.600000024,,47296813.195,8,400,,,
sequence,flow.Sequence,4_104,2023-11-01T20:11:20.788Z,,0,,,3701.0490000098944,completion,,,,,false,,,,47296800.100000024,47296799.80000001,47293082.096,47293081,47293098.751,47296813.195,8,400,,,
trial,html.Screen,4_105_0,2023-11-01T20:11:24.343Z,,0,3,,3542.20499997586,response,ISIC_0844312.JPG,8,ISIC_0000226.JPG,ISIC_0000226.JPG,false,0,keypress(z),500,47300355.80000001,47300355.399999976,47296796.54,47296800.19999999,47296813.195,47300360.71,8,400,6,,ISIC_0844312.JPG
break,html.Screen,4_105_1,2023-11-01T20:11:24.346Z,,0,,,NaN,,,,,,false,,,,47300358.899999976,47300358.5,,47300358,,47300360.71,8,400,,,
break_continue,html.Screen,4_105_2,2023-11-01T20:11:24.347Z,,0,,,NaN,,,,,,false,,,,47300359.399999976,47300359.19999999,,47300359,,47300360.71,8,400,,,
sequence,flow.Sequence,4_105,2023-11-01T20:11:24.347Z,,0,,,3546.004999987781,completion,,,,,false,,,,47300359.600000024,47300359.19999999,47296796.54,47296800.19999999,47296813.195,47300360.71,8,400,,,
trial,html.Screen,4_106_0,2023-11-01T20:11:27.727Z,,0,3,,3378.890000022948,response,ISIC_0027263.JPG,6,ISIC_8168598.JPG,ISIC_8168598.JPG,false,0,keypress(z),500,47303739.899999976,47303739.600000024,47300344.055,47300359.80000001,47300360.71,47303741.675,8,400,7,,ISIC_0027263.JPG
break,html.Screen,4_106_1,2023-11-01T20:11:27.728Z,,0,,,NaN,,,,,,false,,,,47303740.69999999,47303740.399999976,,47303740.100000024,,47303741.675,8,400,,,
break_continue,html.Screen,4_106_2,2023-11-01T20:11:27.729Z,,0,,,NaN,,,,,,false,,,,47303741,47303740.899999976,,47303740.69999999,,47303741.675,8,400,,,
sequence,flow.Sequence,4_106,2023-11-01T20:11:27.729Z,,0,,,3380.189999975264,completion,,,,,false,,,,47303741.19999999,47303740.899999976,47300344.055,47300359.69999999,47300360.71,47303741.675,8,400,,,
trial,html.Screen,4_107_0,2023-11-01T20:11:31.988Z,,0,3,,4258.724999979138,response,ISIC_0027641.JPG,6,ISIC_5320483.JPG,ISIC_5320483.JPG,false,0,keypress(z),500,47308000.80000001,47308000.399999976,47303725.02,47303741.30000001,47303741.675,47308005.755,8,400,8,,ISIC_0027641.JPG
break,html.Screen,4_107_1,2023-11-01T20:11:31.989Z,,0,,,NaN,,,,,,false,,,,47308001.899999976,47308001.5,,47308001.100000024,,47308005.755,8,400,,,
break_continue,html.Screen,4_107_2,2023-11-01T20:11:31.990Z,,0,,,NaN,,,,,,false,,,,47308002.30000001,47308002.19999999,,47308002,,47308005.755,8,400,,,
sequence,flow.Sequence,4_107,2023-11-01T20:11:31.990Z,,0,,,4260.524999991059,completion,,,,,false,,,,47308002.600000024,47308002.19999999,47303725.02,47303741.19999999,47303741.675,47308005.755,8,400,,,
trial,html.Screen,4_108_0,2023-11-01T20:11:35.593Z,,0,3,,3599.244999997318,response,ISIC_5336548.JPG,5,ISIC_2500254.JPG,ISIC_5336548.JPG,false,1,keypress(m),500,47311605.399999976,47311605,47307989.1,47308002.899999976,47308005.755,47311619.89,8,400,9,,ISIC_2500254.JPG
break,html.Screen,4_108_1,2023-11-01T20:11:35.594Z,,0,,,NaN,,,,,,false,,,,47311606.399999976,47311606.100000024,,47311605.600000024,,47311619.89,8,400,,,
break_continue,html.Screen,4_108_2,2023-11-01T20:11:35.594Z,,0,,,NaN,,,,,,false,,,,47311606.899999976,47311606.69999999,,47311606.600000024,,47311619.89,8,400,,,
sequence,flow.Sequence,4_108,2023-11-01T20:11:35.594Z,,0,,,3600.944999985397,completion,,,,,false,,,,47311607.100000024,47311606.69999999,47307989.1,47308002.69999999,47308005.755,47311619.89,8,400,,,
trial,html.Screen,4_109_0,2023-11-01T20:11:40.066Z,,0,3,,4458.210000023246,response,ISIC_9486313.JPG,9,ISIC_0063551.JPG,ISIC_9486313.JPG,false,1,keypress(m),500,47316078.600000024,47316078.100000024,47311603.235,47311607.30000001,47311619.89,47316083.836,8,400,10,,ISIC_0063551.JPG
break,html.Screen,4_109_1,2023-11-01T20:11:40.068Z,,0,,,NaN,,,,,,false,,,,47316080.399999976,47316080,,47316078.80000001,,47316083.836,8,400,,,
break_continue,html.Screen,4_109_2,2023-11-01T20:11:40.068Z,,0,,,NaN,,,,,,false,,,,47316081,47316080.80000001,,47316080.600000024,,47316083.836,8,400,,,
sequence,flow.Sequence,4_109,2023-11-01T20:11:40.069Z,,0,,,4460.910000011325,completion,,,,,false,,,,47316081.19999999,47316080.80000001,47311603.235,47311607.19999999,47311619.89,47316083.836,8,400,,,
trial,html.Screen,4_110_0,2023-11-01T20:11:43.292Z,,0,3,,3220.1639999970794,response,ISIC_3377082.JPG,7,ISIC_7136995.JPG,ISIC_7136995.JPG,false,0,keypress(z),500,47319305.19999999,47319304,47316067.181,47316081.399999976,47316083.836,47319314.906,8,400,11,,ISIC_3377082.JPG
break,html.Screen,4_110_1,2023-11-01T20:11:43.293Z,,0,,,NaN,,,,,,false,,,,47319306.100000024,47319305.899999976,,47319305.5,,47319314.906,8,400,,,
break_continue,html.Screen,4_110_2,2023-11-01T20:11:43.294Z,,0,,,NaN,,,,,,false,,,,47319306.69999999,47319306.5,,47319306.30000001,,47319314.906,8,400,,,
sequence,flow.Sequence,4_110,2023-11-01T20:11:43.294Z,,0,,,3222.6639999970794,completion,,,,,false,,,,47319306.80000001,47319306.5,47316067.181,47316081.399999976,47316083.836,47319314.906,8,400,,,
trial,html.Screen,4_111_0,2023-11-01T20:11:46.402Z,,0,3,,3099.4939999729395,response,ISIC_3652884.JPG,6,ISIC_0025499.JPG,ISIC_3652884.JPG,false,1,keypress(m),500,47322414.80000001,47322414.399999976,47319298.251,47319307,47319314.906,47322429.391,8,400,12,,ISIC_0025499.JPG
break,html.Screen,4_111_1,2023-11-01T20:11:46.403Z,,0,,,NaN,,,,,,false,,,,47322416.19999999,47322415.899999976,,47322415.19999999,,47322429.391,8,400,,,
break_continue,html.Screen,4_111_2,2023-11-01T20:11:46.404Z,,0,,,NaN,,,,,,false,,,,47322417,47322416.899999976,,47322416.600000024,,47322429.391,8,400,,,
sequence,flow.Sequence,4_111,2023-11-01T20:11:46.405Z,,0,,,3101.9939999729395,completion,,,,,false,,,,47322417.399999976,47322416.899999976,47319298.251,47319307,47319314.906,47322429.391,8,400,,,
trial,html.Screen,4_112_0,2023-11-01T20:11:52.138Z,,0,3,,5721.0089999735355,response,ISIC_0027104.JPG,5,ISIC_0071988.JPG,ISIC_0071988.JPG,false,0,keypress(z),500,47328150.80000001,47328150.399999976,47322412.736,47322417.5,47322429.391,47328159.099,8,400,13,,ISIC_0027104.JPG
break,html.Screen,4_112_1,2023-11-01T20:11:52.139Z,,0,,,NaN,,,,,,false,,,,47328151.69999999,47328151.5,,47328151.100000024,,47328159.099,8,400,,,
break_continue,html.Screen,4_112_2,2023-11-01T20:11:52.144Z,,0,,,NaN,,,,,,false,,,,47328156.5,47328154.600000024,,47328151.80000001,,47328159.099,8,400,,,
sequence,flow.Sequence,4_112,2023-11-01T20:11:52.144Z,,0,,,5725.209000021219,completion,,,,,false,,,,47328157,47328154.600000024,47322412.736,47322417.5,47322429.391,47328159.099,8,400,,,
trial,html.Screen,4_113_0,2023-11-01T20:11:56.358Z,,0,3,,4211.901000000536,response,ISIC_0014395.JPG,6,ISIC_2922104.JPG,ISIC_2922104.JPG,false,0,keypress(z),500,47332371.399999976,47332371,47328142.444,47328157.399999976,47328159.099,47332389.469,8,400,14,,ISIC_0014395.JPG
break,html.Screen,4_113_1,2023-11-01T20:11:56.360Z,,0,,,NaN,,,,,,false,,,,47332372.899999976,47332372.100000024,,47332371.600000024,,47332389.469,8,400,,,
break_continue,html.Screen,4_113_2,2023-11-01T20:11:56.360Z,,0,,,NaN,,,,,,false,,,,47332373.5,47332373.30000001,,47332373.100000024,,47332389.469,8,400,,,
sequence,flow.Sequence,4_113,2023-11-01T20:11:56.361Z,,0,,,4214.201000012457,completion,,,,,false,,,,47332373.80000001,47332373.30000001,47328142.444,47328157.19999999,47328159.099,47332389.469,8,400,,,
trial,html.Screen,4_114_0,2023-11-01T20:12:01.373Z,,0,3,,4995.83100001514,response,ISIC_0000429.JPG,8,ISIC_8752021.JPG,ISIC_0000429.JPG,false,1,keypress(m),500,47337385.80000001,47337385.30000001,47332372.814,47332373.899999976,47332389.469,47337403.036,8,400,15,,ISIC_8752021.JPG
break,html.Screen,4_114_1,2023-11-01T20:12:01.374Z,,0,,,NaN,,,,,,false,,,,47337387.100000024,47337386.69999999,,47337386.100000024,,47337403.036,8,400,,,
break_continue,html.Screen,4_114_2,2023-11-01T20:12:01.375Z,,0,,,NaN,,,,,,false,,,,47337387.899999976,47337387.600000024,,47337387.30000001,,47337403.036,8,400,,,
sequence,flow.Sequence,4_114,2023-11-01T20:12:01.375Z,,0,,,4998.1310000270605,completion,,,,,false,,,,47337388.100000024,47337387.600000024,47332372.814,47332373.899999976,47332389.469,47337403.036,8,400,,,
trial,html.Screen,4_115_0,2023-11-01T20:12:04.805Z,,0,3,,3414.163999989629,response,ISIC_5216586.JPG,5,ISIC_8637134.JPG,ISIC_8637134.JPG,false,0,keypress(z),500,47340817.69999999,47340817.19999999,47337386.381,47337388.399999976,47337403.036,47340833.966,8,400,16,,ISIC_5216586.JPG
break,html.Screen,4_115_1,2023-11-01T20:12:04.806Z,,0,,,NaN,,,,,,false,,,,47340818.80000001,47340818.5,,47340818,,47340833.966,8,400,,,
break_continue,html.Screen,4_115_2,2023-11-01T20:12:04.806Z,,0,,,NaN,,,,,,false,,,,47340819.30000001,47340819.100000024,,47340819,,47340833.966,8,400,,,
sequence,flow.Sequence,4_115,2023-11-01T20:12:04.806Z,,0,,,3416.0640000253916,completion,,,,,false,,,,47340819.5,47340819.100000024,47337386.381,47337388.30000001,47337403.036,47340833.966,8,400,,,
trial,html.Screen,4_116_0,2023-11-01T20:12:08.619Z,,0,3,,3798.0340000018477,response,ISIC_7323761.JPG,6,ISIC_2245709.JPG,ISIC_2245709.JPG,false,0,keypress(z),500,47344632.19999999,47344632,47340817.311,47340819.69999999,47340833.966,47344647.961,8,400,17,,ISIC_7323761.JPG
break,html.Screen,4_116_1,2023-11-01T20:12:08.620Z,,0,,,NaN,,,,,,false,,,,47344632.80000001,47344632.69999999,,47344632.399999976,,47344647.961,8,400,,,
break_continue,html.Screen,4_116_2,2023-11-01T20:12:08.620Z,,0,,,NaN,,,,,,false,,,,47344633.100000024,47344633,,47344632.899999976,,47344647.961,8,400,,,
sequence,flow.Sequence,4_116,2023-11-01T20:12:08.620Z,,0,,,3799.0340000018477,completion,,,,,false,,,,47344633.19999999,47344633,47340817.311,47340819.600000024,47340833.966,47344647.961,8,400,,,
trial,html.Screen,4_117_0,2023-11-01T20:12:11.557Z,,0,3,,2922.4389999732375,response,ISIC_0027993.JPG,8,ISIC_0059632.JPG,ISIC_0027993.JPG,false,1,keypress(m),500,47347570.69999999,47347570.399999976,47344631.306,47344633.399999976,47344647.961,47347579.623,8,400,18,,ISIC_0059632.JPG
break,html.Screen,4_117_1,2023-11-01T20:12:11.559Z,,0,,,NaN,,,,,,false,,,,47347571.80000001,47347571.5,,47347571,,47347579.623,8,400,,,
break_continue,html.Screen,4_117_2,2023-11-01T20:12:11.559Z,,0,,,NaN,,,,,,false,,,,47347572.19999999,47347572.100000024,,47347572,,47347579.623,8,400,,,
sequence,flow.Sequence,4_117,2023-11-01T20:12:11.559Z,,0,,,2924.1390000209212,completion,,,,,false,,,,47347572.5,47347572.100000024,47344631.306,47344633.399999976,47344647.961,47347579.623,8,400,,,
trial,html.Screen,4_118_0,2023-11-01T20:12:15.435Z,,0,3,,3868.6770000085235,response,ISIC_0528044.JPG,5,ISIC_0030481.JPG,ISIC_0030481.JPG,false,0,keypress(z),500,47351448.80000001,47351448.30000001,47347562.968,47347572.600000024,47347579.623,47351460.238,8,400,19,,ISIC_0528044.JPG
break,html.Screen,4_118_1,2023-11-01T20:12:15.436Z,,0,,,NaN,,,,,,false,,,,47351449.80000001,47351449.5,,47351449,,47351460.238,8,400,,,
break_continue,html.Screen,4_118_2,2023-11-01T20:12:15.437Z,,0,,,NaN,,,,,,false,,,,47351450.30000001,47351450.100000024,,47351449.899999976,,47351460.238,8,400,,,
sequence,flow.Sequence,4_118,2023-11-01T20:12:15.437Z,,0,,,3870.4770000204444,completion,,,,,false,,,,47351450.600000024,47351450.100000024,47347562.968,47347572.600000024,47347579.623,47351460.238,8,400,,,
trial,html.Screen,4_119_0,2023-11-01T20:12:20.948Z,,0,3,,5501.362000025809,response,ISIC_2778131.JPG,6,ISIC_4652186.JPG,ISIC_4652186.JPG,false,0,keypress(z),500,47356961.899999976,47356961.600000024,47351443.583,47351450.69999999,47351460.238,47356973.043,8,400,20,,ISIC_2778131.JPG
break,html.Screen,4_119_1,2023-11-01T20:12:20.949Z,,0,,,NaN,,,,,,false,,,,47356962.80000001,47356962.600000024,,47356962.19999999,,47356973.043,8,400,,,
break_continue,html.Screen,4_119_2,2023-11-01T20:12:20.950Z,,0,,,NaN,,,,,,false,,,,47356963.30000001,47356963.19999999,,47356963.100000024,,47356973.043,8,400,,,
sequence,flow.Sequence,4_119,2023-11-01T20:12:20.950Z,,0,,,5502.961999990046,completion,,,,,false,,,,47356963.5,47356963.19999999,47351443.583,47351450.600000024,47351460.238,47356973.043,8,400,,,
trial,html.Screen,4_120_0,2023-11-01T20:12:23.976Z,,0,3,,3016.257000014186,response,ISIC_0025835.JPG,8,ISIC_0011150.JPG,ISIC_0025835.JPG,false,1,keypress(m),500,47359989.600000024,47359989.30000001,47356956.388,47356963.69999999,47356973.043,47360004.641,8,400,21,,ISIC_0011150.JPG
break,html.Screen,4_120_1,2023-11-01T20:12:23.977Z,,0,,,NaN,,,,,,false,,,,47359990.80000001,47359990.30000001,,47359989.899999976,,47360004.641,8,400,,,
break_continue,html.Screen,4_120_2,2023-11-01T20:12:23.978Z,,0,,,NaN,,,,,,false,,,,47359991.600000024,47359991.30000001,,47359991.100000024,,47360004.641,8,400,,,
sequence,flow.Sequence,4_120,2023-11-01T20:12:23.978Z,,0,,,3018.257000014186,completion,,,,,false,,,,47359991.899999976,47359991.30000001,47356956.388,47356963.69999999,47356973.043,47360004.641,8,400,,,
trial,html.Screen,4_121_0,2023-11-01T20:12:27.008Z,,0,3,,3017.0589999854565,response,ISIC_9439742.JPG,7,ISIC_0065918.JPG,ISIC_9439742.JPG,false,1,keypress(m),500,47363022,47363021.69999999,47359987.986,47359992.100000024,47360004.641,47363035.851,8,400,22,,ISIC_0065918.JPG
break,html.Screen,4_121_1,2023-11-01T20:12:27.009Z,,0,,,NaN,,,,,,false,,,,47363023,47363022.69999999,,47363022.30000001,,47363035.851,8,400,,,
break_continue,html.Screen,4_121_2,2023-11-01T20:12:27.010Z,,0,,,NaN,,,,,,false,,,,47363023.600000024,47363023.399999976,,47363023.19999999,,47363035.851,8,400,,,
sequence,flow.Sequence,4_121,2023-11-01T20:12:27.010Z,,0,,,3018.7589999735355,completion,,,,,false,,,,47363023.80000001,47363023.399999976,47359987.986,47359992,47360004.641,47363035.851,8,400,,,
trial,html.Screen,4_122_0,2023-11-01T20:12:30.091Z,,0,3,,3067.9490000084043,response,ISIC_1534391.JPG,8,ISIC_0062234.JPG,ISIC_1534391.JPG,false,1,keypress(m),500,47366104.100000024,47366103.80000001,47363019.196,47363024.100000024,47363035.851,47366117.026,8,400,23,,ISIC_0062234.JPG
break,html.Screen,4_122_1,2023-11-01T20:12:30.092Z,,0,,,NaN,,,,,,false,,,,47366105.19999999,47366104.899999976,,47366104.399999976,,47366117.026,8,400,,,
