sender,sender_type,sender_id,timestamp,meta,,blockNo,condition,duration,ended_on,img_left,img_reveal,img_right,loser,practice,response,response_action,selection_duration,time_commit,time_end,time_render,time_run,time_show,time_switch,total_blocks,total_trials,trialNo,url,winner
informed_consent,html.Screen,0,2023-09-27T02:36:44.834Z,"{""labjs_version"":""20.2.4"",""labjs_build"":{""flavor"":""production"",""commit"":""f5b4a49f956347addd546a832a3327688c2c0fef""},""location"":""https://run.pavlovia.org/MurrayBennett/melanoma-2afc/?participant=67599&platform=sona"",""userAgent"":""Mozilla/5.0 (Macintosh; Intel Mac OS X 10_15_7) AppleWebKit/605.1.15 (KHTML, like Gecko) Version/16.4 Safari/605.1.15"",""platform"":""MacIntel"",""language"":""en-US"",""locale"":""en-US"",""timeZone"":""America/Chicago"",""timezoneOffset"":300,""screen_width"":1470,""screen_height"":956,""scroll_width"":1470,""scroll_height"":792,""window_innerWidth"":1470,""window_innerHeight"":840,""devicePixelRatio"":2}",,,,32013.000000000007,response,,,,,,consent,click button,,36069,36102.00000000001,4089,4086.9999999999995,4109,36093,,,,"{""participant"":""67599"",""platform"":""sona""}",
Welcome,html.Screen,1,2023-09-27T02:36:54.933Z,,,,asymmetry,10122,response,,,,,,continue,click button,,46167,46203,36081,36069,36093,46193,,,,,
trial,html.Screen,2_0_0,2023-09-27T02:37:06.444Z,,0,0,,11517,timeout,ISIC_6997061.JPG,,ISIC_0069348.JPG,,true,,,500,57678.00000000001,57677,46177,46168,46193,57710,1,6,1,,
sequence,flow.Sequence,2_0,2023-09-27T02:37:06.444Z,,0,,,11484,completion,,,,,true,,,,57679,57677,46177,46168,46193,57710,1,6,,,
trial,html.Screen,2_1_0,2023-09-27T02:37:11.809Z,,0,0,,5350,response,ISIC_0057368.JPG,,ISIC_0009529.JPG,ISIC_0009529.JPG,true,0,keypress(z),500,63043,63043,57693,57679,57710,63076,1,6,2,,ISIC_0057368.JPG
sequence,flow.Sequence,2_1,2023-09-27T02:37:11.809Z,,0,,,5333,completion,,,,,true,,,,63044.00000000001,63043,57693,57679,57710,63076,1,6,,,
trial,html.Screen,2_2_0,2023-09-27T02:37:16.021Z,,0,0,,4195,response,ISIC_9758671.JPG,,ISIC_0064954.JPG,ISIC_0064954.JPG,true,0,keypress(z),500,67255,67255,63060,63044.00000000001,63076,67293,1,6,3,,ISIC_9758671.JPG
sequence,flow.Sequence,2_2,2023-09-27T02:37:16.021Z,,0,,,4179,completion,,,,,true,,,,67256,67255,63060,63044.00000000001,63076,67293,1,6,,,
trial,html.Screen,2_3_0,2023-09-27T02:37:20.409Z,,0,0,,4366,response,ISIC_0000080.JPG,,ISIC_0005785.JPG,ISIC_0000080.JPG,true,1,keypress(m),500,71644,71643,67277,67256,67293,71677,1,6,4,,ISIC_0005785.JPG
sequence,flow.Sequence,2_3,2023-09-27T02:37:20.410Z,,0,,,4350,completion,,,,,true,,,,71644,71643,67277,67256,67293,71677,1,6,,,
trial,html.Screen,2_4_0,2023-09-27T02:37:23.738Z,,0,0,,3319,response,ISIC_7944028.JPG,,ISIC_5390060.JPG,ISIC_7944028.JPG,true,1,keypress(m),500,74979,74979,71660,71645,71677,75010,1,6,5,,ISIC_5390060.JPG
sequence,flow.Sequence,2_4,2023-09-27T02:37:23.739Z,,0,,,3302,completion,,,,,true,,,,74980,74979,71660,71645,71677,75010,1,6,,,
trial,html.Screen,2_5_0,2023-09-27T02:37:26.786Z,,0,0,,3040,response,ISIC_0010188.JPG,,ISIC_0794216.JPG,ISIC_0794216.JPG,true,0,keypress(z),500,78034,78033,74993,74980,75010,78060,1,6,6,,ISIC_0010188.JPG
sequence,flow.Sequence,2_5,2023-09-27T02:37:26.787Z,,0,,,3023,completion,,,,,true,,,,78034,78033,74993,74980,75010,78060,1,6,,,
loop,flow.Loop,2,2023-09-27T02:37:26.787Z,,,,,31840,completion,,,,,true,,,,78035,78033,46177,46168,46193,78060,1,6,,,
exp_instructions,html.Screen,3,2023-09-27T02:37:44.428Z,,,,,17719,response,,,,,,continue,keypress(Space),,95695.00000000001,95762,78043,78035,78060,95726,,,,,
trial,html.Screen,4_0_0,2023-09-27T02:37:49.126Z,,0,1,,4684,response,ISIC_0026475.JPG,8,ISIC_0065774.JPG,ISIC_0026475.JPG,false,1,keypress(m),500,100395,100394,95710,95695.00000000001,95726,100427,8,400,1,,ISIC_0065774.JPG
break,html.Screen,4_0_1,2023-09-27T02:37:49.127Z,,0,,,NaN,,,,,,false,,,,100396,100396,,100395,,100427,8,400,,,
break_continue,html.Screen,4_0_2,2023-09-27T02:37:49.128Z,,0,,,NaN,,,,,,false,,,,100397,100397,,100396,,100427,8,400,,,
sequence,flow.Sequence,4_0,2023-09-27T02:37:49.128Z,,0,,,4671,completion,,,,,false,,,,100397,100397,95710,95695.00000000001,95726,100427,8,400,,,
trial,html.Screen,4_1_0,2023-09-27T02:37:55.358Z,,0,1,,6218,response,ISIC_0057913.JPG,5,ISIC_0060148.JPG,ISIC_0057913.JPG,false,1,keypress(m),500,106629,106628,100410,100397,100427,106660,8,400,2,,ISIC_0060148.JPG
break,html.Screen,4_1_1,2023-09-27T02:37:55.360Z,,0,,,NaN,,,,,,false,,,,106631,106630,,106629,,106660,8,400,,,
break_continue,html.Screen,4_1_2,2023-09-27T02:37:55.360Z,,0,,,NaN,,,,,,false,,,,106631,106631,,106631,,106660,8,400,,,
sequence,flow.Sequence,4_1,2023-09-27T02:37:55.361Z,,0,,,6204,completion,,,,,false,,,,106632,106631,100410,100397,100427,106660,8,400,,,
trial,html.Screen,4_2_0,2023-09-27T02:38:00.818Z,,0,1,,5447,response,ISIC_2183722.JPG,4,ISIC_2056104.JPG,ISIC_2056104.JPG,false,0,keypress(z),500,112090,112090,106643,106632,106660,112126,8,400,3,,ISIC_2183722.JPG
break,html.Screen,4_2_1,2023-09-27T02:38:00.819Z,,0,,,NaN,,,,,,false,,,,112092,112092,,112091.00000000001,,112126,8,400,,,
break_continue,html.Screen,4_2_2,2023-09-27T02:38:00.820Z,,0,,,NaN,,,,,,false,,,,112092,112092,,112092,,112126,8,400,,,
sequence,flow.Sequence,4_2,2023-09-27T02:38:00.820Z,,0,,,5432,completion,,,,,false,,,,112092,112092,106643,106632,106660,112126,8,400,,,
trial,html.Screen,4_3_0,2023-09-27T02:38:03.861Z,,0,1,,3024,response,ISIC_0061705.JPG,6,ISIC_6440229.JPG,ISIC_0061705.JPG,false,1,keypress(m),500,115134,115134,112110,112093,112126,115160,8,400,4,,ISIC_6440229.JPG
break,html.Screen,4_3_1,2023-09-27T02:38:03.863Z,,0,,,NaN,,,,,,false,,,,115136,115136,,115135,,115160,8,400,,,
break_continue,html.Screen,4_3_2,2023-09-27T02:38:03.863Z,,0,,,NaN,,,,,,false,,,,115137,115136,,115136,,115160,8,400,,,
sequence,flow.Sequence,4_3,2023-09-27T02:38:03.864Z,,0,,,3010,completion,,,,,false,,,,115137,115136,112110,112093,112126,115160,8,400,,,
trial,html.Screen,4_4_0,2023-09-27T02:38:09.780Z,,0,1,,5911,response,ISIC_0000848.JPG,3,ISIC_0011437.JPG,ISIC_0000848.JPG,false,1,keypress(m),500,121054,121054,115143,115137,115160,121076,8,400,5,,ISIC_0011437.JPG
break,html.Screen,4_4_1,2023-09-27T02:38:09.781Z,,0,,,NaN,,,,,,false,,,,121055,121055,,121054,,121076,8,400,,,
break_continue,html.Screen,4_4_2,2023-09-27T02:38:09.782Z,,0,,,NaN,,,,,,false,,,,121056,121056,,121056,,121076,8,400,,,
sequence,flow.Sequence,4_4,2023-09-27T02:38:09.782Z,,0,,,5896,completion,,,,,false,,,,121056,121056,115143,115137,115160,121076,8,400,,,
trial,html.Screen,4_5_0,2023-09-27T02:38:13.299Z,,0,1,,3514.0000000000146,response,ISIC_6284012.JPG,11,ISIC_7125023.JPG,ISIC_7125023.JPG,false,0,keypress(z),500,124573.00000000001,124573.00000000001,121059,121056,121076,124610,8,400,6,,ISIC_6284012.JPG
break,html.Screen,4_5_1,2023-09-27T02:38:13.300Z,,0,,,NaN,,,,,,false,,,,124574,124574,,124574,,124610,8,400,,,
break_continue,html.Screen,4_5_2,2023-09-27T02:38:13.300Z,,0,,,NaN,,,,,,false,,,,124575,124575,,124575,,124610,8,400,,,
sequence,flow.Sequence,4_5,2023-09-27T02:38:13.300Z,,0,,,3499,completion,,,,,false,,,,124575,124575,121059,121056,121076,124610,8,400,,,
trial,html.Screen,4_6_0,2023-09-27T02:38:18.748Z,,0,1,,5430,response,ISIC_5816399.JPG,1,ISIC_7077047.JPG,ISIC_7077047.JPG,false,0,keypress(z),500,130023,130023,124593,124575,124610,130060,8,400,7,,ISIC_5816399.JPG
break,html.Screen,4_6_1,2023-09-27T02:38:18.749Z,,0,,,NaN,,,,,,false,,,,130024,130024,,130024,,130060,8,400,,,
break_continue,html.Screen,4_6_2,2023-09-27T02:38:18.750Z,,0,,,NaN,,,,,,false,,,,130025,130025,,130025,,130060,8,400,,,
sequence,flow.Sequence,4_6,2023-09-27T02:38:18.750Z,,0,,,5415,completion,,,,,false,,,,130025,130025,124593,124575,124610,130060,8,400,,,
trial,html.Screen,4_7_0,2023-09-27T02:38:24.575Z,,0,1,,5807,response,ISIC_0059041.JPG,6,ISIC_0000546.JPG,ISIC_0000546.JPG,false,0,keypress(z),500,135850,135850,130043,130025,130060,135876,8,400,8,,ISIC_0059041.JPG
break,html.Screen,4_7_1,2023-09-27T02:38:24.576Z,,0,,,NaN,,,,,,false,,,,135852,135852,,135851,,135876,8,400,,,
break_continue,html.Screen,4_7_2,2023-09-27T02:38:24.577Z,,0,,,NaN,,,,,,false,,,,135852,135852,,135852,,135876,8,400,,,
sequence,flow.Sequence,4_7,2023-09-27T02:38:24.577Z,,0,,,5792,completion,,,,,false,,,,135853,135852,130043,130025,130060,135876,8,400,,,
trial,html.Screen,4_8_0,2023-09-27T02:38:28.895Z,,0,1,,4310.000000000029,response,ISIC_6839272.JPG,7,ISIC_1254469.JPG,ISIC_1254469.JPG,false,0,keypress(z),500,140171,140170.00000000003,135860,135853,135876,140193,8,400,9,,ISIC_6839272.JPG
break,html.Screen,4_8_1,2023-09-27T02:38:28.896Z,,0,,,NaN,,,,,,false,,,,140172,140171,,140171,,140193,8,400,,,
break_continue,html.Screen,4_8_2,2023-09-27T02:38:28.896Z,,0,,,NaN,,,,,,false,,,,140172,140172,,140172,,140193,8,400,,,
sequence,flow.Sequence,4_8,2023-09-27T02:38:28.896Z,,0,,,4296,completion,,,,,false,,,,140172,140172,135860,135853,135876,140193,8,400,,,
trial,html.Screen,4_9_0,2023-09-27T02:38:34.723Z,,0,1,,5822,response,ISIC_7387061.JPG,7,ISIC_6384927.JPG,ISIC_7387061.JPG,false,1,keypress(m),500,145999,145998,140176,140172,140193,146026,8,400,10,,ISIC_6384927.JPG
break,html.Screen,4_9_1,2023-09-27T02:38:34.724Z,,0,,,NaN,,,,,,false,,,,146000,146000,,145999,,146026,8,400,,,
break_continue,html.Screen,4_9_2,2023-09-27T02:38:34.724Z,,0,,,NaN,,,,,,false,,,,146000,146000,,146000,,146026,8,400,,,
sequence,flow.Sequence,4_9,2023-09-27T02:38:34.724Z,,0,,,5807,completion,,,,,false,,,,146000,146000,140176,140172,140193,146026,8,400,,,
trial,html.Screen,4_10_0,2023-09-27T02:38:37.932Z,,0,1,,3198,response,ISIC_8205879.JPG,6,ISIC_0024235.JPG,ISIC_0024235.JPG,false,0,keypress(z),500,149208,149208,146010,146001,146026,149243,8,400,11,,ISIC_8205879.JPG
break,html.Screen,4_10_1,2023-09-27T02:38:37.933Z,,0,,,NaN,,,,,,false,,,,149209,149209,,149208,,149243,8,400,,,
break_continue,html.Screen,4_10_2,2023-09-27T02:38:37.934Z,,0,,,NaN,,,,,,false,,,,149210,149210,,149210,,149243,8,400,,,
sequence,flow.Sequence,4_10,2023-09-27T02:38:37.934Z,,0,,,3184,completion,,,,,false,,,,149210,149210,146010,146001,146026,149243,8,400,,,
trial,html.Screen,4_11_0,2023-09-27T02:38:43.069Z,,0,1,,5119,response,ISIC_0010879.JPG,8,ISIC_2658858.JPG,ISIC_0010879.JPG,false,1,keypress(m),500,154345,154345,149226,149210,149243,154376,8,400,12,,ISIC_2658858.JPG
break,html.Screen,4_11_1,2023-09-27T02:38:43.070Z,,0,,,NaN,,,,,,false,,,,154346,154346,,154345,,154376,8,400,,,
break_continue,html.Screen,4_11_2,2023-09-27T02:38:43.070Z,,0,,,NaN,,,,,,false,,,,154347,154346,,154346,,154376,8,400,,,
sequence,flow.Sequence,4_11,2023-09-27T02:38:43.070Z,,0,,,5103,completion,,,,,false,,,,154347,154346,149226,149210,149243,154376,8,400,,,
trial,html.Screen,4_12_0,2023-09-27T02:38:46.412Z,,0,1,,3328.000000000029,response,ISIC_7057495.JPG,5,ISIC_0060659.JPG,ISIC_0060659.JPG,false,0,keypress(z),500,157688.00000000003,157688.00000000003,154360,154347,154376,157726,8,400,13,,ISIC_7057495.JPG
break,html.Screen,4_12_1,2023-09-27T02:38:46.413Z,,0,,,NaN,,,,,,false,,,,157690,157689,,157689,,157726,8,400,,,
break_continue,html.Screen,4_12_2,2023-09-27T02:38:46.414Z,,0,,,NaN,,,,,,false,,,,157690,157690,,157690,,157726,8,400,,,
sequence,flow.Sequence,4_12,2023-09-27T02:38:46.414Z,,0,,,3314,completion,,,,,false,,,,157690,157690,154360,154347,154376,157726,8,400,,,
trial,html.Screen,4_13_0,2023-09-27T02:38:49.670Z,,0,1,,3236,response,ISIC_0271408.JPG,3,ISIC_0010321.JPG,ISIC_0271408.JPG,false,1,keypress(m),500,160946,160946,157710,157690,157726,160976,8,400,14,,ISIC_0010321.JPG
break,html.Screen,4_13_1,2023-09-27T02:38:49.671Z,,0,,,NaN,,,,,,false,,,,160947,160947,,160947,,160976,8,400,,,
break_continue,html.Screen,4_13_2,2023-09-27T02:38:49.671Z,,0,,,NaN,,,,,,false,,,,160948,160947,,160947,,160976,8,400,,,
sequence,flow.Sequence,4_13,2023-09-27T02:38:49.671Z,,0,,,3221,completion,,,,,false,,,,160948,160947,157710,157690,157726,160976,8,400,,,
trial,html.Screen,4_14_0,2023-09-27T02:38:53.973Z,,0,1,,4289,response,ISIC_4425657.JPG,6,ISIC_7904250.JPG,ISIC_4425657.JPG,false,1,keypress(m),500,165249,165249,160960,160948,160976,165276,8,400,15,,ISIC_7904250.JPG
break,html.Screen,4_14_1,2023-09-27T02:38:53.975Z,,0,,,NaN,,,,,,false,,,,165251,165251,,165250,,165276,8,400,,,
break_continue,html.Screen,4_14_2,2023-09-27T02:38:53.975Z,,0,,,NaN,,,,,,false,,,,165252,165252,,165252,,165276,8,400,,,
sequence,flow.Sequence,4_14,2023-09-27T02:38:53.975Z,,0,,,4276,completion,,,,,false,,,,165252,165252,160960,160948,160976,165276,8,400,,,
trial,html.Screen,4_15_0,2023-09-27T02:38:57.489Z,,0,1,,3505.000000000029,response,ISIC_0032492.JPG,15,ISIC_0067156.JPG,ISIC_0067156.JPG,false,0,keypress(z),500,168766,168765.00000000003,165260,165252,165276,168793,8,400,16,,ISIC_0032492.JPG
break,html.Screen,4_15_1,2023-09-27T02:38:57.490Z,,0,,,NaN,,,,,,false,,,,168767,168767,,168766,,168793,8,400,,,
break_continue,html.Screen,4_15_2,2023-09-27T02:38:57.491Z,,0,,,NaN,,,,,,false,,,,168767,168767,,168767,,168793,8,400,,,
sequence,flow.Sequence,4_15,2023-09-27T02:38:57.491Z,,0,,,3491,completion,,,,,false,,,,168768,168767,165260,165252,165276,168793,8,400,,,
trial,html.Screen,4_16_0,2023-09-27T02:39:01.502Z,,0,1,,4003,response,ISIC_0032033.JPG,5,ISIC_4728589.JPG,ISIC_4728589.JPG,false,0,keypress(z),500,172779,172779,168776,168768,168793,172810,8,400,17,,ISIC_0032033.JPG
break,html.Screen,4_16_1,2023-09-27T02:39:01.503Z,,0,,,NaN,,,,,,false,,,,172780,172780,,172779,,172810,8,400,,,
break_continue,html.Screen,4_16_2,2023-09-27T02:39:01.504Z,,0,,,NaN,,,,,,false,,,,172781,172781,,172780,,172810,8,400,,,
sequence,flow.Sequence,4_16,2023-09-27T02:39:01.504Z,,0,,,3988,completion,,,,,false,,,,172781,172781,168776,168768,168793,172810,8,400,,,
trial,html.Screen,4_17_0,2023-09-27T02:39:04.388Z,,0,1,,2871.000000000029,response,ISIC_5443837.JPG,6,ISIC_0057032.JPG,ISIC_0057032.JPG,false,0,keypress(z),500,175665,175664.00000000003,172793,172781,172810,175693,8,400,18,,ISIC_5443837.JPG
break,html.Screen,4_17_1,2023-09-27T02:39:04.389Z,,0,,,NaN,,,,,,false,,,,175666,175666,,175665,,175693,8,400,,,
break_continue,html.Screen,4_17_2,2023-09-27T02:39:04.389Z,,0,,,NaN,,,,,,false,,,,175666,175666,,175666,,175693,8,400,,,
sequence,flow.Sequence,4_17,2023-09-27T02:39:04.390Z,,0,,,2856,completion,,,,,false,,,,175666,175666,172793,172781,172810,175693,8,400,,,
trial,html.Screen,4_18_0,2023-09-27T02:39:08.981Z,,0,1,,4581,response,ISIC_0033121.JPG,4,ISIC_8436492.JPG,ISIC_8436492.JPG,false,0,keypress(z),500,180258,180257,175676,175667,175693,180292,8,400,19,,ISIC_0033121.JPG
break,html.Screen,4_18_1,2023-09-27T02:39:08.982Z,,0,,,NaN,,,,,,false,,,,180259,180259,,180258,,180292,8,400,,,
break_continue,html.Screen,4_18_2,2023-09-27T02:39:08.983Z,,0,,,NaN,,,,,,false,,,,180260,180260,,180260,,180292,8,400,,,
sequence,flow.Sequence,4_18,2023-09-27T02:39:08.983Z,,0,,,4567,completion,,,,,false,,,,180260,180260,175676,175667,175693,180292,8,400,,,
trial,html.Screen,4_19_0,2023-09-27T02:39:11.776Z,,0,1,,2777,response,ISIC_9792253.JPG,8,ISIC_0027060.JPG,ISIC_0027060.JPG,false,0,keypress(z),500,183053,183053,180276,180260,180292,183076,8,400,20,,ISIC_9792253.JPG
break,html.Screen,4_19_1,2023-09-27T02:39:11.777Z,,0,,,NaN,,,,,,false,,,,183054,183054,,183053,,183076,8,400,,,
break_continue,html.Screen,4_19_2,2023-09-27T02:39:11.777Z,,0,,,NaN,,,,,,false,,,,183054,183054,,183054,,183076,8,400,,,
sequence,flow.Sequence,4_19,2023-09-27T02:39:11.777Z,,0,,,2762,completion,,,,,false,,,,183054,183054,180276,180260,180292,183076,8,400,,,
trial,html.Screen,4_20_0,2023-09-27T02:39:14.861Z,,0,1,,3079,response,ISIC_0025382.JPG,7,ISIC_0058016.JPG,ISIC_0058016.JPG,false,0,keypress(z),500,186138,186138,183059,183054,183076,186159,8,400,21,,ISIC_0025382.JPG
break,html.Screen,4_20_1,2023-09-27T02:39:14.862Z,,0,,,NaN,,,,,,false,,,,186139,186139,,186138,,186159,8,400,,,
break_continue,html.Screen,4_20_2,2023-09-27T02:39:14.862Z,,0,,,NaN,,,,,,false,,,,186140.00000000003,186139,,186139,,186159,8,400,,,
sequence,flow.Sequence,4_20,2023-09-27T02:39:14.863Z,,0,,,3063,completion,,,,,false,,,,186140.00000000003,186139,183059,183054,183076,186159,8,400,,,
trial,html.Screen,4_21_0,2023-09-27T02:39:17.560Z,,0,1,,2694,response,ISIC_0062524.JPG,3,ISIC_0028418.JPG,ISIC_0062524.JPG,false,1,keypress(m),500,188837.00000000003,188836,186142,186140.00000000003,186159,188876,8,400,22,,ISIC_0028418.JPG
break,html.Screen,4_21_1,2023-09-27T02:39:17.561Z,,0,,,NaN,,,,,,false,,,,188838,188838,,188837.00000000003,,188876,8,400,,,
break_continue,html.Screen,4_21_2,2023-09-27T02:39:17.561Z,,0,,,NaN,,,,,,false,,,,188838,188838,,188838,,188876,8,400,,,
sequence,flow.Sequence,4_21,2023-09-27T02:39:17.561Z,,0,,,2679,completion,,,,,false,,,,188838,188838,186142,186140.00000000003,186159,188876,8,400,,,
trial,html.Screen,4_22_0,2023-09-27T02:39:21.148Z,,0,1,,3565,response,ISIC_9896801.JPG,1,ISIC_2784965.JPG,ISIC_9896801.JPG,false,1,keypress(m),500,192425,192424,188859,188838,188876,192459,8,400,23,,ISIC_2784965.JPG
break,html.Screen,4_22_1,2023-09-27T02:39:21.149Z,,0,,,NaN,,,,,,false,,,,192426.00000000003,192426.00000000003,,192425,,192459,8,400,,,
break_continue,html.Screen,4_22_2,2023-09-27T02:39:21.149Z,,0,,,NaN,,,,,,false,,,,192426.00000000003,192426.00000000003,,192426.00000000003,,192459,8,400,,,
sequence,flow.Sequence,4_22,2023-09-27T02:39:21.149Z,,0,,,3550.000000000029,completion,,,,,false,,,,192426.00000000003,192426.00000000003,188859,188838,188876,192459,8,400,,,
trial,html.Screen,4_23_0,2023-09-27T02:39:26.297Z,,0,1,,5131,response,ISIC_3812485.JPG,11,ISIC_0000239.JPG,ISIC_0000239.JPG,false,0,keypress(z),500,197575.00000000003,197574,192443,192426.00000000003,192459,197609,8,400,24,,ISIC_3812485.JPG
break,html.Screen,4_23_1,2023-09-27T02:39:26.298Z,,0,,,NaN,,,,,,false,,,,197576,197575.00000000003,,197575.00000000003,,197609,8,400,,,
break_continue,html.Screen,4_23_2,2023-09-27T02:39:26.299Z,,0,,,NaN,,,,,,false,,,,197576,197576,,197576,,197609,8,400,,,
sequence,flow.Sequence,4_23,2023-09-27T02:39:26.299Z,,0,,,5117,completion,,,,,false,,,,197576,197576,192443,192426.00000000003,192459,197609,8,400,,,
trial,html.Screen,4_24_0,2023-09-27T02:39:32.750Z,,0,1,,6434.000000000029,response,ISIC_0000279.JPG,4,ISIC_0007501.JPG,ISIC_0000279.JPG,false,1,keypress(m),500,204028,204027.00000000003,197593,197577,197609,204059,8,400,25,,ISIC_0007501.JPG
break,html.Screen,4_24_1,2023-09-27T02:39:32.752Z,,0,,,NaN,,,,,,false,,,,204029,204029,,204028,,204059,8,400,,,
break_continue,html.Screen,4_24_2,2023-09-27T02:39:32.752Z,,0,,,NaN,,,,,,false,,,,204030,204030,,204030,,204059,8,400,,,
sequence,flow.Sequence,4_24,2023-09-27T02:39:32.753Z,,0,,,6421,completion,,,,,false,,,,204030,204030,197593,197577,197609,204059,8,400,,,
trial,html.Screen,4_25_0,2023-09-27T02:39:36.379Z,,0,1,,3613,response,ISIC_0028275.JPG,6,ISIC_1870309.JPG,ISIC_0028275.JPG,false,1,keypress(m),500,207657,207656,204043,204030,204059,207676,8,400,26,,ISIC_1870309.JPG
break,html.Screen,4_25_1,2023-09-27T02:39:36.380Z,,0,,,NaN,,,,,,false,,,,207658.00000000003,207657,,207657,,207676,8,400,,,
break_continue,html.Screen,4_25_2,2023-09-27T02:39:36.380Z,,0,,,NaN,,,,,,false,,,,207658.00000000003,207658.00000000003,,207658.00000000003,,207676,8,400,,,
sequence,flow.Sequence,4_25,2023-09-27T02:39:36.380Z,,0,,,3599.000000000029,completion,,,,,false,,,,207658.00000000003,207658.00000000003,204043,204030,204059,207676,8,400,,,
trial,html.Screen,4_26_0,2023-09-27T02:39:39.753Z,,0,1,,3370,response,ISIC_0015035.JPG,10,ISIC_2071966.JPG,ISIC_2071966.JPG,false,0,keypress(z),500,211030,211030,207660,207658.00000000003,207676,211059,8,400,27,,ISIC_0015035.JPG
break,html.Screen,4_26_1,2023-09-27T02:39:39.754Z,,0,,,NaN,,,,,,false,,,,211032,211031,,211031,,211059,8,400,,,
break_continue,html.Screen,4_26_2,2023-09-27T02:39:39.754Z,,0,,,NaN,,,,,,false,,,,211032,211032,,211032,,211059,8,400,,,
sequence,flow.Sequence,4_26,2023-09-27T02:39:39.755Z,,0,,,3356,completion,,,,,false,,,,211032,211032,207660,207658.00000000003,207676,211059,8,400,,,
trial,html.Screen,4_27_0,2023-09-27T02:39:43.291Z,,0,1,,3526.000000000029,response,ISIC_7789452.JPG,7,ISIC_0005879.JPG,ISIC_0005879.JPG,false,0,keypress(z),500,214569.00000000003,214569.00000000003,211043,211033.00000000003,211059,214593,8,400,28,,ISIC_7789452.JPG
break,html.Screen,4_27_1,2023-09-27T02:39:43.292Z,,0,,,NaN,,,,,,false,,,,214570,214570,,214569.00000000003,,214593,8,400,,,
break_continue,html.Screen,4_27_2,2023-09-27T02:39:43.293Z,,0,,,NaN,,,,,,false,,,,214570,214570,,214570,,214593,8,400,,,
sequence,flow.Sequence,4_27,2023-09-27T02:39:43.293Z,,0,,,3511,completion,,,,,false,,,,214571,214570,211043,211032,211059,214593,8,400,,,
trial,html.Screen,4_28_0,2023-09-27T02:39:47.555Z,,0,1,,4257,response,ISIC_9317483.JPG,8,ISIC_4280835.JPG,ISIC_4280835.JPG,false,0,keypress(z),500,218833,218833,214576,214571,214593,218859,8,400,29,,ISIC_9317483.JPG
break,html.Screen,4_28_1,2023-09-27T02:39:47.556Z,,0,,,NaN,,,,,,false,,,,218834,218834,,218834,,218859,8,400,,,
break_continue,html.Screen,4_28_2,2023-09-27T02:39:47.557Z,,0,,,NaN,,,,,,false,,,,218835,218834,,218834,,218859,8,400,,,
sequence,flow.Sequence,4_28,2023-09-27T02:39:47.557Z,,0,,,4241,completion,,,,,false,,,,218835,218834,214576,214571,214593,218859,8,400,,,
trial,html.Screen,4_29_0,2023-09-27T02:39:53.545Z,,0,1,,5980,response,ISIC_0015023.JPG,6,ISIC_0867503.JPG,ISIC_0867503.JPG,false,0,keypress(z),500,224823,224823,218843,218835,218859,224843,8,400,30,,ISIC_0015023.JPG
break,html.Screen,4_29_1,2023-09-27T02:39:53.546Z,,0,,,NaN,,,,,,false,,,,224824,224824,,224824,,224843,8,400,,,
break_continue,html.Screen,4_29_2,2023-09-27T02:39:53.547Z,,0,,,NaN,,,,,,false,,,,224825.00000000003,224825.00000000003,,224824,,224843,8,400,,,
sequence,flow.Sequence,4_29,2023-09-27T02:39:53.547Z,,0,,,5966.000000000029,completion,,,,,false,,,,224825.00000000003,224825.00000000003,218843,218835,218859,224843,8,400,,,
trial,html.Screen,4_30_0,2023-09-27T02:39:56.962Z,,0,1,,3413,response,ISIC_6617618.JPG,6,ISIC_4884394.JPG,ISIC_6617618.JPG,false,1,keypress(m),500,228240,228240,224827,224825.00000000003,224843,228276,8,400,31,,ISIC_4884394.JPG
break,html.Screen,4_30_1,2023-09-27T02:39:56.963Z,,0,,,NaN,,,,,,false,,,,228241,228241,,228241,,228276,8,400,,,
break_continue,html.Screen,4_30_2,2023-09-27T02:39:56.964Z,,0,,,NaN,,,,,,false,,,,228242.00000000003,228242.00000000003,,228242.00000000003,,228276,8,400,,,
sequence,flow.Sequence,4_30,2023-09-27T02:39:56.964Z,,0,,,3399.000000000029,completion,,,,,false,,,,228242.00000000003,228242.00000000003,224827,224825.00000000003,224843,228276,8,400,,,
trial,html.Screen,4_31_0,2023-09-27T02:40:00.401Z,,0,1,,3420,response,ISIC_4890201.JPG,3,ISIC_0057286.JPG,ISIC_4890201.JPG,false,1,keypress(m),500,231680,231679,228259,228242.00000000003,228276,231709,8,400,32,,ISIC_0057286.JPG
break,html.Screen,4_31_1,2023-09-27T02:40:00.403Z,,0,,,NaN,,,,,,false,,,,231681,231680,,231680,,231709,8,400,,,
break_continue,html.Screen,4_31_2,2023-09-27T02:40:00.403Z,,0,,,NaN,,,,,,false,,,,231681,231681,,231681,,231709,8,400,,,
sequence,flow.Sequence,4_31,2023-09-27T02:40:00.403Z,,0,,,3405,completion,,,,,false,,,,231681,231681,228259,228242.00000000003,228276,231709,8,400,,,
trial,html.Screen,4_32_0,2023-09-27T02:40:03.466Z,,0,1,,3051,response,ISIC_0025759.JPG,5,ISIC_0027187.JPG,ISIC_0025759.JPG,false,1,keypress(m),500,234745,234744,231693,231681,231709,234776,8,400,33,,ISIC_0027187.JPG
break,html.Screen,4_32_1,2023-09-27T02:40:03.467Z,,0,,,NaN,,,,,,false,,,,234746,234745,,234745,,234776,8,400,,,
break_continue,html.Screen,4_32_2,2023-09-27T02:40:03.468Z,,0,,,NaN,,,,,,false,,,,234746,234746,,234746,,234776,8,400,,,
sequence,flow.Sequence,4_32,2023-09-27T02:40:03.468Z,,0,,,3037,completion,,,,,false,,,,234746,234746,231693,231681,231709,234776,8,400,,,
trial,html.Screen,4_33_0,2023-09-27T02:40:07.493Z,,0,1,,4012.000000000029,response,ISIC_2535541.JPG,1,ISIC_0024961.JPG,ISIC_0024961.JPG,false,0,keypress(z),500,238772,238771.00000000003,234759,234746,234776,238809,8,400,34,,ISIC_2535541.JPG
break,html.Screen,4_33_1,2023-09-27T02:40:07.495Z,,0,,,NaN,,,,,,false,,,,238773,238773,,238772,,238809,8,400,,,
break_continue,html.Screen,4_33_2,2023-09-27T02:40:07.495Z,,0,,,NaN,,,,,,false,,,,238774,238774,,238773,,238809,8,400,,,
sequence,flow.Sequence,4_33,2023-09-27T02:40:07.496Z,,0,,,3998,completion,,,,,false,,,,238774,238774,234759,234746,234776,238809,8,400,,,
trial,html.Screen,4_34_0,2023-09-27T02:40:11.083Z,,0,1,,3568.000000000029,response,ISIC_0031278.JPG,3,ISIC_8624186.JPG,ISIC_8624186.JPG,false,0,keypress(z),500,242361.00000000003,242361.00000000003,238793,238774,238809,242392,8,400,35,,ISIC_0031278.JPG
break,html.Screen,4_34_1,2023-09-27T02:40:11.084Z,,0,,,NaN,,,,,,false,,,,242362,242362,,242361.00000000003,,242392,8,400,,,
break_continue,html.Screen,4_34_2,2023-09-27T02:40:11.084Z,,0,,,NaN,,,,,,false,,,,242363,242362,,242362,,242392,8,400,,,
sequence,flow.Sequence,4_34,2023-09-27T02:40:11.084Z,,0,,,3553,completion,,,,,false,,,,242363,242362,238793,238774,238809,242392,8,400,,,
trial,html.Screen,4_35_0,2023-09-27T02:40:14.243Z,,0,1,,3145.000000000029,response,ISIC_0058151.JPG,5,ISIC_8060329.JPG,ISIC_8060329.JPG,false,0,keypress(z),500,245522,245521.00000000003,242376,242363,242392,245559,8,400,36,,ISIC_0058151.JPG
break,html.Screen,4_35_1,2023-09-27T02:40:14.245Z,,0,,,NaN,,,,,,false,,,,245523,245523,,245522,,245559,8,400,,,
break_continue,html.Screen,4_35_2,2023-09-27T02:40:14.245Z,,0,,,NaN,,,,,,false,,,,245523,245523,,245523,,245559,8,400,,,
sequence,flow.Sequence,4_35,2023-09-27T02:40:14.245Z,,0,,,3131,completion,,,,,false,,,,245524,245523,242376,242363,242392,245559,8,400,,,
trial,html.Screen,4_36_0,2023-09-27T02:40:17.080Z,,0,1,,2815,response,ISIC_0645454.JPG,6,ISIC_0033950.JPG,ISIC_0033950.JPG,false,0,keypress(z),500,248359,248358,245543,245524,245559,248393,8,400,37,,ISIC_0645454.JPG
break,html.Screen,4_36_1,2023-09-27T02:40:17.081Z,,0,,,NaN,,,,,,false,,,,248360,248359,,248359,,248393,8,400,,,
break_continue,html.Screen,4_36_2,2023-09-27T02:40:17.082Z,,0,,,NaN,,,,,,false,,,,248360,248360,,248360,,248393,8,400,,,
sequence,flow.Sequence,4_36,2023-09-27T02:40:17.082Z,,0,,,2801,completion,,,,,false,,,,248360,248360,245543,245524,245559,248393,8,400,,,
trial,html.Screen,4_37_0,2023-09-27T02:40:21.238Z,,0,1,,4140,response,ISIC_0014189.JPG,8,ISIC_0000531.JPG,ISIC_0000531.JPG,false,0,keypress(z),500,252517,252516,248376,248360,248393,252542,8,400,38,,ISIC_0014189.JPG
break,html.Screen,4_37_1,2023-09-27T02:40:21.239Z,,0,,,NaN,,,,,,false,,,,252517,252517,,252517,,252542,8,400,,,
break_continue,html.Screen,4_37_2,2023-09-27T02:40:21.239Z,,0,,,NaN,,,,,,false,,,,252518,252518,,252518,,252542,8,400,,,
sequence,flow.Sequence,4_37,2023-09-27T02:40:21.239Z,,0,,,4125,completion,,,,,false,,,,252518,252518,248376,248360,248393,252542,8,400,,,
trial,html.Screen,4_38_0,2023-09-27T02:40:24.316Z,,0,1,,3068,response,ISIC_7973598.JPG,1,ISIC_2328829.JPG,ISIC_2328829.JPG,false,0,keypress(z),500,255595,255594,252526,252518,252542,255626,8,400,39,,ISIC_7973598.JPG
break,html.Screen,4_38_1,2023-09-27T02:40:24.317Z,,0,,,NaN,,,,,,false,,,,255595,255595,,255595,,255626,8,400,,,
break_continue,html.Screen,4_38_2,2023-09-27T02:40:24.317Z,,0,,,NaN,,,,,,false,,,,255596,255596,,255596,,255626,8,400,,,
sequence,flow.Sequence,4_38,2023-09-27T02:40:24.317Z,,0,,,3054,completion,,,,,false,,,,255596,255596,252526,252518,252542,255626,8,400,,,
trial,html.Screen,4_39_0,2023-09-27T02:40:27.727Z,,0,1,,3396,response,ISIC_0056692.JPG,6,ISIC_0064936.JPG,ISIC_0064936.JPG,false,0,keypress(z),500,259005,259005,255609,255596,255626,259043,8,400,40,,ISIC_0056692.JPG
break,html.Screen,4_39_1,2023-09-27T02:40:27.728Z,,0,,,NaN,,,,,,false,,,,259007,259006.00000000003,,259006.00000000003,,259043,8,400,,,
break_continue,html.Screen,4_39_2,2023-09-27T02:40:27.728Z,,0,,,NaN,,,,,,false,,,,259007,259007,,259007,,259043,8,400,,,
sequence,flow.Sequence,4_39,2023-09-27T02:40:27.728Z,,0,,,3381,completion,,,,,false,,,,259007,259007,255609,255596,255626,259043,8,400,,,
trial,html.Screen,4_40_0,2023-09-27T02:40:30.923Z,,0,1,,3176,response,ISIC_0067170.JPG,4,ISIC_6963954.JPG,ISIC_6963954.JPG,false,0,keypress(z),500,262202,262202,259026,259007,259043,262226,8,400,41,,ISIC_0067170.JPG
break,html.Screen,4_40_1,2023-09-27T02:40:30.924Z,,0,,,NaN,,,,,,false,,,,262203.00000000006,262203.00000000006,,262202,,262226,8,400,,,
break_continue,html.Screen,4_40_2,2023-09-27T02:40:30.925Z,,0,,,NaN,,,,,,false,,,,262203.00000000006,262203.00000000006,,262203.00000000006,,262226,8,400,,,
sequence,flow.Sequence,4_40,2023-09-27T02:40:30.925Z,,0,,,3160.000000000058,completion,,,,,false,,,,262203.00000000006,262203.00000000006,259026,259007,259043,262226,8,400,,,
trial,html.Screen,4_41_0,2023-09-27T02:40:33.671Z,,0,1,,2741,response,ISIC_0033879.JPG,8,ISIC_0062162.JPG,ISIC_0033879.JPG,false,1,keypress(m),500,264950,264950,262209,262203.00000000006,262226,264976,8,400,42,,ISIC_0062162.JPG
break,html.Screen,4_41_1,2023-09-27T02:40:33.673Z,,0,,,NaN,,,,,,false,,,,264951,264951,,264951,,264976,8,400,,,
break_continue,html.Screen,4_41_2,2023-09-27T02:40:33.673Z,,0,,,NaN,,,,,,false,,,,264952,264952,,264952,,264976,8,400,,,
sequence,flow.Sequence,4_41,2023-09-27T02:40:33.673Z,,0,,,2726,completion,,,,,false,,,,264952,264952,262209,262203.00000000006,262226,264976,8,400,,,
trial,html.Screen,4_42_0,2023-09-27T02:40:37.288Z,,0,1,,3607.000000000058,response,ISIC_8127578.JPG,1,ISIC_4721599.JPG,ISIC_4721599.JPG,false,0,keypress(z),500,268567,268566.00000000006,264959,264952,264976,268593,8,400,43,,ISIC_8127578.JPG
break,html.Screen,4_42_1,2023-09-27T02:40:37.289Z,,0,,,NaN,,,,,,false,,,,268568,268568,,268567,,268593,8,400,,,
break_continue,html.Screen,4_42_2,2023-09-27T02:40:37.289Z,,0,,,NaN,,,,,,false,,,,268568,268568,,268568,,268593,8,400,,,
sequence,flow.Sequence,4_42,2023-09-27T02:40:37.290Z,,0,,,3592,completion,,,,,false,,,,268568,268568,264959,264952,264976,268593,8,400,,,
trial,html.Screen,4_43_0,2023-09-27T02:40:41.114Z,,0,1,,3816,response,ISIC_0011114.JPG,4,ISIC_0059294.JPG,ISIC_0011114.JPG,false,1,keypress(m),500,272393,272392,268576,268569,268593,272425,8,400,44,,ISIC_0059294.JPG
break,html.Screen,4_43_1,2023-09-27T02:40:41.115Z,,0,,,NaN,,,,,,false,,,,272394,272394,,272393,,272425,8,400,,,
break_continue,html.Screen,4_43_2,2023-09-27T02:40:41.116Z,,0,,,NaN,,,,,,false,,,,272395,272395,,272394,,272425,8,400,,,
sequence,flow.Sequence,4_43,2023-09-27T02:40:41.116Z,,0,,,3802,completion,,,,,false,,,,272395,272395,268576,268569,268593,272425,8,400,,,
trial,html.Screen,4_44_0,2023-09-27T02:40:44.290Z,,0,1,,3160,response,ISIC_3677945.JPG,3,ISIC_8096177.JPG,ISIC_8096177.JPG,false,0,keypress(z),500,275569,275569,272409,272395,272425,275592,8,400,45,,ISIC_3677945.JPG
break,html.Screen,4_44_1,2023-09-27T02:40:44.291Z,,0,,,NaN,,,,,,false,,,,275570,275570,,275569,,275592,8,400,,,
break_continue,html.Screen,4_44_2,2023-09-27T02:40:44.292Z,,0,,,NaN,,,,,,false,,,,275571,275571,,275570,,275592,8,400,,,
sequence,flow.Sequence,4_44,2023-09-27T02:40:44.292Z,,0,,,3146,completion,,,,,false,,,,275571,275571,272409,272395,272425,275592,8,400,,,
trial,html.Screen,4_45_0,2023-09-27T02:40:47.236Z,,0,1,,2940,response,ISIC_3871225.JPG,7,ISIC_0034061.JPG,ISIC_0034061.JPG,false,0,keypress(z),500,278515,278515,275575,275571,275592,278543,8,400,46,,ISIC_3871225.JPG
break,html.Screen,4_45_1,2023-09-27T02:40:47.237Z,,0,,,NaN,,,,,,false,,,,278516,278516,,278515,,278543,8,400,,,
break_continue,html.Screen,4_45_2,2023-09-27T02:40:47.237Z,,0,,,NaN,,,,,,false,,,,278516,278516,,278516,,278543,8,400,,,
sequence,flow.Sequence,4_45,2023-09-27T02:40:47.237Z,,0,,,2924,completion,,,,,false,,,,278516,278516,275575,275571,275592,278543,8,400,,,
trial,html.Screen,4_46_0,2023-09-27T02:40:50.808Z,,0,1,,3560,response,ISIC_5961619.JPG,6,ISIC_6548734.JPG,ISIC_6548734.JPG,false,0,keypress(z),500,282087,282086,278526,278516,278543,282109,8,400,47,,ISIC_5961619.JPG
break,html.Screen,4_46_1,2023-09-27T02:40:50.810Z,,0,,,NaN,,,,,,false,,,,282089,282088,,282088,,282109,8,400,,,
break_continue,html.Screen,4_46_2,2023-09-27T02:40:50.810Z,,0,,,NaN,,,,,,false,,,,282089,282089,,282089,,282109,8,400,,,
sequence,flow.Sequence,4_46,2023-09-27T02:40:50.810Z,,0,,,3546,completion,,,,,false,,,,282089,282089,278526,278516,278543,282109,8,400,,,
trial,html.Screen,4_47_0,2023-09-27T02:40:53.652Z,,0,1,,2839,response,ISIC_0031626.JPG,2,ISIC_0014082.JPG,ISIC_0031626.JPG,false,1,keypress(m),500,284931,284931,282092,282090.00000000006,282109,284959,8,400,48,,ISIC_0014082.JPG
break,html.Screen,4_47_1,2023-09-27T02:40:53.652Z,,0,,,NaN,,,,,,false,,,,284932,284931,,284931,,284959,8,400,,,
break_continue,html.Screen,4_47_2,2023-09-27T02:40:53.653Z,,0,,,NaN,,,,,,false,,,,284932,284932,,284932,,284959,8,400,,,
sequence,flow.Sequence,4_47,2023-09-27T02:40:53.653Z,,0,,,2823,completion,,,,,false,,,,284932,284932,282092,282089,282109,284959,8,400,,,
trial,html.Screen,4_48_0,2023-09-27T02:40:56.827Z,,0,1,,3163,response,ISIC_9448281.JPG,2,ISIC_0033154.JPG,ISIC_9448281.JPG,false,1,keypress(m),500,288106,288106,284943,284932,284959,288142,8,400,49,,ISIC_0033154.JPG
break,html.Screen,4_48_1,2023-09-27T02:40:56.829Z,,0,,,NaN,,,,,,false,,,,288108,288107,,288107,,288142,8,400,,,
break_continue,html.Screen,4_48_2,2023-09-27T02:40:56.829Z,,0,,,NaN,,,,,,false,,,,288109,288109,,288108,,288142,8,400,,,
sequence,flow.Sequence,4_48,2023-09-27T02:40:56.830Z,,0,,,3150,completion,,,,,false,,,,288109,288109,284943,284932,284959,288142,8,400,,,
trial,html.Screen,4_49_0,2023-09-27T02:41:00.157Z,,0,1,,3310,response,ISIC_3084213.JPG,8,ISIC_0281179.JPG,ISIC_0281179.JPG,false,0,keypress(z),500,291437,291436,288126,288109,288142,291459,8,400,50,,ISIC_3084213.JPG
break,html.Screen,4_49_1,2023-09-27T02:41:10.163Z,,0,,,10000,timeout,,,,,false,,,,301442,301442,291442,291437,291459,301459,8,400,,,
break_continue,html.Screen,4_49_2,2023-09-27T02:41:40.792Z,,0,,,30707,response,,,,,false,continue,keypress(Space),,332072,332149,301442,301443,301459,332108,8,400,,,
sequence,flow.Sequence,4_49,2023-09-27T02:41:40.792Z,,0,,,44007,completion,,,,,false,,,,332072,332149,288126,288109,288142,332108,8,400,,,
trial,html.Screen,4_50_0,2023-09-27T02:41:45.898Z,,0,2,,5087,response,ISIC_0010746.JPG,11,ISIC_3530422.JPG,ISIC_3530422.JPG,false,0,keypress(z),500,337178,337178,332091,332072,332108,337209,8,400,1,,ISIC_0010746.JPG
break,html.Screen,4_50_1,2023-09-27T02:41:45.899Z,,0,,,NaN,,,,,,false,,,,337180,337179.00000000006,,337179.00000000006,,337209,8,400,,,
break_continue,html.Screen,4_50_2,2023-09-27T02:41:45.900Z,,0,,,NaN,,,,,,false,,,,337180,337180,,337180,,337209,8,400,,,
sequence,flow.Sequence,4_50,2023-09-27T02:41:45.900Z,,0,,,5072,completion,,,,,false,,,,337180,337180,332091,332072,332108,337209,8,400,,,
trial,html.Screen,4_51_0,2023-09-27T02:41:49.358Z,,0,2,,3447.000000000058,response,ISIC_0749263.JPG,4,ISIC_0057762.JPG,ISIC_0749263.JPG,false,1,keypress(m),500,340638.00000000006,340638.00000000006,337191,337180,337209,340676,8,400,2,,ISIC_0057762.JPG
break,html.Screen,4_51_1,2023-09-27T02:41:49.359Z,,0,,,NaN,,,,,,false,,,,340640,340639,,340639,,340676,8,400,,,
break_continue,html.Screen,4_51_2,2023-09-27T02:41:49.360Z,,0,,,NaN,,,,,,false,,,,340640,340640,,340640,,340676,8,400,,,
sequence,flow.Sequence,4_51,2023-09-27T02:41:49.360Z,,0,,,3431,completion,,,,,false,,,,340640,340640,337191,337180,337209,340676,8,400,,,
trial,html.Screen,4_52_0,2023-09-27T02:41:53.716Z,,0,2,,4336,response,ISIC_9267202.JPG,3,ISIC_1331993.JPG,ISIC_1331993.JPG,false,0,keypress(z),500,344996,344995,340659,340641,340676,345025,8,400,3,,ISIC_9267202.JPG
break,html.Screen,4_52_1,2023-09-27T02:41:53.717Z,,0,,,NaN,,,,,,false,,,,344997,344997,,344996,,345025,8,400,,,
break_continue,html.Screen,4_52_2,2023-09-27T02:41:53.717Z,,0,,,NaN,,,,,,false,,,,344998,344997,,344997,,345025,8,400,,,
sequence,flow.Sequence,4_52,2023-09-27T02:41:53.717Z,,0,,,4321,completion,,,,,false,,,,344998,344997,340659,340640,340676,345025,8,400,,,
trial,html.Screen,4_53_0,2023-09-27T02:41:57.069Z,,0,2,,3340,response,ISIC_9989936.JPG,4,ISIC_0025379.JPG,ISIC_0025379.JPG,false,0,keypress(z),500,348350,348349,345009,344998,345025,348375,8,400,4,,ISIC_9989936.JPG
break,html.Screen,4_53_1,2023-09-27T02:41:57.070Z,,0,,,NaN,,,,,,false,,,,348351,348350,,348350,,348375,8,400,,,
break_continue,html.Screen,4_53_2,2023-09-27T02:41:57.070Z,,0,,,NaN,,,,,,false,,,,348351,348351,,348351,,348375,8,400,,,
sequence,flow.Sequence,4_53,2023-09-27T02:41:57.071Z,,0,,,3326,completion,,,,,false,,,,348351,348351,345009,344998,345025,348375,8,400,,,
trial,html.Screen,4_54_0,2023-09-27T02:41:59.874Z,,0,2,,2795,response,ISIC_0067653.JPG,7,ISIC_0033452.JPG,ISIC_0033452.JPG,false,0,keypress(z),500,351155.00000000006,351154,348359,348351,348375,351192,8,400,5,,ISIC_0067653.JPG
break,html.Screen,4_54_1,2023-09-27T02:41:59.875Z,,0,,,NaN,,,,,,false,,,,351156,351156,,351155.00000000006,,351192,8,400,,,
break_continue,html.Screen,4_54_2,2023-09-27T02:41:59.876Z,,0,,,NaN,,,,,,false,,,,351156,351156,,351156,,351192,8,400,,,
sequence,flow.Sequence,4_54,2023-09-27T02:41:59.876Z,,0,,,2781,completion,,,,,false,,,,351156,351156,348359,348351,348375,351192,8,400,,,
trial,html.Screen,4_55_0,2023-09-27T02:42:04.841Z,,0,2,,4945,response,ISIC_4187627.JPG,3,ISIC_9066201.JPG,ISIC_9066201.JPG,false,0,keypress(z),500,356121,356120,351175,351157,351192,356159,8,400,6,,ISIC_4187627.JPG
break,html.Screen,4_55_1,2023-09-27T02:42:04.842Z,,0,,,NaN,,,,,,false,,,,356123,356122,,356121,,356159,8,400,,,
break_continue,html.Screen,4_55_2,2023-09-27T02:42:04.843Z,,0,,,NaN,,,,,,false,,,,356123,356123,,356123,,356159,8,400,,,
sequence,flow.Sequence,4_55,2023-09-27T02:42:04.843Z,,0,,,4931,completion,,,,,false,,,,356124,356123,351175,351157,351192,356159,8,400,,,
trial,html.Screen,4_56_0,2023-09-27T02:42:08.285Z,,0,2,,3424.000000000058,response,ISIC_4596803.JPG,3,ISIC_8366864.JPG,ISIC_4596803.JPG,false,1,keypress(m),500,359566.00000000006,359566.00000000006,356142,356124,356159,359592,8,400,7,,ISIC_8366864.JPG
break,html.Screen,4_56_1,2023-09-27T02:42:08.286Z,,0,,,NaN,,,,,,false,,,,359567,359567,,359566.00000000006,,359592,8,400,,,
break_continue,html.Screen,4_56_2,2023-09-27T02:42:08.287Z,,0,,,NaN,,,,,,false,,,,359567,359567,,359567,,359592,8,400,,,
sequence,flow.Sequence,4_56,2023-09-27T02:42:08.287Z,,0,,,3408,completion,,,,,false,,,,359568,359567,356142,356124,356159,359592,8,400,,,
trial,html.Screen,4_57_0,2023-09-27T02:42:11.726Z,,0,2,,3432,response,ISIC_0011051.JPG,6,ISIC_8447658.JPG,ISIC_0011051.JPG,false,1,keypress(m),500,363007,363007,359575,359568,359592,363042,8,400,8,,ISIC_8447658.JPG
break,html.Screen,4_57_1,2023-09-27T02:42:11.727Z,,0,,,NaN,,,,,,false,,,,363008,363008,,363007,,363042,8,400,,,
break_continue,html.Screen,4_57_2,2023-09-27T02:42:11.728Z,,0,,,NaN,,,,,,false,,,,363008,363008,,363008,,363042,8,400,,,
sequence,flow.Sequence,4_57,2023-09-27T02:42:11.728Z,,0,,,3416,completion,,,,,false,,,,363008,363008,359575,359568,359592,363042,8,400,,,
trial,html.Screen,4_58_0,2023-09-27T02:42:14.879Z,,0,2,,3134,response,ISIC_2241755.JPG,10,ISIC_9625295.JPG,ISIC_2241755.JPG,false,1,keypress(m),500,366160,366160,363026,363009,363042,366192,8,400,9,,ISIC_9625295.JPG
break,html.Screen,4_58_1,2023-09-27T02:42:14.881Z,,0,,,NaN,,,,,,false,,,,366161,366161,,366161,,366192,8,400,,,
break_continue,html.Screen,4_58_2,2023-09-27T02:42:14.881Z,,0,,,NaN,,,,,,false,,,,366162.00000000006,366162.00000000006,,366162.00000000006,,366192,8,400,,,
sequence,flow.Sequence,4_58,2023-09-27T02:42:14.881Z,,0,,,3120.000000000058,completion,,,,,false,,,,366162.00000000006,366162.00000000006,363026,363009,363042,366192,8,400,,,
trial,html.Screen,4_59_0,2023-09-27T02:42:17.552Z,,0,2,,2657,response,ISIC_7137995.JPG,6,ISIC_0055086.JPG,ISIC_0055086.JPG,false,0,keypress(z),500,368832,368832,366175,366162.00000000006,366192,368858,8,400,10,,ISIC_7137995.JPG
break,html.Screen,4_59_1,2023-09-27T02:42:17.553Z,,0,,,NaN,,,,,,false,,,,368833,368833,,368833,,368858,8,400,,,
break_continue,html.Screen,4_59_2,2023-09-27T02:42:17.553Z,,0,,,NaN,,,,,,false,,,,368834,368834,,368834,,368858,8,400,,,
sequence,flow.Sequence,4_59,2023-09-27T02:42:17.553Z,,0,,,2642,completion,,,,,false,,,,368834,368834,366175,366162.00000000006,366192,368858,8,400,,,
trial,html.Screen,4_60_0,2023-09-27T02:42:20.929Z,,0,2,,3367,response,ISIC_0029652.JPG,4,ISIC_0032561.JPG,ISIC_0032561.JPG,false,0,keypress(z),500,372210,372209,368842,368834,368858,372242,8,400,11,,ISIC_0029652.JPG
break,html.Screen,4_60_1,2023-09-27T02:42:20.930Z,,0,,,NaN,,,,,,false,,,,372211,372211,,372210,,372242,8,400,,,
break_continue,html.Screen,4_60_2,2023-09-27T02:42:20.930Z,,0,,,NaN,,,,,,false,,,,372211,372211,,372211,,372242,8,400,,,
sequence,flow.Sequence,4_60,2023-09-27T02:42:20.930Z,,0,,,3353,completion,,,,,false,,,,372211,372211,368842,368834,368858,372242,8,400,,,
trial,html.Screen,4_61_0,2023-09-27T02:42:25.010Z,,0,2,,4065,response,ISIC_0003703.JPG,3,ISIC_0009510.JPG,ISIC_0009510.JPG,false,0,keypress(z),500,376291,376290,372225,372211,372242,376309,8,400,12,,ISIC_0003703.JPG
break,html.Screen,4_61_1,2023-09-27T02:42:25.011Z,,0,,,NaN,,,,,,false,,,,376292.00000000006,376291,,376291,,376309,8,400,,,
break_continue,html.Screen,4_61_2,2023-09-27T02:42:25.011Z,,0,,,NaN,,,,,,false,,,,376292.00000000006,376292.00000000006,,376292.00000000006,,376309,8,400,,,
sequence,flow.Sequence,4_61,2023-09-27T02:42:25.011Z,,0,,,4050.000000000058,completion,,,,,false,,,,376292.00000000006,376292.00000000006,372225,372211,372242,376309,8,400,,,
trial,html.Screen,4_62_0,2023-09-27T02:42:29.515Z,,0,2,,4502,response,ISIC_0033681.JPG,10,ISIC_0032629.JPG,ISIC_0033681.JPG,false,1,keypress(m),500,380796,380796,376294,376292.00000000006,376309,380825,8,400,13,,ISIC_0032629.JPG
break,html.Screen,4_62_1,2023-09-27T02:42:29.516Z,,0,,,NaN,,,,,,false,,,,380797,380797,,380797,,380825,8,400,,,
break_continue,html.Screen,4_62_2,2023-09-27T02:42:29.517Z,,0,,,NaN,,,,,,false,,,,380798,380797,,380797,,380825,8,400,,,
sequence,flow.Sequence,4_62,2023-09-27T02:42:29.517Z,,0,,,4488,completion,,,,,false,,,,380798,380797,376294,376292.00000000006,376309,380825,8,400,,,
trial,html.Screen,4_63_0,2023-09-27T02:42:33.814Z,,0,2,,4286,response,ISIC_0609067.JPG,4,ISIC_0028906.JPG,ISIC_0028906.JPG,false,0,keypress(z),500,385095,385095,380809,380798,380825,385125,8,400,14,,ISIC_0609067.JPG
break,html.Screen,4_63_1,2023-09-27T02:42:33.815Z,,0,,,NaN,,,,,,false,,,,385096,385096,,385096,,385125,8,400,,,
break_continue,html.Screen,4_63_2,2023-09-27T02:42:33.816Z,,0,,,NaN,,,,,,false,,,,385097,385097,,385097,,385125,8,400,,,
sequence,flow.Sequence,4_63,2023-09-27T02:42:33.816Z,,0,,,4272,completion,,,,,false,,,,385097,385097,380809,380798,380825,385125,8,400,,,
trial,html.Screen,4_64_0,2023-09-27T02:42:38.126Z,,0,2,,4297,response,ISIC_0005879.JPG,16,ISIC_1632696.JPG,ISIC_0005879.JPG,false,1,keypress(m),500,389407,389406,385109,385097,385125,389442,8,400,15,,ISIC_1632696.JPG
break,html.Screen,4_64_1,2023-09-27T02:42:38.127Z,,0,,,NaN,,,,,,false,,,,389408,389408,,389407,,389442,8,400,,,
break_continue,html.Screen,4_64_2,2023-09-27T02:42:38.127Z,,0,,,NaN,,,,,,false,,,,389408,389408,,389408,,389442,8,400,,,
sequence,flow.Sequence,4_64,2023-09-27T02:42:38.127Z,,0,,,4283,completion,,,,,false,,,,389408,389408,385109,385097,385125,389442,8,400,,,
trial,html.Screen,4_65_0,2023-09-27T02:42:41.364Z,,0,2,,3219,response,ISIC_7587513.JPG,5,ISIC_0056413.JPG,ISIC_7587513.JPG,false,1,keypress(m),500,392645,392644,389425,389409,389442,392675,8,400,16,,ISIC_0056413.JPG
break,html.Screen,4_65_1,2023-09-27T02:42:41.365Z,,0,,,NaN,,,,,,false,,,,392646,392646,,392645,,392675,8,400,,,
break_continue,html.Screen,4_65_2,2023-09-27T02:42:41.365Z,,0,,,NaN,,,,,,false,,,,392647,392647,,392646,,392675,8,400,,,
sequence,flow.Sequence,4_65,2023-09-27T02:42:41.365Z,,0,,,3205,completion,,,,,false,,,,392647,392647,389425,389409,389442,392675,8,400,,,
trial,html.Screen,4_66_0,2023-09-27T02:42:44.717Z,,0,2,,3339,response,ISIC_9103090.JPG,7,ISIC_5964173.JPG,ISIC_5964173.JPG,false,0,keypress(z),500,395999,395998,392659,392647,392675,396025,8,400,17,,ISIC_9103090.JPG
break,html.Screen,4_66_1,2023-09-27T02:42:44.719Z,,0,,,NaN,,,,,,false,,,,396000,396000,,395999,,396025,8,400,,,
break_continue,html.Screen,4_66_2,2023-09-27T02:42:44.719Z,,0,,,NaN,,,,,,false,,,,396000,396000,,396000,,396025,8,400,,,
sequence,flow.Sequence,4_66,2023-09-27T02:42:44.719Z,,0,,,3325,completion,,,,,false,,,,396001.00000000006,396000,392659,392647,392675,396025,8,400,,,
trial,html.Screen,4_67_0,2023-09-27T02:42:48.162Z,,0,2,,3434,response,ISIC_0011505.JPG,8,ISIC_0033464.JPG,ISIC_0033464.JPG,false,0,keypress(z),500,399443,399443,396009,396001.00000000006,396025,399474,8,400,18,,ISIC_0011505.JPG
break,html.Screen,4_67_1,2023-09-27T02:42:48.163Z,,0,,,NaN,,,,,,false,,,,399444,399444,,399444,,399474,8,400,,,
break_continue,html.Screen,4_67_2,2023-09-27T02:42:48.163Z,,0,,,NaN,,,,,,false,,,,399444,399444,,399444,,399474,8,400,,,
sequence,flow.Sequence,4_67,2023-09-27T02:42:48.163Z,,0,,,3419,completion,,,,,false,,,,399445,399444,396009,396001.00000000006,396025,399474,8,400,,,
trial,html.Screen,4_68_0,2023-09-27T02:42:53.978Z,,0,2,,5801,response,ISIC_1922084.JPG,2,ISIC_0013096.JPG,ISIC_0013096.JPG,false,0,keypress(z),500,405260,405259,399458,399445,399474,405292,8,400,19,,ISIC_1922084.JPG
break,html.Screen,4_68_1,2023-09-27T02:42:53.979Z,,0,,,NaN,,,,,,false,,,,405260,405260,,405260,,405292,8,400,,,
break_continue,html.Screen,4_68_2,2023-09-27T02:42:53.979Z,,0,,,NaN,,,,,,false,,,,405261,405261,,405261,,405292,8,400,,,
sequence,flow.Sequence,4_68,2023-09-27T02:42:53.979Z,,0,,,5787,completion,,,,,false,,,,405261,405261,399458,399445,399474,405292,8,400,,,
trial,html.Screen,4_69_0,2023-09-27T02:42:57.196Z,,0,2,,3202.000000000058,response,ISIC_1037945.JPG,8,ISIC_0012160.JPG,ISIC_1037945.JPG,false,1,keypress(m),500,408478,408477.00000000006,405275,405261,405292,408509,8,400,20,,ISIC_0012160.JPG
break,html.Screen,4_69_1,2023-09-27T02:42:57.198Z,,0,,,NaN,,,,,,false,,,,408479,408479,,408478,,408509,8,400,,,
break_continue,html.Screen,4_69_2,2023-09-27T02:42:57.198Z,,0,,,NaN,,,,,,false,,,,408480,408480,,408479,,408509,8,400,,,
sequence,flow.Sequence,4_69,2023-09-27T02:42:57.198Z,,0,,,3188,completion,,,,,false,,,,408480,408480,405275,405261,405292,408509,8,400,,,
trial,html.Screen,4_70_0,2023-09-27T02:43:01.616Z,,0,2,,4405,response,ISIC_0032784.JPG,5,ISIC_3544821.JPG,ISIC_3544821.JPG,false,0,keypress(z),500,412897,412897,408492,408480,408509,412924,8,400,21,,ISIC_0032784.JPG
break,html.Screen,4_70_1,2023-09-27T02:43:01.617Z,,0,,,NaN,,,,,,false,,,,412898,412898,,412898,,412924,8,400,,,
break_continue,html.Screen,4_70_2,2023-09-27T02:43:01.617Z,,0,,,NaN,,,,,,false,,,,412899,412899,,412899,,412924,8,400,,,
sequence,flow.Sequence,4_70,2023-09-27T02:43:01.617Z,,0,,,4390,completion,,,,,false,,,,412899,412899,408492,408480,408509,412924,8,400,,,
trial,html.Screen,4_71_0,2023-09-27T02:43:05.554Z,,0,2,,3926.000000000058,response,ISIC_1258986.JPG,6,ISIC_1254469.JPG,ISIC_1254469.JPG,false,0,keypress(z),500,416835.00000000006,416835.00000000006,412909,412899,412924,416859,8,400,22,,ISIC_1258986.JPG
break,html.Screen,4_71_1,2023-09-27T02:43:05.555Z,,0,,,NaN,,,,,,false,,,,416836,416836,,416836,,416859,8,400,,,
break_continue,html.Screen,4_71_2,2023-09-27T02:43:05.555Z,,0,,,NaN,,,,,,false,,,,416837,416837,,416837,,416859,8,400,,,
sequence,flow.Sequence,4_71,2023-09-27T02:43:05.555Z,,0,,,3913,completion,,,,,false,,,,416837,416837,412909,412899,412924,416859,8,400,,,
trial,html.Screen,4_72_0,2023-09-27T02:43:09.034Z,,0,2,,3474,response,ISIC_7803114.JPG,4,ISIC_0033953.JPG,ISIC_0033953.JPG,false,0,keypress(z),500,420316.00000000006,420315,416841,416837,416859,420342,8,400,23,,ISIC_7803114.JPG
break,html.Screen,4_72_1,2023-09-27T02:43:09.035Z,,0,,,NaN,,,,,,false,,,,420317,420317,,420316.00000000006,,420342,8,400,,,
break_continue,html.Screen,4_72_2,2023-09-27T02:43:09.036Z,,0,,,NaN,,,,,,false,,,,420318,420318,,420317,,420342,8,400,,,
sequence,flow.Sequence,4_72,2023-09-27T02:43:09.036Z,,0,,,3459,completion,,,,,false,,,,420318,420318,416841,416837,416859,420342,8,400,,,
trial,html.Screen,4_73_0,2023-09-27T02:43:12.207Z,,0,2,,3164.000000000058,response,ISIC_0064026.JPG,6,ISIC_0069918.JPG,ISIC_0069918.JPG,false,0,keypress(z),500,423489.00000000006,423489.00000000006,420325,420318,420342,423525,8,400,24,,ISIC_0064026.JPG
break,html.Screen,4_73_1,2023-09-27T02:43:12.208Z,,0,,,NaN,,,,,,false,,,,423490,423490,,423490,,423525,8,400,,,
break_continue,html.Screen,4_73_2,2023-09-27T02:43:12.209Z,,0,,,NaN,,,,,,false,,,,423491,423491,,423490,,423525,8,400,,,
sequence,flow.Sequence,4_73,2023-09-27T02:43:12.209Z,,0,,,3149,completion,,,,,false,,,,423491,423491,420325,420318,420342,423525,8,400,,,
trial,html.Screen,4_74_0,2023-09-27T02:43:16.026Z,,0,2,,3800,response,ISIC_0059571.JPG,7,ISIC_0030080.JPG,ISIC_0059571.JPG,false,1,keypress(m),500,427308,427308,423508,423491,423525,427342,8,400,25,,ISIC_0030080.JPG
break,html.Screen,4_74_1,2023-09-27T02:43:16.027Z,,0,,,NaN,,,,,,false,,,,427309,427309,,427309,,427342,8,400,,,
break_continue,html.Screen,4_74_2,2023-09-27T02:43:16.028Z,,0,,,NaN,,,,,,false,,,,427310,427310,,427310,,427342,8,400,,,
sequence,flow.Sequence,4_74,2023-09-27T02:43:16.028Z,,0,,,3785,completion,,,,,false,,,,427310,427310,423508,423491,423525,427342,8,400,,,
trial,html.Screen,4_75_0,2023-09-27T02:43:20.248Z,,0,2,,4204,response,ISIC_6983970.JPG,4,ISIC_0014325.JPG,ISIC_6983970.JPG,false,1,keypress(m),500,431530.00000000006,431529,427325,427310,427342,431558,8,400,26,,ISIC_0014325.JPG
break,html.Screen,4_75_1,2023-09-27T02:43:20.249Z,,0,,,NaN,,,,,,false,,,,431531,431530.00000000006,,431530.00000000006,,431558,8,400,,,
break_continue,html.Screen,4_75_2,2023-09-27T02:43:20.249Z,,0,,,NaN,,,,,,false,,,,431531,431531,,431531,,431558,8,400,,,
sequence,flow.Sequence,4_75,2023-09-27T02:43:20.249Z,,0,,,4189,completion,,,,,false,,,,431531,431531,427325,427310,427342,431558,8,400,,,
trial,html.Screen,4_76_0,2023-09-27T02:43:24.469Z,,0,2,,4209.000000000058,response,ISIC_6054977.JPG,8,ISIC_9417173.JPG,ISIC_9417173.JPG,false,0,keypress(z),500,435751.00000000006,435751.00000000006,431542,431531,431558,435775,8,400,27,,ISIC_6054977.JPG
break,html.Screen,4_76_1,2023-09-27T02:43:24.470Z,,0,,,NaN,,,,,,false,,,,435752,435752,,435752,,435775,8,400,,,
break_continue,html.Screen,4_76_2,2023-09-27T02:43:24.471Z,,0,,,NaN,,,,,,false,,,,435753,435753,,435753,,435775,8,400,,,
sequence,flow.Sequence,4_76,2023-09-27T02:43:24.471Z,,0,,,4195,completion,,,,,false,,,,435753,435753,431542,431531,431558,435775,8,400,,,
trial,html.Screen,4_77_0,2023-09-27T02:43:27.771Z,,0,2,,3294,response,ISIC_9974613.JPG,4,ISIC_5191344.JPG,ISIC_9974613.JPG,false,1,keypress(m),500,439053,439052,435758,435753,435775,439075,8,400,28,,ISIC_5191344.JPG
break,html.Screen,4_77_1,2023-09-27T02:43:27.771Z,,0,,,NaN,,,,,,false,,,,439054.00000000006,439053,,439053,,439075,8,400,,,
break_continue,html.Screen,4_77_2,2023-09-27T02:43:27.772Z,,0,,,NaN,,,,,,false,,,,439054.00000000006,439054.00000000006,,439054.00000000006,,439075,8,400,,,
sequence,flow.Sequence,4_77,2023-09-27T02:43:27.772Z,,0,,,3279.000000000058,completion,,,,,false,,,,439054.00000000006,439054.00000000006,435758,435753,435775,439075,8,400,,,
trial,html.Screen,4_78_0,2023-09-27T02:43:30.804Z,,0,2,,3028,response,ISIC_0946787.JPG,3,ISIC_1344537.JPG,ISIC_0946787.JPG,false,1,keypress(m),500,442086,442086,439058,439054.00000000006,439075,442108,8,400,29,,ISIC_1344537.JPG
break,html.Screen,4_78_1,2023-09-27T02:43:30.805Z,,0,,,NaN,,,,,,false,,,,442088,442087,,442087,,442108,8,400,,,
break_continue,html.Screen,4_78_2,2023-09-27T02:43:30.806Z,,0,,,NaN,,,,,,false,,,,442088,442088,,442088,,442108,8,400,,,
sequence,flow.Sequence,4_78,2023-09-27T02:43:30.806Z,,0,,,3013,completion,,,,,false,,,,442088,442088,439058,439054.00000000006,439075,442108,8,400,,,
trial,html.Screen,4_79_0,2023-09-27T02:43:33.534Z,,0,2,,2725.000000000058,response,ISIC_0011501.JPG,4,ISIC_7336383.JPG,ISIC_7336383.JPG,false,0,keypress(z),500,444816.00000000006,444816.00000000006,442091,442088,442108,444842,8,400,30,,ISIC_0011501.JPG
break,html.Screen,4_79_1,2023-09-27T02:43:33.535Z,,0,,,NaN,,,,,,false,,,,444817,444817,,444816.00000000006,,444842,8,400,,,
break_continue,html.Screen,4_79_2,2023-09-27T02:43:33.535Z,,0,,,NaN,,,,,,false,,,,444817,444817,,444817,,444842,8,400,,,
sequence,flow.Sequence,4_79,2023-09-27T02:43:33.535Z,,0,,,2709,completion,,,,,false,,,,444818,444817,442091,442088,442108,444842,8,400,,,
trial,html.Screen,4_80_0,2023-09-27T02:43:36.950Z,,0,2,,3407,response,ISIC_0014082.JPG,16,ISIC_0032736.JPG,ISIC_0014082.JPG,false,1,keypress(m),500,448233,448232,444825,444818,444842,448258,8,400,31,,ISIC_0032736.JPG
break,html.Screen,4_80_1,2023-09-27T02:43:36.951Z,,0,,,NaN,,,,,,false,,,,448234.00000000006,448234.00000000006,,448233,,448258,8,400,,,
break_continue,html.Screen,4_80_2,2023-09-27T02:43:36.952Z,,0,,,NaN,,,,,,false,,,,448234.00000000006,448234.00000000006,,448234.00000000006,,448258,8,400,,,
sequence,flow.Sequence,4_80,2023-09-27T02:43:36.952Z,,0,,,3392.000000000058,completion,,,,,false,,,,448234.00000000006,448234.00000000006,444825,444818,444842,448258,8,400,,,
trial,html.Screen,4_81_0,2023-09-27T02:43:42.094Z,,0,2,,5134.000000000058,response,ISIC_0010251.JPG,1,ISIC_7397447.JPG,ISIC_7397447.JPG,false,0,keypress(z),500,453377,453376.00000000006,448242,448234.00000000006,448258,453408,8,400,32,,ISIC_0010251.JPG
break,html.Screen,4_81_1,2023-09-27T02:43:42.095Z,,0,,,NaN,,,,,,false,,,,453378,453378,,453377,,453408,8,400,,,
break_continue,html.Screen,4_81_2,2023-09-27T02:43:42.095Z,,0,,,NaN,,,,,,false,,,,453378,453378,,453378,,453408,8,400,,,
sequence,flow.Sequence,4_81,2023-09-27T02:43:42.096Z,,0,,,5120,completion,,,,,false,,,,453378,453378,448242,448234.00000000006,448258,453408,8,400,,,
trial,html.Screen,4_82_0,2023-09-27T02:43:45.122Z,,0,2,,3012,response,ISIC_2808622.JPG,3,ISIC_2206284.JPG,ISIC_2808622.JPG,false,1,keypress(m),500,456405.00000000006,456404,453392,453378,453408,456442,8,400,33,,ISIC_2206284.JPG
break,html.Screen,4_82_1,2023-09-27T02:43:45.123Z,,0,,,NaN,,,,,,false,,,,456406,456405.00000000006,,456405.00000000006,,456442,8,400,,,
break_continue,html.Screen,4_82_2,2023-09-27T02:43:45.123Z,,0,,,NaN,,,,,,false,,,,456406,456406,,456406,,456442,8,400,,,
sequence,flow.Sequence,4_82,2023-09-27T02:43:45.123Z,,0,,,2998,completion,,,,,false,,,,456406,456406,453392,453378,453408,456442,8,400,,,
trial,html.Screen,4_83_0,2023-09-27T02:43:48.037Z,,0,2,,2895,response,ISIC_0011460.JPG,6,ISIC_0047008.JPG,ISIC_0047008.JPG,false,0,keypress(z),500,459320,459320,456425,456406,456442,459342,8,400,34,,ISIC_0011460.JPG
break,html.Screen,4_83_1,2023-09-27T02:43:48.038Z,,0,,,NaN,,,,,,false,,,,459321,459321,,459320,,459342,8,400,,,
break_continue,html.Screen,4_83_2,2023-09-27T02:43:48.039Z,,0,,,NaN,,,,,,false,,,,459321,459321,,459321,,459342,8,400,,,
sequence,flow.Sequence,4_83,2023-09-27T02:43:48.039Z,,0,,,2879,completion,,,,,false,,,,459321,459321,456425,456406,456442,459342,8,400,,,
trial,html.Screen,4_84_0,2023-09-27T02:43:51.336Z,,0,2,,3294,response,ISIC_9270367.JPG,6,ISIC_5790319.JPG,ISIC_9270367.JPG,false,1,keypress(m),500,462618,462618,459324,459321,459342,462641,8,400,35,,ISIC_5790319.JPG
break,html.Screen,4_84_1,2023-09-27T02:43:51.337Z,,0,,,NaN,,,,,,false,,,,462619,462619,,462619,,462641,8,400,,,
break_continue,html.Screen,4_84_2,2023-09-27T02:43:51.337Z,,0,,,NaN,,,,,,false,,,,462620,462620,,462619,,462641,8,400,,,
sequence,flow.Sequence,4_84,2023-09-27T02:43:51.337Z,,0,,,3278,completion,,,,,false,,,,462620,462620,459324,459321,459342,462641,8,400,,,
trial,html.Screen,4_85_0,2023-09-27T02:43:55.542Z,,0,2,,4200,response,ISIC_0069121.JPG,14,ISIC_3123377.JPG,ISIC_3123377.JPG,false,0,keypress(z),500,466825,466825,462625,462620,462641,466858,8,400,36,,ISIC_0069121.JPG
break,html.Screen,4_85_1,2023-09-27T02:43:55.543Z,,0,,,NaN,,,,,,false,,,,466826,466826,,466825,,466858,8,400,,,
break_continue,html.Screen,4_85_2,2023-09-27T02:43:55.543Z,,0,,,NaN,,,,,,false,,,,466826,466826,,466826,,466858,8,400,,,
sequence,flow.Sequence,4_85,2023-09-27T02:43:55.544Z,,0,,,4185,completion,,,,,false,,,,466826,466826,462625,462620,462641,466858,8,400,,,
trial,html.Screen,4_86_0,2023-09-27T02:43:58.745Z,,0,2,,3185,response,ISIC_4253346.JPG,8,ISIC_3410193.JPG,ISIC_4253346.JPG,false,1,keypress(m),500,470027,470027,466842,466826,466858,470057,8,400,37,,ISIC_3410193.JPG
break,html.Screen,4_86_1,2023-09-27T02:43:58.746Z,,0,,,NaN,,,,,,false,,,,470029,470028,,470028,,470057,8,400,,,
break_continue,html.Screen,4_86_2,2023-09-27T02:43:58.746Z,,0,,,NaN,,,,,,false,,,,470029,470029,,470029,,470057,8,400,,,
sequence,flow.Sequence,4_86,2023-09-27T02:43:58.746Z,,0,,,3171,completion,,,,,false,,,,470029,470029,466842,466826,466858,470057,8,400,,,
trial,html.Screen,4_87_0,2023-09-27T02:44:01.341Z,,0,2,,2582,response,ISIC_0054767.JPG,6,ISIC_0031293.JPG,ISIC_0031293.JPG,false,0,keypress(z),500,472624,472623,470041,470029,470057,472641,8,400,38,,ISIC_0054767.JPG
break,html.Screen,4_87_1,2023-09-27T02:44:01.342Z,,0,,,NaN,,,,,,false,,,,472625,472624,,472624,,472641,8,400,,,
break_continue,html.Screen,4_87_2,2023-09-27T02:44:01.342Z,,0,,,NaN,,,,,,false,,,,472625,472625,,472625,,472641,8,400,,,
sequence,flow.Sequence,4_87,2023-09-27T02:44:01.342Z,,0,,,2568,completion,,,,,false,,,,472625,472625,470041,470029,470057,472641,8,400,,,
trial,html.Screen,4_88_0,2023-09-27T02:44:04.856Z,,0,2,,3512,response,ISIC_0053765.JPG,8,ISIC_0000520.JPG,ISIC_0053765.JPG,false,1,keypress(m),500,476139,476139,472627,472625,472641,476175,8,400,39,,ISIC_0000520.JPG
break,html.Screen,4_88_1,2023-09-27T02:44:04.857Z,,0,,,NaN,,,,,,false,,,,476140,476140,,476139,,476175,8,400,,,
break_continue,html.Screen,4_88_2,2023-09-27T02:44:04.858Z,,0,,,NaN,,,,,,false,,,,476141,476140,,476140,,476175,8,400,,,
sequence,flow.Sequence,4_88,2023-09-27T02:44:04.858Z,,0,,,3499,completion,,,,,false,,,,476141,476140,472627,472625,472641,476175,8,400,,,
trial,html.Screen,4_89_0,2023-09-27T02:44:08.528Z,,0,2,,3653.000000000058,response,ISIC_3975133.JPG,9,ISIC_0047031.JPG,ISIC_3975133.JPG,false,1,keypress(m),500,479811.00000000006,479811.00000000006,476158,476141,476175,479842,8,400,40,,ISIC_0047031.JPG
break,html.Screen,4_89_1,2023-09-27T02:44:08.530Z,,0,,,NaN,,,,,,false,,,,479813,479812,,479812,,479842,8,400,,,
break_continue,html.Screen,4_89_2,2023-09-27T02:44:08.530Z,,0,,,NaN,,,,,,false,,,,479813,479813,,479813,,479842,8,400,,,
sequence,flow.Sequence,4_89,2023-09-27T02:44:08.530Z,,0,,,3638,completion,,,,,false,,,,479813,479813,476158,476141,476175,479842,8,400,,,
trial,html.Screen,4_90_0,2023-09-27T02:44:11.761Z,,0,2,,3219,response,ISIC_0062537.JPG,3,ISIC_6023518.JPG,ISIC_6023518.JPG,false,0,keypress(z),500,483044,483044,479825,479813,479842,483074,8,400,41,,ISIC_0062537.JPG
break,html.Screen,4_90_1,2023-09-27T02:44:11.762Z,,0,,,NaN,,,,,,false,,,,483045,483045,,483044,,483074,8,400,,,
break_continue,html.Screen,4_90_2,2023-09-27T02:44:11.762Z,,0,,,NaN,,,,,,false,,,,483045,483045,,483045,,483074,8,400,,,
sequence,flow.Sequence,4_90,2023-09-27T02:44:11.762Z,,0,,,3203,completion,,,,,false,,,,483045,483045,479825,479813,479842,483074,8,400,,,
trial,html.Screen,4_91_0,2023-09-27T02:44:16.806Z,,0,2,,5031,response,ISIC_6558697.JPG,6,ISIC_0033405.JPG,ISIC_6558697.JPG,false,1,keypress(m),500,488089,488089,483058,483045,483074,488125,8,400,42,,ISIC_0033405.JPG
break,html.Screen,4_91_1,2023-09-27T02:44:16.807Z,,0,,,NaN,,,,,,false,,,,488090.00000000006,488090.00000000006,,488089,,488125,8,400,,,
break_continue,html.Screen,4_91_2,2023-09-27T02:44:16.807Z,,0,,,NaN,,,,,,false,,,,488090.00000000006,488090.00000000006,,488090.00000000006,,488125,8,400,,,
sequence,flow.Sequence,4_91,2023-09-27T02:44:16.807Z,,0,,,5016.000000000058,completion,,,,,false,,,,488090.00000000006,488090.00000000006,483058,483045,483074,488125,8,400,,,
trial,html.Screen,4_92_0,2023-09-27T02:44:19.654Z,,0,2,,2829,response,ISIC_8959410.JPG,9,ISIC_3087402.JPG,ISIC_8959410.JPG,false,1,keypress(m),500,490938,490937,488108,488091,488125,490975,8,400,43,,ISIC_3087402.JPG
break,html.Screen,4_92_1,2023-09-27T02:44:19.655Z,,0,,,NaN,,,,,,false,,,,490938,490938,,490938,,490975,8,400,,,
break_continue,html.Screen,4_92_2,2023-09-27T02:44:19.655Z,,0,,,NaN,,,,,,false,,,,490939,490939,,490939,,490975,8,400,,,
sequence,flow.Sequence,4_92,2023-09-27T02:44:19.656Z,,0,,,2814,completion,,,,,false,,,,490939,490939,488108,488091,488125,490975,8,400,,,
trial,html.Screen,4_93_0,2023-09-27T02:44:22.369Z,,0,2,,2694,response,ISIC_8492957.JPG,5,ISIC_1850196.JPG,ISIC_1850196.JPG,false,0,keypress(z),500,493652,493652,490958,490939,490975,493675,8,400,44,,ISIC_8492957.JPG
break,html.Screen,4_93_1,2023-09-27T02:44:22.370Z,,0,,,NaN,,,,,,false,,,,493653,493653,,493653,,493675,8,400,,,
break_continue,html.Screen,4_93_2,2023-09-27T02:44:22.370Z,,0,,,NaN,,,,,,false,,,,493654,493654,,493654,,493675,8,400,,,
sequence,flow.Sequence,4_93,2023-09-27T02:44:22.371Z,,0,,,2679,completion,,,,,false,,,,493654,493654,490958,490939,490975,493675,8,400,,,
trial,html.Screen,4_94_0,2023-09-27T02:44:25.843Z,,0,2,,3468.000000000058,response,ISIC_0026009.JPG,6,ISIC_3390057.JPG,ISIC_0026009.JPG,false,1,keypress(m),500,497126.00000000006,497126.00000000006,493658,493654,493675,497158,8,400,45,,ISIC_3390057.JPG
break,html.Screen,4_94_1,2023-09-27T02:44:25.844Z,,0,,,NaN,,,,,,false,,,,497127,497127,,497127,,497158,8,400,,,
break_continue,html.Screen,4_94_2,2023-09-27T02:44:25.844Z,,0,,,NaN,,,,,,false,,,,497128,497127,,497127,,497158,8,400,,,
sequence,flow.Sequence,4_94,2023-09-27T02:44:25.844Z,,0,,,3452,completion,,,,,false,,,,497128,497127,493658,493654,493675,497158,8,400,,,
trial,html.Screen,4_95_0,2023-09-27T02:44:32.672Z,,0,2,,6814,response,ISIC_0004932.JPG,5,ISIC_6657600.JPG,ISIC_0004932.JPG,false,1,keypress(m),500,503956,503956,497142,497128,497158,503975,8,400,46,,ISIC_6657600.JPG
break,html.Screen,4_95_1,2023-09-27T02:44:32.673Z,,0,,,NaN,,,,,,false,,,,503957,503957,,503956,,503975,8,400,,,
break_continue,html.Screen,4_95_2,2023-09-27T02:44:32.674Z,,0,,,NaN,,,,,,false,,,,503957,503957,,503957,,503975,8,400,,,
sequence,flow.Sequence,4_95,2023-09-27T02:44:32.674Z,,0,,,6799,completion,,,,,false,,,,503957,503957,497142,497128,497158,503975,8,400,,,
trial,html.Screen,4_96_0,2023-09-27T02:44:35.637Z,,0,2,,2961,response,ISIC_8344196.JPG,11,ISIC_0046526.JPG,ISIC_8344196.JPG,false,1,keypress(m),500,506921,506920,503959,503957,503975,506958,8,400,47,,ISIC_0046526.JPG
break,html.Screen,4_96_1,2023-09-27T02:44:35.638Z,,0,,,NaN,,,,,,false,,,,506922,506922,,506921,,506958,8,400,,,
break_continue,html.Screen,4_96_2,2023-09-27T02:44:35.639Z,,0,,,NaN,,,,,,false,,,,506922,506922,,506922,,506958,8,400,,,
sequence,flow.Sequence,4_96,2023-09-27T02:44:35.639Z,,0,,,2947,completion,,,,,false,,,,506922,506922,503959,503957,503975,506958,8,400,,,
trial,html.Screen,4_97_0,2023-09-27T02:44:38.986Z,,0,2,,3328,response,ISIC_0070403.JPG,6,ISIC_6780662.JPG,ISIC_0070403.JPG,false,1,keypress(m),500,510270.00000000006,510269,506941,506922,506958,510291,8,400,48,,ISIC_6780662.JPG
break,html.Screen,4_97_1,2023-09-27T02:44:38.987Z,,0,,,NaN,,,,,,false,,,,510271,510271,,510270.00000000006,,510291,8,400,,,
break_continue,html.Screen,4_97_2,2023-09-27T02:44:38.988Z,,0,,,NaN,,,,,,false,,,,510271,510271,,510271,,510291,8,400,,,
sequence,flow.Sequence,4_97,2023-09-27T02:44:38.988Z,,0,,,3313,completion,,,,,false,,,,510272,510271,506941,506922,506958,510291,8,400,,,
trial,html.Screen,4_98_0,2023-09-27T02:44:41.906Z,,0,2,,2914.999999999942,response,ISIC_0295323.JPG,6,ISIC_6745554.JPG,ISIC_6745554.JPG,false,0,keypress(z),500,513190.00000000006,513188.99999999994,510274,510272,510291,513225,8,400,49,,ISIC_0295323.JPG
break,html.Screen,4_98_1,2023-09-27T02:44:41.907Z,,0,,,NaN,,,,,,false,,,,513191.00000000006,513190.00000000006,,513190.00000000006,,513225,8,400,,,
break_continue,html.Screen,4_98_2,2023-09-27T02:44:41.907Z,,0,,,NaN,,,,,,false,,,,513191.00000000006,513191.00000000006,,513191.00000000006,,513225,8,400,,,
sequence,flow.Sequence,4_98,2023-09-27T02:44:41.907Z,,0,,,2900.000000000058,completion,,,,,false,,,,513191.00000000006,513191.00000000006,510274,510272,510291,513225,8,400,,,
trial,html.Screen,4_99_0,2023-09-27T02:44:47.131Z,,0,2,,5206.999999999942,response,ISIC_7558912.JPG,10,ISIC_3923443.JPG,ISIC_3923443.JPG,false,0,keypress(z),500,518414.99999999994,518414.99999999994,513208,513191.00000000006,513225,518441,8,400,50,,ISIC_7558912.JPG
break,html.Screen,4_99_1,2023-09-27T02:44:57.141Z,,0,,,10000,timeout,,,,,false,,,,528425,528424,518425,518416.00000000006,518441,528441,8,400,,,
break_continue,html.Screen,4_99_2,2023-09-27T02:45:06.454Z,,0,,,9395,response,,,,,false,continue,keypress(Space),,537738,537819,528424,528425,528441,537774,8,400,,,
sequence,flow.Sequence,4_99,2023-09-27T02:45:06.454Z,,0,,,24594,completion,,,,,false,,,,537739,537819,513208,513191.00000000006,513225,537774,8,400,,,
trial,html.Screen,4_100_0,2023-09-27T02:45:10.534Z,,0,3,,4060,response,ISIC_9675304.JPG,5,ISIC_3591332.JPG,ISIC_9675304.JPG,false,1,keypress(m),500,541818,541818,537758,537739,537774,541841,8,400,1,,ISIC_3591332.JPG
break,html.Screen,4_100_1,2023-09-27T02:45:10.535Z,,0,,,NaN,,,,,,false,,,,541819,541819,,541819,,541841,8,400,,,
break_continue,html.Screen,4_100_2,2023-09-27T02:45:10.535Z,,0,,,NaN,,,,,,false,,,,541820,541820,,541819,,541841,8,400,,,
sequence,flow.Sequence,4_100,2023-09-27T02:45:10.535Z,,0,,,4046,completion,,,,,false,,,,541820,541820,537758,537739,537774,541841,8,400,,,
trial,html.Screen,4_101_0,2023-09-27T02:45:14.861Z,,0,3,,4321,response,ISIC_8492957.JPG,5,ISIC_4958006.JPG,ISIC_4958006.JPG,false,0,keypress(z),500,546145,546145,541824,541820,541841,546174,8,400,2,,ISIC_8492957.JPG
break,html.Screen,4_101_1,2023-09-27T02:45:14.862Z,,0,,,NaN,,,,,,false,,,,546146,546146,,546146,,546174,8,400,,,
break_continue,html.Screen,4_101_2,2023-09-27T02:45:14.862Z,,0,,,NaN,,,,,,false,,,,546146,546146,,546146,,546174,8,400,,,
sequence,flow.Sequence,4_101,2023-09-27T02:45:14.862Z,,0,,,4305,completion,,,,,false,,,,546147,546146,541824,541820,541841,546174,8,400,,,
trial,html.Screen,4_102_0,2023-09-27T02:45:17.905Z,,0,3,,3031,response,ISIC_9719936.JPG,3,ISIC_0031482.JPG,ISIC_9719936.JPG,false,1,keypress(m),500,549190,549189,546158,546147,546174,549225,8,400,3,,ISIC_0031482.JPG
break,html.Screen,4_102_1,2023-09-27T02:45:17.906Z,,0,,,NaN,,,,,,false,,,,549191,549190,,549190,,549225,8,400,,,
break_continue,html.Screen,4_102_2,2023-09-27T02:45:17.906Z,,0,,,NaN,,,,,,false,,,,549191,549191,,549191,,549225,8,400,,,
sequence,flow.Sequence,4_102,2023-09-27T02:45:17.907Z,,0,,,3017,completion,,,,,false,,,,549191,549191,546158,546147,546174,549225,8,400,,,
trial,html.Screen,4_103_0,2023-09-27T02:45:23.490Z,,0,3,,5566,response,ISIC_1375476.JPG,11,ISIC_5581936.JPG,ISIC_1375476.JPG,false,1,keypress(m),500,554775,554774,549208,549191,549225,554808,8,400,4,,ISIC_5581936.JPG
break,html.Screen,4_103_1,2023-09-27T02:45:23.491Z,,0,,,NaN,,,,,,false,,,,554775,554775,,554775,,554808,8,400,,,
break_continue,html.Screen,4_103_2,2023-09-27T02:45:23.491Z,,0,,,NaN,,,,,,false,,,,554776.0000000001,554776.0000000001,,554776.0000000001,,554808,8,400,,,
sequence,flow.Sequence,4_103,2023-09-27T02:45:23.491Z,,0,,,5551.000000000116,completion,,,,,false,,,,554776.0000000001,554776.0000000001,549208,549191,549225,554808,8,400,,,
trial,html.Screen,4_104_0,2023-09-27T02:45:26.477Z,,0,3,,2970,response,ISIC_1585511.JPG,1,ISIC_2717192.JPG,ISIC_2717192.JPG,false,0,keypress(z),500,557761,557761,554791,554776.0000000001,554808,557791,8,400,5,,ISIC_1585511.JPG
break,html.Screen,4_104_1,2023-09-27T02:45:26.478Z,,0,,,NaN,,,,,,false,,,,557762,557762,,557762,,557791,8,400,,,
break_continue,html.Screen,4_104_2,2023-09-27T02:45:26.478Z,,0,,,NaN,,,,,,false,,,,557763,557763,,557763,,557791,8,400,,,
sequence,flow.Sequence,4_104,2023-09-27T02:45:26.478Z,,0,,,2955,completion,,,,,false,,,,557763,557763,554791,554776.0000000001,554808,557791,8,400,,,
trial,html.Screen,4_105_0,2023-09-27T02:45:29.885Z,,0,3,,3395,response,ISIC_4462773.JPG,3,ISIC_0057313.JPG,ISIC_0057313.JPG,false,0,keypress(z),500,561170,561170,557775,557763,557791,561191,8,400,6,,ISIC_4462773.JPG
break,html.Screen,4_105_1,2023-09-27T02:45:29.886Z,,0,,,NaN,,,,,,false,,,,561171,561171,,561170,,561191,8,400,,,
break_continue,html.Screen,4_105_2,2023-09-27T02:45:29.886Z,,0,,,NaN,,,,,,false,,,,561171,561171,,561171,,561191,8,400,,,
sequence,flow.Sequence,4_105,2023-09-27T02:45:29.887Z,,0,,,3380,completion,,,,,false,,,,561171,561171,557775,557763,557791,561191,8,400,,,
trial,html.Screen,4_106_0,2023-09-27T02:45:35.097Z,,0,3,,5208.000000000116,response,ISIC_0001134.JPG,4,ISIC_0060535.JPG,ISIC_0001134.JPG,false,1,keypress(m),500,566382.0000000001,566382.0000000001,561174,561171,561191,566408,8,400,7,,ISIC_0060535.JPG
break,html.Screen,4_106_1,2023-09-27T02:45:35.098Z,,0,,,NaN,,,,,,false,,,,566383,566383,,566382.0000000001,,566408,8,400,,,
break_continue,html.Screen,4_106_2,2023-09-27T02:45:35.099Z,,0,,,NaN,,,,,,false,,,,566384,566384,,566383,,566408,8,400,,,
sequence,flow.Sequence,4_106,2023-09-27T02:45:35.099Z,,0,,,5193,completion,,,,,false,,,,566384,566384,561174,561171,561191,566408,8,400,,,
trial,html.Screen,4_107_0,2023-09-27T02:45:39.554Z,,0,3,,4447,response,ISIC_3914140.JPG,4,ISIC_0061300.JPG,ISIC_3914140.JPG,false,1,keypress(m),500,570839,570838,566391,566384,566408,570875,8,400,8,,ISIC_0061300.JPG
break,html.Screen,4_107_1,2023-09-27T02:45:39.555Z,,0,,,NaN,,,,,,false,,,,570840,570840,,570839,,570875,8,400,,,
break_continue,html.Screen,4_107_2,2023-09-27T02:45:39.555Z,,0,,,NaN,,,,,,false,,,,570840,570840,,570840,,570875,8,400,,,
sequence,flow.Sequence,4_107,2023-09-27T02:45:39.555Z,,0,,,4432,completion,,,,,false,,,,570840,570840,566391,566384,566408,570875,8,400,,,
trial,html.Screen,4_108_0,2023-09-27T02:45:42.629Z,,0,3,,3056,response,ISIC_2177748.JPG,3,ISIC_8967786.JPG,ISIC_8967786.JPG,false,0,keypress(z),500,573914,573914,570858,570840,570875,573941,8,400,9,,ISIC_2177748.JPG
break,html.Screen,4_108_1,2023-09-27T02:45:42.630Z,,0,,,NaN,,,,,,false,,,,573915,573915,,573914,,573941,8,400,,,
break_continue,html.Screen,4_108_2,2023-09-27T02:45:42.630Z,,0,,,NaN,,,,,,false,,,,573915,573915,,573915,,573941,8,400,,,
sequence,flow.Sequence,4_108,2023-09-27T02:45:42.631Z,,0,,,3040,completion,,,,,false,,,,573915,573915,570858,570840,570875,573941,8,400,,,
trial,html.Screen,4_109_0,2023-09-27T02:45:50.734Z,,0,3,,8094,response,ISIC_0010940.JPG,6,ISIC_9780632.JPG,ISIC_9780632.JPG,false,0,keypress(z),500,582020,582019,573925,573916,573941,582041,8,400,10,,ISIC_0010940.JPG
break,html.Screen,4_109_1,2023-09-27T02:45:50.736Z,,0,,,NaN,,,,,,false,,,,582021,582021,,582020,,582041,8,400,,,
break_continue,html.Screen,4_109_2,2023-09-27T02:45:50.736Z,,0,,,NaN,,,,,,false,,,,582021,582021,,582021,,582041,8,400,,,
sequence,flow.Sequence,4_109,2023-09-27T02:45:50.736Z,,0,,,8080,completion,,,,,false,,,,582021,582021,573925,573916,573941,582041,8,400,,,
trial,html.Screen,4_110_0,2023-09-27T02:45:53.681Z,,0,3,,2942,response,ISIC_0032907.JPG,6,ISIC_0011127.JPG,ISIC_0032907.JPG,false,1,keypress(m),500,584966,584966,582024,582022,582041,584991,8,400,11,,ISIC_0011127.JPG
break,html.Screen,4_110_1,2023-09-27T02:45:53.682Z,,0,,,NaN,,,,,,false,,,,584967,584967,,584966,,584991,8,400,,,
break_continue,html.Screen,4_110_2,2023-09-27T02:45:53.682Z,,0,,,NaN,,,,,,false,,,,584967,584967,,584967,,584991,8,400,,,
sequence,flow.Sequence,4_110,2023-09-27T02:45:53.682Z,,0,,,2926,completion,,,,,false,,,,584967,584967,582024,582022,582041,584991,8,400,,,
trial,html.Screen,4_111_0,2023-09-27T02:45:56.430Z,,0,3,,2741,response,ISIC_6778515.JPG,4,ISIC_5900778.JPG,ISIC_6778515.JPG,false,1,keypress(m),500,587716,587715,584974,584968,584991,587741,8,400,12,,ISIC_5900778.JPG
break,html.Screen,4_111_1,2023-09-27T02:45:56.431Z,,0,,,NaN,,,,,,false,,,,587716,587716,,587716,,587741,8,400,,,
break_continue,html.Screen,4_111_2,2023-09-27T02:45:56.431Z,,0,,,NaN,,,,,,false,,,,587717,587717,,587716,,587741,8,400,,,
sequence,flow.Sequence,4_111,2023-09-27T02:45:56.432Z,,0,,,2726,completion,,,,,false,,,,587717,587717,584974,584968,584991,587741,8,400,,,
trial,html.Screen,4_112_0,2023-09-27T02:45:59.295Z,,0,3,,2856,response,ISIC_0073115.JPG,7,ISIC_0024739.JPG,ISIC_0024739.JPG,false,0,keypress(z),500,590580,590580,587724,587717,587741,590608,8,400,13,,ISIC_0073115.JPG
break,html.Screen,4_112_1,2023-09-27T02:45:59.296Z,,0,,,NaN,,,,,,false,,,,590581,590581,,590580,,590608,8,400,,,
break_continue,html.Screen,4_112_2,2023-09-27T02:45:59.297Z,,0,,,NaN,,,,,,false,,,,590582,590582,,590582,,590608,8,400,,,
sequence,flow.Sequence,4_112,2023-09-27T02:45:59.297Z,,0,,,2841,completion,,,,,false,,,,590582,590582,587724,587717,587741,590608,8,400,,,
trial,html.Screen,4_113_0,2023-09-27T02:46:01.996Z,,0,3,,2690.0000000001164,response,ISIC_0192596.JPG,1,ISIC_0027669.JPG,ISIC_0192596.JPG,false,1,keypress(m),500,593281.0000000001,593281.0000000001,590591,590582,590608,593308,8,400,14,,ISIC_0027669.JPG
break,html.Screen,4_113_1,2023-09-27T02:46:01.997Z,,0,,,NaN,,,,,,false,,,,593282,593282,,593281.0000000001,,593308,8,400,,,
break_continue,html.Screen,4_113_2,2023-09-27T02:46:01.997Z,,0,,,NaN,,,,,,false,,,,593283,593283,,593283,,593308,8,400,,,
sequence,flow.Sequence,4_113,2023-09-27T02:46:01.998Z,,0,,,2675,completion,,,,,false,,,,593283,593283,590591,590582,590608,593308,8,400,,,
trial,html.Screen,4_114_0,2023-09-27T02:46:04.916Z,,0,3,,2910,response,ISIC_0066240.JPG,5,ISIC_4507700.JPG,ISIC_4507700.JPG,false,0,keypress(z),500,596201,596201,593291,593283,593308,596224,8,400,15,,ISIC_0066240.JPG
break,html.Screen,4_114_1,2023-09-27T02:46:04.917Z,,0,,,NaN,,,,,,false,,,,596202,596202,,596201,,596224,8,400,,,
break_continue,html.Screen,4_114_2,2023-09-27T02:46:04.917Z,,0,,,NaN,,,,,,false,,,,596203,596203,,596203,,596224,8,400,,,
sequence,flow.Sequence,4_114,2023-09-27T02:46:04.917Z,,0,,,2895,completion,,,,,false,,,,596203,596203,593291,593283,593308,596224,8,400,,,
trial,html.Screen,4_115_0,2023-09-27T02:46:08.731Z,,0,3,,3809,response,ISIC_5238111.JPG,3,ISIC_7755096.JPG,ISIC_7755096.JPG,false,0,keypress(z),500,600017,600016,596207,596203,596224,600041,8,400,16,,ISIC_5238111.JPG
break,html.Screen,4_115_1,2023-09-27T02:46:08.732Z,,0,,,NaN,,,,,,false,,,,600018,600017,,600017,,600041,8,400,,,
break_continue,html.Screen,4_115_2,2023-09-27T02:46:08.733Z,,0,,,NaN,,,,,,false,,,,600018,600018,,600018,,600041,8,400,,,
sequence,flow.Sequence,4_115,2023-09-27T02:46:08.733Z,,0,,,3794,completion,,,,,false,,,,600019,600018,596207,596203,596224,600041,8,400,,,
trial,html.Screen,4_116_0,2023-09-27T02:46:12.361Z,,0,3,,3622,response,ISIC_3805025.JPG,5,ISIC_2721699.JPG,ISIC_3805025.JPG,false,1,keypress(m),500,603646,603646,600024,600019,600041,603674,8,400,17,,ISIC_2721699.JPG
break,html.Screen,4_116_1,2023-09-27T02:46:12.363Z,,0,,,NaN,,,,,,false,,,,603648,603647,,603646,,603674,8,400,,,
break_continue,html.Screen,4_116_2,2023-09-27T02:46:12.363Z,,0,,,NaN,,,,,,false,,,,603649,603649,,603649,,603674,8,400,,,
sequence,flow.Sequence,4_116,2023-09-27T02:46:12.366Z,,0,,,3608,completion,,,,,false,,,,603652,603649,600024,600019,600041,603674,8,400,,,
trial,html.Screen,4_117_0,2023-09-27T02:46:15.917Z,,0,3,,3544,response,ISIC_0026258.JPG,8,ISIC_0027122.JPG,ISIC_0026258.JPG,false,1,keypress(m),500,607202,607202,603658,603652,603674,607224,8,400,18,,ISIC_0027122.JPG
break,html.Screen,4_117_1,2023-09-27T02:46:15.918Z,,0,,,NaN,,,,,,false,,,,607204.0000000001,607203,,607203,,607224,8,400,,,
break_continue,html.Screen,4_117_2,2023-09-27T02:46:15.918Z,,0,,,NaN,,,,,,false,,,,607204.0000000001,607204.0000000001,,607204.0000000001,,607224,8,400,,,
sequence,flow.Sequence,4_117,2023-09-27T02:46:15.918Z,,0,,,3530.0000000001164,completion,,,,,false,,,,607204.0000000001,607204.0000000001,603658,603652,603674,607224,8,400,,,
trial,html.Screen,4_118_0,2023-09-27T02:46:19.467Z,,0,3,,3545.0000000001164,response,ISIC_0012678.JPG,5,ISIC_0392105.JPG,ISIC_0012678.JPG,false,1,keypress(m),500,610753,610752.0000000001,607207,607204.0000000001,607224,610774,8,400,19,,ISIC_0392105.JPG
break,html.Screen,4_118_1,2023-09-27T02:46:19.468Z,,0,,,NaN,,,,,,false,,,,610754,610754,,610753,,610774,8,400,,,
break_continue,html.Screen,4_118_2,2023-09-27T02:46:19.469Z,,0,,,NaN,,,,,,false,,,,610755,610754,,610754,,610774,8,400,,,
sequence,flow.Sequence,4_118,2023-09-27T02:46:19.469Z,,0,,,3530,completion,,,,,false,,,,610755,610754,607207,607204.0000000001,607224,610774,8,400,,,
trial,html.Screen,4_119_0,2023-09-27T02:46:22.219Z,,0,3,,2747,response,ISIC_3374533.JPG,4,ISIC_0011343.JPG,ISIC_3374533.JPG,false,1,keypress(m),500,613505,613504,610757,610755,610774,613524,8,400,20,,ISIC_0011343.JPG
break,html.Screen,4_119_1,2023-09-27T02:46:22.220Z,,0,,,NaN,,,,,,false,,,,613506,613506,,613505,,613524,8,400,,,
break_continue,html.Screen,4_119_2,2023-09-27T02:46:22.221Z,,0,,,NaN,,,,,,false,,,,613507.0000000001,613506,,613506,,613524,8,400,,,
sequence,flow.Sequence,4_119,2023-09-27T02:46:22.221Z,,0,,,2732,completion,,,,,false,,,,613507.0000000001,613506,610757,610755,610774,613524,8,400,,,
trial,html.Screen,4_120_0,2023-09-27T02:46:25.608Z,,0,3,,3385,response,ISIC_6640686.JPG,2,ISIC_5564757.JPG,ISIC_6640686.JPG,false,1,keypress(m),500,616894,616894,613509,613507.0000000001,613524,616924,8,400,21,,ISIC_5564757.JPG
break,html.Screen,4_120_1,2023-09-27T02:46:25.610Z,,0,,,NaN,,,,,,false,,,,616895,616895,,616894,,616924,8,400,,,
break_continue,html.Screen,4_120_2,2023-09-27T02:46:25.610Z,,0,,,NaN,,,,,,false,,,,616896,616896,,616895,,616924,8,400,,,
sequence,flow.Sequence,4_120,2023-09-27T02:46:25.610Z,,0,,,3372,completion,,,,,false,,,,616896,616896,613509,613507.0000000001,613524,616924,8,400,,,
trial,html.Screen,4_121_0,2023-09-27T02:46:28.478Z,,0,3,,2856,response,ISIC_1399572.JPG,4,ISIC_4131353.JPG,ISIC_4131353.JPG,false,0,keypress(z),500,619764,619764,616908,616896,616924,619791,8,400,22,,ISIC_1399572.JPG
break,html.Screen,4_121_1,2023-09-27T02:46:28.480Z,,0,,,NaN,,,,,,false,,,,619766,619765,,619765,,619791,8,400,,,
break_continue,html.Screen,4_121_2,2023-09-27T02:46:28.480Z,,0,,,NaN,,,,,,false,,,,619766,619766,,619766,,619791,8,400,,,
sequence,flow.Sequence,4_121,2023-09-27T02:46:28.480Z,,0,,,2842,completion,,,,,false,,,,619766,619766,616908,616896,616924,619791,8,400,,,
trial,html.Screen,4_122_0,2023-09-27T02:46:31.848Z,,0,3,,3360,response,ISIC_0185918.JPG,15,ISIC_7839712.JPG,ISIC_0185918.JPG,false,1,keypress(m),500,623134,623134,619774,619766,619791,623158,8,400,23,,ISIC_7839712.JPG
break,html.Screen,4_122_1,2023-09-27T02:46:31.849Z,,0,,,NaN,,,,,,false,,,,623135,623135,,623134,,623158,8,400,,,
break_continue,html.Screen,4_122_2,2023-09-27T02:46:31.849Z,,0,,,NaN,,,,,,false,,,,623135,623135,,623135,,623158,8,400,,,
sequence,flow.Sequence,4_122,2023-09-27T02:46:31.849Z,,0,,,3344,completion,,,,,false,,,,623135,623135,619774,619766,619791,623158,8,400,,,
trial,html.Screen,4_123_0,2023-09-27T02:46:34.908Z,,0,3,,3053,response,ISIC_0024513.JPG,6,ISIC_0063650.JPG,ISIC_0024513.JPG,false,1,keypress(m),500,626194,626194,623141,623136,623158,626224,8,400,24,,ISIC_0063650.JPG
break,html.Screen,4_123_1,2023-09-27T02:46:34.909Z,,0,,,NaN,,,,,,false,,,,626195,626195,,626194,,626224,8,400,,,
break_continue,html.Screen,4_123_2,2023-09-27T02:46:34.910Z,,0,,,NaN,,,,,,false,,,,626196,626195,,626195,,626224,8,400,,,
sequence,flow.Sequence,4_123,2023-09-27T02:46:34.910Z,,0,,,3037,completion,,,,,false,,,,626196,626195,623141,623135,623158,626224,8,400,,,
trial,html.Screen,4_124_0,2023-09-27T02:46:38.428Z,,0,3,,3507,response,ISIC_0033080.JPG,6,ISIC_2268341.JPG,ISIC_0033080.JPG,false,1,keypress(m),500,629714,629714,626207,626196,626224,629741,8,400,25,,ISIC_2268341.JPG
break,html.Screen,4_124_1,2023-09-27T02:46:38.429Z,,0,,,NaN,,,,,,false,,,,629715,629715,,629714,,629741,8,400,,,
break_continue,html.Screen,4_124_2,2023-09-27T02:46:38.429Z,,0,,,NaN,,,,,,false,,,,629715,629715,,629715,,629741,8,400,,,
sequence,flow.Sequence,4_124,2023-09-27T02:46:38.429Z,,0,,,3491,completion,,,,,false,,,,629716,629715,626207,626196,626224,629741,8,400,,,
trial,html.Screen,4_125_0,2023-09-27T02:46:41.752Z,,0,3,,3314,response,ISIC_0056796.JPG,8,ISIC_0014920.JPG,ISIC_0056796.JPG,false,1,keypress(m),500,633039,633038,629724,629716,629741,633058,8,400,26,,ISIC_0014920.JPG
break,html.Screen,4_125_1,2023-09-27T02:46:41.753Z,,0,,,NaN,,,,,,false,,,,633040,633039,,633039,,633058,8,400,,,
break_continue,html.Screen,4_125_2,2023-09-27T02:46:41.754Z,,0,,,NaN,,,,,,false,,,,633040,633040,,633040,,633058,8,400,,,
sequence,flow.Sequence,4_125,2023-09-27T02:46:41.754Z,,0,,,3299,completion,,,,,false,,,,633040,633040,629724,629716,629741,633058,8,400,,,
trial,html.Screen,4_126_0,2023-09-27T02:46:45.442Z,,0,3,,3685.0000000001164,response,ISIC_6119830.JPG,4,ISIC_9050608.JPG,ISIC_6119830.JPG,false,1,keypress(m),500,636728.0000000001,636728.0000000001,633043,633040,633058,636757,8,400,27,,ISIC_9050608.JPG
break,html.Screen,4_126_1,2023-09-27T02:46:45.443Z,,0,,,NaN,,,,,,false,,,,636730,636729,,636729,,636757,8,400,,,
break_continue,html.Screen,4_126_2,2023-09-27T02:46:45.444Z,,0,,,NaN,,,,,,false,,,,636730,636730,,636730,,636757,8,400,,,
sequence,flow.Sequence,4_126,2023-09-27T02:46:45.444Z,,0,,,3672,completion,,,,,false,,,,636730,636730,633043,633040,633058,636757,8,400,,,
trial,html.Screen,4_127_0,2023-09-27T02:46:48.150Z,,0,3,,2695,response,ISIC_2904067.JPG,4,ISIC_6523645.JPG,ISIC_6523645.JPG,false,0,keypress(z),500,639436,639436,636741,636730,636757,639458,8,400,28,,ISIC_2904067.JPG
break,html.Screen,4_127_1,2023-09-27T02:46:48.151Z,,0,,,NaN,,,,,,false,,,,639437,639437,,639436,,639458,8,400,,,
break_continue,html.Screen,4_127_2,2023-09-27T02:46:48.151Z,,0,,,NaN,,,,,,false,,,,639437,639437,,639437,,639458,8,400,,,
sequence,flow.Sequence,4_127,2023-09-27T02:46:48.151Z,,0,,,2680,completion,,,,,false,,,,639438,639437,636741,636730,636757,639458,8,400,,,
trial,html.Screen,4_128_0,2023-09-27T02:46:52.091Z,,0,3,,3937.0000000001164,response,ISIC_9302863.JPG,5,ISIC_0003052.JPG,ISIC_9302863.JPG,false,1,keypress(m),500,643378,643377.0000000001,639440,639438,639458,643408,8,400,29,,ISIC_0003052.JPG
break,html.Screen,4_128_1,2023-09-27T02:46:52.092Z,,0,,,NaN,,,,,,false,,,,643379,643378,,643378,,643408,8,400,,,
break_continue,html.Screen,4_128_2,2023-09-27T02:46:52.092Z,,0,,,NaN,,,,,,false,,,,643379,643379,,643379,,643408,8,400,,,
sequence,flow.Sequence,4_128,2023-09-27T02:46:52.093Z,,0,,,3921,completion,,,,,false,,,,643379,643379,639440,639438,639458,643408,8,400,,,
trial,html.Screen,4_129_0,2023-09-27T02:46:55.616Z,,0,3,,3511,response,ISIC_0063845.JPG,5,ISIC_0069558.JPG,ISIC_0069558.JPG,false,0,keypress(z),500,646903,646902,643391,643379,643408,646924,8,400,30,,ISIC_0063845.JPG
break,html.Screen,4_129_1,2023-09-27T02:46:55.617Z,,0,,,NaN,,,,,,false,,,,646903,646903,,646903,,646924,8,400,,,
break_continue,html.Screen,4_129_2,2023-09-27T02:46:55.617Z,,0,,,NaN,,,,,,false,,,,646904,646904,,646904,,646924,8,400,,,
sequence,flow.Sequence,4_129,2023-09-27T02:46:55.617Z,,0,,,3496,completion,,,,,false,,,,646904,646904,643391,643379,643408,646924,8,400,,,
trial,html.Screen,4_130_0,2023-09-27T02:46:58.845Z,,0,3,,3224,response,ISIC_5798015.JPG,4,ISIC_4569077.JPG,ISIC_4569077.JPG,false,0,keypress(z),500,650131,650131,646907,646904,646924,650157,8,400,31,,ISIC_5798015.JPG
break,html.Screen,4_130_1,2023-09-27T02:46:58.845Z,,0,,,NaN,,,,,,false,,,,650132.0000000001,650132.0000000001,,650131,,650157,8,400,,,
break_continue,html.Screen,4_130_2,2023-09-27T02:46:58.846Z,,0,,,NaN,,,,,,false,,,,650132.0000000001,650132.0000000001,,650132.0000000001,,650157,8,400,,,
sequence,flow.Sequence,4_130,2023-09-27T02:46:58.846Z,,0,,,3208.0000000001164,completion,,,,,false,,,,650132.0000000001,650132.0000000001,646907,646904,646924,650157,8,400,,,
trial,html.Screen,4_131_0,2023-09-27T02:47:02.536Z,,0,3,,3681,response,ISIC_0011701.JPG,8,ISIC_0072917.JPG,ISIC_0011701.JPG,false,1,keypress(m),500,653823,653822,650141,650132.0000000001,650157,653858,8,400,32,,ISIC_0072917.JPG
break,html.Screen,4_131_1,2023-09-27T02:47:02.538Z,,0,,,NaN,,,,,,false,,,,653824.0000000001,653824.0000000001,,653823,,653858,8,400,,,
break_continue,html.Screen,4_131_2,2023-09-27T02:47:02.538Z,,0,,,NaN,,,,,,false,,,,653825,653824.0000000001,,653824.0000000001,,653858,8,400,,,
sequence,flow.Sequence,4_131,2023-09-27T02:47:02.538Z,,0,,,3667.0000000001164,completion,,,,,false,,,,653825,653824.0000000001,650141,650132.0000000001,650157,653858,8,400,,,
trial,html.Screen,4_132_0,2023-09-27T02:47:05.936Z,,0,3,,3381,response,ISIC_0033843.JPG,8,ISIC_9974299.JPG,ISIC_9974299.JPG,false,0,keypress(z),500,657223.0000000001,657222,653841,653825,653858,657241,8,400,33,,ISIC_0033843.JPG
break,html.Screen,4_132_1,2023-09-27T02:47:05.937Z,,0,,,NaN,,,,,,false,,,,657224,657223.0000000001,,657223.0000000001,,657241,8,400,,,
break_continue,html.Screen,4_132_2,2023-09-27T02:47:05.937Z,,0,,,NaN,,,,,,false,,,,657224,657224,,657224,,657241,8,400,,,
sequence,flow.Sequence,4_132,2023-09-27T02:47:05.937Z,,0,,,3366,completion,,,,,false,,,,657224,657224,653841,653825,653858,657241,8,400,,,
trial,html.Screen,4_133_0,2023-09-27T02:47:10.262Z,,0,3,,4323,response,ISIC_0073044.JPG,8,ISIC_1745182.JPG,ISIC_1745182.JPG,false,0,keypress(z),500,661549,661549,657226,657224,657241,661574,8,400,34,,ISIC_0073044.JPG
break,html.Screen,4_133_1,2023-09-27T02:47:10.263Z,,0,,,NaN,,,,,,false,,,,661550.0000000001,661550.0000000001,,661549,,661574,8,400,,,
break_continue,html.Screen,4_133_2,2023-09-27T02:47:10.264Z,,0,,,NaN,,,,,,false,,,,661550.0000000001,661550.0000000001,,661550.0000000001,,661574,8,400,,,
sequence,flow.Sequence,4_133,2023-09-27T02:47:10.264Z,,0,,,4309.000000000116,completion,,,,,false,,,,661550.0000000001,661550.0000000001,657226,657224,657241,661574,8,400,,,
trial,html.Screen,4_134_0,2023-09-27T02:47:13.653Z,,0,3,,3383,response,ISIC_0014480.JPG,6,ISIC_0015115.JPG,ISIC_0014480.JPG,false,1,keypress(m),500,664940,664940,661557,661551,661574,664974,8,400,35,,ISIC_0015115.JPG
break,html.Screen,4_134_1,2023-09-27T02:47:13.654Z,,0,,,NaN,,,,,,false,,,,664941,664941,,664940,,664974,8,400,,,
break_continue,html.Screen,4_134_2,2023-09-27T02:47:13.655Z,,0,,,NaN,,,,,,false,,,,664941,664941,,664941,,664974,8,400,,,
sequence,flow.Sequence,4_134,2023-09-27T02:47:13.655Z,,0,,,3367,completion,,,,,false,,,,664942,664941,661557,661551,661574,664974,8,400,,,
trial,html.Screen,4_135_0,2023-09-27T02:47:16.878Z,,0,3,,3206,response,ISIC_0010967.JPG,6,ISIC_0010081.JPG,ISIC_0010081.JPG,false,0,keypress(z),500,668165,668164,664958,664942,664974,668191,8,400,36,,ISIC_0010967.JPG
break,html.Screen,4_135_1,2023-09-27T02:47:16.879Z,,0,,,NaN,,,,,,false,,,,668166,668165,,668165,,668191,8,400,,,
break_continue,html.Screen,4_135_2,2023-09-27T02:47:16.879Z,,0,,,NaN,,,,,,false,,,,668166,668166,,668166,,668191,8,400,,,
sequence,flow.Sequence,4_135,2023-09-27T02:47:16.879Z,,0,,,3192,completion,,,,,false,,,,668166,668166,664958,664942,664974,668191,8,400,,,
trial,html.Screen,4_136_0,2023-09-27T02:47:20.800Z,,0,3,,3913,response,ISIC_2355374.JPG,8,ISIC_4535099.JPG,ISIC_2355374.JPG,false,1,keypress(m),500,672087,672086,668173,668166,668191,672124,8,400,37,,ISIC_4535099.JPG
break,html.Screen,4_136_1,2023-09-27T02:47:20.801Z,,0,,,NaN,,,,,,false,,,,672088,672088,,672087,,672124,8,400,,,
break_continue,html.Screen,4_136_2,2023-09-27T02:47:20.802Z,,0,,,NaN,,,,,,false,,,,672089,672088,,672088,,672124,8,400,,,
sequence,flow.Sequence,4_136,2023-09-27T02:47:20.802Z,,0,,,3897,completion,,,,,false,,,,672089,672088,668173,668166,668191,672124,8,400,,,
trial,html.Screen,4_137_0,2023-09-27T02:47:26.910Z,,0,3,,6090,response,ISIC_4699989.JPG,8,ISIC_0056271.JPG,ISIC_4699989.JPG,false,1,keypress(m),500,678197,678197,672107,672089,672124,678224,8,400,38,,ISIC_0056271.JPG
break,html.Screen,4_137_1,2023-09-27T02:47:26.911Z,,0,,,NaN,,,,,,false,,,,678198,678198,,678197,,678224,8,400,,,
break_continue,html.Screen,4_137_2,2023-09-27T02:47:26.912Z,,0,,,NaN,,,,,,false,,,,678199.0000000001,678198,,678198,,678224,8,400,,,
sequence,flow.Sequence,4_137,2023-09-27T02:47:26.912Z,,0,,,6074,completion,,,,,false,,,,678199.0000000001,678198,672107,672089,672124,678224,8,400,,,
trial,html.Screen,4_138_0,2023-09-27T02:47:30.238Z,,0,3,,3317,response,ISIC_7936755.JPG,4,ISIC_6763221.JPG,ISIC_6763221.JPG,false,0,keypress(z),500,681525,681524,678207,678199.0000000001,678224,681557,8,400,39,,ISIC_7936755.JPG
break,html.Screen,4_138_1,2023-09-27T02:47:30.239Z,,0,,,NaN,,,,,,false,,,,681526.0000000001,681526.0000000001,,681525,,681557,8,400,,,
break_continue,html.Screen,4_138_2,2023-09-27T02:47:30.239Z,,0,,,NaN,,,,,,false,,,,681526.0000000001,681526.0000000001,,681526.0000000001,,681557,8,400,,,
sequence,flow.Sequence,4_138,2023-09-27T02:47:30.239Z,,0,,,3302.0000000001164,completion,,,,,false,,,,681526.0000000001,681526.0000000001,678207,678199.0000000001,678224,681557,8,400,,,
trial,html.Screen,4_139_0,2023-09-27T02:47:33.760Z,,0,3,,3506,response,ISIC_3159924.JPG,4,ISIC_0068381.JPG,ISIC_3159924.JPG,false,1,keypress(m),500,685047,685047,681541,681526.0000000001,681557,685074,8,400,40,,ISIC_0068381.JPG
break,html.Screen,4_139_1,2023-09-27T02:47:33.761Z,,0,,,NaN,,,,,,false,,,,685048,685048,,685047,,685074,8,400,,,
break_continue,html.Screen,4_139_2,2023-09-27T02:47:33.761Z,,0,,,NaN,,,,,,false,,,,685048,685048,,685048,,685074,8,400,,,
sequence,flow.Sequence,4_139,2023-09-27T02:47:33.761Z,,0,,,3491,completion,,,,,false,,,,685049,685048,681541,681526.0000000001,681557,685074,8,400,,,
trial,html.Screen,4_140_0,2023-09-27T02:47:36.741Z,,0,3,,2971,response,ISIC_0011463.JPG,6,ISIC_5157775.JPG,ISIC_5157775.JPG,false,0,keypress(z),500,688028,688028,685057,685049,685074,688057,8,400,41,,ISIC_0011463.JPG
break,html.Screen,4_140_1,2023-09-27T02:47:36.742Z,,0,,,NaN,,,,,,false,,,,688029,688029,,688029,,688057,8,400,,,
break_continue,html.Screen,4_140_2,2023-09-27T02:47:36.742Z,,0,,,NaN,,,,,,false,,,,688030,688030,,688030,,688057,8,400,,,
sequence,flow.Sequence,4_140,2023-09-27T02:47:36.743Z,,0,,,2956,completion,,,,,false,,,,688030,688030,685057,685049,685074,688057,8,400,,,
trial,html.Screen,4_141_0,2023-09-27T02:47:40.186Z,,0,3,,3433.0000000001164,response,ISIC_0001792.JPG,0,ISIC_0228772.JPG,ISIC_0228772.JPG,false,0,keypress(z),500,691473.0000000001,691473.0000000001,688040,688030,688057,691491,8,400,42,,ISIC_0001792.JPG
break,html.Screen,4_141_1,2023-09-27T02:47:40.187Z,,0,,,NaN,,,,,,false,,,,691474,691474,,691473.0000000001,,691491,8,400,,,
break_continue,html.Screen,4_141_2,2023-09-27T02:47:40.187Z,,0,,,NaN,,,,,,false,,,,691475,691475,,691475,,691491,8,400,,,
sequence,flow.Sequence,4_141,2023-09-27T02:47:40.188Z,,0,,,3418,completion,,,,,false,,,,691475,691475,688040,688030,688057,691491,8,400,,,
trial,html.Screen,4_142_0,2023-09-27T02:47:42.997Z,,0,3,,2807,response,ISIC_0031021.JPG,6,ISIC_3610783.JPG,ISIC_0031021.JPG,false,1,keypress(m),500,694284,694284,691477,691475,691491,694307,8,400,43,,ISIC_3610783.JPG
break,html.Screen,4_142_1,2023-09-27T02:47:42.998Z,,0,,,NaN,,,,,,false,,,,694286,694285,,694285,,694307,8,400,,,
break_continue,html.Screen,4_142_2,2023-09-27T02:47:42.998Z,,0,,,NaN,,,,,,false,,,,694286,694286,,694286,,694307,8,400,,,
sequence,flow.Sequence,4_142,2023-09-27T02:47:42.999Z,,0,,,2795,completion,,,,,false,,,,694286,694286,691477,691475,691491,694307,8,400,,,
trial,html.Screen,4_143_0,2023-09-27T02:47:45.966Z,,0,3,,2963,response,ISIC_0000279.JPG,3,ISIC_3521671.JPG,ISIC_3521671.JPG,false,0,keypress(z),500,697254,697253,694290,694286,694307,697291,8,400,44,,ISIC_0000279.JPG
break,html.Screen,4_143_1,2023-09-27T02:47:45.968Z,,0,,,NaN,,,,,,false,,,,697255,697255,,697254,,697291,8,400,,,
break_continue,html.Screen,4_143_2,2023-09-27T02:47:45.968Z,,0,,,NaN,,,,,,false,,,,697256,697256,,697255,,697291,8,400,,,
sequence,flow.Sequence,4_143,2023-09-27T02:47:45.968Z,,0,,,2949,completion,,,,,false,,,,697256,697256,694290,694286,694307,697291,8,400,,,
trial,html.Screen,4_144_0,2023-09-27T02:47:49.098Z,,0,3,,3111,response,ISIC_7424320.JPG,4,ISIC_1924949.JPG,ISIC_1924949.JPG,false,0,keypress(z),500,700386,700385,697274,697256,697291,700407,8,400,45,,ISIC_7424320.JPG
break,html.Screen,4_144_1,2023-09-27T02:47:49.099Z,,0,,,NaN,,,,,,false,,,,700387,700387,,700386,,700407,8,400,,,
break_continue,html.Screen,4_144_2,2023-09-27T02:47:49.100Z,,0,,,NaN,,,,,,false,,,,700387,700387,,700387,,700407,8,400,,,
sequence,flow.Sequence,4_144,2023-09-27T02:47:49.100Z,,0,,,3096,completion,,,,,false,,,,700387,700387,697274,697256,697291,700407,8,400,,,
trial,html.Screen,4_145_0,2023-09-27T02:47:52.359Z,,0,3,,3256,response,ISIC_4659355.JPG,2,ISIC_8779142.JPG,ISIC_8779142.JPG,false,0,keypress(z),500,703647,703646,700390,700387,700407,703674,8,400,46,,ISIC_4659355.JPG
break,html.Screen,4_145_1,2023-09-27T02:47:52.360Z,,0,,,NaN,,,,,,false,,,,703648,703648,,703647,,703674,8,400,,,
break_continue,html.Screen,4_145_2,2023-09-27T02:47:52.361Z,,0,,,NaN,,,,,,false,,,,703648,703648,,703648,,703674,8,400,,,
sequence,flow.Sequence,4_145,2023-09-27T02:47:52.361Z,,0,,,3241,completion,,,,,false,,,,703648,703648,700390,700387,700407,703674,8,400,,,
trial,html.Screen,4_146_0,2023-09-27T02:47:55.461Z,,0,3,,3091,response,ISIC_0029531.JPG,8,ISIC_0034092.JPG,ISIC_0029531.JPG,false,1,keypress(m),500,706749,706748,703657,703648,703674,706774,8,400,47,,ISIC_0034092.JPG
break,html.Screen,4_146_1,2023-09-27T02:47:55.462Z,,0,,,NaN,,,,,,false,,,,706750,706750,,706749,,706774,8,400,,,
break_continue,html.Screen,4_146_2,2023-09-27T02:47:55.463Z,,0,,,NaN,,,,,,false,,,,706750,706750,,706750,,706774,8,400,,,
sequence,flow.Sequence,4_146,2023-09-27T02:47:55.463Z,,0,,,3076,completion,,,,,false,,,,706750,706750,703657,703648,703674,706774,8,400,,,
trial,html.Screen,4_147_0,2023-09-27T02:47:58.637Z,,0,3,,3167,response,ISIC_3209501.JPG,3,ISIC_0016033.JPG,ISIC_0016033.JPG,false,0,keypress(z),500,709925.0000000001,709924,706757,706750,706774,709957,8,400,48,,ISIC_3209501.JPG
break,html.Screen,4_147_1,2023-09-27T02:47:58.638Z,,0,,,NaN,,,,,,false,,,,709926,709926,,709925.0000000001,,709957,8,400,,,
break_continue,html.Screen,4_147_2,2023-09-27T02:47:58.638Z,,0,,,NaN,,,,,,false,,,,709926,709926,,709926,,709957,8,400,,,
sequence,flow.Sequence,4_147,2023-09-27T02:47:58.638Z,,0,,,3152,completion,,,,,false,,,,709926,709926,706757,706750,706774,709957,8,400,,,
trial,html.Screen,4_148_0,2023-09-27T02:48:02.108Z,,0,3,,3454,response,ISIC_0029729.JPG,3,ISIC_5383064.JPG,ISIC_5383064.JPG,false,0,keypress(z),500,713396,713395,709941,709926,709957,713424,8,400,49,,ISIC_0029729.JPG
break,html.Screen,4_148_1,2023-09-27T02:48:02.109Z,,0,,,NaN,,,,,,false,,,,713397,713396,,713396,,713424,8,400,,,
break_continue,html.Screen,4_148_2,2023-09-27T02:48:02.109Z,,0,,,NaN,,,,,,false,,,,713397,713397,,713397,,713424,8,400,,,
sequence,flow.Sequence,4_148,2023-09-27T02:48:02.109Z,,0,,,3440,completion,,,,,false,,,,713397,713397,709941,709926,709957,713424,8,400,,,
trial,html.Screen,4_149_0,2023-09-27T02:48:06.496Z,,0,3,,4377,response,ISIC_5647554.JPG,15,ISIC_2680588.JPG,ISIC_5647554.JPG,false,1,keypress(m),500,717784,717783,713406,713397,713424,717807,8,400,50,,ISIC_2680588.JPG
break,html.Screen,4_149_1,2023-09-27T02:48:16.503Z,,0,,,10000,timeout,,,,,false,,,,727791,727790,717790,717784,717807,727807,8,400,,,
break_continue,html.Screen,4_149_2,2023-09-27T02:48:35.367Z,,0,,,18949,response,,,,,false,continue,keypress(Space),,746656.0000000001,746739,727790,727791,727807,746689,8,400,,,
sequence,flow.Sequence,4_149,2023-09-27T02:48:35.368Z,,0,,,33315,completion,,,,,false,,,,746656.0000000001,746739,713406,713397,713424,746689,8,400,,,
trial,html.Screen,4_150_0,2023-09-27T02:48:40.102Z,,0,4,,4718,response,ISIC_0031303.JPG,15,ISIC_0484171.JPG,ISIC_0484171.JPG,false,0,keypress(z),500,751390,751390,746672,746656.0000000001,746689,751424,8,400,1,,ISIC_0031303.JPG
break,html.Screen,4_150_1,2023-09-27T02:48:40.103Z,,0,,,NaN,,,,,,false,,,,751391,751391,,751390,,751424,8,400,,,
break_continue,html.Screen,4_150_2,2023-09-27T02:48:40.103Z,,0,,,NaN,,,,,,false,,,,751392,751391,,751391,,751424,8,400,,,
sequence,flow.Sequence,4_150,2023-09-27T02:48:40.103Z,,0,,,4702,completion,,,,,false,,,,751392,751391,746672,746656.0000000001,746689,751424,8,400,,,
trial,html.Screen,4_151_0,2023-09-27T02:48:43.270Z,,0,4,,3151,response,ISIC_0066223.JPG,9,ISIC_0007029.JPG,ISIC_0007029.JPG,false,0,keypress(z),500,754559,754558,751407,751392,751424,754590,8,400,2,,ISIC_0066223.JPG
break,html.Screen,4_151_1,2023-09-27T02:48:43.271Z,,0,,,NaN,,,,,,false,,,,754560.0000000001,754559,,754559,,754590,8,400,,,
break_continue,html.Screen,4_151_2,2023-09-27T02:48:43.271Z,,0,,,NaN,,,,,,false,,,,754560.0000000001,754560.0000000001,,754560.0000000001,,754590,8,400,,,
sequence,flow.Sequence,4_151,2023-09-27T02:48:43.271Z,,0,,,3136.0000000001164,completion,,,,,false,,,,754560.0000000001,754560.0000000001,751407,751392,751424,754590,8,400,,,
trial,html.Screen,4_152_0,2023-09-27T02:48:46.418Z,,0,4,,3133,response,ISIC_0026518.JPG,3,ISIC_0061630.JPG,ISIC_0026518.JPG,false,1,keypress(m),500,757707,757707,754574,754560.0000000001,754590,757740,8,400,3,,ISIC_0061630.JPG
break,html.Screen,4_152_1,2023-09-27T02:48:46.419Z,,0,,,NaN,,,,,,false,,,,757708,757708,,757707,,757740,8,400,,,
break_continue,html.Screen,4_152_2,2023-09-27T02:48:46.419Z,,0,,,NaN,,,,,,false,,,,757708,757708,,757708,,757740,8,400,,,
sequence,flow.Sequence,4_152,2023-09-27T02:48:46.419Z,,0,,,3118,completion,,,,,false,,,,757708,757708,754574,754560.0000000001,754590,757740,8,400,,,
trial,html.Screen,4_153_0,2023-09-27T02:48:49.869Z,,0,4,,3433,response,ISIC_4038618.JPG,10,ISIC_0054973.JPG,ISIC_0054973.JPG,false,0,keypress(z),500,761157,761157,757724,757708,757740,761190,8,400,4,,ISIC_4038618.JPG
break,html.Screen,4_153_1,2023-09-27T02:48:49.870Z,,0,,,NaN,,,,,,false,,,,761159,761158,,761158,,761190,8,400,,,
break_continue,html.Screen,4_153_2,2023-09-27T02:48:49.870Z,,0,,,NaN,,,,,,false,,,,761159,761159,,761159,,761190,8,400,,,
sequence,flow.Sequence,4_153,2023-09-27T02:48:49.870Z,,0,,,3419,completion,,,,,false,,,,761159,761159,757724,757708,757740,761190,8,400,,,
trial,html.Screen,4_154_0,2023-09-27T02:48:53.300Z,,0,4,,3414,response,ISIC_9482039.JPG,16,ISIC_5437785.JPG,ISIC_5437785.JPG,false,0,keypress(z),500,764588,764588,761174,761159,761190,764607,8,400,5,,ISIC_9482039.JPG
break,html.Screen,4_154_1,2023-09-27T02:48:53.300Z,,0,,,NaN,,,,,,false,,,,764589,764589,,764588,,764607,8,400,,,
break_continue,html.Screen,4_154_2,2023-09-27T02:48:53.301Z,,0,,,NaN,,,,,,false,,,,764589,764589,,764589,,764607,8,400,,,
sequence,flow.Sequence,4_154,2023-09-27T02:48:53.301Z,,0,,,3399,completion,,,,,false,,,,764590,764589,761174,761159,761190,764607,8,400,,,
trial,html.Screen,4_155_0,2023-09-27T02:48:57.393Z,,0,4,,4090,response,ISIC_0030860.JPG,9,ISIC_6996553.JPG,ISIC_6996553.JPG,false,0,keypress(z),500,768682,768681,764591,764590,764607,768707,8,400,6,,ISIC_0030860.JPG
break,html.Screen,4_155_1,2023-09-27T02:48:57.394Z,,0,,,NaN,,,,,,false,,,,768683,768683,,768682,,768707,8,400,,,
break_continue,html.Screen,4_155_2,2023-09-27T02:48:57.394Z,,0,,,NaN,,,,,,false,,,,768683,768683,,768683,,768707,8,400,,,
sequence,flow.Sequence,4_155,2023-09-27T02:48:57.394Z,,0,,,4076,completion,,,,,false,,,,768683,768683,764591,764590,764607,768707,8,400,,,
trial,html.Screen,4_156_0,2023-09-27T02:49:01.838Z,,0,4,,4436,response,ISIC_8814398.JPG,8,ISIC_9260499.JPG,ISIC_8814398.JPG,false,1,keypress(m),500,773127.0000000001,773126,768690,768683,768707,773157,8,400,7,,ISIC_9260499.JPG
break,html.Screen,4_156_1,2023-09-27T02:49:01.839Z,,0,,,NaN,,,,,,false,,,,773128,773127.0000000001,,773127.0000000001,,773157,8,400,,,
break_continue,html.Screen,4_156_2,2023-09-27T02:49:01.839Z,,0,,,NaN,,,,,,false,,,,773128,773128,,773128,,773157,8,400,,,
sequence,flow.Sequence,4_156,2023-09-27T02:49:01.839Z,,0,,,4421,completion,,,,,false,,,,773128,773128,768690,768683,768707,773157,8,400,,,
trial,html.Screen,4_157_0,2023-09-27T02:49:05.597Z,,0,4,,3746,response,ISIC_7642500.JPG,0,ISIC_0067891.JPG,ISIC_0067891.JPG,false,0,keypress(z),500,776887,776886,773140,773128,773157,776923,8,400,8,,ISIC_7642500.JPG
break,html.Screen,4_157_1,2023-09-27T02:49:05.598Z,,0,,,NaN,,,,,,false,,,,776887,776887,,776887,,776923,8,400,,,
