sender,sender_type,sender_id,timestamp,meta,,blockNo,condition,duration,ended_on,img_left,img_reveal,img_right,loser,practice,response,response_action,selection_duration,time_commit,time_end,time_render,time_run,time_show,time_switch,total_blocks,total_trials,trialNo,url,winner
informed_consent,html.Screen,0,2023-05-03T20:49:12.189Z,"{""labjs_version"":""20.2.4"",""labjs_build"":{""flavor"":""production"",""commit"":""f5b4a49f956347addd546a832a3327688c2c0fef""},""location"":""https://run.pavlovia.org/MurrayBennett/melanoma-2afc/?participant=64660"",""userAgent"":""Mozilla/5.0 (Macintosh; Intel Mac OS X 10_15_7) AppleWebKit/537.36 (KHTML, like Gecko) Chrome/112.0.0.0 Safari/537.36"",""platform"":""MacIntel"",""language"":""en-US"",""locale"":""en-US"",""timeZone"":""America/Chicago"",""timezoneOffset"":300,""screen_width"":1440,""screen_height"":900,""scroll_width"":1440,""scroll_height"":716,""window_innerWidth"":1440,""window_innerHeight"":764,""devicePixelRatio"":2}",,,,1974.775,response,,,,,,consent,click button,,2589.199999988079,2586,577.893,553.3000000119209,611.225,2611.145,,,,"{""participant"":""64660""}",
Welcome,html.Screen,1,2023-05-03T20:49:13.521Z,,,,regular,1307.054999988079,response,,,,,,continue,click button,,3920.300000011921,3918.199999988079,2577.813,2589.5,2611.145,3944.425,,,,,
trial,html.Screen,2_0_0,2023-05-03T20:49:15.941Z,,0,0,,2395.6749999940394,response,ISIC_0061792.JPG,,ISIC_4679428.JPG,ISIC_0061792.JPG,true,1,keypress(m),500,6340.5,6340.0999999940395,3911.093,3920.800000011921,3944.425,6344.329,1,6,1,,ISIC_4679428.JPG
sequence,flow.Sequence,2_0,2023-05-03T20:49:15.941Z,,0,,,2395.6749999940394,completion,,,,,true,,,,6341,6340.0999999940395,3911.093,3920.699999988079,3944.425,6344.329,1,6,,,
trial,html.Screen,2_1_0,2023-05-03T20:49:18.011Z,,0,0,,2066.0710000059607,response,ISIC_0776486.JPG,,ISIC_5199497.JPG,ISIC_0776486.JPG,true,1,keypress(m),500,8410.800000011921,8410.40000000596,6310.997,6341.199999988079,6344.329,8444.245,1,6,2,,ISIC_5199497.JPG
sequence,flow.Sequence,2_1,2023-05-03T20:49:18.011Z,,0,,,2066.0710000059607,completion,,,,,true,,,,8411.199999988079,8410.40000000596,6310.997,6341.0999999940395,6344.329,8444.245,1,6,,,
trial,html.Screen,2_2_0,2023-05-03T20:49:20.011Z,,0,0,,1966.4549999880783,response,ISIC_2556187.JPG,,ISIC_8575776.JPG,ISIC_2556187.JPG,true,1,keypress(m),500,10411.199999988079,10410.699999988079,8410.913,8411.40000000596,8444.245,10444.165,1,6,3,,ISIC_8575776.JPG
sequence,flow.Sequence,2_2,2023-05-03T20:49:20.012Z,,0,,,1966.4549999880783,completion,,,,,true,,,,10411.699999988079,10410.699999988079,8410.913,8411.300000011921,8444.245,10444.165,1,6,,,
trial,html.Screen,2_3_0,2023-05-03T20:49:22.167Z,,0,0,,2121.7350000059596,response,ISIC_8141769.JPG,,ISIC_9238366.JPG,ISIC_8141769.JPG,true,1,keypress(m),500,12566.40000000596,12565.90000000596,10410.833,10411.800000011921,10444.165,12577.813,1,6,4,,ISIC_9238366.JPG
sequence,flow.Sequence,2_3,2023-05-03T20:49:22.167Z,,0,,,2121.7350000059596,completion,,,,,true,,,,12567,12565.90000000596,10410.833,10411.699999988079,10444.165,12577.813,1,6,,,
trial,html.Screen,2_4_0,2023-05-03T20:49:24.142Z,,0,0,,1964.187,response,ISIC_8949026.JPG,,ISIC_9959593.JPG,ISIC_8949026.JPG,true,1,keypress(m),500,14542.40000000596,14542,12544.481,12567.199999988079,12577.813,14544.401,1,6,5,,ISIC_9959593.JPG
sequence,flow.Sequence,2_4,2023-05-03T20:49:24.143Z,,0,,,1964.187,completion,,,,,true,,,,14542.800000011921,14542,12544.481,12567.09999999404,12577.813,14544.401,1,6,,,
trial,html.Screen,2_5_0,2023-05-03T20:49:26.198Z,,0,0,,2053.2989999880792,response,ISIC_0010479.JPG,,ISIC_0460240.JPG,ISIC_0010479.JPG,true,1,keypress(m),500,16598.19999998808,16597.69999998808,14511.069,14543.09999999404,14544.401,16610.985,1,6,6,,ISIC_0460240.JPG
sequence,flow.Sequence,2_5,2023-05-03T20:49:26.199Z,,0,,,2053.2989999880792,completion,,,,,true,,,,16598.59999999404,16597.69999998808,14511.069,14543.09999999404,14544.401,16610.985,1,6,,,
loop,flow.Loop,2,2023-05-03T20:49:26.199Z,,,,,12653.27499998808,completion,,,,,true,,,,16598.80000001192,16597.69999998808,3911.093,3920.699999988079,3944.425,16610.985,1,6,,,
exp_instructions,html.Screen,3,2023-05-03T20:49:28.587Z,,,,,2372.2149999880785,response,,,,,,continue,keypress(Space),,18987.5,18983.19999998808,16577.653,16598.90000000596,16610.985,19010.889,,,,,
trial,html.Screen,4_0_0,2023-05-03T20:49:30.843Z,,0,1,,2232.0110000059613,response,ISIC_0069481.JPG,,ISIC_7260492.JPG,ISIC_0069481.JPG,false,1,keypress(m),500,21243.19999998808,21242.90000000596,18977.557,18987.69999998808,19010.889,21269.594,8,400,1,,ISIC_7260492.JPG
break,html.Screen,4_0_1,2023-05-03T20:49:30.844Z,,0,,,NaN,,,,,,false,,,,21244.40000000596,21244.09999999404,,21243.5,,21269.594,8,400,,,
break_continue,html.Screen,4_0_2,2023-05-03T20:49:30.845Z,,0,,,NaN,,,,,,false,,,,21244.80000001192,21244.59999999404,,21244.5,,21269.594,8,400,,,
sequence,flow.Sequence,4_0,2023-05-03T20:49:30.845Z,,0,,,2233.7109999940403,completion,,,,,false,,,,21245,21244.59999999404,18977.557,18987.69999998808,19010.889,21269.594,8,400,,,
trial,html.Screen,4_1_0,2023-05-03T20:49:33.115Z,,0,1,,2245.20600001192,response,ISIC_0009879.JPG,,ISIC_0189336.JPG,ISIC_0009879.JPG,false,1,keypress(m),500,23515.09999999404,23514.80000001192,21236.262,21245.09999999404,21269.594,23536.17,8,400,2,,ISIC_0189336.JPG
break,html.Screen,4_1_1,2023-05-03T20:49:33.116Z,,0,,,NaN,,,,,,false,,,,23516.09999999404,23515.90000000596,,23515.40000000596,,23536.17,8,400,,,
break_continue,html.Screen,4_1_2,2023-05-03T20:49:33.116Z,,0,,,NaN,,,,,,false,,,,23516.40000000596,23516.30000001192,,23516.19999998808,,23536.17,8,400,,,
sequence,flow.Sequence,4_1,2023-05-03T20:49:33.116Z,,0,,,2246.70600001192,completion,,,,,false,,,,23516.69999998808,23516.30000001192,21236.262,21245.09999999404,21269.594,23536.17,8,400,,,
trial,html.Screen,4_2_0,2023-05-03T20:49:35.184Z,,0,1,,2047.5299999880808,response,ISIC_5221917.JPG,,ISIC_3203344.JPG,ISIC_5221917.JPG,false,1,keypress(m),500,25584.19999998808,25583.69999998808,23502.838,23516.80000001192,23536.17,25602.754,8,400,3,,ISIC_3203344.JPG
break,html.Screen,4_2_1,2023-05-03T20:49:35.185Z,,0,,,NaN,,,,,,false,,,,25584.80000001192,25584.69999998808,,25584.30000001192,,25602.754,8,400,,,
break_continue,html.Screen,4_2_2,2023-05-03T20:49:35.185Z,,0,,,NaN,,,,,,false,,,,25585.09999999404,25585,,25585,,25602.754,8,400,,,
sequence,flow.Sequence,4_2,2023-05-03T20:49:35.185Z,,0,,,2048.8300000000017,completion,,,,,false,,,,25585.19999998808,25585,23502.838,23516.69999998808,23536.17,25602.754,8,400,,,
trial,html.Screen,4_3_0,2023-05-03T20:49:38.787Z,,0,1,,3584.4459999880783,response,ISIC_1089617.JPG,,ISIC_9466794.JPG,ISIC_1089617.JPG,false,1,keypress(m),500,29187.69999998808,29187.19999998808,25569.422,25585.30000001192,25602.754,29202.61,8,400,4,,ISIC_9466794.JPG
break,html.Screen,4_3_1,2023-05-03T20:49:38.788Z,,0,,,NaN,,,,,,false,,,,29188.69999998808,29188.40000000596,,29188,,29202.61,8,400,,,
break_continue,html.Screen,4_3_2,2023-05-03T20:49:38.789Z,,0,,,NaN,,,,,,false,,,,29189,29188.90000000596,,29188.80000001192,,29202.61,8,400,,,
sequence,flow.Sequence,4_3,2023-05-03T20:49:38.789Z,,0,,,3586.1460000059596,completion,,,,,false,,,,29189.09999999404,29188.90000000596,25569.422,25585.30000001192,25602.754,29202.61,8,400,,,
trial,html.Screen,4_4_0,2023-05-03T20:49:40.891Z,,0,1,,2088.489999994039,response,ISIC_0010081.JPG,,ISIC_0026745.JPG,ISIC_0010081.JPG,false,1,keypress(m),500,31291.59999999404,31291.09999999404,29169.278,29189.30000001192,29202.61,31311.211,8,400,5,,ISIC_0026745.JPG
break,html.Screen,4_4_1,2023-05-03T20:49:40.892Z,,0,,,NaN,,,,,,false,,,,31292.59999999404,31292.30000001192,,31291.80000001192,,31311.211,8,400,,,
break_continue,html.Screen,4_4_2,2023-05-03T20:49:40.893Z,,0,,,NaN,,,,,,false,,,,31292.90000000596,31292.80000001192,,31292.69999998808,,31311.211,8,400,,,
sequence,flow.Sequence,4_4,2023-05-03T20:49:40.893Z,,0,,,2090.1900000119203,completion,,,,,false,,,,31293.09999999404,31292.80000001192,29169.278,29189.30000001192,29202.61,31311.211,8,400,,,
trial,html.Screen,4_5_0,2023-05-03T20:49:42.947Z,,0,1,,2035.9889999880797,response,ISIC_0000155.JPG,,ISIC_4974868.JPG,ISIC_0000155.JPG,false,1,keypress(m),500,33347.59999999404,33347.19999998808,31277.879,31293.19999998808,31311.211,33377.795,8,400,6,,ISIC_4974868.JPG
break,html.Screen,4_5_1,2023-05-03T20:49:42.948Z,,0,,,NaN,,,,,,false,,,,33348.5,33348.30000001192,,33347.90000000596,,33377.795,8,400,,,
break_continue,html.Screen,4_5_2,2023-05-03T20:49:42.949Z,,0,,,NaN,,,,,,false,,,,33348.90000000596,33348.80000001192,,33348.59999999404,,33377.795,8,400,,,
sequence,flow.Sequence,4_5,2023-05-03T20:49:42.949Z,,0,,,2037.5890000119216,completion,,,,,false,,,,33349,33348.80000001192,31277.879,31293.19999998808,31311.211,33377.795,8,400,,,
trial,html.Screen,4_6_0,2023-05-03T20:49:45.131Z,,0,1,,2153.0050000119227,response,ISIC_8806180.JPG,,ISIC_6968422.JPG,ISIC_8806180.JPG,false,1,keypress(m),500,35531.19999998808,35530.80000001192,33344.463,33349.19999998808,33377.795,35544.375,8,400,7,,ISIC_6968422.JPG
break,html.Screen,4_6_1,2023-05-03T20:49:45.132Z,,0,,,NaN,,,,,,false,,,,35532.19999998808,35532,,35531.40000000596,,35544.375,8,400,,,
break_continue,html.Screen,4_6_2,2023-05-03T20:49:45.132Z,,0,,,NaN,,,,,,false,,,,35532.59999999404,35532.40000000596,,35532.30000001192,,35544.375,8,400,,,
sequence,flow.Sequence,4_6,2023-05-03T20:49:45.132Z,,0,,,2154.605000005962,completion,,,,,false,,,,35532.69999998808,35532.40000000596,33344.463,33349.19999998808,33377.795,35544.375,8,400,,,
trial,html.Screen,4_7_0,2023-05-03T20:49:47.340Z,,0,1,,2195.425000011921,response,ISIC_0651353.JPG,,ISIC_1253960.JPG,ISIC_0651353.JPG,false,1,keypress(m),500,37740.19999998808,37739.80000001192,35511.043,35532.90000000596,35544.375,37744.287,8,400,8,,ISIC_1253960.JPG
break,html.Screen,4_7_1,2023-05-03T20:49:47.341Z,,0,,,NaN,,,,,,false,,,,37741.09999999404,37740.90000000596,,37740.40000000596,,37744.287,8,400,,,
break_continue,html.Screen,4_7_2,2023-05-03T20:49:47.341Z,,0,,,NaN,,,,,,false,,,,37741.59999999404,37741.40000000596,,37741.30000001192,,37744.287,8,400,,,
sequence,flow.Sequence,4_7,2023-05-03T20:49:47.341Z,,0,,,2197.0250000059605,completion,,,,,false,,,,37741.80000001192,37741.40000000596,35511.043,35532.80000001192,35544.375,37744.287,8,400,,,
trial,html.Screen,4_8_0,2023-05-03T20:49:49.403Z,,0,1,,2058.812999994043,response,ISIC_0069635.JPG,,ISIC_5281908.JPG,ISIC_0069635.JPG,false,1,keypress(m),500,39803.59999999404,39803.09999999404,37710.955,37741.90000000596,37744.287,39810.871,8,400,9,,ISIC_5281908.JPG
break,html.Screen,4_8_1,2023-05-03T20:49:49.404Z,,0,,,NaN,,,,,,false,,,,39804.5,39804.30000001192,,39803.80000001192,,39810.871,8,400,,,
break_continue,html.Screen,4_8_2,2023-05-03T20:49:49.404Z,,0,,,NaN,,,,,,false,,,,39804.90000000596,39804.80000001192,,39804.69999998808,,39810.871,8,400,,,
sequence,flow.Sequence,4_8,2023-05-03T20:49:49.405Z,,0,,,2060.5130000119243,completion,,,,,false,,,,39805.09999999404,39804.80000001192,37710.955,37741.80000001192,37744.287,39810.871,8,400,,,
trial,html.Screen,4_9_0,2023-05-03T20:49:51.907Z,,0,1,,2495.9290000119217,response,ISIC_0010664.JPG,,ISIC_4453506.JPG,ISIC_0010664.JPG,false,1,keypress(m),500,42307.30000001192,42306.80000001192,39777.539,39805.19999998808,39810.871,42336.249,8,400,10,,ISIC_4453506.JPG
break,html.Screen,4_9_1,2023-05-03T20:49:51.908Z,,0,,,NaN,,,,,,false,,,,42308.19999998808,42308,,42307.5,,42336.249,8,400,,,
break_continue,html.Screen,4_9_2,2023-05-03T20:49:51.908Z,,0,,,NaN,,,,,,false,,,,42308.59999999404,42308.40000000596,,42308.40000000596,,42336.249,8,400,,,
sequence,flow.Sequence,4_9,2023-05-03T20:49:51.908Z,,0,,,2497.5290000059613,completion,,,,,false,,,,42308.69999998808,42308.40000000596,39777.539,39805.09999999404,39810.871,42336.249,8,400,,,
trial,html.Screen,4_10_0,2023-05-03T20:49:53.998Z,,0,1,,2061.7509999999966,response,ISIC_1684127.JPG,,ISIC_0055378.JPG,ISIC_1684127.JPG,false,1,keypress(m),500,44398.30000001192,44398,42302.917,42308.80000001192,42336.249,44402.833,8,400,11,,ISIC_0055378.JPG
break,html.Screen,4_10_1,2023-05-03T20:49:53.999Z,,0,,,NaN,,,,,,false,,,,44399.30000001192,44399,,44398.59999999404,,44402.833,8,400,,,
break_continue,html.Screen,4_10_2,2023-05-03T20:49:53.999Z,,0,,,NaN,,,,,,false,,,,44399.59999999404,44399.5,,44399.40000000596,,44402.833,8,400,,,
sequence,flow.Sequence,4_10,2023-05-03T20:49:53.999Z,,0,,,2063.2509999999966,completion,,,,,false,,,,44399.80000001192,44399.5,42302.917,42308.80000001192,42336.249,44402.833,8,400,,,
trial,html.Screen,4_11_0,2023-05-03T20:49:56.099Z,,0,1,,2096.3669999880804,response,ISIC_9307584.JPG,,ISIC_0218072.JPG,ISIC_9307584.JPG,false,1,keypress(m),500,46499.5,46499.19999998808,44369.501,44399.80000001192,44402.833,46502.749,8,400,12,,ISIC_0218072.JPG
break,html.Screen,4_11_1,2023-05-03T20:49:56.100Z,,0,,,NaN,,,,,,false,,,,46500.59999999404,46500.40000000596,,46499.90000000596,,46502.749,8,400,,,
break_continue,html.Screen,4_11_2,2023-05-03T20:49:56.100Z,,0,,,NaN,,,,,,false,,,,46501,46500.80000001192,,46500.69999998808,,46502.749,8,400,,,
sequence,flow.Sequence,4_11,2023-05-03T20:49:56.101Z,,0,,,2097.967000011922,completion,,,,,false,,,,46501.09999999404,46500.80000001192,44369.501,44399.80000001192,44402.833,46502.749,8,400,,,
trial,html.Screen,4_12_0,2023-05-03T20:49:58.174Z,,0,1,,2071.2509999999966,response,ISIC_3932879.JPG,,ISIC_0069556.JPG,ISIC_3932879.JPG,false,1,keypress(m),500,48574.40000000596,48574,46469.417,46501.30000001192,46502.749,48602.665,8,400,13,,ISIC_0069556.JPG
break,html.Screen,4_12_1,2023-05-03T20:49:58.175Z,,0,,,NaN,,,,,,false,,,,48575.30000001192,48575.09999999404,,48574.59999999404,,48602.665,8,400,,,
break_continue,html.Screen,4_12_2,2023-05-03T20:49:58.175Z,,0,,,NaN,,,,,,false,,,,48575.59999999404,48575.40000000596,,48575.40000000596,,48602.665,8,400,,,
sequence,flow.Sequence,4_12,2023-05-03T20:49:58.175Z,,0,,,2072.651000005957,completion,,,,,false,,,,48575.80000001192,48575.40000000596,46469.417,46501.19999998808,46502.749,48602.665,8,400,,,
trial,html.Screen,4_13_0,2023-05-03T20:50:00.323Z,,0,1,,2120.534999988078,response,ISIC_3596877.JPG,,ISIC_0031529.JPG,ISIC_3596877.JPG,false,1,keypress(m),500,50723.59999999404,50723.19999998808,48569.333,48575.90000000596,48602.665,50735.913,8,400,14,,ISIC_0031529.JPG
break,html.Screen,4_13_1,2023-05-03T20:50:00.324Z,,0,,,NaN,,,,,,false,,,,50724.5,50724.30000001192,,50723.90000000596,,50735.913,8,400,,,
break_continue,html.Screen,4_13_2,2023-05-03T20:50:00.324Z,,0,,,NaN,,,,,,false,,,,50724.90000000596,50724.80000001192,,50724.59999999404,,50735.913,8,400,,,
sequence,flow.Sequence,4_13,2023-05-03T20:50:00.324Z,,0,,,2122.13500001192,completion,,,,,false,,,,50725,50724.80000001192,48569.333,48575.90000000596,48602.665,50735.913,8,400,,,
trial,html.Screen,4_14_0,2023-05-03T20:50:02.451Z,,0,1,,2115.2869999880786,response,ISIC_0014926.JPG,,ISIC_0030519.JPG,ISIC_0014926.JPG,false,1,keypress(m),500,52851.5,52851.19999998808,50702.581,50725.09999999404,50735.913,52869.608,8,400,15,,ISIC_0030519.JPG
break,html.Screen,4_14_1,2023-05-03T20:50:02.452Z,,0,,,NaN,,,,,,false,,,,52852.40000000596,52852.19999998808,,52851.80000001192,,52869.608,8,400,,,
break_continue,html.Screen,4_14_2,2023-05-03T20:50:02.452Z,,0,,,NaN,,,,,,false,,,,52852.80000001192,52852.59999999404,,52852.5,,52869.608,8,400,,,
sequence,flow.Sequence,4_14,2023-05-03T20:50:02.452Z,,0,,,2116.686999994039,completion,,,,,false,,,,52852.90000000596,52852.59999999404,50702.581,50725.09999999404,50735.913,52869.608,8,400,,,
trial,html.Screen,4_15_0,2023-05-03T20:50:04.435Z,,0,1,,1965.4919999940394,response,ISIC_0060749.JPG,,ISIC_1497800.JPG,ISIC_0060749.JPG,false,1,keypress(m),500,54835.59999999404,54835.09999999404,52836.276,52853.09999999404,52869.608,54869.528,8,400,16,,ISIC_1497800.JPG
break,html.Screen,4_15_1,2023-05-03T20:50:04.436Z,,0,,,NaN,,,,,,false,,,,54836.40000000596,54836.19999998808,,54835.80000001192,,54869.528,8,400,,,
break_continue,html.Screen,4_15_2,2023-05-03T20:50:04.436Z,,0,,,NaN,,,,,,false,,,,54836.80000001192,54836.69999998808,,54836.59999999404,,54869.528,8,400,,,
sequence,flow.Sequence,4_15,2023-05-03T20:50:04.436Z,,0,,,1967.091999988079,completion,,,,,false,,,,54837,54836.69999998808,52836.276,52853.09999999404,52869.608,54869.528,8,400,,,
trial,html.Screen,4_16_0,2023-05-03T20:50:06.467Z,,0,1,,1997.872000005962,response,ISIC_2987613.JPG,,ISIC_3613012.JPG,ISIC_2987613.JPG,false,1,keypress(m),500,56867.80000001192,56867.40000000596,54836.196,54837.09999999404,54869.528,56869.448,8,400,17,,ISIC_3613012.JPG
break,html.Screen,4_16_1,2023-05-03T20:50:06.468Z,,0,,,NaN,,,,,,false,,,,56868.59999999404,56868.5,,56868.09999999404,,56869.448,8,400,,,
break_continue,html.Screen,4_16_2,2023-05-03T20:50:06.468Z,,0,,,NaN,,,,,,false,,,,56869.09999999404,56868.90000000596,,56868.80000001192,,56869.448,8,400,,,
sequence,flow.Sequence,4_16,2023-05-03T20:50:06.468Z,,0,,,1999.372000005962,completion,,,,,false,,,,56869.19999998808,56868.90000000596,54836.196,54837.09999999404,54869.528,56869.448,8,400,,,
trial,html.Screen,4_17_0,2023-05-03T20:50:08.575Z,,0,1,,2105.651999994043,response,ISIC_9130157.JPG,,ISIC_2753279.JPG,ISIC_9130157.JPG,false,1,keypress(m),500,58975.5,58975.09999999404,56836.116,56869.40000000596,56869.448,59002.696,8,400,18,,ISIC_2753279.JPG
break,html.Screen,4_17_1,2023-05-03T20:50:08.576Z,,0,,,NaN,,,,,,false,,,,58976.5,58976.19999998808,,58975.69999998808,,59002.696,8,400,,,
break_continue,html.Screen,4_17_2,2023-05-03T20:50:08.576Z,,0,,,NaN,,,,,,false,,,,58976.80000001192,58976.69999998808,,58976.59999999404,,59002.696,8,400,,,
sequence,flow.Sequence,4_17,2023-05-03T20:50:08.576Z,,0,,,2107.2519999880824,completion,,,,,false,,,,58977,58976.69999998808,56836.116,56869.40000000596,56869.448,59002.696,8,400,,,
trial,html.Screen,4_18_0,2023-05-03T20:50:10.722Z,,0,1,,2120.204000005957,response,ISIC_0399142.JPG,,ISIC_0000452.JPG,ISIC_0399142.JPG,false,1,keypress(m),500,61123.19999998808,61122.90000000596,58969.364,58977.09999999404,59002.696,61135.944,8,400,19,,ISIC_0000452.JPG
break,html.Screen,4_18_1,2023-05-03T20:50:10.723Z,,0,,,NaN,,,,,,false,,,,61124.09999999404,61123.90000000596,,61123.5,,61135.944,8,400,,,
break_continue,html.Screen,4_18_2,2023-05-03T20:50:10.724Z,,0,,,NaN,,,,,,false,,,,61124.5,61124.40000000596,,61124.19999998808,,61135.944,8,400,,,
sequence,flow.Sequence,4_18,2023-05-03T20:50:10.724Z,,0,,,2121.704000005957,completion,,,,,false,,,,61124.59999999404,61124.40000000596,58969.364,58977,59002.696,61135.944,8,400,,,
trial,html.Screen,4_19_0,2023-05-03T20:50:12.733Z,,0,1,,1997.9560000059573,response,ISIC_0663824.JPG,,ISIC_0028915.JPG,ISIC_0663824.JPG,false,1,keypress(m),500,63134.19999998808,63133.90000000596,61102.612,61124.80000001192,61135.944,63136.303,8,400,20,,ISIC_0028915.JPG
break,html.Screen,4_19_1,2023-05-03T20:50:12.734Z,,0,,,NaN,,,,,,false,,,,63135.30000001192,63135,,63134.5,,63136.303,8,400,,,
break_continue,html.Screen,4_19_2,2023-05-03T20:50:12.735Z,,0,,,NaN,,,,,,false,,,,63135.69999998808,63135.59999999404,,63135.5,,63136.303,8,400,,,
sequence,flow.Sequence,4_19,2023-05-03T20:50:12.735Z,,0,,,1999.6559999940364,completion,,,,,false,,,,63135.80000001192,63135.59999999404,61102.612,61124.69999998808,61135.944,63136.303,8,400,,,
trial,html.Screen,4_20_0,2023-05-03T20:50:14.803Z,,0,1,,2066.896999988079,response,ISIC_0069859.JPG,,ISIC_3384884.JPG,ISIC_0069859.JPG,false,1,keypress(m),500,65203.59999999404,65203.19999998808,63102.971,63136,63136.303,65236.219,8,400,21,,ISIC_3384884.JPG
break,html.Screen,4_20_1,2023-05-03T20:50:14.804Z,,0,,,NaN,,,,,,false,,,,65204.5,65204.30000001192,,65203.90000000596,,65236.219,8,400,,,
break_continue,html.Screen,4_20_2,2023-05-03T20:50:14.804Z,,0,,,NaN,,,,,,false,,,,65204.80000001192,65204.69999998808,,65204.59999999404,,65236.219,8,400,,,
sequence,flow.Sequence,4_20,2023-05-03T20:50:14.804Z,,0,,,2068.396999988079,completion,,,,,false,,,,65205,65204.69999998808,63102.971,63135.90000000596,63136.303,65236.219,8,400,,,
trial,html.Screen,4_21_0,2023-05-03T20:50:16.922Z,,0,1,,2086.4809999880817,response,ISIC_0010108.JPG,,ISIC_0028746.JPG,ISIC_0010108.JPG,false,1,keypress(m),500,67323.09999999404,67322.69999998808,65202.887,65205.09999999404,65236.219,67336.135,8,400,22,,ISIC_0028746.JPG
break,html.Screen,4_21_1,2023-05-03T20:50:16.923Z,,0,,,NaN,,,,,,false,,,,67324.09999999404,67323.90000000596,,67323.40000000596,,67336.135,8,400,,,
break_continue,html.Screen,4_21_2,2023-05-03T20:50:16.923Z,,0,,,NaN,,,,,,false,,,,67324.40000000596,67324.30000001192,,67324.19999998808,,67336.135,8,400,,,
sequence,flow.Sequence,4_21,2023-05-03T20:50:16.924Z,,0,,,2088.0810000119236,completion,,,,,false,,,,67324.5,67324.30000001192,65202.887,65205.09999999404,65236.219,67336.135,8,400,,,
trial,html.Screen,4_22_0,2023-05-03T20:50:19.075Z,,0,1,,2139.165000011926,response,ISIC_9072567.JPG,,ISIC_0059066.JPG,ISIC_9072567.JPG,false,1,keypress(m),500,69475.5,69475.30000001192,67302.803,67324.69999998808,67336.135,69502.715,8,400,23,,ISIC_0059066.JPG
break,html.Screen,4_22_1,2023-05-03T20:50:19.075Z,,0,,,NaN,,,,,,false,,,,69476.5,69476.30000001192,,69475.90000000596,,69502.715,8,400,,,
break_continue,html.Screen,4_22_2,2023-05-03T20:50:19.076Z,,0,,,NaN,,,,,,false,,,,69476.80000001192,69476.69999998808,,69476.59999999404,,69502.715,8,400,,,
sequence,flow.Sequence,4_22,2023-05-03T20:50:19.076Z,,0,,,2140.5649999880843,completion,,,,,false,,,,69477,69476.69999998808,67302.803,67324.69999998808,67336.135,69502.715,8,400,,,
trial,html.Screen,4_23_0,2023-05-03T20:50:21.178Z,,0,1,,2075.9849999880826,response,ISIC_0000022.JPG,,ISIC_0066506.JPG,ISIC_0000022.JPG,false,1,keypress(m),500,71579.09999999404,71578.69999998808,69469.383,69477.19999998808,69502.715,71602.631,8,400,24,,ISIC_0066506.JPG
break,html.Screen,4_23_1,2023-05-03T20:50:21.179Z,,0,,,NaN,,,,,,false,,,,71580,71579.90000000596,,71579.40000000596,,71602.631,8,400,,,
break_continue,html.Screen,4_23_2,2023-05-03T20:50:21.179Z,,0,,,NaN,,,,,,false,,,,71580.40000000596,71580.30000001192,,71580.09999999404,,71602.631,8,400,,,
sequence,flow.Sequence,4_23,2023-05-03T20:50:21.179Z,,0,,,2077.5850000119244,completion,,,,,false,,,,71580.59999999404,71580.30000001192,69469.383,69477.09999999404,69502.715,71602.631,8,400,,,
trial,html.Screen,4_24_0,2023-05-03T20:50:23.282Z,,0,1,,2080.568999988085,response,ISIC_5721677.JPG,,ISIC_4894802.JPG,ISIC_5721677.JPG,false,1,keypress(m),500,73683.59999999404,73683.19999998808,71569.299,71580.69999998808,71602.631,73686.314,8,400,25,,ISIC_4894802.JPG
break,html.Screen,4_24_1,2023-05-03T20:50:23.283Z,,0,,,NaN,,,,,,false,,,,73684.5,73684.30000001192,,73684,,73686.314,8,400,,,
break_continue,html.Screen,4_24_2,2023-05-03T20:50:23.284Z,,0,,,NaN,,,,,,false,,,,73685,73684.80000001192,,73684.69999998808,,73686.314,8,400,,,
sequence,flow.Sequence,4_24,2023-05-03T20:50:23.284Z,,0,,,2082.169000011927,completion,,,,,false,,,,73685.09999999404,73684.80000001192,71569.299,71580.69999998808,71602.631,73686.314,8,400,,,
trial,html.Screen,4_25_0,2023-05-03T20:50:25.373Z,,0,1,,2087.785999994041,response,ISIC_0057696.JPG,,ISIC_0013617.JPG,ISIC_0057696.JPG,false,1,keypress(m),500,75774.5,75774.09999999404,73652.982,73685.19999998808,73686.314,75786.23,8,400,26,,ISIC_0013617.JPG
break,html.Screen,4_25_1,2023-05-03T20:50:25.374Z,,0,,,NaN,,,,,,false,,,,75775.5,75775.30000001192,,75774.80000001192,,75786.23,8,400,,,
break_continue,html.Screen,4_25_2,2023-05-03T20:50:25.375Z,,0,,,NaN,,,,,,false,,,,75775.80000001192,75775.69999998808,,75775.59999999404,,75786.23,8,400,,,
sequence,flow.Sequence,4_25,2023-05-03T20:50:25.375Z,,0,,,2089.3859999880806,completion,,,,,false,,,,75775.90000000596,75775.69999998808,73652.982,73685.19999998808,73686.314,75786.23,8,400,,,
trial,html.Screen,4_26_0,2023-05-03T20:50:27.397Z,,0,1,,2011.1700000059645,response,ISIC_0481702.JPG,,ISIC_8007849.JPG,ISIC_0481702.JPG,false,1,keypress(m),500,77797.80000001192,77797.40000000596,75752.898,75776,75786.23,77819.482,8,400,27,,ISIC_8007849.JPG
break,html.Screen,4_26_1,2023-05-03T20:50:27.398Z,,0,,,NaN,,,,,,false,,,,77798.80000001192,77798.59999999404,,77798,,77819.482,8,400,,,
break_continue,html.Screen,4_26_2,2023-05-03T20:50:27.398Z,,0,,,NaN,,,,,,false,,,,77799.19999998808,77799,,77798.90000000596,,77819.482,8,400,,,
sequence,flow.Sequence,4_26,2023-05-03T20:50:27.398Z,,0,,,2012.770000000004,completion,,,,,false,,,,77799.40000000596,77799,75752.898,75776,75786.23,77819.482,8,400,,,
trial,html.Screen,4_27_0,2023-05-03T20:50:29.597Z,,0,1,,2178.5179999999964,response,ISIC_4034244.JPG,,ISIC_6647306.JPG,ISIC_4034244.JPG,false,1,keypress(m),500,79998.19999998808,79998,77786.15,77799.5,77819.482,80019.394,8,400,28,,ISIC_6647306.JPG
break,html.Screen,4_27_1,2023-05-03T20:50:29.598Z,,0,,,NaN,,,,,,false,,,,79999.19999998808,79999,,79998.59999999404,,80019.394,8,400,,,
break_continue,html.Screen,4_27_2,2023-05-03T20:50:29.598Z,,0,,,NaN,,,,,,false,,,,79999.5,79999.40000000596,,79999.30000001192,,80019.394,8,400,,,
sequence,flow.Sequence,4_27,2023-05-03T20:50:29.598Z,,0,,,2179.918000005957,completion,,,,,false,,,,79999.69999998808,79999.40000000596,77786.15,77799.5,77819.482,80019.394,8,400,,,
trial,html.Screen,4_28_0,2023-05-03T20:50:31.731Z,,0,1,,2112.805999988079,response,ISIC_6317162.JPG,,ISIC_6234702.JPG,ISIC_6317162.JPG,false,1,keypress(m),500,82132.59999999404,82132.19999998808,79986.062,79999.80000001192,80019.394,82152.642,8,400,29,,ISIC_6234702.JPG
break,html.Screen,4_28_1,2023-05-03T20:50:31.732Z,,0,,,NaN,,,,,,false,,,,82133.5,82133.30000001192,,82132.90000000596,,82152.642,8,400,,,
break_continue,html.Screen,4_28_2,2023-05-03T20:50:31.733Z,,0,,,NaN,,,,,,false,,,,82133.80000001192,82133.69999998808,,82133.59999999404,,82152.642,8,400,,,
sequence,flow.Sequence,4_28,2023-05-03T20:50:31.733Z,,0,,,2114.305999988079,completion,,,,,false,,,,82134,82133.69999998808,79986.062,79999.69999998808,80019.394,82152.642,8,400,,,
trial,html.Screen,4_29_0,2023-05-03T20:50:33.802Z,,0,1,,2050.4579999940324,response,ISIC_9511265.JPG,,ISIC_0055498.JPG,ISIC_9511265.JPG,false,1,keypress(m),500,84203.5,84203.09999999404,82119.31,82134.09999999404,82152.642,84219.66,8,400,30,,ISIC_0055498.JPG
break,html.Screen,4_29_1,2023-05-03T20:50:33.803Z,,0,,,NaN,,,,,,false,,,,84204.40000000596,84204.19999998808,,84203.69999998808,,84219.66,8,400,,,
break_continue,html.Screen,4_29_2,2023-05-03T20:50:33.803Z,,0,,,NaN,,,,,,false,,,,84204.69999998808,84204.59999999404,,84204.5,,84219.66,8,400,,,
sequence,flow.Sequence,4_29,2023-05-03T20:50:33.804Z,,0,,,2051.9579999940324,completion,,,,,false,,,,84204.90000000596,84204.59999999404,82119.31,82134.09999999404,82152.642,84219.66,8,400,,,
trial,html.Screen,4_30_0,2023-05-03T20:50:35.818Z,,0,1,,1999.1400000119174,response,ISIC_0029909.JPG,,ISIC_0059626.JPG,ISIC_0029909.JPG,false,1,keypress(m),500,86219,86218.80000001192,84186.328,84205.09999999404,84219.66,86252.912,8,400,31,,ISIC_0059626.JPG
break,html.Screen,4_30_1,2023-05-03T20:50:35.819Z,,0,,,NaN,,,,,,false,,,,86220,86219.80000001192,,86219.40000000596,,86252.912,8,400,,,
break_continue,html.Screen,4_30_2,2023-05-03T20:50:35.819Z,,0,,,NaN,,,,,,false,,,,86220.40000000596,86220.30000001192,,86220.19999998808,,86252.912,8,400,,,
sequence,flow.Sequence,4_30,2023-05-03T20:50:35.819Z,,0,,,2000.6400000119174,completion,,,,,false,,,,86220.59999999404,86220.30000001192,84186.328,84205,84219.66,86252.912,8,400,,,
trial,html.Screen,4_31_0,2023-05-03T20:50:37.796Z,,0,1,,1944.5880000000034,response,ISIC_6036959.JPG,,ISIC_1545544.JPG,ISIC_6036959.JPG,false,1,keypress(m),500,88197.80000001192,88197.5,86219.58,86220.69999998808,86252.912,88219.5,8,400,32,,ISIC_1545544.JPG
break,html.Screen,4_31_1,2023-05-03T20:50:37.797Z,,0,,,NaN,,,,,,false,,,,88198.69999998808,88198.5,,88198.09999999404,,88219.5,8,400,,,
break_continue,html.Screen,4_31_2,2023-05-03T20:50:37.798Z,,0,,,NaN,,,,,,false,,,,88199.09999999404,88199,,88198.90000000596,,88219.5,8,400,,,
sequence,flow.Sequence,4_31,2023-05-03T20:50:37.798Z,,0,,,1946.0880000000034,completion,,,,,false,,,,88199.30000001192,88199,86219.58,86220.69999998808,86252.912,88219.5,8,400,,,
trial,html.Screen,4_32_0,2023-05-03T20:50:39.964Z,,0,1,,2145.4000000059605,response,ISIC_0034209.JPG,,ISIC_0064798.JPG,ISIC_0034209.JPG,false,1,keypress(m),500,90365.19999998808,90364.90000000596,88186.168,88199.40000000596,88219.5,90386.08,8,400,33,,ISIC_0064798.JPG
break,html.Screen,4_32_1,2023-05-03T20:50:39.965Z,,0,,,NaN,,,,,,false,,,,90366.19999998808,90365.90000000596,,90365.5,,90386.08,8,400,,,
break_continue,html.Screen,4_32_2,2023-05-03T20:50:39.965Z,,0,,,NaN,,,,,,false,,,,90366.59999999404,90366.5,,90366.30000001192,,90386.08,8,400,,,
sequence,flow.Sequence,4_32,2023-05-03T20:50:39.965Z,,0,,,2147,completion,,,,,false,,,,90366.69999998808,90366.5,88186.168,88199.40000000596,88219.5,90386.08,8,400,,,
trial,html.Screen,4_33_0,2023-05-03T20:50:42.154Z,,0,1,,2168.720000011919,response,ISIC_4780541.JPG,,ISIC_0633835.JPG,ISIC_4780541.JPG,false,1,keypress(m),500,92555.09999999404,92554.80000001192,90352.748,90366.80000001192,90386.08,92585.992,8,400,34,,ISIC_0633835.JPG
break,html.Screen,4_33_1,2023-05-03T20:50:42.155Z,,0,,,NaN,,,,,,false,,,,92556,92555.80000001192,,92555.40000000596,,92585.992,8,400,,,
break_continue,html.Screen,4_33_2,2023-05-03T20:50:42.155Z,,0,,,NaN,,,,,,false,,,,92556.40000000596,92556.30000001192,,92556.09999999404,,92585.992,8,400,,,
sequence,flow.Sequence,4_33,2023-05-03T20:50:42.155Z,,0,,,2170.220000011919,completion,,,,,false,,,,92556.5,92556.30000001192,90352.748,90366.80000001192,90386.08,92585.992,8,400,,,
trial,html.Screen,4_34_0,2023-05-03T20:50:44.356Z,,0,1,,2170.8080000119226,response,ISIC_0015412.JPG,,ISIC_0025153.JPG,ISIC_0015412.JPG,false,1,keypress(m),500,94757.19999998808,94756.80000001192,92552.66,92556.59999999404,92585.992,94786.329,8,400,35,,ISIC_0025153.JPG
break,html.Screen,4_34_1,2023-05-03T20:50:44.357Z,,0,,,NaN,,,,,,false,,,,94758.19999998808,94758,,94757.5,,94786.329,8,400,,,
break_continue,html.Screen,4_34_2,2023-05-03T20:50:44.357Z,,0,,,NaN,,,,,,false,,,,94758.5,94758.5,,94758.40000000596,,94786.329,8,400,,,
sequence,flow.Sequence,4_34,2023-05-03T20:50:44.357Z,,0,,,2172.5080000000016,completion,,,,,false,,,,94758.69999998808,94758.5,92552.66,92556.59999999404,92585.992,94786.329,8,400,,,
trial,html.Screen,4_35_0,2023-05-03T20:50:46.690Z,,0,1,,2304.7709999940416,response,ISIC_7052658.JPG,,ISIC_8147189.JPG,ISIC_7052658.JPG,false,1,keypress(m),500,97091.5,97091.09999999404,94752.997,94758.90000000596,94786.329,97119.569,8,400,36,,ISIC_8147189.JPG
break,html.Screen,4_35_1,2023-05-03T20:50:46.691Z,,0,,,NaN,,,,,,false,,,,97092.40000000596,97092.19999998808,,97091.80000001192,,97119.569,8,400,,,
break_continue,html.Screen,4_35_2,2023-05-03T20:50:46.691Z,,0,,,NaN,,,,,,false,,,,97092.90000000596,97092.69999998808,,97092.5,,97119.569,8,400,,,
sequence,flow.Sequence,4_35,2023-05-03T20:50:46.691Z,,0,,,2306.370999988081,completion,,,,,false,,,,97093,97092.69999998808,94752.997,94758.80000001192,94786.329,97119.569,8,400,,,
trial,html.Screen,4_36_0,2023-05-03T20:50:48.777Z,,0,1,,2059.231000011918,response,ISIC_0067667.JPG,,ISIC_1520897.JPG,ISIC_0067667.JPG,false,1,keypress(m),500,99179.09999999404,99178.80000001192,97086.237,97093.09999999404,97119.569,99186.153,8,400,37,,ISIC_1520897.JPG
break,html.Screen,4_36_1,2023-05-03T20:50:48.778Z,,0,,,NaN,,,,,,false,,,,99180,99179.80000001192,,99179.40000000596,,99186.153,8,400,,,
break_continue,html.Screen,4_36_2,2023-05-03T20:50:48.779Z,,0,,,NaN,,,,,,false,,,,99180.40000000596,99180.30000001192,,99180.09999999404,,99186.153,8,400,,,
sequence,flow.Sequence,4_36,2023-05-03T20:50:48.779Z,,0,,,2060.731000011918,completion,,,,,false,,,,99180.5,99180.30000001192,97086.237,97093,97119.569,99186.153,8,400,,,
trial,html.Screen,4_37_0,2023-05-03T20:50:50.882Z,,0,1,,2097.0469999880734,response,ISIC_0010527.JPG,,ISIC_2119925.JPG,ISIC_0010527.JPG,false,1,keypress(m),500,101283.40000000596,101283.19999998808,99152.821,99180.69999998808,99186.153,101286.069,8,400,38,,ISIC_2119925.JPG
break,html.Screen,4_37_1,2023-05-03T20:50:50.883Z,,0,,,NaN,,,,,,false,,,,101284.40000000596,101284.09999999404,,101283.80000001192,,101286.069,8,400,,,
break_continue,html.Screen,4_37_2,2023-05-03T20:50:50.883Z,,0,,,NaN,,,,,,false,,,,101284.69999998808,101284.59999999404,,101284.5,,101286.069,8,400,,,
sequence,flow.Sequence,4_37,2023-05-03T20:50:50.883Z,,0,,,2098.446999994034,completion,,,,,false,,,,101284.90000000596,101284.59999999404,99152.821,99180.59999999404,99186.153,101286.069,8,400,,,
trial,html.Screen,4_38_0,2023-05-03T20:50:52.866Z,,0,1,,1981.0309999940364,response,ISIC_0055513.JPG,,ISIC_0000155.JPG,ISIC_0055513.JPG,false,1,keypress(m),500,103267.40000000596,103267.09999999404,101252.737,101285,101286.069,103285.989,8,400,39,,ISIC_0000155.JPG
break,html.Screen,4_38_1,2023-05-03T20:50:52.867Z,,0,,,NaN,,,,,,false,,,,103268.40000000596,103268.30000001192,,103267.69999998808,,103285.989,8,400,,,
break_continue,html.Screen,4_38_2,2023-05-03T20:50:52.867Z,,0,,,NaN,,,,,,false,,,,103268.80000001192,103268.59999999404,,103268.59999999404,,103285.989,8,400,,,
sequence,flow.Sequence,4_38,2023-05-03T20:50:52.867Z,,0,,,1982.5309999940364,completion,,,,,false,,,,103268.90000000596,103268.59999999404,101252.737,101285,101286.069,103285.989,8,400,,,
trial,html.Screen,4_39_0,2023-05-03T20:50:55.010Z,,0,1,,2125.5109999999986,response,ISIC_0654846.JPG,,ISIC_0056930.JPG,ISIC_0654846.JPG,false,1,keypress(m),500,105411.90000000596,105411.5,103252.657,103269,103285.989,105419.67,8,400,40,,ISIC_0056930.JPG
break,html.Screen,4_39_1,2023-05-03T20:50:55.011Z,,0,,,NaN,,,,,,false,,,,105412.80000001192,105412.59999999404,,105412.19999998808,,105419.67,8,400,,,
break_continue,html.Screen,4_39_2,2023-05-03T20:50:55.011Z,,0,,,NaN,,,,,,false,,,,105413.09999999404,105413,,105412.90000000596,,105419.67,8,400,,,
sequence,flow.Sequence,4_39,2023-05-03T20:50:55.012Z,,0,,,2127.0109999999986,completion,,,,,false,,,,105413.19999998808,105413,103252.657,103269,103285.989,105419.67,8,400,,,
trial,html.Screen,4_40_0,2023-05-03T20:50:57.020Z,,0,1,,2001.6300000119227,response,ISIC_0024656.JPG,,ISIC_9510497.JPG,ISIC_0024656.JPG,false,1,keypress(m),500,107421.69999998808,107421.30000001192,105386.338,105413.40000000596,105419.67,107452.922,8,400,41,,ISIC_9510497.JPG
break,html.Screen,4_40_1,2023-05-03T20:50:57.021Z,,0,,,NaN,,,,,,false,,,,107422.69999998808,107422.5,,107422.09999999404,,107452.922,8,400,,,
break_continue,html.Screen,4_40_2,2023-05-03T20:50:57.021Z,,0,,,NaN,,,,,,false,,,,107423,107422.90000000596,,107422.69999998808,,107452.922,8,400,,,
sequence,flow.Sequence,4_40,2023-05-03T20:50:57.021Z,,0,,,2003.2300000059622,completion,,,,,false,,,,107423.19999998808,107422.90000000596,105386.338,105413.30000001192,105419.67,107452.922,8,400,,,
trial,html.Screen,4_41_0,2023-05-03T20:50:59.140Z,,0,1,,2088.577999999994,response,ISIC_0009913.JPG,,ISIC_6446753.JPG,ISIC_0009913.JPG,false,1,keypress(m),500,109541.80000001192,109541.5,107419.59,107423.30000001192,107452.922,109552.838,8,400,42,,ISIC_6446753.JPG
break,html.Screen,4_41_1,2023-05-03T20:50:59.141Z,,0,,,NaN,,,,,,false,,,,109542.90000000596,109542.59999999404,,109542.09999999404,,109552.838,8,400,,,
break_continue,html.Screen,4_41_2,2023-05-03T20:50:59.141Z,,0,,,NaN,,,,,,false,,,,109543.19999998808,109543.09999999404,,109543,,109552.838,8,400,,,
sequence,flow.Sequence,4_41,2023-05-03T20:50:59.142Z,,0,,,2090.1779999940336,completion,,,,,false,,,,109543.30000001192,109543.09999999404,107419.59,107423.19999998808,107452.922,109552.838,8,400,,,
trial,html.Screen,4_42_0,2023-05-03T20:51:01.244Z,,0,1,,2092.9620000119176,response,ISIC_7306535.JPG,,ISIC_0029562.JPG,ISIC_7306535.JPG,false,1,keypress(m),500,111646.30000001192,111645.80000001192,109519.506,109543.5,109552.838,111652.754,8,400,43,,ISIC_0029562.JPG
break,html.Screen,4_42_1,2023-05-03T20:51:01.245Z,,0,,,NaN,,,,,,false,,,,111647.40000000596,111647.09999999404,,111646.69999998808,,111652.754,8,400,,,
break_continue,html.Screen,4_42_2,2023-05-03T20:51:01.246Z,,0,,,NaN,,,,,,false,,,,111647.69999998808,111647.59999999404,,111647.40000000596,,111652.754,8,400,,,
sequence,flow.Sequence,4_42,2023-05-03T20:51:01.246Z,,0,,,2094.761999994036,completion,,,,,false,,,,111647.80000001192,111647.59999999404,109519.506,109543.5,109552.838,111652.754,8,400,,,
trial,html.Screen,4_43_0,2023-05-03T20:51:03.220Z,,0,1,,1968.6460000059596,response,ISIC_0064095.JPG,,ISIC_0073075.JPG,ISIC_0064095.JPG,false,1,keypress(m),500,113621.80000001192,113621.40000000596,111619.422,111647.90000000596,111652.754,113652.674,8,400,44,,ISIC_0073075.JPG
break,html.Screen,4_43_1,2023-05-03T20:51:03.221Z,,0,,,NaN,,,,,,false,,,,113622.69999998808,113622.59999999404,,113622.09999999404,,113652.674,8,400,,,
break_continue,html.Screen,4_43_2,2023-05-03T20:51:03.221Z,,0,,,NaN,,,,,,false,,,,113623,113622.90000000596,,113622.90000000596,,113652.674,8,400,,,
sequence,flow.Sequence,4_43,2023-05-03T20:51:03.221Z,,0,,,1970.1460000059596,completion,,,,,false,,,,113623.19999998808,113622.90000000596,111619.422,111647.90000000596,111652.754,113652.674,8,400,,,
trial,html.Screen,4_44_0,2023-05-03T20:51:05.202Z,,0,1,,1950.52599998808,response,ISIC_7050122.JPG,,ISIC_1689678.JPG,ISIC_7050122.JPG,false,1,keypress(m),500,115603.59999999404,115603.19999998808,113619.342,113623.40000000596,113652.674,115611.329,8,400,45,,ISIC_1689678.JPG
break,html.Screen,4_44_1,2023-05-03T20:51:05.203Z,,0,,,NaN,,,,,,false,,,,115604.5,115604.19999998808,,115603.90000000596,,115611.329,8,400,,,
break_continue,html.Screen,4_44_2,2023-05-03T20:51:05.203Z,,0,,,NaN,,,,,,false,,,,115604.80000001192,115604.69999998808,,115604.59999999404,,115611.329,8,400,,,
sequence,flow.Sequence,4_44,2023-05-03T20:51:05.203Z,,0,,,1952.02599998808,completion,,,,,false,,,,115605,115604.69999998808,113619.342,113623.40000000596,113652.674,115611.329,8,400,,,
trial,html.Screen,4_45_0,2023-05-03T20:51:07.260Z,,0,1,,2049.870999988081,response,ISIC_6515546.JPG,,ISIC_8786606.JPG,ISIC_6515546.JPG,false,1,keypress(m),500,117661.59999999404,117661.19999998808,115577.997,115605.09999999404,115611.329,117677.913,8,400,46,,ISIC_8786606.JPG
break,html.Screen,4_45_1,2023-05-03T20:51:07.261Z,,0,,,NaN,,,,,,false,,,,117662.59999999404,117662.30000001192,,117661.90000000596,,117677.913,8,400,,,
break_continue,html.Screen,4_45_2,2023-05-03T20:51:07.261Z,,0,,,NaN,,,,,,false,,,,117662.80000001192,117662.80000001192,,117662.69999998808,,117677.913,8,400,,,
sequence,flow.Sequence,4_45,2023-05-03T20:51:07.261Z,,0,,,2051.471000011923,completion,,,,,false,,,,117663,117662.80000001192,115577.997,115605.09999999404,115611.329,117677.913,8,400,,,
trial,html.Screen,4_46_0,2023-05-03T20:51:09.305Z,,0,1,,2028.7869999880786,response,ISIC_0031800.JPG,,ISIC_0844312.JPG,ISIC_0031800.JPG,false,1,keypress(m),500,119707.09999999404,119706.69999998808,117644.581,117663.09999999404,117677.913,119711.165,8,400,47,,ISIC_0844312.JPG
break,html.Screen,4_46_1,2023-05-03T20:51:09.306Z,,0,,,NaN,,,,,,false,,,,119708,119707.80000001192,,119707.40000000596,,119711.165,8,400,,,
break_continue,html.Screen,4_46_2,2023-05-03T20:51:09.306Z,,0,,,NaN,,,,,,false,,,,119708.30000001192,119708.19999998808,,119708,,119711.165,8,400,,,
sequence,flow.Sequence,4_46,2023-05-03T20:51:09.307Z,,0,,,2030.2869999880786,completion,,,,,false,,,,119708.5,119708.19999998808,117644.581,117663.09999999404,117677.913,119711.165,8,400,,,
trial,html.Screen,4_47_0,2023-05-03T20:51:11.377Z,,0,1,,2067.735000005967,response,ISIC_0029349.JPG,,ISIC_5498202.JPG,ISIC_0029349.JPG,false,1,keypress(m),500,121779.19999998808,121778.90000000596,119677.833,119708.59999999404,119711.165,121811.081,8,400,48,,ISIC_5498202.JPG
break,html.Screen,4_47_1,2023-05-03T20:51:11.378Z,,0,,,NaN,,,,,,false,,,,121780.09999999404,121779.90000000596,,121779.5,,121811.081,8,400,,,
break_continue,html.Screen,4_47_2,2023-05-03T20:51:11.378Z,,0,,,NaN,,,,,,false,,,,121780.5,121780.40000000596,,121780.30000001192,,121811.081,8,400,,,
sequence,flow.Sequence,4_47,2023-05-03T20:51:11.379Z,,0,,,2069.235000005967,completion,,,,,false,,,,121780.59999999404,121780.40000000596,119677.833,119708.59999999404,119711.165,121811.081,8,400,,,
trial,html.Screen,4_48_0,2023-05-03T20:51:13.394Z,,0,1,,1984.4189999999944,response,ISIC_5385528.JPG,,ISIC_6201695.JPG,ISIC_5385528.JPG,false,1,keypress(m),500,123795.90000000596,123795.5,121777.749,121780.69999998808,121811.081,123811.001,8,400,49,,ISIC_6201695.JPG
break,html.Screen,4_48_1,2023-05-03T20:51:13.395Z,,0,,,NaN,,,,,,false,,,,123796.80000001192,123796.59999999404,,123796.09999999404,,123811.001,8,400,,,
break_continue,html.Screen,4_48_2,2023-05-03T20:51:13.395Z,,0,,,NaN,,,,,,false,,,,123797.09999999404,123797,,123796.90000000596,,123811.001,8,400,,,
sequence,flow.Sequence,4_48,2023-05-03T20:51:13.395Z,,0,,,1985.9189999999944,completion,,,,,false,,,,123797.30000001192,123797,121777.749,121780.69999998808,121811.081,123811.001,8,400,,,
trial,html.Screen,4_49_0,2023-05-03T20:51:15.548Z,,0,1,,2138.8990000059566,response,ISIC_0028967.JPG,,ISIC_0055731.JPG,ISIC_0028967.JPG,false,1,keypress(m),500,125950.30000001192,125949.90000000596,123777.669,123797.40000000596,123811.001,125977.989,8,400,50,,ISIC_0055731.JPG
break,html.Screen,4_49_1,2023-05-03T20:51:20.547Z,,0,,,4999.800000000003,timeout,,,,,false,,,,130949.30000001192,130944.457,125944.657,125950.59999999404,125977.989,130977.789,8,400,,,
break_continue,html.Screen,4_49_2,2023-05-03T20:51:31.045Z,,0,,,10457.210999999996,response,,,,,false,continue,keypress(Space),,141447.19999998808,141435,130944.457,130949.40000000596,130977.789,141477.369,8,400,,,
sequence,flow.Sequence,4_49,2023-05-03T20:51:31.045Z,,0,,,17623.998999999996,completion,,,,,false,,,,141447.40000000596,141435,123777.669,123797.40000000596,123811.001,141477.369,8,400,,,
trial,html.Screen,4_50_0,2023-05-03T20:51:33.068Z,,0,2,,1992.9310000119149,response,ISIC_2867416.JPG,,ISIC_9072034.JPG,ISIC_9072034.JPG,false,0,keypress(z),500,143470.59999999404,143470.30000001192,141444.037,141447.5,141477.369,143486.362,8,400,1,,ISIC_2867416.JPG
break,html.Screen,4_50_1,2023-05-03T20:51:33.069Z,,0,,,NaN,,,,,,false,,,,143471.59999999404,143471.40000000596,,143470.90000000596,,143486.362,8,400,,,
break_continue,html.Screen,4_50_2,2023-05-03T20:51:33.069Z,,0,,,NaN,,,,,,false,,,,143471.90000000596,143471.80000001192,,143471.59999999404,,143486.362,8,400,,,
sequence,flow.Sequence,4_50,2023-05-03T20:51:33.070Z,,0,,,1994.4310000119149,completion,,,,,false,,,,143472.09999999404,143471.80000001192,141444.037,141447.40000000596,141477.369,143486.362,8,400,,,
trial,html.Screen,4_51_0,2023-05-03T20:51:35.235Z,,0,2,,2151.1380000000063,response,ISIC_7475827.JPG,,ISIC_8622204.JPG,ISIC_8622204.JPG,false,0,keypress(z),500,145637.90000000596,145637.5,143453.03,143472.09999999404,143486.362,145652.942,8,400,2,,ISIC_7475827.JPG
break,html.Screen,4_51_1,2023-05-03T20:51:35.236Z,,0,,,NaN,,,,,,false,,,,145638.80000001192,145638.59999999404,,145638.19999998808,,145652.942,8,400,,,
break_continue,html.Screen,4_51_2,2023-05-03T20:51:35.237Z,,0,,,NaN,,,,,,false,,,,145639.19999998808,145639,,145639,,145652.942,8,400,,,
sequence,flow.Sequence,4_51,2023-05-03T20:51:35.237Z,,0,,,2152.6380000000063,completion,,,,,false,,,,145639.40000000596,145639,143453.03,143472.09999999404,143486.362,145652.942,8,400,,,
trial,html.Screen,4_52_0,2023-05-03T20:51:37.425Z,,0,2,,2174.1579999940295,response,ISIC_3909443.JPG,,ISIC_0024455.JPG,ISIC_0024455.JPG,false,0,keypress(z),500,147827.59999999404,147827.09999999404,145619.61,145639.40000000596,145652.942,147852.854,8,400,3,,ISIC_3909443.JPG
break,html.Screen,4_52_1,2023-05-03T20:51:37.426Z,,0,,,NaN,,,,,,false,,,,147828.5,147828.30000001192,,147827.80000001192,,147852.854,8,400,,,
break_continue,html.Screen,4_52_2,2023-05-03T20:51:37.426Z,,0,,,NaN,,,,,,false,,,,147828.80000001192,147828.80000001192,,147828.59999999404,,147852.854,8,400,,,
sequence,flow.Sequence,4_52,2023-05-03T20:51:37.426Z,,0,,,2175.858000011911,completion,,,,,false,,,,147829.09999999404,147828.80000001192,145619.61,145639.40000000596,145652.942,147852.854,8,400,,,
trial,html.Screen,4_53_0,2023-05-03T20:51:39.529Z,,0,2,,2077.946000011929,response,ISIC_7364041.JPG,,ISIC_0032072.JPG,ISIC_0032072.JPG,false,0,keypress(z),500,149931.19999998808,149930.80000001192,147819.522,147829.19999998808,147852.854,149952.77,8,400,4,,ISIC_7364041.JPG
break,html.Screen,4_53_1,2023-05-03T20:51:39.530Z,,0,,,NaN,,,,,,false,,,,149932.09999999404,149931.90000000596,,149931.40000000596,,149952.77,8,400,,,
break_continue,html.Screen,4_53_2,2023-05-03T20:51:39.530Z,,0,,,NaN,,,,,,false,,,,149932.40000000596,149932.40000000596,,149932.30000001192,,149952.77,8,400,,,
sequence,flow.Sequence,4_53,2023-05-03T20:51:39.530Z,,0,,,2079.5460000059684,completion,,,,,false,,,,149932.59999999404,149932.40000000596,147819.522,147829.09999999404,147852.854,149952.77,8,400,,,
trial,html.Screen,4_54_0,2023-05-03T20:51:41.593Z,,0,2,,2042.0300000119314,response,ISIC_9094080.JPG,,ISIC_5272837.JPG,ISIC_5272837.JPG,false,0,keypress(z),500,151995.19999998808,151994.80000001192,149919.438,149932.80000001192,149952.77,152019.354,8,400,5,,ISIC_9094080.JPG
break,html.Screen,4_54_1,2023-05-03T20:51:41.593Z,,0,,,NaN,,,,,,false,,,,151996.09999999404,151995.90000000596,,151995.40000000596,,152019.354,8,400,,,
break_continue,html.Screen,4_54_2,2023-05-03T20:51:41.594Z,,0,,,NaN,,,,,,false,,,,151996.40000000596,151996.40000000596,,151996.19999998808,,152019.354,8,400,,,
sequence,flow.Sequence,4_54,2023-05-03T20:51:41.594Z,,0,,,2043.630000005971,completion,,,,,false,,,,151996.59999999404,151996.40000000596,149919.438,149932.69999998808,149952.77,152019.354,8,400,,,
trial,html.Screen,4_55_0,2023-05-03T20:51:43.729Z,,0,2,,2111.845999988087,response,ISIC_9288923.JPG,,ISIC_0070581.JPG,ISIC_0070581.JPG,false,0,keypress(z),500,154131.59999999404,154131.19999998808,151986.022,151996.80000001192,152019.354,154152.602,8,400,6,,ISIC_9288923.JPG
break,html.Screen,4_55_1,2023-05-03T20:51:43.730Z,,0,,,NaN,,,,,,false,,,,154132.59999999404,154132.30000001192,,154131.90000000596,,154152.602,8,400,,,
break_continue,html.Screen,4_55_2,2023-05-03T20:51:43.730Z,,0,,,NaN,,,,,,false,,,,154132.90000000596,154132.80000001192,,154132.59999999404,,154152.602,8,400,,,
sequence,flow.Sequence,4_55,2023-05-03T20:51:43.730Z,,0,,,2113.446000011929,completion,,,,,false,,,,154133.09999999404,154132.80000001192,151986.022,151996.80000001192,152019.354,154152.602,8,400,,,
trial,html.Screen,4_56_0,2023-05-03T20:51:46.025Z,,0,2,,2274.6980000119074,response,ISIC_0002853.JPG,,ISIC_8502341.JPG,ISIC_8502341.JPG,false,0,keypress(z),500,156427.80000001192,156427.30000001192,154119.27,154133.19999998808,154152.602,156452.51,8,400,7,,ISIC_0002853.JPG
break,html.Screen,4_56_1,2023-05-03T20:51:46.026Z,,0,,,NaN,,,,,,false,,,,156428.80000001192,156428.59999999404,,156428.19999998808,,156452.51,8,400,,,
break_continue,html.Screen,4_56_2,2023-05-03T20:51:46.026Z,,0,,,NaN,,,,,,false,,,,156429.19999998808,156429,,156428.90000000596,,156452.51,8,400,,,
sequence,flow.Sequence,4_56,2023-05-03T20:51:46.027Z,,0,,,2276.3979999999865,completion,,,,,false,,,,156429.30000001192,156429,154119.27,154133.09999999404,154152.602,156452.51,8,400,,,
trial,html.Screen,4_57_0,2023-05-03T20:51:49.600Z,,0,2,,3549.9899999999907,response,ISIC_0053572.JPG,,ISIC_0009984.JPG,ISIC_0009984.JPG,false,0,keypress(z),500,160002.90000000596,160002.5,156419.178,156429.40000000596,156452.51,160019.034,8,400,8,,ISIC_0053572.JPG
break,html.Screen,4_57_1,2023-05-03T20:51:49.601Z,,0,,,NaN,,,,,,false,,,,160003.90000000596,160003.69999998808,,160003.30000001192,,160019.034,8,400,,,
break_continue,html.Screen,4_57_2,2023-05-03T20:51:49.601Z,,0,,,NaN,,,,,,false,,,,160004.30000001192,160004.09999999404,,160004,,160019.034,8,400,,,
sequence,flow.Sequence,4_57,2023-05-03T20:51:49.602Z,,0,,,3551.58999999403,completion,,,,,false,,,,160004.5,160004.09999999404,156419.178,156429.40000000596,156452.51,160019.034,8,400,,,
trial,html.Screen,4_58_0,2023-05-03T20:51:51.729Z,,0,2,,2112.0659999940253,response,ISIC_5281485.JPG,,ISIC_0060351.JPG,ISIC_0060351.JPG,false,0,keypress(z),500,162131.59999999404,162131.09999999404,159985.702,160004.59999999404,160019.034,162144.755,8,400,9,,ISIC_5281485.JPG
break,html.Screen,4_58_1,2023-05-03T20:51:51.730Z,,0,,,NaN,,,,,,false,,,,162132.5,162132.30000001192,,162131.90000000596,,162144.755,8,400,,,
break_continue,html.Screen,4_58_2,2023-05-03T20:51:51.730Z,,0,,,NaN,,,,,,false,,,,162132.90000000596,162132.80000001192,,162132.69999998808,,162144.755,8,400,,,
sequence,flow.Sequence,4_58,2023-05-03T20:51:51.730Z,,0,,,2113.7660000119067,completion,,,,,false,,,,162133.09999999404,162132.80000001192,159985.702,160004.59999999404,160019.034,162144.755,8,400,,,
trial,html.Screen,4_59_0,2023-05-03T20:51:54.154Z,,0,2,,2412.0450000119163,response,ISIC_3349562.JPG,,ISIC_2225927.JPG,ISIC_2225927.JPG,false,0,keypress(z),500,164557.30000001192,164556.80000001192,162111.423,162133.19999998808,162144.755,164577.991,8,400,10,,ISIC_3349562.JPG
break,html.Screen,4_59_1,2023-05-03T20:51:54.155Z,,0,,,NaN,,,,,,false,,,,164558.19999998808,164558,,164557.59999999404,,164577.991,8,400,,,
break_continue,html.Screen,4_59_2,2023-05-03T20:51:54.156Z,,0,,,NaN,,,,,,false,,,,164558.59999999404,164558.5,,164558.40000000596,,164577.991,8,400,,,
sequence,flow.Sequence,4_59,2023-05-03T20:51:54.156Z,,0,,,2413.7449999999953,completion,,,,,false,,,,164558.80000001192,164558.5,162111.423,162133.09999999404,162144.755,164577.991,8,400,,,
trial,html.Screen,4_60_0,2023-05-03T20:51:56.673Z,,0,2,,2497.1089999940305,response,ISIC_0033427.JPG,,ISIC_3919752.JPG,ISIC_3919752.JPG,false,0,keypress(z),500,167075.59999999404,167075.09999999404,164544.659,164558.90000000596,164577.991,167111.223,8,400,11,,ISIC_0033427.JPG
break,html.Screen,4_60_1,2023-05-03T20:51:56.674Z,,0,,,NaN,,,,,,false,,,,167076.5,167076.30000001192,,167075.90000000596,,167111.223,8,400,,,
break_continue,html.Screen,4_60_2,2023-05-03T20:51:56.674Z,,0,,,NaN,,,,,,false,,,,167076.90000000596,167076.80000001192,,167076.69999998808,,167111.223,8,400,,,
sequence,flow.Sequence,4_60,2023-05-03T20:51:56.674Z,,0,,,2498.809000011912,completion,,,,,false,,,,167077,167076.80000001192,164544.659,164558.80000001192,164577.991,167111.223,8,400,,,
trial,html.Screen,4_61_0,2023-05-03T20:52:00.289Z,,0,2,,3579.976999988081,response,ISIC_0351547.JPG,,ISIC_0011506.JPG,ISIC_0011506.JPG,false,0,keypress(z),500,170691.5,170691.19999998808,167077.891,167077.19999998808,167111.223,170711.079,8,400,12,,ISIC_0351547.JPG
break,html.Screen,4_61_1,2023-05-03T20:52:00.290Z,,0,,,NaN,,,,,,false,,,,170692.5,170692.30000001192,,170691.80000001192,,170711.079,8,400,,,
break_continue,html.Screen,4_61_2,2023-05-03T20:52:00.290Z,,0,,,NaN,,,,,,false,,,,170692.80000001192,170692.69999998808,,170692.59999999404,,170711.079,8,400,,,
sequence,flow.Sequence,4_61,2023-05-03T20:52:00.290Z,,0,,,3581.476999988081,completion,,,,,false,,,,170692.90000000596,170692.69999998808,167077.891,167077.19999998808,167111.223,170711.079,8,400,,,
trial,html.Screen,4_62_0,2023-05-03T20:52:02.315Z,,0,2,,2006.721000011923,response,ISIC_0067195.JPG,,ISIC_2245709.JPG,ISIC_2245709.JPG,false,0,keypress(z),500,172718.30000001192,172717.80000001192,170677.747,170693.09999999404,170711.079,172736.43,8,400,13,,ISIC_0067195.JPG
break,html.Screen,4_62_1,2023-05-03T20:52:02.316Z,,0,,,NaN,,,,,,false,,,,172719.09999999404,172718.90000000596,,172718.5,,172736.43,8,400,,,
break_continue,html.Screen,4_62_2,2023-05-03T20:52:02.316Z,,0,,,NaN,,,,,,false,,,,172719.5,172719.40000000596,,172719.30000001192,,172736.43,8,400,,,
sequence,flow.Sequence,4_62,2023-05-03T20:52:02.317Z,,0,,,2008.3210000059626,completion,,,,,false,,,,172719.69999998808,172719.40000000596,170677.747,170693,170711.079,172736.43,8,400,,,
trial,html.Screen,4_63_0,2023-05-03T20:52:04.488Z,,0,2,,2154.370000011928,response,ISIC_4182801.JPG,,ISIC_0010960.JPG,ISIC_0010960.JPG,false,0,keypress(z),500,174891.19999998808,174890.80000001192,172703.098,172719.80000001192,172736.43,174903.01,8,400,14,,ISIC_4182801.JPG
break,html.Screen,4_63_1,2023-05-03T20:52:04.489Z,,0,,,NaN,,,,,,false,,,,174892.09999999404,174891.90000000596,,174891.5,,174903.01,8,400,,,
break_continue,html.Screen,4_63_2,2023-05-03T20:52:04.489Z,,0,,,NaN,,,,,,false,,,,174892.5,174892.40000000596,,174892.19999998808,,174903.01,8,400,,,
sequence,flow.Sequence,4_63,2023-05-03T20:52:04.490Z,,0,,,2155.9700000059674,completion,,,,,false,,,,174892.69999998808,174892.40000000596,172703.098,172719.69999998808,172736.43,174903.01,8,400,,,
trial,html.Screen,4_64_0,2023-05-03T20:52:06.609Z,,0,2,,2108.58999999403,response,ISIC_0013813.JPG,,ISIC_9051287.JPG,ISIC_9051287.JPG,false,0,keypress(z),500,177011.90000000596,177011.59999999404,174869.678,174892.80000001192,174903.01,177036.258,8,400,15,,ISIC_0013813.JPG
break,html.Screen,4_64_1,2023-05-03T20:52:06.610Z,,0,,,NaN,,,,,,false,,,,177012.90000000596,177012.69999998808,,177012.30000001192,,177036.258,8,400,,,
break_continue,html.Screen,4_64_2,2023-05-03T20:52:06.610Z,,0,,,NaN,,,,,,false,,,,177013.19999998808,177013.09999999404,,177013,,177036.258,8,400,,,
sequence,flow.Sequence,4_64,2023-05-03T20:52:06.610Z,,0,,,2110.08999999403,completion,,,,,false,,,,177013.40000000596,177013.09999999404,174869.678,174892.69999998808,174903.01,177036.258,8,400,,,
trial,html.Screen,4_65_0,2023-05-03T20:52:09.434Z,,0,2,,2800.9419999880774,response,ISIC_8504479.JPG,,ISIC_0011994.JPG,ISIC_0011994.JPG,false,0,keypress(z),500,179837.5,179837.19999998808,177002.926,177013.5,177036.258,179869.478,8,400,16,,ISIC_8504479.JPG
break,html.Screen,4_65_1,2023-05-03T20:52:09.435Z,,0,,,NaN,,,,,,false,,,,179838.5,179838.30000001192,,179837.80000001192,,179869.478,8,400,,,
break_continue,html.Screen,4_65_2,2023-05-03T20:52:09.436Z,,0,,,NaN,,,,,,false,,,,179838.80000001192,179838.69999998808,,179838.59999999404,,179869.478,8,400,,,
sequence,flow.Sequence,4_65,2023-05-03T20:52:09.436Z,,0,,,2802.4419999880774,completion,,,,,false,,,,179839,179838.69999998808,177002.926,177013.5,177036.258,179869.478,8,400,,,
trial,html.Screen,4_66_0,2023-05-03T20:52:11.554Z,,0,2,,2087.4220000059577,response,ISIC_0030694.JPG,,ISIC_7801289.JPG,ISIC_7801289.JPG,false,0,keypress(z),500,181957.19999998808,181956.90000000596,179836.146,179839.09999999404,179869.478,182002.726,8,400,17,,ISIC_0030694.JPG
break,html.Screen,4_66_1,2023-05-03T20:52:11.555Z,,0,,,NaN,,,,,,false,,,,181958.09999999404,181957.90000000596,,181957.5,,182002.726,8,400,,,
break_continue,html.Screen,4_66_2,2023-05-03T20:52:11.555Z,,0,,,NaN,,,,,,false,,,,181958.5,181958.40000000596,,181958.30000001192,,182002.726,8,400,,,
sequence,flow.Sequence,4_66,2023-05-03T20:52:11.555Z,,0,,,2088.9220000059577,completion,,,,,false,,,,181958.59999999404,181958.40000000596,179836.146,179839.09999999404,179869.478,182002.726,8,400,,,
trial,html.Screen,4_67_0,2023-05-03T20:52:13.725Z,,0,2,,2125.1740000059654,response,ISIC_2800198.JPG,,ISIC_0033578.JPG,ISIC_0033578.JPG,false,0,keypress(z),500,184128.5,184127.90000000596,181969.394,181958.80000001192,182002.726,184153.056,8,400,18,,ISIC_2800198.JPG
break,html.Screen,4_67_1,2023-05-03T20:52:13.726Z,,0,,,NaN,,,,,,false,,,,184129.40000000596,184129.19999998808,,184128.80000001192,,184153.056,8,400,,,
break_continue,html.Screen,4_67_2,2023-05-03T20:52:13.726Z,,0,,,NaN,,,,,,false,,,,184129.59999999404,184129.59999999404,,184129.5,,184153.056,8,400,,,
sequence,flow.Sequence,4_67,2023-05-03T20:52:13.727Z,,0,,,2126.8739999940444,completion,,,,,false,,,,184129.69999998808,184129.59999999404,181969.394,181958.80000001192,182002.726,184153.056,8,400,,,
trial,html.Screen,4_68_0,2023-05-03T20:52:15.784Z,,0,2,,2033.6439999880677,response,ISIC_0011858.JPG,,ISIC_0002347.JPG,ISIC_0002347.JPG,false,0,keypress(z),500,186187.09999999404,186186.69999998808,184119.724,184129.80000001192,184153.056,186219.64,8,400,19,,ISIC_0011858.JPG
break,html.Screen,4_68_1,2023-05-03T20:52:15.785Z,,0,,,NaN,,,,,,false,,,,186188,186187.80000001192,,186187.40000000596,,186219.64,8,400,,,
break_continue,html.Screen,4_68_2,2023-05-03T20:52:15.785Z,,0,,,NaN,,,,,,false,,,,186188.40000000596,186188.30000001192,,186188.09999999404,,186219.64,8,400,,,
sequence,flow.Sequence,4_68,2023-05-03T20:52:15.785Z,,0,,,2035.2440000119095,completion,,,,,false,,,,186188.59999999404,186188.30000001192,184119.724,184129.80000001192,184153.056,186219.64,8,400,,,
trial,html.Screen,4_69_0,2023-05-03T20:52:18.466Z,,0,2,,2649.660000011907,response,ISIC_3474609.JPG,,ISIC_0028929.JPG,ISIC_0028929.JPG,false,0,keypress(z),500,188869.59999999404,188869.30000001192,186186.308,186188.59999999404,186219.64,188886.2,8,400,20,,ISIC_3474609.JPG
break,html.Screen,4_69_1,2023-05-03T20:52:18.467Z,,0,,,NaN,,,,,,false,,,,188870.09999999404,188870,,188869.69999998808,,188886.2,8,400,,,
break_continue,html.Screen,4_69_2,2023-05-03T20:52:18.467Z,,0,,,NaN,,,,,,false,,,,188870.19999998808,188870.09999999404,,188870.09999999404,,188886.2,8,400,,,
sequence,flow.Sequence,4_69,2023-05-03T20:52:18.467Z,,0,,,2650.4599999940256,completion,,,,,false,,,,188870.30000001192,188870.09999999404,186186.308,186188.59999999404,186219.64,188886.2,8,400,,,
trial,html.Screen,4_70_0,2023-05-03T20:52:20.600Z,,0,2,,2117.1000000119093,response,ISIC_7582818.JPG,,ISIC_0010207.JPG,ISIC_0010207.JPG,false,0,keypress(z),500,191003.40000000596,191003.30000001192,188852.868,188870.40000000596,188886.2,191019.448,8,400,21,,ISIC_7582818.JPG
break,html.Screen,4_70_1,2023-05-03T20:52:20.601Z,,0,,,NaN,,,,,,false,,,,191004.30000001192,191004.09999999404,,191003.69999998808,,191019.448,8,400,,,
break_continue,html.Screen,4_70_2,2023-05-03T20:52:20.601Z,,0,,,NaN,,,,,,false,,,,191004.69999998808,191004.5,,191004.40000000596,,191019.448,8,400,,,
sequence,flow.Sequence,4_70,2023-05-03T20:52:20.601Z,,0,,,2118.2999999999884,completion,,,,,false,,,,191004.80000001192,191004.5,188852.868,188870.30000001192,188886.2,191019.448,8,400,,,
trial,html.Screen,4_71_0,2023-05-03T20:52:22.575Z,,0,2,,1958.852000011917,response,ISIC_0010441.JPG,,ISIC_1202785.JPG,ISIC_1202785.JPG,false,0,keypress(z),500,192978.69999998808,192978.30000001192,190986.116,191005,191019.448,192986.036,8,400,22,,ISIC_0010441.JPG
break,html.Screen,4_71_1,2023-05-03T20:52:22.576Z,,0,,,NaN,,,,,,false,,,,192979.59999999404,192979.40000000596,,192979,,192986.036,8,400,,,
break_continue,html.Screen,4_71_2,2023-05-03T20:52:22.577Z,,0,,,NaN,,,,,,false,,,,192980,192979.90000000596,,192979.69999998808,,192986.036,8,400,,,
sequence,flow.Sequence,4_71,2023-05-03T20:52:22.577Z,,0,,,1960.4520000059565,completion,,,,,false,,,,192980.09999999404,192979.90000000596,190986.116,191004.90000000596,191019.448,192986.036,8,400,,,
trial,html.Screen,4_72_0,2023-05-03T20:52:25.272Z,,0,2,,2688.6639999880863,response,ISIC_8071637.JPG,,ISIC_1423737.JPG,ISIC_1423737.JPG,false,0,keypress(z),500,195675.09999999404,195674.69999998808,192952.704,192980.40000000596,192986.036,195685.928,8,400,23,,ISIC_8071637.JPG
break,html.Screen,4_72_1,2023-05-03T20:52:25.273Z,,0,,,NaN,,,,,,false,,,,195676,195675.80000001192,,195675.40000000596,,195685.928,8,400,,,
break_continue,html.Screen,4_72_2,2023-05-03T20:52:25.273Z,,0,,,NaN,,,,,,false,,,,195676.30000001192,195676.19999998808,,195676.09999999404,,195685.928,8,400,,,
sequence,flow.Sequence,4_72,2023-05-03T20:52:25.273Z,,0,,,2690.1639999880863,completion,,,,,false,,,,195676.5,195676.19999998808,192952.704,192980.30000001192,192986.036,195685.928,8,400,,,
trial,html.Screen,4_73_0,2023-05-03T20:52:27.296Z,,0,2,,2013.2719999880646,response,ISIC_2508901.JPG,,ISIC_0016137.JPG,ISIC_0016137.JPG,false,0,keypress(z),500,197699.5,197699.19999998808,195652.596,195676.59999999404,195685.928,197719.18,8,400,24,,ISIC_2508901.JPG
break,html.Screen,4_73_1,2023-05-03T20:52:27.297Z,,0,,,NaN,,,,,,false,,,,197700.40000000596,197700.09999999404,,197699.80000001192,,197719.18,8,400,,,
break_continue,html.Screen,4_73_2,2023-05-03T20:52:27.297Z,,0,,,NaN,,,,,,false,,,,197700.69999998808,197700.5,,197700.40000000596,,197719.18,8,400,,,
sequence,flow.Sequence,4_73,2023-05-03T20:52:27.297Z,,0,,,2014.5719999999856,completion,,,,,false,,,,197700.80000001192,197700.5,195652.596,195676.5,195685.928,197719.18,8,400,,,
trial,html.Screen,4_74_0,2023-05-03T20:52:29.392Z,,0,2,,2075.9199999940465,response,ISIC_0032342.JPG,,ISIC_0059506.JPG,ISIC_0059506.JPG,false,0,keypress(z),500,199795.5,199795.09999999404,197685.848,197701,197719.18,199819.096,8,400,25,,ISIC_0032342.JPG
break,html.Screen,4_74_1,2023-05-03T20:52:29.393Z,,0,,,NaN,,,,,,false,,,,199796.40000000596,199796.09999999404,,199795.69999998808,,199819.096,8,400,,,
break_continue,html.Screen,4_74_2,2023-05-03T20:52:29.393Z,,0,,,NaN,,,,,,false,,,,199796.69999998808,199796.59999999404,,199796.5,,199819.096,8,400,,,
sequence,flow.Sequence,4_74,2023-05-03T20:52:29.393Z,,0,,,2077.4199999940465,completion,,,,,false,,,,199796.80000001192,199796.59999999404,197685.848,197701,197719.18,199819.096,8,400,,,
trial,html.Screen,4_75_0,2023-05-03T20:52:31.559Z,,0,2,,2143.503999994049,response,ISIC_0053473.JPG,,ISIC_0066750.JPG,ISIC_0066750.JPG,false,0,keypress(z),500,201962.90000000596,201962.59999999404,199785.764,199797.09999999404,199819.096,201985.676,8,400,26,,ISIC_0053473.JPG
break,html.Screen,4_75_1,2023-05-03T20:52:31.560Z,,0,,,NaN,,,,,,false,,,,201963.80000001192,201963.59999999404,,201963.09999999404,,201985.676,8,400,,,
break_continue,html.Screen,4_75_2,2023-05-03T20:52:31.561Z,,0,,,NaN,,,,,,false,,,,201964.09999999404,201964,,201963.90000000596,,201985.676,8,400,,,
sequence,flow.Sequence,4_75,2023-05-03T20:52:31.561Z,,0,,,2144.9040000000095,completion,,,,,false,,,,201964.30000001192,201964,199785.764,199797,199819.096,201985.676,8,400,,,
trial,html.Screen,4_76_0,2023-05-03T20:52:33.601Z,,0,2,,2018.1240000119142,response,ISIC_3945116.JPG,,ISIC_0000467.JPG,ISIC_0000467.JPG,false,0,keypress(z),500,204004.09999999404,204003.80000001192,201952.344,201964.40000000596,201985.676,204019.811,8,400,27,,ISIC_3945116.JPG
break,html.Screen,4_76_1,2023-05-03T20:52:33.601Z,,0,,,NaN,,,,,,false,,,,204005.09999999404,204004.90000000596,,204004.40000000596,,204019.811,8,400,,,
break_continue,html.Screen,4_76_2,2023-05-03T20:52:33.602Z,,0,,,NaN,,,,,,false,,,,204005.40000000596,204005.40000000596,,204005.19999998808,,204019.811,8,400,,,
sequence,flow.Sequence,4_76,2023-05-03T20:52:33.602Z,,0,,,2019.7240000059537,completion,,,,,false,,,,204005.59999999404,204005.40000000596,201952.344,201964.40000000596,201985.676,204019.811,8,400,,,
trial,html.Screen,4_77_0,2023-05-03T20:52:35.672Z,,0,2,,2055.888999988092,response,ISIC_0567814.JPG,,ISIC_0033265.JPG,ISIC_0033265.JPG,false,0,keypress(z),500,206075.90000000596,206075.69999998808,203986.479,204005.80000001192,204019.811,206086.395,8,400,28,,ISIC_0567814.JPG
break,html.Screen,4_77_1,2023-05-03T20:52:35.673Z,,0,,,NaN,,,,,,false,,,,206076.69999998808,206076.5,,206076.19999998808,,206086.395,8,400,,,
break_continue,html.Screen,4_77_2,2023-05-03T20:52:35.673Z,,0,,,NaN,,,,,,false,,,,206077,206076.90000000596,,206076.80000001192,,206086.395,8,400,,,
sequence,flow.Sequence,4_77,2023-05-03T20:52:35.673Z,,0,,,2057.0890000059735,completion,,,,,false,,,,206077.09999999404,206076.90000000596,203986.479,204005.69999998808,204019.811,206086.395,8,400,,,
trial,html.Screen,4_78_0,2023-05-03T20:52:37.975Z,,0,2,,2291.9050000119314,response,ISIC_0058513.JPG,,ISIC_0386664.JPG,ISIC_0386664.JPG,false,0,keypress(z),500,208378.80000001192,208378.30000001192,206053.063,206077.19999998808,206086.395,208386.303,8,400,29,,ISIC_0058513.JPG
break,html.Screen,4_78_1,2023-05-03T20:52:37.976Z,,0,,,NaN,,,,,,false,,,,208380,208379.59999999404,,208379.09999999404,,208386.303,8,400,,,
break_continue,html.Screen,4_78_2,2023-05-03T20:52:37.977Z,,0,,,NaN,,,,,,false,,,,208380.40000000596,208380.30000001192,,208380.09999999404,,208386.303,8,400,,,
sequence,flow.Sequence,4_78,2023-05-03T20:52:37.977Z,,0,,,2293.9050000119314,completion,,,,,false,,,,208380.59999999404,208380.30000001192,206053.063,206077.09999999404,206086.395,208386.303,8,400,,,
trial,html.Screen,4_79_0,2023-05-03T20:52:40.119Z,,0,2,,2136.4970000119065,response,ISIC_3025889.JPG,,ISIC_0012150.JPG,ISIC_0012150.JPG,false,0,keypress(z),500,210523.19999998808,210522.80000001192,208352.971,208380.69999998808,208386.303,210552.883,8,400,30,,ISIC_3025889.JPG
break,html.Screen,4_79_1,2023-05-03T20:52:40.120Z,,0,,,NaN,,,,,,false,,,,210524.09999999404,210524,,210523.5,,210552.883,8,400,,,
break_continue,html.Screen,4_79_2,2023-05-03T20:52:40.121Z,,0,,,NaN,,,,,,false,,,,210524.5,210524.30000001192,,210524.30000001192,,210552.883,8,400,,,
sequence,flow.Sequence,4_79,2023-05-03T20:52:40.121Z,,0,,,2137.9970000119065,completion,,,,,false,,,,210524.69999998808,210524.30000001192,208352.971,208380.59999999404,208386.303,210552.883,8,400,,,
trial,html.Screen,4_80_0,2023-05-03T20:52:42.135Z,,0,2,,1985.716999994038,response,ISIC_0071913.JPG,,ISIC_4288845.JPG,ISIC_4288845.JPG,false,0,keypress(z),500,212539.09999999404,212538.59999999404,210519.551,210524.80000001192,210552.883,212552.803,8,400,31,,ISIC_0071913.JPG
break,html.Screen,4_80_1,2023-05-03T20:52:42.136Z,,0,,,NaN,,,,,,false,,,,212540.09999999404,212539.90000000596,,212539.40000000596,,212552.803,8,400,,,
break_continue,html.Screen,4_80_2,2023-05-03T20:52:42.137Z,,0,,,NaN,,,,,,false,,,,212540.40000000596,212540.30000001192,,212540.19999998808,,212552.803,8,400,,,
sequence,flow.Sequence,4_80,2023-05-03T20:52:42.137Z,,0,,,1987.4170000119193,completion,,,,,false,,,,212540.59999999404,212540.30000001192,210519.551,210524.80000001192,210552.883,212552.803,8,400,,,
trial,html.Screen,4_81_0,2023-05-03T20:52:44.351Z,,0,2,,2202.1969999999856,response,ISIC_0026113.JPG,,ISIC_0000469.JPG,ISIC_0000469.JPG,false,0,keypress(z),500,214755.30000001192,214755,212519.471,212540.69999998808,212552.803,214786.481,8,400,32,,ISIC_0026113.JPG
break,html.Screen,4_81_1,2023-05-03T20:52:44.352Z,,0,,,NaN,,,,,,false,,,,214756.19999998808,214756,,214755.59999999404,,214786.481,8,400,,,
break_continue,html.Screen,4_81_2,2023-05-03T20:52:44.353Z,,0,,,NaN,,,,,,false,,,,214756.59999999404,214756.40000000596,,214756.30000001192,,214786.481,8,400,,,
sequence,flow.Sequence,4_81,2023-05-03T20:52:44.353Z,,0,,,2203.597000005946,completion,,,,,false,,,,214756.90000000596,214756.40000000596,212519.471,212540.69999998808,212552.803,214786.481,8,400,,,
trial,html.Screen,4_82_0,2023-05-03T20:52:46.490Z,,0,2,,2107.4190000059607,response,ISIC_0011140.JPG,,ISIC_1831600.JPG,ISIC_1831600.JPG,false,0,keypress(z),500,216894.19999998808,216893.90000000596,214753.149,214757,214786.481,216919.729,8,400,33,,ISIC_0011140.JPG
break,html.Screen,4_82_1,2023-05-03T20:52:46.491Z,,0,,,NaN,,,,,,false,,,,216895.09999999404,216895,,216894.59999999404,,216919.729,8,400,,,
break_continue,html.Screen,4_82_2,2023-05-03T20:52:46.492Z,,0,,,NaN,,,,,,false,,,,216895.5,216895.30000001192,,216895.30000001192,,216919.729,8,400,,,
sequence,flow.Sequence,4_82,2023-05-03T20:52:46.492Z,,0,,,2108.819000011921,completion,,,,,false,,,,216895.59999999404,216895.30000001192,214753.149,214757,214786.481,216919.729,8,400,,,
trial,html.Screen,4_83_0,2023-05-03T20:52:48.738Z,,0,2,,2221.6710000059684,response,ISIC_0072564.JPG,,ISIC_0065449.JPG,ISIC_0065449.JPG,false,0,keypress(z),500,219141.80000001192,219141.40000000596,216886.397,216895.80000001192,216919.729,219152.973,8,400,34,,ISIC_0072564.JPG
break,html.Screen,4_83_1,2023-05-03T20:52:48.739Z,,0,,,NaN,,,,,,false,,,,219142.90000000596,219142.59999999404,,219142.19999998808,,219152.973,8,400,,,
break_continue,html.Screen,4_83_2,2023-05-03T20:52:48.739Z,,0,,,NaN,,,,,,false,,,,219143.19999998808,219143.09999999404,,219142.90000000596,,219152.973,8,400,,,
sequence,flow.Sequence,4_83,2023-05-03T20:52:48.739Z,,0,,,2223.3709999940475,completion,,,,,false,,,,219143.30000001192,219143.09999999404,216886.397,216895.80000001192,216919.729,219152.973,8,400,,,
trial,html.Screen,4_84_0,2023-05-03T20:52:51.607Z,,0,2,,2857.726999988081,response,ISIC_9293491.JPG,,ISIC_5530598.JPG,ISIC_5530598.JPG,false,0,keypress(z),500,222011.09999999404,222010.69999998808,219119.641,219143.5,219152.973,222019.525,8,400,35,,ISIC_9293491.JPG
break,html.Screen,4_84_1,2023-05-03T20:52:51.608Z,,0,,,NaN,,,,,,false,,,,222012,222011.80000001192,,222011.40000000596,,222019.525,8,400,,,
break_continue,html.Screen,4_84_2,2023-05-03T20:52:51.609Z,,0,,,NaN,,,,,,false,,,,222012.5,222012.40000000596,,222012.19999998808,,222019.525,8,400,,,
sequence,flow.Sequence,4_84,2023-05-03T20:52:51.609Z,,0,,,2859.4270000059623,completion,,,,,false,,,,222012.69999998808,222012.40000000596,219119.641,219143.40000000596,219152.973,222019.525,8,400,,,
trial,html.Screen,4_85_0,2023-05-03T20:52:53.815Z,,0,2,,2198.674999988085,response,ISIC_0032976.JPG,,ISIC_0057192.JPG,ISIC_0057192.JPG,false,0,keypress(z),500,224218.5,224218.19999998808,221986.193,222012.80000001192,222019.525,224236.528,8,400,36,,ISIC_0032976.JPG
break,html.Screen,4_85_1,2023-05-03T20:52:53.816Z,,0,,,NaN,,,,,,false,,,,224219.5,224219.30000001192,,224218.80000001192,,224236.528,8,400,,,
break_continue,html.Screen,4_85_2,2023-05-03T20:52:53.816Z,,0,,,NaN,,,,,,false,,,,224219.80000001192,224219.80000001192,,224219.59999999404,,224236.528,8,400,,,
sequence,flow.Sequence,4_85,2023-05-03T20:52:53.816Z,,0,,,2200.2750000119267,completion,,,,,false,,,,224220.09999999404,224219.80000001192,221986.193,222012.80000001192,222019.525,224236.528,8,400,,,
trial,html.Screen,4_86_0,2023-05-03T20:52:55.808Z,,0,2,,1975.171999988088,response,ISIC_8690205.JPG,,ISIC_0010322.JPG,ISIC_0010322.JPG,false,0,keypress(z),500,226212,226211.69999998808,224203.196,224220.19999998808,224236.528,226236.448,8,400,37,,ISIC_8690205.JPG
break,html.Screen,4_86_1,2023-05-03T20:52:55.809Z,,0,,,NaN,,,,,,false,,,,226213,226212.80000001192,,226212.40000000596,,226236.448,8,400,,,
break_continue,html.Screen,4_86_2,2023-05-03T20:52:55.809Z,,0,,,NaN,,,,,,false,,,,226213.30000001192,226213.19999998808,,226213.09999999404,,226236.448,8,400,,,
sequence,flow.Sequence,4_86,2023-05-03T20:52:55.809Z,,0,,,1976.671999988088,completion,,,,,false,,,,226213.5,226213.19999998808,224203.196,224220.09999999404,224236.528,226236.448,8,400,,,
trial,html.Screen,4_87_0,2023-05-03T20:52:58.042Z,,0,2,,2209.4520000059565,response,ISIC_0012064.JPG,,ISIC_0013141.JPG,ISIC_0013141.JPG,false,0,keypress(z),500,228446.30000001192,228445.90000000596,226203.116,226213.69999998808,226236.448,228469.692,8,400,38,,ISIC_0012064.JPG
break,html.Screen,4_87_1,2023-05-03T20:52:58.043Z,,0,,,NaN,,,,,,false,,,,228447.30000001192,228447.19999998808,,228446.59999999404,,228469.692,8,400,,,
break_continue,html.Screen,4_87_2,2023-05-03T20:52:58.044Z,,0,,,NaN,,,,,,false,,,,228447.69999998808,228447.59999999404,,228447.5,,228469.692,8,400,,,
sequence,flow.Sequence,4_87,2023-05-03T20:52:58.044Z,,0,,,2211.1519999940356,completion,,,,,false,,,,228447.90000000596,228447.59999999404,226203.116,226213.59999999404,226236.448,228469.692,8,400,,,
trial,html.Screen,4_88_0,2023-05-03T20:53:00.168Z,,0,2,,2102.4079999940295,response,ISIC_0033679.JPG,,ISIC_2622189.JPG,ISIC_2622189.JPG,false,0,keypress(z),500,230572.5,230572.09999999404,228436.36,228448,228469.692,230602.94,8,400,39,,ISIC_0033679.JPG
break,html.Screen,4_88_1,2023-05-03T20:53:00.169Z,,0,,,NaN,,,,,,false,,,,230573.40000000596,230573.30000001192,,230572.80000001192,,230602.94,8,400,,,
break_continue,html.Screen,4_88_2,2023-05-03T20:53:00.170Z,,0,,,NaN,,,,,,false,,,,230573.80000001192,230573.69999998808,,230573.59999999404,,230602.94,8,400,,,
sequence,flow.Sequence,4_88,2023-05-03T20:53:00.170Z,,0,,,2104.007999988069,completion,,,,,false,,,,230574,230573.69999998808,228436.36,228448,228469.692,230602.94,8,400,,,
trial,html.Screen,4_89_0,2023-05-03T20:53:02.295Z,,0,2,,2095.8600000119186,response,ISIC_0053540.JPG,,ISIC_0064563.JPG,ISIC_0064563.JPG,false,0,keypress(z),500,232699.09999999404,232698.80000001192,230569.608,230574.09999999404,230602.94,232702.856,8,400,40,,ISIC_0053540.JPG
break,html.Screen,4_89_1,2023-05-03T20:53:02.296Z,,0,,,NaN,,,,,,false,,,,232699.90000000596,232699.69999998808,,232699.30000001192,,232702.856,8,400,,,
break_continue,html.Screen,4_89_2,2023-05-03T20:53:02.296Z,,0,,,NaN,,,,,,false,,,,232700.19999998808,232700.09999999404,,232700,,232702.856,8,400,,,
sequence,flow.Sequence,4_89,2023-05-03T20:53:02.296Z,,0,,,2097.159999994037,completion,,,,,false,,,,232700.30000001192,232700.09999999404,230569.608,230574.09999999404,230602.94,232702.856,8,400,,,
trial,html.Screen,4_90_0,2023-05-03T20:53:04.338Z,,0,2,,2038.5440000059607,response,ISIC_3466769.JPG,,ISIC_0031233.JPG,ISIC_0031233.JPG,false,0,keypress(z),500,234741.80000001192,234741.40000000596,232669.524,232700.40000000596,232702.856,234769.853,8,400,41,,ISIC_3466769.JPG
break,html.Screen,4_90_1,2023-05-03T20:53:04.339Z,,0,,,NaN,,,,,,false,,,,234742.69999998808,234742.5,,234742.09999999404,,234769.853,8,400,,,
break_continue,html.Screen,4_90_2,2023-05-03T20:53:04.339Z,,0,,,NaN,,,,,,false,,,,234743.09999999404,234743,,234742.80000001192,,234769.853,8,400,,,
sequence,flow.Sequence,4_90,2023-05-03T20:53:04.339Z,,0,,,2040.1440000000002,completion,,,,,false,,,,234743.30000001192,234743,232669.524,232700.30000001192,232702.856,234769.853,8,400,,,
trial,html.Screen,4_91_0,2023-05-03T20:53:06.442Z,,0,2,,2076.0470000059577,response,ISIC_1440377.JPG,,ISIC_6019374.JPG,ISIC_6019374.JPG,false,0,keypress(z),500,236846.30000001192,236845.90000000596,234736.521,234743.40000000596,234769.853,236869.769,8,400,42,,ISIC_1440377.JPG
break,html.Screen,4_91_1,2023-05-03T20:53:06.443Z,,0,,,NaN,,,,,,false,,,,236847.30000001192,236847.09999999404,,236846.69999998808,,236869.769,8,400,,,
break_continue,html.Screen,4_91_2,2023-05-03T20:53:06.443Z,,0,,,NaN,,,,,,false,,,,236847.59999999404,236847.59999999404,,236847.5,,236869.769,8,400,,,
sequence,flow.Sequence,4_91,2023-05-03T20:53:06.444Z,,0,,,2077.7469999940367,completion,,,,,false,,,,236847.80000001192,236847.59999999404,234736.521,234743.30000001192,234769.853,236869.769,8,400,,,
trial,html.Screen,4_92_0,2023-05-03T20:53:08.718Z,,0,2,,2252.6310000059602,response,ISIC_0068223.JPG,,ISIC_7413786.JPG,ISIC_7413786.JPG,false,0,keypress(z),500,239122.69999998808,239122.40000000596,236836.437,236848,236869.769,239136.345,8,400,43,,ISIC_0068223.JPG
break,html.Screen,4_92_1,2023-05-03T20:53:08.719Z,,0,,,NaN,,,,,,false,,,,239123.59999999404,239123.40000000596,,239123,,239136.345,8,400,,,
break_continue,html.Screen,4_92_2,2023-05-03T20:53:08.720Z,,0,,,NaN,,,,,,false,,,,239124,239123.80000001192,,239123.69999998808,,239136.345,8,400,,,
sequence,flow.Sequence,4_92,2023-05-03T20:53:08.720Z,,0,,,2254.0310000119207,completion,,,,,false,,,,239124.19999998808,239123.80000001192,236836.437,236848,236869.769,239136.345,8,400,,,
trial,html.Screen,4_93_0,2023-05-03T20:53:10.783Z,,0,2,,2050.854999988078,response,ISIC_9354965.JPG,,ISIC_6590303.JPG,ISIC_6590303.JPG,false,0,keypress(z),500,241187.59999999404,241187.19999998808,239103.013,239124.19999998808,239136.345,241202.929,8,400,44,,ISIC_9354965.JPG
break,html.Screen,4_93_1,2023-05-03T20:53:10.784Z,,0,,,NaN,,,,,,false,,,,241188.59999999404,241188.40000000596,,241188,,241202.929,8,400,,,
break_continue,html.Screen,4_93_2,2023-05-03T20:53:10.785Z,,0,,,NaN,,,,,,false,,,,241189,241188.80000001192,,241188.80000001192,,241202.929,8,400,,,
sequence,flow.Sequence,4_93,2023-05-03T20:53:10.785Z,,0,,,2052.4550000119198,completion,,,,,false,,,,241189.19999998808,241188.80000001192,239103.013,239124.19999998808,239136.345,241202.929,8,400,,,
trial,html.Screen,4_94_0,2023-05-03T20:53:12.842Z,,0,2,,2043.0709999999963,response,ISIC_0009975.JPG,,ISIC_0061315.JPG,ISIC_0061315.JPG,false,0,keypress(z),500,243246.30000001192,243246,241169.597,241189.19999998808,241202.929,243269.513,8,400,45,,ISIC_0009975.JPG
break,html.Screen,4_94_1,2023-05-03T20:53:12.843Z,,0,,,NaN,,,,,,false,,,,243247.30000001192,243247.09999999404,,243246.59999999404,,243269.513,8,400,,,
break_continue,html.Screen,4_94_2,2023-05-03T20:53:12.843Z,,0,,,NaN,,,,,,false,,,,243247.69999998808,243247.5,,243247.5,,243269.513,8,400,,,
sequence,flow.Sequence,4_94,2023-05-03T20:53:12.843Z,,0,,,2044.5709999999963,completion,,,,,false,,,,243247.80000001192,243247.5,241169.597,241189.19999998808,241202.929,243269.513,8,400,,,
trial,html.Screen,4_95_0,2023-05-03T20:53:15.103Z,,0,2,,2237.2870000119146,response,ISIC_3922602.JPG,,ISIC_0014079.JPG,ISIC_0014079.JPG,false,0,keypress(z),500,245507.19999998808,245506.80000001192,243236.181,243248,243269.513,245511.517,8,400,46,,ISIC_3922602.JPG
break,html.Screen,4_95_1,2023-05-03T20:53:15.104Z,,0,,,NaN,,,,,,false,,,,245508.09999999404,245507.90000000596,,245507.5,,245511.517,8,400,,,
break_continue,html.Screen,4_95_2,2023-05-03T20:53:15.104Z,,0,,,NaN,,,,,,false,,,,245508.5,245508.40000000596,,245508.30000001192,,245511.517,8,400,,,
sequence,flow.Sequence,4_95,2023-05-03T20:53:15.104Z,,0,,,2238.887000005954,completion,,,,,false,,,,245508.69999998808,245508.40000000596,243236.181,243247.90000000596,243269.513,245511.517,8,400,,,
trial,html.Screen,4_96_0,2023-05-03T20:53:17.175Z,,0,2,,2067.2830000119284,response,ISIC_0026993.JPG,,ISIC_7443391.JPG,ISIC_7443391.JPG,false,0,keypress(z),500,247579.19999998808,247578.80000001192,245478.185,245508.80000001192,245511.517,247611.433,8,400,47,,ISIC_0026993.JPG
break,html.Screen,4_96_1,2023-05-03T20:53:17.176Z,,0,,,NaN,,,,,,false,,,,247580.19999998808,247579.90000000596,,247579.40000000596,,247611.433,8,400,,,
break_continue,html.Screen,4_96_2,2023-05-03T20:53:17.176Z,,0,,,NaN,,,,,,false,,,,247580.59999999404,247580.5,,247580.30000001192,,247611.433,8,400,,,
sequence,flow.Sequence,4_96,2023-05-03T20:53:17.176Z,,0,,,2068.9830000000075,completion,,,,,false,,,,247580.80000001192,247580.5,245478.185,245508.80000001192,245511.517,247611.433,8,400,,,
trial,html.Screen,4_97_0,2023-05-03T20:53:19.457Z,,0,2,,2249.1669999940495,response,ISIC_0011045.JPG,,ISIC_0066328.JPG,ISIC_0066328.JPG,false,0,keypress(z),500,249861,249860.59999999404,247578.101,247580.90000000596,247611.433,249878.009,8,400,48,,ISIC_0011045.JPG
break,html.Screen,4_97_1,2023-05-03T20:53:19.458Z,,0,,,NaN,,,,,,false,,,,249862,249861.80000001192,,249861.40000000596,,249878.009,8,400,,,
break_continue,html.Screen,4_97_2,2023-05-03T20:53:19.458Z,,0,,,NaN,,,,,,false,,,,249862.40000000596,249862.30000001192,,249862.19999998808,,249878.009,8,400,,,
sequence,flow.Sequence,4_97,2023-05-03T20:53:19.458Z,,0,,,2250.867000011931,completion,,,,,false,,,,249862.59999999404,249862.30000001192,247578.101,247580.80000001192,247611.433,249878.009,8,400,,,
trial,html.Screen,4_98_0,2023-05-03T20:53:21.471Z,,0,2,,1997.0909999940486,response,ISIC_0054185.JPG,,ISIC_0031170.JPG,ISIC_0031170.JPG,false,0,keypress(z),500,251875.40000000596,251875.09999999404,249844.677,249862.69999998808,249878.009,251877.929,8,400,49,,ISIC_0054185.JPG
break,html.Screen,4_98_1,2023-05-03T20:53:21.472Z,,0,,,NaN,,,,,,false,,,,251876.40000000596,251876.19999998808,,251875.80000001192,,251877.929,8,400,,,
break_continue,html.Screen,4_98_2,2023-05-03T20:53:21.472Z,,0,,,NaN,,,,,,false,,,,251876.80000001192,251876.69999998808,,251876.59999999404,,251877.929,8,400,,,
sequence,flow.Sequence,4_98,2023-05-03T20:53:21.472Z,,0,,,1998.6909999880882,completion,,,,,false,,,,251877,251876.69999998808,249844.677,249862.69999998808,249878.009,251877.929,8,400,,,
trial,html.Screen,4_99_0,2023-05-03T20:53:23.466Z,,0,2,,1991.9710000059567,response,ISIC_0054652.JPG,,ISIC_0030910.JPG,ISIC_0030910.JPG,false,0,keypress(z),500,253870.19999998808,253869.90000000596,251844.597,251877.19999998808,251877.929,253877.849,8,400,50,,ISIC_0054652.JPG
break,html.Screen,4_99_1,2023-05-03T20:53:28.444Z,,0,,,4999.8000000000175,timeout,,,,,false,,,,258848.59999999404,258844.317,253844.517,253870.5,253877.849,258877.649,8,400,,,
break_continue,html.Screen,4_99_2,2023-05-03T20:53:28.877Z,,0,,,388.8509999999951,response,,,,,false,continue,keypress(Space),,259281.40000000596,259266.5,258844.317,258848.80000001192,258877.649,259310.965,8,400,,,
sequence,flow.Sequence,4_99,2023-05-03T20:53:28.877Z,,0,,,7388.570999999996,completion,,,,,false,,,,259281.59999999404,259266.5,251844.597,251877.09999999404,251877.929,259310.965,8,400,,,
trial,html.Screen,4_100_0,2023-05-03T20:53:35.632Z,,0,3,,6725.734999988083,response,ISIC_0005062.JPG,,ISIC_0014392.JPG,ISIC_0005062.JPG,false,1,keypress(m),500,266037.09999999404,266036.6999999881,259277.633,259281.69999998808,259310.965,266044.881,8,400,1,,ISIC_0014392.JPG
break,html.Screen,4_100_1,2023-05-03T20:53:35.633Z,,0,,,NaN,,,,,,false,,,,266038.09999999404,266037.90000000596,,266037.40000000596,,266044.881,8,400,,,
break_continue,html.Screen,4_100_2,2023-05-03T20:53:35.634Z,,0,,,NaN,,,,,,false,,,,266038.5,266038.3000000119,,266038.1999999881,,266044.881,8,400,,,
sequence,flow.Sequence,4_100,2023-05-03T20:53:35.634Z,,0,,,6727.335000011924,completion,,,,,false,,,,266038.6999999881,266038.3000000119,259277.633,259281.69999998808,259310.965,266044.881,8,400,,,
trial,html.Screen,4_101_0,2023-05-03T20:53:37.847Z,,0,3,,2206.919000011927,response,ISIC_0030106.JPG,,ISIC_0061085.JPG,ISIC_0030106.JPG,false,1,keypress(m),500,268252.1999999881,268251.8000000119,266011.549,266038.8000000119,266044.881,268278.125,8,400,2,,ISIC_0061085.JPG
break,html.Screen,4_101_1,2023-05-03T20:53:37.848Z,,0,,,NaN,,,,,,false,,,,268253.1999999881,268253,,268252.5,,268278.125,8,400,,,
break_continue,html.Screen,4_101_2,2023-05-03T20:53:37.849Z,,0,,,NaN,,,,,,false,,,,268253.59999999404,268253.5,,268253.40000000596,,268278.125,8,400,,,
sequence,flow.Sequence,4_101,2023-05-03T20:53:37.849Z,,0,,,2208.619000000006,completion,,,,,false,,,,268253.8000000119,268253.5,266011.549,266038.8000000119,266044.881,268278.125,8,400,,,
trial,html.Screen,4_102_0,2023-05-03T20:53:39.969Z,,0,3,,2095.574999988079,response,ISIC_0026909.JPG,,ISIC_5602826.JPG,ISIC_0026909.JPG,false,1,keypress(m),500,270374.09999999404,270373.6999999881,268244.793,268253.90000000596,268278.125,270378.041,8,400,3,,ISIC_5602826.JPG
break,html.Screen,4_102_1,2023-05-03T20:53:39.970Z,,0,,,NaN,,,,,,false,,,,270375,270374.90000000596,,270374.40000000596,,270378.041,8,400,,,
break_continue,html.Screen,4_102_2,2023-05-03T20:53:39.971Z,,0,,,NaN,,,,,,false,,,,270375.40000000596,270375.3000000119,,270375.1999999881,,270378.041,8,400,,,
sequence,flow.Sequence,4_102,2023-05-03T20:53:39.971Z,,0,,,2097.175000011921,completion,,,,,false,,,,270375.59999999404,270375.3000000119,268244.793,268253.90000000596,268278.125,270378.041,8,400,,,
trial,html.Screen,4_103_0,2023-05-03T20:53:45.366Z,,0,3,,5393.058999994013,response,ISIC_0905367.JPG,,ISIC_0015189.JPG,ISIC_0905367.JPG,false,1,keypress(m),500,275771.3000000119,275771.09999999404,270344.709,270375.6999999881,270378.041,275777.825,8,400,4,,ISIC_0015189.JPG
break,html.Screen,4_103_1,2023-05-03T20:53:45.367Z,,0,,,NaN,,,,,,false,,,,275771.6999999881,275771.59999999404,,275771.5,,275777.825,8,400,,,
break_continue,html.Screen,4_103_2,2023-05-03T20:53:45.367Z,,0,,,NaN,,,,,,false,,,,275772,275771.90000000596,,275771.8000000119,,275777.825,8,400,,,
sequence,flow.Sequence,4_103,2023-05-03T20:53:45.367Z,,0,,,5393.859000005934,completion,,,,,false,,,,275772,275771.90000000596,270344.709,270375.6999999881,270378.041,275777.825,8,400,,,
trial,html.Screen,4_104_0,2023-05-03T20:53:47.888Z,,0,3,,2515.575000005949,response,ISIC_0011434.JPG,,ISIC_7867077.JPG,ISIC_0011434.JPG,false,1,keypress(m),500,278293.5,278293.40000000596,275744.493,275772.09999999404,275777.825,278319.845,8,400,5,,ISIC_7867077.JPG
break,html.Screen,4_104_1,2023-05-03T20:53:47.889Z,,0,,,NaN,,,,,,false,,,,278293.90000000596,278293.6999999881,,278293.59999999404,,278319.845,8,400,,,
break_continue,html.Screen,4_104_2,2023-05-03T20:53:47.889Z,,0,,,NaN,,,,,,false,,,,278293.90000000596,278293.90000000596,,278293.90000000596,,278319.845,8,400,,,
sequence,flow.Sequence,4_104,2023-05-03T20:53:47.889Z,,0,,,2516.075000005949,completion,,,,,false,,,,278294,278293.90000000596,275744.493,275772.09999999404,275777.825,278319.845,8,400,,,
trial,html.Screen,4_105_0,2023-05-03T20:53:49.894Z,,0,3,,1978.854999988107,response,ISIC_0061066.JPG,,ISIC_0014013.JPG,ISIC_0061066.JPG,false,1,keypress(m),500,280299,280298.6999999881,278286.513,278294,278319.845,280319.765,8,400,6,,ISIC_0014013.JPG
break,html.Screen,4_105_1,2023-05-03T20:53:49.895Z,,0,,,NaN,,,,,,false,,,,280300,280299.8000000119,,280299.40000000596,,280319.765,8,400,,,
break_continue,html.Screen,4_105_2,2023-05-03T20:53:49.895Z,,0,,,NaN,,,,,,false,,,,280300.59999999404,280300.40000000596,,280300.1999999881,,280319.765,8,400,,,
sequence,flow.Sequence,4_105,2023-05-03T20:53:49.896Z,,0,,,1980.5550000059884,completion,,,,,false,,,,280300.6999999881,280300.40000000596,278286.513,278294,278319.845,280319.765,8,400,,,
trial,html.Screen,4_106_0,2023-05-03T20:53:52.070Z,,0,3,,2154.934999988065,response,ISIC_0064141.JPG,,ISIC_0033042.JPG,ISIC_0064141.JPG,false,1,keypress(m),500,282475.09999999404,282474.6999999881,280286.433,280300.8000000119,280319.765,282486.345,8,400,7,,ISIC_0033042.JPG
break,html.Screen,4_106_1,2023-05-03T20:53:52.071Z,,0,,,NaN,,,,,,false,,,,282475.90000000596,282475.6999999881,,282475.40000000596,,282486.345,8,400,,,
break_continue,html.Screen,4_106_2,2023-05-03T20:53:52.071Z,,0,,,NaN,,,,,,false,,,,282476.40000000596,282476.3000000119,,282476.09999999404,,282486.345,8,400,,,
sequence,flow.Sequence,4_106,2023-05-03T20:53:52.072Z,,0,,,2156.535000011907,completion,,,,,false,,,,282476.8000000119,282476.3000000119,280286.433,280300.8000000119,280319.765,282486.345,8,400,,,
trial,html.Screen,4_107_0,2023-05-03T20:53:54.126Z,,0,3,,2044.7549999940675,response,ISIC_0031422.JPG,,ISIC_0011701.JPG,ISIC_0031422.JPG,false,1,keypress(m),500,284531.40000000596,284531.09999999404,282453.013,282477,282486.345,284552.929,8,400,8,,ISIC_0011701.JPG
break,html.Screen,4_107_1,2023-05-03T20:53:54.127Z,,0,,,NaN,,,,,,false,,,,284532.3000000119,284532.09999999404,,284531.6999999881,,284552.929,8,400,,,
break_continue,html.Screen,4_107_2,2023-05-03T20:53:54.127Z,,0,,,NaN,,,,,,false,,,,284532.6999999881,284532.59999999404,,284532.5,,284552.929,8,400,,,
sequence,flow.Sequence,4_107,2023-05-03T20:53:54.128Z,,0,,,2046.2549999940675,completion,,,,,false,,,,284532.8000000119,284532.59999999404,282453.013,282476.90000000596,282486.345,284552.929,8,400,,,
trial,html.Screen,4_108_0,2023-05-03T20:53:56.585Z,,0,3,,2436.9710000059567,response,ISIC_0027085.JPG,,ISIC_0031472.JPG,ISIC_0027085.JPG,false,1,keypress(m),500,286990.1999999881,286989.90000000596,284519.597,284533,284552.929,287003.253,8,400,9,,ISIC_0031472.JPG
break,html.Screen,4_108_1,2023-05-03T20:53:56.586Z,,0,,,NaN,,,,,,false,,,,286991.09999999404,286990.8000000119,,286990.5,,287003.253,8,400,,,
break_continue,html.Screen,4_108_2,2023-05-03T20:53:56.586Z,,0,,,NaN,,,,,,false,,,,286991.40000000596,286991.3000000119,,286991.1999999881,,287003.253,8,400,,,
sequence,flow.Sequence,4_108,2023-05-03T20:53:56.586Z,,0,,,2438.371000011917,completion,,,,,false,,,,286991.59999999404,286991.3000000119,284519.597,284532.90000000596,284552.929,287003.253,8,400,,,
trial,html.Screen,4_109_0,2023-05-03T20:53:58.608Z,,0,3,,2009.3469999940135,response,ISIC_4519298.JPG,,ISIC_8796456.JPG,ISIC_4519298.JPG,false,1,keypress(m),500,289012.90000000596,289012.59999999404,286969.921,286991.6999999881,287003.253,289036.505,8,400,10,,ISIC_8796456.JPG
break,html.Screen,4_109_1,2023-05-03T20:53:58.609Z,,0,,,NaN,,,,,,false,,,,289013.8000000119,289013.59999999404,,289013.1999999881,,289036.505,8,400,,,
break_continue,html.Screen,4_109_2,2023-05-03T20:53:58.609Z,,0,,,NaN,,,,,,false,,,,289014.09999999404,289014.09999999404,,289014,,289036.505,8,400,,,
sequence,flow.Sequence,4_109,2023-05-03T20:53:58.609Z,,0,,,2010.8469999940135,completion,,,,,false,,,,289014.3000000119,289014.09999999404,286969.921,286991.6999999881,287003.253,289036.505,8,400,,,
trial,html.Screen,4_110_0,2023-05-03T20:54:01.094Z,,0,3,,2462.395000005956,response,ISIC_3559222.JPG,,ISIC_0011733.JPG,ISIC_3559222.JPG,false,1,keypress(m),500,291499.3000000119,291498.90000000596,289003.173,289014.5,289036.505,291503.073,8,400,11,,ISIC_0011733.JPG
break,html.Screen,4_110_1,2023-05-03T20:54:01.095Z,,0,,,NaN,,,,,,false,,,,291500.3000000119,291500.09999999404,,291499.59999999404,,291503.073,8,400,,,
break_continue,html.Screen,4_110_2,2023-05-03T20:54:01.095Z,,0,,,NaN,,,,,,false,,,,291500.6999999881,291500.59999999404,,291500.5,,291503.073,8,400,,,
sequence,flow.Sequence,4_110,2023-05-03T20:54:01.096Z,,0,,,2464.094999994035,completion,,,,,false,,,,291500.90000000596,291500.59999999404,289003.173,289014.5,289036.505,291503.073,8,400,,,
trial,html.Screen,4_111_0,2023-05-03T20:54:03.265Z,,0,3,,2166.3270000059856,response,ISIC_0059884.JPG,,ISIC_6515546.JPG,ISIC_0059884.JPG,false,1,keypress(m),500,293669.90000000596,293669.40000000596,291469.741,291500.90000000596,291503.073,293702.985,8,400,12,,ISIC_6515546.JPG
break,html.Screen,4_111_1,2023-05-03T20:54:03.266Z,,0,,,NaN,,,,,,false,,,,293670.90000000596,293670.6999999881,,293670.1999999881,,293702.985,8,400,,,
break_continue,html.Screen,4_111_2,2023-05-03T20:54:03.266Z,,0,,,NaN,,,,,,false,,,,293671.3000000119,293671.09999999404,,293671,,293702.985,8,400,,,
sequence,flow.Sequence,4_111,2023-05-03T20:54:03.266Z,,0,,,2168.0269999940647,completion,,,,,false,,,,293671.40000000596,293671.09999999404,291469.741,291500.90000000596,291503.073,293702.985,8,400,,,
trial,html.Screen,4_112_0,2023-05-03T20:54:14.779Z,,0,3,,11541.79700000002,timeout,ISIC_0783513.JPG,,ISIC_9256438.JPG,,false,,,500,305184.40000000596,305183.8000000119,293669.653,293671.5,293702.985,305244.782,8,400,13,,
break,html.Screen,4_112_1,2023-05-03T20:54:14.780Z,,0,,,NaN,,,,,,false,,,,305185.3000000119,305185.09999999404,,305184.59999999404,,305244.782,8,400,,,
break_continue,html.Screen,4_112_2,2023-05-03T20:54:14.780Z,,0,,,NaN,,,,,,false,,,,305185.6999999881,305185.59999999404,,305185.40000000596,,305244.782,8,400,,,
sequence,flow.Sequence,4_112,2023-05-03T20:54:14.780Z,,0,,,11482.614999994054,completion,,,,,false,,,,305185.8000000119,305185.59999999404,293669.653,293671.5,293702.985,305244.782,8,400,,,
trial,html.Screen,4_113_0,2023-05-03T20:54:16.864Z,,0,3,,2024.7179999999935,response,ISIC_8320640.JPG,,ISIC_0071916.JPG,ISIC_8320640.JPG,false,1,keypress(m),500,307269.90000000596,307269.5,305211.45,305185.8000000119,305244.782,307278.034,8,400,14,,ISIC_0071916.JPG
break,html.Screen,4_113_1,2023-05-03T20:54:16.865Z,,0,,,NaN,,,,,,false,,,,307270.90000000596,307270.59999999404,,307270.09999999404,,307278.034,8,400,,,
break_continue,html.Screen,4_113_2,2023-05-03T20:54:16.866Z,,0,,,NaN,,,,,,false,,,,307271.1999999881,307271.09999999404,,307270.90000000596,,307278.034,8,400,,,
sequence,flow.Sequence,4_113,2023-05-03T20:54:16.866Z,,0,,,2026.317999994033,completion,,,,,false,,,,307271.40000000596,307271.09999999404,305211.45,305185.8000000119,305244.782,307278.034,8,400,,,
trial,html.Screen,4_114_0,2023-05-03T20:54:23.358Z,,0,3,,6485.366000005975,response,ISIC_0070048.JPG,,ISIC_9049170.JPG,ISIC_0070048.JPG,false,1,keypress(m),500,313763.90000000596,313763.40000000596,307244.702,307271.5,307278.034,313778.284,8,400,15,,ISIC_9049170.JPG
break,html.Screen,4_114_1,2023-05-03T20:54:23.359Z,,0,,,NaN,,,,,,false,,,,313764.90000000596,313764.59999999404,,313764.1999999881,,313778.284,8,400,,,
break_continue,html.Screen,4_114_2,2023-05-03T20:54:23.359Z,,0,,,NaN,,,,,,false,,,,313765.1999999881,313765.09999999404,,313765,,313778.284,8,400,,,
sequence,flow.Sequence,4_114,2023-05-03T20:54:23.360Z,,0,,,6487.065999994054,completion,,,,,false,,,,313765.40000000596,313765.09999999404,307244.702,307271.5,307278.034,313778.284,8,400,,,
trial,html.Screen,4_115_0,2023-05-03T20:54:25.422Z,,0,3,,2048.915999988094,response,ISIC_4548995.JPG,,ISIC_9425937.JPG,ISIC_4548995.JPG,false,1,keypress(m),500,315827.5,315827.1999999881,313744.952,313765.59999999404,313778.284,315844.868,8,400,16,,ISIC_9425937.JPG
break,html.Screen,4_115_1,2023-05-03T20:54:25.423Z,,0,,,NaN,,,,,,false,,,,315828.5,315828.3000000119,,315827.6999999881,,315844.868,8,400,,,
break_continue,html.Screen,4_115_2,2023-05-03T20:54:25.423Z,,0,,,NaN,,,,,,false,,,,315828.8000000119,315828.6999999881,,315828.59999999404,,315844.868,8,400,,,
sequence,flow.Sequence,4_115,2023-05-03T20:54:25.423Z,,0,,,2050.415999988094,completion,,,,,false,,,,315828.90000000596,315828.6999999881,313744.952,313765.5,313778.284,315844.868,8,400,,,
trial,html.Screen,4_116_0,2023-05-03T20:54:28.974Z,,0,3,,3534.6319999999832,response,ISIC_0067172.JPG,,ISIC_2209697.JPG,ISIC_0067172.JPG,false,1,keypress(m),500,319379.8000000119,319379.5,315811.536,315829,315844.868,319411.392,8,400,17,,ISIC_2209697.JPG
break,html.Screen,4_116_1,2023-05-03T20:54:28.975Z,,0,,,NaN,,,,,,false,,,,319380.59999999404,319380.40000000596,,319380,,319411.392,8,400,,,
break_continue,html.Screen,4_116_2,2023-05-03T20:54:28.975Z,,0,,,NaN,,,,,,false,,,,319380.90000000596,319380.8000000119,,319380.6999999881,,319411.392,8,400,,,
sequence,flow.Sequence,4_116,2023-05-03T20:54:28.975Z,,0,,,3535.932000011904,completion,,,,,false,,,,319381,319380.8000000119,315811.536,315829,315844.868,319411.392,8,400,,,
trial,html.Screen,4_117_0,2023-05-03T20:54:34.998Z,,0,3,,5992.108000000007,response,ISIC_0007740.JPG,,ISIC_5849178.JPG,ISIC_0007740.JPG,false,1,keypress(m),500,325404,325403.5,319378.06,319381.09999999404,319411.392,325419.965,8,400,18,,ISIC_5849178.JPG
break,html.Screen,4_117_1,2023-05-03T20:54:34.999Z,,0,,,NaN,,,,,,false,,,,325405,325404.8000000119,,325404.1999999881,,325419.965,8,400,,,
break_continue,html.Screen,4_117_2,2023-05-03T20:54:34.999Z,,0,,,NaN,,,,,,false,,,,325405.40000000596,325405.3000000119,,325405.09999999404,,325419.965,8,400,,,
sequence,flow.Sequence,4_117,2023-05-03T20:54:35.000Z,,0,,,5993.908000011928,completion,,,,,false,,,,325405.5,325405.3000000119,319378.06,319381,319411.392,325419.965,8,400,,,
trial,html.Screen,4_118_0,2023-05-03T20:54:46.485Z,,0,3,,11516.708999999973,timeout,ISIC_7161069.JPG,,ISIC_8692950.JPG,,false,,,500,336891.09999999404,336890.59999999404,325386.633,325405.6999999881,325419.965,336936.674,8,400,19,,
break,html.Screen,4_118_1,2023-05-03T20:54:46.486Z,,0,,,NaN,,,,,,false,,,,336892.09999999404,336891.90000000596,,336891.40000000596,,336936.674,8,400,,,
break_continue,html.Screen,4_118_2,2023-05-03T20:54:46.486Z,,0,,,NaN,,,,,,false,,,,336892.40000000596,336892.3000000119,,336892.1999999881,,336936.674,8,400,,,
sequence,flow.Sequence,4_118,2023-05-03T20:54:46.486Z,,0,,,11472.335000011895,completion,,,,,false,,,,336892.5,336892.3000000119,325386.633,325405.59999999404,325419.965,336936.674,8,400,,,
trial,html.Screen,4_119_0,2023-05-03T20:54:49.653Z,,0,3,,3122.126000011922,response,ISIC_0031070.JPG,,ISIC_6618851.JPG,ISIC_0031070.JPG,false,1,keypress(m),500,340059.1999999881,340058.8000000119,336919.505,336892.59999999404,336936.674,340069.882,8,400,20,,ISIC_6618851.JPG
break,html.Screen,4_119_1,2023-05-03T20:54:49.654Z,,0,,,NaN,,,,,,false,,,,340060.09999999404,340059.8000000119,,340059.40000000596,,340069.882,8,400,,,
break_continue,html.Screen,4_119_2,2023-05-03T20:54:49.654Z,,0,,,NaN,,,,,,false,,,,340060.40000000596,340060.3000000119,,340060.1999999881,,340069.882,8,400,,,
sequence,flow.Sequence,4_119,2023-05-03T20:54:49.654Z,,0,,,3123.626000011922,completion,,,,,false,,,,340060.59999999404,340060.3000000119,336919.505,336892.59999999404,336936.674,340069.882,8,400,,,
trial,html.Screen,4_120_0,2023-05-03T20:54:51.765Z,,0,3,,2101.317999988096,response,ISIC_0073032.JPG,,ISIC_0027663.JPG,ISIC_0073032.JPG,false,1,keypress(m),500,342171.5,342171.1999999881,340036.55,340060.8000000119,340069.882,342203.13,8,400,21,,ISIC_0027663.JPG
break,html.Screen,4_120_1,2023-05-03T20:54:51.766Z,,0,,,NaN,,,,,,false,,,,342172.5,342172.3000000119,,342171.8000000119,,342203.13,8,400,,,
break_continue,html.Screen,4_120_2,2023-05-03T20:54:51.767Z,,0,,,NaN,,,,,,false,,,,342173,342172.8000000119,,342172.6999999881,,342203.13,8,400,,,
sequence,flow.Sequence,4_120,2023-05-03T20:54:51.767Z,,0,,,2102.9180000119377,completion,,,,,false,,,,342173.09999999404,342172.8000000119,340036.55,340060.6999999881,340069.882,342203.13,8,400,,,
trial,html.Screen,4_121_0,2023-05-03T20:54:53.877Z,,0,3,,2079.5699999880744,response,ISIC_0032287.JPG,,ISIC_0065341.JPG,ISIC_0032287.JPG,false,1,keypress(m),500,344283.1999999881,344282.6999999881,342169.798,342173.1999999881,342203.13,344303.046,8,400,22,,ISIC_0065341.JPG
break,html.Screen,4_121_1,2023-05-03T20:54:53.878Z,,0,,,NaN,,,,,,false,,,,344284.1999999881,344284,,344283.59999999404,,344303.046,8,400,,,
break_continue,html.Screen,4_121_2,2023-05-03T20:54:53.878Z,,0,,,NaN,,,,,,false,,,,344284.5,344284.5,,344284.3000000119,,344303.046,8,400,,,
sequence,flow.Sequence,4_121,2023-05-03T20:54:53.878Z,,0,,,2081.3699999999953,completion,,,,,false,,,,344284.6999999881,344284.5,342169.798,342173.09999999404,342203.13,344303.046,8,400,,,
trial,html.Screen,4_122_0,2023-05-03T20:55:01.069Z,,0,3,,7172.153999988106,response,ISIC_3824206.JPG,,ISIC_0029508.JPG,ISIC_3824206.JPG,false,1,keypress(m),500,351475.6999999881,351475.1999999881,344269.714,344284.90000000596,344303.046,351478.249,8,400,23,,ISIC_0029508.JPG
break,html.Screen,4_122_1,2023-05-03T20:55:01.070Z,,0,,,NaN,,,,,,false,,,,351476.59999999404,351476.3000000119,,351475.90000000596,,351478.249,8,400,,,
break_continue,html.Screen,4_122_2,2023-05-03T20:55:01.070Z,,0,,,NaN,,,,,,false,,,,351476.8000000119,351476.6999999881,,351476.6999999881,,351478.249,8,400,,,
sequence,flow.Sequence,4_122,2023-05-03T20:55:01.071Z,,0,,,7173.653999988106,completion,,,,,false,,,,351477,351476.6999999881,344269.714,344284.8000000119,344303.046,351478.249,8,400,,,
trial,html.Screen,4_123_0,2023-05-03T20:55:03.293Z,,0,3,,2220.9509999880684,response,ISIC_5178031.JPG,,ISIC_0031629.JPG,ISIC_5178031.JPG,false,1,keypress(m),500,353699.59999999404,353699.1999999881,351444.917,351477.09999999404,351478.249,353711.493,8,400,24,,ISIC_0031629.JPG
break,html.Screen,4_123_1,2023-05-03T20:55:03.294Z,,0,,,NaN,,,,,,false,,,,353700.5,353700.3000000119,,353699.90000000596,,353711.493,8,400,,,
break_continue,html.Screen,4_123_2,2023-05-03T20:55:03.294Z,,0,,,NaN,,,,,,false,,,,353700.90000000596,353700.8000000119,,353700.6999999881,,353711.493,8,400,,,
sequence,flow.Sequence,4_123,2023-05-03T20:55:03.295Z,,0,,,2222.55100001191,completion,,,,,false,,,,353701.09999999404,353700.8000000119,351444.917,351477.09999999404,351478.249,353711.493,8,400,,,
trial,html.Screen,4_124_0,2023-05-03T20:55:05.269Z,,0,3,,1963.2069999880623,response,ISIC_6119208.JPG,,ISIC_2843245.JPG,ISIC_6119208.JPG,false,1,keypress(m),500,355675.09999999404,355674.6999999881,353678.161,353701.1999999881,353711.493,355711.413,8,400,25,,ISIC_2843245.JPG
break,html.Screen,4_124_1,2023-05-03T20:55:05.269Z,,0,,,NaN,,,,,,false,,,,355676.09999999404,355675.8000000119,,355675.5,,355711.413,8,400,,,
break_continue,html.Screen,4_124_2,2023-05-03T20:55:05.270Z,,0,,,NaN,,,,,,false,,,,355676.40000000596,355676.3000000119,,355676.1999999881,,355711.413,8,400,,,
sequence,flow.Sequence,4_124,2023-05-03T20:55:05.270Z,,0,,,1964.8070000119042,completion,,,,,false,,,,355676.5,355676.3000000119,353678.161,353701.09999999404,353711.493,355711.413,8,400,,,
trial,html.Screen,4_125_0,2023-05-03T20:55:07.300Z,,0,3,,1995.2869999880786,response,ISIC_8615491.JPG,,ISIC_9286292.JPG,ISIC_8615491.JPG,false,1,keypress(m),500,357706.90000000596,357706.6999999881,355678.081,355676.59999999404,355711.413,357711.333,8,400,26,,ISIC_9286292.JPG
break,html.Screen,4_125_1,2023-05-03T20:55:07.301Z,,0,,,NaN,,,,,,false,,,,357707.5,357707.40000000596,,357707.09999999404,,357711.333,8,400,,,
break_continue,html.Screen,4_125_2,2023-05-03T20:55:07.301Z,,0,,,NaN,,,,,,false,,,,357707.6999999881,357707.6999999881,,357707.59999999404,,357711.333,8,400,,,
sequence,flow.Sequence,4_125,2023-05-03T20:55:07.301Z,,0,,,1996.2869999880786,completion,,,,,false,,,,357707.8000000119,357707.6999999881,355678.081,355676.59999999404,355711.413,357711.333,8,400,,,
