sender,sender_type,sender_id,timestamp,meta,,blockNo,condition,duration,ended_on,img_left,img_reveal,img_right,loser,practice,response,response_action,selection_duration,time_commit,time_end,time_render,time_run,time_show,time_switch,total_blocks,total_trials,trialNo,url,winner
informed_consent,html.Screen,0,2023-05-01T21:01:54.601Z,"{""labjs_version"":""20.2.4"",""labjs_build"":{""flavor"":""production"",""commit"":""f5b4a49f956347addd546a832a3327688c2c0fef""},""location"":""https://run.pavlovia.org/MurrayBennett/melanoma-2afc/?participant=64668"",""userAgent"":""Mozilla/5.0 (Windows NT 10.0; Win64; x64) AppleWebKit/537.36 (KHTML, like Gecko) Chrome/112.0.0.0 Safari/537.36"",""platform"":""Win32"",""language"":""en-US"",""locale"":""en-US"",""timeZone"":""America/Chicago"",""timezoneOffset"":300,""screen_width"":1440,""screen_height"":960,""scroll_width"":1440,""scroll_height"":761,""window_innerWidth"":1440,""window_innerHeight"":809,""devicePixelRatio"":2}",,,,29271.142999928474,response,,,,,,consent,click button,,31994.5,31993.199999928474,2222.109,2717.5,2722.057,32013.55,,,,"{""participant"":""64668""}",
Welcome,html.Screen,1,2023-05-01T21:02:34.082Z,,,,regular,39461.14999992847,response,,,,,,continue,click button,,71476.09999990463,71474.69999992847,31996.847,31994.699999928474,32013.55,71489.664,,,,,
trial,html.Screen,2_0_0,2023-05-01T21:02:43.747Z,,0,0,,9650.835999999996,response,ISIC_0061792.JPG,,ISIC_4679428.JPG,ISIC_4679428.JPG,true,0,keypress(Z),500,81140.89999997616,81140.5,71473.015,71476.5,71489.664,81151.482,1,6,1,,ISIC_0061792.JPG
sequence,flow.Sequence,2_0,2023-05-01T21:02:43.748Z,,0,,,9650.835999999996,completion,,,,,true,,,,81141.39999997616,81140.5,71473.015,71476.39999997616,71489.664,81151.482,1,6,,,
trial,html.Screen,2_1_0,2023-05-01T21:02:55.250Z,,0,0,,11520.831999999995,timeout,ISIC_0776486.JPG,,ISIC_5199497.JPG,,true,,,500,92643.29999995232,92643,81127.959,81141.59999990463,81151.482,92672.314,1,6,2,,
sequence,flow.Sequence,2_1,2023-05-01T21:02:55.251Z,,0,,,11491.517999999996,completion,,,,,true,,,,92643.5,92643,81127.959,81141.5,81151.482,92672.314,1,6,,,
trial,html.Screen,2_2_0,2023-05-01T21:03:01.726Z,,0,0,,6446.6860000000015,response,ISIC_2556187.JPG,,ISIC_8575776.JPG,ISIC_2556187.JPG,true,1,keypress(m),500,99119.29999995232,99119,92655.65,92643.69999992847,92672.314,99129.977,1,6,3,,ISIC_8575776.JPG
sequence,flow.Sequence,2_2,2023-05-01T21:03:01.727Z,,0,,,6446.6860000000015,completion,,,,,true,,,,99119.59999990463,99119,92655.65,92643.69999992847,92672.314,99129.977,1,6,,,
trial,html.Screen,2_3_0,2023-05-01T21:03:05.043Z,,0,0,,3305.8229999523173,response,ISIC_8141769.JPG,,ISIC_9238366.JPG,ISIC_8141769.JPG,true,1,keypress(m),500,102436.09999990463,102435.79999995232,99112.23,99119.89999997616,99129.977,102444.429,1,6,4,,ISIC_9238366.JPG
sequence,flow.Sequence,2_3,2023-05-01T21:03:05.044Z,,0,,,3305.8229999523173,completion,,,,,true,,,,102436.39999997616,102435.79999995232,99112.23,99119.79999995232,99129.977,102444.429,1,6,,,
trial,html.Screen,2_4_0,2023-05-01T21:03:09.551Z,,0,0,,4498.670999904629,response,ISIC_8949026.JPG,,ISIC_9959593.JPG,ISIC_8949026.JPG,true,1,keypress(m),500,106943.59999990463,106943.09999990463,102428.4,102436.69999992847,102444.429,106952.736,1,6,5,,ISIC_9959593.JPG
sequence,flow.Sequence,2_4,2023-05-01T21:03:09.551Z,,0,,,4498.670999904629,completion,,,,,true,,,,106944.09999990463,106943.09999990463,102428.4,102436.69999992847,102444.429,106952.736,1,6,,,
trial,html.Screen,2_5_0,2023-05-01T21:03:12.666Z,,0,0,,3106.063999952312,response,ISIC_0010479.JPG,,ISIC_0460240.JPG,ISIC_0010479.JPG,true,1,keypress(m),500,110059,110058.79999995232,106936.52,106944.59999990463,106952.736,110069.412,1,6,6,,ISIC_0460240.JPG
sequence,flow.Sequence,2_5,2023-05-01T21:03:12.667Z,,0,,,3106.063999952312,completion,,,,,true,,,,110059.39999997616,110058.79999995232,106936.52,106944.5,106952.736,110069.412,1,6,,,
loop,flow.Loop,2,2023-05-01T21:03:12.667Z,,,,,38569.13599995231,completion,,,,,true,,,,110059.69999992847,110058.79999995232,71473.015,71476.39999997616,71489.664,110069.412,1,6,,,
exp_instructions,html.Screen,3,2023-05-01T21:03:19.015Z,,,,,6337.588000000003,response,,,,,,continue,keypress(Space),,116407.89999997616,116407,110053.214,110059.69999992847,110069.412,116418.255,,,,,
trial,html.Screen,4_0_0,2023-05-01T21:03:24.039Z,,0,1,,5012.94499992847,response,ISIC_5754023.JPG,,ISIC_2847555.JPG,ISIC_2847555.JPG,false,0,keypress(z),500,121431.5,121431.19999992847,116398.695,116408.19999992847,116418.255,121441.925,8,400,1,,ISIC_5754023.JPG
break,html.Screen,4_0_1,2023-05-01T21:03:24.040Z,,0,,,NaN,,,,,,false,,,,121432.69999992847,121432.39999997616,,121431.69999992847,,121441.925,8,400,,,
break_continue,html.Screen,4_0_2,2023-05-01T21:03:24.040Z,,0,,,NaN,,,,,,false,,,,121433.09999990463,121433,,121432.89999997616,,121441.925,8,400,,,
sequence,flow.Sequence,4_0,2023-05-01T21:03:24.040Z,,0,,,5014.744999999995,completion,,,,,false,,,,121433.29999995232,121433,116398.695,116408.19999992847,116418.255,121441.925,8,400,,,
trial,html.Screen,4_1_0,2023-05-01T21:03:27.196Z,,0,1,,3146.574999999997,response,ISIC_0061936.JPG,,ISIC_6444989.JPG,ISIC_0061936.JPG,false,1,keypress(m),500,124588.79999995232,124588.5,121422.456,121433.5,121441.925,124599.194,8,400,2,,ISIC_6444989.JPG
break,html.Screen,4_1_1,2023-05-01T21:03:27.197Z,,0,,,NaN,,,,,,false,,,,124589.89999997616,124589.5,,124589,,124599.194,8,400,,,
break_continue,html.Screen,4_1_2,2023-05-01T21:03:27.197Z,,0,,,NaN,,,,,,false,,,,124590.19999992847,124590.09999990463,,124590,,124599.194,8,400,,,
sequence,flow.Sequence,4_1,2023-05-01T21:03:27.198Z,,0,,,3148.1749999046297,completion,,,,,false,,,,124590.39999997616,124590.09999990463,121422.456,121433.5,121441.925,124599.194,8,400,,,
trial,html.Screen,4_2_0,2023-05-01T21:03:36.653Z,,0,1,,9446.705999976155,response,ISIC_7466678.JPG,,ISIC_4177450.JPG,ISIC_7466678.JPG,false,1,keypress(m),500,134046.09999990463,134045.89999997616,124580.348,124590.59999990463,124599.194,134055.866,8,400,3,,ISIC_4177450.JPG
break,html.Screen,4_2_1,2023-05-01T21:03:36.654Z,,0,,,NaN,,,,,,false,,,,134046.79999995232,134046.59999990463,,134046.29999995232,,134055.866,8,400,,,
break_continue,html.Screen,4_2_2,2023-05-01T21:03:36.654Z,,0,,,NaN,,,,,,false,,,,134047.09999990463,134046.89999997616,,134046.89999997616,,134055.866,8,400,,,
sequence,flow.Sequence,4_2,2023-05-01T21:03:36.654Z,,0,,,9447.705999976155,completion,,,,,false,,,,134047.19999992847,134046.89999997616,124580.348,124590.5,124599.194,134055.866,8,400,,,
trial,html.Screen,4_3_0,2023-05-01T21:03:43.777Z,,0,1,,7114.2339999046235,response,ISIC_8108090.JPG,,ISIC_0065313.JPG,ISIC_0065313.JPG,false,0,keypress(z),500,141170.39999997616,141170.09999990463,134042.599,134047.19999992847,134055.866,141180.584,8,400,4,,ISIC_8108090.JPG
break,html.Screen,4_3_1,2023-05-01T21:03:43.778Z,,0,,,NaN,,,,,,false,,,,141171.29999995232,141171.09999990463,,141170.59999990463,,141180.584,8,400,,,
break_continue,html.Screen,4_3_2,2023-05-01T21:03:43.779Z,,0,,,NaN,,,,,,false,,,,141171.79999995232,141171.59999990463,,141171.5,,141180.584,8,400,,,
sequence,flow.Sequence,4_3,2023-05-01T21:03:43.779Z,,0,,,7115.7339999046235,completion,,,,,false,,,,141172,141171.59999990463,134042.599,134047.19999992847,134055.866,141180.584,8,400,,,
trial,html.Screen,4_4_0,2023-05-01T21:03:46.881Z,,0,1,,3093.3159999761556,response,ISIC_0027541.JPG,,ISIC_0027271.JPG,ISIC_0027271.JPG,false,0,keypress(z),500,144274.19999992847,144273.89999997616,141162.704,141172.09999990463,141180.584,144284.674,8,400,5,,ISIC_0027541.JPG
break,html.Screen,4_4_1,2023-05-01T21:03:46.882Z,,0,,,NaN,,,,,,false,,,,144275.19999992847,144274.89999997616,,144274.39999997616,,144284.674,8,400,,,
break_continue,html.Screen,4_4_2,2023-05-01T21:03:46.883Z,,0,,,NaN,,,,,,false,,,,144276,144275.89999997616,,144275.29999995232,,144284.674,8,400,,,
sequence,flow.Sequence,4_4,2023-05-01T21:03:46.883Z,,0,,,3095.3159999761556,completion,,,,,false,,,,144276.19999992847,144275.89999997616,141162.704,141172.09999990463,141180.584,144284.674,8,400,,,
trial,html.Screen,4_5_0,2023-05-01T21:03:49.955Z,,0,1,,3062.5259999284754,response,ISIC_0962787.JPG,,ISIC_7620514.JPG,ISIC_7620514.JPG,false,0,keypress(z),500,147347.39999997616,147347.19999992847,144266.863,144276.39999997616,144284.674,147357.873,8,400,6,,ISIC_0962787.JPG
break,html.Screen,4_5_1,2023-05-01T21:03:49.956Z,,0,,,NaN,,,,,,false,,,,147348.5,147348.19999992847,,147347.69999992847,,147357.873,8,400,,,
break_continue,html.Screen,4_5_2,2023-05-01T21:03:49.956Z,,0,,,NaN,,,,,,false,,,,147348.79999995232,147348.79999995232,,147348.69999992847,,147357.873,8,400,,,
sequence,flow.Sequence,4_5,2023-05-01T21:03:49.956Z,,0,,,3064.125999952317,completion,,,,,false,,,,147349.09999990463,147348.79999995232,144266.863,144276.39999997616,144284.674,147357.873,8,400,,,
trial,html.Screen,4_6_0,2023-05-01T21:03:52.676Z,,0,1,,2710.926999952324,response,ISIC_0071931.JPG,,ISIC_0068144.JPG,ISIC_0071931.JPG,false,1,keypress(m),500,150069.09999990463,150068.79999995232,147339.878,147349.19999992847,147357.873,150079.349,8,400,7,,ISIC_0068144.JPG
break,html.Screen,4_6_1,2023-05-01T21:03:52.676Z,,0,,,NaN,,,,,,false,,,,150070,150069.79999995232,,150069.29999995232,,150079.349,8,400,,,
break_continue,html.Screen,4_6_2,2023-05-01T21:03:52.677Z,,0,,,NaN,,,,,,false,,,,150070.29999995232,150070.19999992847,,150070.09999990463,,150079.349,8,400,,,
sequence,flow.Sequence,4_6,2023-05-01T21:03:52.677Z,,0,,,2712.326999928482,completion,,,,,false,,,,150070.39999997616,150070.19999992847,147339.878,147349.19999992847,147357.873,150079.349,8,400,,,
trial,html.Screen,4_7_0,2023-05-01T21:03:55.166Z,,0,1,,2480.250999904645,response,ISIC_7357474.JPG,,ISIC_0033083.JPG,ISIC_7357474.JPG,false,1,keypress(m),500,152560,152559.59999990463,150057.085,150070.59999990463,150079.349,152570.429,8,400,8,,ISIC_0033083.JPG
break,html.Screen,4_7_1,2023-05-01T21:03:55.168Z,,0,,,NaN,,,,,,false,,,,152561.09999990463,152560.89999997616,,152560.19999992847,,152570.429,8,400,,,
break_continue,html.Screen,4_7_2,2023-05-01T21:03:55.168Z,,0,,,NaN,,,,,,false,,,,152561.5,152561.29999995232,,152561.19999992847,,152570.429,8,400,,,
sequence,flow.Sequence,4_7,2023-05-01T21:03:55.168Z,,0,,,2481.950999952329,completion,,,,,false,,,,152561.69999992847,152561.29999995232,150057.085,150070.59999990463,150079.349,152570.429,8,400,,,
trial,html.Screen,4_8_0,2023-05-01T21:03:58.476Z,,0,1,,3298.670999904629,response,ISIC_0014480.JPG,,ISIC_0033148.JPG,ISIC_0014480.JPG,false,1,keypress(m),500,155869.39999997616,155869.09999990463,152551.63,152561.89999997616,152570.429,155879.802,8,400,9,,ISIC_0033148.JPG
break,html.Screen,4_8_1,2023-05-01T21:03:58.477Z,,0,,,NaN,,,,,,false,,,,155870.19999992847,155870.09999990463,,155869.59999990463,,155879.802,8,400,,,
break_continue,html.Screen,4_8_2,2023-05-01T21:03:58.477Z,,0,,,NaN,,,,,,false,,,,155870.59999990463,155870.5,,155870.29999995232,,155879.802,8,400,,,
sequence,flow.Sequence,4_8,2023-05-01T21:03:58.477Z,,0,,,3300.0709999999963,completion,,,,,false,,,,155870.69999992847,155870.5,152551.63,152561.89999997616,152570.429,155879.802,8,400,,,
trial,html.Screen,4_9_0,2023-05-01T21:04:01.493Z,,0,1,,3006.8979999284784,response,ISIC_7460111.JPG,,ISIC_0063650.JPG,ISIC_7460111.JPG,false,1,keypress(m),500,158887,158886.69999992847,155862.224,155870.89999997616,155879.802,158897.261,8,400,10,,ISIC_0063650.JPG
break,html.Screen,4_9_1,2023-05-01T21:04:01.494Z,,0,,,NaN,,,,,,false,,,,158887.79999995232,158887.59999990463,,158887.19999992847,,158897.261,8,400,,,
break_continue,html.Screen,4_9_2,2023-05-01T21:04:01.495Z,,0,,,NaN,,,,,,false,,,,158888.29999995232,158888.09999990463,,158888,,158897.261,8,400,,,
sequence,flow.Sequence,4_9,2023-05-01T21:04:01.495Z,,0,,,3008.2979999046365,completion,,,,,false,,,,158888.5,158888.09999990463,155862.224,155870.89999997616,155879.802,158897.261,8,400,,,
trial,html.Screen,4_10_0,2023-05-01T21:04:04.077Z,,0,1,,2572.5389999523177,response,ISIC_1727826.JPG,,ISIC_1496194.JPG,ISIC_1496194.JPG,false,0,keypress(z),500,161470.09999990463,161469.79999995232,158878.156,158888.59999990463,158897.261,161480.466,8,400,11,,ISIC_1727826.JPG
break,html.Screen,4_10_1,2023-05-01T21:04:04.078Z,,0,,,NaN,,,,,,false,,,,161471.09999990463,161470.79999995232,,161470.39999997616,,161480.466,8,400,,,
break_continue,html.Screen,4_10_2,2023-05-01T21:04:04.078Z,,0,,,NaN,,,,,,false,,,,161471.59999990463,161471.39999997616,,161471.29999995232,,161480.466,8,400,,,
sequence,flow.Sequence,4_10,2023-05-01T21:04:04.078Z,,0,,,2574.1389999761595,completion,,,,,false,,,,161471.69999992847,161471.39999997616,158878.156,158888.5,158897.261,161480.466,8,400,,,
trial,html.Screen,4_11_0,2023-05-01T21:04:07.370Z,,0,1,,3282.534000000014,response,ISIC_1944650.JPG,,ISIC_1175170.JPG,ISIC_1175170.JPG,false,0,keypress(z),500,164763.19999992847,164763,161463.097,161471.89999997616,161480.466,164773.485,8,400,12,,ISIC_1944650.JPG
break,html.Screen,4_11_1,2023-05-01T21:04:07.371Z,,0,,,NaN,,,,,,false,,,,164764.19999992847,164764,,164763.5,,164773.485,8,400,,,
break_continue,html.Screen,4_11_2,2023-05-01T21:04:07.371Z,,0,,,NaN,,,,,,false,,,,164764.69999992847,164764.5,,164764.39999997616,,164773.485,8,400,,,
sequence,flow.Sequence,4_11,2023-05-01T21:04:07.371Z,,0,,,3284.034000000014,completion,,,,,false,,,,164764.79999995232,164764.5,161463.097,161471.79999995232,161480.466,164773.485,8,400,,,
trial,html.Screen,4_12_0,2023-05-01T21:04:10.192Z,,0,1,,2811.515000000014,response,ISIC_0010416.JPG,,ISIC_9204678.JPG,ISIC_9204678.JPG,false,0,keypress(z),500,167585.19999992847,167585,164756.275,164765,164773.485,167595.642,8,400,13,,ISIC_0010416.JPG
break,html.Screen,4_12_1,2023-05-01T21:04:10.193Z,,0,,,NaN,,,,,,false,,,,167586.19999992847,167586,,167585.39999997616,,167595.642,8,400,,,
break_continue,html.Screen,4_12_2,2023-05-01T21:04:10.193Z,,0,,,NaN,,,,,,false,,,,167586.69999992847,167586.59999990463,,167586.5,,167595.642,8,400,,,
sequence,flow.Sequence,4_12,2023-05-01T21:04:10.193Z,,0,,,2813.1149999046465,completion,,,,,false,,,,167586.89999997616,167586.59999990463,164756.275,164764.89999997616,164773.485,167595.642,8,400,,,
trial,html.Screen,4_13_0,2023-05-01T21:04:13.392Z,,0,1,,3189.8580000000075,response,ISIC_0013719.JPG,,ISIC_0032759.JPG,ISIC_0032759.JPG,false,0,keypress(z),500,170785.79999995232,170785.5,167578.45,167587.09999990463,167595.642,170796.264,8,400,14,,ISIC_0013719.JPG
break,html.Screen,4_13_1,2023-05-01T21:04:13.393Z,,0,,,NaN,,,,,,false,,,,170786.79999995232,170786.59999990463,,170786,,170796.264,8,400,,,
break_continue,html.Screen,4_13_2,2023-05-01T21:04:13.394Z,,0,,,NaN,,,,,,false,,,,170787.69999992847,170787.5,,170786.89999997616,,170796.264,8,400,,,
sequence,flow.Sequence,4_13,2023-05-01T21:04:13.394Z,,0,,,3191.8580000000075,completion,,,,,false,,,,170787.89999997616,170787.5,167578.45,167587.09999990463,167595.642,170796.264,8,400,,,
trial,html.Screen,4_14_0,2023-05-01T21:04:16.100Z,,0,1,,2697.0359999523207,response,ISIC_0065796.JPG,,ISIC_0026401.JPG,ISIC_0065796.JPG,false,1,keypress(m),500,173493.5,173493.29999995232,170777.333,170788,170796.264,173503.619,8,400,15,,ISIC_0026401.JPG
break,html.Screen,4_14_1,2023-05-01T21:04:16.101Z,,0,,,NaN,,,,,,false,,,,173494.39999997616,173494.09999990463,,173493.69999992847,,173503.619,8,400,,,
break_continue,html.Screen,4_14_2,2023-05-01T21:04:16.101Z,,0,,,NaN,,,,,,false,,,,173494.69999992847,173494.69999992847,,173494.5,,173503.619,8,400,,,
sequence,flow.Sequence,4_14,2023-05-01T21:04:16.101Z,,0,,,2698.435999928479,completion,,,,,false,,,,173494.89999997616,173494.69999992847,170777.333,170787.89999997616,170796.264,173503.619,8,400,,,
trial,html.Screen,4_15_0,2023-05-01T21:04:20.860Z,,0,1,,4749.9809999046265,response,ISIC_0011215.JPG,,ISIC_5220698.JPG,ISIC_0011215.JPG,false,1,keypress(m),500,178253.89999997616,178253.59999990463,173485.95,173495,173503.619,178264.23,8,400,16,,ISIC_5220698.JPG
break,html.Screen,4_15_1,2023-05-01T21:04:20.861Z,,0,,,NaN,,,,,,false,,,,178254.79999995232,178254.59999990463,,178254,,178264.23,8,400,,,
break_continue,html.Screen,4_15_2,2023-05-01T21:04:20.862Z,,0,,,NaN,,,,,,false,,,,178255.19999992847,178255.09999990463,,178255,,178264.23,8,400,,,
sequence,flow.Sequence,4_15,2023-05-01T21:04:20.862Z,,0,,,4751.4809999046265,completion,,,,,false,,,,178255.39999997616,178255.09999990463,173485.95,173494.89999997616,173503.619,178264.23,8,400,,,
trial,html.Screen,4_16_0,2023-05-01T21:04:24.217Z,,0,1,,3346.469999928464,response,ISIC_0029672.JPG,,ISIC_3163773.JPG,ISIC_0029672.JPG,false,1,keypress(m),500,181610.89999997616,181610.69999992847,178246.17,178255.59999990463,178264.23,181621.081,8,400,17,,ISIC_3163773.JPG
break,html.Screen,4_16_1,2023-05-01T21:04:24.218Z,,0,,,NaN,,,,,,false,,,,181612,181611.69999992847,,181611.09999990463,,181621.081,8,400,,,
break_continue,html.Screen,4_16_2,2023-05-01T21:04:24.219Z,,0,,,NaN,,,,,,false,,,,181612.59999990463,181612.29999995232,,181612.09999990463,,181621.081,8,400,,,
sequence,flow.Sequence,4_16,2023-05-01T21:04:24.219Z,,0,,,3348.069999952306,completion,,,,,false,,,,181612.89999997616,181612.29999995232,178246.17,178255.59999990463,178264.23,181621.081,8,400,,,
trial,html.Screen,4_17_0,2023-05-01T21:04:26.719Z,,0,1,,2491.4189999999944,response,ISIC_4088444.JPG,,ISIC_5674396.JPG,ISIC_5674396.JPG,false,0,keypress(z),500,184112.69999992847,184112.5,181607.78,181613,181621.081,184122.772,8,400,18,,ISIC_4088444.JPG
break,html.Screen,4_17_1,2023-05-01T21:04:26.720Z,,0,,,NaN,,,,,,false,,,,184113.59999990463,184113.29999995232,,184112.89999997616,,184122.772,8,400,,,
break_continue,html.Screen,4_17_2,2023-05-01T21:04:26.720Z,,0,,,NaN,,,,,,false,,,,184114,184113.89999997616,,184113.79999995232,,184122.772,8,400,,,
sequence,flow.Sequence,4_17,2023-05-01T21:04:26.721Z,,0,,,2492.8189999761526,completion,,,,,false,,,,184114.09999990463,184113.89999997616,181607.78,181612.89999997616,181621.081,184122.772,8,400,,,
trial,html.Screen,4_18_0,2023-05-01T21:04:29.497Z,,0,1,,2767.127999976161,response,ISIC_0029970.JPG,,ISIC_1477990.JPG,ISIC_1477990.JPG,false,0,keypress(z),500,186890.29999995232,186889.89999997616,184103.49,184114.19999992847,184122.772,186900.515,8,400,19,,ISIC_0029970.JPG
break,html.Screen,4_18_1,2023-05-01T21:04:29.498Z,,0,,,NaN,,,,,,false,,,,186891.19999992847,186891,,186890.5,,186900.515,8,400,,,
break_continue,html.Screen,4_18_2,2023-05-01T21:04:29.498Z,,0,,,NaN,,,,,,false,,,,186891.69999992847,186891.59999990463,,186891.29999995232,,186900.515,8,400,,,
sequence,flow.Sequence,4_18,2023-05-01T21:04:29.498Z,,0,,,2768.8279999046354,completion,,,,,false,,,,186891.79999995232,186891.59999990463,184103.49,184114.19999992847,184122.772,186900.515,8,400,,,
trial,html.Screen,4_19_0,2023-05-01T21:04:32.975Z,,0,1,,3468.2849999523023,response,ISIC_0894785.JPG,,ISIC_2964397.JPG,ISIC_0894785.JPG,false,1,keypress(m),500,190368.89999997616,190368.79999995232,186882.274,186892,186900.515,190379.503,8,400,20,,ISIC_2964397.JPG
break,html.Screen,4_19_1,2023-05-01T21:04:32.976Z,,0,,,NaN,,,,,,false,,,,190369.89999997616,190369.69999992847,,190369.19999992847,,190379.503,8,400,,,
break_continue,html.Screen,4_19_2,2023-05-01T21:04:32.977Z,,0,,,NaN,,,,,,false,,,,190370.39999997616,190370.29999995232,,190370.09999990463,,190379.503,8,400,,,
sequence,flow.Sequence,4_19,2023-05-01T21:04:32.977Z,,0,,,3469.7849999523023,completion,,,,,false,,,,190370.5,190370.29999995232,186882.274,186891.89999997616,186900.515,190379.503,8,400,,,
trial,html.Screen,4_20_0,2023-05-01T21:04:35.966Z,,0,1,,2979.7969999523193,response,ISIC_7152347.JPG,,ISIC_0033710.JPG,ISIC_0033710.JPG,false,0,keypress(z),500,193359.69999992847,193359.29999995232,190354.557,190370.69999992847,190379.503,193370.055,8,400,21,,ISIC_7152347.JPG
break,html.Screen,4_20_1,2023-05-01T21:04:35.967Z,,0,,,NaN,,,,,,false,,,,193360.79999995232,193360.5,,193359.89999997616,,193370.055,8,400,,,
break_continue,html.Screen,4_20_2,2023-05-01T21:04:35.968Z,,0,,,NaN,,,,,,false,,,,193361.09999990463,193361.09999990463,,193360.89999997616,,193370.055,8,400,,,
sequence,flow.Sequence,4_20,2023-05-01T21:04:35.968Z,,0,,,2981.5969999046356,completion,,,,,false,,,,193361.39999997616,193361.09999990463,190354.557,190370.69999992847,190379.503,193370.055,8,400,,,
trial,html.Screen,4_21_0,2023-05-01T21:04:39.239Z,,0,1,,3262.445000000007,response,ISIC_8955135.JPG,,ISIC_3098750.JPG,ISIC_3098750.JPG,false,0,keypress(z),500,196632.79999995232,196632.5,193352.332,193361.5,193370.055,196642.972,8,400,22,,ISIC_8955135.JPG
break,html.Screen,4_21_1,2023-05-01T21:04:39.240Z,,0,,,NaN,,,,,,false,,,,196633.79999995232,196633.59999990463,,196633,,196642.972,8,400,,,
break_continue,html.Screen,4_21_2,2023-05-01T21:04:39.241Z,,0,,,NaN,,,,,,false,,,,196634.09999990463,196633.89999997616,,196633.79999995232,,196642.972,8,400,,,
sequence,flow.Sequence,4_21,2023-05-01T21:04:39.241Z,,0,,,3263.844999976165,completion,,,,,false,,,,196634.19999992847,196633.89999997616,193352.332,193361.5,193370.055,196642.972,8,400,,,
trial,html.Screen,4_22_0,2023-05-01T21:04:41.864Z,,0,1,,2614.8279999523074,response,ISIC_0633835.JPG,,ISIC_2729109.JPG,ISIC_0633835.JPG,false,1,keypress(m),500,199258,199257.79999995232,196624.874,196634.29999995232,196642.972,199268.248,8,400,23,,ISIC_2729109.JPG
break,html.Screen,4_22_1,2023-05-01T21:04:41.865Z,,0,,,NaN,,,,,,false,,,,199258.89999997616,199258.79999995232,,199258.19999992847,,199268.248,8,400,,,
break_continue,html.Screen,4_22_2,2023-05-01T21:04:41.866Z,,0,,,NaN,,,,,,false,,,,199259.39999997616,199259.29999995232,,199259.09999990463,,199268.248,8,400,,,
sequence,flow.Sequence,4_22,2023-05-01T21:04:41.866Z,,0,,,2616.3279999523074,completion,,,,,false,,,,199259.59999990463,199259.29999995232,196624.874,196634.29999995232,196642.972,199268.248,8,400,,,
trial,html.Screen,4_23_0,2023-05-01T21:04:44.907Z,,0,1,,3032.451999928482,response,ISIC_5247508.JPG,,ISIC_0063425.JPG,ISIC_5247508.JPG,false,1,keypress(m),500,202300.89999997616,202300.69999992847,199249.342,199259.69999992847,199268.248,202311.263,8,400,24,,ISIC_0063425.JPG
break,html.Screen,4_23_1,2023-05-01T21:04:44.908Z,,0,,,NaN,,,,,,false,,,,202301.89999997616,202301.59999990463,,202301.09999990463,,202311.263,8,400,,,
break_continue,html.Screen,4_23_2,2023-05-01T21:04:44.909Z,,0,,,NaN,,,,,,false,,,,202302.29999995232,202302.19999992847,,202302,,202311.263,8,400,,,
sequence,flow.Sequence,4_23,2023-05-01T21:04:44.909Z,,0,,,3033.951999928482,completion,,,,,false,,,,202302.5,202302.19999992847,199249.342,199259.59999990463,199268.248,202311.263,8,400,,,
trial,html.Screen,4_24_0,2023-05-01T21:04:48.513Z,,0,1,,3594.53699995231,response,ISIC_7424320.JPG,,ISIC_0025708.JPG,ISIC_7424320.JPG,false,1,keypress(m),500,205906.19999992847,205905.79999995232,202292.956,202302.69999992847,202311.263,205916.405,8,400,25,,ISIC_0025708.JPG
break,html.Screen,4_24_1,2023-05-01T21:04:48.513Z,,0,,,NaN,,,,,,false,,,,205907,205906.79999995232,,205906.29999995232,,205916.405,8,400,,,
break_continue,html.Screen,4_24_2,2023-05-01T21:04:48.514Z,,0,,,NaN,,,,,,false,,,,205907.5,205907.29999995232,,205907.09999990463,,205916.405,8,400,,,
sequence,flow.Sequence,4_24,2023-05-01T21:04:48.514Z,,0,,,3596.03699995231,completion,,,,,false,,,,205907.59999990463,205907.29999995232,202292.956,202302.59999990463,202311.263,205916.405,8,400,,,
trial,html.Screen,4_25_0,2023-05-01T21:04:51.265Z,,0,1,,2742.1949999046337,response,ISIC_6570611.JPG,,ISIC_4332846.JPG,ISIC_6570611.JPG,false,1,keypress(m),500,208658.89999997616,208658.59999990463,205898.783,205907.69999992847,205916.405,208669.145,8,400,26,,ISIC_4332846.JPG
break,html.Screen,4_25_1,2023-05-01T21:04:51.266Z,,0,,,NaN,,,,,,false,,,,208659.69999992847,208659.5,,208659,,208669.145,8,400,,,
break_continue,html.Screen,4_25_2,2023-05-01T21:04:51.267Z,,0,,,NaN,,,,,,false,,,,208660.09999990463,208660.09999990463,,208659.89999997616,,208669.145,8,400,,,
sequence,flow.Sequence,4_25,2023-05-01T21:04:51.267Z,,0,,,2743.6949999046337,completion,,,,,false,,,,208660.29999995232,208660.09999990463,205898.783,205907.69999992847,205916.405,208669.145,8,400,,,
trial,html.Screen,4_26_0,2023-05-01T21:04:57.801Z,,0,1,,6525.054999928485,response,ISIC_2911251.JPG,,ISIC_0062686.JPG,ISIC_2911251.JPG,false,1,keypress(m),500,215194.5,215194.19999992847,208651.547,208660.39999997616,208669.145,215204.776,8,400,27,,ISIC_0062686.JPG
break,html.Screen,4_26_1,2023-05-01T21:04:57.802Z,,0,,,NaN,,,,,,false,,,,215195.39999997616,215195.19999992847,,215194.79999995232,,215204.776,8,400,,,
break_continue,html.Screen,4_26_2,2023-05-01T21:04:57.803Z,,0,,,NaN,,,,,,false,,,,215195.89999997616,215195.79999995232,,215195.69999992847,,215204.776,8,400,,,
sequence,flow.Sequence,4_26,2023-05-01T21:04:57.803Z,,0,,,6526.654999952327,completion,,,,,false,,,,215196,215195.79999995232,208651.547,208660.29999995232,208669.145,215204.776,8,400,,,
trial,html.Screen,4_27_0,2023-05-01T21:05:00.888Z,,0,1,,3075.6239999761456,response,ISIC_2498064.JPG,,ISIC_0057362.JPG,ISIC_0057362.JPG,false,0,keypress(z),500,218280.69999992847,218280.39999997616,215184.814,215196.19999992847,215204.776,218290.95,8,400,28,,ISIC_2498064.JPG
break,html.Screen,4_27_1,2023-05-01T21:05:00.888Z,,0,,,NaN,,,,,,false,,,,218281.59999990463,218281.39999997616,,218280.89999997616,,218290.95,8,400,,,
break_continue,html.Screen,4_27_2,2023-05-01T21:05:00.889Z,,0,,,NaN,,,,,,false,,,,218282,218281.89999997616,,218281.69999992847,,218290.95,8,400,,,
sequence,flow.Sequence,4_27,2023-05-01T21:05:00.889Z,,0,,,3077.1239999761456,completion,,,,,false,,,,218282.19999992847,218281.89999997616,215184.814,215196.09999990463,215204.776,218290.95,8,400,,,
trial,html.Screen,4_28_0,2023-05-01T21:05:03.848Z,,0,1,,2949.4499999761465,response,ISIC_0011665.JPG,,ISIC_8108090.JPG,ISIC_0011665.JPG,false,1,keypress(m),500,221240.89999997616,221240.39999997616,218275.504,218282.29999995232,218290.95,221250.986,8,400,29,,ISIC_8108090.JPG
break,html.Screen,4_28_1,2023-05-01T21:05:03.849Z,,0,,,NaN,,,,,,false,,,,221241.79999995232,221241.59999990463,,221241.09999990463,,221250.986,8,400,,,
break_continue,html.Screen,4_28_2,2023-05-01T21:05:03.849Z,,0,,,NaN,,,,,,false,,,,221242.19999992847,221242.09999990463,,221242,,221250.986,8,400,,,
sequence,flow.Sequence,4_28,2023-05-01T21:05:03.849Z,,0,,,2951.149999904621,completion,,,,,false,,,,221242.39999997616,221242.09999990463,218275.504,218282.29999995232,218290.95,221250.986,8,400,,,
trial,html.Screen,4_29_0,2023-05-01T21:05:06.599Z,,0,1,,2740.9139999761537,response,ISIC_0046345.JPG,,ISIC_0067696.JPG,ISIC_0067696.JPG,false,0,keypress(z),500,223992.09999990463,223991.89999997616,221232.701,221242.5,221250.986,224001.983,8,400,30,,ISIC_0046345.JPG
break,html.Screen,4_29_1,2023-05-01T21:05:06.600Z,,0,,,NaN,,,,,,false,,,,223992.79999995232,223992.5,,223992.19999992847,,224001.983,8,400,,,
break_continue,html.Screen,4_29_2,2023-05-01T21:05:06.600Z,,0,,,NaN,,,,,,false,,,,223993.09999990463,223993,,223992.89999997616,,224001.983,8,400,,,
sequence,flow.Sequence,4_29,2023-05-01T21:05:06.600Z,,0,,,2742.0139999999956,completion,,,,,false,,,,223993.19999992847,223993,221232.701,221242.39999997616,221250.986,224001.983,8,400,,,
trial,html.Screen,4_30_0,2023-05-01T21:05:09.538Z,,0,1,,2929.316999952309,response,ISIC_0024527.JPG,,ISIC_3691320.JPG,ISIC_3691320.JPG,false,0,keypress(z),500,226931.59999990463,226931.29999995232,223984.344,223993.29999995232,224001.983,226941.934,8,400,31,,ISIC_0024527.JPG
break,html.Screen,4_30_1,2023-05-01T21:05:09.539Z,,0,,,NaN,,,,,,false,,,,226932.39999997616,226932.19999992847,,226931.79999995232,,226941.934,8,400,,,
break_continue,html.Screen,4_30_2,2023-05-01T21:05:09.540Z,,0,,,NaN,,,,,,false,,,,226932.79999995232,226932.59999990463,,226932.5,,226941.934,8,400,,,
sequence,flow.Sequence,4_30,2023-05-01T21:05:09.540Z,,0,,,2930.616999904625,completion,,,,,false,,,,226932.89999997616,226932.59999990463,223984.344,223993.19999992847,224001.983,226941.934,8,400,,,
trial,html.Screen,4_31_0,2023-05-01T21:05:12.190Z,,0,1,,2640.865999952308,response,ISIC_0024900.JPG,,ISIC_0062576.JPG,ISIC_0024900.JPG,false,1,keypress(m),500,229583.19999992847,229582.79999995232,226924.19,226933.09999990463,226941.934,229586.899,8,400,32,,ISIC_0062576.JPG
break,html.Screen,4_31_1,2023-05-01T21:05:12.191Z,,0,,,NaN,,,,,,false,,,,229584.09999990463,229583.79999995232,,229583.39999997616,,229586.899,8,400,,,
break_continue,html.Screen,4_31_2,2023-05-01T21:05:12.191Z,,0,,,NaN,,,,,,false,,,,229584.39999997616,229584.29999995232,,229584.19999992847,,229586.899,8,400,,,
sequence,flow.Sequence,4_31,2023-05-01T21:05:12.191Z,,0,,,2642.365999952308,completion,,,,,false,,,,229584.59999990463,229584.29999995232,226924.19,226933,226941.934,229586.899,8,400,,,
trial,html.Screen,4_32_0,2023-05-01T21:05:14.958Z,,0,1,,2764.100999999995,response,ISIC_1784255.JPG,,ISIC_7242312.JPG,ISIC_7242312.JPG,false,0,keypress(z),500,232351.39999997616,232351,229569.447,229584.69999992847,229586.899,232361.542,8,400,33,,ISIC_1784255.JPG
break,html.Screen,4_32_1,2023-05-01T21:05:14.959Z,,0,,,NaN,,,,,,false,,,,232352.19999992847,232352,,232351.5,,232361.542,8,400,,,
break_continue,html.Screen,4_32_2,2023-05-01T21:05:14.960Z,,0,,,NaN,,,,,,false,,,,232352.69999992847,232352.59999990463,,232352.39999997616,,232361.542,8,400,,,
sequence,flow.Sequence,4_32,2023-05-01T21:05:14.960Z,,0,,,2765.7009999046277,completion,,,,,false,,,,232352.79999995232,232352.59999990463,229569.447,229584.69999992847,229586.899,232361.542,8,400,,,
trial,html.Screen,4_33_0,2023-05-01T21:05:17.584Z,,0,1,,2615.557999904646,response,ISIC_9756858.JPG,,ISIC_1265755.JPG,ISIC_1265755.JPG,false,0,keypress(z),500,234977.39999997616,234977.09999990463,232342.911,232352.89999997616,232361.542,234987.665,8,400,34,,ISIC_9756858.JPG
break,html.Screen,4_33_1,2023-05-01T21:05:17.585Z,,0,,,NaN,,,,,,false,,,,234978.19999992847,234978.09999990463,,234977.59999990463,,234987.665,8,400,,,
break_continue,html.Screen,4_33_2,2023-05-01T21:05:17.586Z,,0,,,NaN,,,,,,false,,,,234978.69999992847,234978.59999990463,,234978.5,,234987.665,8,400,,,
sequence,flow.Sequence,4_33,2023-05-01T21:05:17.586Z,,0,,,2617.057999904646,completion,,,,,false,,,,234978.89999997616,234978.59999990463,232342.911,232352.89999997616,232361.542,234987.665,8,400,,,
trial,html.Screen,4_34_0,2023-05-01T21:05:21.054Z,,0,1,,3459.0349999284663,response,ISIC_9965754.JPG,,ISIC_0072748.JPG,ISIC_0072748.JPG,false,0,keypress(z),500,238446.89999997616,238446.69999992847,234971.009,234979,234987.665,238457.432,8,400,35,,ISIC_9965754.JPG
break,html.Screen,4_34_1,2023-05-01T21:05:21.055Z,,0,,,NaN,,,,,,false,,,,238448.09999990463,238447.79999995232,,238447.19999992847,,238457.432,8,400,,,
break_continue,html.Screen,4_34_2,2023-05-01T21:05:21.055Z,,0,,,NaN,,,,,,false,,,,238448.5,238448.39999997616,,238448.19999992847,,238457.432,8,400,,,
sequence,flow.Sequence,4_34,2023-05-01T21:05:21.056Z,,0,,,3460.73499997615,completion,,,,,false,,,,238448.59999990463,238448.39999997616,234971.009,234979,234987.665,238457.432,8,400,,,
trial,html.Screen,4_35_0,2023-05-01T21:05:23.787Z,,0,1,,2722.3679999523156,response,ISIC_4034644.JPG,,ISIC_7915065.JPG,ISIC_4034644.JPG,false,1,keypress(m),500,241180,241179.79999995232,238445.357,238448.69999992847,238457.432,241190.318,8,400,36,,ISIC_7915065.JPG
break,html.Screen,4_35_1,2023-05-01T21:05:23.788Z,,0,,,NaN,,,,,,false,,,,241181,241180.79999995232,,241180.29999995232,,241190.318,8,400,,,
break_continue,html.Screen,4_35_2,2023-05-01T21:05:23.788Z,,0,,,NaN,,,,,,false,,,,241181.39999997616,241181.19999992847,,241181.19999992847,,241190.318,8,400,,,
sequence,flow.Sequence,4_35,2023-05-01T21:05:23.788Z,,0,,,2723.7679999284737,completion,,,,,false,,,,241181.59999990463,241181.19999992847,238445.357,238448.69999992847,238457.432,241190.318,8,400,,,
trial,html.Screen,4_36_0,2023-05-01T21:05:26.981Z,,0,1,,3183.381999928475,response,ISIC_6383486.JPG,,ISIC_0012865.JPG,ISIC_0012865.JPG,false,0,keypress(z),500,244374,244373.69999992847,241172.897,241181.69999992847,241190.318,244384.419,8,400,37,,ISIC_6383486.JPG
break,html.Screen,4_36_1,2023-05-01T21:05:26.982Z,,0,,,NaN,,,,,,false,,,,244374.89999997616,244374.79999995232,,244374.29999995232,,244384.419,8,400,,,
break_continue,html.Screen,4_36_2,2023-05-01T21:05:26.982Z,,0,,,NaN,,,,,,false,,,,244375.39999997616,244375.29999995232,,244375.09999990463,,244384.419,8,400,,,
sequence,flow.Sequence,4_36,2023-05-01T21:05:26.982Z,,0,,,3184.981999952317,completion,,,,,false,,,,244375.59999990463,244375.29999995232,241172.897,241181.59999990463,241190.318,244384.419,8,400,,,
trial,html.Screen,4_37_0,2023-05-01T21:05:31.031Z,,0,1,,4039.880999952322,response,ISIC_5751956.JPG,,ISIC_0032690.JPG,ISIC_5751956.JPG,false,1,keypress(m),500,248424.59999990463,248424.29999995232,244365.98,244375.69999992847,244384.419,248434.706,8,400,38,,ISIC_0032690.JPG
break,html.Screen,4_37_1,2023-05-01T21:05:31.032Z,,0,,,NaN,,,,,,false,,,,248425.5,248425.39999997616,,248424.79999995232,,248434.706,8,400,,,
break_continue,html.Screen,4_37_2,2023-05-01T21:05:31.033Z,,0,,,NaN,,,,,,false,,,,248425.89999997616,248425.79999995232,,248425.69999992847,,248434.706,8,400,,,
sequence,flow.Sequence,4_37,2023-05-01T21:05:31.033Z,,0,,,4041.380999952322,completion,,,,,false,,,,248426.09999990463,248425.79999995232,244365.98,244375.59999990463,244384.419,248434.706,8,400,,,
trial,html.Screen,4_38_0,2023-05-01T21:05:33.755Z,,0,1,,2713.393999904627,response,ISIC_2266857.JPG,,ISIC_0028061.JPG,ISIC_2266857.JPG,false,1,keypress(m),500,251148.29999995232,251148.09999990463,248418.127,248426.19999992847,248434.706,251158.642,8,400,39,,ISIC_0028061.JPG
break,html.Screen,4_38_1,2023-05-01T21:05:33.756Z,,0,,,NaN,,,,,,false,,,,251149.29999995232,251149,,251148.5,,251158.642,8,400,,,
break_continue,html.Screen,4_38_2,2023-05-01T21:05:33.757Z,,0,,,NaN,,,,,,false,,,,251149.79999995232,251149.69999992847,,251149.5,,251158.642,8,400,,,
sequence,flow.Sequence,4_38,2023-05-01T21:05:33.757Z,,0,,,2714.993999928469,completion,,,,,false,,,,251150,251149.69999992847,248418.127,248426.09999990463,248434.706,251158.642,8,400,,,
trial,html.Screen,4_39_0,2023-05-01T21:05:36.247Z,,0,1,,2481.3580000000075,response,ISIC_0261253.JPG,,ISIC_9407667.JPG,ISIC_0261253.JPG,false,1,keypress(m),500,253640.29999995232,253640,251141.067,251150.09999990463,251158.642,253650.478,8,400,40,,ISIC_9407667.JPG
break,html.Screen,4_39_1,2023-05-01T21:05:36.248Z,,0,,,NaN,,,,,,false,,,,253641.19999992847,253640.89999997616,,253640.5,,253650.478,8,400,,,
break_continue,html.Screen,4_39_2,2023-05-01T21:05:36.249Z,,0,,,NaN,,,,,,false,,,,253641.59999990463,253641.5,,253641.29999995232,,253650.478,8,400,,,
sequence,flow.Sequence,4_39,2023-05-01T21:05:36.249Z,,0,,,2482.8580000000075,completion,,,,,false,,,,253641.79999995232,253641.5,251141.067,251150.09999990463,251158.642,253650.478,8,400,,,
trial,html.Screen,4_40_0,2023-05-01T21:05:38.823Z,,0,1,,2565.521999999997,response,ISIC_1974281.JPG,,ISIC_7933945.JPG,ISIC_7933945.JPG,false,0,keypress(z),500,256216.19999992847,256216,253631.148,253642,253650.478,256226.62,8,400,41,,ISIC_1974281.JPG
break,html.Screen,4_40_1,2023-05-01T21:05:38.824Z,,0,,,NaN,,,,,,false,,,,256217.29999995232,256217,,256216.39999997616,,256226.62,8,400,,,
break_continue,html.Screen,4_40_2,2023-05-01T21:05:38.825Z,,0,,,NaN,,,,,,false,,,,256217.69999992847,256217.59999990463,,256217.39999997616,,256226.62,8,400,,,
sequence,flow.Sequence,4_40,2023-05-01T21:05:38.825Z,,0,,,2567.12199990463,completion,,,,,false,,,,256217.89999997616,256217.59999990463,253631.148,253641.89999997616,253650.478,256226.62,8,400,,,
trial,html.Screen,4_41_0,2023-05-01T21:05:41.257Z,,0,1,,2423.679999952321,response,ISIC_0032960.JPG,,ISIC_0071132.JPG,ISIC_0032960.JPG,false,1,keypress(m),500,258650.59999990463,258650.29999995232,256210.014,256218.09999990463,256226.62,258668.277,8,400,42,,ISIC_0071132.JPG
break,html.Screen,4_41_1,2023-05-01T21:05:41.258Z,,0,,,NaN,,,,,,false,,,,258651.5,258651.29999995232,,258650.79999995232,,258668.277,8,400,,,
break_continue,html.Screen,4_41_2,2023-05-01T21:05:41.259Z,,0,,,NaN,,,,,,false,,,,258651.89999997616,258651.79999995232,,258651.59999990463,,258668.277,8,400,,,
sequence,flow.Sequence,4_41,2023-05-01T21:05:41.259Z,,0,,,2425.179999952321,completion,,,,,false,,,,258652.09999990463,258651.79999995232,256210.014,256218,256226.62,258668.277,8,400,,,
trial,html.Screen,4_42_0,2023-05-01T21:05:43.940Z,,0,1,,2664.222999999998,response,ISIC_0030259.JPG,,ISIC_0014527.JPG,ISIC_0014527.JPG,false,0,keypress(z),500,261332.89999997616,261332.5,258651.511,258652.29999995232,258668.277,261343.237,8,400,43,,ISIC_0030259.JPG
break,html.Screen,4_42_1,2023-05-01T21:05:43.941Z,,0,,,NaN,,,,,,false,,,,261333.79999995232,261333.69999992847,,261333.19999992847,,261343.237,8,400,,,
break_continue,html.Screen,4_42_2,2023-05-01T21:05:43.941Z,,0,,,NaN,,,,,,false,,,,261334.39999997616,261334.19999992847,,261334,,261343.237,8,400,,,
sequence,flow.Sequence,4_42,2023-05-01T21:05:43.942Z,,0,,,2665.9229999284726,completion,,,,,false,,,,261334.69999992847,261334.19999992847,258651.511,258652.19999992847,258668.277,261343.237,8,400,,,
trial,html.Screen,4_43_0,2023-05-01T21:05:46.472Z,,0,1,,2521.362999904639,response,ISIC_0000349.JPG,,ISIC_0010017.JPG,ISIC_0010017.JPG,false,0,keypress(z),500,263864.7999999523,263864.59999990463,261326.556,261334.79999995232,261343.237,263875.123,8,400,44,,ISIC_0000349.JPG
break,html.Screen,4_43_1,2023-05-01T21:05:46.473Z,,0,,,NaN,,,,,,false,,,,263865.6999999285,263865.39999997616,,263865,,263875.123,8,400,,,
break_continue,html.Screen,4_43_2,2023-05-01T21:05:46.473Z,,0,,,NaN,,,,,,false,,,,263866.1999999285,263866,,263865.7999999523,,263875.123,8,400,,,
sequence,flow.Sequence,4_43,2023-05-01T21:05:46.473Z,,0,,,2522.7630000000063,completion,,,,,false,,,,263866.2999999523,263866,261326.556,261334.79999995232,261343.237,263875.123,8,400,,,
trial,html.Screen,4_44_0,2023-05-01T21:05:48.896Z,,0,1,,2413.676999952295,response,ISIC_1048077.JPG,,ISIC_0059722.JPG,ISIC_1048077.JPG,false,1,keypress(m),500,266289.1999999285,266288.7999999523,263856.801,263866.39999997616,263875.123,266310.264,8,400,45,,ISIC_0059722.JPG
break,html.Screen,4_44_1,2023-05-01T21:05:48.897Z,,0,,,NaN,,,,,,false,,,,266289.7999999523,266289.6999999285,,266289.2999999523,,266310.264,8,400,,,
break_continue,html.Screen,4_44_2,2023-05-01T21:05:48.897Z,,0,,,NaN,,,,,,false,,,,266290.1999999285,266290,,266289.89999997616,,266310.264,8,400,,,
sequence,flow.Sequence,4_44,2023-05-01T21:05:48.897Z,,0,,,2414.8769999999786,completion,,,,,false,,,,266290.2999999523,266290,263856.801,263866.39999997616,263875.123,266310.264,8,400,,,
trial,html.Screen,4_45_0,2023-05-01T21:05:51.343Z,,0,1,,2425.6359999761335,response,ISIC_0014428.JPG,,ISIC_9140779.JPG,ISIC_9140779.JPG,false,0,keypress(z),500,268736,268735.89999997616,266293.811,266290.39999997616,266310.264,268759.854,8,400,46,,ISIC_0014428.JPG
break,html.Screen,4_45_1,2023-05-01T21:05:51.344Z,,0,,,NaN,,,,,,false,,,,268736.89999997616,268736.6999999285,,268736.2999999523,,268759.854,8,400,,,
break_continue,html.Screen,4_45_2,2023-05-01T21:05:51.344Z,,0,,,NaN,,,,,,false,,,,268737.2999999523,268737.09999990463,,268737,,268759.854,8,400,,,
sequence,flow.Sequence,4_45,2023-05-01T21:05:51.344Z,,0,,,2426.835999904608,completion,,,,,false,,,,268737.2999999523,268737.09999990463,266293.811,266290.39999997616,266310.264,268759.854,8,400,,,
trial,html.Screen,4_46_0,2023-05-01T21:05:55.049Z,,0,1,,3682.045999976166,response,ISIC_0054941.JPG,,ISIC_1004416.JPG,ISIC_1004416.JPG,false,0,keypress(z),500,272442.1999999285,272441.89999997616,268742.979,268737.5,268759.854,272452.221,8,400,47,,ISIC_0054941.JPG
break,html.Screen,4_46_1,2023-05-01T21:05:55.050Z,,0,,,NaN,,,,,,false,,,,272443.59999990463,272442.89999997616,,272442.39999997616,,272452.221,8,400,,,
break_continue,html.Screen,4_46_2,2023-05-01T21:05:55.051Z,,0,,,NaN,,,,,,false,,,,272443.89999997616,272443.7999999523,,272443.6999999285,,272452.221,8,400,,,
sequence,flow.Sequence,4_46,2023-05-01T21:05:55.051Z,,0,,,3683.945999952324,completion,,,,,false,,,,272444.09999990463,272443.7999999523,268742.979,268737.5,268759.854,272452.221,8,400,,,
trial,html.Screen,4_47_0,2023-05-01T21:05:57.994Z,,0,1,,2934.978999928455,response,ISIC_9716860.JPG,,ISIC_0031543.JPG,ISIC_0031543.JPG,false,0,keypress(z),500,275387.5,275387.1999999285,272434.492,272444.1999999285,272452.221,275397.522,8,400,48,,ISIC_9716860.JPG
break,html.Screen,4_47_1,2023-05-01T21:05:57.995Z,,0,,,NaN,,,,,,false,,,,275388.5,275388.1999999285,,275387.6999999285,,275397.522,8,400,,,
break_continue,html.Screen,4_47_2,2023-05-01T21:05:57.996Z,,0,,,NaN,,,,,,false,,,,275389,275388.7999999523,,275388.6999999285,,275397.522,8,400,,,
sequence,flow.Sequence,4_47,2023-05-01T21:05:57.996Z,,0,,,2936.5789999522967,completion,,,,,false,,,,275389.1999999285,275388.7999999523,272434.492,272444.1999999285,272452.221,275397.522,8,400,,,
trial,html.Screen,4_48_0,2023-05-01T21:06:00.468Z,,0,1,,2463.777999952319,response,ISIC_3973431.JPG,,ISIC_0070254.JPG,ISIC_0070254.JPG,false,0,keypress(z),500,277861.59999990463,277861.2999999523,275379.705,275389.39999997616,275397.522,277871.648,8,400,49,,ISIC_3973431.JPG
break,html.Screen,4_48_1,2023-05-01T21:06:00.469Z,,0,,,NaN,,,,,,false,,,,277862.5,277862.2999999523,,277861.7999999523,,277871.648,8,400,,,
break_continue,html.Screen,4_48_2,2023-05-01T21:06:00.470Z,,0,,,NaN,,,,,,false,,,,277863,277862.89999997616,,277862.6999999285,,277871.648,8,400,,,
sequence,flow.Sequence,4_48,2023-05-01T21:06:00.470Z,,0,,,2465.377999976161,completion,,,,,false,,,,277863.2999999523,277862.89999997616,275379.705,275389.2999999523,275397.522,277871.648,8,400,,,
trial,html.Screen,4_49_0,2023-05-01T21:06:03.590Z,,0,1,,3111.2519999761716,response,ISIC_3495799.JPG,,ISIC_2119925.JPG,ISIC_2119925.JPG,false,0,keypress(z),500,280983.1999999285,280982.89999997616,277852.87,277863.5,277871.648,280993.407,8,400,50,,ISIC_3495799.JPG
break,html.Screen,4_49_1,2023-05-01T21:06:08.585Z,,0,,,5000.093999999983,timeout,,,,,false,,,,285977.7999999523,285976.908,280980.766,280983.39999997616,280993.407,285993.501,8,400,,,
break_continue,html.Screen,4_49_2,2023-05-01T21:06:10.623Z,,0,,,2010.6989999284851,response,,,,,false,continue,keypress(Space),,288016,288004.1999999285,285976.908,285978,285993.501,288026.434,8,400,,,
sequence,flow.Sequence,4_49,2023-05-01T21:06:10.623Z,,0,,,10132.551999928488,completion,,,,,false,,,,288016.1999999285,288004.1999999285,277852.87,277863.39999997616,277871.648,288026.434,8,400,,,
trial,html.Screen,4_50_0,2023-05-01T21:06:13.424Z,,0,2,,2790.365999952308,response,ISIC_8086526.JPG,,ISIC_8368872.JPG,ISIC_8368872.JPG,false,0,keypress(z),500,290816.89999997616,290816.7999999523,288010.043,288016.39999997616,288026.434,290827.354,8,400,1,,ISIC_8086526.JPG
break,html.Screen,4_50_1,2023-05-01T21:06:13.425Z,,0,,,NaN,,,,,,false,,,,290817.89999997616,290817.5,,290817.1999999285,,290827.354,8,400,,,
break_continue,html.Screen,4_50_2,2023-05-01T21:06:13.425Z,,0,,,NaN,,,,,,false,,,,290818.2999999523,290818.09999990463,,290818,,290827.354,8,400,,,
sequence,flow.Sequence,4_50,2023-05-01T21:06:13.425Z,,0,,,2791.665999904624,completion,,,,,false,,,,290818.39999997616,290818.09999990463,288010.043,288016.2999999523,288026.434,290827.354,8,400,,,
trial,html.Screen,4_51_0,2023-05-01T21:06:16.938Z,,0,2,,3503.7459999046405,response,ISIC_0002347.JPG,,ISIC_8742407.JPG,ISIC_0002347.JPG,false,1,keypress(m),500,294331.5,294331.09999990463,290809.262,290818.5,290827.354,294341.715,8,400,2,,ISIC_8742407.JPG
break,html.Screen,4_51_1,2023-05-01T21:06:16.939Z,,0,,,NaN,,,,,,false,,,,294332.39999997616,294332.1999999285,,294331.6999999285,,294341.715,8,400,,,
break_continue,html.Screen,4_51_2,2023-05-01T21:06:16.940Z,,0,,,NaN,,,,,,false,,,,294332.89999997616,294332.59999990463,,294332.5,,294341.715,8,400,,,
sequence,flow.Sequence,4_51,2023-05-01T21:06:16.940Z,,0,,,3505.2459999046405,completion,,,,,false,,,,294333,294332.59999990463,290809.262,290818.39999997616,290827.354,294341.715,8,400,,,
trial,html.Screen,4_52_0,2023-05-01T21:06:19.582Z,,0,2,,2633.0849999522907,response,ISIC_0010124.JPG,,ISIC_2253931.JPG,ISIC_2253931.JPG,false,0,keypress(z),500,296975.09999990463,296974.7999999523,294323.944,294333.09999990463,294341.715,296985.347,8,400,3,,ISIC_0010124.JPG
break,html.Screen,4_52_1,2023-05-01T21:06:19.583Z,,0,,,NaN,,,,,,false,,,,296976,296975.89999997616,,296975.39999997616,,296985.347,8,400,,,
break_continue,html.Screen,4_52_2,2023-05-01T21:06:19.583Z,,0,,,NaN,,,,,,false,,,,296976.5,296976.2999999523,,296976.1999999285,,296985.347,8,400,,,
sequence,flow.Sequence,4_52,2023-05-01T21:06:19.583Z,,0,,,2634.5849999522907,completion,,,,,false,,,,296976.59999990463,296976.2999999523,294323.944,294333.09999990463,294341.715,296985.347,8,400,,,
trial,html.Screen,4_53_0,2023-05-01T21:06:22.626Z,,0,2,,3033.9529999523074,response,ISIC_0028239.JPG,,ISIC_0482585.JPG,ISIC_0482585.JPG,false,0,keypress(z),500,300019.59999990463,300019.2999999523,296967.61,296976.7999999523,296985.347,300029.797,8,400,4,,ISIC_0028239.JPG
break,html.Screen,4_53_1,2023-05-01T21:06:22.627Z,,0,,,NaN,,,,,,false,,,,300020.5,300020.2999999523,,300019.7999999523,,300029.797,8,400,,,
break_continue,html.Screen,4_53_2,2023-05-01T21:06:22.628Z,,0,,,NaN,,,,,,false,,,,300020.7999999523,300020.6999999285,,300020.59999990463,,300029.797,8,400,,,
sequence,flow.Sequence,4_53,2023-05-01T21:06:22.628Z,,0,,,3035.3529999284656,completion,,,,,false,,,,300021,300020.6999999285,296967.61,296976.6999999285,296985.347,300029.797,8,400,,,
trial,html.Screen,4_54_0,2023-05-01T21:06:25.225Z,,0,2,,2587.802999904612,response,ISIC_4810485.JPG,,ISIC_0011615.JPG,ISIC_4810485.JPG,false,1,keypress(m),500,302617.89999997616,302617.59999990463,300011.466,300021.09999990463,300029.797,302628.269,8,400,5,,ISIC_0011615.JPG
break,html.Screen,4_54_1,2023-05-01T21:06:25.225Z,,0,,,NaN,,,,,,false,,,,302618.6999999285,302618.5,,302618.09999990463,,302628.269,8,400,,,
break_continue,html.Screen,4_54_2,2023-05-01T21:06:25.226Z,,0,,,NaN,,,,,,false,,,,302619.09999990463,302618.89999997616,,302618.7999999523,,302628.269,8,400,,,
sequence,flow.Sequence,4_54,2023-05-01T21:06:25.226Z,,0,,,2589.1029999761377,completion,,,,,false,,,,302619.1999999285,302618.89999997616,300011.466,300021.09999990463,300029.797,302628.269,8,400,,,
trial,html.Screen,4_55_0,2023-05-01T21:06:28.657Z,,0,2,,3422.030999952345,response,ISIC_0071754.JPG,,ISIC_0011446.JPG,ISIC_0011446.JPG,false,0,keypress(z),500,306050.5,306050.2999999523,302603.376,302619.2999999523,302628.269,306060.866,8,400,6,,ISIC_0071754.JPG
break,html.Screen,4_55_1,2023-05-01T21:06:28.658Z,,0,,,NaN,,,,,,false,,,,306051.5,306051.2999999523,,306050.7999999523,,306060.866,8,400,,,
break_continue,html.Screen,4_55_2,2023-05-01T21:06:28.659Z,,0,,,NaN,,,,,,false,,,,306052,306051.7999999523,,306051.59999990463,,306060.866,8,400,,,
sequence,flow.Sequence,4_55,2023-05-01T21:06:28.659Z,,0,,,3423.530999952345,completion,,,,,false,,,,306052.1999999285,306051.7999999523,302603.376,302619.2999999523,302628.269,306060.866,8,400,,,
trial,html.Screen,4_56_0,2023-05-01T21:06:31.456Z,,0,2,,2788.2339999046526,response,ISIC_3919752.JPG,,ISIC_0013988.JPG,ISIC_0013988.JPG,false,0,keypress(z),500,308849.39999997616,308849.09999990463,306047.064,306052.39999997616,306060.866,308859.635,8,400,7,,ISIC_3919752.JPG
break,html.Screen,4_56_1,2023-05-01T21:06:31.457Z,,0,,,NaN,,,,,,false,,,,308850.2999999523,308850,,308849.59999990463,,308859.635,8,400,,,
break_continue,html.Screen,4_56_2,2023-05-01T21:06:31.457Z,,0,,,NaN,,,,,,false,,,,308850.6999999285,308850.5,,308850.39999997616,,308859.635,8,400,,,
sequence,flow.Sequence,4_56,2023-05-01T21:06:31.458Z,,0,,,2789.63400000002,completion,,,,,false,,,,308850.7999999523,308850.5,306047.064,306052.39999997616,306060.866,308859.635,8,400,,,
trial,html.Screen,4_57_0,2023-05-01T21:06:34.812Z,,0,2,,3345.564999928465,response,ISIC_0006757.JPG,,ISIC_0201767.JPG,ISIC_0201767.JPG,false,0,keypress(z),500,312205.39999997616,312205.1999999285,308842.026,308850.89999997616,308859.635,312215.092,8,400,8,,ISIC_0006757.JPG
break,html.Screen,4_57_1,2023-05-01T21:06:34.813Z,,0,,,NaN,,,,,,false,,,,312206.1999999285,312206,,312205.59999990463,,312215.092,8,400,,,
break_continue,html.Screen,4_57_2,2023-05-01T21:06:34.813Z,,0,,,NaN,,,,,,false,,,,312206.39999997616,312206.39999997616,,312206.2999999523,,312215.092,8,400,,,
sequence,flow.Sequence,4_57,2023-05-01T21:06:34.813Z,,0,,,3346.764999976149,completion,,,,,false,,,,312206.59999990463,312206.39999997616,308842.026,308850.89999997616,308859.635,312215.092,8,400,,,
trial,html.Screen,4_58_0,2023-05-01T21:06:37.898Z,,0,2,,3075.807999976154,response,ISIC_1788979.JPG,,ISIC_2980578.JPG,ISIC_2980578.JPG,false,0,keypress(z),500,315291.1999999285,315290.89999997616,312197.116,312206.59999990463,312215.092,315301.409,8,400,9,,ISIC_1788979.JPG
break,html.Screen,4_58_1,2023-05-01T21:06:37.899Z,,0,,,NaN,,,,,,false,,,,315292.09999990463,315291.89999997616,,315291.5,,315301.409,8,400,,,
break_continue,html.Screen,4_58_2,2023-05-01T21:06:37.899Z,,0,,,NaN,,,,,,false,,,,315292.59999990463,315292.5,,315292.2999999523,,315301.409,8,400,,,
sequence,flow.Sequence,4_58,2023-05-01T21:06:37.900Z,,0,,,3077.407999999996,completion,,,,,false,,,,315292.7999999523,315292.5,312197.116,312206.59999990463,312215.092,315301.409,8,400,,,
trial,html.Screen,4_59_0,2023-05-01T21:06:41.115Z,,0,2,,3206.890999952331,response,ISIC_0000162.JPG,,ISIC_6754835.JPG,ISIC_6754835.JPG,false,0,keypress(z),500,318508.59999990463,318508.2999999523,315281.725,315292.89999997616,315301.409,318518.896,8,400,10,,ISIC_0000162.JPG
break,html.Screen,4_59_1,2023-05-01T21:06:41.116Z,,0,,,NaN,,,,,,false,,,,318509.59999990463,318509.2999999523,,318508.89999997616,,318518.896,8,400,,,
break_continue,html.Screen,4_59_2,2023-05-01T21:06:41.117Z,,0,,,NaN,,,,,,false,,,,318509.89999997616,318509.7999999523,,318509.6999999285,,318518.896,8,400,,,
sequence,flow.Sequence,4_59,2023-05-01T21:06:41.117Z,,0,,,3208.390999952331,completion,,,,,false,,,,318510.09999990463,318509.7999999523,315281.725,315292.7999999523,315301.409,318518.896,8,400,,,
trial,html.Screen,4_60_0,2023-05-01T21:06:44.130Z,,0,2,,3004.2039999046247,response,ISIC_0032342.JPG,,ISIC_0340453.JPG,ISIC_0032342.JPG,false,1,keypress(m),500,321523.2999999523,321523.09999990463,318500.629,318510.1999999285,318518.896,321533.85,8,400,11,,ISIC_0340453.JPG
break,html.Screen,4_60_1,2023-05-01T21:06:44.131Z,,0,,,NaN,,,,,,false,,,,321524.2999999523,321524.09999990463,,321523.5,,321533.85,8,400,,,
break_continue,html.Screen,4_60_2,2023-05-01T21:06:44.132Z,,0,,,NaN,,,,,,false,,,,321525,321524.59999990463,,321524.39999997616,,321533.85,8,400,,,
sequence,flow.Sequence,4_60,2023-05-01T21:06:44.132Z,,0,,,3005.7039999046247,completion,,,,,false,,,,321525.09999990463,321524.59999990463,318500.629,318510.1999999285,318518.896,321533.85,8,400,,,
trial,html.Screen,4_61_0,2023-05-01T21:06:47.675Z,,0,2,,3533.8499999284977,response,ISIC_5974838.JPG,,ISIC_0026897.JPG,ISIC_5974838.JPG,false,1,keypress(m),500,325067.89999997616,325067.6999999285,321515.81,321525.2999999523,321533.85,325077.936,8,400,12,,ISIC_0026897.JPG
break,html.Screen,4_61_1,2023-05-01T21:06:47.676Z,,0,,,NaN,,,,,,false,,,,325068.89999997616,325068.59999990463,,325068.09999990463,,325077.936,8,400,,,
break_continue,html.Screen,4_61_2,2023-05-01T21:06:47.676Z,,0,,,NaN,,,,,,false,,,,325069.1999999285,325069,,325069,,325077.936,8,400,,,
sequence,flow.Sequence,4_61,2023-05-01T21:06:47.676Z,,0,,,3535.1500000000233,completion,,,,,false,,,,325069.39999997616,325069,321515.81,321525.1999999285,321533.85,325077.936,8,400,,,
trial,html.Screen,4_62_0,2023-05-01T21:06:50.459Z,,0,2,,2774.3639999523293,response,ISIC_0283541.JPG,,ISIC_2085855.JPG,ISIC_0283541.JPG,false,1,keypress(m),500,327852.59999990463,327852.2999999523,325060.529,325069.5,325077.936,327862.912,8,400,13,,ISIC_2085855.JPG
break,html.Screen,4_62_1,2023-05-01T21:06:50.460Z,,0,,,NaN,,,,,,false,,,,327853.5,327853.2999999523,,327852.7999999523,,327862.912,8,400,,,
break_continue,html.Screen,4_62_2,2023-05-01T21:06:50.461Z,,0,,,NaN,,,,,,false,,,,327853.89999997616,327853.6999999285,,327853.59999990463,,327862.912,8,400,,,
sequence,flow.Sequence,4_62,2023-05-01T21:06:50.461Z,,0,,,2775.7639999284875,completion,,,,,false,,,,327854.09999990463,327853.6999999285,325060.529,325069.5,325077.936,327862.912,8,400,,,
trial,html.Screen,4_63_0,2023-05-01T21:06:53.503Z,,0,2,,3033.587999999989,response,ISIC_2861793.JPG,,ISIC_1874480.JPG,ISIC_2861793.JPG,false,1,keypress(m),500,330896.6999999285,330896.5,327844.515,327854.1999999285,327862.912,330907.016,8,400,14,,ISIC_1874480.JPG
break,html.Screen,4_63_1,2023-05-01T21:06:53.504Z,,0,,,NaN,,,,,,false,,,,330897.6999999285,330897.39999997616,,330897,,330907.016,8,400,,,
break_continue,html.Screen,4_63_2,2023-05-01T21:06:53.505Z,,0,,,NaN,,,,,,false,,,,330898,330898,,330897.89999997616,,330907.016,8,400,,,
sequence,flow.Sequence,4_63,2023-05-01T21:06:53.505Z,,0,,,3035.087999999989,completion,,,,,false,,,,330898.2999999523,330898,327844.515,327854.09999990463,327862.912,330907.016,8,400,,,
trial,html.Screen,4_64_0,2023-05-01T21:06:56.342Z,,0,2,,2827.5839999046293,response,ISIC_0067458.JPG,,ISIC_0061381.JPG,ISIC_0067458.JPG,false,1,keypress(m),500,333735,333734.59999990463,330889.486,330898.39999997616,330907.016,333745.578,8,400,15,,ISIC_0061381.JPG
break,html.Screen,4_64_1,2023-05-01T21:06:56.343Z,,0,,,NaN,,,,,,false,,,,333735.89999997616,333735.6999999285,,333735.1999999285,,333745.578,8,400,,,
break_continue,html.Screen,4_64_2,2023-05-01T21:06:56.343Z,,0,,,NaN,,,,,,false,,,,333736.2999999523,333736.1999999285,,333736.09999990463,,333745.578,8,400,,,
sequence,flow.Sequence,4_64,2023-05-01T21:06:56.343Z,,0,,,2829.183999928471,completion,,,,,false,,,,333736.5,333736.1999999285,330889.486,330898.2999999523,330907.016,333745.578,8,400,,,
trial,html.Screen,4_65_0,2023-05-01T21:06:59.023Z,,0,2,,2670.521999904653,response,ISIC_3067522.JPG,,ISIC_0033594.JPG,ISIC_3067522.JPG,false,1,keypress(m),500,336416.39999997616,336416.09999990463,333726.914,333736.6999999285,333745.578,336426.865,8,400,16,,ISIC_0033594.JPG
break,html.Screen,4_65_1,2023-05-01T21:06:59.024Z,,0,,,NaN,,,,,,false,,,,336417.2999999523,336417.09999990463,,336416.59999990463,,336426.865,8,400,,,
break_continue,html.Screen,4_65_2,2023-05-01T21:06:59.025Z,,0,,,NaN,,,,,,false,,,,336417.89999997616,336417.6999999285,,336417.59999990463,,336426.865,8,400,,,
sequence,flow.Sequence,4_65,2023-05-01T21:06:59.025Z,,0,,,2672.121999928495,completion,,,,,false,,,,336418.1999999285,336417.6999999285,333726.914,333736.59999990463,333745.578,336426.865,8,400,,,
trial,html.Screen,4_66_0,2023-05-01T21:07:03.130Z,,0,2,,4096.234999904642,response,ISIC_0062497.JPG,,ISIC_0072826.JPG,ISIC_0062497.JPG,false,1,keypress(m),500,340523.2999999523,340523.09999990463,336407.829,336418.1999999285,336426.865,340533.374,8,400,17,,ISIC_0072826.JPG
break,html.Screen,4_66_1,2023-05-01T21:07:03.131Z,,0,,,NaN,,,,,,false,,,,340524.2999999523,340524,,340523.59999990463,,340533.374,8,400,,,
break_continue,html.Screen,4_66_2,2023-05-01T21:07:03.131Z,,0,,,NaN,,,,,,false,,,,340524.6999999285,340524.59999990463,,340524.39999997616,,340533.374,8,400,,,
sequence,flow.Sequence,4_66,2023-05-01T21:07:03.131Z,,0,,,4097.734999904642,completion,,,,,false,,,,340524.7999999523,340524.59999990463,336407.829,336418.1999999285,336426.865,340533.374,8,400,,,
trial,html.Screen,4_67_0,2023-05-01T21:07:05.707Z,,0,2,,2566.3259999284637,response,ISIC_0698821.JPG,,ISIC_3070206.JPG,ISIC_3070206.JPG,false,0,keypress(z),500,343100.09999990463,343099.6999999285,340515.661,340524.89999997616,340533.374,343110.388,8,400,18,,ISIC_0698821.JPG
break,html.Screen,4_67_1,2023-05-01T21:07:05.708Z,,0,,,NaN,,,,,,false,,,,343101.09999990463,343100.7999999523,,343100.2999999523,,343110.388,8,400,,,
break_continue,html.Screen,4_67_2,2023-05-01T21:07:05.708Z,,0,,,NaN,,,,,,false,,,,343101.7999999523,343101.6999999285,,343101.1999999285,,343110.388,8,400,,,
sequence,flow.Sequence,4_67,2023-05-01T21:07:05.709Z,,0,,,2568.3259999284637,completion,,,,,false,,,,343102,343101.6999999285,340515.661,340524.89999997616,340533.374,343110.388,8,400,,,
trial,html.Screen,4_68_0,2023-05-01T21:07:08.516Z,,0,2,,2798.511999976181,response,ISIC_0014695.JPG,,ISIC_0026470.JPG,ISIC_0014695.JPG,false,1,keypress(m),500,345909.1999999285,345908.89999997616,343092.677,343102.1999999285,343110.388,345919.233,8,400,19,,ISIC_0026470.JPG
break,html.Screen,4_68_1,2023-05-01T21:07:08.517Z,,0,,,NaN,,,,,,false,,,,345909.89999997616,345909.6999999285,,345909.39999997616,,345919.233,8,400,,,
break_continue,html.Screen,4_68_2,2023-05-01T21:07:08.517Z,,0,,,NaN,,,,,,false,,,,345910.2999999523,345910.1999999285,,345910.09999990463,,345919.233,8,400,,,
sequence,flow.Sequence,4_68,2023-05-01T21:07:08.517Z,,0,,,2799.8119999284972,completion,,,,,false,,,,345910.5,345910.1999999285,343092.677,343102.09999990463,343110.388,345919.233,8,400,,,
trial,html.Screen,4_69_0,2023-05-01T21:07:13.820Z,,0,2,,5294.266999999993,response,ISIC_0610849.JPG,,ISIC_0783513.JPG,ISIC_0610849.JPG,false,1,keypress(m),500,351213.7999999523,351213.5,345900.234,345910.5,345919.233,351224.011,8,400,20,,ISIC_0783513.JPG
break,html.Screen,4_69_1,2023-05-01T21:07:13.821Z,,0,,,NaN,,,,,,false,,,,351214.59999990463,351214.5,,351214.09999990463,,351224.011,8,400,,,
break_continue,html.Screen,4_69_2,2023-05-01T21:07:13.822Z,,0,,,NaN,,,,,,false,,,,351215,351214.89999997616,,351214.7999999523,,351224.011,8,400,,,
sequence,flow.Sequence,4_69,2023-05-01T21:07:13.822Z,,0,,,5295.666999976151,completion,,,,,false,,,,351215.09999990463,351214.89999997616,345900.234,345910.5,345919.233,351224.011,8,400,,,
trial,html.Screen,4_70_0,2023-05-01T21:07:16.695Z,,0,2,,2864.2889999523177,response,ISIC_6004197.JPG,,ISIC_0068166.JPG,ISIC_0068166.JPG,false,0,keypress(z),500,354088.59999990463,354088.2999999523,351203.484,351215.2999999523,351224.011,354098.99,8,400,21,,ISIC_6004197.JPG
break,html.Screen,4_70_1,2023-05-01T21:07:16.696Z,,0,,,NaN,,,,,,false,,,,354089.5,354089.2999999523,,354088.89999997616,,354098.99,8,400,,,
break_continue,html.Screen,4_70_2,2023-05-01T21:07:16.697Z,,0,,,NaN,,,,,,false,,,,354090.09999990463,354089.7999999523,,354089.6999999285,,354098.99,8,400,,,
sequence,flow.Sequence,4_70,2023-05-01T21:07:16.697Z,,0,,,2865.7889999523177,completion,,,,,false,,,,354090.1999999285,354089.7999999523,351203.484,351215.2999999523,351224.011,354098.99,8,400,,,
trial,html.Screen,4_71_0,2023-05-01T21:07:19.468Z,,0,2,,2762.3099999523256,response,ISIC_9276931.JPG,,ISIC_0061566.JPG,ISIC_0061566.JPG,false,0,keypress(z),500,356861.59999990463,356861.2999999523,354079.966,354090.2999999523,354098.99,356871.786,8,400,22,,ISIC_9276931.JPG
break,html.Screen,4_71_1,2023-05-01T21:07:19.469Z,,0,,,NaN,,,,,,false,,,,356862.5,356862.1999999285,,356861.7999999523,,356871.786,8,400,,,
break_continue,html.Screen,4_71_2,2023-05-01T21:07:19.470Z,,0,,,NaN,,,,,,false,,,,356862.89999997616,356862.6999999285,,356862.6999999285,,356871.786,8,400,,,
sequence,flow.Sequence,4_71,2023-05-01T21:07:19.470Z,,0,,,2763.7099999284837,completion,,,,,false,,,,356863.09999990463,356862.6999999285,354079.966,354090.2999999523,354098.99,356871.786,8,400,,,
trial,html.Screen,4_72_0,2023-05-01T21:07:21.981Z,,0,2,,2502.713999999978,response,ISIC_7740023.JPG,,ISIC_1241817.JPG,ISIC_1241817.JPG,false,0,keypress(z),500,359374.6999999285,359374.5,356859.354,356863.1999999285,356871.786,359384.989,8,400,23,,ISIC_7740023.JPG
break,html.Screen,4_72_1,2023-05-01T21:07:21.982Z,,0,,,NaN,,,,,,false,,,,359375.59999990463,359375.2999999523,,359374.89999997616,,359384.989,8,400,,,
break_continue,html.Screen,4_72_2,2023-05-01T21:07:21.983Z,,0,,,NaN,,,,,,false,,,,359376,359375.7999999523,,359375.6999999285,,359384.989,8,400,,,
sequence,flow.Sequence,4_72,2023-05-01T21:07:21.983Z,,0,,,2504.0139999522944,completion,,,,,false,,,,359376.09999990463,359375.7999999523,356859.354,356863.1999999285,356871.786,359384.989,8,400,,,
trial,html.Screen,4_73_0,2023-05-01T21:07:24.573Z,,0,2,,2580.9109999761567,response,ISIC_7518524.JPG,,ISIC_7022381.JPG,ISIC_7022381.JPG,false,0,keypress(z),500,361966.09999990463,361965.89999997616,359367.248,359376.2999999523,359384.989,361971.958,8,400,24,,ISIC_7518524.JPG
break,html.Screen,4_73_1,2023-05-01T21:07:24.574Z,,0,,,NaN,,,,,,false,,,,361967,361966.7999999523,,361966.39999997616,,361971.958,8,400,,,
break_continue,html.Screen,4_73_2,2023-05-01T21:07:24.574Z,,0,,,NaN,,,,,,false,,,,361967.39999997616,361967.2999999523,,361967.09999990463,,361971.958,8,400,,,
sequence,flow.Sequence,4_73,2023-05-01T21:07:24.574Z,,0,,,2582.310999952315,completion,,,,,false,,,,361967.59999990463,361967.2999999523,359367.248,359376.2999999523,359384.989,361971.958,8,400,,,
trial,html.Screen,4_74_0,2023-05-01T21:07:27.150Z,,0,2,,2571.1419999046484,response,ISIC_0031472.JPG,,ISIC_8752021.JPG,ISIC_0031472.JPG,false,1,keypress(m),500,364543.39999997616,364543.09999990463,361955.458,361967.7999999523,361971.958,364553.87,8,400,25,,ISIC_8752021.JPG
break,html.Screen,4_74_1,2023-05-01T21:07:27.151Z,,0,,,NaN,,,,,,false,,,,364544.39999997616,364544.1999999285,,364543.59999990463,,364553.87,8,400,,,
break_continue,html.Screen,4_74_2,2023-05-01T21:07:27.152Z,,0,,,NaN,,,,,,false,,,,364545,364544.6999999285,,364544.59999990463,,364553.87,8,400,,,
sequence,flow.Sequence,4_74,2023-05-01T21:07:27.152Z,,0,,,2572.7419999284903,completion,,,,,false,,,,364545.1999999285,364544.6999999285,361955.458,361967.6999999285,361971.958,364553.87,8,400,,,
trial,html.Screen,4_75_0,2023-05-01T21:07:29.933Z,,0,2,,2772.029999976163,response,ISIC_7664137.JPG,,ISIC_7369690.JPG,ISIC_7664137.JPG,false,1,keypress(m),500,367326.1999999285,367325.89999997616,364535.592,364545.39999997616,364553.87,367336.503,8,400,26,,ISIC_7369690.JPG
break,html.Screen,4_75_1,2023-05-01T21:07:29.934Z,,0,,,NaN,,,,,,false,,,,367327,367326.89999997616,,367326.39999997616,,367336.503,8,400,,,
break_continue,html.Screen,4_75_2,2023-05-01T21:07:29.934Z,,0,,,NaN,,,,,,false,,,,367327.39999997616,367327.2999999523,,367327.1999999285,,367336.503,8,400,,,
sequence,flow.Sequence,4_75,2023-05-01T21:07:29.934Z,,0,,,2773.429999952321,completion,,,,,false,,,,367327.59999990463,367327.2999999523,364535.592,364545.2999999523,364553.87,367336.503,8,400,,,
trial,html.Screen,4_76_0,2023-05-01T21:07:32.760Z,,0,2,,2816.896999976132,response,ISIC_0028764.JPG,,ISIC_0033178.JPG,ISIC_0028764.JPG,false,1,keypress(m),500,370153.59999990463,370153.39999997616,367321.885,367327.7999999523,367336.503,370164.005,8,400,27,,ISIC_0033178.JPG
break,html.Screen,4_76_1,2023-05-01T21:07:32.761Z,,0,,,NaN,,,,,,false,,,,370154.59999990463,370154.39999997616,,370153.89999997616,,370164.005,8,400,,,
break_continue,html.Screen,4_76_2,2023-05-01T21:07:32.762Z,,0,,,NaN,,,,,,false,,,,370155.09999990463,370154.89999997616,,370154.7999999523,,370164.005,8,400,,,
sequence,flow.Sequence,4_76,2023-05-01T21:07:32.762Z,,0,,,2818.396999976132,completion,,,,,false,,,,370155.1999999285,370154.89999997616,367321.885,367327.7999999523,367336.503,370164.005,8,400,,,
trial,html.Screen,4_77_0,2023-05-01T21:07:35.528Z,,0,2,,2756.8949999761535,response,ISIC_8689583.JPG,,ISIC_0064014.JPG,ISIC_8689583.JPG,false,1,keypress(m),500,372921.1999999285,372920.89999997616,370154.48,370155.39999997616,370164.005,372931.515,8,400,28,,ISIC_0064014.JPG
break,html.Screen,4_77_1,2023-05-01T21:07:35.529Z,,0,,,NaN,,,,,,false,,,,372922.1999999285,372921.89999997616,,372921.39999997616,,372931.515,8,400,,,
break_continue,html.Screen,4_77_2,2023-05-01T21:07:35.529Z,,0,,,NaN,,,,,,false,,,,372922.5,372922.39999997616,,372922.39999997616,,372931.515,8,400,,,
sequence,flow.Sequence,4_77,2023-05-01T21:07:35.529Z,,0,,,2758.3949999761535,completion,,,,,false,,,,372922.6999999285,372922.39999997616,370154.48,370155.39999997616,370164.005,372931.515,8,400,,,
trial,html.Screen,4_78_0,2023-05-01T21:07:38.020Z,,0,2,,2481.884999976144,response,ISIC_8931948.JPG,,ISIC_0031611.JPG,ISIC_8931948.JPG,false,1,keypress(m),500,375413.6999999285,375413.39999997616,372921.064,372922.7999999523,372931.515,375424.214,8,400,29,,ISIC_0031611.JPG
break,html.Screen,4_78_1,2023-05-01T21:07:38.021Z,,0,,,NaN,,,,,,false,,,,375414.5,375414.2999999523,,375413.7999999523,,375424.214,8,400,,,
break_continue,html.Screen,4_78_2,2023-05-01T21:07:38.022Z,,0,,,NaN,,,,,,false,,,,375415,375414.89999997616,,375414.6999999285,,375424.214,8,400,,,
sequence,flow.Sequence,4_78,2023-05-01T21:07:38.022Z,,0,,,2483.384999976144,completion,,,,,false,,,,375415.1999999285,375414.89999997616,372921.064,372922.7999999523,372931.515,375424.214,8,400,,,
trial,html.Screen,4_79_0,2023-05-01T21:07:40.603Z,,0,2,,2571.786000000022,response,ISIC_0025592.JPG,,ISIC_0009959.JPG,ISIC_0009959.JPG,false,0,keypress(z),500,377996.2999999523,377996,375399.539,375415.2999999523,375424.214,378024.87,8,400,30,,ISIC_0025592.JPG
break,html.Screen,4_79_1,2023-05-01T21:07:40.604Z,,0,,,NaN,,,,,,false,,,,377997.09999990463,377996.89999997616,,377996.5,,378024.87,8,400,,,
break_continue,html.Screen,4_79_2,2023-05-01T21:07:40.604Z,,0,,,NaN,,,,,,false,,,,377997.5,377997.39999997616,,377997.2999999523,,378024.87,8,400,,,
sequence,flow.Sequence,4_79,2023-05-01T21:07:40.604Z,,0,,,2573.18599997618,completion,,,,,false,,,,377997.59999990463,377997.39999997616,375399.539,375415.2999999523,375424.214,378024.87,8,400,,,
trial,html.Screen,4_80_0,2023-05-01T21:07:43.078Z,,0,2,,2446.529999976163,response,ISIC_8278688.JPG,,ISIC_3520591.JPG,ISIC_8278688.JPG,false,1,keypress(m),500,380471.6999999285,380471.39999997616,377981.535,377997.7999999523,378024.87,380475.178,8,400,31,,ISIC_3520591.JPG
break,html.Screen,4_80_1,2023-05-01T21:07:43.079Z,,0,,,NaN,,,,,,false,,,,380472.5,380472.2999999523,,380471.89999997616,,380475.178,8,400,,,
break_continue,html.Screen,4_80_2,2023-05-01T21:07:43.080Z,,0,,,NaN,,,,,,false,,,,380472.89999997616,380472.7999999523,,380472.5,,380475.178,8,400,,,
sequence,flow.Sequence,4_80,2023-05-01T21:07:43.080Z,,0,,,2447.929999952321,completion,,,,,false,,,,380473.09999990463,380472.7999999523,377981.535,377997.7999999523,378024.87,380475.178,8,400,,,
trial,html.Screen,4_81_0,2023-05-01T21:07:45.650Z,,0,2,,2567.52199992846,response,ISIC_0004015.JPG,,ISIC_0056192.JPG,ISIC_0056192.JPG,false,0,keypress(z),500,383043,383042.6999999285,380458.53,380473.09999990463,380475.178,383074.537,8,400,32,,ISIC_0004015.JPG
break,html.Screen,4_81_1,2023-05-01T21:07:45.651Z,,0,,,NaN,,,,,,false,,,,383044,383043.59999990463,,383043.1999999285,,383074.537,8,400,,,
break_continue,html.Screen,4_81_2,2023-05-01T21:07:45.651Z,,0,,,NaN,,,,,,false,,,,383044.39999997616,383044.1999999285,,383044.1999999285,,383074.537,8,400,,,
sequence,flow.Sequence,4_81,2023-05-01T21:07:45.651Z,,0,,,2569.02199992846,completion,,,,,false,,,,383044.5,383044.1999999285,380458.53,380473.09999990463,380475.178,383074.537,8,400,,,
trial,html.Screen,4_82_0,2023-05-01T21:07:48.129Z,,0,2,,2447.362999976147,response,ISIC_7421214.JPG,,ISIC_0025648.JPG,ISIC_7421214.JPG,false,1,keypress(m),500,385522.2999999523,385521.89999997616,383058.108,383044.6999999285,383074.537,385526.219,8,400,33,,ISIC_0025648.JPG
break,html.Screen,4_82_1,2023-05-01T21:07:48.130Z,,0,,,NaN,,,,,,false,,,,385523.09999990463,385522.89999997616,,385522.39999997616,,385526.219,8,400,,,
break_continue,html.Screen,4_82_2,2023-05-01T21:07:48.130Z,,0,,,NaN,,,,,,false,,,,385523.59999990463,385523.39999997616,,385523.1999999285,,385526.219,8,400,,,
sequence,flow.Sequence,4_82,2023-05-01T21:07:48.130Z,,0,,,2448.862999976147,completion,,,,,false,,,,385523.7999999523,385523.39999997616,383058.108,383044.6999999285,383074.537,385526.219,8,400,,,
trial,html.Screen,4_83_0,2023-05-01T21:07:50.833Z,,0,2,,2699.88099990465,response,ISIC_1331993.JPG,,ISIC_8009880.JPG,ISIC_8009880.JPG,false,0,keypress(z),500,388226.2999999523,388226.09999990463,385509.685,385523.89999997616,385526.219,388236.466,8,400,34,,ISIC_1331993.JPG
break,html.Screen,4_83_1,2023-05-01T21:07:50.834Z,,0,,,NaN,,,,,,false,,,,388227.2999999523,388227.09999990463,,388226.59999990463,,388236.466,8,400,,,
break_continue,html.Screen,4_83_2,2023-05-01T21:07:50.834Z,,0,,,NaN,,,,,,false,,,,388227.7999999523,388227.59999990463,,388227.5,,388236.466,8,400,,,
sequence,flow.Sequence,4_83,2023-05-01T21:07:50.835Z,,0,,,2701.38099990465,completion,,,,,false,,,,388227.89999997616,388227.59999990463,385509.685,385523.89999997616,385526.219,388236.466,8,400,,,
trial,html.Screen,4_84_0,2023-05-01T21:07:53.636Z,,0,2,,2792.033999999985,response,ISIC_9684649.JPG,,ISIC_6348638.JPG,ISIC_6348638.JPG,false,0,keypress(z),500,391028.6999999285,391028.5,388225.317,388228,388236.466,391039.433,8,400,35,,ISIC_9684649.JPG
break,html.Screen,4_84_1,2023-05-01T21:07:53.637Z,,0,,,NaN,,,,,,false,,,,391029.7999999523,391029.5,,391029,,391039.433,8,400,,,
break_continue,html.Screen,4_84_2,2023-05-01T21:07:53.637Z,,0,,,NaN,,,,,,false,,,,391030.1999999285,391030.09999990463,,391030,,391039.433,8,400,,,
sequence,flow.Sequence,4_84,2023-05-01T21:07:53.637Z,,0,,,2793.6339999046177,completion,,,,,false,,,,391030.39999997616,391030.09999990463,388225.317,388228,388236.466,391039.433,8,400,,,
trial,html.Screen,4_85_0,2023-05-01T21:07:56.331Z,,0,2,,2684.1669999046135,response,ISIC_8253317.JPG,,ISIC_0008510.JPG,ISIC_0008510.JPG,false,0,keypress(z),500,393723.7999999523,393723.59999990463,391026.472,391030.5,391039.433,393733.965,8,400,36,,ISIC_8253317.JPG
break,html.Screen,4_85_1,2023-05-01T21:07:56.332Z,,0,,,NaN,,,,,,false,,,,393724.6999999285,393724.5,,393724,,393733.965,8,400,,,
break_continue,html.Screen,4_85_2,2023-05-01T21:07:56.332Z,,0,,,NaN,,,,,,false,,,,393725,393724.89999997616,,393724.7999999523,,393733.965,8,400,,,
sequence,flow.Sequence,4_85,2023-05-01T21:07:56.332Z,,0,,,2685.466999976139,completion,,,,,false,,,,393725.09999990463,393724.89999997616,391026.472,391030.5,391039.433,393733.965,8,400,,,
trial,html.Screen,4_86_0,2023-05-01T21:07:58.867Z,,0,2,,2525.8349999522907,response,ISIC_0060656.JPG,,ISIC_0490714.JPG,ISIC_0490714.JPG,false,0,keypress(z),500,396260.09999990463,396259.7999999523,393719.576,393725.2999999523,393733.965,396270.385,8,400,37,,ISIC_0060656.JPG
break,html.Screen,4_86_1,2023-05-01T21:07:58.868Z,,0,,,NaN,,,,,,false,,,,396261,396260.7999999523,,396260.2999999523,,396270.385,8,400,,,
break_continue,html.Screen,4_86_2,2023-05-01T21:07:58.868Z,,0,,,NaN,,,,,,false,,,,396261.5,396261.2999999523,,396261.1999999285,,396270.385,8,400,,,
sequence,flow.Sequence,4_86,2023-05-01T21:07:58.869Z,,0,,,2527.3349999522907,completion,,,,,false,,,,396261.59999990463,396261.2999999523,393719.576,393725.1999999285,393733.965,396270.385,8,400,,,
trial,html.Screen,4_87_0,2023-05-01T21:08:02.094Z,,0,2,,3215.814999928465,response,ISIC_2768150.JPG,,ISIC_0054936.JPG,ISIC_2768150.JPG,false,1,keypress(m),500,399486.5,399486.1999999285,396252.116,396261.6999999285,396270.385,399496.629,8,400,38,,ISIC_0054936.JPG
break,html.Screen,4_87_1,2023-05-01T21:08:02.094Z,,0,,,NaN,,,,,,false,,,,399487.39999997616,399487.1999999285,,399486.6999999285,,399496.629,8,400,,,
break_continue,html.Screen,4_87_2,2023-05-01T21:08:02.095Z,,0,,,NaN,,,,,,false,,,,399487.7999999523,399487.6999999285,,399487.59999990463,,399496.629,8,400,,,
sequence,flow.Sequence,4_87,2023-05-01T21:08:02.095Z,,0,,,3217.314999928465,completion,,,,,false,,,,399488,399487.6999999285,396252.116,396261.6999999285,396270.385,399496.629,8,400,,,
trial,html.Screen,4_88_0,2023-05-01T21:08:05.078Z,,0,2,,2974.170999952301,response,ISIC_5747486.JPG,,ISIC_0001572.JPG,ISIC_5747486.JPG,false,1,keypress(m),500,402471.09999990463,402470.7999999523,399477.459,399488.09999990463,399496.629,402481.294,8,400,39,,ISIC_0001572.JPG
break,html.Screen,4_88_1,2023-05-01T21:08:05.079Z,,0,,,NaN,,,,,,false,,,,402472,402471.7999999523,,402471.2999999523,,402481.294,8,400,,,
break_continue,html.Screen,4_88_2,2023-05-01T21:08:05.079Z,,0,,,NaN,,,,,,false,,,,402472.2999999523,402472.1999999285,,402472.09999990463,,402481.294,8,400,,,
sequence,flow.Sequence,4_88,2023-05-01T21:08:05.079Z,,0,,,2975.570999928459,completion,,,,,false,,,,402472.5,402472.1999999285,399477.459,399488.09999990463,399496.629,402481.294,8,400,,,
trial,html.Screen,4_89_0,2023-05-01T21:08:07.637Z,,0,2,,2548.2060000000056,response,ISIC_1964243.JPG,,ISIC_5233226.JPG,ISIC_5233226.JPG,false,0,keypress(z),500,405029.7999999523,405029.5,402462.966,402472.6999999285,402481.294,405034.351,8,400,40,,ISIC_1964243.JPG
break,html.Screen,4_89_1,2023-05-01T21:08:07.638Z,,0,,,NaN,,,,,,false,,,,405030.7999999523,405030.5,,405030,,405034.351,8,400,,,
break_continue,html.Screen,4_89_2,2023-05-01T21:08:07.638Z,,0,,,NaN,,,,,,false,,,,405031.09999990463,405031,,405030.89999997616,,405034.351,8,400,,,
sequence,flow.Sequence,4_89,2023-05-01T21:08:07.638Z,,0,,,2549.7060000000056,completion,,,,,false,,,,405031.39999997616,405031,402462.966,402472.59999990463,402481.294,405034.351,8,400,,,
trial,html.Screen,4_90_0,2023-05-01T21:08:10.262Z,,0,2,,2620.548999976134,response,ISIC_9407690.JPG,,ISIC_2908315.JPG,ISIC_9407690.JPG,false,1,keypress(m),500,407655.1999999285,407654.89999997616,405030.405,405031.59999990463,405034.351,407665.35,8,400,41,,ISIC_2908315.JPG
break,html.Screen,4_90_1,2023-05-01T21:08:10.263Z,,0,,,NaN,,,,,,false,,,,407656.09999990463,407655.89999997616,,407655.39999997616,,407665.35,8,400,,,
break_continue,html.Screen,4_90_2,2023-05-01T21:08:10.263Z,,0,,,NaN,,,,,,false,,,,407656.59999990463,407656.39999997616,,407656.2999999523,,407665.35,8,400,,,
sequence,flow.Sequence,4_90,2023-05-01T21:08:10.264Z,,0,,,2622.048999976134,completion,,,,,false,,,,407656.6999999285,407656.39999997616,405030.405,405031.5,405034.351,407665.35,8,400,,,
trial,html.Screen,4_91_0,2023-05-01T21:08:12.918Z,,0,2,,2645.3499999284977,response,ISIC_0061735.JPG,,ISIC_8822738.JPG,ISIC_8822738.JPG,false,0,keypress(z),500,410310.89999997616,410310.6999999285,407648.445,407656.7999999523,407665.35,410321.404,8,400,42,,ISIC_0061735.JPG
break,html.Screen,4_91_1,2023-05-01T21:08:12.919Z,,0,,,NaN,,,,,,false,,,,410311.7999999523,410311.59999990463,,410311.1999999285,,410321.404,8,400,,,
break_continue,html.Screen,4_91_2,2023-05-01T21:08:12.919Z,,0,,,NaN,,,,,,false,,,,410312.1999999285,410312.09999990463,,410312,,410321.404,8,400,,,
sequence,flow.Sequence,4_91,2023-05-01T21:08:12.919Z,,0,,,2646.749999904656,completion,,,,,false,,,,410312.39999997616,410312.09999990463,407648.445,407656.6999999285,407665.35,410321.404,8,400,,,
trial,html.Screen,4_92_0,2023-05-01T21:08:15.599Z,,0,2,,2669.9959999761777,response,ISIC_1834920.JPG,,ISIC_0000519.JPG,ISIC_0000519.JPG,false,0,keypress(z),500,412991.7999999523,412991.39999997616,410302.89,410312.59999990463,410321.404,413002.113,8,400,43,,ISIC_1834920.JPG
break,html.Screen,4_92_1,2023-05-01T21:08:15.600Z,,0,,,NaN,,,,,,false,,,,412992.7999999523,412992.59999990463,,412992.09999990463,,413002.113,8,400,,,
break_continue,html.Screen,4_92_2,2023-05-01T21:08:15.600Z,,0,,,NaN,,,,,,false,,,,412993.2999999523,412993.09999990463,,412993,,413002.113,8,400,,,
sequence,flow.Sequence,4_92,2023-05-01T21:08:15.600Z,,0,,,2671.695999904652,completion,,,,,false,,,,412993.5,412993.09999990463,410302.89,410312.39999997616,410321.404,413002.113,8,400,,,
trial,html.Screen,4_93_0,2023-05-01T21:08:18.715Z,,0,2,,3105.886999999988,response,ISIC_0026188.JPG,,ISIC_8163269.JPG,ISIC_0026188.JPG,false,1,keypress(m),500,416108.2999999523,416108,412982.415,412993.59999990463,413002.113,416118.659,8,400,44,,ISIC_8163269.JPG
break,html.Screen,4_93_1,2023-05-01T21:08:18.716Z,,0,,,NaN,,,,,,false,,,,416109.1999999285,416109,,416108.5,,416118.659,8,400,,,
break_continue,html.Screen,4_93_2,2023-05-01T21:08:18.717Z,,0,,,NaN,,,,,,false,,,,416109.59999990463,416109.5,,416109.39999997616,,416118.659,8,400,,,
sequence,flow.Sequence,4_93,2023-05-01T21:08:18.717Z,,0,,,3107.386999999988,completion,,,,,false,,,,416109.6999999285,416109.5,412982.415,412993.59999990463,413002.113,416118.659,8,400,,,
trial,html.Screen,4_94_0,2023-05-01T21:08:23.965Z,,0,2,,5239.341000000015,response,ISIC_0356904.JPG,,ISIC_0061559.JPG,ISIC_0061559.JPG,false,0,keypress(z),500,421358.2999999523,421358,416101.193,416109.7999999523,416118.659,421368.342,8,400,45,,ISIC_0356904.JPG
break,html.Screen,4_94_1,2023-05-01T21:08:23.966Z,,0,,,NaN,,,,,,false,,,,421359.1999999285,421358.89999997616,,421358.5,,421368.342,8,400,,,
break_continue,html.Screen,4_94_2,2023-05-01T21:08:23.967Z,,0,,,NaN,,,,,,false,,,,421359.59999990463,421359.5,,421359.39999997616,,421368.342,8,400,,,
sequence,flow.Sequence,4_94,2023-05-01T21:08:23.967Z,,0,,,5240.841000000015,completion,,,,,false,,,,421359.7999999523,421359.5,416101.193,416109.7999999523,416118.659,421368.342,8,400,,,
trial,html.Screen,4_95_0,2023-05-01T21:08:26.873Z,,0,2,,2897.3579999284702,response,ISIC_4062017.JPG,,ISIC_0069370.JPG,ISIC_0069370.JPG,false,0,keypress(z),500,424266,424265.6999999285,421350.184,421359.7999999523,421368.342,424276.271,8,400,46,,ISIC_4062017.JPG
break,html.Screen,4_95_1,2023-05-01T21:08:26.874Z,,0,,,NaN,,,,,,false,,,,424266.89999997616,424266.6999999285,,424266.1999999285,,424276.271,8,400,,,
break_continue,html.Screen,4_95_2,2023-05-01T21:08:26.874Z,,0,,,NaN,,,,,,false,,,,424267.2999999523,424267.1999999285,,424267,,424276.271,8,400,,,
sequence,flow.Sequence,4_95,2023-05-01T21:08:26.874Z,,0,,,2898.8579999284702,completion,,,,,false,,,,424267.5,424267.1999999285,421350.184,421359.7999999523,421368.342,424276.271,8,400,,,
trial,html.Screen,4_96_0,2023-05-01T21:08:29.367Z,,0,2,,2483.3289999046247,response,ISIC_6378169.JPG,,ISIC_0030447.JPG,ISIC_6378169.JPG,false,1,keypress(m),500,426759.7999999523,426759.59999990463,424257.747,424267.6999999285,424276.271,426769.802,8,400,47,,ISIC_0030447.JPG
break,html.Screen,4_96_1,2023-05-01T21:08:29.368Z,,0,,,NaN,,,,,,false,,,,426761.09999990463,426760.39999997616,,426760,,426769.802,8,400,,,
break_continue,html.Screen,4_96_2,2023-05-01T21:08:29.368Z,,0,,,NaN,,,,,,false,,,,426761.39999997616,426761.2999999523,,426761.1999999285,,426769.802,8,400,,,
sequence,flow.Sequence,4_96,2023-05-01T21:08:29.369Z,,0,,,2485.0289999523084,completion,,,,,false,,,,426761.59999990463,426761.2999999523,424257.747,424267.59999990463,424276.271,426769.802,8,400,,,
trial,html.Screen,4_97_0,2023-05-01T21:08:32.509Z,,0,2,,3132.2979999046074,response,ISIC_0068616.JPG,,ISIC_0027956.JPG,ISIC_0068616.JPG,false,1,keypress(m),500,429902.5,429902.09999990463,426752.58,426761.7999999523,426769.802,429912.548,8,400,48,,ISIC_0027956.JPG
break,html.Screen,4_97_1,2023-05-01T21:08:32.510Z,,0,,,NaN,,,,,,false,,,,429903.39999997616,429903.1999999285,,429902.6999999285,,429912.548,8,400,,,
break_continue,html.Screen,4_97_2,2023-05-01T21:08:32.511Z,,0,,,NaN,,,,,,false,,,,429903.7999999523,429903.6999999285,,429903.59999990463,,429912.548,8,400,,,
sequence,flow.Sequence,4_97,2023-05-01T21:08:32.511Z,,0,,,3133.8979999284493,completion,,,,,false,,,,429903.89999997616,429903.6999999285,426752.58,426761.59999990463,426769.802,429912.548,8,400,,,
trial,html.Screen,4_98_0,2023-05-01T21:08:35.036Z,,0,2,,2516.45199999999,response,ISIC_3909039.JPG,,ISIC_0418738.JPG,ISIC_0418738.JPG,false,0,keypress(z),500,432429.2999999523,432429,429893.944,429904,429912.548,432439.838,8,400,49,,ISIC_3909039.JPG
break,html.Screen,4_98_1,2023-05-01T21:08:35.037Z,,0,,,NaN,,,,,,false,,,,432430.2999999523,432430,,432429.5,,432439.838,8,400,,,
break_continue,html.Screen,4_98_2,2023-05-01T21:08:35.038Z,,0,,,NaN,,,,,,false,,,,432431.1999999285,432430.59999990463,,432430.39999997616,,432439.838,8,400,,,
sequence,flow.Sequence,4_98,2023-05-01T21:08:35.038Z,,0,,,2518.051999904623,completion,,,,,false,,,,432431.39999997616,432430.59999990463,429893.944,429904,429912.548,432439.838,8,400,,,
trial,html.Screen,4_99_0,2023-05-01T21:08:37.436Z,,0,2,,2389.162000000011,response,ISIC_0064471.JPG,,ISIC_0031337.JPG,ISIC_0064471.JPG,false,1,keypress(m),500,434829.2999999523,434829,432421.453,432431.5,432439.838,434845.778,8,400,50,,ISIC_0031337.JPG
break,html.Screen,4_99_1,2023-05-01T21:08:42.437Z,,0,,,4999.984999999986,timeout,,,,,false,,,,439829.7999999523,439828.806,434829.032,434829.59999990463,434845.778,439845.763,8,400,,,
break_continue,html.Screen,4_99_2,2023-05-01T21:08:43.074Z,,0,,,599.8369999046554,response,,,,,false,continue,keypress(Space),,440467.39999997616,440445.59999990463,439828.806,439829.89999997616,439845.763,440477.811,8,400,,,
sequence,flow.Sequence,4_99,2023-05-01T21:08:43.075Z,,0,,,8005.761999904644,completion,,,,,false,,,,440467.7999999523,440445.59999990463,432421.453,432431.5,432439.838,440477.811,8,400,,,
trial,html.Screen,4_100_0,2023-05-01T21:08:46.008Z,,0,3,,2922.4889999523293,response,ISIC_0032797.JPG,,ISIC_3664380.JPG,ISIC_0032797.JPG,false,1,keypress(m),500,443400.59999990463,443400.2999999523,440462.271,440467.89999997616,440477.811,443410.766,8,400,1,,ISIC_3664380.JPG
break,html.Screen,4_100_1,2023-05-01T21:08:46.008Z,,0,,,NaN,,,,,,false,,,,443401.5,443401.2999999523,,443400.6999999285,,443410.766,8,400,,,
break_continue,html.Screen,4_100_2,2023-05-01T21:08:46.009Z,,0,,,NaN,,,,,,false,,,,443401.89999997616,443401.7999999523,,443401.6999999285,,443410.766,8,400,,,
sequence,flow.Sequence,4_100,2023-05-01T21:08:46.009Z,,0,,,2923.9889999523293,completion,,,,,false,,,,443402.09999990463,443401.7999999523,440462.271,440467.89999997616,440477.811,443410.766,8,400,,,
trial,html.Screen,4_101_0,2023-05-01T21:08:48.520Z,,0,3,,2501.7339999999967,response,ISIC_7169653.JPG,,ISIC_0033630.JPG,ISIC_7169653.JPG,false,1,keypress(m),500,445912.89999997616,445912.5,443392.369,443402.1999999285,443410.766,445922.898,8,400,2,,ISIC_0033630.JPG
break,html.Screen,4_101_1,2023-05-01T21:08:48.521Z,,0,,,NaN,,,,,,false,,,,445913.7999999523,445913.5,,445913,,445922.898,8,400,,,
break_continue,html.Screen,4_101_2,2023-05-01T21:08:48.521Z,,0,,,NaN,,,,,,false,,,,445914.09999990463,445914,,445913.89999997616,,445922.898,8,400,,,
sequence,flow.Sequence,4_101,2023-05-01T21:08:48.521Z,,0,,,2503.2339999999967,completion,,,,,false,,,,445914.2999999523,445914,443392.369,443402.1999999285,443410.766,445922.898,8,400,,,
trial,html.Screen,4_102_0,2023-05-01T21:08:50.972Z,,0,3,,2441.801999928488,response,ISIC_0071944.JPG,,ISIC_0027541.JPG,ISIC_0071944.JPG,false,1,keypress(m),500,448364.89999997616,448364.6999999285,445904.004,445914.39999997616,445922.898,448395.338,8,400,3,,ISIC_0027541.JPG
break,html.Screen,4_102_1,2023-05-01T21:08:50.973Z,,0,,,NaN,,,,,,false,,,,448365.6999999285,448365.59999990463,,448365.09999990463,,448395.338,8,400,,,
break_continue,html.Screen,4_102_2,2023-05-01T21:08:50.973Z,,0,,,NaN,,,,,,false,,,,448366.09999990463,448366,,448365.89999997616,,448395.338,8,400,,,
sequence,flow.Sequence,4_102,2023-05-01T21:08:50.973Z,,0,,,2443.1020000000135,completion,,,,,false,,,,448366.1999999285,448366,445904.004,445914.2999999523,445922.898,448395.338,8,400,,,
trial,html.Screen,4_103_0,2023-05-01T21:08:53.502Z,,0,3,,2499.162000000011,response,ISIC_9969907.JPG,,ISIC_0962787.JPG,ISIC_9969907.JPG,false,1,keypress(m),500,450894.7999999523,450894.5,448378.737,448366.39999997616,448395.338,450923.02,8,400,4,,ISIC_0962787.JPG
break,html.Screen,4_103_1,2023-05-01T21:08:53.503Z,,0,,,NaN,,,,,,false,,,,450895.59999990463,450895.39999997616,,450895.09999990463,,450923.02,8,400,,,
break_continue,html.Screen,4_103_2,2023-05-01T21:08:53.503Z,,0,,,NaN,,,,,,false,,,,450896,450895.7999999523,,450895.6999999285,,450923.02,8,400,,,
sequence,flow.Sequence,4_103,2023-05-01T21:08:53.503Z,,0,,,2500.4619999523275,completion,,,,,false,,,,450896.09999990463,450895.7999999523,448378.737,448366.39999997616,448395.338,450923.02,8,400,,,
trial,html.Screen,4_104_0,2023-05-01T21:08:56.787Z,,0,3,,3256.4799999999814,response,ISIC_0000483.JPG,,ISIC_9472725.JPG,ISIC_9472725.JPG,false,0,keypress(z),500,454179.7999999523,454179.5,450906.581,450896.1999999285,450923.02,454190.143,8,400,5,,ISIC_0000483.JPG
break,html.Screen,4_104_1,2023-05-01T21:08:56.788Z,,0,,,NaN,,,,,,false,,,,454180.6999999285,454180.5,,454180,,454190.143,8,400,,,
break_continue,html.Screen,4_104_2,2023-05-01T21:08:56.788Z,,0,,,NaN,,,,,,false,,,,454181,454180.89999997616,,454180.6999999285,,454190.143,8,400,,,
sequence,flow.Sequence,4_104,2023-05-01T21:08:56.788Z,,0,,,3257.8799999761395,completion,,,,,false,,,,454181.1999999285,454180.89999997616,450906.581,450896.1999999285,450923.02,454190.143,8,400,,,
trial,html.Screen,4_105_0,2023-05-01T21:08:59.381Z,,0,3,,2583.2569999761763,response,ISIC_0014222.JPG,,ISIC_0025812.JPG,ISIC_0014222.JPG,false,1,keypress(m),500,456773.7999999523,456773.39999997616,454172.451,454181.1999999285,454190.143,456783.923,8,400,6,,ISIC_0025812.JPG
break,html.Screen,4_105_1,2023-05-01T21:08:59.382Z,,0,,,NaN,,,,,,false,,,,456774.6999999285,456774.5,,456774,,456783.923,8,400,,,
break_continue,html.Screen,4_105_2,2023-05-01T21:08:59.382Z,,0,,,NaN,,,,,,false,,,,456775.09999990463,456775,,456774.89999997616,,456783.923,8,400,,,
sequence,flow.Sequence,4_105,2023-05-01T21:08:59.383Z,,0,,,2584.857000000018,completion,,,,,false,,,,456775.2999999523,456775,454172.451,454181.1999999285,454190.143,456783.923,8,400,,,
trial,html.Screen,4_106_0,2023-05-01T21:09:01.949Z,,0,3,,2557.176999904623,response,ISIC_1140410.JPG,,ISIC_0207268.JPG,ISIC_1140410.JPG,false,1,keypress(m),500,459341.5,459341.09999990463,456764.592,456775.39999997616,456783.923,459351.898,8,400,7,,ISIC_0207268.JPG
break,html.Screen,4_106_1,2023-05-01T21:09:01.950Z,,0,,,NaN,,,,,,false,,,,459342.39999997616,459342.09999990463,,459341.59999990463,,459351.898,8,400,,,
break_continue,html.Screen,4_106_2,2023-05-01T21:09:01.950Z,,0,,,NaN,,,,,,false,,,,459342.7999999523,459342.6999999285,,459342.59999990463,,459351.898,8,400,,,
sequence,flow.Sequence,4_106,2023-05-01T21:09:01.950Z,,0,,,2558.7769999284646,completion,,,,,false,,,,459343,459342.6999999285,456764.592,456775.39999997616,456783.923,459351.898,8,400,,,
trial,html.Screen,4_107_0,2023-05-01T21:09:04.421Z,,0,3,,2461.201999904646,response,ISIC_0033886.JPG,,ISIC_6978997.JPG,ISIC_6978997.JPG,false,0,keypress(z),500,461813.2999999523,461813.09999990463,459340.885,459343.1999999285,459351.898,461834.065,8,400,8,,ISIC_0033886.JPG
break,html.Screen,4_107_1,2023-05-01T21:09:04.421Z,,0,,,NaN,,,,,,false,,,,461814.1999999285,461814,,461813.59999990463,,461834.065,8,400,,,
break_continue,html.Screen,4_107_2,2023-05-01T21:09:04.422Z,,0,,,NaN,,,,,,false,,,,461814.59999990463,461814.5,,461814.2999999523,,461834.065,8,400,,,
sequence,flow.Sequence,4_107,2023-05-01T21:09:04.422Z,,0,,,2462.6020000000135,completion,,,,,false,,,,461814.7999999523,461814.5,459340.885,459343.1999999285,459351.898,461834.065,8,400,,,
trial,html.Screen,4_108_0,2023-05-01T21:09:06.937Z,,0,3,,2495.834999976156,response,ISIC_8060329.JPG,,ISIC_4412555.JPG,ISIC_4412555.JPG,false,0,keypress(z),500,464330.09999990463,464329.89999997616,461817.342,461814.89999997616,461834.065,464354.01,8,400,9,,ISIC_8060329.JPG
break,html.Screen,4_108_1,2023-05-01T21:09:06.938Z,,0,,,NaN,,,,,,false,,,,464330.89999997616,464330.6999999285,,464330.2999999523,,464354.01,8,400,,,
break_continue,html.Screen,4_108_2,2023-05-01T21:09:06.938Z,,0,,,NaN,,,,,,false,,,,464331.1999999285,464331.09999990463,,464331,,464354.01,8,400,,,
sequence,flow.Sequence,4_108,2023-05-01T21:09:06.939Z,,0,,,2497.0349999046302,completion,,,,,false,,,,464331.2999999523,464331.09999990463,461817.342,461814.89999997616,461834.065,464354.01,8,400,,,
trial,html.Screen,4_109_0,2023-05-01T21:09:09.400Z,,0,3,,2438.689999928465,response,ISIC_3596927.JPG,,ISIC_2739449.JPG,ISIC_3596927.JPG,false,1,keypress(m),500,466793,466792.6999999285,464337.578,464331.39999997616,464354.01,466818.602,8,400,10,,ISIC_2739449.JPG
break,html.Screen,4_109_1,2023-05-01T21:09:09.401Z,,0,,,NaN,,,,,,false,,,,466793.7999999523,466793.59999990463,,466793.1999999285,,466818.602,8,400,,,
break_continue,html.Screen,4_109_2,2023-05-01T21:09:09.401Z,,0,,,NaN,,,,,,false,,,,466794.09999990463,466794,,466793.89999997616,,466818.602,8,400,,,
sequence,flow.Sequence,4_109,2023-05-01T21:09:09.401Z,,0,,,2439.9899999999907,completion,,,,,false,,,,466794.2999999523,466794,464337.578,464331.39999997616,464354.01,466818.602,8,400,,,
trial,html.Screen,4_110_0,2023-05-01T21:09:11.931Z,,0,3,,2505.097999928461,response,ISIC_7242542.JPG,,ISIC_8278458.JPG,ISIC_8278458.JPG,false,0,keypress(z),500,469324,469323.6999999285,466802.038,466794.39999997616,466818.602,469354.802,8,400,11,,ISIC_7242542.JPG
break,html.Screen,4_110_1,2023-05-01T21:09:11.932Z,,0,,,NaN,,,,,,false,,,,469324.7999999523,469324.59999990463,,469324.1999999285,,469354.802,8,400,,,
break_continue,html.Screen,4_110_2,2023-05-01T21:09:11.932Z,,0,,,NaN,,,,,,false,,,,469325,469325,,469324.89999997616,,469354.802,8,400,,,
sequence,flow.Sequence,4_110,2023-05-01T21:09:11.932Z,,0,,,2506.3979999999865,completion,,,,,false,,,,469325.1999999285,469325,466802.038,466794.2999999523,466818.602,469354.802,8,400,,,
trial,html.Screen,4_111_0,2023-05-01T21:09:15.304Z,,0,3,,3341.597999976133,response,ISIC_1280780.JPG,,ISIC_1668831.JPG,ISIC_1668831.JPG,false,0,keypress(z),500,472696.6999999285,472696.39999997616,469338.043,469325.39999997616,469354.802,472706.858,8,400,12,,ISIC_1280780.JPG
break,html.Screen,4_111_1,2023-05-01T21:09:15.305Z,,0,,,NaN,,,,,,false,,,,472697.5,472697.2999999523,,472696.89999997616,,472706.858,8,400,,,
break_continue,html.Screen,4_111_2,2023-05-01T21:09:15.305Z,,0,,,NaN,,,,,,false,,,,472697.89999997616,472697.6999999285,,472697.59999990463,,472706.858,8,400,,,
sequence,flow.Sequence,4_111,2023-05-01T21:09:15.305Z,,0,,,3342.8979999284493,completion,,,,,false,,,,472698,472697.6999999285,469338.043,469325.2999999523,469354.802,472706.858,8,400,,,
trial,html.Screen,4_112_0,2023-05-01T21:09:17.876Z,,0,3,,2561.341999928467,response,ISIC_2056104.JPG,,ISIC_4927943.JPG,ISIC_4927943.JPG,false,0,keypress(z),500,475268.39999997616,475268.1999999285,472684.894,472698.09999990463,472706.858,475278.781,8,400,13,,ISIC_2056104.JPG
break,html.Screen,4_112_1,2023-05-01T21:09:17.877Z,,0,,,NaN,,,,,,false,,,,475269.2999999523,475269.09999990463,,475268.59999990463,,475278.781,8,400,,,
break_continue,html.Screen,4_112_2,2023-05-01T21:09:17.877Z,,0,,,NaN,,,,,,false,,,,475269.7999999523,475269.59999990463,,475269.39999997616,,475278.781,8,400,,,
sequence,flow.Sequence,4_112,2023-05-01T21:09:17.877Z,,0,,,2562.741999904625,completion,,,,,false,,,,475270,475269.59999990463,472684.894,472698.09999990463,472706.858,475278.781,8,400,,,
trial,html.Screen,4_113_0,2023-05-01T21:09:20.315Z,,0,3,,2428.618999976141,response,ISIC_8521610.JPG,,ISIC_0026207.JPG,ISIC_8521610.JPG,false,1,keypress(m),500,477707.7999999523,477707.39999997616,475260.631,475270.09999990463,475278.781,477724.675,8,400,14,,ISIC_0026207.JPG
break,html.Screen,4_113_1,2023-05-01T21:09:20.316Z,,0,,,NaN,,,,,,false,,,,477709.09999990463,477708.89999997616,,477708.09999990463,,477724.675,8,400,,,
break_continue,html.Screen,4_113_2,2023-05-01T21:09:20.317Z,,0,,,NaN,,,,,,false,,,,477709.39999997616,477709.2999999523,,477709.1999999285,,477724.675,8,400,,,
sequence,flow.Sequence,4_113,2023-05-01T21:09:20.317Z,,0,,,2430.518999952299,completion,,,,,false,,,,477709.5,477709.2999999523,475260.631,475270.09999990463,475278.781,477724.675,8,400,,,
trial,html.Screen,4_114_0,2023-05-01T21:09:23.439Z,,0,3,,3106.8250000000116,response,ISIC_5754070.JPG,,ISIC_8664718.JPG,ISIC_5754070.JPG,false,1,keypress(m),500,480831.89999997616,480831.5,477707.785,477709.59999990463,477724.675,480842.151,8,400,15,,ISIC_8664718.JPG
break,html.Screen,4_114_1,2023-05-01T21:09:23.440Z,,0,,,NaN,,,,,,false,,,,480833,480832.7999999523,,480832.09999990463,,480842.151,8,400,,,
break_continue,html.Screen,4_114_2,2023-05-01T21:09:23.441Z,,0,,,NaN,,,,,,false,,,,480833.5,480833.2999999523,,480833.1999999285,,480842.151,8,400,,,
sequence,flow.Sequence,4_114,2023-05-01T21:09:23.441Z,,0,,,3108.624999952328,completion,,,,,false,,,,480833.6999999285,480833.2999999523,477707.785,477709.59999990463,477724.675,480842.151,8,400,,,
trial,html.Screen,4_115_0,2023-05-01T21:09:26.098Z,,0,3,,2648.6489999523037,response,ISIC_0061915.JPG,,ISIC_0011799.JPG,ISIC_0061915.JPG,false,1,keypress(m),500,483491.09999990463,483490.7999999523,480827.065,480833.7999999523,480842.151,483501.344,8,400,16,,ISIC_0011799.JPG
break,html.Screen,4_115_1,2023-05-01T21:09:26.099Z,,0,,,NaN,,,,,,false,,,,483491.89999997616,483491.6999999285,,483491.2999999523,,483501.344,8,400,,,
break_continue,html.Screen,4_115_2,2023-05-01T21:09:26.100Z,,0,,,NaN,,,,,,false,,,,483492.39999997616,483492.1999999285,,483492,,483501.344,8,400,,,
sequence,flow.Sequence,4_115,2023-05-01T21:09:26.100Z,,0,,,2650.048999928462,completion,,,,,false,,,,483492.5,483492.1999999285,480827.065,480833.7999999523,480842.151,483501.344,8,400,,,
trial,html.Screen,4_116_0,2023-05-01T21:09:28.693Z,,0,3,,2584.6560000000172,response,ISIC_1504257.JPG,,ISIC_4184050.JPG,ISIC_1504257.JPG,false,1,keypress(m),500,486086.1999999285,486086,483483.698,483492.6999999285,483501.344,486096.586,8,400,17,,ISIC_4184050.JPG
break,html.Screen,4_116_1,2023-05-01T21:09:28.694Z,,0,,,NaN,,,,,,false,,,,486087.09999990463,486086.89999997616,,486086.5,,486096.586,8,400,,,
break_continue,html.Screen,4_116_2,2023-05-01T21:09:28.695Z,,0,,,NaN,,,,,,false,,,,486087.5,486087.39999997616,,486087.1999999285,,486096.586,8,400,,,
sequence,flow.Sequence,4_116,2023-05-01T21:09:28.695Z,,0,,,2586.0559999761754,completion,,,,,false,,,,486087.59999990463,486087.39999997616,483483.698,483492.59999990463,483501.344,486096.586,8,400,,,
trial,html.Screen,4_117_0,2023-05-01T21:09:31.289Z,,0,3,,2585.313999976148,response,ISIC_3568218.JPG,,ISIC_5765854.JPG,ISIC_5765854.JPG,false,0,keypress(z),500,488682.1999999285,488681.89999997616,486078.983,486087.7999999523,486096.586,488692.484,8,400,18,,ISIC_3568218.JPG
break,html.Screen,4_117_1,2023-05-01T21:09:31.290Z,,0,,,NaN,,,,,,false,,,,488683.09999990463,488682.89999997616,,488682.39999997616,,488692.484,8,400,,,
break_continue,html.Screen,4_117_2,2023-05-01T21:09:31.291Z,,0,,,NaN,,,,,,false,,,,488683.5,488683.39999997616,,488683.2999999523,,488692.484,8,400,,,
sequence,flow.Sequence,4_117,2023-05-01T21:09:31.291Z,,0,,,2586.813999976148,completion,,,,,false,,,,488683.6999999285,488683.39999997616,486078.983,486087.6999999285,486096.586,488692.484,8,400,,,
trial,html.Screen,4_118_0,2023-05-01T21:09:33.821Z,,0,3,,2521.4159999761614,response,ISIC_5354827.JPG,,ISIC_6507492.JPG,ISIC_6507492.JPG,false,0,keypress(z),500,491214.1999999285,491213.89999997616,488674.469,488683.7999999523,488692.484,491229.364,8,400,19,,ISIC_5354827.JPG
break,html.Screen,4_118_1,2023-05-01T21:09:33.822Z,,0,,,NaN,,,,,,false,,,,491215,491214.7999999523,,491214.2999999523,,491229.364,8,400,,,
break_continue,html.Screen,4_118_2,2023-05-01T21:09:33.823Z,,0,,,NaN,,,,,,false,,,,491215.39999997616,491215.2999999523,,491215.1999999285,,491229.364,8,400,,,
sequence,flow.Sequence,4_118,2023-05-01T21:09:33.823Z,,0,,,2522.8159999523195,completion,,,,,false,,,,491215.59999990463,491215.2999999523,488674.469,488683.6999999285,488692.484,491229.364,8,400,,,
trial,html.Screen,4_119_0,2023-05-01T21:09:36.373Z,,0,3,,2535.735999904631,response,ISIC_0058024.JPG,,ISIC_0026103.JPG,ISIC_0058024.JPG,false,1,keypress(m),500,493765.39999997616,493765.09999990463,491212.621,491215.7999999523,491229.364,493776.97,8,400,20,,ISIC_0026103.JPG
break,html.Screen,4_119_1,2023-05-01T21:09:36.373Z,,0,,,NaN,,,,,,false,,,,493766.1999999285,493766.09999990463,,493765.59999990463,,493776.97,8,400,,,
break_continue,html.Screen,4_119_2,2023-05-01T21:09:36.374Z,,0,,,NaN,,,,,,false,,,,493766.6999999285,493766.59999990463,,493766.39999997616,,493776.97,8,400,,,
sequence,flow.Sequence,4_119,2023-05-01T21:09:36.374Z,,0,,,2537.235999904631,completion,,,,,false,,,,493766.7999999523,493766.59999990463,491212.621,491215.7999999523,491229.364,493776.97,8,400,,,
trial,html.Screen,4_120_0,2023-05-01T21:09:39.375Z,,0,3,,2990.329999952344,response,ISIC_0046659.JPG,,ISIC_0014431.JPG,ISIC_0046659.JPG,false,1,keypress(m),500,496767.6999999285,496767.2999999523,493760.26,493766.89999997616,493776.97,496777.675,8,400,21,,ISIC_0014431.JPG
break,html.Screen,4_120_1,2023-05-01T21:09:39.376Z,,0,,,NaN,,,,,,false,,,,496768.5,496768.39999997616,,496767.7999999523,,496777.675,8,400,,,
break_continue,html.Screen,4_120_2,2023-05-01T21:09:39.376Z,,0,,,NaN,,,,,,false,,,,496768.7999999523,496768.6999999285,,496768.59999990463,,496777.675,8,400,,,
sequence,flow.Sequence,4_120,2023-05-01T21:09:39.376Z,,0,,,2991.7299999285024,completion,,,,,false,,,,496768.89999997616,496768.6999999285,493760.26,493766.89999997616,493776.97,496777.675,8,400,,,
trial,html.Screen,4_121_0,2023-05-01T21:09:42.091Z,,0,3,,2705.924999904644,response,ISIC_0028626.JPG,,ISIC_0027993.JPG,ISIC_0028626.JPG,false,1,keypress(m),500,499483.89999997616,499483.59999990463,496763.947,496769,496777.675,499494.332,8,400,22,,ISIC_0027993.JPG
break,html.Screen,4_121_1,2023-05-01T21:09:42.092Z,,0,,,NaN,,,,,,false,,,,499484.89999997616,499484.6999999285,,499484.1999999285,,499494.332,8,400,,,
break_continue,html.Screen,4_121_2,2023-05-01T21:09:42.093Z,,0,,,NaN,,,,,,false,,,,499485.7999999523,499485.59999990463,,499485.09999990463,,499494.332,8,400,,,
sequence,flow.Sequence,4_121,2023-05-01T21:09:42.093Z,,0,,,2707.924999904644,completion,,,,,false,,,,499485.89999997616,499485.59999990463,496763.947,496769,496777.675,499494.332,8,400,,,
trial,html.Screen,4_122_0,2023-05-01T21:09:44.668Z,,0,3,,2566.2679999046377,response,ISIC_0046596.JPG,,ISIC_7218890.JPG,ISIC_7218890.JPG,false,0,keypress(z),500,502060.7999999523,502060.59999990463,499476.494,499486.09999990463,499494.332,502070.963,8,400,23,,ISIC_0046596.JPG
break,html.Screen,4_122_1,2023-05-01T21:09:44.669Z,,0,,,NaN,,,,,,false,,,,502061.89999997616,502061.59999990463,,502061,,502070.963,8,400,,,
break_continue,html.Screen,4_122_2,2023-05-01T21:09:44.669Z,,0,,,NaN,,,,,,false,,,,502062.1999999285,502062.1999999285,,502062,,502070.963,8,400,,,
sequence,flow.Sequence,4_122,2023-05-01T21:09:44.670Z,,0,,,2567.8679999284795,completion,,,,,false,,,,502062.5,502062.1999999285,499476.494,499486,499494.332,502070.963,8,400,,,
trial,html.Screen,4_123_0,2023-05-01T21:09:47.783Z,,0,3,,3104.3369999523275,response,ISIC_0034207.JPG,,ISIC_0001148.JPG,ISIC_0034207.JPG,false,1,keypress(m),500,505175.59999990463,505175.2999999523,502052.654,502062.59999990463,502070.963,505181.254,8,400,24,,ISIC_0001148.JPG
break,html.Screen,4_123_1,2023-05-01T21:09:47.784Z,,0,,,NaN,,,,,,false,,,,505176.5,505176.39999997616,,505175.7999999523,,505181.254,8,400,,,
break_continue,html.Screen,4_123_2,2023-05-01T21:09:47.784Z,,0,,,NaN,,,,,,false,,,,505177,505176.89999997616,,505176.6999999285,,505181.254,8,400,,,
sequence,flow.Sequence,4_123,2023-05-01T21:09:47.784Z,,0,,,3105.9369999761693,completion,,,,,false,,,,505177.09999990463,505176.89999997616,502052.654,502062.5,502070.963,505181.254,8,400,,,
trial,html.Screen,4_124_0,2023-05-01T21:09:50.416Z,,0,3,,2627.7459999999846,response,ISIC_0360367.JPG,,ISIC_0033621.JPG,ISIC_0033621.JPG,false,0,keypress(z),500,507809.2999999523,507809,505166.743,505177.1999999285,505181.254,507819.388,8,400,25,,ISIC_0360367.JPG
break,html.Screen,4_124_1,2023-05-01T21:09:50.417Z,,0,,,NaN,,,,,,false,,,,507810.1999999285,507810,,507809.5,,507819.388,8,400,,,
break_continue,html.Screen,4_124_2,2023-05-01T21:09:50.418Z,,0,,,NaN,,,,,,false,,,,507810.89999997616,507810.7999999523,,507810.6999999285,,507819.388,8,400,,,
sequence,flow.Sequence,4_124,2023-05-01T21:09:50.418Z,,0,,,2629.545999952301,completion,,,,,false,,,,507811.09999990463,507810.7999999523,505166.743,505177.1999999285,505181.254,507819.388,8,400,,,
trial,html.Screen,4_125_0,2023-05-01T21:09:53.032Z,,0,3,,2605.011999976181,response,ISIC_6260969.JPG,,ISIC_0033333.JPG,ISIC_6260969.JPG,false,1,keypress(m),500,510424.59999990463,510424.39999997616,507800.185,507811.1999999285,507819.388,510434.94,8,400,26,,ISIC_0033333.JPG
break,html.Screen,4_125_1,2023-05-01T21:09:53.032Z,,0,,,NaN,,,,,,false,,,,510425.59999990463,510425.2999999523,,510424.7999999523,,510434.94,8,400,,,
