sender,sender_type,sender_id,timestamp,meta,,blockNo,condition,duration,ended_on,img_left,img_reveal,img_right,loser,practice,response,response_action,selection_duration,time_commit,time_end,time_render,time_run,time_show,time_switch,total_blocks,total_trials,trialNo,url,winner
informed_consent,html.Screen,0,2023-05-01T21:42:47.208Z,"{""labjs_version"":""20.2.4"",""labjs_build"":{""flavor"":""production"",""commit"":""f5b4a49f956347addd546a832a3327688c2c0fef""},""location"":""https://run.pavlovia.org/MurrayBennett/melanoma-2afc/?participant=64627"",""userAgent"":""Mozilla/5.0 (Macintosh; Intel Mac OS X 10_15_7) AppleWebKit/537.36 (KHTML, like Gecko) Chrome/109.0.0.0 Safari/537.36"",""platform"":""MacIntel"",""language"":""en-US"",""locale"":""en-US"",""timeZone"":""America/Chicago"",""timezoneOffset"":300,""screen_width"":1440,""screen_height"":900,""scroll_width"":1440,""scroll_height"":655,""window_innerWidth"":1440,""window_innerHeight"":703,""devicePixelRatio"":2}",,,,3821.7429999046326,response,,,,,,consent,click button,,5529.299999952316,5522.099999904633,1683.691,1691.5,1700.357,5533.537,,,,"{""participant"":""64627""}",
Welcome,html.Screen,1,2023-05-01T21:42:49.156Z,,,,regular,1938.3630000953672,response,,,,,,continue,click button,,7477.200000047684,7471.900000095367,5516.871,5529.400000095367,5533.537,7484.236,,,,,
trial,html.Screen,2_0_0,2023-05-01T21:43:00.648Z,,0,0,,11517.096999999998,timeout,ISIC_0061792.JPG,,ISIC_4679428.JPG,,true,,,500,18969.400000095367,18969.200000047684,7467.57,7477.400000095367,7484.236,19001.333,1,6,1,,
sequence,flow.Sequence,2_0,2023-05-01T21:43:00.648Z,,0,,,11484.964000047683,completion,,,,,true,,,,18969.599999904633,18969.200000047684,7467.57,7477.299999952316,7484.236,19001.333,1,6,,,
trial,html.Screen,2_1_0,2023-05-01T21:43:12.164Z,,0,0,,11517.027000000002,timeout,ISIC_0776486.JPG,,ISIC_5199497.JPG,,true,,,500,30485.900000095367,30485.700000047684,18983.776,18969.599999904633,19001.333,30518.36,1,6,2,,
sequence,flow.Sequence,2_1,2023-05-01T21:43:12.165Z,,0,,,11484.367000047685,completion,,,,,true,,,,30486,30485.700000047684,18983.776,18969.599999904633,19001.333,30518.36,1,6,,,
trial,html.Screen,2_2_0,2023-05-01T21:43:23.681Z,,0,0,,11516.205999999998,timeout,ISIC_2556187.JPG,,ISIC_8575776.JPG,,true,,,500,42003.200000047684,42003,30500.873,30486,30518.36,42034.566,1,6,3,,
sequence,flow.Sequence,2_2,2023-05-01T21:43:23.682Z,,0,,,11484.64,completion,,,,,true,,,,42003.299999952316,42003,30500.873,30486,30518.36,42034.566,1,6,,,
trial,html.Screen,2_3_0,2023-05-01T21:43:27.576Z,,0,0,,3862.634000047685,response,ISIC_8141769.JPG,,ISIC_9238366.JPG,ISIC_9238366.JPG,true,0,keypress(z),500,45897.700000047684,45897.200000047684,42017.9,42003.299999952316,42034.566,45901.898,1,6,4,,ISIC_8141769.JPG
sequence,flow.Sequence,2_3,2023-05-01T21:43:27.577Z,,0,,,3862.634000047685,completion,,,,,true,,,,45898.299999952316,45897.200000047684,42017.9,42003.299999952316,42034.566,45901.898,1,6,,,
trial,html.Screen,2_4_0,2023-05-01T21:43:30.518Z,,0,0,,2937.0020000953664,response,ISIC_8949026.JPG,,ISIC_9959593.JPG,ISIC_8949026.JPG,true,1,keypress(m),500,48839.59999990463,48838.90000009537,45885.232,45898.59999990463,45901.898,48851.78,1,6,5,,ISIC_9959593.JPG
sequence,flow.Sequence,2_4,2023-05-01T21:43:30.518Z,,0,,,2937.0020000953664,completion,,,,,true,,,,48840.09999990463,48838.90000009537,45885.232,45898.5,45901.898,48851.78,1,6,,,
trial,html.Screen,2_5_0,2023-05-01T21:43:34.326Z,,0,0,,3795.5199999523174,response,ISIC_0010479.JPG,,ISIC_0460240.JPG,ISIC_0460240.JPG,true,0,keypress(z),500,52647.799999952316,52647.299999952316,48835.114,48840.40000009537,48851.78,52652.346,1,6,6,,ISIC_0010479.JPG
sequence,flow.Sequence,2_5,2023-05-01T21:43:34.326Z,,0,,,3795.5199999523174,completion,,,,,true,,,,52648.200000047684,52647.299999952316,48835.114,48840.200000047684,48851.78,52652.346,1,6,,,
loop,flow.Loop,2,2023-05-01T21:43:34.327Z,,,,,45163.06399995232,completion,,,,,true,,,,52648.5,52647.299999952316,7467.57,7477.299999952316,7484.236,52652.346,1,6,,,
exp_instructions,html.Screen,3,2023-05-01T21:43:38.886Z,,,,,4548.854000047686,response,,,,,,continue,keypress(Space),,57208.40000009537,57201.200000047684,52635.68,52648.700000047684,52652.346,57218.83,,,,,
trial,html.Screen,4_0_0,2023-05-01T21:43:42.526Z,,0,1,,3628.870000047682,response,ISIC_0001157.JPG,,ISIC_0375034.JPG,ISIC_0375034.JPG,false,0,keypress(z),500,60848.200000047684,60847.700000047684,57202.164,57208.799999952316,57218.83,60852.018,8,400,1,,ISIC_0001157.JPG
break,html.Screen,4_0_1,2023-05-01T21:43:42.527Z,,0,,,NaN,,,,,,false,,,,60849.299999952316,60849.09999990463,,60848.299999952316,,60852.018,8,400,,,
break_continue,html.Screen,4_0_2,2023-05-01T21:43:42.528Z,,0,,,NaN,,,,,,false,,,,60849.799999952316,60849.700000047684,,60849.5,,60852.018,8,400,,,
sequence,flow.Sequence,4_0,2023-05-01T21:43:42.528Z,,0,,,3630.870000047682,completion,,,,,false,,,,60850,60849.700000047684,57202.164,57208.799999952316,57218.83,60852.018,8,400,,,
trial,html.Screen,4_1_0,2023-05-01T21:43:45.094Z,,0,1,,2563.581999904636,response,ISIC_1226440.JPG,,ISIC_0055435.JPG,ISIC_1226440.JPG,false,1,keypress(m),500,63416.200000047684,63415.59999990463,60835.352,60850.09999990463,60852.018,63419.312,8,400,2,,ISIC_0055435.JPG
break,html.Screen,4_1_1,2023-05-01T21:43:45.096Z,,0,,,NaN,,,,,,false,,,,63417.799999952316,63417.5,,63416.5,,63419.312,8,400,,,
break_continue,html.Screen,4_1_2,2023-05-01T21:43:45.096Z,,0,,,NaN,,,,,,false,,,,63418.40000009537,63418.299999952316,,63418.09999990463,,63419.312,8,400,,,
sequence,flow.Sequence,4_1,2023-05-01T21:43:45.097Z,,0,,,2566.28199995232,completion,,,,,false,,,,63418.59999990463,63418.299999952316,60835.352,60850.09999990463,60852.018,63419.312,8,400,,,
trial,html.Screen,4_2_0,2023-05-01T21:43:48.278Z,,0,1,,3180.188000000002,response,ISIC_0011753.JPG,,ISIC_8306983.JPG,ISIC_0011753.JPG,false,1,keypress(m),500,66600.09999990463,66599.5,63402.646,63418.799999952316,63419.312,66602.518,8,400,3,,ISIC_8306983.JPG
break,html.Screen,4_2_1,2023-05-01T21:43:48.280Z,,0,,,NaN,,,,,,false,,,,66601.70000004768,66601.40000009537,,66600.40000009537,,66602.518,8,400,,,
break_continue,html.Screen,4_2_2,2023-05-01T21:43:48.280Z,,0,,,NaN,,,,,,false,,,,66602.20000004768,66602,,66601.79999995232,,66602.518,8,400,,,
sequence,flow.Sequence,4_2,2023-05-01T21:43:48.280Z,,0,,,3182.688000000002,completion,,,,,false,,,,66602.29999995232,66602,63402.646,63418.700000047684,63419.312,66602.518,8,400,,,
trial,html.Screen,4_3_0,2023-05-01T21:43:50.782Z,,0,1,,2501.081999904636,response,ISIC_0072582.JPG,,ISIC_1091626.JPG,ISIC_0072582.JPG,false,1,keypress(m),500,69104.09999990463,69103.59999990463,66585.852,66602.59999990463,66602.518,69119.084,8,400,4,,ISIC_1091626.JPG
break,html.Screen,4_3_1,2023-05-01T21:43:50.784Z,,0,,,NaN,,,,,,false,,,,69105.70000004768,69105.5,,69104.59999990463,,69119.084,8,400,,,
break_continue,html.Screen,4_3_2,2023-05-01T21:43:50.784Z,,0,,,NaN,,,,,,false,,,,69106.09999990463,69106,,69105.79999995232,,69119.084,8,400,,,
sequence,flow.Sequence,4_3,2023-05-01T21:43:50.784Z,,0,,,2503.4820000000036,completion,,,,,false,,,,69106.29999995232,69106,66585.852,66602.5,66602.518,69119.084,8,400,,,
trial,html.Screen,4_4_0,2023-05-01T21:43:52.798Z,,0,1,,2000.1160000476812,response,ISIC_4876193.JPG,,ISIC_0058428.JPG,ISIC_4876193.JPG,false,1,keypress(m),500,71119.79999995232,71119.20000004768,69102.418,69106.40000009537,69119.084,71135.67,8,400,5,,ISIC_0058428.JPG
break,html.Screen,4_4_1,2023-05-01T21:43:52.799Z,,0,,,NaN,,,,,,false,,,,71121.29999995232,71121,,71120.09999990463,,71135.67,8,400,,,
break_continue,html.Screen,4_4_2,2023-05-01T21:43:52.800Z,,0,,,NaN,,,,,,false,,,,71121.79999995232,71121.70000004768,,71121.40000009537,,71135.67,8,400,,,
sequence,flow.Sequence,4_4,2023-05-01T21:43:52.800Z,,0,,,2002.6160000476812,completion,,,,,false,,,,71122,71121.70000004768,69102.418,69106.40000009537,69119.084,71135.67,8,400,,,
trial,html.Screen,4_5_0,2023-05-01T21:43:54.869Z,,0,1,,2055.5300000476855,response,ISIC_7462746.JPG,,ISIC_0012653.JPG,ISIC_7462746.JPG,false,1,keypress(m),500,73191.70000004768,73191.20000004768,71119.004,71122.09999990463,71135.67,73202.988,8,400,6,,ISIC_0012653.JPG
break,html.Screen,4_5_1,2023-05-01T21:43:54.871Z,,0,,,NaN,,,,,,false,,,,73193.20000004768,73192.90000009537,,73192,,73202.988,8,400,,,
break_continue,html.Screen,4_5_2,2023-05-01T21:43:54.871Z,,0,,,NaN,,,,,,false,,,,73193.70000004768,73193.59999990463,,73193.40000009537,,73202.988,8,400,,,
sequence,flow.Sequence,4_5,2023-05-01T21:43:54.872Z,,0,,,2057.9299999046343,completion,,,,,false,,,,73194,73193.59999990463,71119.004,71122,71135.67,73202.988,8,400,,,
trial,html.Screen,4_6_0,2023-05-01T21:43:56.959Z,,0,1,,2077.712000047686,response,ISIC_1805602.JPG,,ISIC_0567814.JPG,ISIC_1805602.JPG,false,1,keypress(m),500,75281.09999990463,75280.70000004768,73186.322,73194.09999990463,73202.988,75286.238,8,400,7,,ISIC_0567814.JPG
break,html.Screen,4_6_1,2023-05-01T21:43:56.960Z,,0,,,NaN,,,,,,false,,,,75282.29999995232,75282.09999990463,,75281.40000009537,,75286.238,8,400,,,
break_continue,html.Screen,4_6_2,2023-05-01T21:43:56.960Z,,0,,,NaN,,,,,,false,,,,75282.59999990463,75282.59999990463,,75282.40000009537,,75286.238,8,400,,,
sequence,flow.Sequence,4_6,2023-05-01T21:43:56.960Z,,0,,,2079.611999904635,completion,,,,,false,,,,75282.79999995232,75282.59999990463,73186.322,73194,73202.988,75286.238,8,400,,,
trial,html.Screen,4_7_0,2023-05-01T21:43:58.982Z,,0,1,,2017.5619999523187,response,ISIC_0031807.JPG,,ISIC_4634128.JPG,ISIC_0031807.JPG,false,1,keypress(m),500,77304.29999995232,77303.79999995232,75269.572,75282.79999995232,75286.238,77319.49,8,400,8,,ISIC_4634128.JPG
break,html.Screen,4_7_1,2023-05-01T21:43:58.983Z,,0,,,NaN,,,,,,false,,,,77305.70000004768,77305.40000009537,,77304.5,,77319.49,8,400,,,
break_continue,html.Screen,4_7_2,2023-05-01T21:43:58.984Z,,0,,,NaN,,,,,,false,,,,77306,77306,,77305.79999995232,,77319.49,8,400,,,
sequence,flow.Sequence,4_7,2023-05-01T21:43:58.984Z,,0,,,2019.7620000000024,completion,,,,,false,,,,77306.20000004768,77306,75269.572,75282.79999995232,75286.238,77319.49,8,400,,,
trial,html.Screen,4_8_0,2023-05-01T21:44:01.068Z,,0,1,,2070.5099999999948,response,ISIC_2159510.JPG,,ISIC_3530422.JPG,ISIC_3530422.JPG,false,0,keypress(z),500,79390.5,79390,77302.824,77306.29999995232,77319.49,79402.74,8,400,9,,ISIC_2159510.JPG
break,html.Screen,4_8_1,2023-05-01T21:44:01.070Z,,0,,,NaN,,,,,,false,,,,79392,79391.70000004768,,79390.79999995232,,79402.74,8,400,,,
break_continue,html.Screen,4_8_2,2023-05-01T21:44:01.070Z,,0,,,NaN,,,,,,false,,,,79392.5,79392.29999995232,,79392.20000004768,,79402.74,8,400,,,
sequence,flow.Sequence,4_8,2023-05-01T21:44:01.070Z,,0,,,2072.809999952311,completion,,,,,false,,,,79392.79999995232,79392.29999995232,77302.824,77306.29999995232,77319.49,79402.74,8,400,,,
trial,html.Screen,4_9_0,2023-05-01T21:44:03.125Z,,0,1,,2044.7599999999948,response,ISIC_2935987.JPG,,ISIC_0032162.JPG,ISIC_0032162.JPG,false,1,keypress(m),500,81447.90000009537,81447.5,79386.074,79392.90000009537,79402.74,81469.324,8,400,10,,ISIC_2935987.JPG
break,html.Screen,4_9_1,2023-05-01T21:44:03.127Z,,0,,,NaN,,,,,,false,,,,81449.09999990463,81448.90000009537,,81448.09999990463,,81469.324,8,400,,,
break_continue,html.Screen,4_9_2,2023-05-01T21:44:03.127Z,,0,,,NaN,,,,,,false,,,,81449.5,81449.5,,81449.29999995232,,81469.324,8,400,,,
sequence,flow.Sequence,4_9,2023-05-01T21:44:03.127Z,,0,,,2046.7599999999948,completion,,,,,false,,,,81449.70000004768,81449.5,79386.074,79392.79999995232,79402.74,81469.324,8,400,,,
trial,html.Screen,4_10_0,2023-05-01T21:44:05.445Z,,0,1,,2297.7759999046393,response,ISIC_0060326.JPG,,ISIC_6487069.JPG,ISIC_0060326.JPG,false,0,keypress(z),500,83767.5,83767.09999990463,81452.658,81449.70000004768,81469.324,83769.972,8,400,11,,ISIC_6487069.JPG
break,html.Screen,4_10_1,2023-05-01T21:44:05.447Z,,0,,,NaN,,,,,,false,,,,83769,83768.79999995232,,83767.79999995232,,83769.972,8,400,,,
break_continue,html.Screen,4_10_2,2023-05-01T21:44:05.447Z,,0,,,NaN,,,,,,false,,,,83769.5,83769.40000009537,,83769.20000004768,,83769.972,8,400,,,
sequence,flow.Sequence,4_10,2023-05-01T21:44:05.447Z,,0,,,2300.076000095374,completion,,,,,false,,,,83769.59999990463,83769.40000009537,81452.658,81449.70000004768,81469.324,83769.972,8,400,,,
trial,html.Screen,4_11_0,2023-05-01T21:44:07.781Z,,0,1,,2333.0280000000057,response,ISIC_0000040.JPG,,ISIC_6486856.JPG,ISIC_6486856.JPG,false,0,keypress(z),500,86103.5,86103,83753.306,83769.79999995232,83769.972,86119.878,8,400,12,,ISIC_0000040.JPG
break,html.Screen,4_11_1,2023-05-01T21:44:07.782Z,,0,,,NaN,,,,,,false,,,,86105,86104.70000004768,,86103.90000009537,,86119.878,8,400,,,
break_continue,html.Screen,4_11_2,2023-05-01T21:44:07.783Z,,0,,,NaN,,,,,,false,,,,86105.40000009537,86105.29999995232,,86105.09999990463,,86119.878,8,400,,,
sequence,flow.Sequence,4_11,2023-05-01T21:44:07.783Z,,0,,,2335.327999952322,completion,,,,,false,,,,86105.59999990463,86105.29999995232,83753.306,83769.70000004768,83769.972,86119.878,8,400,,,
trial,html.Screen,4_12_0,2023-05-01T21:44:10.013Z,,0,1,,2215.122000000003,response,ISIC_0059632.JPG,,ISIC_4984668.JPG,ISIC_0059632.JPG,false,0,keypress(z),500,88335.40000009537,88335,86103.212,86105.70000004768,86119.878,88336.456,8,400,13,,ISIC_4984668.JPG
break,html.Screen,4_12_1,2023-05-01T21:44:10.014Z,,0,,,NaN,,,,,,false,,,,88337.09999990463,88336.79999995232,,88335.79999995232,,88336.456,8,400,,,
break_continue,html.Screen,4_12_2,2023-05-01T21:44:10.015Z,,0,,,NaN,,,,,,false,,,,88337.5,88337.29999995232,,88337.20000004768,,88336.456,8,400,,,
sequence,flow.Sequence,4_12,2023-05-01T21:44:10.015Z,,0,,,2217.4219999523193,completion,,,,,false,,,,88337.59999990463,88337.29999995232,86103.212,86105.70000004768,86119.878,88336.456,8,400,,,
trial,html.Screen,4_13_0,2023-05-01T21:44:12.076Z,,0,1,,2062.143999904627,response,ISIC_4559115.JPG,,ISIC_4363398.JPG,ISIC_4559115.JPG,false,0,keypress(z),500,90399,90398.59999990463,88319.79,88337.79999995232,88336.456,90403.04,8,400,14,,ISIC_4363398.JPG
break,html.Screen,4_13_1,2023-05-01T21:44:12.078Z,,0,,,NaN,,,,,,false,,,,90400.70000004768,90400.29999995232,,90399.40000009537,,90403.04,8,400,,,
break_continue,html.Screen,4_13_2,2023-05-01T21:44:12.079Z,,0,,,NaN,,,,,,false,,,,90401.09999990463,90401,,90400.79999995232,,90403.04,8,400,,,
sequence,flow.Sequence,4_13,2023-05-01T21:44:12.079Z,,0,,,2064.5439999999944,completion,,,,,false,,,,90401.29999995232,90401,88319.79,88337.79999995232,88336.456,90403.04,8,400,,,
trial,html.Screen,4_14_0,2023-05-01T21:44:14.149Z,,0,1,,2067.9600000000064,response,ISIC_0065260.JPG,,ISIC_0009971.JPG,ISIC_0065260.JPG,false,0,keypress(z),500,92471.59999990463,92471,90386.374,90401.5,90403.04,92486.29,8,400,15,,ISIC_0009971.JPG
break,html.Screen,4_14_1,2023-05-01T21:44:14.150Z,,0,,,NaN,,,,,,false,,,,92472.90000009537,92472.70000004768,,92471.90000009537,,92486.29,8,400,,,
break_continue,html.Screen,4_14_2,2023-05-01T21:44:14.151Z,,0,,,NaN,,,,,,false,,,,92473.40000009537,92473.29999995232,,92473.09999990463,,92486.29,8,400,,,
sequence,flow.Sequence,4_14,2023-05-01T21:44:14.151Z,,0,,,2070.2599999523227,completion,,,,,false,,,,92473.59999990463,92473.29999995232,90386.374,90401.5,90403.04,92486.29,8,400,,,
trial,html.Screen,4_15_0,2023-05-01T21:44:16.366Z,,0,1,,2201.41000004769,response,ISIC_7413786.JPG,,ISIC_7231192.JPG,ISIC_7231192.JPG,false,1,keypress(m),500,94688.20000004768,94687.70000004768,92469.624,92473.79999995232,92486.29,94703.622,8,400,16,,ISIC_7413786.JPG
break,html.Screen,4_15_1,2023-05-01T21:44:16.367Z,,0,,,NaN,,,,,,false,,,,94689.79999995232,94689.59999990463,,94688.5,,94703.622,8,400,,,
break_continue,html.Screen,4_15_2,2023-05-01T21:44:16.368Z,,0,,,NaN,,,,,,false,,,,94690.20000004768,94690.09999990463,,94690,,94703.622,8,400,,,
sequence,flow.Sequence,4_15,2023-05-01T21:44:16.368Z,,0,,,2203.809999904639,completion,,,,,false,,,,94690.5,94690.09999990463,92469.624,92473.70000004768,92486.29,94703.622,8,400,,,
trial,html.Screen,4_16_0,2023-05-01T21:44:18.566Z,,0,1,,2184.2780000953644,response,ISIC_0028505.JPG,,ISIC_0061092.JPG,ISIC_0028505.JPG,false,0,keypress(z),500,96888.29999995232,96887.90000009537,94686.956,94690.5,94703.622,96903.534,8,400,17,,ISIC_0061092.JPG
break,html.Screen,4_16_1,2023-05-01T21:44:18.567Z,,0,,,NaN,,,,,,false,,,,96890,96889.70000004768,,96888.70000004768,,96903.534,8,400,,,
break_continue,html.Screen,4_16_2,2023-05-01T21:44:18.568Z,,0,,,NaN,,,,,,false,,,,96890.5,96890.29999995232,,96890.20000004768,,96903.534,8,400,,,
sequence,flow.Sequence,4_16,2023-05-01T21:44:18.568Z,,0,,,2186.6779999523133,completion,,,,,false,,,,96890.59999990463,96890.29999995232,94686.956,94690.5,94703.622,96903.534,8,400,,,
trial,html.Screen,4_17_0,2023-05-01T21:44:20.796Z,,0,1,,2215.065999904633,response,ISIC_0033233.JPG,,ISIC_0030616.JPG,ISIC_0033233.JPG,false,1,keypress(m),500,99119,99118.59999990463,96886.868,96890.79999995232,96903.534,99120.112,8,400,18,,ISIC_0030616.JPG
break,html.Screen,4_17_1,2023-05-01T21:44:20.797Z,,0,,,NaN,,,,,,false,,,,99120.29999995232,99120,,99119.29999995232,,99120.112,8,400,,,
break_continue,html.Screen,4_17_2,2023-05-01T21:44:20.798Z,,0,,,NaN,,,,,,false,,,,99120.70000004768,99120.5,,99120.29999995232,,99120.112,8,400,,,
sequence,flow.Sequence,4_17,2023-05-01T21:44:20.798Z,,0,,,2216.9660000000003,completion,,,,,false,,,,99121,99120.5,96886.868,96890.70000004768,96903.534,99120.112,8,400,,,
trial,html.Screen,4_18_0,2023-05-01T21:44:23.349Z,,0,1,,2551.2880000953737,response,ISIC_8462070.JPG,,ISIC_0033075.JPG,ISIC_0033075.JPG,false,0,keypress(z),500,101671.79999995232,101671.40000009537,99103.446,99121,99120.112,101686.676,8,400,19,,ISIC_8462070.JPG
break,html.Screen,4_18_1,2023-05-01T21:44:23.351Z,,0,,,NaN,,,,,,false,,,,101673.40000009537,101673.09999990463,,101672.20000004768,,101686.676,8,400,,,
break_continue,html.Screen,4_18_2,2023-05-01T21:44:23.351Z,,0,,,NaN,,,,,,false,,,,101673.79999995232,101673.70000004768,,101673.5,,101686.676,8,400,,,
sequence,flow.Sequence,4_18,2023-05-01T21:44:23.351Z,,0,,,2553.58800004769,completion,,,,,false,,,,101674.09999990463,101673.70000004768,99103.446,99121,99120.112,101686.676,8,400,,,
trial,html.Screen,4_19_0,2023-05-01T21:44:25.813Z,,0,1,,2448.3239999999932,response,ISIC_5797942.JPG,,ISIC_9556334.JPG,ISIC_5797942.JPG,false,1,keypress(m),500,104135.59999990463,104135,101670.01,101674.20000004768,101686.676,104137.309,8,400,20,,ISIC_9556334.JPG
break,html.Screen,4_19_1,2023-05-01T21:44:25.814Z,,0,,,NaN,,,,,,false,,,,104137.09999990463,104136.90000009537,,104135.90000009537,,104137.309,8,400,,,
break_continue,html.Screen,4_19_2,2023-05-01T21:44:25.815Z,,0,,,NaN,,,,,,false,,,,104137.59999990463,104137.5,,104137.29999995232,,104137.309,8,400,,,
sequence,flow.Sequence,4_19,2023-05-01T21:44:25.815Z,,0,,,2450.8239999999932,completion,,,,,false,,,,104137.79999995232,104137.5,101670.01,101674.09999990463,101686.676,104137.309,8,400,,,
trial,html.Screen,4_20_0,2023-05-01T21:44:27.949Z,,0,1,,2134.0910000953736,response,ISIC_6357263.JPG,,ISIC_0218575.JPG,ISIC_0218575.JPG,false,1,keypress(m),500,106272,106271.40000009537,104120.643,104137.90000009537,104137.309,106287.223,8,400,21,,ISIC_6357263.JPG
break,html.Screen,4_20_1,2023-05-01T21:44:27.951Z,,0,,,NaN,,,,,,false,,,,106273.59999990463,106273.29999995232,,106272.29999995232,,106287.223,8,400,,,
break_continue,html.Screen,4_20_2,2023-05-01T21:44:27.951Z,,0,,,NaN,,,,,,false,,,,106274,106273.90000009537,,106273.59999990463,,106287.223,8,400,,,
sequence,flow.Sequence,4_20,2023-05-01T21:44:27.951Z,,0,,,2136.5910000953736,completion,,,,,false,,,,106274.20000004768,106273.90000009537,104120.643,104137.90000009537,104137.309,106287.223,8,400,,,
trial,html.Screen,4_21_0,2023-05-01T21:44:29.990Z,,0,1,,2025.3769999046344,response,ISIC_0032029.JPG,,ISIC_0277705.JPG,ISIC_0032029.JPG,false,0,keypress(z),500,108312.79999995232,108312.59999990463,106270.557,106274.40000009537,106287.223,108320.475,8,400,22,,ISIC_0277705.JPG
break,html.Screen,4_21_1,2023-05-01T21:44:29.991Z,,0,,,NaN,,,,,,false,,,,108313.5,108313.40000009537,,108313,,108320.475,8,400,,,
break_continue,html.Screen,4_21_2,2023-05-01T21:44:29.991Z,,0,,,NaN,,,,,,false,,,,108313.79999995232,108313.70000004768,,108313.59999990463,,108320.475,8,400,,,
sequence,flow.Sequence,4_21,2023-05-01T21:44:29.991Z,,0,,,2026.4770000476856,completion,,,,,false,,,,108313.90000009537,108313.70000004768,106270.557,106274.29999995232,106287.223,108320.475,8,400,,,
trial,html.Screen,4_22_0,2023-05-01T21:44:32.015Z,,0,1,,2016.9250000953616,response,ISIC_0000056.JPG,,ISIC_0640770.JPG,ISIC_0000056.JPG,false,1,keypress(m),500,110337.79999995232,110337.40000009537,108303.809,108313.90000009537,108320.475,110337.061,8,400,23,,ISIC_0640770.JPG
break,html.Screen,4_22_1,2023-05-01T21:44:32.016Z,,0,,,NaN,,,,,,false,,,,110338.79999995232,110338.59999990463,,110338,,110337.061,8,400,,,
break_continue,html.Screen,4_22_2,2023-05-01T21:44:32.016Z,,0,,,NaN,,,,,,false,,,,110339.09999990463,110339,,110338.90000009537,,110337.061,8,400,,,
sequence,flow.Sequence,4_22,2023-05-01T21:44:32.016Z,,0,,,2018.5249999999942,completion,,,,,false,,,,110339.20000004768,110339,108303.809,108313.90000009537,108320.475,110337.061,8,400,,,
trial,html.Screen,4_23_0,2023-05-01T21:44:34.164Z,,0,1,,2149.038999904631,response,ISIC_0033589.JPG,,ISIC_0061625.JPG,ISIC_0033589.JPG,false,1,keypress(m),500,112486.59999990463,112486.09999990463,110320.395,110339.29999995232,110337.061,112503.641,8,400,24,,ISIC_0061625.JPG
break,html.Screen,4_23_1,2023-05-01T21:44:34.165Z,,0,,,NaN,,,,,,false,,,,112488.20000004768,112487.90000009537,,112486.90000009537,,112503.641,8,400,,,
break_continue,html.Screen,4_23_2,2023-05-01T21:44:34.166Z,,0,,,NaN,,,,,,false,,,,112488.79999995232,112488.70000004768,,112488.40000009537,,112503.641,8,400,,,
sequence,flow.Sequence,4_23,2023-05-01T21:44:34.166Z,,0,,,2151.639000047682,completion,,,,,false,,,,112488.90000009537,112488.70000004768,110320.395,110339.29999995232,110337.061,112503.641,8,400,,,
trial,html.Screen,4_24_0,2023-05-01T21:44:36.509Z,,0,1,,2328.3589999999967,response,ISIC_0003168.JPG,,ISIC_4308751.JPG,ISIC_0003168.JPG,false,1,keypress(m),500,114832.5,114832,112486.975,112489.09999990463,112503.641,114837.622,8,400,25,,ISIC_4308751.JPG
break,html.Screen,4_24_1,2023-05-01T21:44:36.510Z,,0,,,NaN,,,,,,false,,,,114833.40000009537,114833.20000004768,,114832.59999990463,,114837.622,8,400,,,
break_continue,html.Screen,4_24_2,2023-05-01T21:44:36.510Z,,0,,,NaN,,,,,,false,,,,114833.59999990463,114833.5,,114833.40000009537,,114837.622,8,400,,,
sequence,flow.Sequence,4_24,2023-05-01T21:44:36.511Z,,0,,,2329.8589999999967,completion,,,,,false,,,,114833.59999990463,114833.5,112486.975,112489.09999990463,112503.641,114837.622,8,400,,,
trial,html.Screen,4_25_0,2023-05-01T21:44:38.492Z,,0,1,,1977.2780000953644,response,ISIC_8027899.JPG,,ISIC_7535412.JPG,ISIC_7535412.JPG,false,1,keypress(m),500,116815.40000009537,116814.90000009537,114820.956,114833.70000004768,114837.622,116820.876,8,400,26,,ISIC_8027899.JPG
break,html.Screen,4_25_1,2023-05-01T21:44:38.493Z,,0,,,NaN,,,,,,false,,,,116816.70000004768,116816.40000009537,,116815.79999995232,,116820.876,8,400,,,
break_continue,html.Screen,4_25_2,2023-05-01T21:44:38.494Z,,0,,,NaN,,,,,,false,,,,116817,116816.90000009537,,116816.70000004768,,116820.876,8,400,,,
sequence,flow.Sequence,4_25,2023-05-01T21:44:38.494Z,,0,,,1979.2780000953644,completion,,,,,false,,,,116817.09999990463,116816.90000009537,114820.956,114833.70000004768,114837.622,116820.876,8,400,,,
trial,html.Screen,4_26_0,2023-05-01T21:44:40.859Z,,0,1,,2360.9239999523124,response,ISIC_0031377.JPG,,ISIC_0025316.JPG,ISIC_0025316.JPG,false,0,keypress(z),500,119182.09999990463,119181.79999995232,116804.21,116817.29999995232,116820.876,119187.448,8,400,27,,ISIC_0031377.JPG
break,html.Screen,4_26_1,2023-05-01T21:44:40.860Z,,0,,,NaN,,,,,,false,,,,119183.09999990463,119182.90000009537,,119182.29999995232,,119187.448,8,400,,,
break_continue,html.Screen,4_26_2,2023-05-01T21:44:40.860Z,,0,,,NaN,,,,,,false,,,,119183.29999995232,119183.29999995232,,119183.20000004768,,119187.448,8,400,,,
sequence,flow.Sequence,4_26,2023-05-01T21:44:40.860Z,,0,,,2362.4239999523124,completion,,,,,false,,,,119183.5,119183.29999995232,116804.21,116817.20000004768,116820.876,119187.448,8,400,,,
trial,html.Screen,4_27_0,2023-05-01T21:44:43.461Z,,0,1,,2596.051999999996,response,ISIC_9197665.JPG,,ISIC_0071132.JPG,ISIC_9197665.JPG,false,1,keypress(m),500,121783.90000009537,121783.5,119170.782,119183.5,119187.448,121804.01,8,400,28,,ISIC_0071132.JPG
break,html.Screen,4_27_1,2023-05-01T21:44:43.462Z,,0,,,NaN,,,,,,false,,,,121785.40000009537,121785.20000004768,,121784.20000004768,,121804.01,8,400,,,
break_continue,html.Screen,4_27_2,2023-05-01T21:44:43.463Z,,0,,,NaN,,,,,,false,,,,121786,121785.79999995232,,121785.5,,121804.01,8,400,,,
sequence,flow.Sequence,4_27,2023-05-01T21:44:43.463Z,,0,,,2598.3519999523123,completion,,,,,false,,,,121786.20000004768,121785.79999995232,119170.782,119183.5,119187.448,121804.01,8,400,,,
trial,html.Screen,4_28_0,2023-05-01T21:44:45.701Z,,0,1,,2219.690000047689,response,ISIC_0032046.JPG,,ISIC_6644659.JPG,ISIC_6644659.JPG,false,0,keypress(z),500,124024.29999995232,124023.70000004768,121787.344,121786.29999995232,121804.01,124037.254,8,400,29,,ISIC_0032046.JPG
break,html.Screen,4_28_1,2023-05-01T21:44:45.703Z,,0,,,NaN,,,,,,false,,,,124025.90000009537,124025.70000004768,,124024.70000004768,,124037.254,8,400,,,
break_continue,html.Screen,4_28_2,2023-05-01T21:44:45.703Z,,0,,,NaN,,,,,,false,,,,124026.29999995232,124026.09999990463,,124026,,124037.254,8,400,,,
sequence,flow.Sequence,4_28,2023-05-01T21:44:45.704Z,,0,,,2222.089999904638,completion,,,,,false,,,,124026.79999995232,124026.09999990463,121787.344,121786.29999995232,121804.01,124037.254,8,400,,,
trial,html.Screen,4_29_0,2023-05-01T21:44:47.932Z,,0,1,,2218.245999999999,response,ISIC_1169724.JPG,,ISIC_0031233.JPG,ISIC_1169724.JPG,false,1,keypress(m),500,126255.79999995232,126255.5,124020.588,124027,124037.254,126271.221,8,400,30,,ISIC_0031233.JPG
break,html.Screen,4_29_1,2023-05-01T21:44:47.933Z,,0,,,NaN,,,,,,false,,,,126256.79999995232,126256.59999990463,,126256.09999990463,,126271.221,8,400,,,
break_continue,html.Screen,4_29_2,2023-05-01T21:44:47.934Z,,0,,,NaN,,,,,,false,,,,126257.09999990463,126257,,126256.90000009537,,126271.221,8,400,,,
sequence,flow.Sequence,4_29,2023-05-01T21:44:47.934Z,,0,,,2219.745999999999,completion,,,,,false,,,,126257.09999990463,126257,124020.588,124026.90000009537,124037.254,126271.221,8,400,,,
trial,html.Screen,4_30_0,2023-05-01T21:44:50.332Z,,0,1,,2383.9790000476787,response,ISIC_0063899.JPG,,ISIC_0001134.JPG,ISIC_0001134.JPG,false,0,keypress(z),500,128655.70000004768,128655.20000004768,126254.555,126257.20000004768,126271.221,128671.125,8,400,31,,ISIC_0063899.JPG
break,html.Screen,4_30_1,2023-05-01T21:44:50.334Z,,0,,,NaN,,,,,,false,,,,128657.29999995232,128656.90000009537,,128656,,128671.125,8,400,,,
break_continue,html.Screen,4_30_2,2023-05-01T21:44:50.334Z,,0,,,NaN,,,,,,false,,,,128657.70000004768,128657.59999990463,,128657.40000009537,,128671.125,8,400,,,
sequence,flow.Sequence,4_30,2023-05-01T21:44:50.335Z,,0,,,2386.3789999046276,completion,,,,,false,,,,128657.90000009537,128657.59999990463,126254.555,126257.20000004768,126271.221,128671.125,8,400,,,
trial,html.Screen,4_31_0,2023-05-01T21:44:52.533Z,,0,1,,2184.4749999046326,response,ISIC_0012810.JPG,,ISIC_0032587.JPG,ISIC_0012810.JPG,false,1,keypress(m),500,130856,130855.59999990463,128654.459,128658.09999990463,128671.125,130871.037,8,400,32,,ISIC_0032587.JPG
break,html.Screen,4_31_1,2023-05-01T21:44:52.534Z,,0,,,NaN,,,,,,false,,,,130857.59999990463,130857.40000009537,,130856.40000009537,,130871.037,8,400,,,
break_continue,html.Screen,4_31_2,2023-05-01T21:44:52.535Z,,0,,,NaN,,,,,,false,,,,130858,130857.90000009537,,130857.79999995232,,130871.037,8,400,,,
sequence,flow.Sequence,4_31,2023-05-01T21:44:52.535Z,,0,,,2186.7750000953674,completion,,,,,false,,,,130858.20000004768,130857.90000009537,128654.459,128658.09999990463,128671.125,130871.037,8,400,,,
trial,html.Screen,4_32_0,2023-05-01T21:44:55.012Z,,0,1,,2463.9630000000034,response,ISIC_2225927.JPG,,ISIC_0000150.JPG,ISIC_2225927.JPG,false,0,keypress(z),500,133335.40000009537,133335,130854.371,130858.29999995232,130871.037,133337.605,8,400,33,,ISIC_0000150.JPG
break,html.Screen,4_32_1,2023-05-01T21:44:55.013Z,,0,,,NaN,,,,,,false,,,,133336.90000009537,133336.70000004768,,133335.79999995232,,133337.605,8,400,,,
break_continue,html.Screen,4_32_2,2023-05-01T21:44:55.014Z,,0,,,NaN,,,,,,false,,,,133337.40000009537,133337.29999995232,,133337.09999990463,,133337.605,8,400,,,
sequence,flow.Sequence,4_32,2023-05-01T21:44:55.014Z,,0,,,2466.2629999523197,completion,,,,,false,,,,133337.59999990463,133337.29999995232,130854.371,130858.20000004768,130871.037,133337.605,8,400,,,
trial,html.Screen,4_33_0,2023-05-01T21:44:57.133Z,,0,1,,2118.194999952306,response,ISIC_0013861.JPG,,ISIC_6673506.JPG,ISIC_0013861.JPG,false,1,keypress(m),500,135456.20000004768,135455.79999995232,133320.939,133337.70000004768,133337.605,135471.592,8,400,34,,ISIC_6673506.JPG
break,html.Screen,4_33_1,2023-05-01T21:44:57.134Z,,0,,,NaN,,,,,,false,,,,135457.5,135457.29999995232,,135456.5,,135471.592,8,400,,,
break_continue,html.Screen,4_33_2,2023-05-01T21:44:57.134Z,,0,,,NaN,,,,,,false,,,,135457.79999995232,135457.79999995232,,135457.59999990463,,135471.592,8,400,,,
sequence,flow.Sequence,4_33,2023-05-01T21:44:57.134Z,,0,,,2120.194999952306,completion,,,,,false,,,,135458,135457.79999995232,133320.939,133337.70000004768,133337.605,135471.592,8,400,,,
trial,html.Screen,4_34_0,2023-05-01T21:44:59.174Z,,0,1,,2025.5079999046284,response,ISIC_0056937.JPG,,ISIC_0063950.JPG,ISIC_0063950.JPG,false,0,keypress(z),500,137497.40000009537,137497.09999990463,135454.926,135458.09999990463,135471.592,137504.844,8,400,35,,ISIC_0056937.JPG
break,html.Screen,4_34_1,2023-05-01T21:44:59.175Z,,0,,,NaN,,,,,,false,,,,137498.20000004768,137498,,137497.5,,137504.844,8,400,,,
break_continue,html.Screen,4_34_2,2023-05-01T21:44:59.175Z,,0,,,NaN,,,,,,false,,,,137498.5,137498.5,,137498.29999995232,,137504.844,8,400,,,
sequence,flow.Sequence,4_34,2023-05-01T21:44:59.175Z,,0,,,2026.9079999999958,completion,,,,,false,,,,137498.59999990463,137498.5,135454.926,135458.09999990463,135471.592,137504.844,8,400,,,
trial,html.Screen,4_35_0,2023-05-01T21:45:01.149Z,,0,1,,1967.6559999999881,response,ISIC_0024952.JPG,,ISIC_0012338.JPG,ISIC_0024952.JPG,false,0,keypress(z),500,139473,139472.5,137488.178,137498.70000004768,137504.844,139488.098,8,400,36,,ISIC_0012338.JPG
break,html.Screen,4_35_1,2023-05-01T21:45:01.151Z,,0,,,NaN,,,,,,false,,,,139474.70000004768,139474.40000009537,,139473.29999995232,,139488.098,8,400,,,
break_continue,html.Screen,4_35_2,2023-05-01T21:45:01.152Z,,0,,,NaN,,,,,,false,,,,139475.09999990463,139475,,139474.79999995232,,139488.098,8,400,,,
sequence,flow.Sequence,4_35,2023-05-01T21:45:01.152Z,,0,,,1970.1559999999881,completion,,,,,false,,,,139475.29999995232,139475,137488.178,137498.59999990463,137504.844,139488.098,8,400,,,
trial,html.Screen,4_36_0,2023-05-01T21:45:03.132Z,,0,1,,1967.2019999523181,response,ISIC_9412963.JPG,,ISIC_8249854.JPG,ISIC_9412963.JPG,false,0,keypress(z),500,141455.5,141455.29999995232,139471.432,139475.5,139488.098,141454.686,8,400,37,,ISIC_8249854.JPG
break,html.Screen,4_36_1,2023-05-01T21:45:03.133Z,,0,,,NaN,,,,,,false,,,,141456.40000009537,141456.29999995232,,141455.70000004768,,141454.686,8,400,,,
break_continue,html.Screen,4_36_2,2023-05-01T21:45:03.133Z,,0,,,NaN,,,,,,false,,,,141456.70000004768,141456.70000004768,,141456.59999990463,,141454.686,8,400,,,
sequence,flow.Sequence,4_36,2023-05-01T21:45:03.133Z,,0,,,1968.6020000476856,completion,,,,,false,,,,141456.79999995232,141456.70000004768,139471.432,139475.5,139488.098,141454.686,8,400,,,
trial,html.Screen,4_37_0,2023-05-01T21:45:05.108Z,,0,1,,1976.7140000953805,response,ISIC_7016261.JPG,,ISIC_5709878.JPG,ISIC_7016261.JPG,false,1,keypress(m),500,143431.90000009537,143431.40000009537,141438.02,141457,141454.686,143454.606,8,400,38,,ISIC_5709878.JPG
break,html.Screen,4_37_1,2023-05-01T21:45:05.110Z,,0,,,NaN,,,,,,false,,,,143433.29999995232,143433,,143432.09999990463,,143454.606,8,400,,,
break_continue,html.Screen,4_37_2,2023-05-01T21:45:05.110Z,,0,,,NaN,,,,,,false,,,,143433.70000004768,143433.5,,143433.40000009537,,143454.606,8,400,,,
sequence,flow.Sequence,4_37,2023-05-01T21:45:05.110Z,,0,,,1978.814000000013,completion,,,,,false,,,,143433.79999995232,143433.5,141438.02,141456.90000009537,141454.686,143454.606,8,400,,,
trial,html.Screen,4_38_0,2023-05-01T21:45:07.133Z,,0,1,,2001.4939999046328,response,ISIC_5049165.JPG,,ISIC_3649632.JPG,ISIC_3649632.JPG,false,0,keypress(z),500,145456.59999990463,145456.09999990463,143437.94,143433.90000009537,143454.606,145471.919,8,400,39,,ISIC_5049165.JPG
break,html.Screen,4_38_1,2023-05-01T21:45:07.134Z,,0,,,NaN,,,,,,false,,,,145458.09999990463,145457.90000009537,,145456.90000009537,,145471.919,8,400,,,
break_continue,html.Screen,4_38_2,2023-05-01T21:45:07.135Z,,0,,,NaN,,,,,,false,,,,145458.59999990463,145458.40000009537,,145458.20000004768,,145471.919,8,400,,,
sequence,flow.Sequence,4_38,2023-05-01T21:45:07.135Z,,0,,,2003.7940000953677,completion,,,,,false,,,,145458.79999995232,145458.40000009537,143437.94,143433.90000009537,143454.606,145471.919,8,400,,,
trial,html.Screen,4_39_0,2023-05-01T21:45:09.188Z,,0,1,,2039.5810000000056,response,ISIC_1758558.JPG,,ISIC_0029531.JPG,ISIC_1758558.JPG,false,1,keypress(m),500,147511.90000009537,147511.5,145455.253,145458.90000009537,145471.919,147521.837,8,400,40,,ISIC_0029531.JPG
break,html.Screen,4_39_1,2023-05-01T21:45:09.189Z,,0,,,NaN,,,,,,false,,,,147513,147512.90000009537,,147512.20000004768,,147521.837,8,400,,,
break_continue,html.Screen,4_39_2,2023-05-01T21:45:09.190Z,,0,,,NaN,,,,,,false,,,,147513.40000009537,147513.29999995232,,147513.09999990463,,147521.837,8,400,,,
sequence,flow.Sequence,4_39,2023-05-01T21:45:09.190Z,,0,,,2041.3809999523219,completion,,,,,false,,,,147513.5,147513.29999995232,145455.253,145458.90000009537,145471.919,147521.837,8,400,,,
trial,html.Screen,4_40_0,2023-05-01T21:45:11.165Z,,0,1,,1966.8630000476842,response,ISIC_0000483.JPG,,ISIC_7145788.JPG,ISIC_0000483.JPG,false,1,keypress(m),500,149489.09999990463,149488.70000004768,147505.171,147513.5,147521.837,149505.091,8,400,41,,ISIC_7145788.JPG
break,html.Screen,4_40_1,2023-05-01T21:45:11.167Z,,0,,,NaN,,,,,,false,,,,149490.40000009537,149490.20000004768,,149489.40000009537,,149505.091,8,400,,,
break_continue,html.Screen,4_40_2,2023-05-01T21:45:11.167Z,,0,,,NaN,,,,,,false,,,,149490.79999995232,149490.59999990463,,149490.59999990463,,149505.091,8,400,,,
sequence,flow.Sequence,4_40,2023-05-01T21:45:11.167Z,,0,,,1968.762999904633,completion,,,,,false,,,,149490.90000009537,149490.59999990463,147505.171,147513.5,147521.837,149505.091,8,400,,,
trial,html.Screen,4_41_0,2023-05-01T21:45:13.220Z,,0,1,,2038.5089999046468,response,ISIC_0000469.JPG,,ISIC_0026160.JPG,ISIC_0000469.JPG,false,1,keypress(m),500,151544,151543.59999990463,149488.425,149491,149505.091,151555.009,8,400,42,,ISIC_0026160.JPG
break,html.Screen,4_41_1,2023-05-01T21:45:13.221Z,,0,,,NaN,,,,,,false,,,,151545.29999995232,151545,,151544.20000004768,,151555.009,8,400,,,
break_continue,html.Screen,4_41_2,2023-05-01T21:45:13.222Z,,0,,,NaN,,,,,,false,,,,151545.5,151545.5,,151545.29999995232,,151555.009,8,400,,,
sequence,flow.Sequence,4_41,2023-05-01T21:45:13.222Z,,0,,,2040.4090000000142,completion,,,,,false,,,,151545.59999990463,151545.5,149488.425,149491,149505.091,151555.009,8,400,,,
trial,html.Screen,4_42_0,2023-05-01T21:45:15.261Z,,0,1,,2028.991000000009,response,ISIC_0028582.JPG,,ISIC_9820910.JPG,ISIC_0028582.JPG,false,1,keypress(m),500,153584.40000009537,153584,151538.343,151545.79999995232,151555.009,153588.261,8,400,43,,ISIC_9820910.JPG
break,html.Screen,4_42_1,2023-05-01T21:45:15.262Z,,0,,,NaN,,,,,,false,,,,153585.70000004768,153585.5,,153584.59999990463,,153588.261,8,400,,,
break_continue,html.Screen,4_42_2,2023-05-01T21:45:15.262Z,,0,,,NaN,,,,,,false,,,,153586.09999990463,153586,,153585.79999995232,,153588.261,8,400,,,
sequence,flow.Sequence,4_42,2023-05-01T21:45:15.262Z,,0,,,2030.991000000009,completion,,,,,false,,,,153586.29999995232,153586,151538.343,151545.70000004768,151555.009,153588.261,8,400,,,
trial,html.Screen,4_43_0,2023-05-01T21:45:17.234Z,,0,1,,1969.5389999523177,response,ISIC_0031877.JPG,,ISIC_2639144.JPG,ISIC_0031877.JPG,false,1,keypress(m),500,155558.09999990463,155557.79999995232,153571.595,153586.29999995232,153588.261,155572.241,8,400,44,,ISIC_2639144.JPG
break,html.Screen,4_43_1,2023-05-01T21:45:17.235Z,,0,,,NaN,,,,,,false,,,,155558.90000009537,155558.79999995232,,155558.29999995232,,155572.241,8,400,,,
break_continue,html.Screen,4_43_2,2023-05-01T21:45:17.235Z,,0,,,NaN,,,,,,false,,,,155559.20000004768,155559.09999990463,,155559,,155572.241,8,400,,,
sequence,flow.Sequence,4_43,2023-05-01T21:45:17.235Z,,0,,,1970.838999904634,completion,,,,,false,,,,155559.29999995232,155559.09999990463,153571.595,153586.29999995232,153588.261,155572.241,8,400,,,
trial,html.Screen,4_44_0,2023-05-01T21:45:19.245Z,,0,1,,1996.5589999523072,response,ISIC_0030034.JPG,,ISIC_0032925.JPG,ISIC_0030034.JPG,false,1,keypress(m),500,157569.09999990463,157568.79999995232,155555.575,155559.40000009537,155572.241,157572.161,8,400,45,,ISIC_0032925.JPG
break,html.Screen,4_44_1,2023-05-01T21:45:19.246Z,,0,,,NaN,,,,,,false,,,,157570,157569.90000009537,,157569.29999995232,,157572.161,8,400,,,
break_continue,html.Screen,4_44_2,2023-05-01T21:45:19.246Z,,0,,,NaN,,,,,,false,,,,157570.40000009537,157570.29999995232,,157570.20000004768,,157572.161,8,400,,,
sequence,flow.Sequence,4_44,2023-05-01T21:45:19.246Z,,0,,,1998.0589999523072,completion,,,,,false,,,,157570.5,157570.29999995232,155555.575,155559.29999995232,155572.241,157572.161,8,400,,,
trial,html.Screen,4_45_0,2023-05-01T21:45:21.349Z,,0,1,,2100.43899990464,response,ISIC_3170155.JPG,,ISIC_0033274.JPG,ISIC_3170155.JPG,false,1,keypress(m),500,159673,159672.59999990463,157555.495,157570.5,157572.161,159688.743,8,400,46,,ISIC_0033274.JPG
break,html.Screen,4_45_1,2023-05-01T21:45:21.350Z,,0,,,NaN,,,,,,false,,,,159673.90000009537,159673.79999995232,,159673.20000004768,,159688.743,8,400,,,
break_continue,html.Screen,4_45_2,2023-05-01T21:45:21.350Z,,0,,,NaN,,,,,,false,,,,159674.20000004768,159674.09999990463,,159674,,159688.743,8,400,,,
sequence,flow.Sequence,4_45,2023-05-01T21:45:21.350Z,,0,,,2101.93899990464,completion,,,,,false,,,,159674.40000009537,159674.09999990463,157555.495,157570.5,157572.161,159688.743,8,400,,,
trial,html.Screen,4_46_0,2023-05-01T21:45:23.325Z,,0,1,,1960.457000047696,response,ISIC_0030122.JPG,,ISIC_0010349.JPG,ISIC_0030122.JPG,false,1,keypress(m),500,161649.5,161649.20000004768,159672.077,159674.40000009537,159688.743,161655.331,8,400,47,,ISIC_0010349.JPG
break,html.Screen,4_46_1,2023-05-01T21:45:23.326Z,,0,,,NaN,,,,,,false,,,,161650.29999995232,161650.20000004768,,161649.70000004768,,161655.331,8,400,,,
break_continue,html.Screen,4_46_2,2023-05-01T21:45:23.327Z,,0,,,NaN,,,,,,false,,,,161650.59999990463,161650.59999990463,,161650.40000009537,,161655.331,8,400,,,
sequence,flow.Sequence,4_46,2023-05-01T21:45:23.327Z,,0,,,1961.856999904645,completion,,,,,false,,,,161650.79999995232,161650.59999990463,159672.077,159674.40000009537,159688.743,161655.331,8,400,,,
trial,html.Screen,4_47_0,2023-05-01T21:45:25.331Z,,0,1,,1998.8690000476781,response,ISIC_8714502.JPG,,ISIC_0008510.JPG,ISIC_8714502.JPG,false,1,keypress(m),500,163654.59999990463,163654.20000004768,161638.665,161650.79999995232,161655.331,163671.917,8,400,48,,ISIC_0008510.JPG
break,html.Screen,4_47_1,2023-05-01T21:45:25.332Z,,0,,,NaN,,,,,,false,,,,163655.90000009537,163655.59999990463,,163654.90000009537,,163671.917,8,400,,,
break_continue,html.Screen,4_47_2,2023-05-01T21:45:25.332Z,,0,,,NaN,,,,,,false,,,,163656.20000004768,163656.20000004768,,163656.09999990463,,163671.917,8,400,,,
sequence,flow.Sequence,4_47,2023-05-01T21:45:25.332Z,,0,,,2000.8690000476781,completion,,,,,false,,,,163656.40000009537,163656.20000004768,161638.665,161650.79999995232,161655.331,163671.917,8,400,,,
trial,html.Screen,4_48_0,2023-05-01T21:45:27.411Z,,0,1,,2063.0830000000133,response,ISIC_1216698.JPG,,ISIC_5787517.JPG,ISIC_1216698.JPG,false,1,keypress(m),500,165735.29999995232,165735,163655.251,163656.5,163671.917,165739.226,8,400,49,,ISIC_5787517.JPG
break,html.Screen,4_48_1,2023-05-01T21:45:27.413Z,,0,,,NaN,,,,,,false,,,,165736.70000004768,165736.5,,165735.5,,165739.226,8,400,,,
break_continue,html.Screen,4_48_2,2023-05-01T21:45:27.413Z,,0,,,NaN,,,,,,false,,,,165737.09999990463,165736.90000009537,,165736.79999995232,,165739.226,8,400,,,
sequence,flow.Sequence,4_48,2023-05-01T21:45:27.413Z,,0,,,2064.9830000953807,completion,,,,,false,,,,165737.20000004768,165736.90000009537,163655.251,163656.40000009537,163671.917,165739.226,8,400,,,
trial,html.Screen,4_49_0,2023-05-01T21:45:29.524Z,,0,1,,2108.274000000005,response,ISIC_3274493.JPG,,ISIC_0007257.JPG,ISIC_3274493.JPG,false,1,keypress(m),500,167847.79999995232,167847.5,165722.56,165737.29999995232,165739.226,167855.808,8,400,50,,ISIC_0007257.JPG
break,html.Screen,4_49_1,2023-05-01T21:45:34.517Z,,0,,,4999.8000000000175,timeout,,,,,false,,,,172841.09999990463,172838.942,167839.142,167848.09999990463,167855.808,172855.608,8,400,,,
break_continue,html.Screen,4_49_2,2023-05-01T21:45:36.297Z,,0,,,1752.29200009536,response,,,,,false,continue,keypress(Space),,174621.20000004768,174607.90000009537,172838.942,172841.29999995232,172855.608,174622.204,8,400,,,
sequence,flow.Sequence,4_49,2023-05-01T21:45:36.297Z,,0,,,8868.674000095372,completion,,,,,false,,,,174621.40000009537,174607.90000009537,165722.56,165737.29999995232,165739.226,174622.204,8,400,,,
trial,html.Screen,4_50_0,2023-05-01T21:45:39.780Z,,0,2,,3481.3959999046347,response,ISIC_0066749.JPG,,ISIC_0071111.JPG,ISIC_0066749.JPG,false,1,keypress(m),500,178104,178103.59999990463,174605.538,174621.5,174622.204,178106.188,8,400,1,,ISIC_0071111.JPG
break,html.Screen,4_50_1,2023-05-01T21:45:39.781Z,,0,,,NaN,,,,,,false,,,,178105.70000004768,178105.40000009537,,178104.40000009537,,178106.188,8,400,,,
break_continue,html.Screen,4_50_2,2023-05-01T21:45:39.782Z,,0,,,NaN,,,,,,false,,,,178106.09999990463,178106,,178105.79999995232,,178106.188,8,400,,,
sequence,flow.Sequence,4_50,2023-05-01T21:45:39.782Z,,0,,,3483.796000000002,completion,,,,,false,,,,178106.29999995232,178106,174605.538,174621.5,174622.204,178106.188,8,400,,,
trial,html.Screen,4_51_0,2023-05-01T21:45:41.860Z,,0,2,,2077.3120000000054,response,ISIC_0010965.JPG,,ISIC_9742073.JPG,ISIC_0010965.JPG,false,1,keypress(m),500,180184,180183.5,178089.522,178106.5,178106.188,180189.438,8,400,2,,ISIC_9742073.JPG
break,html.Screen,4_51_1,2023-05-01T21:45:41.861Z,,0,,,NaN,,,,,,false,,,,180185.29999995232,180185,,180184.20000004768,,180189.438,8,400,,,
break_continue,html.Screen,4_51_2,2023-05-01T21:45:41.861Z,,0,,,NaN,,,,,,false,,,,180185.70000004768,180185.59999990463,,180185.40000009537,,180189.438,8,400,,,
sequence,flow.Sequence,4_51,2023-05-01T21:45:41.861Z,,0,,,2079.411999904638,completion,,,,,false,,,,180185.90000009537,180185.59999990463,178089.522,178106.5,178106.188,180189.438,8,400,,,
trial,html.Screen,4_52_0,2023-05-01T21:45:43.843Z,,0,2,,1977.3619999523216,response,ISIC_0030845.JPG,,ISIC_0370008.JPG,ISIC_0030845.JPG,false,1,keypress(m),500,182167.5,182166.79999995232,180172.772,180186,180189.438,182172.692,8,400,3,,ISIC_0370008.JPG
break,html.Screen,4_52_1,2023-05-01T21:45:43.844Z,,0,,,NaN,,,,,,false,,,,182168.70000004768,182168.5,,182167.70000004768,,182172.692,8,400,,,
break_continue,html.Screen,4_52_2,2023-05-01T21:45:43.845Z,,0,,,NaN,,,,,,false,,,,182169.20000004768,182169,,182168.79999995232,,182172.692,8,400,,,
sequence,flow.Sequence,4_52,2023-05-01T21:45:43.845Z,,0,,,1979.5620000000054,completion,,,,,false,,,,182169.40000009537,182169,180172.772,180186,180189.438,182172.692,8,400,,,
trial,html.Screen,4_53_0,2023-05-01T21:45:45.900Z,,0,2,,2051.2080000953574,response,ISIC_4961708.JPG,,ISIC_8492957.JPG,ISIC_4961708.JPG,false,1,keypress(m),500,184224.40000009537,184223.90000009537,182156.026,182169.59999990463,182172.692,184239.276,8,400,4,,ISIC_8492957.JPG
break,html.Screen,4_53_1,2023-05-01T21:45:45.902Z,,0,,,NaN,,,,,,false,,,,184226,184225.70000004768,,184224.79999995232,,184239.276,8,400,,,
break_continue,html.Screen,4_53_2,2023-05-01T21:45:45.902Z,,0,,,NaN,,,,,,false,,,,184226.40000009537,184226.29999995232,,184226.20000004768,,184239.276,8,400,,,
sequence,flow.Sequence,4_53,2023-05-01T21:45:45.902Z,,0,,,2053.6079999523063,completion,,,,,false,,,,184226.59999990463,184226.29999995232,182156.026,182169.5,182172.692,184239.276,8,400,,,
trial,html.Screen,4_54_0,2023-05-01T21:45:47.875Z,,0,2,,1960.2239999999874,response,ISIC_0058346.JPG,,ISIC_7928137.JPG,ISIC_0058346.JPG,false,1,keypress(m),500,186199.59999990463,186199.5,184222.61,184226.70000004768,184239.276,186206.591,8,400,5,,ISIC_7928137.JPG
break,html.Screen,4_54_1,2023-05-01T21:45:47.876Z,,0,,,NaN,,,,,,false,,,,186200.59999990463,186200.29999995232,,186199.79999995232,,186206.591,8,400,,,
break_continue,html.Screen,4_54_2,2023-05-01T21:45:47.876Z,,0,,,NaN,,,,,,false,,,,186200.90000009537,186200.70000004768,,186200.59999990463,,186206.591,8,400,,,
sequence,flow.Sequence,4_54,2023-05-01T21:45:47.876Z,,0,,,1961.4240000476711,completion,,,,,false,,,,186201,186200.70000004768,184222.61,184226.70000004768,184239.276,186206.591,8,400,,,
trial,html.Screen,4_55_0,2023-05-01T21:45:49.939Z,,0,2,,2056.3090000953816,response,ISIC_0024585.JPG,,ISIC_0057462.JPG,ISIC_0057462.JPG,false,0,keypress(z),500,188263.29999995232,188262.90000009537,186189.925,186201.09999990463,186206.591,188273.175,8,400,6,,ISIC_0024585.JPG
break,html.Screen,4_55_1,2023-05-01T21:45:49.940Z,,0,,,NaN,,,,,,false,,,,188264.5,188264.29999995232,,188263.5,,188273.175,8,400,,,
break_continue,html.Screen,4_55_2,2023-05-01T21:45:49.940Z,,0,,,NaN,,,,,,false,,,,188265,188264.79999995232,,188264.5,,188273.175,8,400,,,
sequence,flow.Sequence,4_55,2023-05-01T21:45:49.941Z,,0,,,2058.2089999523305,completion,,,,,false,,,,188265.09999990463,188264.79999995232,186189.925,186201,186206.591,188273.175,8,400,,,
trial,html.Screen,4_56_0,2023-05-01T21:45:51.931Z,,0,2,,1981.624999952328,response,ISIC_0058891.JPG,,ISIC_1519891.JPG,ISIC_1519891.JPG,false,0,keypress(z),500,190255.40000009537,190254.79999995232,188256.509,188265.20000004768,188273.175,190256.429,8,400,7,,ISIC_0058891.JPG
break,html.Screen,4_56_1,2023-05-01T21:45:51.932Z,,0,,,NaN,,,,,,false,,,,190256.90000009537,190256.70000004768,,190255.59999990463,,190256.429,8,400,,,
break_continue,html.Screen,4_56_2,2023-05-01T21:45:51.933Z,,0,,,NaN,,,,,,false,,,,190257.40000009537,190257.29999995232,,190257,,190256.429,8,400,,,
sequence,flow.Sequence,4_56,2023-05-01T21:45:51.933Z,,0,,,1984.124999952328,completion,,,,,false,,,,190257.5,190257.29999995232,188256.509,188265.20000004768,188273.175,190256.429,8,400,,,
trial,html.Screen,4_57_0,2023-05-01T21:45:53.987Z,,0,2,,2054.670999904629,response,ISIC_0025754.JPG,,ISIC_2136533.JPG,ISIC_2136533.JPG,false,0,keypress(z),500,192311.59999990463,192311.09999990463,190239.763,190257.59999990463,190256.429,192323.013,8,400,8,,ISIC_0025754.JPG
break,html.Screen,4_57_1,2023-05-01T21:45:53.989Z,,0,,,NaN,,,,,,false,,,,192313.20000004768,192313,,192312,,192323.013,8,400,,,
break_continue,html.Screen,4_57_2,2023-05-01T21:45:53.989Z,,0,,,NaN,,,,,,false,,,,192313.79999995232,192313.70000004768,,192313.40000009537,,192323.013,8,400,,,
sequence,flow.Sequence,4_57,2023-05-01T21:45:53.989Z,,0,,,2057.27100004768,completion,,,,,false,,,,192313.90000009537,192313.70000004768,190239.763,190257.59999990463,190256.429,192323.013,8,400,,,
trial,html.Screen,4_58_0,2023-05-01T21:45:56.265Z,,0,2,,2266.0869999046263,response,ISIC_6488658.JPG,,ISIC_1565767.JPG,ISIC_1565767.JPG,false,0,keypress(z),500,194589.5,194589.09999990463,192306.347,192314.09999990463,192323.013,194606.255,8,400,9,,ISIC_6488658.JPG
break,html.Screen,4_58_1,2023-05-01T21:45:56.266Z,,0,,,NaN,,,,,,false,,,,194590.90000009537,194590.59999990463,,194589.79999995232,,194606.255,8,400,,,
break_continue,html.Screen,4_58_2,2023-05-01T21:45:56.267Z,,0,,,NaN,,,,,,false,,,,194591.29999995232,194591.09999990463,,194591,,194606.255,8,400,,,
sequence,flow.Sequence,4_58,2023-05-01T21:45:56.267Z,,0,,,2268.0869999046263,completion,,,,,false,,,,194591.29999995232,194591.09999990463,192306.347,192314.09999990463,192323.013,194606.255,8,400,,,
trial,html.Screen,4_59_0,2023-05-01T21:45:58.451Z,,0,2,,2169.2449999999953,response,ISIC_0026911.JPG,,ISIC_9159730.JPG,ISIC_9159730.JPG,false,0,keypress(z),500,196776.09999990463,196775.5,194589.589,194591.40000009537,194606.255,196790.247,8,400,10,,ISIC_0026911.JPG
break,html.Screen,4_59_1,2023-05-01T21:45:58.453Z,,0,,,NaN,,,,,,false,,,,196777.70000004768,196777.40000009537,,196776.40000009537,,196790.247,8,400,,,
break_continue,html.Screen,4_59_2,2023-05-01T21:45:58.453Z,,0,,,NaN,,,,,,false,,,,196778.20000004768,196778.09999990463,,196777.79999995232,,196790.247,8,400,,,
sequence,flow.Sequence,4_59,2023-05-01T21:45:58.454Z,,0,,,2171.844999904628,completion,,,,,false,,,,196778.40000009537,196778.09999990463,194589.589,194591.40000009537,194606.255,196790.247,8,400,,,
trial,html.Screen,4_60_0,2023-05-01T21:46:00.491Z,,0,2,,2024.6530000953644,response,ISIC_0024527.JPG,,ISIC_9364350.JPG,ISIC_9364350.JPG,false,0,keypress(z),500,198815.5,198814.90000009537,196773.581,196778.59999990463,196790.247,198823.499,8,400,11,,ISIC_0024527.JPG
break,html.Screen,4_60_1,2023-05-01T21:46:00.493Z,,0,,,NaN,,,,,,false,,,,198817.40000009537,198816.90000009537,,198815.90000009537,,198823.499,8,400,,,
break_continue,html.Screen,4_60_2,2023-05-01T21:46:00.493Z,,0,,,NaN,,,,,,false,,,,198817.79999995232,198817.59999990463,,198817.5,,198823.499,8,400,,,
sequence,flow.Sequence,4_60,2023-05-01T21:46:00.493Z,,0,,,2027.3529999046295,completion,,,,,false,,,,198817.90000009537,198817.59999990463,196773.581,196778.5,196790.247,198823.499,8,400,,,
trial,html.Screen,4_61_0,2023-05-01T21:46:02.707Z,,0,2,,2208.0009999999893,response,ISIC_0031482.JPG,,ISIC_2479134.JPG,ISIC_2479134.JPG,false,0,keypress(z),500,201031.90000009537,201031.5,198806.833,198818.09999990463,198823.499,201040.077,8,400,12,,ISIC_0031482.JPG
break,html.Screen,4_61_1,2023-05-01T21:46:02.708Z,,0,,,NaN,,,,,,false,,,,201033.29999995232,201033,,201032.20000004768,,201040.077,8,400,,,
break_continue,html.Screen,4_61_2,2023-05-01T21:46:02.709Z,,0,,,NaN,,,,,,false,,,,201033.59999990463,201033.40000009537,,201033.29999995232,,201040.077,8,400,,,
sequence,flow.Sequence,4_61,2023-05-01T21:46:02.709Z,,0,,,2209.9010000953567,completion,,,,,false,,,,201033.59999990463,201033.40000009537,198806.833,198818,198823.499,201040.077,8,400,,,
trial,html.Screen,4_62_0,2023-05-01T21:46:04.683Z,,0,2,,1967.8230000953772,response,ISIC_5055871.JPG,,ISIC_0060308.JPG,ISIC_0060308.JPG,false,0,keypress(z),500,203008.40000009537,203007.90000009537,201023.411,201033.70000004768,201040.077,203023.331,8,400,13,,ISIC_5055871.JPG
break,html.Screen,4_62_1,2023-05-01T21:46:04.685Z,,0,,,NaN,,,,,,false,,,,203009.70000004768,203009.40000009537,,203008.59999990463,,203023.331,8,400,,,
break_continue,html.Screen,4_62_2,2023-05-01T21:46:04.685Z,,0,,,NaN,,,,,,false,,,,203010.09999990463,203009.90000009537,,203009.79999995232,,203023.331,8,400,,,
sequence,flow.Sequence,4_62,2023-05-01T21:46:04.685Z,,0,,,1969.8230000953772,completion,,,,,false,,,,203010.09999990463,203009.90000009537,201023.411,201033.70000004768,201040.077,203023.331,8,400,,,
trial,html.Screen,4_63_0,2023-05-01T21:46:06.803Z,,0,2,,2104.268999904627,response,ISIC_0033087.JPG,,ISIC_0028445.JPG,ISIC_0028445.JPG,false,0,keypress(z),500,205128,205127.59999990463,203006.665,203010.20000004768,203023.331,205139.913,8,400,14,,ISIC_0033087.JPG
break,html.Screen,4_63_1,2023-05-01T21:46:06.805Z,,0,,,NaN,,,,,,false,,,,205129.79999995232,205129.40000009537,,205128.29999995232,,205139.913,8,400,,,
break_continue,html.Screen,4_63_2,2023-05-01T21:46:06.805Z,,0,,,NaN,,,,,,false,,,,205130.29999995232,205130.20000004768,,205130,,205139.913,8,400,,,
sequence,flow.Sequence,4_63,2023-05-01T21:46:06.806Z,,0,,,2106.869000047678,completion,,,,,false,,,,205130.5,205130.20000004768,203006.665,203010.20000004768,203023.331,205139.913,8,400,,,
trial,html.Screen,4_64_0,2023-05-01T21:46:08.924Z,,0,2,,2108.987000095367,response,ISIC_4323070.JPG,,ISIC_3028754.JPG,ISIC_3028754.JPG,false,0,keypress(z),500,207249.40000009537,207248.90000009537,205123.247,205130.70000004768,205139.913,207257.219,8,400,15,,ISIC_4323070.JPG
break,html.Screen,4_64_1,2023-05-01T21:46:08.926Z,,0,,,NaN,,,,,,false,,,,207250.90000009537,207250.70000004768,,207249.59999990463,,207257.219,8,400,,,
break_continue,html.Screen,4_64_2,2023-05-01T21:46:08.927Z,,0,,,NaN,,,,,,false,,,,207251.70000004768,207251.5,,207251.20000004768,,207257.219,8,400,,,
sequence,flow.Sequence,4_64,2023-05-01T21:46:08.927Z,,0,,,2111.5869999999995,completion,,,,,false,,,,207251.90000009537,207251.5,205123.247,205130.5,205139.913,207257.219,8,400,,,
trial,html.Screen,4_65_0,2023-05-01T21:46:11.011Z,,0,2,,2078.280999999988,response,ISIC_0000166.JPG,,ISIC_0056391.JPG,ISIC_0056391.JPG,false,0,keypress(z),500,209335.79999995232,209335.5,207240.553,207252.20000004768,207257.219,209340.469,8,400,16,,ISIC_0000166.JPG
break,html.Screen,4_65_1,2023-05-01T21:46:11.012Z,,0,,,NaN,,,,,,false,,,,209336.90000009537,209336.70000004768,,209336,,209340.469,8,400,,,
break_continue,html.Screen,4_65_2,2023-05-01T21:46:11.012Z,,0,,,NaN,,,,,,false,,,,209337.40000009537,209337.29999995232,,209337.09999990463,,209340.469,8,400,,,
sequence,flow.Sequence,4_65,2023-05-01T21:46:11.012Z,,0,,,2080.0809999523044,completion,,,,,false,,,,209337.5,209337.29999995232,207240.553,207252.20000004768,207257.219,209340.469,8,400,,,
trial,html.Screen,4_66_0,2023-05-01T21:46:13.021Z,,0,2,,2004.5309999999881,response,ISIC_5005869.JPG,,ISIC_0071904.JPG,ISIC_0071904.JPG,false,0,keypress(z),500,211345.59999990463,211345,209323.803,209337.59999990463,209340.469,211357.055,8,400,17,,ISIC_5005869.JPG
break,html.Screen,4_66_1,2023-05-01T21:46:13.022Z,,0,,,NaN,,,,,,false,,,,211347.40000009537,211347.09999990463,,211346,,211357.055,8,400,,,
break_continue,html.Screen,4_66_2,2023-05-01T21:46:13.023Z,,0,,,NaN,,,,,,false,,,,211347.90000009537,211347.90000009537,,211347.59999990463,,211357.055,8,400,,,
sequence,flow.Sequence,4_66,2023-05-01T21:46:13.023Z,,0,,,2007.4310000953556,completion,,,,,false,,,,211348.09999990463,211347.90000009537,209323.803,209337.59999990463,209340.469,211357.055,8,400,,,
trial,html.Screen,4_67_0,2023-05-01T21:46:15.091Z,,0,2,,2058.445000000007,response,ISIC_6487069.JPG,,ISIC_4432898.JPG,ISIC_4432898.JPG,false,0,keypress(z),500,213415.90000009537,213415.5,211340.389,211348.29999995232,211357.055,213423.639,8,400,18,,ISIC_6487069.JPG
break,html.Screen,4_67_1,2023-05-01T21:46:15.092Z,,0,,,NaN,,,,,,false,,,,213417.09999990463,213417,,213416.20000004768,,213423.639,8,400,,,
break_continue,html.Screen,4_67_2,2023-05-01T21:46:15.092Z,,0,,,NaN,,,,,,false,,,,213417.5,213417.40000009537,,213417.29999995232,,213423.639,8,400,,,
sequence,flow.Sequence,4_67,2023-05-01T21:46:15.092Z,,0,,,2060.3450000953744,completion,,,,,false,,,,213417.59999990463,213417.40000009537,211340.389,211348.29999995232,211357.055,213423.639,8,400,,,
trial,html.Screen,4_68_0,2023-05-01T21:46:17.275Z,,0,2,,2176.761000095372,response,ISIC_9751601.JPG,,ISIC_0055169.JPG,ISIC_0055169.JPG,false,0,keypress(z),500,215600.59999990463,215600.40000009537,213406.973,213417.70000004768,213423.639,215606.885,8,400,19,,ISIC_9751601.JPG
break,html.Screen,4_68_1,2023-05-01T21:46:17.276Z,,0,,,NaN,,,,,,false,,,,215601.40000009537,215601.29999995232,,215600.70000004768,,215606.885,8,400,,,
break_continue,html.Screen,4_68_2,2023-05-01T21:46:17.277Z,,0,,,NaN,,,,,,false,,,,215601.79999995232,215601.70000004768,,215601.59999990463,,215606.885,8,400,,,
sequence,flow.Sequence,4_68,2023-05-01T21:46:17.277Z,,0,,,2178.061000047688,completion,,,,,false,,,,215601.90000009537,215601.70000004768,213406.973,213417.59999990463,213423.639,215606.885,8,400,,,
trial,html.Screen,4_69_0,2023-05-01T21:46:19.299Z,,0,2,,2016.6149999999907,response,ISIC_3559222.JPG,,ISIC_4924690.JPG,ISIC_4924690.JPG,false,0,keypress(z),500,217624,217623.5,215590.219,215602,215606.885,217640.891,8,400,20,,ISIC_3559222.JPG
break,html.Screen,4_69_1,2023-05-01T21:46:19.300Z,,0,,,NaN,,,,,,false,,,,217625.59999990463,217625.29999995232,,217624.40000009537,,217640.891,8,400,,,
break_continue,html.Screen,4_69_2,2023-05-01T21:46:19.301Z,,0,,,NaN,,,,,,false,,,,217626.09999990463,217626,,217625.70000004768,,217640.891,8,400,,,
sequence,flow.Sequence,4_69,2023-05-01T21:46:19.301Z,,0,,,2019.1149999999907,completion,,,,,false,,,,217626.29999995232,217626,215590.219,215602,215606.885,217640.891,8,400,,,
trial,html.Screen,4_70_0,2023-05-01T21:46:21.372Z,,0,2,,2056.009000095364,response,ISIC_0014501.JPG,,ISIC_7755096.JPG,ISIC_7755096.JPG,false,0,keypress(z),500,219697.40000009537,219696.90000009537,217624.225,217626.40000009537,217640.891,219707.475,8,400,21,,ISIC_0014501.JPG
break,html.Screen,4_70_1,2023-05-01T21:46:21.373Z,,0,,,NaN,,,,,,false,,,,219698.59999990463,219698.5,,219697.70000004768,,219707.475,8,400,,,
break_continue,html.Screen,4_70_2,2023-05-01T21:46:21.374Z,,0,,,NaN,,,,,,false,,,,219698.90000009537,219698.90000009537,,219698.79999995232,,219707.475,8,400,,,
sequence,flow.Sequence,4_70,2023-05-01T21:46:21.374Z,,0,,,2058.009000095364,completion,,,,,false,,,,219699.09999990463,219698.90000009537,217624.225,217626.40000009537,217640.891,219707.475,8,400,,,
trial,html.Screen,4_71_0,2023-05-01T21:46:23.498Z,,0,2,,2115.725000047678,response,ISIC_6970607.JPG,,ISIC_9685931.JPG,ISIC_9685931.JPG,false,0,keypress(z),500,221823.40000009537,221823.20000004768,219690.809,219699.20000004768,219707.475,221824.057,8,400,22,,ISIC_6970607.JPG
break,html.Screen,4_71_1,2023-05-01T21:46:23.499Z,,0,,,NaN,,,,,,false,,,,221824.09999990463,221824,,221823.59999990463,,221824.057,8,400,,,
break_continue,html.Screen,4_71_2,2023-05-01T21:46:23.499Z,,0,,,NaN,,,,,,false,,,,221824.29999995232,221824.20000004768,,221824.20000004768,,221824.057,8,400,,,
sequence,flow.Sequence,4_71,2023-05-01T21:46:23.499Z,,0,,,2116.725000047678,completion,,,,,false,,,,221824.40000009537,221824.20000004768,219690.809,219699.09999990463,219707.475,221824.057,8,400,,,
trial,html.Screen,4_72_0,2023-05-01T21:46:25.667Z,,0,2,,2167.7429999523156,response,ISIC_0030193.JPG,,ISIC_0005248.JPG,ISIC_0005248.JPG,false,0,keypress(z),500,223992.09999990463,223991.79999995232,221807.391,221824.5,221824.057,224023.969,8,400,23,,ISIC_0030193.JPG
break,html.Screen,4_72_1,2023-05-01T21:46:25.668Z,,0,,,NaN,,,,,,false,,,,223993,223992.79999995232,,223992.20000004768,,224023.969,8,400,,,
break_continue,html.Screen,4_72_2,2023-05-01T21:46:25.668Z,,0,,,NaN,,,,,,false,,,,223993.29999995232,223993.09999990463,,223993,,224023.969,8,400,,,
sequence,flow.Sequence,4_72,2023-05-01T21:46:25.668Z,,0,,,2169.042999904632,completion,,,,,false,,,,223993.40000009537,223993.09999990463,221807.391,221824.5,221824.057,224023.969,8,400,,,
trial,html.Screen,4_73_0,2023-05-01T21:46:27.772Z,,0,2,,2073.3309999523044,response,ISIC_0027274.JPG,,ISIC_6948604.JPG,ISIC_6948604.JPG,false,0,keypress(z),500,226097.79999995232,226097.29999995232,224007.303,223993.40000009537,224023.969,226107.219,8,400,24,,ISIC_0027274.JPG
break,html.Screen,4_73_1,2023-05-01T21:46:27.774Z,,0,,,NaN,,,,,,false,,,,226099.40000009537,226099.09999990463,,226098.09999990463,,226107.219,8,400,,,
break_continue,html.Screen,4_73_2,2023-05-01T21:46:27.774Z,,0,,,NaN,,,,,,false,,,,226099.79999995232,226099.70000004768,,226099.5,,226107.219,8,400,,,
sequence,flow.Sequence,4_73,2023-05-01T21:46:27.775Z,,0,,,2075.731000047672,completion,,,,,false,,,,226100,226099.70000004768,224007.303,223993.40000009537,224023.969,226107.219,8,400,,,
trial,html.Screen,4_74_0,2023-05-01T21:46:29.906Z,,0,2,,2124.0809999523044,response,ISIC_9927486.JPG,,ISIC_0002675.JPG,ISIC_0002675.JPG,false,0,keypress(z),500,228231.79999995232,228231.29999995232,226090.553,226100.20000004768,226107.219,228241.225,8,400,25,,ISIC_9927486.JPG
break,html.Screen,4_74_1,2023-05-01T21:46:29.908Z,,0,,,NaN,,,,,,false,,,,228233.40000009537,228233.20000004768,,228232.20000004768,,228241.225,8,400,,,
break_continue,html.Screen,4_74_2,2023-05-01T21:46:29.909Z,,0,,,NaN,,,,,,false,,,,228233.90000009537,228233.79999995232,,228233.59999990463,,228241.225,8,400,,,
sequence,flow.Sequence,4_74,2023-05-01T21:46:29.909Z,,0,,,2126.5809999523044,completion,,,,,false,,,,228234.09999990463,228233.79999995232,226090.553,226100.20000004768,226107.219,228241.225,8,400,,,
trial,html.Screen,4_75_0,2023-05-01T21:46:33.484Z,,0,2,,3567.5749999523105,response,ISIC_9511832.JPG,,ISIC_3556980.JPG,ISIC_3556980.JPG,false,0,keypress(z),500,231809.29999995232,231808.79999995232,228224.559,228234.20000004768,228241.225,231824.415,8,400,26,,ISIC_9511832.JPG
break,html.Screen,4_75_1,2023-05-01T21:46:33.485Z,,0,,,NaN,,,,,,false,,,,231810.90000009537,231810.59999990463,,231809.59999990463,,231824.415,8,400,,,
break_continue,html.Screen,4_75_2,2023-05-01T21:46:33.486Z,,0,,,NaN,,,,,,false,,,,231811.5,231811.20000004768,,231811,,231824.415,8,400,,,
sequence,flow.Sequence,4_75,2023-05-01T21:46:33.486Z,,0,,,3569.975000047678,completion,,,,,false,,,,231811.59999990463,231811.20000004768,228224.559,228234.20000004768,228241.225,231824.415,8,400,,,
trial,html.Screen,4_76_0,2023-05-01T21:46:44.984Z,,0,2,,11517.369999999995,timeout,ISIC_0027067.JPG,,ISIC_0068727.JPG,,false,,,500,243309.40000009537,243309,231807.749,231811.79999995232,231824.415,243341.785,8,400,27,,
break,html.Screen,4_76_1,2023-05-01T21:46:44.985Z,,0,,,NaN,,,,,,false,,,,243310.79999995232,243310.5,,243309.70000004768,,243341.785,8,400,,,
break_continue,html.Screen,4_76_2,2023-05-01T21:46:44.985Z,,0,,,NaN,,,,,,false,,,,243311.20000004768,243311.09999990463,,243310.90000009537,,243341.785,8,400,,,
sequence,flow.Sequence,4_76,2023-05-01T21:46:44.986Z,,0,,,11486.684999904624,completion,,,,,false,,,,243311.29999995232,243311.09999990463,231807.749,231811.70000004768,231824.415,243341.785,8,400,,,
trial,html.Screen,4_77_0,2023-05-01T21:46:54.034Z,,0,2,,9017.714999999997,response,ISIC_9598638.JPG,,ISIC_0023162.JPG,ISIC_0023162.JPG,false,0,keypress(z),500,252360,252359.5,243323.955,243311.5,243341.785,252374.757,8,400,28,,ISIC_9598638.JPG
break,html.Screen,4_77_1,2023-05-01T21:46:54.036Z,,0,,,NaN,,,,,,false,,,,252361.59999990463,252361.29999995232,,252360.29999995232,,252374.757,8,400,,,
break_continue,html.Screen,4_77_2,2023-05-01T21:46:54.036Z,,0,,,NaN,,,,,,false,,,,252362.09999990463,252361.90000009537,,252361.70000004768,,252374.757,8,400,,,
sequence,flow.Sequence,4_77,2023-05-01T21:46:54.036Z,,0,,,9020.115000095364,completion,,,,,false,,,,252362.29999995232,252361.90000009537,243323.955,243311.5,243341.785,252374.757,8,400,,,
trial,html.Screen,4_78_0,2023-05-01T21:46:56.130Z,,0,2,,2080.7429999999877,response,ISIC_0025305.JPG,,ISIC_0032550.JPG,ISIC_0032550.JPG,false,0,keypress(z),500,254456,254455.5,252358.091,252362.5,252374.757,254458.736,8,400,29,,ISIC_0025305.JPG
break,html.Screen,4_78_1,2023-05-01T21:46:56.132Z,,0,,,NaN,,,,,,false,,,,254457.70000004768,254457.29999995232,,254456.40000009537,,254458.736,8,400,,,
break_continue,html.Screen,4_78_2,2023-05-01T21:46:56.132Z,,0,,,NaN,,,,,,false,,,,254458.09999990463,254457.90000009537,,254457.70000004768,,254458.736,8,400,,,
sequence,flow.Sequence,4_78,2023-05-01T21:46:56.132Z,,0,,,2083.143000095355,completion,,,,,false,,,,254458.20000004768,254457.90000009537,252358.091,252362.40000009537,252374.757,254458.736,8,400,,,
trial,html.Screen,4_79_0,2023-05-01T21:46:58.289Z,,0,2,,2156.063999952312,response,ISIC_0000414.JPG,,ISIC_7051167.JPG,ISIC_7051167.JPG,false,0,keypress(z),500,256615.29999995232,256614.79999995232,254442.07,254458.5,254458.736,256641.982,8,400,30,,ISIC_0000414.JPG
break,html.Screen,4_79_1,2023-05-01T21:46:58.291Z,,0,,,NaN,,,,,,false,,,,256616.59999990463,256616.40000009537,,256615.5,,256641.982,8,400,,,
break_continue,html.Screen,4_79_2,2023-05-01T21:46:58.291Z,,0,,,NaN,,,,,,false,,,,256616.90000009537,256616.79999995232,,256616.59999990463,,256641.982,8,400,,,
sequence,flow.Sequence,4_79,2023-05-01T21:46:58.291Z,,0,,,2158.063999952312,completion,,,,,false,,,,256617,256616.79999995232,254442.07,254458.40000009537,254458.736,256641.982,8,400,,,
trial,html.Screen,4_80_0,2023-05-01T21:47:00.481Z,,0,2,,2164.9180000953784,response,ISIC_9906799.JPG,,ISIC_0031472.JPG,ISIC_0031472.JPG,false,0,keypress(z),500,258807.40000009537,258806.90000009537,256625.316,256617,256641.982,258825.228,8,400,31,,ISIC_9906799.JPG
break,html.Screen,4_80_1,2023-05-01T21:47:00.483Z,,0,,,NaN,,,,,,false,,,,258808.79999995232,258808.59999990463,,258807.70000004768,,258825.228,8,400,,,
break_continue,html.Screen,4_80_2,2023-05-01T21:47:00.483Z,,0,,,NaN,,,,,,false,,,,258809.09999990463,258809.09999990463,,258808.90000009537,,258825.228,8,400,,,
sequence,flow.Sequence,4_80,2023-05-01T21:47:00.483Z,,0,,,2167.1179999046435,completion,,,,,false,,,,258809.29999995232,258809.09999990463,256625.316,256617,256641.982,258825.228,8,400,,,
trial,html.Screen,4_81_0,2023-05-01T21:47:02.826Z,,0,2,,2326.6720000953646,response,ISIC_4187627.JPG,,ISIC_0055876.JPG,ISIC_0055876.JPG,false,0,keypress(z),500,261152.29999995232,261151.90000009537,258808.562,258809.40000009537,258825.228,261158.468,8,400,32,,ISIC_4187627.JPG
break,html.Screen,4_81_1,2023-05-01T21:47:02.827Z,,0,,,NaN,,,,,,false,,,,261153.40000009537,261153.29999995232,,261152.5,,261158.468,8,400,,,
break_continue,html.Screen,4_81_2,2023-05-01T21:47:02.828Z,,0,,,NaN,,,,,,false,,,,261153.79999995232,261153.70000004768,,261153.59999990463,,261158.468,8,400,,,
sequence,flow.Sequence,4_81,2023-05-01T21:47:02.828Z,,0,,,2328.472000047681,completion,,,,,false,,,,261153.79999995232,261153.70000004768,258808.562,258809.40000009537,258825.228,261158.468,8,400,,,
trial,html.Screen,4_82_0,2023-05-01T21:47:05.154Z,,0,2,,2321.0320000000065,response,ISIC_0003201.JPG,,ISIC_0072748.JPG,ISIC_0072748.JPG,false,0,keypress(z),500,263480,263479.5,261141.802,261153.90000009537,261158.468,263491.708,8,400,33,,ISIC_0003201.JPG
break,html.Screen,4_82_1,2023-05-01T21:47:05.156Z,,0,,,NaN,,,,,,false,,,,263481.59999990463,263481.2999999523,,263480.40000009537,,263491.708,8,400,,,
break_continue,html.Screen,4_82_2,2023-05-01T21:47:05.156Z,,0,,,NaN,,,,,,false,,,,263482,263481.90000009537,,263481.7000000477,,263491.708,8,400,,,
sequence,flow.Sequence,4_82,2023-05-01T21:47:05.156Z,,0,,,2323.432000095374,completion,,,,,false,,,,263482.2999999523,263481.90000009537,261141.802,261153.90000009537,261158.468,263491.708,8,400,,,
trial,html.Screen,4_83_0,2023-05-01T21:47:07.131Z,,0,2,,1964.8919999046484,response,ISIC_0030694.JPG,,ISIC_6752060.JPG,ISIC_6752060.JPG,false,0,keypress(z),500,265457.09999990463,265456.59999990463,263475.042,263482.40000009537,263491.708,265459.028,8,400,34,,ISIC_0030694.JPG
break,html.Screen,4_83_1,2023-05-01T21:47:07.132Z,,0,,,NaN,,,,,,false,,,,265458.2999999523,265458.09999990463,,265457.2999999523,,265459.028,8,400,,,
break_continue,html.Screen,4_83_2,2023-05-01T21:47:07.132Z,,0,,,NaN,,,,,,false,,,,265458.5,265458.5,,265458.40000009537,,265459.028,8,400,,,
sequence,flow.Sequence,4_83,2023-05-01T21:47:07.132Z,,0,,,1966.7920000000158,completion,,,,,false,,,,265458.59999990463,265458.5,263475.042,263482.40000009537,263491.708,265459.028,8,400,,,
trial,html.Screen,4_84_0,2023-05-01T21:47:09.202Z,,0,2,,2068.472000000009,response,ISIC_4153542.JPG,,ISIC_7068674.JPG,ISIC_7068674.JPG,false,0,keypress(z),500,267528,267527.5,265442.362,265458.7000000477,265459.028,267542.278,8,400,35,,ISIC_4153542.JPG
break,html.Screen,4_84_1,2023-05-01T21:47:09.203Z,,0,,,NaN,,,,,,false,,,,267529.59999990463,267529.2999999523,,267528.2999999523,,267542.278,8,400,,,
break_continue,html.Screen,4_84_2,2023-05-01T21:47:09.204Z,,0,,,NaN,,,,,,false,,,,267530,267529.90000009537,,267529.7000000477,,267542.278,8,400,,,
sequence,flow.Sequence,4_84,2023-05-01T21:47:09.204Z,,0,,,2070.8720000953763,completion,,,,,false,,,,267530.2000000477,267529.90000009537,265442.362,265458.59999990463,265459.028,267542.278,8,400,,,
trial,html.Screen,4_85_0,2023-05-01T21:47:11.291Z,,0,2,,2074.021999952325,response,ISIC_2349994.JPG,,ISIC_1208705.JPG,ISIC_1208705.JPG,false,0,keypress(z),500,269616.7000000477,269616.2999999523,267525.612,267530.40000009537,267542.278,269642.194,8,400,36,,ISIC_2349994.JPG
break,html.Screen,4_85_1,2023-05-01T21:47:11.292Z,,0,,,NaN,,,,,,false,,,,269617.90000009537,269617.7000000477,,269617,,269642.194,8,400,,,
break_continue,html.Screen,4_85_2,2023-05-01T21:47:11.292Z,,0,,,NaN,,,,,,false,,,,269618.2000000477,269618.09999990463,,269618,,269642.194,8,400,,,
sequence,flow.Sequence,4_85,2023-05-01T21:47:11.292Z,,0,,,2075.8219999046414,completion,,,,,false,,,,269618.2000000477,269618.09999990463,267525.612,267530.40000009537,267542.278,269642.194,8,400,,,
trial,html.Screen,4_86_0,2023-05-01T21:47:13.426Z,,0,2,,2109.3059999999823,response,ISIC_0001140.JPG,,ISIC_0054073.JPG,ISIC_0054073.JPG,false,0,keypress(z),500,271751.90000009537,271751.5,269625.528,269618.40000009537,269642.194,271775.442,8,400,37,,ISIC_0001140.JPG
break,html.Screen,4_86_1,2023-05-01T21:47:13.427Z,,0,,,NaN,,,,,,false,,,,271752.90000009537,271752.7999999523,,271752.09999990463,,271775.442,8,400,,,
break_continue,html.Screen,4_86_2,2023-05-01T21:47:13.427Z,,0,,,NaN,,,,,,false,,,,271753.2000000477,271753.09999990463,,271753,,271775.442,8,400,,,
sequence,flow.Sequence,4_86,2023-05-01T21:47:13.427Z,,0,,,2110.905999904615,completion,,,,,false,,,,271753.2999999523,271753.09999990463,269625.528,269618.2999999523,269642.194,271775.442,8,400,,,
trial,html.Screen,4_87_0,2023-05-01T21:47:15.473Z,,0,2,,2023.3579999523354,response,ISIC_0070092.JPG,,ISIC_1654318.JPG,ISIC_1654318.JPG,false,0,keypress(z),500,273799.40000009537,273798.7999999523,271758.776,271753.5,271775.442,273808.694,8,400,38,,ISIC_0070092.JPG
break,html.Screen,4_87_1,2023-05-01T21:47:15.475Z,,0,,,NaN,,,,,,false,,,,273800.90000009537,273800.59999990463,,273799.7000000477,,273808.694,8,400,,,
break_continue,html.Screen,4_87_2,2023-05-01T21:47:15.475Z,,0,,,NaN,,,,,,false,,,,273801.40000009537,273801.2000000477,,273801.09999990463,,273808.694,8,400,,,
sequence,flow.Sequence,4_87,2023-05-01T21:47:15.475Z,,0,,,2025.7580000477028,completion,,,,,false,,,,273801.59999990463,273801.2000000477,271758.776,271753.40000009537,271775.442,273808.694,8,400,,,
trial,html.Screen,4_88_0,2023-05-01T21:47:17.513Z,,0,2,,2030.4059999046149,response,ISIC_7097931.JPG,,ISIC_0008619.JPG,ISIC_0008619.JPG,false,0,keypress(z),500,275839.5,275839.09999990463,273792.028,273801.7999999523,273808.694,275859.358,8,400,39,,ISIC_7097931.JPG
break,html.Screen,4_88_1,2023-05-01T21:47:17.515Z,,0,,,NaN,,,,,,false,,,,275840.7999999523,275840.7000000477,,275839.7999999523,,275859.358,8,400,,,
break_continue,html.Screen,4_88_2,2023-05-01T21:47:17.515Z,,0,,,NaN,,,,,,false,,,,275841.2000000477,275841.09999990463,,275841,,275859.358,8,400,,,
sequence,flow.Sequence,4_88,2023-05-01T21:47:17.515Z,,0,,,2032.4059999046149,completion,,,,,false,,,,275841.40000009537,275841.09999990463,273792.028,273801.7000000477,273808.694,275859.358,8,400,,,
trial,html.Screen,4_89_0,2023-05-01T21:47:19.571Z,,0,2,,2037.54200009536,response,ISIC_1979534.JPG,,ISIC_0064120.JPG,ISIC_0064120.JPG,false,0,keypress(z),500,277897.5,277896.90000009537,275842.692,275841.40000009537,275859.358,277909.276,8,400,40,,ISIC_1979534.JPG
break,html.Screen,4_89_1,2023-05-01T21:47:19.573Z,,0,,,NaN,,,,,,false,,,,277899.09999990463,277898.7999999523,,277897.7999999523,,277909.276,8,400,,,
break_continue,html.Screen,4_89_2,2023-05-01T21:47:19.573Z,,0,,,NaN,,,,,,false,,,,277899.5,277899.40000009537,,277899.2999999523,,277909.276,8,400,,,
sequence,flow.Sequence,4_89,2023-05-01T21:47:19.573Z,,0,,,2040.04200009536,completion,,,,,false,,,,277899.7999999523,277899.40000009537,275842.692,275841.40000009537,275859.358,277909.276,8,400,,,
trial,html.Screen,4_90_0,2023-05-01T21:47:21.595Z,,0,2,,2012.1240000953549,response,ISIC_8253326.JPG,,ISIC_0029913.JPG,ISIC_0029913.JPG,false,0,keypress(z),500,279921.7999999523,279921.40000009537,277892.61,277899.90000009537,277909.276,279925.862,8,400,41,,ISIC_8253326.JPG
break,html.Screen,4_90_1,2023-05-01T21:47:21.596Z,,0,,,NaN,,,,,,false,,,,279922.59999990463,279922.5,,279921.90000009537,,279925.862,8,400,,,
break_continue,html.Screen,4_90_2,2023-05-01T21:47:21.596Z,,0,,,NaN,,,,,,false,,,,279922.90000009537,279922.7999999523,,279922.7000000477,,279925.862,8,400,,,
sequence,flow.Sequence,4_90,2023-05-01T21:47:21.596Z,,0,,,2013.5239999523037,completion,,,,,false,,,,279922.90000009537,279922.7999999523,277892.61,277899.90000009537,277909.276,279925.862,8,400,,,
trial,html.Screen,4_91_0,2023-05-01T21:47:23.673Z,,0,2,,2073.0380000953446,response,ISIC_0010393.JPG,,ISIC_0032012.JPG,ISIC_0032012.JPG,false,0,keypress(z),500,281999.40000009537,281998.90000009537,279909.196,279923,279925.862,282009.112,8,400,42,,ISIC_0010393.JPG
break,html.Screen,4_91_1,2023-05-01T21:47:23.675Z,,0,,,NaN,,,,,,false,,,,282001,282000.7999999523,,281999.7000000477,,282009.112,8,400,,,
break_continue,html.Screen,4_91_2,2023-05-01T21:47:23.675Z,,0,,,NaN,,,,,,false,,,,282001.5,282001.40000009537,,282001.09999990463,,282009.112,8,400,,,
sequence,flow.Sequence,4_91,2023-05-01T21:47:23.675Z,,0,,,2075.5380000953446,completion,,,,,false,,,,282001.7000000477,282001.40000009537,279909.196,279922.90000009537,279925.862,282009.112,8,400,,,
trial,html.Screen,4_92_0,2023-05-01T21:47:25.784Z,,0,2,,2101.2880000953446,response,ISIC_0065283.JPG,,ISIC_0006821.JPG,ISIC_0006821.JPG,false,0,keypress(z),500,284110.90000009537,284110.40000009537,281992.446,282001.90000009537,282009.112,284125.694,8,400,43,,ISIC_0065283.JPG
break,html.Screen,4_92_1,2023-05-01T21:47:25.786Z,,0,,,NaN,,,,,,false,,,,284112.59999990463,284112.2000000477,,284111.2000000477,,284125.694,8,400,,,
break_continue,html.Screen,4_92_2,2023-05-01T21:47:25.787Z,,0,,,NaN,,,,,,false,,,,284113,284112.90000009537,,284112.7000000477,,284125.694,8,400,,,
sequence,flow.Sequence,4_92,2023-05-01T21:47:25.787Z,,0,,,2103.7880000953446,completion,,,,,false,,,,284113.2000000477,284112.90000009537,281992.446,282001.7999999523,282009.112,284125.694,8,400,,,
trial,html.Screen,4_93_0,2023-05-01T21:47:27.874Z,,0,2,,2073.905999904615,response,ISIC_0010719.JPG,,ISIC_0946923.JPG,ISIC_0946923.JPG,false,0,keypress(z),500,286200.09999990463,286199.59999990463,284109.028,284113.40000009537,284125.694,286209.688,8,400,44,,ISIC_0010719.JPG
break,html.Screen,4_93_1,2023-05-01T21:47:27.875Z,,0,,,NaN,,,,,,false,,,,286201.7000000477,286201.40000009537,,286200.40000009537,,286209.688,8,400,,,
break_continue,html.Screen,4_93_2,2023-05-01T21:47:27.876Z,,0,,,NaN,,,,,,false,,,,286202.2000000477,286202,,286201.90000009537,,286209.688,8,400,,,
sequence,flow.Sequence,4_93,2023-05-01T21:47:27.876Z,,0,,,2076.3059999999823,completion,,,,,false,,,,286202.40000009537,286202,284109.028,284113.40000009537,284125.694,286209.688,8,400,,,
trial,html.Screen,4_94_0,2023-05-01T21:47:29.887Z,,0,2,,2003.7120000953437,response,ISIC_1027512.JPG,,ISIC_2293230.JPG,ISIC_2293230.JPG,false,0,keypress(z),500,288213.7999999523,288213.40000009537,286193.022,286202.5,286209.688,288226.274,8,400,45,,ISIC_1027512.JPG
break,html.Screen,4_94_1,2023-05-01T21:47:29.889Z,,0,,,NaN,,,,,,false,,,,288215.2000000477,288214.90000009537,,288214.09999990463,,288226.274,8,400,,,
break_continue,html.Screen,4_94_2,2023-05-01T21:47:29.889Z,,0,,,NaN,,,,,,false,,,,288215.59999990463,288215.40000009537,,288215.2999999523,,288226.274,8,400,,,
sequence,flow.Sequence,4_94,2023-05-01T21:47:29.889Z,,0,,,2005.7120000953437,completion,,,,,false,,,,288215.7000000477,288215.40000009537,286193.022,286202.5,286209.688,288226.274,8,400,,,
trial,html.Screen,4_95_0,2023-05-01T21:47:31.865Z,,0,2,,1964.426000047708,response,ISIC_0070351.JPG,,ISIC_5382189.JPG,ISIC_5382189.JPG,false,0,keypress(z),500,290191.2000000477,290190.7000000477,288209.608,288215.7999999523,288226.274,290192.862,8,400,46,,ISIC_0070351.JPG
break,html.Screen,4_95_1,2023-05-01T21:47:31.866Z,,0,,,NaN,,,,,,false,,,,290192.59999990463,290192.40000009537,,290191.5,,290192.862,8,400,,,
break_continue,html.Screen,4_95_2,2023-05-01T21:47:31.866Z,,0,,,NaN,,,,,,false,,,,290192.90000009537,290192.7999999523,,290192.7000000477,,290192.862,8,400,,,
sequence,flow.Sequence,4_95,2023-05-01T21:47:31.866Z,,0,,,1966.5259999523405,completion,,,,,false,,,,290193,290192.7999999523,288209.608,288215.7999999523,288226.274,290192.862,8,400,,,
trial,html.Screen,4_96_0,2023-05-01T21:47:33.977Z,,0,2,,2109.9379999522935,response,ISIC_1132788.JPG,,ISIC_3234816.JPG,ISIC_3234816.JPG,false,0,keypress(z),500,292303.2999999523,292302.7999999523,290176.196,290193.2000000477,290192.862,292309.444,8,400,47,,ISIC_1132788.JPG
break,html.Screen,4_96_1,2023-05-01T21:47:33.978Z,,0,,,NaN,,,,,,false,,,,292304.7999999523,292304.5,,292303.59999990463,,292309.444,8,400,,,
break_continue,html.Screen,4_96_2,2023-05-01T21:47:33.979Z,,0,,,NaN,,,,,,false,,,,292305.2999999523,292305.09999990463,,292305,,292309.444,8,400,,,
sequence,flow.Sequence,4_96,2023-05-01T21:47:33.979Z,,0,,,2112.2379999046098,completion,,,,,false,,,,292305.5,292305.09999990463,290176.196,290193.09999990463,290192.862,292309.444,8,400,,,
trial,html.Screen,4_97_0,2023-05-01T21:47:36.129Z,,0,2,,2146.0559999999823,response,ISIC_3653492.JPG,,ISIC_0030077.JPG,ISIC_0030077.JPG,false,0,keypress(z),500,294456,294455.5,292292.778,292305.59999990463,292309.444,294459.358,8,400,48,,ISIC_3653492.JPG
break,html.Screen,4_97_1,2023-05-01T21:47:36.131Z,,0,,,NaN,,,,,,false,,,,294457.5,294457.2000000477,,294456.2999999523,,294459.358,8,400,,,
break_continue,html.Screen,4_97_2,2023-05-01T21:47:36.131Z,,0,,,NaN,,,,,,false,,,,294457.90000009537,294457.7000000477,,294457.59999990463,,294459.358,8,400,,,
sequence,flow.Sequence,4_97,2023-05-01T21:47:36.131Z,,0,,,2148.256000047666,completion,,,,,false,,,,294458,294457.7000000477,292292.778,292305.59999990463,292309.444,294459.358,8,400,,,
trial,html.Screen,4_98_0,2023-05-01T21:47:38.107Z,,0,2,,1973.8420000476763,response,ISIC_0066412.JPG,,ISIC_0012883.JPG,ISIC_0012883.JPG,false,0,keypress(z),500,296433.7000000477,296433.2000000477,294442.692,294458.09999990463,294459.358,296443.359,8,400,49,,ISIC_0066412.JPG
break,html.Screen,4_98_1,2023-05-01T21:47:38.108Z,,0,,,NaN,,,,,,false,,,,296434.90000009537,296434.7999999523,,296434,,296443.359,8,400,,,
break_continue,html.Screen,4_98_2,2023-05-01T21:47:38.109Z,,0,,,NaN,,,,,,false,,,,296435.2999999523,296435.09999990463,,296435.09999990463,,296443.359,8,400,,,
sequence,flow.Sequence,4_98,2023-05-01T21:47:38.109Z,,0,,,1975.7419999046251,completion,,,,,false,,,,296435.40000009537,296435.09999990463,294442.692,294458.09999990463,294459.358,296443.359,8,400,,,
trial,html.Screen,4_99_0,2023-05-01T21:47:40.185Z,,0,2,,2067.6410000000033,response,ISIC_0071568.JPG,,ISIC_9232153.JPG,ISIC_9232153.JPG,false,0,keypress(z),500,298511.40000009537,298511,296426.693,296435.40000009537,296443.359,298526.609,8,400,50,,ISIC_0071568.JPG
break,html.Screen,4_99_1,2023-05-01T21:47:45.187Z,,0,,,4999.799999999988,timeout,,,,,false,,,,303511.40000009537,303509.743,298509.943,298511.7000000477,298526.609,303526.409,8,400,,,
break_continue,html.Screen,4_99_2,2023-05-01T21:47:45.589Z,,0,,,370.2910000476986,response,,,,,false,continue,keypress(Space),,303913,303896.7000000477,303509.743,303511.59999990463,303526.409,303926.393,8,400,,,
sequence,flow.Sequence,4_99,2023-05-01T21:47:45.589Z,,0,,,7453.341000047687,completion,,,,,false,,,,303913,303896.7000000477,296426.693,296435.40000009537,296443.359,303926.393,8,400,,,
trial,html.Screen,4_100_0,2023-05-01T21:47:47.727Z,,0,3,,2122.5070000953856,response,ISIC_0067667.JPG,,ISIC_0070992.JPG,ISIC_0067667.JPG,false,1,keypress(m),500,306049.5,306048.90000009537,303909.727,303913.09999990463,303926.393,306060.393,8,400,1,,ISIC_0070992.JPG
break,html.Screen,4_100_1,2023-05-01T21:47:47.728Z,,0,,,NaN,,,,,,false,,,,306051.2000000477,306050.90000009537,,306049.90000009537,,306060.393,8,400,,,
break_continue,html.Screen,4_100_2,2023-05-01T21:47:47.729Z,,0,,,NaN,,,,,,false,,,,306051.7000000477,306051.5,,306051.2999999523,,306060.393,8,400,,,
sequence,flow.Sequence,4_100,2023-05-01T21:47:47.729Z,,0,,,2125.107000000018,completion,,,,,false,,,,306051.90000009537,306051.5,303909.727,303913.09999990463,303926.393,306060.393,8,400,,,
trial,html.Screen,4_101_0,2023-05-01T21:47:49.718Z,,0,3,,1979.1070000000182,response,ISIC_5883331.JPG,,ISIC_0000459.JPG,ISIC_5883331.JPG,false,1,keypress(m),500,308040.09999990463,308039.5,306043.727,306052.09999990463,306060.393,308043.647,8,400,2,,ISIC_0000459.JPG
break,html.Screen,4_101_1,2023-05-01T21:47:49.720Z,,0,,,NaN,,,,,,false,,,,308041.7999999523,308041.5,,308040.40000009537,,308043.647,8,400,,,
break_continue,html.Screen,4_101_2,2023-05-01T21:47:49.720Z,,0,,,NaN,,,,,,false,,,,308042.2999999523,308042.09999990463,,308041.90000009537,,308043.647,8,400,,,
sequence,flow.Sequence,4_101,2023-05-01T21:47:49.720Z,,0,,,1981.7069999046507,completion,,,,,false,,,,308042.40000009537,308042.09999990463,306043.727,306052,306060.393,308043.647,8,400,,,
trial,html.Screen,4_102_0,2023-05-01T21:47:51.814Z,,0,3,,2091.4529999046354,response,ISIC_3809998.JPG,,ISIC_4374554.JPG,ISIC_3809998.JPG,false,1,keypress(m),500,310135.59999990463,310135.09999990463,308026.981,308042.5,308043.647,310143.563,8,400,3,,ISIC_4374554.JPG
break,html.Screen,4_102_1,2023-05-01T21:47:51.816Z,,0,,,NaN,,,,,,false,,,,310137.2000000477,310136.7999999523,,310135.7999999523,,310143.563,8,400,,,
break_continue,html.Screen,4_102_2,2023-05-01T21:47:51.816Z,,0,,,NaN,,,,,,false,,,,310137.59999990463,310137.40000009537,,310137.2999999523,,310143.563,8,400,,,
sequence,flow.Sequence,4_102,2023-05-01T21:47:51.816Z,,0,,,2093.75300009537,completion,,,,,false,,,,310137.7999999523,310137.40000009537,308026.981,308042.5,308043.647,310143.563,8,400,,,
trial,html.Screen,4_103_0,2023-05-01T21:47:53.791Z,,0,3,,1967.8370000953437,response,ISIC_0046635.JPG,,ISIC_3649632.JPG,ISIC_0046635.JPG,false,1,keypress(m),500,312111.7999999523,312111.40000009537,310126.897,310138,310143.563,312126.817,8,400,4,,ISIC_3649632.JPG
break,html.Screen,4_103_1,2023-05-01T21:47:53.792Z,,0,,,NaN,,,,,,false,,,,312113,312112.90000009537,,312112,,312126.817,8,400,,,
break_continue,html.Screen,4_103_2,2023-05-01T21:47:53.792Z,,0,,,NaN,,,,,,false,,,,312113.40000009537,312113.2999999523,,312113.09999990463,,312126.817,8,400,,,
sequence,flow.Sequence,4_103,2023-05-01T21:47:53.793Z,,0,,,1969.7369999522925,completion,,,,,false,,,,312113.5,312113.2999999523,310126.897,310137.90000009537,310143.563,312126.817,8,400,,,
trial,html.Screen,4_104_0,2023-05-01T21:47:55.791Z,,0,3,,1984.0830000953865,response,ISIC_2957732.JPG,,ISIC_0897526.JPG,ISIC_2957732.JPG,false,1,keypress(m),500,314111.2999999523,314110.90000009537,312110.151,312113.59999990463,312126.817,314126.737,8,400,5,,ISIC_0897526.JPG
break,html.Screen,4_104_1,2023-05-01T21:47:55.792Z,,0,,,NaN,,,,,,false,,,,314112.90000009537,314112.7000000477,,314111.59999990463,,314126.737,8,400,,,
break_continue,html.Screen,4_104_2,2023-05-01T21:47:55.793Z,,0,,,NaN,,,,,,false,,,,314113.40000009537,314113.2999999523,,314113.09999990463,,314126.737,8,400,,,
sequence,flow.Sequence,4_104,2023-05-01T21:47:55.793Z,,0,,,1986.4829999523354,completion,,,,,false,,,,314113.59999990463,314113.2999999523,312110.151,312113.59999990463,312126.817,314126.737,8,400,,,
trial,html.Screen,4_105_0,2023-05-01T21:47:57.864Z,,0,3,,2056.8629999046098,response,ISIC_0066358.JPG,,ISIC_0061021.JPG,ISIC_0066358.JPG,false,1,keypress(m),500,316184.09999990463,316183.59999990463,314110.071,314113.7999999523,314126.737,316194.06,8,400,6,,ISIC_0061021.JPG
break,html.Screen,4_105_1,2023-05-01T21:47:57.866Z,,0,,,NaN,,,,,,false,,,,316185.7000000477,316185.40000009537,,316184.40000009537,,316194.06,8,400,,,
break_continue,html.Screen,4_105_2,2023-05-01T21:47:57.866Z,,0,,,NaN,,,,,,false,,,,316186.2000000477,316186.09999990463,,316185.90000009537,,316194.06,8,400,,,
sequence,flow.Sequence,4_105,2023-05-01T21:47:57.866Z,,0,,,2059.3629999046098,completion,,,,,false,,,,316186.40000009537,316186.09999990463,314110.071,314113.7999999523,314126.737,316194.06,8,400,,,
trial,html.Screen,4_106_0,2023-05-01T21:47:59.976Z,,0,3,,2100.8400000953698,response,ISIC_0028338.JPG,,ISIC_3093026.JPG,ISIC_0028338.JPG,false,1,keypress(m),500,318295.40000009537,318294.90000009537,316177.394,316186.59999990463,316194.06,318310.642,8,400,7,,ISIC_3093026.JPG
break,html.Screen,4_106_1,2023-05-01T21:47:59.977Z,,0,,,NaN,,,,,,false,,,,318296.90000009537,318296.7000000477,,318295.7000000477,,318310.642,8,400,,,
break_continue,html.Screen,4_106_2,2023-05-01T21:47:59.978Z,,0,,,NaN,,,,,,false,,,,318297.5,318297.2999999523,,318297.09999990463,,318310.642,8,400,,,
sequence,flow.Sequence,4_106,2023-05-01T21:47:59.978Z,,0,,,2103.2399999523186,completion,,,,,false,,,,318297.59999990463,318297.2999999523,316177.394,316186.5,316194.06,318310.642,8,400,,,
trial,html.Screen,4_107_0,2023-05-01T21:48:02.050Z,,0,3,,2058.1579999523237,response,ISIC_2732573.JPG,,ISIC_9640145.JPG,ISIC_2732573.JPG,false,1,keypress(m),500,320369.40000009537,320368.7999999523,318293.976,318297.7999999523,318310.642,320377.226,8,400,8,,ISIC_9640145.JPG
break,html.Screen,4_107_1,2023-05-01T21:48:02.052Z,,0,,,NaN,,,,,,false,,,,320370.90000009537,320370.59999990463,,320369.59999990463,,320377.226,8,400,,,
break_continue,html.Screen,4_107_2,2023-05-01T21:48:02.052Z,,0,,,NaN,,,,,,false,,,,320371.40000009537,320371.2999999523,,320371.09999990463,,320377.226,8,400,,,
sequence,flow.Sequence,4_107,2023-05-01T21:48:02.052Z,,0,,,2060.6579999523237,completion,,,,,false,,,,320371.5,320371.2999999523,318293.976,318297.7000000477,318310.642,320377.226,8,400,,,
trial,html.Screen,4_108_0,2023-05-01T21:48:04.217Z,,0,3,,2158.174000095343,response,ISIC_4614604.JPG,,ISIC_0014133.JPG,ISIC_4614604.JPG,false,1,keypress(m),500,322535.59999990463,322535.40000009537,320360.56,320371.59999990463,320377.226,322543.806,8,400,9,,ISIC_0014133.JPG
break,html.Screen,4_108_1,2023-05-01T21:48:04.217Z,,0,,,NaN,,,,,,false,,,,322536.2999999523,322536.09999990463,,322535.7999999523,,322543.806,8,400,,,
break_continue,html.Screen,4_108_2,2023-05-01T21:48:04.217Z,,0,,,NaN,,,,,,false,,,,322536.5,322536.40000009537,,322536.40000009537,,322543.806,8,400,,,
sequence,flow.Sequence,4_108,2023-05-01T21:48:04.217Z,,0,,,2159.174000095343,completion,,,,,false,,,,322536.59999990463,322536.40000009537,320360.56,320371.59999990463,320377.226,322543.806,8,400,,,
trial,html.Screen,4_109_0,2023-05-01T21:48:06.320Z,,0,3,,2094.594000095385,response,ISIC_5434055.JPG,,ISIC_0071735.JPG,ISIC_5434055.JPG,false,1,keypress(m),500,324638.7999999523,324638.40000009537,322527.14,322536.59999990463,322543.806,324643.722,8,400,10,,ISIC_0071735.JPG
break,html.Screen,4_109_1,2023-05-01T21:48:06.321Z,,0,,,NaN,,,,,,false,,,,324640.2000000477,324640,,324639.09999990463,,324643.722,8,400,,,
break_continue,html.Screen,4_109_2,2023-05-01T21:48:06.322Z,,0,,,NaN,,,,,,false,,,,324640.5,324640.5,,324640.2999999523,,324643.722,8,400,,,
sequence,flow.Sequence,4_109,2023-05-01T21:48:06.322Z,,0,,,2096.6940000000177,completion,,,,,false,,,,324640.59999990463,324640.5,322527.14,322536.59999990463,322543.806,324643.722,8,400,,,
trial,html.Screen,4_110_0,2023-05-01T21:48:08.521Z,,0,3,,2195.6780000953586,response,ISIC_3789239.JPG,,ISIC_0002811.JPG,ISIC_3789239.JPG,false,1,keypress(m),500,326839.7000000477,326839.40000009537,324627.056,324640.7000000477,324643.722,326844.392,8,400,11,,ISIC_0002811.JPG
break,html.Screen,4_110_1,2023-05-01T21:48:08.522Z,,0,,,NaN,,,,,,false,,,,326840.59999990463,326840.5,,326839.90000009537,,326844.392,8,400,,,
break_continue,html.Screen,4_110_2,2023-05-01T21:48:08.522Z,,0,,,NaN,,,,,,false,,,,326840.90000009537,326840.7999999523,,326840.7000000477,,326844.392,8,400,,,
sequence,flow.Sequence,4_110,2023-05-01T21:48:08.522Z,,0,,,2197.0779999523074,completion,,,,,false,,,,326841,326840.7999999523,324627.056,324640.7000000477,324643.722,326844.392,8,400,,,
trial,html.Screen,4_111_0,2023-05-01T21:48:11.585Z,,0,3,,3058.008000095375,response,ISIC_4374554.JPG,,ISIC_3922580.JPG,ISIC_4374554.JPG,false,1,keypress(m),500,329902.90000009537,329902.40000009537,326827.726,326841.2000000477,326844.392,329910.936,8,400,12,,ISIC_3922580.JPG
break,html.Screen,4_111_1,2023-05-01T21:48:11.586Z,,0,,,NaN,,,,,,false,,,,329904.5,329904.2000000477,,329903.2999999523,,329910.936,8,400,,,
break_continue,html.Screen,4_111_2,2023-05-01T21:48:11.587Z,,0,,,NaN,,,,,,false,,,,329905,329904.7999999523,,329904.7000000477,,329910.936,8,400,,,
sequence,flow.Sequence,4_111,2023-05-01T21:48:11.587Z,,0,,,3060.4079999523237,completion,,,,,false,,,,329905.09999990463,329904.7999999523,326827.726,326841.09999990463,326844.392,329910.936,8,400,,,
trial,html.Screen,4_112_0,2023-05-01T21:48:15.690Z,,0,3,,4096.4640000953805,response,ISIC_0430356.JPG,,ISIC_0010817.JPG,ISIC_0430356.JPG,false,1,keypress(m),500,334007.7000000477,334007.40000009537,329894.27,329905.2999999523,329910.936,334010.772,8,400,13,,ISIC_0010817.JPG
break,html.Screen,4_112_1,2023-05-01T21:48:15.690Z,,0,,,NaN,,,,,,false,,,,334008.5,334008.2999999523,,334007.90000009537,,334010.772,8,400,,,
break_continue,html.Screen,4_112_2,2023-05-01T21:48:15.691Z,,0,,,NaN,,,,,,false,,,,334008.7000000477,334008.7000000477,,334008.5,,334010.772,8,400,,,
sequence,flow.Sequence,4_112,2023-05-01T21:48:15.691Z,,0,,,4097.764000047697,completion,,,,,false,,,,334008.7999999523,334008.7000000477,329894.27,329905.2000000477,329910.936,334010.772,8,400,,,
trial,html.Screen,4_113_0,2023-05-01T21:48:20.211Z,,0,3,,4518.12800009537,response,ISIC_0006331.JPG,,ISIC_0030703.JPG,ISIC_0006331.JPG,false,1,keypress(m),500,338529.40000009537,338528.90000009537,333994.106,334008.90000009537,334010.772,338544.815,8,400,14,,ISIC_0030703.JPG
break,html.Screen,4_113_1,2023-05-01T21:48:20.213Z,,0,,,NaN,,,,,,false,,,,338531,338530.7000000477,,338529.7000000477,,338544.815,8,400,,,
break_continue,html.Screen,4_113_2,2023-05-01T21:48:20.214Z,,0,,,NaN,,,,,,false,,,,338531.5,338531.2999999523,,338531.2000000477,,338544.815,8,400,,,
sequence,flow.Sequence,4_113,2023-05-01T21:48:20.214Z,,0,,,4520.527999952319,completion,,,,,false,,,,338531.7000000477,338531.2999999523,333994.106,334008.7999999523,334010.772,338544.815,8,400,,,
trial,html.Screen,4_114_0,2023-05-01T21:48:22.412Z,,0,3,,2184.085000095365,response,ISIC_3597812.JPG,,ISIC_0071457.JPG,ISIC_3597812.JPG,false,1,keypress(m),500,340729.40000009537,340728.90000009537,338528.149,338531.90000009537,338544.815,340744.727,8,400,15,,ISIC_0071457.JPG
break,html.Screen,4_114_1,2023-05-01T21:48:22.413Z,,0,,,NaN,,,,,,false,,,,340731,340730.7000000477,,340729.7000000477,,340744.727,8,400,,,
break_continue,html.Screen,4_114_2,2023-05-01T21:48:22.414Z,,0,,,NaN,,,,,,false,,,,340731.5,340731.40000009537,,340731.2000000477,,340744.727,8,400,,,
sequence,flow.Sequence,4_114,2023-05-01T21:48:22.414Z,,0,,,2186.585000095365,completion,,,,,false,,,,340731.7999999523,340731.40000009537,338528.149,338531.7999999523,338544.815,340744.727,8,400,,,
trial,html.Screen,4_115_0,2023-05-01T21:48:24.659Z,,0,3,,2231.872999904619,response,ISIC_9475559.JPG,,ISIC_0032473.JPG,ISIC_9475559.JPG,false,1,keypress(m),500,342977.09999990463,342976.59999990463,340728.061,340731.90000009537,340744.727,342994.637,8,400,16,,ISIC_0032473.JPG
break,html.Screen,4_115_1,2023-05-01T21:48:24.661Z,,0,,,NaN,,,,,,false,,,,342978.40000009537,342978.2000000477,,342977.40000009537,,342994.637,8,400,,,
break_continue,html.Screen,4_115_2,2023-05-01T21:48:24.661Z,,0,,,NaN,,,,,,false,,,,342978.7000000477,342978.5,,342978.40000009537,,342994.637,8,400,,,
sequence,flow.Sequence,4_115,2023-05-01T21:48:24.661Z,,0,,,2233.7729999999865,completion,,,,,false,,,,342978.7999999523,342978.5,340728.061,340731.7999999523,340744.727,342994.637,8,400,,,
trial,html.Screen,4_116_0,2023-05-01T21:48:26.795Z,,0,3,,2117.863000000012,response,ISIC_0031960.JPG,,ISIC_2139752.JPG,ISIC_0031960.JPG,false,1,keypress(m),500,345112.90000009537,345112.5,342977.971,342978.90000009537,342994.637,345127.885,8,400,17,,ISIC_2139752.JPG
break,html.Screen,4_116_1,2023-05-01T21:48:26.796Z,,0,,,NaN,,,,,,false,,,,345114.2999999523,345114,,345113.2000000477,,345127.885,8,400,,,
break_continue,html.Screen,4_116_2,2023-05-01T21:48:26.797Z,,0,,,NaN,,,,,,false,,,,345114.7000000477,345114.59999990463,,345114.40000009537,,345127.885,8,400,,,
sequence,flow.Sequence,4_116,2023-05-01T21:48:26.797Z,,0,,,2119.9629999046447,completion,,,,,false,,,,345114.7999999523,345114.59999990463,342977.971,342978.7999999523,342994.637,345127.885,8,400,,,
trial,html.Screen,4_117_0,2023-05-01T21:48:28.811Z,,0,3,,2000.5150000953581,response,ISIC_1080647.JPG,,ISIC_5011583.JPG,ISIC_1080647.JPG,false,1,keypress(m),500,347128.90000009537,347128.40000009537,345111.219,345114.90000009537,345127.885,347144.471,8,400,18,,ISIC_5011583.JPG
break,html.Screen,4_117_1,2023-05-01T21:48:28.813Z,,0,,,NaN,,,,,,false,,,,347130.2999999523,347130,,347129.2999999523,,347144.471,8,400,,,
break_continue,html.Screen,4_117_2,2023-05-01T21:48:28.813Z,,0,,,NaN,,,,,,false,,,,347130.7000000477,347130.7000000477,,347130.5,,347144.471,8,400,,,
sequence,flow.Sequence,4_117,2023-05-01T21:48:28.813Z,,0,,,2002.8150000476744,completion,,,,,false,,,,347130.90000009537,347130.7000000477,345111.219,345114.90000009537,345127.885,347144.471,8,400,,,
trial,html.Screen,4_118_0,2023-05-01T21:48:30.897Z,,0,3,,2069.628999904613,response,ISIC_6507640.JPG,,ISIC_0026087.JPG,ISIC_6507640.JPG,false,1,keypress(m),500,349214.5,349214.09999990463,347127.805,347130.90000009537,347144.471,349245.119,8,400,19,,ISIC_0026087.JPG
break,html.Screen,4_118_1,2023-05-01T21:48:30.898Z,,0,,,NaN,,,,,,false,,,,349216,349215.7000000477,,349214.7999999523,,349245.119,8,400,,,
break_continue,html.Screen,4_118_2,2023-05-01T21:48:30.899Z,,0,,,NaN,,,,,,false,,,,349216.2999999523,349216.2000000477,,349216.09999990463,,349245.119,8,400,,,
sequence,flow.Sequence,4_118,2023-05-01T21:48:30.899Z,,0,,,2071.729000047664,completion,,,,,false,,,,349216.5,349216.2000000477,347127.805,347130.90000009537,347144.471,349245.119,8,400,,,
trial,html.Screen,4_119_0,2023-05-01T21:48:33.058Z,,0,3,,2130.0810000476777,response,ISIC_9720518.JPG,,ISIC_0067012.JPG,ISIC_9720518.JPG,false,1,keypress(m),500,351375.7000000477,351375.2000000477,349228.453,349216.59999990463,349245.119,351378.367,8,400,20,,ISIC_0067012.JPG
break,html.Screen,4_119_1,2023-05-01T21:48:33.060Z,,0,,,NaN,,,,,,false,,,,351377.5,351377.09999990463,,351376,,351378.367,8,400,,,
break_continue,html.Screen,4_119_2,2023-05-01T21:48:33.060Z,,0,,,NaN,,,,,,false,,,,351377.90000009537,351377.7999999523,,351377.59999990463,,351378.367,8,400,,,
sequence,flow.Sequence,4_119,2023-05-01T21:48:33.060Z,,0,,,2132.6809999523102,completion,,,,,false,,,,351378,351377.7999999523,349228.453,349216.59999990463,349245.119,351378.367,8,400,,,
trial,html.Screen,4_120_0,2023-05-01T21:48:35.106Z,,0,3,,2044.8330000476562,response,ISIC_0009735.JPG,,ISIC_0030833.JPG,ISIC_0009735.JPG,false,1,keypress(m),500,353423.5,353423.2000000477,351361.701,351378.2000000477,351378.367,353428.285,8,400,21,,ISIC_0030833.JPG
break,html.Screen,4_120_1,2023-05-01T21:48:35.107Z,,0,,,NaN,,,,,,false,,,,353424.40000009537,353424.2999999523,,353423.7000000477,,353428.285,8,400,,,
break_continue,html.Screen,4_120_2,2023-05-01T21:48:35.107Z,,0,,,NaN,,,,,,false,,,,353424.7000000477,353424.59999990463,,353424.59999990463,,353428.285,8,400,,,
sequence,flow.Sequence,4_120,2023-05-01T21:48:35.107Z,,0,,,2046.232999904605,completion,,,,,false,,,,353424.7999999523,353424.59999990463,351361.701,351378.09999990463,351378.367,353428.285,8,400,,,
trial,html.Screen,4_121_0,2023-05-01T21:48:37.227Z,,0,3,,2116.4150000477093,response,ISIC_0055087.JPG,,ISIC_0024701.JPG,ISIC_0055087.JPG,false,1,keypress(m),500,355545.2000000477,355544.7000000477,353411.619,353424.90000009537,353428.285,355561.533,8,400,22,,ISIC_0024701.JPG
break,html.Screen,4_121_1,2023-05-01T21:48:37.229Z,,0,,,NaN,,,,,,false,,,,355546.7000000477,355546.40000009537,,355545.5,,355561.533,8,400,,,
break_continue,html.Screen,4_121_2,2023-05-01T21:48:37.230Z,,0,,,NaN,,,,,,false,,,,355547.2999999523,355547.09999990463,,355546.90000009537,,355561.533,8,400,,,
sequence,flow.Sequence,4_121,2023-05-01T21:48:37.230Z,,0,,,2118.814999904658,completion,,,,,false,,,,355547.5,355547.09999990463,353411.619,353424.90000009537,353428.285,355561.533,8,400,,,
trial,html.Screen,4_122_0,2023-05-01T21:48:39.314Z,,0,3,,2069.667000047688,response,ISIC_3447311.JPG,,ISIC_0000072.JPG,ISIC_3447311.JPG,false,1,keypress(m),500,357631.7000000477,357631.2000000477,355544.867,355547.7999999523,355561.533,357644.783,8,400,23,,ISIC_0000072.JPG
break,html.Screen,4_122_1,2023-05-01T21:48:39.316Z,,0,,,NaN,,,,,,false,,,,357633.2999999523,357633.09999990463,,357632.09999990463,,357644.783,8,400,,,
break_continue,html.Screen,4_122_2,2023-05-01T21:48:39.316Z,,0,,,NaN,,,,,,false,,,,357633.90000009537,357633.7000000477,,357633.5,,357644.783,8,400,,,
sequence,flow.Sequence,4_122,2023-05-01T21:48:39.316Z,,0,,,2072.167000047688,completion,,,,,false,,,,357634.09999990463,357633.7000000477,355544.867,355547.7000000477,355561.533,357644.783,8,400,,,
trial,html.Screen,4_123_0,2023-05-01T21:48:41.322Z,,0,3,,1994.7170000000042,response,ISIC_7953039.JPG,,ISIC_5324987.JPG,ISIC_7953039.JPG,false,1,keypress(m),500,359640,359639.5,357628.117,357634.2000000477,357644.783,359645.463,8,400,24,,ISIC_5324987.JPG
break,html.Screen,4_123_1,2023-05-01T21:48:41.324Z,,0,,,NaN,,,,,,false,,,,359641.5,359641.2999999523,,359640.2999999523,,359645.463,8,400,,,
break_continue,html.Screen,4_123_2,2023-05-01T21:48:41.324Z,,0,,,NaN,,,,,,false,,,,359642,359641.7999999523,,359641.7000000477,,359645.463,8,400,,,
sequence,flow.Sequence,4_123,2023-05-01T21:48:41.324Z,,0,,,1997.0169999523205,completion,,,,,false,,,,359642.2000000477,359641.7999999523,357628.117,357634.09999990463,357644.783,359645.463,8,400,,,
trial,html.Screen,4_124_0,2023-05-01T21:48:43.396Z,,0,3,,2067.537000000011,response,ISIC_3351880.JPG,,ISIC_0069050.JPG,ISIC_3351880.JPG,false,1,keypress(m),500,361713.5,361713,359628.797,359642.2999999523,359645.463,361728.713,8,400,25,,ISIC_0069050.JPG
break,html.Screen,4_124_1,2023-05-01T21:48:43.397Z,,0,,,NaN,,,,,,false,,,,361715,361714.7999999523,,361713.7999999523,,361728.713,8,400,,,
break_continue,html.Screen,4_124_2,2023-05-01T21:48:43.398Z,,0,,,NaN,,,,,,false,,,,361715.40000009537,361715.2999999523,,361715.2000000477,,361728.713,8,400,,,
sequence,flow.Sequence,4_124,2023-05-01T21:48:43.398Z,,0,,,2069.8369999523275,completion,,,,,false,,,,361715.59999990463,361715.2999999523,359628.797,359642.2999999523,359645.463,361728.713,8,400,,,
trial,html.Screen,4_125_0,2023-05-01T21:48:45.466Z,,0,3,,2054.6870000953786,response,ISIC_7368239.JPG,,ISIC_8397077.JPG,ISIC_7368239.JPG,false,1,keypress(m),500,363783.90000009537,363783.40000009537,361712.047,361715.7000000477,361728.713,363811.963,8,400,26,,ISIC_8397077.JPG
break,html.Screen,4_125_1,2023-05-01T21:48:45.467Z,,0,,,NaN,,,,,,false,,,,363785,363784.90000009537,,363784.09999990463,,363811.963,8,400,,,
break_continue,html.Screen,4_125_2,2023-05-01T21:48:45.468Z,,0,,,NaN,,,,,,false,,,,363785.2999999523,363785.2000000477,,363785.09999990463,,363811.963,8,400,,,
sequence,flow.Sequence,4_125,2023-05-01T21:48:45.468Z,,0,,,2056.487000047695,completion,,,,,false,,,,363785.40000009537,363785.2000000477,361712.047,361715.7000000477,361728.713,363811.963,8,400,,,
