sender,sender_type,sender_id,timestamp,meta,,blockNo,condition,duration,ended_on,img_left,img_reveal,img_right,loser,practice,response,response_action,selection_duration,time_commit,time_end,time_render,time_run,time_show,time_switch,total_blocks,total_trials,trialNo,url,winner
informed_consent,html.Screen,0,2023-10-31T01:55:34.166Z,"{""labjs_version"":""20.2.4"",""labjs_build"":{""flavor"":""production"",""commit"":""f5b4a49f956347addd546a832a3327688c2c0fef""},""location"":""https://run.pavlovia.org/MurrayBennett/melanoma-2afc/?participant=65742&platform=sona"",""userAgent"":""Mozilla/5.0 (Macintosh; Intel Mac OS X 10_15_7) AppleWebKit/537.36 (KHTML, like Gecko) Chrome/116.0.0.0 Safari/537.36"",""platform"":""MacIntel"",""language"":""en-US"",""locale"":""en-US"",""timeZone"":""America/Chicago"",""timezoneOffset"":300,""screen_width"":1440,""screen_height"":900,""scroll_width"":1440,""scroll_height"":767,""window_innerWidth"":1440,""window_innerHeight"":815,""devicePixelRatio"":2}",,,,20102.617999964237,response,,,,,,consent,click button,,22046.5,22041.599999964237,1788.988,1936.699999988079,1938.982,22055.895,,,,"{""participant"":""65742"",""platform"":""sona""}",
Welcome,html.Screen,1,2023-10-31T01:56:07.504Z,,,,regular,33324.504999976154,response,,,,,,continue,click button,,55384.19999998808,55380.39999997616,22039.229,22046.69999998808,22055.895,55389.327,,,,,
trial,html.Screen,2_0_0,2023-10-31T01:56:18.997Z,,0,0,,11516.658000000003,timeout,ISIC_0061792.JPG,,ISIC_4679428.JPG,,true,,,500,66877.69999998808,66877.09999996424,55372.661,55384.69999998808,55389.327,66905.985,1,6,1,,
sequence,flow.Sequence,2_0,2023-10-31T01:56:18.998Z,,0,,,11487.77299996424,completion,,,,,true,,,,66878.09999996424,66877.09999996424,55372.661,55384.59999996424,55389.327,66905.985,1,6,,,
trial,html.Screen,2_1_0,2023-10-31T01:56:24.556Z,,0,0,,5529.514999999999,response,ISIC_5199497.JPG,,ISIC_0776486.JPG,ISIC_0776486.JPG,true,0,keypress(z),500,72436.09999996424,72435.5,66889.319,66878.29999995232,66905.985,72439.097,1,6,2,,ISIC_5199497.JPG
sequence,flow.Sequence,2_1,2023-10-31T01:56:24.556Z,,0,,,5529.514999999999,completion,,,,,true,,,,72436.59999996424,72435.5,66889.319,66878.29999995232,66905.985,72439.097,1,6,,,
trial,html.Screen,2_2_0,2023-10-31T01:56:28.114Z,,0,0,,3554.9030000000057,response,ISIC_8575776.JPG,,ISIC_2556187.JPG,ISIC_2556187.JPG,true,0,keypress(z),500,75994.5,75994,72422.431,72436.79999995232,72439.097,76005.621,1,6,3,,ISIC_8575776.JPG
sequence,flow.Sequence,2_2,2023-10-31T01:56:28.114Z,,0,,,3554.9030000000057,completion,,,,,true,,,,75994.89999997616,75994,72422.431,72436.69999998808,72439.097,76005.621,1,6,,,
trial,html.Screen,2_3_0,2023-10-31T01:56:32.518Z,,0,0,,4392.178999952317,response,ISIC_9238366.JPG,,ISIC_8141769.JPG,ISIC_8141769.JPG,true,0,keypress(z),500,80398.29999995232,80397.79999995232,75988.955,75995.29999995232,76005.621,80406.325,1,6,4,,ISIC_9238366.JPG
sequence,flow.Sequence,2_3,2023-10-31T01:56:32.518Z,,0,,,4392.178999952317,completion,,,,,true,,,,80399,80397.79999995232,75988.955,75995.09999996424,76005.621,80406.325,1,6,,,
trial,html.Screen,2_4_0,2023-10-31T01:56:36.140Z,,0,0,,3613.974999952319,response,ISIC_9959593.JPG,,ISIC_8949026.JPG,ISIC_9959593.JPG,true,1,keypress(m),500,84020.79999995232,84020.29999995232,80389.659,80399.19999998808,80406.325,84022.847,1,6,5,,ISIC_8949026.JPG
sequence,flow.Sequence,2_4,2023-10-31T01:56:36.141Z,,0,,,3613.974999952319,completion,,,,,true,,,,84021.29999995232,84020.29999995232,80389.659,80399.09999996424,80406.325,84022.847,1,6,,,
trial,html.Screen,2_5_0,2023-10-31T01:56:41.394Z,,0,0,,5250.752999964243,response,ISIC_0010479.JPG,,ISIC_0460240.JPG,ISIC_0010479.JPG,true,1,keypress(m),500,89274.19999998808,89273.59999996424,84006.181,84021.59999996424,84022.847,89289.743,1,6,6,,ISIC_0460240.JPG
sequence,flow.Sequence,2_5,2023-10-31T01:56:41.394Z,,0,,,5250.752999964243,completion,,,,,true,,,,89274.59999996424,89273.59999996424,84006.181,84021.5,84022.847,89289.743,1,6,,,
loop,flow.Loop,2,2023-10-31T01:56:41.394Z,,,,,33884.27299996424,completion,,,,,true,,,,89274.89999997616,89273.59999996424,55372.661,55384.5,55389.327,89289.743,1,6,,,
exp_instructions,html.Screen,3,2023-10-31T01:56:52.608Z,,,,,11187.856999964235,response,,,,,,continue,keypress(Space),,100488,100477.59999996424,89273.077,89275,89289.743,100489.295,,,,,
trial,html.Screen,4_0_0,2023-10-31T01:56:56.504Z,,0,1,,3894.10499997616,response,ISIC_0779920.JPG,8,ISIC_0061884.JPG,ISIC_0779920.JPG,false,1,keypress(m),500,104383.79999995232,104383.39999997616,100472.629,100488.29999995232,100489.295,104389.311,8,400,1,,ISIC_0061884.JPG
break,html.Screen,4_0_1,2023-10-31T01:56:56.505Z,,0,,,NaN,,,,,,false,,,,104385.19999998808,104384.89999997616,,104384.09999996424,,104389.311,8,400,,,
break_continue,html.Screen,4_0_2,2023-10-31T01:56:56.505Z,,0,,,NaN,,,,,,false,,,,104385.69999998808,104385.59999996424,,104385.39999997616,,104389.311,8,400,,,
sequence,flow.Sequence,4_0,2023-10-31T01:56:56.506Z,,0,,,3896.304999964239,completion,,,,,false,,,,104385.89999997616,104385.59999996424,100472.629,100488.29999995232,100489.295,104389.311,8,400,,,
trial,html.Screen,4_1_0,2023-10-31T01:57:00.094Z,,0,1,,3584.1889999999985,response,ISIC_1543544.JPG,6,ISIC_3613392.JPG,ISIC_3613392.JPG,false,0,keypress(z),500,107973.89999997616,107973.5,104372.645,104386.09999996424,104389.311,107989.167,8,400,2,,ISIC_1543544.JPG
break,html.Screen,4_1_1,2023-10-31T01:57:00.095Z,,0,,,NaN,,,,,,false,,,,107975,107974.69999998808,,107974.19999998808,,107989.167,8,400,,,
break_continue,html.Screen,4_1_2,2023-10-31T01:57:00.095Z,,0,,,NaN,,,,,,false,,,,107975.29999995232,107975.19999998808,,107975.09999996424,,107989.167,8,400,,,
sequence,flow.Sequence,4_1,2023-10-31T01:57:00.095Z,,0,,,3585.8889999880776,completion,,,,,false,,,,107975.39999997616,107975.19999998808,104372.645,104385.89999997616,104389.311,107989.167,8,400,,,
trial,html.Screen,4_2_0,2023-10-31T01:57:04.373Z,,0,1,,4263.632999952315,response,ISIC_0030818.JPG,8,ISIC_0067308.JPG,ISIC_0067308.JPG,false,0,keypress(z),500,112253.19999998808,112252.79999995232,107972.501,107975.59999996424,107989.167,112256.642,8,400,3,,ISIC_0030818.JPG
break,html.Screen,4_2_1,2023-10-31T01:57:04.374Z,,0,,,NaN,,,,,,false,,,,112254.19999998808,112254,,112253.39999997616,,112256.642,8,400,,,
break_continue,html.Screen,4_2_2,2023-10-31T01:57:04.374Z,,0,,,NaN,,,,,,false,,,,112254.59999996424,112254.5,,112254.29999995232,,112256.642,8,400,,,
sequence,flow.Sequence,4_2,2023-10-31T01:57:04.374Z,,0,,,4265.332999999999,completion,,,,,false,,,,112254.69999998808,112254.5,107972.501,107975.59999996424,107989.167,112256.642,8,400,,,
trial,html.Screen,4_3_0,2023-10-31T01:57:08.667Z,,0,1,,4290.257999976151,response,ISIC_0063551.JPG,8,ISIC_5867911.JPG,ISIC_5867911.JPG,false,0,keypress(z),500,116547.29999995232,116546.89999997616,112239.976,112254.89999997616,112256.642,116556.47,8,400,4,,ISIC_0063551.JPG
break,html.Screen,4_3_1,2023-10-31T01:57:08.668Z,,0,,,NaN,,,,,,false,,,,116548.29999995232,116548.09999996424,,116547.59999996424,,116556.47,8,400,,,
break_continue,html.Screen,4_3_2,2023-10-31T01:57:08.668Z,,0,,,NaN,,,,,,false,,,,116548.69999998808,116548.59999996424,,116548.39999997616,,116556.47,8,400,,,
sequence,flow.Sequence,4_3,2023-10-31T01:57:08.669Z,,0,,,4291.95799996423,completion,,,,,false,,,,116548.89999997616,116548.59999996424,112239.976,112254.79999995232,112256.642,116556.47,8,400,,,
trial,html.Screen,4_4_0,2023-10-31T01:57:12.225Z,,0,1,,3547.929999976157,response,ISIC_2378428.JPG,5,ISIC_4141315.JPG,ISIC_4141315.JPG,false,0,keypress(z),500,120104.79999995232,120104.39999997616,116539.804,116549,116556.47,120106.328,8,400,5,,ISIC_2378428.JPG
break,html.Screen,4_4_1,2023-10-31T01:57:12.226Z,,0,,,NaN,,,,,,false,,,,120105.69999998808,120105.5,,120105.09999996424,,120106.328,8,400,,,
break_continue,html.Screen,4_4_2,2023-10-31T01:57:12.226Z,,0,,,NaN,,,,,,false,,,,120106.19999998808,120106,,120105.89999997616,,120106.328,8,400,,,
sequence,flow.Sequence,4_4,2023-10-31T01:57:12.226Z,,0,,,3549.529999999999,completion,,,,,false,,,,120106.39999997616,120106,116539.804,116549,116556.47,120106.328,8,400,,,
trial,html.Screen,4_5_0,2023-10-31T01:57:16.871Z,,0,1,,4644.271999964243,response,ISIC_0072953.JPG,7,ISIC_1911193.JPG,ISIC_0072953.JPG,false,1,keypress(m),500,124751,124750.59999996424,120089.662,120106.39999997616,120106.328,124756.651,8,400,6,,ISIC_1911193.JPG
break,html.Screen,4_5_1,2023-10-31T01:57:16.872Z,,0,,,NaN,,,,,,false,,,,124752,124751.79999995232,,124751.29999995232,,124756.651,8,400,,,
break_continue,html.Screen,4_5_2,2023-10-31T01:57:16.872Z,,0,,,NaN,,,,,,false,,,,124752.5,124752.29999995232,,124752.09999996424,,124756.651,8,400,,,
sequence,flow.Sequence,4_5,2023-10-31T01:57:16.872Z,,0,,,4645.971999952322,completion,,,,,false,,,,124752.59999996424,124752.29999995232,120089.662,120106.39999997616,120106.328,124756.651,8,400,,,
trial,html.Screen,4_6_0,2023-10-31T01:57:20.731Z,,0,1,,3854.448999964239,response,ISIC_9495211.JPG,6,ISIC_9088774.JPG,ISIC_9495211.JPG,false,1,keypress(m),500,128611.39999997616,128611.09999996424,124739.985,124752.69999998808,124756.651,128623.163,8,400,7,,ISIC_9088774.JPG
break,html.Screen,4_6_1,2023-10-31T01:57:20.732Z,,0,,,NaN,,,,,,false,,,,128612.39999997616,128612.19999998808,,128611.79999995232,,128623.163,8,400,,,
break_continue,html.Screen,4_6_2,2023-10-31T01:57:20.733Z,,0,,,NaN,,,,,,false,,,,128612.79999995232,128612.59999996424,,128612.59999996424,,128623.163,8,400,,,
sequence,flow.Sequence,4_6,2023-10-31T01:57:20.733Z,,0,,,3855.948999964239,completion,,,,,false,,,,128613,128612.59999996424,124739.985,124752.69999998808,124756.651,128623.163,8,400,,,
trial,html.Screen,4_7_0,2023-10-31T01:57:24.315Z,,0,1,,3571.8369999999995,response,ISIC_8591425.JPG,5,ISIC_9076021.JPG,ISIC_9076021.JPG,false,0,keypress(z),500,132195.59999996424,132195,128606.497,128613.09999996424,128623.163,132206.353,8,400,8,,ISIC_8591425.JPG
break,html.Screen,4_7_1,2023-10-31T01:57:24.317Z,,0,,,NaN,,,,,,false,,,,132196.59999996424,132196.39999997616,,132195.79999995232,,132206.353,8,400,,,
break_continue,html.Screen,4_7_2,2023-10-31T01:57:24.317Z,,0,,,NaN,,,,,,false,,,,132197,132196.89999997616,,132196.79999995232,,132206.353,8,400,,,
sequence,flow.Sequence,4_7,2023-10-31T01:57:24.317Z,,0,,,3573.7369999761577,completion,,,,,false,,,,132197.19999998808,132196.89999997616,128606.497,128613,128623.163,132206.353,8,400,,,
trial,html.Screen,4_8_0,2023-10-31T01:57:27.667Z,,0,1,,3340.0469999761553,response,ISIC_0055367.JPG,8,ISIC_0010651.JPG,ISIC_0055367.JPG,false,1,keypress(m),500,135546.79999995232,135546.39999997616,132189.687,132197.29999995232,132206.353,135556.707,8,400,9,,ISIC_0010651.JPG
break,html.Screen,4_8_1,2023-10-31T01:57:27.668Z,,0,,,NaN,,,,,,false,,,,135547.79999995232,135547.59999996424,,135547.09999996424,,135556.707,8,400,,,
break_continue,html.Screen,4_8_2,2023-10-31T01:57:27.668Z,,0,,,NaN,,,,,,false,,,,135548.19999998808,135548.09999996424,,135548,,135556.707,8,400,,,
sequence,flow.Sequence,4_8,2023-10-31T01:57:27.668Z,,0,,,3341.7469999642344,completion,,,,,false,,,,135548.39999997616,135548.09999996424,132189.687,132197.19999998808,132206.353,135556.707,8,400,,,
trial,html.Screen,4_9_0,2023-10-31T01:57:32.698Z,,0,1,,5021.092999952321,response,ISIC_8435105.JPG,8,ISIC_5281762.JPG,ISIC_5281762.JPG,false,0,keypress(z),500,140578.19999998808,140577.79999995232,135540.041,135548.5,135556.707,140589.839,8,400,10,,ISIC_8435105.JPG
break,html.Screen,4_9_1,2023-10-31T01:57:32.699Z,,0,,,NaN,,,,,,false,,,,140579.19999998808,140579,,140578.5,,140589.839,8,400,,,
break_continue,html.Screen,4_9_2,2023-10-31T01:57:32.700Z,,0,,,NaN,,,,,,false,,,,140579.59999996424,140579.5,,140579.39999997616,,140589.839,8,400,,,
sequence,flow.Sequence,4_9,2023-10-31T01:57:32.700Z,,0,,,5022.793000000005,completion,,,,,false,,,,140579.69999998808,140579.5,135540.041,135548.5,135556.707,140589.839,8,400,,,
trial,html.Screen,4_10_0,2023-10-31T01:57:37.616Z,,0,1,,4905.660999999993,response,ISIC_0068407.JPG,8,ISIC_7528996.JPG,ISIC_0068407.JPG,false,1,keypress(m),500,145496,145495.5,140573.173,140579.89999997616,140589.839,145523.561,8,400,11,,ISIC_7528996.JPG
break,html.Screen,4_10_1,2023-10-31T01:57:37.617Z,,0,,,NaN,,,,,,false,,,,145497,145496.89999997616,,145496.29999995232,,145523.561,8,400,,,
break_continue,html.Screen,4_10_2,2023-10-31T01:57:37.617Z,,0,,,NaN,,,,,,false,,,,145497.39999997616,145497.29999995232,,145497.19999998808,,145523.561,8,400,,,
sequence,flow.Sequence,4_10,2023-10-31T01:57:37.618Z,,0,,,4907.460999952309,completion,,,,,false,,,,145497.59999996424,145497.29999995232,140573.173,140579.89999997616,140589.839,145523.561,8,400,,,
trial,html.Screen,4_11_0,2023-10-31T01:57:43.382Z,,0,1,,5738.238999952329,response,ISIC_0033181.JPG,8,ISIC_0013364.JPG,ISIC_0013364.JPG,false,0,keypress(z),500,151262.19999998808,151261.79999995232,145506.895,145497.59999996424,145523.561,151273.331,8,400,12,,ISIC_0033181.JPG
break,html.Screen,4_11_1,2023-10-31T01:57:43.383Z,,0,,,NaN,,,,,,false,,,,151263.19999998808,151263.09999996424,,151262.5,,151273.331,8,400,,,
break_continue,html.Screen,4_11_2,2023-10-31T01:57:43.384Z,,0,,,NaN,,,,,,false,,,,151263.59999996424,151263.5,,151263.29999995232,,151273.331,8,400,,,
sequence,flow.Sequence,4_11,2023-10-31T01:57:43.384Z,,0,,,5739.939000000013,completion,,,,,false,,,,151263.79999995232,151263.5,145506.895,145497.59999996424,145523.561,151273.331,8,400,,,
trial,html.Screen,4_12_0,2023-10-31T01:57:46.900Z,,0,1,,3506.1689999999944,response,ISIC_5527224.JPG,8,ISIC_9538004.JPG,ISIC_5527224.JPG,false,1,keypress(m),500,154780.09999996424,154779.5,151256.665,151263.89999997616,151273.331,154789.857,8,400,13,,ISIC_9538004.JPG
break,html.Screen,4_12_1,2023-10-31T01:57:46.901Z,,0,,,NaN,,,,,,false,,,,154781,154780.79999995232,,154780.39999997616,,154789.857,8,400,,,
break_continue,html.Screen,4_12_2,2023-10-31T01:57:46.901Z,,0,,,NaN,,,,,,false,,,,154781.39999997616,154781.19999998808,,154781.09999996424,,154789.857,8,400,,,
sequence,flow.Sequence,4_12,2023-10-31T01:57:46.902Z,,0,,,3507.8689999880735,completion,,,,,false,,,,154781.59999996424,154781.19999998808,151256.665,151263.89999997616,151273.331,154789.857,8,400,,,
trial,html.Screen,4_13_0,2023-10-31T01:57:51.096Z,,0,1,,4185.942999952327,response,ISIC_0032598.JPG,8,ISIC_9466794.JPG,ISIC_0032598.JPG,false,1,keypress(m),500,158976.29999995232,158975.79999995232,154773.191,154781.69999998808,154789.857,158990.142,8,400,14,,ISIC_9466794.JPG
break,html.Screen,4_13_1,2023-10-31T01:57:51.097Z,,0,,,NaN,,,,,,false,,,,158977.29999995232,158977.09999996424,,158976.59999996424,,158990.142,8,400,,,
break_continue,html.Screen,4_13_2,2023-10-31T01:57:51.098Z,,0,,,NaN,,,,,,false,,,,158977.69999998808,158977.5,,158977.39999997616,,158990.142,8,400,,,
sequence,flow.Sequence,4_13,2023-10-31T01:57:51.098Z,,0,,,4187.643000000011,completion,,,,,false,,,,158977.89999997616,158977.5,154773.191,154781.69999998808,154789.857,158990.142,8,400,,,
trial,html.Screen,4_14_0,2023-10-31T01:57:54.431Z,,0,1,,3319.9579999642447,response,ISIC_0032907.JPG,8,ISIC_4328662.JPG,ISIC_4328662.JPG,false,0,keypress(z),500,162310.59999996424,162310.09999996424,158973.476,158978,158990.142,162323.342,8,400,15,,ISIC_0032907.JPG
break,html.Screen,4_14_1,2023-10-31T01:57:54.432Z,,0,,,NaN,,,,,,false,,,,162311.5,162311.29999995232,,162310.89999997616,,162323.342,8,400,,,
break_continue,html.Screen,4_14_2,2023-10-31T01:57:54.432Z,,0,,,NaN,,,,,,false,,,,162311.89999997616,162311.79999995232,,162311.59999996424,,162323.342,8,400,,,
sequence,flow.Sequence,4_14,2023-10-31T01:57:54.432Z,,0,,,3321.6579999523237,completion,,,,,false,,,,162312.09999996424,162311.79999995232,158973.476,158978,158990.142,162323.342,8,400,,,
trial,html.Screen,4_15_0,2023-10-31T01:57:57.939Z,,0,1,,3494.657999999996,response,ISIC_5810196.JPG,8,ISIC_0062058.JPG,ISIC_0062058.JPG,false,0,keypress(z),500,165818.5,165818,162306.676,162312.19999998808,162323.342,165823.202,8,400,16,,ISIC_5810196.JPG
break,html.Screen,4_15_1,2023-10-31T01:57:57.940Z,,0,,,NaN,,,,,,false,,,,165819.39999997616,165819.19999998808,,165818.69999998808,,165823.202,8,400,,,
break_continue,html.Screen,4_15_2,2023-10-31T01:57:57.940Z,,0,,,NaN,,,,,,false,,,,165819.79999995232,165819.59999996424,,165819.59999996424,,165823.202,8,400,,,
sequence,flow.Sequence,4_15,2023-10-31T01:57:57.940Z,,0,,,3496.257999964233,completion,,,,,false,,,,165820,165819.59999996424,162306.676,162312.09999996424,162323.342,165823.202,8,400,,,
trial,html.Screen,4_16_0,2023-10-31T01:58:01.610Z,,0,1,,3666.597999952326,response,ISIC_0006108.JPG,8,ISIC_0031203.JPG,ISIC_0031203.JPG,false,0,keypress(z),500,169490.19999998808,169489.79999995232,165806.536,165820.09999996424,165823.202,169506.872,8,400,17,,ISIC_0006108.JPG
break,html.Screen,4_16_1,2023-10-31T01:58:01.611Z,,0,,,NaN,,,,,,false,,,,169491.19999998808,169490.89999997616,,169490.39999997616,,169506.872,8,400,,,
break_continue,html.Screen,4_16_2,2023-10-31T01:58:01.612Z,,0,,,NaN,,,,,,false,,,,169491.59999996424,169491.39999997616,,169491.29999995232,,169506.872,8,400,,,
sequence,flow.Sequence,4_16,2023-10-31T01:58:01.612Z,,0,,,3668.197999976168,completion,,,,,false,,,,169491.79999995232,169491.39999997616,165806.536,165820,165823.202,169506.872,8,400,,,
trial,html.Screen,4_17_0,2023-10-31T01:58:05.313Z,,0,1,,3685.827999988076,response,ISIC_0068107.JPG,5,ISIC_0029013.JPG,ISIC_0068107.JPG,false,1,keypress(m),500,173193.09999996424,173192.69999998808,169490.206,169491.89999997616,169506.872,173206.724,8,400,18,,ISIC_0029013.JPG
break,html.Screen,4_17_1,2023-10-31T01:58:05.314Z,,0,,,NaN,,,,,,false,,,,173194.09999996424,173194,,173193.39999997616,,173206.724,8,400,,,
break_continue,html.Screen,4_17_2,2023-10-31T01:58:05.315Z,,0,,,NaN,,,,,,false,,,,173194.5,173194.39999997616,,173194.29999995232,,173206.724,8,400,,,
sequence,flow.Sequence,4_17,2023-10-31T01:58:05.315Z,,0,,,3687.527999976155,completion,,,,,false,,,,173194.69999998808,173194.39999997616,169490.206,169491.89999997616,169506.872,173206.724,8,400,,,
trial,html.Screen,4_18_0,2023-10-31T01:58:09.640Z,,0,1,,4312.87599996425,response,ISIC_0485996.JPG,8,ISIC_0031717.JPG,ISIC_0485996.JPG,false,1,keypress(m),500,177520,177519.59999996424,173190.058,173194.79999995232,173206.724,177523.651,8,400,19,,ISIC_0031717.JPG
break,html.Screen,4_18_1,2023-10-31T01:58:09.641Z,,0,,,NaN,,,,,,false,,,,177520.89999997616,177520.79999995232,,177520.19999998808,,177523.651,8,400,,,
break_continue,html.Screen,4_18_2,2023-10-31T01:58:09.642Z,,0,,,NaN,,,,,,false,,,,177521.29999995232,177521.19999998808,,177521.09999996424,,177523.651,8,400,,,
sequence,flow.Sequence,4_18,2023-10-31T01:58:09.642Z,,0,,,4314.475999988092,completion,,,,,false,,,,177521.5,177521.19999998808,173190.058,173194.79999995232,173206.724,177523.651,8,400,,,
trial,html.Screen,4_19_0,2023-10-31T01:58:13.278Z,,0,1,,3633.6489999523037,response,ISIC_0347984.JPG,7,ISIC_6828892.JPG,ISIC_0347984.JPG,false,1,keypress(m),500,181157.79999995232,181157.29999995232,177506.985,177521.59999996424,177523.651,181173.505,8,400,20,,ISIC_6828892.JPG
break,html.Screen,4_19_1,2023-10-31T01:58:13.279Z,,0,,,NaN,,,,,,false,,,,181158.79999995232,181158.59999996424,,181158.09999996424,,181173.505,8,400,,,
break_continue,html.Screen,4_19_2,2023-10-31T01:58:13.279Z,,0,,,NaN,,,,,,false,,,,181159.19999998808,181159.09999996424,,181159,,181173.505,8,400,,,
sequence,flow.Sequence,4_19,2023-10-31T01:58:13.280Z,,0,,,3635.4489999642246,completion,,,,,false,,,,181159.29999995232,181159.09999996424,177506.985,177521.59999996424,177523.651,181173.505,8,400,,,
trial,html.Screen,4_20_0,2023-10-31T01:58:17.141Z,,0,1,,3846.2949999523116,response,ISIC_0032190.JPG,9,ISIC_3751090.JPG,ISIC_0032190.JPG,false,1,keypress(m),500,185020.19999998808,185019.79999995232,181156.839,181159.5,181173.505,185023.351,8,400,21,,ISIC_3751090.JPG
break,html.Screen,4_20_1,2023-10-31T01:58:17.142Z,,0,,,NaN,,,,,,false,,,,185021.29999995232,185021,,185020.59999996424,,185023.351,8,400,,,
break_continue,html.Screen,4_20_2,2023-10-31T01:58:17.142Z,,0,,,NaN,,,,,,false,,,,185021.59999996424,185021.5,,185021.39999997616,,185023.351,8,400,,,
sequence,flow.Sequence,4_20,2023-10-31T01:58:17.142Z,,0,,,3847.9949999999953,completion,,,,,false,,,,185021.79999995232,185021.5,181156.839,181159.39999997616,181173.505,185023.351,8,400,,,
trial,html.Screen,4_21_0,2023-10-31T01:58:21.132Z,,0,1,,3987.649000000005,response,ISIC_0059571.JPG,8,ISIC_5897799.JPG,ISIC_0059571.JPG,false,1,keypress(m),500,189011.5,189011,185006.685,185022,185023.351,189023.711,8,400,22,,ISIC_5897799.JPG
break,html.Screen,4_21_1,2023-10-31T01:58:21.133Z,,0,,,NaN,,,,,,false,,,,189012.39999997616,189012.19999998808,,189011.79999995232,,189023.711,8,400,,,
break_continue,html.Screen,4_21_2,2023-10-31T01:58:21.133Z,,0,,,NaN,,,,,,false,,,,189012.89999997616,189012.69999998808,,189012.59999996424,,189023.711,8,400,,,
sequence,flow.Sequence,4_21,2023-10-31T01:58:21.133Z,,0,,,3989.348999988084,completion,,,,,false,,,,189013.09999996424,189012.69999998808,185006.685,185021.89999997616,185023.351,189023.711,8,400,,,
trial,html.Screen,4_22_0,2023-10-31T01:58:25.249Z,,0,1,,4104.488999988069,response,ISIC_0008424.JPG,9,ISIC_8167374.JPG,ISIC_8167374.JPG,false,0,keypress(z),500,193128.59999996424,193128.19999998808,189007.045,189013.19999998808,189023.711,193140.213,8,400,23,,ISIC_0008424.JPG
break,html.Screen,4_22_1,2023-10-31T01:58:25.250Z,,0,,,NaN,,,,,,false,,,,193129.59999996424,193129.39999997616,,193128.89999997616,,193140.213,8,400,,,
break_continue,html.Screen,4_22_2,2023-10-31T01:58:25.250Z,,0,,,NaN,,,,,,false,,,,193129.89999997616,193129.79999995232,,193129.69999998808,,193140.213,8,400,,,
sequence,flow.Sequence,4_22,2023-10-31T01:58:25.250Z,,0,,,4106.088999952306,completion,,,,,false,,,,193130.09999996424,193129.79999995232,189007.045,189013.09999996424,189023.711,193140.213,8,400,,,
trial,html.Screen,4_23_0,2023-10-31T01:58:28.951Z,,0,1,,3690.287000000011,response,ISIC_7240424.JPG,9,ISIC_0624498.JPG,ISIC_7240424.JPG,false,1,keypress(m),500,196830.79999995232,196830.5,193123.547,193130.19999998808,193140.213,196840.538,8,400,24,,ISIC_0624498.JPG
break,html.Screen,4_23_1,2023-10-31T01:58:28.952Z,,0,,,NaN,,,,,,false,,,,196831.89999997616,196831.59999996424,,196831.19999998808,,196840.538,8,400,,,
break_continue,html.Screen,4_23_2,2023-10-31T01:58:28.953Z,,0,,,NaN,,,,,,false,,,,196832.29999995232,196832.19999998808,,196831.89999997616,,196840.538,8,400,,,
sequence,flow.Sequence,4_23,2023-10-31T01:58:28.953Z,,0,,,3691.9869999880902,completion,,,,,false,,,,196832.5,196832.19999998808,193123.547,193130.19999998808,193140.213,196840.538,8,400,,,
trial,html.Screen,4_24_0,2023-10-31T01:58:34.011Z,,0,1,,5050.061999964237,response,ISIC_7011122.JPG,8,ISIC_1053427.JPG,ISIC_7011122.JPG,false,1,keypress(m),500,201891.09999996424,201890.59999996424,196823.872,196832.59999996424,196840.538,201907.002,8,400,25,,ISIC_1053427.JPG
break,html.Screen,4_24_1,2023-10-31T01:58:34.012Z,,0,,,NaN,,,,,,false,,,,201892.09999996424,201891.79999995232,,201891.29999995232,,201907.002,8,400,,,
break_continue,html.Screen,4_24_2,2023-10-31T01:58:34.013Z,,0,,,NaN,,,,,,false,,,,201892.39999997616,201892.29999995232,,201892.19999998808,,201907.002,8,400,,,
sequence,flow.Sequence,4_24,2023-10-31T01:58:34.013Z,,0,,,5051.761999952316,completion,,,,,false,,,,201892.59999996424,201892.29999995232,196823.872,196832.5,196840.538,201907.002,8,400,,,
trial,html.Screen,4_25_0,2023-10-31T01:58:38.447Z,,0,1,,4419.297999952309,response,ISIC_0028022.JPG,8,ISIC_0056309.JPG,ISIC_0028022.JPG,false,1,keypress(m),500,206326.69999998808,206326.29999995232,201890.336,201892.69999998808,201907.002,206340.158,8,400,26,,ISIC_0056309.JPG
break,html.Screen,4_25_1,2023-10-31T01:58:38.448Z,,0,,,NaN,,,,,,false,,,,206327.69999998808,206327.39999997616,,206327,,206340.158,8,400,,,
break_continue,html.Screen,4_25_2,2023-10-31T01:58:38.449Z,,0,,,NaN,,,,,,false,,,,206328.09999996424,206327.89999997616,,206327.79999995232,,206340.158,8,400,,,
sequence,flow.Sequence,4_25,2023-10-31T01:58:38.449Z,,0,,,4420.8979999761505,completion,,,,,false,,,,206328.29999995232,206327.89999997616,201890.336,201892.69999998808,201907.002,206340.158,8,400,,,
trial,html.Screen,4_26_0,2023-10-31T01:58:43.014Z,,0,1,,4552.741999976162,response,ISIC_7650369.JPG,6,ISIC_4604654.JPG,ISIC_4604654.JPG,false,0,keypress(z),500,210893.29999995232,210892.89999997616,206323.492,206328.39999997616,206340.158,210907.104,8,400,27,,ISIC_7650369.JPG
break,html.Screen,4_26_1,2023-10-31T01:58:43.015Z,,0,,,NaN,,,,,,false,,,,210894.19999998808,210894,,210893.5,,210907.104,8,400,,,
break_continue,html.Screen,4_26_2,2023-10-31T01:58:43.015Z,,0,,,NaN,,,,,,false,,,,210894.59999996424,210894.5,,210894.29999995232,,210907.104,8,400,,,
sequence,flow.Sequence,4_26,2023-10-31T01:58:43.015Z,,0,,,4554.342000000004,completion,,,,,false,,,,210894.79999995232,210894.5,206323.492,206328.29999995232,206340.158,210907.104,8,400,,,
trial,html.Screen,4_27_0,2023-10-31T01:58:47.603Z,,0,1,,4575.295999976166,response,ISIC_0028751.JPG,8,ISIC_0033524.JPG,ISIC_0033524.JPG,false,0,keypress(z),500,215482.69999998808,215482.39999997616,210890.438,210894.89999997616,210907.104,215490.254,8,400,28,,ISIC_0028751.JPG
break,html.Screen,4_27_1,2023-10-31T01:58:47.604Z,,0,,,NaN,,,,,,false,,,,215483.69999998808,215483.5,,215483,,215490.254,8,400,,,
break_continue,html.Screen,4_27_2,2023-10-31T01:58:47.605Z,,0,,,NaN,,,,,,false,,,,215484.09999996424,215483.89999997616,,215483.79999995232,,215490.254,8,400,,,
sequence,flow.Sequence,4_27,2023-10-31T01:58:47.605Z,,0,,,4576.795999976166,completion,,,,,false,,,,215484.19999998808,215483.89999997616,210890.438,210894.89999997616,210907.104,215490.254,8,400,,,
trial,html.Screen,4_28_0,2023-10-31T01:58:51.770Z,,0,1,,4158.945999988093,response,ISIC_2506200.JPG,7,ISIC_7702483.JPG,ISIC_7702483.JPG,false,0,keypress(z),500,219649.59999996424,219649.19999998808,215473.588,215484.39999997616,215490.254,219657.222,8,400,29,,ISIC_2506200.JPG
break,html.Screen,4_28_1,2023-10-31T01:58:51.771Z,,0,,,NaN,,,,,,false,,,,219650.39999997616,219650.29999995232,,219649.79999995232,,219657.222,8,400,,,
break_continue,html.Screen,4_28_2,2023-10-31T01:58:51.771Z,,0,,,NaN,,,,,,false,,,,219650.79999995232,219650.69999998808,,219650.59999996424,,219657.222,8,400,,,
sequence,flow.Sequence,4_28,2023-10-31T01:58:51.772Z,,0,,,4160.445999988093,completion,,,,,false,,,,219651.09999996424,219650.69999998808,215473.588,215484.29999995232,215490.254,219657.222,8,400,,,
trial,html.Screen,4_29_0,2023-10-31T01:58:55.214Z,,0,1,,3436.1779999761493,response,ISIC_2902328.JPG,8,ISIC_3566243.JPG,ISIC_2902328.JPG,false,1,keypress(m),500,223093.69999998808,223093.39999997616,219640.556,219651.19999998808,219657.222,223107.084,8,400,30,,ISIC_3566243.JPG
break,html.Screen,4_29_1,2023-10-31T01:58:55.215Z,,0,,,NaN,,,,,,false,,,,223094.59999996424,223094.39999997616,,223094,,223107.084,8,400,,,
break_continue,html.Screen,4_29_2,2023-10-31T01:58:55.216Z,,0,,,NaN,,,,,,false,,,,223095,223094.89999997616,,223094.69999998808,,223107.084,8,400,,,
sequence,flow.Sequence,4_29,2023-10-31T01:58:55.216Z,,0,,,3437.6779999761493,completion,,,,,false,,,,223095.09999996424,223094.89999997616,219640.556,219651.09999996424,219657.222,223107.084,8,400,,,
trial,html.Screen,4_30_0,2023-10-31T01:58:58.941Z,,0,1,,3713.2159999523137,response,ISIC_0067485.JPG,6,ISIC_0056991.JPG,ISIC_0067485.JPG,false,1,keypress(m),500,226820.79999995232,226820.29999995232,223090.418,223095.29999995232,223107.084,226823.602,8,400,31,,ISIC_0056991.JPG
break,html.Screen,4_30_1,2023-10-31T01:58:58.943Z,,0,,,NaN,,,,,,false,,,,226821.89999997616,226821.59999996424,,226821.09999996424,,226823.602,8,400,,,
break_continue,html.Screen,4_30_2,2023-10-31T01:58:58.943Z,,0,,,NaN,,,,,,false,,,,226822.19999998808,226822.09999996424,,226822,,226823.602,8,400,,,
sequence,flow.Sequence,4_30,2023-10-31T01:58:58.943Z,,0,,,3715.0159999642347,completion,,,,,false,,,,226822.39999997616,226822.09999996424,223090.418,223095.19999998808,223107.084,226823.602,8,400,,,
trial,html.Screen,4_31_0,2023-10-31T01:59:02.524Z,,0,1,,3578.8979999999865,response,ISIC_0030508.JPG,8,ISIC_0031835.JPG,ISIC_0030508.JPG,false,1,keypress(m),500,230403,230402.5,226806.936,226822.59999996424,226823.602,230407.255,8,400,32,,ISIC_0031835.JPG
break,html.Screen,4_31_1,2023-10-31T01:59:02.525Z,,0,,,NaN,,,,,,false,,,,230404.09999996424,230403.89999997616,,230403.29999995232,,230407.255,8,400,,,
break_continue,html.Screen,4_31_2,2023-10-31T01:59:02.525Z,,0,,,NaN,,,,,,false,,,,230404.39999997616,230404.29999995232,,230404.19999998808,,230407.255,8,400,,,
sequence,flow.Sequence,4_31,2023-10-31T01:59:02.525Z,,0,,,3580.697999952303,completion,,,,,false,,,,230404.69999998808,230404.29999995232,226806.936,226822.5,226823.602,230407.255,8,400,,,
trial,html.Screen,4_32_0,2023-10-31T01:59:06.034Z,,0,1,,3505.7449999999953,response,ISIC_0024694.JPG,7,ISIC_3684488.JPG,ISIC_3684488.JPG,false,0,keypress(z),500,233913.39999997616,233913,230390.589,230404.79999995232,230407.255,233923.781,8,400,33,,ISIC_0024694.JPG
break,html.Screen,4_32_1,2023-10-31T01:59:06.035Z,,0,,,NaN,,,,,,false,,,,233914.29999995232,233914.19999998808,,233913.69999998808,,233923.781,8,400,,,
break_continue,html.Screen,4_32_2,2023-10-31T01:59:06.035Z,,0,,,NaN,,,,,,false,,,,233914.79999995232,233914.69999998808,,233914.5,,233923.781,8,400,,,
sequence,flow.Sequence,4_32,2023-10-31T01:59:06.036Z,,0,,,3507.4449999880744,completion,,,,,false,,,,233915,233914.69999998808,230390.589,230404.69999998808,230407.255,233923.781,8,400,,,
trial,html.Screen,4_33_0,2023-10-31T01:59:11.115Z,,0,1,,5070.518999952328,response,ISIC_8244535.JPG,5,ISIC_0064044.JPG,ISIC_8244535.JPG,false,1,keypress(m),500,238994.59999996424,238994.29999995232,233907.115,233915.09999996424,233923.781,239007.318,8,400,34,,ISIC_0064044.JPG
break,html.Screen,4_33_1,2023-10-31T01:59:11.116Z,,0,,,NaN,,,,,,false,,,,238995.59999996424,238995.39999997616,,238994.89999997616,,239007.318,8,400,,,
break_continue,html.Screen,4_33_2,2023-10-31T01:59:11.117Z,,0,,,NaN,,,,,,false,,,,238996.09999996424,238995.89999997616,,238995.69999998808,,239007.318,8,400,,,
sequence,flow.Sequence,4_33,2023-10-31T01:59:11.117Z,,0,,,5072.11899997617,completion,,,,,false,,,,238996.19999998808,238995.89999997616,233907.115,233915.09999996424,233923.781,239007.318,8,400,,,
trial,html.Screen,4_34_0,2023-10-31T01:59:14.228Z,,0,1,,3099.3819999880798,response,ISIC_6038490.JPG,7,ISIC_0065204.JPG,ISIC_0065204.JPG,false,0,keypress(z),500,242107.09999996424,242106.69999998808,238990.652,238996.29999995232,239007.318,242123.86,8,400,35,,ISIC_6038490.JPG
break,html.Screen,4_34_1,2023-10-31T01:59:14.229Z,,0,,,NaN,,,,,,false,,,,242108,242107.79999995232,,242107.39999997616,,242123.86,8,400,,,
break_continue,html.Screen,4_34_2,2023-10-31T01:59:14.229Z,,0,,,NaN,,,,,,false,,,,242108.39999997616,242108.29999995232,,242108.09999996424,,242123.86,8,400,,,
sequence,flow.Sequence,4_34,2023-10-31T01:59:14.229Z,,0,,,3100.981999952317,completion,,,,,false,,,,242108.5,242108.29999995232,238990.652,238996.29999995232,239007.318,242123.86,8,400,,,
trial,html.Screen,4_35_0,2023-10-31T01:59:17.834Z,,0,1,,3589.239999964251,response,ISIC_0033496.JPG,9,ISIC_9848743.JPG,ISIC_9848743.JPG,false,0,keypress(z),500,245713.39999997616,245713.09999996424,242107.194,242108.69999998808,242123.86,245723.716,8,400,36,,ISIC_0033496.JPG
break,html.Screen,4_35_1,2023-10-31T01:59:17.835Z,,0,,,NaN,,,,,,false,,,,245714.39999997616,245714.29999995232,,245713.79999995232,,245723.716,8,400,,,
break_continue,html.Screen,4_35_2,2023-10-31T01:59:17.836Z,,0,,,NaN,,,,,,false,,,,245714.79999995232,245714.69999998808,,245714.59999996424,,245723.716,8,400,,,
sequence,flow.Sequence,4_35,2023-10-31T01:59:17.836Z,,0,,,3590.839999988093,completion,,,,,false,,,,245715,245714.69999998808,242107.194,242108.59999996424,242123.86,245723.716,8,400,,,
trial,html.Screen,4_36_0,2023-10-31T01:59:21.344Z,,0,1,,3499.4839999880933,response,ISIC_3289574.JPG,8,ISIC_4525317.JPG,ISIC_4525317.JPG,false,0,keypress(z),500,249223.59999996424,249223.19999998808,245707.05,245715.09999996424,245723.716,249240.785,8,400,37,,ISIC_3289574.JPG
break,html.Screen,4_36_1,2023-10-31T01:59:21.345Z,,0,,,NaN,,,,,,false,,,,249224.5,249224.29999995232,,249223.79999995232,,249240.785,8,400,,,
break_continue,html.Screen,4_36_2,2023-10-31T01:59:21.346Z,,0,,,NaN,,,,,,false,,,,249224.89999997616,249224.79999995232,,249224.69999998808,,249240.785,8,400,,,
sequence,flow.Sequence,4_36,2023-10-31T01:59:21.346Z,,0,,,3501.0839999523305,completion,,,,,false,,,,249225.09999996424,249224.79999995232,245707.05,245715.09999996424,245723.716,249240.785,8,400,,,
trial,html.Screen,4_37_0,2023-10-31T01:59:25.271Z,,0,1,,3908.7149999999965,response,ISIC_8714502.JPG,7,ISIC_9155855.JPG,ISIC_8714502.JPG,false,1,keypress(m),500,253149.89999997616,253149.5,249224.119,249225.29999995232,249240.785,253157.295,8,400,38,,ISIC_9155855.JPG
break,html.Screen,4_37_1,2023-10-31T01:59:25.272Z,,0,,,NaN,,,,,,false,,,,253150.89999997616,253150.69999998808,,253150.19999998808,,253157.295,8,400,,,
break_continue,html.Screen,4_37_2,2023-10-31T01:59:25.272Z,,0,,,NaN,,,,,,false,,,,253151.29999995232,253151.19999998808,,253151.09999996424,,253157.295,8,400,,,
sequence,flow.Sequence,4_37,2023-10-31T01:59:25.272Z,,0,,,3910.4149999880756,completion,,,,,false,,,,253151.5,253151.19999998808,249224.119,249225.19999998808,249240.785,253157.295,8,400,,,
trial,html.Screen,4_38_0,2023-10-31T01:59:29.548Z,,0,1,,4269.704999999987,response,ISIC_5874357.JPG,8,ISIC_0519386.JPG,ISIC_5874357.JPG,false,1,keypress(m),500,257427.39999997616,257427,253140.629,253151.59999996424,253157.295,257440.457,8,400,39,,ISIC_0519386.JPG
break,html.Screen,4_38_1,2023-10-31T01:59:29.549Z,,0,,,NaN,,,,,,false,,,,257428.39999997616,257428.19999998808,,257427.79999995232,,257440.457,8,400,,,
break_continue,html.Screen,4_38_2,2023-10-31T01:59:29.550Z,,0,,,NaN,,,,,,false,,,,257428.79999995232,257428.69999998808,,257428.59999996424,,257440.457,8,400,,,
sequence,flow.Sequence,4_38,2023-10-31T01:59:29.550Z,,0,,,4271.404999988066,completion,,,,,false,,,,257429,257428.69999998808,253140.629,253151.59999996424,253157.295,257440.457,8,400,,,
trial,html.Screen,4_39_0,2023-10-31T01:59:33.057Z,,0,1,,3494.9429999761633,response,ISIC_0030255.JPG,7,ISIC_0015443.JPG,ISIC_0030255.JPG,false,1,keypress(m),500,260935.79999995232,260935.39999997616,257423.791,257429.09999996424,257440.457,260940.786,8,400,40,,ISIC_0015443.JPG
break,html.Screen,4_39_1,2023-10-31T01:59:33.057Z,,0,,,NaN,,,,,,false,,,,260936.59999996424,260936.39999997616,,260936,,260940.786,8,400,,,
break_continue,html.Screen,4_39_2,2023-10-31T01:59:33.058Z,,0,,,NaN,,,,,,false,,,,260936.89999997616,260936.79999995232,,260936.69999998808,,260940.786,8,400,,,
sequence,flow.Sequence,4_39,2023-10-31T01:59:33.058Z,,0,,,3496.3429999523214,completion,,,,,false,,,,260937.09999996424,260936.79999995232,257423.791,257429,257440.457,260940.786,8,400,,,
trial,html.Screen,4_40_0,2023-10-31T01:59:36.940Z,,0,1,,3878.214000000007,response,ISIC_7928137.JPG,7,ISIC_0062286.JPG,ISIC_7928137.JPG,false,1,keypress(m),500,264819.39999997616,264819,260924.12,260937.19999998808,260940.786,264823.964,8,400,41,,ISIC_0062286.JPG
break,html.Screen,4_40_1,2023-10-31T01:59:36.941Z,,0,,,NaN,,,,,,false,,,,264820.2999999523,264820.09999996424,,264819.6999999881,,264823.964,8,400,,,
break_continue,html.Screen,4_40_2,2023-10-31T01:59:36.942Z,,0,,,NaN,,,,,,false,,,,264820.6999999881,264820.59999996424,,264820.5,,264823.964,8,400,,,
sequence,flow.Sequence,4_40,2023-10-31T01:59:36.942Z,,0,,,3879.8139999642444,completion,,,,,false,,,,264820.89999997616,264820.59999996424,260924.12,260937.09999996424,260940.786,264823.964,8,400,,,
trial,html.Screen,4_41_0,2023-10-31T01:59:41.410Z,,0,1,,4464.335999952338,response,ISIC_7198887.JPG,7,ISIC_7517082.JPG,ISIC_7517082.JPG,false,0,keypress(z),500,269288.6999999881,269288.2999999523,264807.298,264821,264823.964,269290.861,8,400,42,,ISIC_7198887.JPG
break,html.Screen,4_41_1,2023-10-31T01:59:41.411Z,,0,,,NaN,,,,,,false,,,,269289.6999999881,269289.5,,269289,,269290.861,8,400,,,
break_continue,html.Screen,4_41_2,2023-10-31T01:59:41.411Z,,0,,,NaN,,,,,,false,,,,269290.09999996424,269289.89999997616,,269289.7999999523,,269290.861,8,400,,,
sequence,flow.Sequence,4_41,2023-10-31T01:59:41.411Z,,0,,,4465.93599997618,completion,,,,,false,,,,269290.2999999523,269289.89999997616,264807.298,264821,264823.964,269290.861,8,400,,,
trial,html.Screen,4_42_0,2023-10-31T01:59:45.640Z,,0,1,,4228.139000000025,response,ISIC_6381852.JPG,5,ISIC_0033427.JPG,ISIC_0033427.JPG,false,0,keypress(z),500,273519.39999997616,273519,269274.195,269290.39999997616,269290.861,273524.025,8,400,43,,ISIC_6381852.JPG
break,html.Screen,4_42_1,2023-10-31T01:59:45.641Z,,0,,,NaN,,,,,,false,,,,273520.39999997616,273520.1999999881,,273519.6999999881,,273524.025,8,400,,,
break_continue,html.Screen,4_42_2,2023-10-31T01:59:45.642Z,,0,,,NaN,,,,,,false,,,,273520.6999999881,273520.59999996424,,273520.5,,273524.025,8,400,,,
sequence,flow.Sequence,4_42,2023-10-31T01:59:45.642Z,,0,,,4229.738999964262,completion,,,,,false,,,,273520.89999997616,273520.59999996424,269274.195,269290.39999997616,269290.861,273524.025,8,400,,,
trial,html.Screen,4_43_0,2023-10-31T01:59:50.325Z,,0,1,,4679.874999976135,response,ISIC_0024686.JPG,8,ISIC_3077674.JPG,ISIC_3077674.JPG,false,0,keypress(z),500,278204.2999999523,278203.89999997616,273507.359,273521,273524.025,278207.171,8,400,44,,ISIC_0024686.JPG
break,html.Screen,4_43_1,2023-10-31T01:59:50.326Z,,0,,,NaN,,,,,,false,,,,278205.2999999523,278205.09999996424,,278204.59999996424,,278207.171,8,400,,,
break_continue,html.Screen,4_43_2,2023-10-31T01:59:50.327Z,,0,,,NaN,,,,,,false,,,,278205.6999999881,278205.5,,278205.39999997616,,278207.171,8,400,,,
sequence,flow.Sequence,4_43,2023-10-31T01:59:50.327Z,,0,,,4681.474999999977,completion,,,,,false,,,,278205.89999997616,278205.5,273507.359,273521,273524.025,278207.171,8,400,,,
trial,html.Screen,4_44_0,2023-10-31T01:59:53.563Z,,0,1,,3233.928999964264,response,ISIC_0894785.JPG,8,ISIC_1858989.JPG,ISIC_0894785.JPG,false,1,keypress(m),500,281441.59999996424,281441.09999996424,278190.505,278206,278207.171,281457.587,8,400,45,,ISIC_1858989.JPG
break,html.Screen,4_44_1,2023-10-31T01:59:53.564Z,,0,,,NaN,,,,,,false,,,,281442.5,281442.39999997616,,281441.89999997616,,281457.587,8,400,,,
break_continue,html.Screen,4_44_2,2023-10-31T01:59:53.564Z,,0,,,NaN,,,,,,false,,,,281442.89999997616,281442.89999997616,,281442.6999999881,,281457.587,8,400,,,
sequence,flow.Sequence,4_44,2023-10-31T01:59:53.564Z,,0,,,3235.728999976185,completion,,,,,false,,,,281443.09999996424,281442.89999997616,278190.505,278205.89999997616,278207.171,281457.587,8,400,,,
trial,html.Screen,4_45_0,2023-10-31T01:59:57.970Z,,0,1,,4390.812999976159,response,ISIC_8785329.JPG,8,ISIC_6400232.JPG,ISIC_6400232.JPG,false,0,keypress(z),500,285848.7999999523,285848.39999997616,281440.921,281443.1999999881,281457.587,285857.411,8,400,46,,ISIC_8785329.JPG
break,html.Screen,4_45_1,2023-10-31T01:59:57.971Z,,0,,,NaN,,,,,,false,,,,285849.6999999881,285849.59999996424,,285849.09999996424,,285857.411,8,400,,,
break_continue,html.Screen,4_45_2,2023-10-31T01:59:57.971Z,,0,,,NaN,,,,,,false,,,,285850.09999996424,285850,,285849.7999999523,,285857.411,8,400,,,
sequence,flow.Sequence,4_45,2023-10-31T01:59:57.971Z,,0,,,4392.4130000000005,completion,,,,,false,,,,285850.1999999881,285850,281440.921,281443.1999999881,281457.587,285857.411,8,400,,,
trial,html.Screen,4_46_0,2023-10-31T02:00:01.606Z,,0,1,,3627.1889999642153,response,ISIC_9512048.JPG,8,ISIC_0000118.JPG,ISIC_0000118.JPG,false,0,keypress(z),500,289485,289484.59999996424,285840.745,285850.39999997616,285857.411,289490.599,8,400,47,,ISIC_9512048.JPG
break,html.Screen,4_46_1,2023-10-31T02:00:01.607Z,,0,,,NaN,,,,,,false,,,,289486,289485.6999999881,,289485.2999999523,,289490.599,8,400,,,
break_continue,html.Screen,4_46_2,2023-10-31T02:00:01.607Z,,0,,,NaN,,,,,,false,,,,289486.2999999523,289486.1999999881,,289486,,289490.599,8,400,,,
sequence,flow.Sequence,4_46,2023-10-31T02:00:01.608Z,,0,,,3628.788999988057,completion,,,,,false,,,,289486.5,289486.1999999881,285840.745,285850.39999997616,285857.411,289490.599,8,400,,,
trial,html.Screen,4_47_0,2023-10-31T02:00:05.805Z,,0,1,,4192.800999976171,response,ISIC_8629635.JPG,8,ISIC_1332766.JPG,ISIC_8629635.JPG,false,1,keypress(m),500,293683.6999999881,293683.39999997616,289473.933,289486.6999999881,289490.599,293690.926,8,400,48,,ISIC_1332766.JPG
break,html.Screen,4_47_1,2023-10-31T02:00:05.806Z,,0,,,NaN,,,,,,false,,,,293684.59999996424,293684.5,,293684,,293690.926,8,400,,,
break_continue,html.Screen,4_47_2,2023-10-31T02:00:05.806Z,,0,,,NaN,,,,,,false,,,,293685,293685,,293684.7999999523,,293690.926,8,400,,,
sequence,flow.Sequence,4_47,2023-10-31T02:00:05.806Z,,0,,,4194.401000000013,completion,,,,,false,,,,293685.1999999881,293685,289473.933,289486.59999996424,289490.599,293690.926,8,400,,,
trial,html.Screen,4_48_0,2023-10-31T02:00:10.244Z,,0,1,,4431.873999952339,response,ISIC_0024756.JPG,6,ISIC_0028226.JPG,ISIC_0024756.JPG,false,1,keypress(m),500,298123.2999999523,298122.7999999523,293674.26,293685.39999997616,293690.926,298140.748,8,400,49,,ISIC_0028226.JPG
break,html.Screen,4_48_1,2023-10-31T02:00:10.245Z,,0,,,NaN,,,,,,false,,,,298124.1999999881,298124,,298123.5,,298140.748,8,400,,,
break_continue,html.Screen,4_48_2,2023-10-31T02:00:10.246Z,,0,,,NaN,,,,,,false,,,,298124.59999996424,298124.5,,298124.39999997616,,298140.748,8,400,,,
sequence,flow.Sequence,4_48,2023-10-31T02:00:10.246Z,,0,,,4433.574000000022,completion,,,,,false,,,,298124.7999999523,298124.5,293674.26,293685.39999997616,293690.926,298140.748,8,400,,,
trial,html.Screen,4_49_0,2023-10-31T02:00:14.822Z,,0,1,,4559.951999988058,response,ISIC_0059808.JPG,8,ISIC_8378321.JPG,ISIC_8378321.JPG,false,0,keypress(z),500,302701.09999996424,302700.6999999881,298124.082,298124.89999997616,298140.748,302707.699,8,400,50,,ISIC_0059808.JPG
break,html.Screen,4_49_1,2023-10-31T02:00:24.816Z,,0,,,10000.07799999998,timeout,,,,,false,,,,312695,312691.111,302691.033,302701.39999997616,302707.699,312707.777,8,400,,,
break_continue,html.Screen,4_49_2,2023-10-31T02:00:25.625Z,,0,,,788.0229999523144,response,,,,,false,continue,keypress(Space),,313503.59999996424,313495.7999999523,312691.111,312695.09999996424,312707.777,313507.745,8,400,,,
sequence,flow.Sequence,4_49,2023-10-31T02:00:25.625Z,,0,,,15355.051999952295,completion,,,,,false,,,,313503.59999996424,313495.7999999523,298124.082,298124.89999997616,298140.748,313507.745,8,400,,,
trial,html.Screen,4_50_0,2023-10-31T02:00:31.221Z,,0,2,,5591.554999952321,response,ISIC_0061343.JPG,7,ISIC_2616327.JPG,ISIC_2616327.JPG,false,0,keypress(z),500,319099.6999999881,319099.2999999523,313491.079,313503.6999999881,313507.745,319107.521,8,400,1,,ISIC_0061343.JPG
break,html.Screen,4_50_1,2023-10-31T02:00:31.222Z,,0,,,NaN,,,,,,false,,,,319100.59999996424,319100.39999997616,,319099.89999997616,,319107.521,8,400,,,
break_continue,html.Screen,4_50_2,2023-10-31T02:00:31.222Z,,0,,,NaN,,,,,,false,,,,319101,319100.89999997616,,319100.6999999881,,319107.521,8,400,,,
sequence,flow.Sequence,4_50,2023-10-31T02:00:31.223Z,,0,,,5593.154999976163,completion,,,,,false,,,,319101.39999997616,319100.89999997616,313491.079,313503.6999999881,313507.745,319107.521,8,400,,,
trial,html.Screen,4_51_0,2023-10-31T02:00:34.469Z,,0,2,,3240.2789999523084,response,ISIC_2383335.JPG,5,ISIC_0003925.JPG,ISIC_2383335.JPG,false,1,keypress(m),500,322348.1999999881,322347.7999999523,319090.855,319101.5,319107.521,322357.877,8,400,2,,ISIC_0003925.JPG
break,html.Screen,4_51_1,2023-10-31T02:00:34.470Z,,0,,,NaN,,,,,,false,,,,322349,322348.89999997616,,322348.39999997616,,322357.877,8,400,,,
break_continue,html.Screen,4_51_2,2023-10-31T02:00:34.471Z,,0,,,NaN,,,,,,false,,,,322349.39999997616,322349.2999999523,,322349.1999999881,,322357.877,8,400,,,
sequence,flow.Sequence,4_51,2023-10-31T02:00:34.471Z,,0,,,3241.7789999523084,completion,,,,,false,,,,322349.59999996424,322349.2999999523,319090.855,319101.5,319107.521,322357.877,8,400,,,
trial,html.Screen,4_52_0,2023-10-31T02:00:39.246Z,,0,2,,4766.3229999881005,response,ISIC_0025313.JPG,8,ISIC_0058828.JPG,ISIC_0025313.JPG,false,1,keypress(m),500,327124.59999996424,327124.1999999881,322341.211,322349.7999999523,322357.877,327141.019,8,400,3,,ISIC_0058828.JPG
break,html.Screen,4_52_1,2023-10-31T02:00:39.247Z,,0,,,NaN,,,,,,false,,,,327125.59999996424,327125.2999999523,,327124.89999997616,,327141.019,8,400,,,
break_continue,html.Screen,4_52_2,2023-10-31T02:00:39.247Z,,0,,,NaN,,,,,,false,,,,327125.89999997616,327125.7999999523,,327125.59999996424,,327141.019,8,400,,,
sequence,flow.Sequence,4_52,2023-10-31T02:00:39.248Z,,0,,,4767.922999952338,completion,,,,,false,,,,327126.1999999881,327125.7999999523,322341.211,322349.6999999881,322357.877,327141.019,8,400,,,
trial,html.Screen,4_53_0,2023-10-31T02:00:42.338Z,,0,2,,3075.380999976187,response,ISIC_5049365.JPG,8,ISIC_0072730.JPG,ISIC_0072730.JPG,false,0,keypress(z),500,330216.7999999523,330216.39999997616,327124.353,327126.2999999523,327141.019,330224.229,8,400,4,,ISIC_5049365.JPG
break,html.Screen,4_53_1,2023-10-31T02:00:42.339Z,,0,,,NaN,,,,,,false,,,,330217.59999996424,330217.5,,330217.09999996424,,330224.229,8,400,,,
break_continue,html.Screen,4_53_2,2023-10-31T02:00:42.339Z,,0,,,NaN,,,,,,false,,,,330218,330217.89999997616,,330217.7999999523,,330224.229,8,400,,,
sequence,flow.Sequence,4_53,2023-10-31T02:00:42.340Z,,0,,,3076.880999976187,completion,,,,,false,,,,330218.09999996424,330217.89999997616,327124.353,327126.2999999523,327141.019,330224.229,8,400,,,
trial,html.Screen,4_54_0,2023-10-31T02:00:46.472Z,,0,2,,4125.470999988087,response,ISIC_7670304.JPG,6,ISIC_0026264.JPG,ISIC_0026264.JPG,false,0,keypress(z),500,334350.09999996424,334349.6999999881,330207.563,330218.2999999523,330224.229,334357.838,8,400,5,,ISIC_7670304.JPG
break,html.Screen,4_54_1,2023-10-31T02:00:46.472Z,,0,,,NaN,,,,,,false,,,,334351,334350.7999999523,,334350.2999999523,,334357.838,8,400,,,
break_continue,html.Screen,4_54_2,2023-10-31T02:00:46.473Z,,0,,,NaN,,,,,,false,,,,334351.39999997616,334351.1999999881,,334351.09999996424,,334357.838,8,400,,,
sequence,flow.Sequence,4_54,2023-10-31T02:00:46.473Z,,0,,,4126.970999988087,completion,,,,,false,,,,334351.5,334351.1999999881,330207.563,330218.2999999523,330224.229,334357.838,8,400,,,
trial,html.Screen,4_55_0,2023-10-31T02:00:51.757Z,,0,2,,5277.162000000011,response,ISIC_0033027.JPG,8,ISIC_8704257.JPG,ISIC_8704257.JPG,false,0,keypress(z),500,339635.39999997616,339635,334341.172,334351.6999999881,334357.838,339640.96,8,400,6,,ISIC_0033027.JPG
break,html.Screen,4_55_1,2023-10-31T02:00:51.758Z,,0,,,NaN,,,,,,false,,,,339636.1999999881,339636.09999996424,,339635.59999996424,,339640.96,8,400,,,
break_continue,html.Screen,4_55_2,2023-10-31T02:00:51.758Z,,0,,,NaN,,,,,,false,,,,339636.59999996424,339636.5,,339636.39999997616,,339640.96,8,400,,,
sequence,flow.Sequence,4_55,2023-10-31T02:00:51.758Z,,0,,,5278.662000000011,completion,,,,,false,,,,339636.6999999881,339636.5,334341.172,334351.59999996424,334357.838,339640.96,8,400,,,
trial,html.Screen,4_56_0,2023-10-31T02:00:55.427Z,,0,2,,3664.439999976137,response,ISIC_0027881.JPG,8,ISIC_0015035.JPG,ISIC_0015035.JPG,false,0,keypress(z),500,343305.6999999881,343305.39999997616,339624.294,339636.89999997616,339640.96,343307.983,8,400,7,,ISIC_0027881.JPG
break,html.Screen,4_56_1,2023-10-31T02:00:55.428Z,,0,,,NaN,,,,,,false,,,,343306.6999999881,343306.5,,343306,,343307.983,8,400,,,
break_continue,html.Screen,4_56_2,2023-10-31T02:00:55.429Z,,0,,,NaN,,,,,,false,,,,343307.09999996424,343306.89999997616,,343306.7999999523,,343307.983,8,400,,,
sequence,flow.Sequence,4_56,2023-10-31T02:00:55.429Z,,0,,,3665.939999976137,completion,,,,,false,,,,343307.09999996424,343306.89999997616,339624.294,339636.7999999523,339640.96,343307.983,8,400,,,
trial,html.Screen,4_57_0,2023-10-31T02:01:00.295Z,,0,2,,4864.916999976151,response,ISIC_5320483.JPG,5,ISIC_0071481.JPG,ISIC_5320483.JPG,false,1,keypress(m),500,348173.2999999523,348172.89999997616,343291.317,343307.2999999523,343307.983,348174.455,8,400,8,,ISIC_0071481.JPG
break,html.Screen,4_57_1,2023-10-31T02:01:00.296Z,,0,,,NaN,,,,,,false,,,,348174.2999999523,348174,,348173.59999996424,,348174.455,8,400,,,
break_continue,html.Screen,4_57_2,2023-10-31T02:01:00.296Z,,0,,,NaN,,,,,,false,,,,348174.59999996424,348174.5,,348174.39999997616,,348174.455,8,400,,,
sequence,flow.Sequence,4_57,2023-10-31T02:01:00.296Z,,0,,,4866.516999999993,completion,,,,,false,,,,348174.7999999523,348174.5,343291.317,343307.2999999523,343307.983,348174.455,8,400,,,
trial,html.Screen,4_58_0,2023-10-31T02:01:04.524Z,,0,2,,4227.944999976142,response,ISIC_1638436.JPG,8,ISIC_5140952.JPG,ISIC_1638436.JPG,false,1,keypress(m),500,352402.7999999523,352402.39999997616,348157.789,348174.89999997616,348174.455,352408.135,8,400,9,,ISIC_5140952.JPG
break,html.Screen,4_58_1,2023-10-31T02:01:04.525Z,,0,,,NaN,,,,,,false,,,,352403.59999996424,352403.39999997616,,352403,,352408.135,8,400,,,
break_continue,html.Screen,4_58_2,2023-10-31T02:01:04.526Z,,0,,,NaN,,,,,,false,,,,352404,352403.7999999523,,352403.6999999881,,352408.135,8,400,,,
sequence,flow.Sequence,4_58,2023-10-31T02:01:04.526Z,,0,,,4229.3449999523,completion,,,,,false,,,,352404.09999996424,352403.7999999523,348157.789,348174.7999999523,348174.455,352408.135,8,400,,,
trial,html.Screen,4_59_0,2023-10-31T02:01:08.884Z,,0,2,,4353.464999964228,response,ISIC_0010874.JPG,7,ISIC_3545622.JPG,ISIC_3545622.JPG,false,0,keypress(z),500,356762,356761.59999996424,352391.469,352404.2999999523,352408.135,356774.627,8,400,10,,ISIC_0010874.JPG
break,html.Screen,4_59_1,2023-10-31T02:01:08.885Z,,0,,,NaN,,,,,,false,,,,356762.89999997616,356762.6999999881,,356762.1999999881,,356774.627,8,400,,,
break_continue,html.Screen,4_59_2,2023-10-31T02:01:08.885Z,,0,,,NaN,,,,,,false,,,,356763.2999999523,356763.1999999881,,356763,,356774.627,8,400,,,
sequence,flow.Sequence,4_59,2023-10-31T02:01:08.885Z,,0,,,4355.06499998807,completion,,,,,false,,,,356763.59999996424,356763.1999999881,352391.469,352404.1999999881,352408.135,356774.627,8,400,,,
trial,html.Screen,4_60_0,2023-10-31T02:01:13.405Z,,0,2,,4508.0729999881005,response,ISIC_8659639.JPG,5,ISIC_0069204.JPG,ISIC_8659639.JPG,false,1,keypress(m),500,361283.09999996424,361282.6999999881,356757.961,356763.6999999881,356774.627,361291.113,8,400,11,,ISIC_0069204.JPG
break,html.Screen,4_60_1,2023-10-31T02:01:13.406Z,,0,,,NaN,,,,,,false,,,,361283.89999997616,361283.6999999881,,361283.2999999523,,361291.113,8,400,,,
break_continue,html.Screen,4_60_2,2023-10-31T02:01:13.406Z,,0,,,NaN,,,,,,false,,,,361284.2999999523,361284.1999999881,,361284.09999996424,,361291.113,8,400,,,
sequence,flow.Sequence,4_60,2023-10-31T02:01:13.406Z,,0,,,4509.5729999881005,completion,,,,,false,,,,361284.39999997616,361284.1999999881,356757.961,356763.6999999881,356774.627,361291.113,8,400,,,
trial,html.Screen,4_61_0,2023-10-31T02:01:16.946Z,,0,2,,3533.286999976146,response,ISIC_0032624.JPG,9,ISIC_8468512.JPG,ISIC_0032624.JPG,false,1,keypress(m),500,364824.6999999881,364824.39999997616,361274.447,361284.6999999881,361291.113,364841.425,8,400,12,,ISIC_8468512.JPG
break,html.Screen,4_61_1,2023-10-31T02:01:16.947Z,,0,,,NaN,,,,,,false,,,,364825.6999999881,364825.5,,364825,,364841.425,8,400,,,
break_continue,html.Screen,4_61_2,2023-10-31T02:01:16.948Z,,0,,,NaN,,,,,,false,,,,364826,364825.7999999523,,364825.7999999523,,364841.425,8,400,,,
sequence,flow.Sequence,4_61,2023-10-31T02:01:16.948Z,,0,,,3534.686999952304,completion,,,,,false,,,,364826.09999996424,364825.7999999523,361274.447,361284.59999996424,361291.113,364841.425,8,400,,,
trial,html.Screen,4_62_0,2023-10-31T02:01:20.744Z,,0,2,,3780.874999952328,response,ISIC_0501108.JPG,7,ISIC_7901891.JPG,ISIC_0501108.JPG,false,1,keypress(m),500,368622.6999999881,368622.2999999523,364824.759,364826.2999999523,364841.425,368624.607,8,400,13,,ISIC_7901891.JPG
break,html.Screen,4_62_1,2023-10-31T02:01:20.745Z,,0,,,NaN,,,,,,false,,,,368623.59999996424,368623.39999997616,,368623,,368624.607,8,400,,,
break_continue,html.Screen,4_62_2,2023-10-31T02:01:20.746Z,,0,,,NaN,,,,,,false,,,,368624,368623.89999997616,,368623.7999999523,,368624.607,8,400,,,
sequence,flow.Sequence,4_62,2023-10-31T02:01:20.746Z,,0,,,3782.47499997617,completion,,,,,false,,,,368624.09999996424,368623.89999997616,364824.759,364826.1999999881,364841.425,368624.607,8,400,,,
trial,html.Screen,4_63_0,2023-10-31T02:01:24.191Z,,0,2,,3444.29299997614,response,ISIC_0072604.JPG,8,ISIC_1784613.JPG,ISIC_1784613.JPG,false,0,keypress(z),500,372069.1999999881,372068.89999997616,368607.941,368624.2999999523,368624.607,372074.469,8,400,14,,ISIC_0072604.JPG
break,html.Screen,4_63_1,2023-10-31T02:01:24.192Z,,0,,,NaN,,,,,,false,,,,372070.1999999881,372070.09999996424,,372069.5,,372074.469,8,400,,,
break_continue,html.Screen,4_63_2,2023-10-31T02:01:24.192Z,,0,,,NaN,,,,,,false,,,,372070.6999999881,372070.5,,372070.39999997616,,372074.469,8,400,,,
sequence,flow.Sequence,4_63,2023-10-31T02:01:24.193Z,,0,,,3445.892999999982,completion,,,,,false,,,,372070.7999999523,372070.5,368607.941,368624.1999999881,368624.607,372074.469,8,400,,,
trial,html.Screen,4_64_0,2023-10-31T02:01:27.661Z,,0,2,,3464.8309999523335,response,ISIC_2562668.JPG,8,ISIC_0065537.JPG,ISIC_2562668.JPG,false,1,keypress(m),500,375539.59999996424,375539.2999999523,372057.803,372070.89999997616,372074.469,375541.517,8,400,15,,ISIC_0065537.JPG
break,html.Screen,4_64_1,2023-10-31T02:01:27.662Z,,0,,,NaN,,,,,,false,,,,375540.5,375540.39999997616,,375539.89999997616,,375541.517,8,400,,,
break_continue,html.Screen,4_64_2,2023-10-31T02:01:27.663Z,,0,,,NaN,,,,,,false,,,,375540.7999999523,375540.6999999881,,375540.59999996424,,375541.517,8,400,,,
sequence,flow.Sequence,4_64,2023-10-31T02:01:27.663Z,,0,,,3466.2309999880963,completion,,,,,false,,,,375541.09999996424,375540.6999999881,372057.803,372070.89999997616,372074.469,375541.517,8,400,,,
trial,html.Screen,4_65_0,2023-10-31T02:01:31.041Z,,0,2,,3376.9830000000075,response,ISIC_2518672.JPG,8,ISIC_0015079.JPG,ISIC_2518672.JPG,false,1,keypress(m),500,378918.7999999523,378918.5,375524.851,375541.09999996424,375541.517,378924.715,8,400,16,,ISIC_0015079.JPG
break,html.Screen,4_65_1,2023-10-31T02:01:31.042Z,,0,,,NaN,,,,,,false,,,,378919.6999999881,378919.59999996424,,378919.09999996424,,378924.715,8,400,,,
break_continue,html.Screen,4_65_2,2023-10-31T02:01:31.042Z,,0,,,NaN,,,,,,false,,,,378920.09999996424,378920,,378919.89999997616,,378924.715,8,400,,,
sequence,flow.Sequence,4_65,2023-10-31T02:01:31.042Z,,0,,,3378.4830000000075,completion,,,,,false,,,,378920.2999999523,378920,375524.851,375541.09999996424,375541.517,378924.715,8,400,,,
trial,html.Screen,4_66_0,2023-10-31T02:01:35.399Z,,0,2,,4352.1849999761325,response,ISIC_4998826.JPG,8,ISIC_0024781.JPG,ISIC_0024781.JPG,false,0,keypress(z),500,383277.1999999881,383276.89999997616,378908.049,378920.39999997616,378924.715,383291.207,8,400,17,,ISIC_4998826.JPG
break,html.Screen,4_66_1,2023-10-31T02:01:35.400Z,,0,,,NaN,,,,,,false,,,,383278.1999999881,383278,,383277.59999996424,,383291.207,8,400,,,
break_continue,html.Screen,4_66_2,2023-10-31T02:01:35.400Z,,0,,,NaN,,,,,,false,,,,383278.5,383278.5,,383278.2999999523,,383291.207,8,400,,,
sequence,flow.Sequence,4_66,2023-10-31T02:01:35.401Z,,0,,,4353.784999999974,completion,,,,,false,,,,383278.6999999881,383278.5,378908.049,378920.39999997616,378924.715,383291.207,8,400,,,
trial,html.Screen,4_67_0,2023-10-31T02:01:38.861Z,,0,2,,3447.793000000005,response,ISIC_0659400.JPG,8,ISIC_0033194.JPG,ISIC_0033194.JPG,false,0,keypress(z),500,386739.5,386739,383274.541,383278.7999999523,383291.207,386741.538,8,400,18,,ISIC_0659400.JPG
break,html.Screen,4_67_1,2023-10-31T02:01:38.862Z,,0,,,NaN,,,,,,false,,,,386740.39999997616,386740.1999999881,,386739.6999999881,,386741.538,8,400,,,
break_continue,html.Screen,4_67_2,2023-10-31T02:01:38.863Z,,0,,,NaN,,,,,,false,,,,386740.7999999523,386740.59999996424,,386740.59999996424,,386741.538,8,400,,,
sequence,flow.Sequence,4_67,2023-10-31T02:01:38.863Z,,0,,,3449.3929999642423,completion,,,,,false,,,,386741,386740.59999996424,383274.541,383278.7999999523,383291.207,386741.538,8,400,,,
trial,html.Screen,4_68_0,2023-10-31T02:01:42.463Z,,0,2,,3599.1619999880786,response,ISIC_5919355.JPG,6,ISIC_9069800.JPG,ISIC_9069800.JPG,false,0,keypress(z),500,390341.09999996424,390340.6999999881,386724.872,386741.09999996424,386741.538,390358.06,8,400,19,,ISIC_5919355.JPG
break,html.Screen,4_68_1,2023-10-31T02:01:42.464Z,,0,,,NaN,,,,,,false,,,,390342.09999996424,390341.89999997616,,390341.2999999523,,390358.06,8,400,,,
break_continue,html.Screen,4_68_2,2023-10-31T02:01:42.464Z,,0,,,NaN,,,,,,false,,,,390342.39999997616,390342.1999999881,,390342.09999996424,,390358.06,8,400,,,
sequence,flow.Sequence,4_68,2023-10-31T02:01:42.464Z,,0,,,3600.6619999880786,completion,,,,,false,,,,390342.59999996424,390342.1999999881,386724.872,386741.09999996424,386741.538,390358.06,8,400,,,
trial,html.Screen,4_69_0,2023-10-31T02:01:46.678Z,,0,2,,4197.239999952319,response,ISIC_2412888.JPG,7,ISIC_0055282.JPG,ISIC_0055282.JPG,false,0,keypress(z),500,394555.59999996424,394555.2999999523,390341.394,390342.6999999881,390358.06,394558.385,8,400,20,,ISIC_2412888.JPG
break,html.Screen,4_69_1,2023-10-31T02:01:46.678Z,,0,,,NaN,,,,,,false,,,,394556.59999996424,394556.39999997616,,394555.89999997616,,394558.385,8,400,,,
break_continue,html.Screen,4_69_2,2023-10-31T02:01:46.679Z,,0,,,NaN,,,,,,false,,,,394557,394556.89999997616,,394556.6999999881,,394558.385,8,400,,,
sequence,flow.Sequence,4_69,2023-10-31T02:01:46.679Z,,0,,,4198.8399999761605,completion,,,,,false,,,,394557.1999999881,394556.89999997616,390341.394,390342.6999999881,390358.06,394558.385,8,400,,,
trial,html.Screen,4_70_0,2023-10-31T02:01:50.342Z,,0,2,,3661.514999976149,response,ISIC_2447578.JPG,7,ISIC_4396553.JPG,ISIC_2447578.JPG,false,1,keypress(m),500,398220.1999999881,398219.89999997616,394541.719,394557.2999999523,394558.385,398224.905,8,400,21,,ISIC_4396553.JPG
break,html.Screen,4_70_1,2023-10-31T02:01:50.343Z,,0,,,NaN,,,,,,false,,,,398221.2999999523,398221,,398220.59999996424,,398224.905,8,400,,,
break_continue,html.Screen,4_70_2,2023-10-31T02:01:50.344Z,,0,,,NaN,,,,,,false,,,,398221.6999999881,398221.39999997616,,398221.2999999523,,398224.905,8,400,,,
sequence,flow.Sequence,4_70,2023-10-31T02:01:50.344Z,,0,,,3663.014999976149,completion,,,,,false,,,,398221.7999999523,398221.39999997616,394541.719,394557.1999999881,394558.385,398224.905,8,400,,,
trial,html.Screen,4_71_0,2023-10-31T02:01:54.252Z,,0,2,,3905.1949999642093,response,ISIC_0000031.JPG,8,ISIC_1241817.JPG,ISIC_0000031.JPG,false,1,keypress(m),500,402130.39999997616,402130.09999996424,398208.239,398221.89999997616,398224.905,402141.415,8,400,22,,ISIC_1241817.JPG
break,html.Screen,4_71_1,2023-10-31T02:01:54.253Z,,0,,,NaN,,,,,,false,,,,402131.39999997616,402131.09999996424,,402130.7999999523,,402141.415,8,400,,,
break_continue,html.Screen,4_71_2,2023-10-31T02:01:54.254Z,,0,,,NaN,,,,,,false,,,,402131.6999999881,402131.59999996424,,402131.59999996424,,402141.415,8,400,,,
sequence,flow.Sequence,4_71,2023-10-31T02:01:54.254Z,,0,,,3906.6949999642093,completion,,,,,false,,,,402132,402131.59999996424,398208.239,398221.7999999523,398224.905,402141.415,8,400,,,
trial,html.Screen,4_72_0,2023-10-31T02:01:58.576Z,,0,2,,4312.684999964258,response,ISIC_6383486.JPG,7,ISIC_7536704.JPG,ISIC_7536704.JPG,false,0,keypress(z),500,406454.5,406454.09999996424,402124.749,402132.09999996424,402141.415,406458.352,8,400,23,,ISIC_6383486.JPG
break,html.Screen,4_72_1,2023-10-31T02:01:58.577Z,,0,,,NaN,,,,,,false,,,,406455.39999997616,406455.1999999881,,406454.6999999881,,406458.352,8,400,,,
break_continue,html.Screen,4_72_2,2023-10-31T02:01:58.578Z,,0,,,NaN,,,,,,false,,,,406455.7999999523,406455.6999999881,,406455.59999996424,,406458.352,8,400,,,
sequence,flow.Sequence,4_72,2023-10-31T02:01:58.578Z,,0,,,4314.2849999881,completion,,,,,false,,,,406456,406455.6999999881,402124.749,402132,402141.415,406458.352,8,400,,,
trial,html.Screen,4_73_0,2023-10-31T02:02:02.334Z,,0,2,,3753.3479999880656,response,ISIC_0033341.JPG,8,ISIC_0026438.JPG,ISIC_0026438.JPG,false,0,keypress(z),500,410212,410211.6999999881,406441.686,406456.09999996424,406458.352,410224.868,8,400,24,,ISIC_0033341.JPG
break,html.Screen,4_73_1,2023-10-31T02:02:02.335Z,,0,,,NaN,,,,,,false,,,,410213,410212.7999999523,,410212.2999999523,,410224.868,8,400,,,
break_continue,html.Screen,4_73_2,2023-10-31T02:02:02.335Z,,0,,,NaN,,,,,,false,,,,410213.2999999523,410213.1999999881,,410213.09999996424,,410224.868,8,400,,,
sequence,flow.Sequence,4_73,2023-10-31T02:02:02.336Z,,0,,,3754.8479999880656,completion,,,,,false,,,,410213.5,410213.1999999881,406441.686,406456,406458.352,410224.868,8,400,,,
trial,html.Screen,4_74_0,2023-10-31T02:02:05.525Z,,0,2,,3177.4319999522995,response,ISIC_7928137.JPG,8,ISIC_0032701.JPG,ISIC_7928137.JPG,false,1,keypress(m),500,413402.6999999881,413402.2999999523,410208.202,410213.59999996424,410224.868,413408.074,8,400,25,,ISIC_0032701.JPG
break,html.Screen,4_74_1,2023-10-31T02:02:05.526Z,,0,,,NaN,,,,,,false,,,,413403.59999996424,413403.39999997616,,413402.89999997616,,413408.074,8,400,,,
break_continue,html.Screen,4_74_2,2023-10-31T02:02:05.526Z,,0,,,NaN,,,,,,false,,,,413404,413403.89999997616,,413403.7999999523,,413408.074,8,400,,,
sequence,flow.Sequence,4_74,2023-10-31T02:02:05.526Z,,0,,,3179.0319999761414,completion,,,,,false,,,,413404.1999999881,413403.89999997616,410208.202,410213.59999996424,410224.868,413408.074,8,400,,,
trial,html.Screen,4_75_0,2023-10-31T02:02:08.925Z,,0,2,,3394.725999952294,response,ISIC_5386244.JPG,7,ISIC_1988335.JPG,ISIC_5386244.JPG,false,1,keypress(m),500,416803.1999999881,416802.7999999523,413391.408,413404.2999999523,413408.074,416808.387,8,400,26,,ISIC_1988335.JPG
break,html.Screen,4_75_1,2023-10-31T02:02:08.926Z,,0,,,NaN,,,,,,false,,,,416804.1999999881,416804,,416803.5,,416808.387,8,400,,,
break_continue,html.Screen,4_75_2,2023-10-31T02:02:08.927Z,,0,,,NaN,,,,,,false,,,,416804.59999996424,416804.5,,416804.39999997616,,416808.387,8,400,,,
sequence,flow.Sequence,4_75,2023-10-31T02:02:08.927Z,,0,,,3396.4259999999776,completion,,,,,false,,,,416804.7999999523,416804.5,413391.408,413404.2999999523,413408.074,416808.387,8,400,,,
trial,html.Screen,4_76_0,2023-10-31T02:02:13.092Z,,0,2,,4161.51299997617,response,ISIC_0024423.JPG,7,ISIC_8207162.JPG,ISIC_0024423.JPG,false,1,keypress(m),500,420970.2999999523,420969.89999997616,416791.721,416804.89999997616,416808.387,420974.887,8,400,27,,ISIC_8207162.JPG
break,html.Screen,4_76_1,2023-10-31T02:02:13.093Z,,0,,,NaN,,,,,,false,,,,420971.2999999523,420971,,420970.59999996424,,420974.887,8,400,,,
break_continue,html.Screen,4_76_2,2023-10-31T02:02:13.094Z,,0,,,NaN,,,,,,false,,,,420971.59999996424,420971.5,,420971.2999999523,,420974.887,8,400,,,
sequence,flow.Sequence,4_76,2023-10-31T02:02:13.094Z,,0,,,4163.113000000012,completion,,,,,false,,,,420971.7999999523,420971.5,416791.721,416804.89999997616,416808.387,420974.887,8,400,,,
trial,html.Screen,4_77_0,2023-10-31T02:02:17.701Z,,0,2,,4603.412999952328,response,ISIC_0025571.JPG,8,ISIC_0011163.JPG,ISIC_0025571.JPG,false,1,keypress(m),500,425578.6999999881,425578.2999999523,420958.221,420971.89999997616,420974.887,425591.785,8,400,28,,ISIC_0011163.JPG
break,html.Screen,4_77_1,2023-10-31T02:02:17.702Z,,0,,,NaN,,,,,,false,,,,425579.59999996424,425579.39999997616,,425578.89999997616,,425591.785,8,400,,,
break_continue,html.Screen,4_77_2,2023-10-31T02:02:17.702Z,,0,,,NaN,,,,,,false,,,,425580.09999996424,425579.89999997616,,425579.6999999881,,425591.785,8,400,,,
sequence,flow.Sequence,4_77,2023-10-31T02:02:17.702Z,,0,,,4605.01299997617,completion,,,,,false,,,,425580.1999999881,425579.89999997616,420958.221,420971.89999997616,420974.887,425591.785,8,400,,,
trial,html.Screen,4_78_0,2023-10-31T02:02:22.190Z,,0,2,,4475.314999964263,response,ISIC_0054248.JPG,5,ISIC_0014542.JPG,ISIC_0054248.JPG,false,1,keypress(m),500,430067.39999997616,430067.09999996424,425575.119,425580.2999999523,425591.785,430074.939,8,400,29,,ISIC_0014542.JPG
break,html.Screen,4_78_1,2023-10-31T02:02:22.191Z,,0,,,NaN,,,,,,false,,,,430068.39999997616,430068.1999999881,,430067.6999999881,,430074.939,8,400,,,
break_continue,html.Screen,4_78_2,2023-10-31T02:02:22.191Z,,0,,,NaN,,,,,,false,,,,430068.7999999523,430068.59999996424,,430068.59999996424,,430074.939,8,400,,,
sequence,flow.Sequence,4_78,2023-10-31T02:02:22.191Z,,0,,,4476.814999964263,completion,,,,,false,,,,430068.89999997616,430068.59999996424,425575.119,425580.2999999523,425591.785,430074.939,8,400,,,
trial,html.Screen,4_79_0,2023-10-31T02:02:25.941Z,,0,2,,3743.660999964224,response,ISIC_4659355.JPG,7,ISIC_0210998.JPG,ISIC_4659355.JPG,false,1,keypress(m),500,433819,433818.59999996424,430058.273,430069,430074.939,433824.789,8,400,30,,ISIC_0210998.JPG
break,html.Screen,4_79_1,2023-10-31T02:02:25.942Z,,0,,,NaN,,,,,,false,,,,433820,433819.7999999523,,433819.2999999523,,433824.789,8,400,,,
break_continue,html.Screen,4_79_2,2023-10-31T02:02:25.943Z,,0,,,NaN,,,,,,false,,,,433820.39999997616,433820.1999999881,,433820.09999996424,,433824.789,8,400,,,
sequence,flow.Sequence,4_79,2023-10-31T02:02:25.943Z,,0,,,3745.260999988066,completion,,,,,false,,,,433820.59999996424,433820.1999999881,430058.273,430069,430074.939,433824.789,8,400,,,
trial,html.Screen,4_80_0,2023-10-31T02:02:29.929Z,,0,2,,3981.5109999523265,response,ISIC_8943906.JPG,8,ISIC_0033947.JPG,ISIC_0033947.JPG,false,0,keypress(z),500,437806.6999999881,437806.2999999523,433808.123,433820.6999999881,433824.789,437808.553,8,400,31,,ISIC_8943906.JPG
break,html.Screen,4_80_1,2023-10-31T02:02:29.930Z,,0,,,NaN,,,,,,false,,,,437807.6999999881,437807.39999997616,,437806.89999997616,,437808.553,8,400,,,
break_continue,html.Screen,4_80_2,2023-10-31T02:02:29.930Z,,0,,,NaN,,,,,,false,,,,437808,437807.89999997616,,437807.7999999523,,437808.553,8,400,,,
sequence,flow.Sequence,4_80,2023-10-31T02:02:29.930Z,,0,,,3983.1109999761684,completion,,,,,false,,,,437808.1999999881,437807.89999997616,433808.123,433820.59999996424,433824.789,437808.553,8,400,,,
trial,html.Screen,4_81_0,2023-10-31T02:02:33.670Z,,0,2,,3738.746999952302,response,ISIC_0000553.JPG,9,ISIC_0033573.JPG,ISIC_0033573.JPG,false,0,keypress(z),500,441547.59999996424,441547.2999999523,437791.887,437808.2999999523,437808.553,441558.403,8,400,32,,ISIC_0000553.JPG
break,html.Screen,4_81_1,2023-10-31T02:02:33.671Z,,0,,,NaN,,,,,,false,,,,441548.6999999881,441548.5,,441548,,441558.403,8,400,,,
break_continue,html.Screen,4_81_2,2023-10-31T02:02:33.671Z,,0,,,NaN,,,,,,false,,,,441549,441548.89999997616,,441548.7999999523,,441558.403,8,400,,,
sequence,flow.Sequence,4_81,2023-10-31T02:02:33.671Z,,0,,,3740.3469999761437,completion,,,,,false,,,,441549.1999999881,441548.89999997616,437791.887,437808.2999999523,437808.553,441558.403,8,400,,,
trial,html.Screen,4_82_0,2023-10-31T02:02:36.940Z,,0,2,,3258.796999988088,response,ISIC_0031598.JPG,8,ISIC_0063180.JPG,ISIC_0063180.JPG,false,0,keypress(z),500,444817.5,444817.1999999881,441541.737,441549.2999999523,441558.403,444824.939,8,400,33,,ISIC_0031598.JPG
break,html.Screen,4_82_1,2023-10-31T02:02:36.941Z,,0,,,NaN,,,,,,false,,,,444818.59999996424,444818.2999999523,,444817.7999999523,,444824.939,8,400,,,
break_continue,html.Screen,4_82_2,2023-10-31T02:02:36.941Z,,0,,,NaN,,,,,,false,,,,444818.89999997616,444818.7999999523,,444818.59999996424,,444824.939,8,400,,,
sequence,flow.Sequence,4_82,2023-10-31T02:02:36.941Z,,0,,,3260.396999952325,completion,,,,,false,,,,444819.09999996424,444818.7999999523,441541.737,441549.2999999523,441558.403,444824.939,8,400,,,
trial,html.Screen,4_83_0,2023-10-31T02:02:40.851Z,,0,2,,3902.960999976145,response,ISIC_0071388.JPG,6,ISIC_0033638.JPG,ISIC_0071388.JPG,false,1,keypress(m),500,448728.39999997616,448727.89999997616,444808.273,444819.1999999881,444824.939,448741.932,8,400,34,,ISIC_0033638.JPG
break,html.Screen,4_83_1,2023-10-31T02:02:40.852Z,,0,,,NaN,,,,,,false,,,,448729.2999999523,448729.1999999881,,448728.59999996424,,448741.932,8,400,,,
break_continue,html.Screen,4_83_2,2023-10-31T02:02:40.852Z,,0,,,NaN,,,,,,false,,,,448729.6999999881,448729.59999996424,,448729.39999997616,,448741.932,8,400,,,
sequence,flow.Sequence,4_83,2023-10-31T02:02:40.852Z,,0,,,3904.660999964224,completion,,,,,false,,,,448729.89999997616,448729.59999996424,444808.273,444819.1999999881,444824.939,448741.932,8,400,,,
trial,html.Screen,4_84_0,2023-10-31T02:02:44.392Z,,0,2,,3527.0680000000284,response,ISIC_4137545.JPG,6,ISIC_2006783.JPG,ISIC_2006783.JPG,false,0,keypress(z),500,452269.39999997616,452269,448725.266,448729.89999997616,448741.932,452275.124,8,400,35,,ISIC_4137545.JPG
break,html.Screen,4_84_1,2023-10-31T02:02:44.393Z,,0,,,NaN,,,,,,false,,,,452270.39999997616,452270.09999996424,,452269.6999999881,,452275.124,8,400,,,
break_continue,html.Screen,4_84_2,2023-10-31T02:02:44.393Z,,0,,,NaN,,,,,,false,,,,452270.6999999881,452270.59999996424,,452270.5,,452275.124,8,400,,,
sequence,flow.Sequence,4_84,2023-10-31T02:02:44.393Z,,0,,,3528.6679999642656,completion,,,,,false,,,,452270.89999997616,452270.59999996424,448725.266,448729.89999997616,448741.932,452275.124,8,400,,,
trial,html.Screen,4_85_0,2023-10-31T02:02:48.294Z,,0,2,,3896.0759999880684,response,ISIC_0033911.JPG,8,ISIC_5568834.JPG,ISIC_5568834.JPG,false,0,keypress(z),500,456171.59999996424,456171.1999999881,452258.458,452271,452275.124,456174.968,8,400,36,,ISIC_0033911.JPG
break,html.Screen,4_85_1,2023-10-31T02:02:48.295Z,,0,,,NaN,,,,,,false,,,,456172.59999996424,456172.2999999523,,456171.7999999523,,456174.968,8,400,,,
break_continue,html.Screen,4_85_2,2023-10-31T02:02:48.295Z,,0,,,NaN,,,,,,false,,,,456172.89999997616,456172.7999999523,,456172.6999999881,,456174.968,8,400,,,
sequence,flow.Sequence,4_85,2023-10-31T02:02:48.295Z,,0,,,3897.6759999523056,completion,,,,,false,,,,456173,456172.7999999523,452258.458,452271,452275.124,456174.968,8,400,,,
trial,html.Screen,4_86_0,2023-10-31T02:02:51.757Z,,0,2,,3459.4319999761647,response,ISIC_0014349.JPG,9,ISIC_6717322.JPG,ISIC_0014349.JPG,false,1,keypress(m),500,459634.7999999523,459634.39999997616,456158.302,456173.1999999881,456174.968,459641.947,8,400,37,,ISIC_6717322.JPG
break,html.Screen,4_86_1,2023-10-31T02:02:51.758Z,,0,,,NaN,,,,,,false,,,,459635.7999999523,459635.59999996424,,459635.09999996424,,459641.947,8,400,,,
break_continue,html.Screen,4_86_2,2023-10-31T02:02:51.759Z,,0,,,NaN,,,,,,false,,,,459636.1999999881,459636,,459636,,459641.947,8,400,,,
sequence,flow.Sequence,4_86,2023-10-31T02:02:51.759Z,,0,,,3461.0320000000065,completion,,,,,false,,,,459636.2999999523,459636,456158.302,456173.09999996424,456174.968,459641.947,8,400,,,
trial,html.Screen,4_87_0,2023-10-31T02:02:55.124Z,,0,2,,3359.0530000000144,response,ISIC_0070136.JPG,7,ISIC_0033202.JPG,ISIC_0033202.JPG,false,0,keypress(z),500,463001.5,463001,459625.281,459636.39999997616,459641.947,463008.479,8,400,38,,ISIC_0070136.JPG
break,html.Screen,4_87_1,2023-10-31T02:02:55.125Z,,0,,,NaN,,,,,,false,,,,463002.39999997616,463002.09999996424,,463001.7999999523,,463008.479,8,400,,,
break_continue,html.Screen,4_87_2,2023-10-31T02:02:55.125Z,,0,,,NaN,,,,,,false,,,,463002.6999999881,463002.6999999881,,463002.5,,463008.479,8,400,,,
sequence,flow.Sequence,4_87,2023-10-31T02:02:55.125Z,,0,,,3360.7529999880935,completion,,,,,false,,,,463002.89999997616,463002.6999999881,459625.281,459636.39999997616,459641.947,463008.479,8,400,,,
trial,html.Screen,4_88_0,2023-10-31T02:02:58.554Z,,0,2,,3423.021000000008,response,ISIC_0692990.JPG,8,ISIC_8812781.JPG,ISIC_0692990.JPG,false,1,keypress(m),500,466431.7999999523,466431.5,462991.813,463003,463008.479,466441.675,8,400,39,,ISIC_8812781.JPG
break,html.Screen,4_88_1,2023-10-31T02:02:58.555Z,,0,,,NaN,,,,,,false,,,,466432.7999999523,466432.5,,466432.09999996424,,466441.675,8,400,,,
break_continue,html.Screen,4_88_2,2023-10-31T02:02:58.556Z,,0,,,NaN,,,,,,false,,,,466433.09999996424,466433,,466432.7999999523,,466441.675,8,400,,,
sequence,flow.Sequence,4_88,2023-10-31T02:02:58.556Z,,0,,,3424.521000000008,completion,,,,,false,,,,466433.2999999523,466433,462991.813,463003,463008.479,466441.675,8,400,,,
trial,html.Screen,4_89_0,2023-10-31T02:03:01.888Z,,0,2,,3323.3250000000116,response,ISIC_0025235.JPG,4,ISIC_0011493.JPG,ISIC_0011493.JPG,false,0,keypress(z),500,469765.2999999523,469765,466425.009,466433.39999997616,466441.675,469775.37,8,400,40,,ISIC_0025235.JPG
break,html.Screen,4_89_1,2023-10-31T02:03:01.889Z,,0,,,NaN,,,,,,false,,,,469766.2999999523,469766.09999996424,,469765.59999996424,,469775.37,8,400,,,
break_continue,html.Screen,4_89_2,2023-10-31T02:03:01.889Z,,0,,,NaN,,,,,,false,,,,469766.6999999881,469766.5,,469766.39999997616,,469775.37,8,400,,,
sequence,flow.Sequence,4_89,2023-10-31T02:03:01.889Z,,0,,,3324.8250000000116,completion,,,,,false,,,,469766.7999999523,469766.5,466425.009,466433.39999997616,466441.675,469775.37,8,400,,,
trial,html.Screen,4_90_0,2023-10-31T02:03:05.774Z,,0,2,,3876.1300000000047,response,ISIC_0068895.JPG,8,ISIC_9579506.JPG,ISIC_0068895.JPG,false,1,keypress(m),500,473652,473651.5,469758.704,469766.89999997616,469775.37,473658.548,8,400,41,,ISIC_9579506.JPG
break,html.Screen,4_90_1,2023-10-31T02:03:05.775Z,,0,,,NaN,,,,,,false,,,,473652.89999997616,473652.7999999523,,473652.2999999523,,473658.548,8,400,,,
break_continue,html.Screen,4_90_2,2023-10-31T02:03:05.776Z,,0,,,NaN,,,,,,false,,,,473653.2999999523,473653.1999999881,,473653.09999996424,,473658.548,8,400,,,
sequence,flow.Sequence,4_90,2023-10-31T02:03:05.776Z,,0,,,3877.8299999880837,completion,,,,,false,,,,473653.5,473653.1999999881,469758.704,469766.89999997616,469775.37,473658.548,8,400,,,
trial,html.Screen,4_91_0,2023-10-31T02:03:09.510Z,,0,2,,3728.3519999761484,response,ISIC_3234908.JPG,8,ISIC_0003664.JPG,ISIC_3234908.JPG,false,1,keypress(m),500,477387.1999999881,477386.89999997616,473641.882,473653.59999996424,473658.548,477392.133,8,400,42,,ISIC_0003664.JPG
break,html.Screen,4_91_1,2023-10-31T02:03:09.511Z,,0,,,NaN,,,,,,false,,,,477388.1999999881,477388,,477387.5,,477392.133,8,400,,,
break_continue,html.Screen,4_91_2,2023-10-31T02:03:09.511Z,,0,,,NaN,,,,,,false,,,,477388.59999996424,477388.5,,477388.2999999523,,477392.133,8,400,,,
sequence,flow.Sequence,4_91,2023-10-31T02:03:09.511Z,,0,,,3729.95199999999,completion,,,,,false,,,,477388.7999999523,477388.5,473641.882,473653.59999996424,473658.548,477392.133,8,400,,,
trial,html.Screen,4_92_0,2023-10-31T02:03:13.207Z,,0,2,,3691.9669999642647,response,ISIC_8065633.JPG,8,ISIC_3922580.JPG,ISIC_8065633.JPG,false,1,keypress(m),500,481084.59999996424,481084.09999996424,477375.467,477389,477392.133,481091.985,8,400,43,,ISIC_3922580.JPG
break,html.Screen,4_92_1,2023-10-31T02:03:13.208Z,,0,,,NaN,,,,,,false,,,,481085.6999999881,481085.39999997616,,481084.89999997616,,481091.985,8,400,,,
break_continue,html.Screen,4_92_2,2023-10-31T02:03:13.209Z,,0,,,NaN,,,,,,false,,,,481086.09999996424,481086,,481085.7999999523,,481091.985,8,400,,,
sequence,flow.Sequence,4_92,2023-10-31T02:03:13.209Z,,0,,,3693.8670000000275,completion,,,,,false,,,,481086.1999999881,481086,477375.467,477388.7999999523,477392.133,481091.985,8,400,,,
trial,html.Screen,4_93_0,2023-10-31T02:03:16.477Z,,0,2,,3262.015000000014,response,ISIC_0060050.JPG,9,ISIC_0645477.JPG,ISIC_0645477.JPG,false,0,keypress(z),500,484354.5,484354,481075.319,481086.2999999523,481091.985,484358.521,8,400,44,,ISIC_0060050.JPG
break,html.Screen,4_93_1,2023-10-31T02:03:16.478Z,,0,,,NaN,,,,,,false,,,,484355.5,484355.2999999523,,484354.7999999523,,484358.521,8,400,,,
break_continue,html.Screen,4_93_2,2023-10-31T02:03:16.479Z,,0,,,NaN,,,,,,false,,,,484356,484355.7999999523,,484355.6999999881,,484358.521,8,400,,,
sequence,flow.Sequence,4_93,2023-10-31T02:03:16.479Z,,0,,,3263.8149999523303,completion,,,,,false,,,,484356.1999999881,484355.7999999523,481075.319,481086.1999999881,481091.985,484358.521,8,400,,,
trial,html.Screen,4_94_0,2023-10-31T02:03:19.745Z,,0,2,,3263.7789999523084,response,ISIC_0000368.JPG,9,ISIC_9441572.JPG,ISIC_0000368.JPG,false,1,keypress(m),500,487622.6999999881,487622.2999999523,484341.855,484356.2999999523,484358.521,487625.605,8,400,45,,ISIC_9441572.JPG
break,html.Screen,4_94_1,2023-10-31T02:03:19.746Z,,0,,,NaN,,,,,,false,,,,487623.6999999881,487623.39999997616,,487623,,487625.605,8,400,,,
break_continue,html.Screen,4_94_2,2023-10-31T02:03:19.747Z,,0,,,NaN,,,,,,false,,,,487624.09999996424,487623.89999997616,,487623.7999999523,,487625.605,8,400,,,
sequence,flow.Sequence,4_94,2023-10-31T02:03:19.747Z,,0,,,3265.37899997615,completion,,,,,false,,,,487624.1999999881,487623.89999997616,484341.855,484356.1999999881,484358.521,487625.605,8,400,,,
trial,html.Screen,4_95_0,2023-10-31T02:03:23.479Z,,0,2,,3730.0949999880977,response,ISIC_1076474.JPG,8,ISIC_0028788.JPG,ISIC_1076474.JPG,false,1,keypress(m),500,491356.1999999881,491355.6999999881,487608.939,487624.39999997616,487625.605,491358.789,8,400,46,,ISIC_0028788.JPG
break,html.Screen,4_95_1,2023-10-31T02:03:23.480Z,,0,,,NaN,,,,,,false,,,,491357.1999999881,491356.89999997616,,491356.39999997616,,491358.789,8,400,,,
break_continue,html.Screen,4_95_2,2023-10-31T02:03:23.480Z,,0,,,NaN,,,,,,false,,,,491357.5,491357.39999997616,,491357.2999999523,,491358.789,8,400,,,
sequence,flow.Sequence,4_95,2023-10-31T02:03:23.480Z,,0,,,3731.7949999761768,completion,,,,,false,,,,491357.6999999881,491357.39999997616,487608.939,487624.2999999523,487625.605,491358.789,8,400,,,
trial,html.Screen,4_96_0,2023-10-31T02:03:27.516Z,,0,2,,4033.6109999761684,response,ISIC_0057059.JPG,8,ISIC_2007034.JPG,ISIC_2007034.JPG,false,0,keypress(z),500,495392.89999997616,495392.39999997616,491342.123,491357.6999999881,491358.789,495408.627,8,400,47,,ISIC_0057059.JPG
break,html.Screen,4_96_1,2023-10-31T02:03:27.517Z,,0,,,NaN,,,,,,false,,,,495394,495393.7999999523,,495393.1999999881,,495408.627,8,400,,,
break_continue,html.Screen,4_96_2,2023-10-31T02:03:27.517Z,,0,,,NaN,,,,,,false,,,,495394.2999999523,495394.2999999523,,495394.09999996424,,495408.627,8,400,,,
sequence,flow.Sequence,4_96,2023-10-31T02:03:27.517Z,,0,,,4035.5109999523265,completion,,,,,false,,,,495394.5,495394.2999999523,491342.123,491357.6999999881,491358.789,495408.627,8,400,,,
trial,html.Screen,4_97_0,2023-10-31T02:03:30.839Z,,0,2,,3306.7729999761796,response,ISIC_8195604.JPG,8,ISIC_7599444.JPG,ISIC_8195604.JPG,false,1,keypress(m),500,498715.89999997616,498715.39999997616,495391.961,495394.59999996424,495408.627,498725.611,8,400,48,,ISIC_7599444.JPG
break,html.Screen,4_97_1,2023-10-31T02:03:30.840Z,,0,,,NaN,,,,,,false,,,,498716.89999997616,498716.6999999881,,498716.1999999881,,498725.611,8,400,,,
break_continue,html.Screen,4_97_2,2023-10-31T02:03:30.840Z,,0,,,NaN,,,,,,false,,,,498717.2999999523,498717.1999999881,,498717,,498725.611,8,400,,,
sequence,flow.Sequence,4_97,2023-10-31T02:03:30.840Z,,0,,,3308.5729999881005,completion,,,,,false,,,,498717.39999997616,498717.1999999881,495391.961,495394.5,495408.627,498725.611,8,400,,,
trial,html.Screen,4_98_0,2023-10-31T02:03:34.237Z,,0,2,,3388.788999976183,response,ISIC_9896801.JPG,7,ISIC_0013921.JPG,ISIC_0013921.JPG,false,0,keypress(z),500,502114.7999999523,502114.39999997616,498708.945,498717.5,498725.611,502125.475,8,400,49,,ISIC_9896801.JPG
break,html.Screen,4_98_1,2023-10-31T02:03:34.238Z,,0,,,NaN,,,,,,false,,,,502115.59999996424,502115.39999997616,,502115,,502125.475,8,400,,,
break_continue,html.Screen,4_98_2,2023-10-31T02:03:34.239Z,,0,,,NaN,,,,,,false,,,,502115.89999997616,502115.7999999523,,502115.7999999523,,502125.475,8,400,,,
sequence,flow.Sequence,4_98,2023-10-31T02:03:34.239Z,,0,,,3390.188999952341,completion,,,,,false,,,,502116,502115.7999999523,498708.945,498717.5,498725.611,502125.475,8,400,,,
trial,html.Screen,4_99_0,2023-10-31T02:03:37.987Z,,0,2,,3737.9249999761814,response,ISIC_5383064.JPG,9,ISIC_0024280.JPG,ISIC_5383064.JPG,false,1,keypress(m),500,505863.6999999881,505863.39999997616,502108.809,502116.09999996424,502125.475,505875.325,8,400,50,,ISIC_0024280.JPG
break,html.Screen,4_99_1,2023-10-31T02:03:47.985Z,,0,,,10000.087,timeout,,,,,false,,,,515862,515858.746,505858.659,505864.09999996424,505875.325,515875.412,8,400,,,
break_continue,html.Screen,4_99_2,2023-10-31T02:03:48.947Z,,0,,,932.7879999880679,response,,,,,false,continue,keypress(Space),,516824.1999999881,516808.1999999881,515858.746,515862.1999999881,515875.412,516825.374,8,400,,,
sequence,flow.Sequence,4_99,2023-10-31T02:03:48.947Z,,0,,,14682.724999988102,completion,,,,,false,,,,516824.5,516808.1999999881,502108.809,502116.09999996424,502125.475,516825.374,8,400,,,
trial,html.Screen,4_100_0,2023-10-31T02:03:52.696Z,,0,3,,3747.4259999523056,response,ISIC_4945233.JPG,8,ISIC_0059350.JPG,ISIC_4945233.JPG,false,1,keypress(m),500,520573.1999999881,520572.7999999523,516808.708,516824.5,516825.374,520575.697,8,400,1,,ISIC_0059350.JPG
break,html.Screen,4_100_1,2023-10-31T02:03:52.697Z,,0,,,NaN,,,,,,false,,,,520574.1999999881,520574,,520573.5,,520575.697,8,400,,,
break_continue,html.Screen,4_100_2,2023-10-31T02:03:52.697Z,,0,,,NaN,,,,,,false,,,,520574.59999996424,520574.5,,520574.2999999523,,520575.697,8,400,,,
sequence,flow.Sequence,4_100,2023-10-31T02:03:52.698Z,,0,,,3749.1259999999893,completion,,,,,false,,,,520574.6999999881,520574.5,516808.708,516824.5,516825.374,520575.697,8,400,,,
trial,html.Screen,4_101_0,2023-10-31T02:03:56.142Z,,0,3,,3443.4029999642516,response,ISIC_3642043.JPG,8,ISIC_2266011.JPG,ISIC_2266011.JPG,false,0,keypress(z),500,524019.39999997616,524019.09999996424,520559.031,520574.89999997616,520575.697,524025.559,8,400,2,,ISIC_3642043.JPG
break,html.Screen,4_101_1,2023-10-31T02:03:56.143Z,,0,,,NaN,,,,,,false,,,,524020.39999997616,524020.1999999881,,524019.6999999881,,524025.559,8,400,,,
break_continue,html.Screen,4_101_2,2023-10-31T02:03:56.144Z,,0,,,NaN,,,,,,false,,,,524020.7999999523,524020.59999996424,,524020.5,,524025.559,8,400,,,
sequence,flow.Sequence,4_101,2023-10-31T02:03:56.144Z,,0,,,3444.9029999642516,completion,,,,,false,,,,524020.89999997616,524020.59999996424,520559.031,520574.89999997616,520575.697,524025.559,8,400,,,
trial,html.Screen,4_102_0,2023-10-31T02:03:59.061Z,,0,3,,2912.3409999761498,response,ISIC_0028705.JPG,7,ISIC_7137773.JPG,ISIC_7137773.JPG,false,0,keypress(z),500,526938.2999999523,526937.8999999762,524008.893,524021.09999996424,524025.559,526942.109,8,400,3,,ISIC_0028705.JPG
break,html.Screen,4_102_1,2023-10-31T02:03:59.062Z,,0,,,NaN,,,,,,false,,,,526939.2999999523,526939.0999999642,,526938.5999999642,,526942.109,8,400,,,
break_continue,html.Screen,4_102_2,2023-10-31T02:03:59.063Z,,0,,,NaN,,,,,,false,,,,526939.6999999881,526939.5999999642,,526939.3999999762,,526942.109,8,400,,,
sequence,flow.Sequence,4_102,2023-10-31T02:03:59.063Z,,0,,,2914.040999964229,completion,,,,,false,,,,526939.8999999762,526939.5999999642,524008.893,524021,524025.559,526942.109,8,400,,,
trial,html.Screen,4_103_0,2023-10-31T02:04:02.687Z,,0,3,,3621.090999988024,response,ISIC_0009998.JPG,8,ISIC_1976571.JPG,ISIC_1976571.JPG,false,0,keypress(z),500,530563.5999999642,530563.1999999881,526925.443,526939.8999999762,526942.109,530575.759,8,400,4,,ISIC_0009998.JPG
break,html.Screen,4_103_1,2023-10-31T02:04:02.687Z,,0,,,NaN,,,,,,false,,,,530564.5,530564.2999999523,,530563.8999999762,,530575.759,8,400,,,
break_continue,html.Screen,4_103_2,2023-10-31T02:04:02.688Z,,0,,,NaN,,,,,,false,,,,530565,530564.7999999523,,530564.6999999881,,530575.759,8,400,,,
sequence,flow.Sequence,4_103,2023-10-31T02:04:02.688Z,,0,,,3622.6909999522613,completion,,,,,false,,,,530565.0999999642,530564.7999999523,526925.443,526939.8999999762,526942.109,530575.759,8,400,,,
trial,html.Screen,4_104_0,2023-10-31T02:04:06.517Z,,0,3,,3817.8409999642754,response,ISIC_4123109.JPG,5,ISIC_3390057.JPG,ISIC_3390057.JPG,false,0,keypress(z),500,534394,534393.5999999642,530559.093,530565.1999999881,530575.759,534408.939,8,400,5,,ISIC_4123109.JPG
break,html.Screen,4_104_1,2023-10-31T02:04:06.518Z,,0,,,NaN,,,,,,false,,,,534395.0999999642,534394.8999999762,,534394.3999999762,,534408.939,8,400,,,
break_continue,html.Screen,4_104_2,2023-10-31T02:04:06.518Z,,0,,,NaN,,,,,,false,,,,534395.5,534395.3999999762,,534395.1999999881,,534408.939,8,400,,,
sequence,flow.Sequence,4_104,2023-10-31T02:04:06.519Z,,0,,,3819.6409999761963,completion,,,,,false,,,,534395.6999999881,534395.3999999762,530559.093,530565.1999999881,530575.759,534408.939,8,400,,,
trial,html.Screen,4_105_0,2023-10-31T02:04:09.609Z,,0,3,,3076.760999988066,response,ISIC_0064141.JPG,7,ISIC_7203184.JPG,ISIC_0064141.JPG,false,1,keypress(m),500,537486,537485.6999999881,534392.273,534395.7999999523,534408.939,537492.149,8,400,6,,ISIC_7203184.JPG
break,html.Screen,4_105_1,2023-10-31T02:04:09.610Z,,0,,,NaN,,,,,,false,,,,537487,537486.7999999523,,537486.2999999523,,537492.149,8,400,,,
break_continue,html.Screen,4_105_2,2023-10-31T02:04:09.610Z,,0,,,NaN,,,,,,false,,,,537487.3999999762,537487.1999999881,,537487.0999999642,,537492.149,8,400,,,
sequence,flow.Sequence,4_105,2023-10-31T02:04:09.610Z,,0,,,3078.260999988066,completion,,,,,false,,,,537487.5,537487.1999999881,534392.273,534395.7999999523,534408.939,537492.149,8,400,,,
trial,html.Screen,4_106_0,2023-10-31T02:04:12.664Z,,0,3,,3048.5509999881033,response,ISIC_0567814.JPG,8,ISIC_8284685.JPG,ISIC_0567814.JPG,false,1,keypress(m),500,540541.0999999642,540540.6999999881,537475.483,537487.6999999881,537492.149,540559.181,8,400,7,,ISIC_8284685.JPG
break,html.Screen,4_106_1,2023-10-31T02:04:12.665Z,,0,,,NaN,,,,,,false,,,,540542,540541.6999999881,,540541.2999999523,,540559.181,8,400,,,
break_continue,html.Screen,4_106_2,2023-10-31T02:04:12.665Z,,0,,,NaN,,,,,,false,,,,540542.3999999762,540542.1999999881,,540542.1999999881,,540559.181,8,400,,,
sequence,flow.Sequence,4_106,2023-10-31T02:04:12.666Z,,0,,,3050.0509999881033,completion,,,,,false,,,,540542.5,540542.1999999881,537475.483,537487.5999999642,537492.149,540559.181,8,400,,,
trial,html.Screen,4_107_0,2023-10-31T02:04:15.436Z,,0,3,,2753.3190000000177,response,ISIC_4064936.JPG,7,ISIC_0010024.JPG,ISIC_0010024.JPG,false,0,keypress(z),500,543312.8999999762,543312.5,540542.515,540542.5999999642,540559.181,543325.737,8,400,8,,ISIC_4064936.JPG
break,html.Screen,4_107_1,2023-10-31T02:04:15.437Z,,0,,,NaN,,,,,,false,,,,543313.7999999523,543313.5999999642,,543313.1999999881,,543325.737,8,400,,,
break_continue,html.Screen,4_107_2,2023-10-31T02:04:15.437Z,,0,,,NaN,,,,,,false,,,,543314.1999999881,543314.0999999642,,543314,,543325.737,8,400,,,
sequence,flow.Sequence,4_107,2023-10-31T02:04:15.437Z,,0,,,2754.918999964255,completion,,,,,false,,,,543314.2999999523,543314.0999999642,540542.515,540542.5999999642,540559.181,543325.737,8,400,,,
trial,html.Screen,4_108_0,2023-10-31T02:04:18.499Z,,0,3,,3049.5629999523517,response,ISIC_5634573.JPG,8,ISIC_5795486.JPG,ISIC_5634573.JPG,false,1,keypress(m),500,546375.6999999881,546375.2999999523,543309.071,543314.5,543325.737,546392.281,8,400,9,,ISIC_5795486.JPG
break,html.Screen,4_108_1,2023-10-31T02:04:18.500Z,,0,,,NaN,,,,,,false,,,,546376.5999999642,546376.3999999762,,546376,,546392.281,8,400,,,
break_continue,html.Screen,4_108_2,2023-10-31T02:04:18.500Z,,0,,,NaN,,,,,,false,,,,546377,546376.8999999762,,546376.6999999881,,546392.281,8,400,,,
sequence,flow.Sequence,4_108,2023-10-31T02:04:18.500Z,,0,,,3051.1629999761935,completion,,,,,false,,,,546377.0999999642,546376.8999999762,543309.071,543314.3999999762,543325.737,546392.281,8,400,,,
trial,html.Screen,4_109_0,2023-10-31T02:04:21.807Z,,0,3,,3291.219000000041,response,ISIC_5126638.JPG,8,ISIC_6710411.JPG,ISIC_5126638.JPG,false,1,keypress(m),500,549683.7999999523,549683.5,546375.615,546377.2999999523,546392.281,549692.638,8,400,10,,ISIC_6710411.JPG
break,html.Screen,4_109_1,2023-10-31T02:04:21.808Z,,0,,,NaN,,,,,,false,,,,549684.6999999881,549684.5,,549684.0999999642,,549692.638,8,400,,,
break_continue,html.Screen,4_109_2,2023-10-31T02:04:21.808Z,,0,,,NaN,,,,,,false,,,,549685.0999999642,549685,,549684.8999999762,,549692.638,8,400,,,
sequence,flow.Sequence,4_109,2023-10-31T02:04:21.808Z,,0,,,3292.719000000041,completion,,,,,false,,,,549685.2999999523,549685,546375.615,546377.2999999523,546392.281,549692.638,8,400,,,
trial,html.Screen,4_110_0,2023-10-31T02:04:24.900Z,,0,3,,3083.5619999880437,response,ISIC_7137773.JPG,7,ISIC_0011176.JPG,ISIC_0011176.JPG,false,0,keypress(z),500,552776.5,552776.1999999881,549675.972,549685.5,549692.638,552792.514,8,400,11,,ISIC_7137773.JPG
break,html.Screen,4_110_1,2023-10-31T02:04:24.901Z,,0,,,NaN,,,,,,false,,,,552777.3999999762,552777.2999999523,,552776.7999999523,,552792.514,8,400,,,
break_continue,html.Screen,4_110_2,2023-10-31T02:04:24.901Z,,0,,,NaN,,,,,,false,,,,552777.8999999762,552777.7999999523,,552777.5999999642,,552792.514,8,400,,,
sequence,flow.Sequence,4_110,2023-10-31T02:04:24.901Z,,0,,,3085.161999952281,completion,,,,,false,,,,552778.0999999642,552777.7999999523,549675.972,549685.3999999762,549692.638,552792.514,8,400,,,
trial,html.Screen,4_111_0,2023-10-31T02:04:28.216Z,,0,3,,3300.28599995235,response,ISIC_9199158.JPG,7,ISIC_6450034.JPG,ISIC_9199158.JPG,false,1,keypress(m),500,556093.0999999642,556092.7999999523,552775.848,552778.1999999881,552792.514,556109.048,8,400,12,,ISIC_6450034.JPG
break,html.Screen,4_111_1,2023-10-31T02:04:28.217Z,,0,,,NaN,,,,,,false,,,,556094.0999999642,556093.8999999762,,556093.3999999762,,556109.048,8,400,,,
break_continue,html.Screen,4_111_2,2023-10-31T02:04:28.218Z,,0,,,NaN,,,,,,false,,,,556094.3999999762,556094.2999999523,,556094.1999999881,,556109.048,8,400,,,
sequence,flow.Sequence,4_111,2023-10-31T02:04:28.218Z,,0,,,3301.78599995235,completion,,,,,false,,,,556094.5999999642,556094.2999999523,552775.848,552778.1999999881,552792.514,556109.048,8,400,,,
trial,html.Screen,4_112_0,2023-10-31T02:04:32.255Z,,0,3,,4022.2519999523647,response,ISIC_3856662.JPG,8,ISIC_0003767.JPG,ISIC_3856662.JPG,false,1,keypress(m),500,560131.5999999642,560131.2999999523,556092.382,556094.6999999881,556109.048,560142.608,8,400,13,,ISIC_0003767.JPG
break,html.Screen,4_112_1,2023-10-31T02:04:32.256Z,,0,,,NaN,,,,,,false,,,,560132.6999999881,560132.3999999762,,560131.8999999762,,560142.608,8,400,,,
break_continue,html.Screen,4_112_2,2023-10-31T02:04:32.256Z,,0,,,NaN,,,,,,false,,,,560133,560132.8999999762,,560132.7999999523,,560142.608,8,400,,,
sequence,flow.Sequence,4_112,2023-10-31T02:04:32.256Z,,0,,,4023.8519999762066,completion,,,,,false,,,,560133.1999999881,560132.8999999762,556092.382,556094.6999999881,556109.048,560142.608,8,400,,,
trial,html.Screen,4_113_0,2023-10-31T02:04:36.438Z,,0,3,,4171.49199996423,response,ISIC_9121369.JPG,8,ISIC_0033061.JPG,ISIC_9121369.JPG,false,1,keypress(m),500,564314.5,564314.0999999642,560125.942,560133.2999999523,560142.608,564325.774,8,400,14,,ISIC_0033061.JPG
break,html.Screen,4_113_1,2023-10-31T02:04:36.439Z,,0,,,NaN,,,,,,false,,,,564315.3999999762,564315.1999999881,,564314.6999999881,,564325.774,8,400,,,
break_continue,html.Screen,4_113_2,2023-10-31T02:04:36.439Z,,0,,,NaN,,,,,,false,,,,564315.8999999762,564315.7999999523,,564315.5999999642,,564325.774,8,400,,,
sequence,flow.Sequence,4_113,2023-10-31T02:04:36.439Z,,0,,,4173.191999952309,completion,,,,,false,,,,564316,564315.7999999523,560125.942,560133.1999999881,560142.608,564325.774,8,400,,,
trial,html.Screen,4_114_0,2023-10-31T02:04:40.861Z,,0,3,,4411.425999988103,response,ISIC_5141844.JPG,9,ISIC_4978039.JPG,ISIC_5141844.JPG,false,1,keypress(m),500,568737.5999999642,568737.1999999881,564309.108,564316.1999999881,564325.774,568742.264,8,400,15,,ISIC_4978039.JPG
break,html.Screen,4_114_1,2023-10-31T02:04:40.862Z,,0,,,NaN,,,,,,false,,,,568738.5999999642,568738.3999999762,,568737.8999999762,,568742.264,8,400,,,
break_continue,html.Screen,4_114_2,2023-10-31T02:04:40.862Z,,0,,,NaN,,,,,,false,,,,568739,568738.7999999523,,568738.6999999881,,568742.264,8,400,,,
sequence,flow.Sequence,4_114,2023-10-31T02:04:40.862Z,,0,,,4413.0259999523405,completion,,,,,false,,,,568739.1999999881,568738.7999999523,564309.108,564316.0999999642,564325.774,568742.264,8,400,,,
trial,html.Screen,4_115_0,2023-10-31T02:04:43.908Z,,0,3,,3042.4359999881126,response,ISIC_6299036.JPG,8,ISIC_3028754.JPG,ISIC_6299036.JPG,false,1,keypress(m),500,571785,571784.6999999881,568725.598,568739.2999999523,568742.264,571792.699,8,400,16,,ISIC_3028754.JPG
break,html.Screen,4_115_1,2023-10-31T02:04:43.909Z,,0,,,NaN,,,,,,false,,,,571786,571785.6999999881,,571785.1999999881,,571792.699,8,400,,,
break_continue,html.Screen,4_115_2,2023-10-31T02:04:43.910Z,,0,,,NaN,,,,,,false,,,,571786.3999999762,571786.1999999881,,571786,,571792.699,8,400,,,
sequence,flow.Sequence,4_115,2023-10-31T02:04:43.910Z,,0,,,3043.9359999881126,completion,,,,,false,,,,571786.5,571786.1999999881,568725.598,568739.1999999881,568742.264,571792.699,8,400,,,
trial,html.Screen,4_116_0,2023-10-31T02:04:48.331Z,,0,3,,4414.900999964215,response,ISIC_0068544.JPG,8,ISIC_9350507.JPG,ISIC_9350507.JPG,false,0,keypress(z),500,576208,576207.5999999642,571776.033,571786.5999999642,571792.699,576209.189,8,400,17,,ISIC_0068544.JPG
break,html.Screen,4_116_1,2023-10-31T02:04:48.332Z,,0,,,NaN,,,,,,false,,,,576208.8999999762,576208.6999999881,,576208.1999999881,,576209.189,8,400,,,
break_continue,html.Screen,4_116_2,2023-10-31T02:04:48.333Z,,0,,,NaN,,,,,,false,,,,576209.2999999523,576209.1999999881,,576209,,576209.189,8,400,,,
sequence,flow.Sequence,4_116,2023-10-31T02:04:48.333Z,,0,,,4416.500999988057,completion,,,,,false,,,,576209.3999999762,576209.1999999881,571776.033,571786.5999999642,571792.699,576209.189,8,400,,,
trial,html.Screen,4_117_0,2023-10-31T02:04:51.255Z,,0,3,,2921.810999999987,response,ISIC_7539727.JPG,7,ISIC_0013874.JPG,ISIC_7539727.JPG,false,1,keypress(m),500,579131.2999999523,579131,576192.523,576209.5999999642,576209.189,579142.405,8,400,18,,ISIC_0013874.JPG
break,html.Screen,4_117_1,2023-10-31T02:04:51.256Z,,0,,,NaN,,,,,,false,,,,579132.2999999523,579132.0999999642,,579131.5999999642,,579142.405,8,400,,,
break_continue,html.Screen,4_117_2,2023-10-31T02:04:51.256Z,,0,,,NaN,,,,,,false,,,,579132.5999999642,579132.5,,579132.3999999762,,579142.405,8,400,,,
sequence,flow.Sequence,4_117,2023-10-31T02:04:51.256Z,,0,,,2923.310999999987,completion,,,,,false,,,,579132.8999999762,579132.5,576192.523,576209.5,576209.189,579142.405,8,400,,,
trial,html.Screen,4_118_0,2023-10-31T02:04:54.647Z,,0,3,,3380.8949999522883,response,ISIC_7349772.JPG,7,ISIC_0026483.JPG,ISIC_7349772.JPG,false,1,keypress(m),500,582523.5999999642,582523.2999999523,579125.739,579133,579142.405,582526.08,8,400,19,,ISIC_0026483.JPG
break,html.Screen,4_118_1,2023-10-31T02:04:54.648Z,,0,,,NaN,,,,,,false,,,,582524.3999999762,582524.1999999881,,582523.7999999523,,582526.08,8,400,,,
break_continue,html.Screen,4_118_2,2023-10-31T02:04:54.648Z,,0,,,NaN,,,,,,false,,,,582524.5999999642,582524.5,,582524.5,,582526.08,8,400,,,
sequence,flow.Sequence,4_118,2023-10-31T02:04:54.648Z,,0,,,3382.094999999972,completion,,,,,false,,,,582524.7999999523,582524.5,579125.739,579133,579142.405,582526.08,8,400,,,
trial,html.Screen,4_119_0,2023-10-31T02:04:57.672Z,,0,3,,3022.3199999762,response,ISIC_0273046.JPG,5,ISIC_2298440.JPG,ISIC_2298440.JPG,false,0,keypress(z),500,585548.7999999523,585548.3999999762,582509.414,582524.8999999762,582526.08,585559.292,8,400,20,,ISIC_0273046.JPG
break,html.Screen,4_119_1,2023-10-31T02:04:57.673Z,,0,,,NaN,,,,,,false,,,,585549.7999999523,585549.5999999642,,585549.1999999881,,585559.292,8,400,,,
break_continue,html.Screen,4_119_2,2023-10-31T02:04:57.674Z,,0,,,NaN,,,,,,false,,,,585550.0999999642,585550,,585550,,585559.292,8,400,,,
sequence,flow.Sequence,4_119,2023-10-31T02:04:57.674Z,,0,,,3023.920000000042,completion,,,,,false,,,,585550.2999999523,585550,582509.414,582524.7999999523,582526.08,585559.292,8,400,,,
trial,html.Screen,4_120_0,2023-10-31T02:05:01.374Z,,0,3,,3690.6079999761423,response,ISIC_8642938.JPG,7,ISIC_7466175.JPG,ISIC_8642938.JPG,false,1,keypress(m),500,589250.1999999881,589249.8999999762,585542.626,585550.5,585559.292,589259.144,8,400,21,,ISIC_7466175.JPG
break,html.Screen,4_120_1,2023-10-31T02:05:01.375Z,,0,,,NaN,,,,,,false,,,,589251.1999999881,589250.8999999762,,589250.5,,589259.144,8,400,,,
break_continue,html.Screen,4_120_2,2023-10-31T02:05:01.375Z,,0,,,NaN,,,,,,false,,,,589251.5999999642,589251.5,,589251.2999999523,,589259.144,8,400,,,
sequence,flow.Sequence,4_120,2023-10-31T02:05:01.375Z,,0,,,3692.207999999984,completion,,,,,false,,,,589251.6999999881,589251.5,585542.626,585550.5,585559.292,589259.144,8,400,,,
trial,html.Screen,4_121_0,2023-10-31T02:05:04.672Z,,0,3,,3288.955999964266,response,ISIC_0032782.JPG,7,ISIC_7129085.JPG,ISIC_7129085.JPG,false,0,keypress(z),500,592548.5,592548.0999999642,589242.478,589251.8999999762,589259.144,592576.143,8,400,22,,ISIC_0032782.JPG
break,html.Screen,4_121_1,2023-10-31T02:05:04.673Z,,0,,,NaN,,,,,,false,,,,592549.3999999762,592549.0999999642,,592548.5999999642,,592576.143,8,400,,,
break_continue,html.Screen,4_121_2,2023-10-31T02:05:04.673Z,,0,,,NaN,,,,,,false,,,,592549.6999999881,592549.5999999642,,592549.5,,592576.143,8,400,,,
sequence,flow.Sequence,4_121,2023-10-31T02:05:04.673Z,,0,,,3290.455999964266,completion,,,,,false,,,,592549.7999999523,592549.5999999642,589242.478,589251.8999999762,589259.144,592576.143,8,400,,,
trial,html.Screen,4_122_0,2023-10-31T02:05:08.662Z,,0,3,,3962.056999988039,response,ISIC_0029942.JPG,8,ISIC_0830131.JPG,ISIC_0830131.JPG,false,0,keypress(z),500,596538.5999999642,596538.1999999881,592559.477,592550,592576.143,596542.651,8,400,23,,ISIC_0029942.JPG
break,html.Screen,4_122_1,2023-10-31T02:05:08.663Z,,0,,,NaN,,,,,,false,,,,596539.5,596539.2999999523,,596538.7999999523,,596542.651,8,400,,,
break_continue,html.Screen,4_122_2,2023-10-31T02:05:08.663Z,,0,,,NaN,,,,,,false,,,,596539.7999999523,596539.7999999523,,596539.6999999881,,596542.651,8,400,,,
sequence,flow.Sequence,4_122,2023-10-31T02:05:08.663Z,,0,,,3963.6569999522762,completion,,,,,false,,,,596540,596539.7999999523,592559.477,592549.8999999762,592576.143,596542.651,8,400,,,
trial,html.Screen,4_123_0,2023-10-31T02:05:13.468Z,,0,3,,4801.648999952362,response,ISIC_0055438.JPG,8,ISIC_5821293.JPG,ISIC_5821293.JPG,false,0,keypress(z),500,601344.7999999523,601344.2999999523,596525.985,596540.1999999881,596542.651,601359.482,8,400,24,,ISIC_0055438.JPG
break,html.Screen,4_123_1,2023-10-31T02:05:13.469Z,,0,,,NaN,,,,,,false,,,,601345.5999999642,601345.3999999762,,601345.0999999642,,601359.482,8,400,,,
break_continue,html.Screen,4_123_2,2023-10-31T02:05:13.470Z,,0,,,NaN,,,,,,false,,,,601346.0999999642,601346,,601345.7999999523,,601359.482,8,400,,,
sequence,flow.Sequence,4_123,2023-10-31T02:05:13.470Z,,0,,,4803.349000000046,completion,,,,,false,,,,601346.2999999523,601346,596525.985,596540.0999999642,596542.651,601359.482,8,400,,,
trial,html.Screen,4_124_0,2023-10-31T02:05:17.231Z,,0,3,,3747.51800000004,response,ISIC_0000031.JPG,8,ISIC_6912979.JPG,ISIC_0000031.JPG,false,1,keypress(m),500,605107.3999999762,605107,601342.816,601346.3999999762,601359.482,605109.332,8,400,25,,ISIC_6912979.JPG
break,html.Screen,4_124_1,2023-10-31T02:05:17.232Z,,0,,,NaN,,,,,,false,,,,605108.3999999762,605108.0999999642,,605107.5999999642,,605109.332,8,400,,,
break_continue,html.Screen,4_124_2,2023-10-31T02:05:17.232Z,,0,,,NaN,,,,,,false,,,,605108.6999999881,605108.5999999642,,605108.5,,605109.332,8,400,,,
sequence,flow.Sequence,4_124,2023-10-31T02:05:17.232Z,,0,,,3749.1179999642773,completion,,,,,false,,,,605108.8999999762,605108.5999999642,601342.816,601346.2999999523,601359.482,605109.332,8,400,,,
trial,html.Screen,4_125_0,2023-10-31T02:05:22.215Z,,0,3,,4981.467999952263,response,ISIC_0064006.JPG,7,ISIC_0205127.JPG,ISIC_0205127.JPG,false,0,keypress(z),500,610091.1999999881,610090.7999999523,605092.666,605109,605109.332,610092.466,8,400,26,,ISIC_0064006.JPG
break,html.Screen,4_125_1,2023-10-31T02:05:22.216Z,,0,,,NaN,,,,,,false,,,,610092.1999999881,610091.8999999762,,610091.5,,610092.466,8,400,,,
