sender,sender_type,sender_id,timestamp,meta,,blockNo,condition,duration,ended_on,img_left,img_reveal,img_right,loser,practice,response,response_action,selection_duration,time_commit,time_end,time_render,time_run,time_show,time_switch,total_blocks,total_trials,trialNo,url,winner
informed_consent,html.Screen,0,2023-11-02T20:55:20.246Z,"{""labjs_version"":""20.2.4"",""labjs_build"":{""flavor"":""production"",""commit"":""f5b4a49f956347addd546a832a3327688c2c0fef""},""location"":""https://run.pavlovia.org/MurrayBennett/melanoma-2afc/?participant=65919&platform=sona"",""userAgent"":""Mozilla/5.0 (Windows NT 10.0; Win64; x64) AppleWebKit/537.36 (KHTML, like Gecko) Chrome/118.0.0.0 Safari/537.36"",""platform"":""Win32"",""language"":""en-US"",""locale"":""en-US"",""timeZone"":""America/Chicago"",""timezoneOffset"":300,""screen_width"":1229,""screen_height"":820,""scroll_width"":1230,""scroll_height"":654,""window_innerWidth"":1230,""window_innerHeight"":702,""devicePixelRatio"":1.25}",,,,9353.359000095368,response,,,,,,consent,click button,,23244.900000095367,23242.900000095367,13472.972,13871.400000095367,13889.541,23260.276,,,,"{""participant"":""65919"",""platform"":""sona""}",
Welcome,html.Screen,1,2023-11-02T20:56:01.396Z,,,,uniform,41132.724,response,,,,,,continue,click button,,64394.5,64393,23240.379,23245,23260.276,64395.373,,,,,
trial,html.Screen,2_0_0,2023-11-02T20:56:09.321Z,,0,0,,7923.627,response,ISIC_0025593.JPG,,ISIC_0063388.JPG,ISIC_0063388.JPG,true,0,keypress(z),500,72319.40000009537,72319,64378.861,64394.700000047684,64395.373,72324.244,1,6,1,,ISIC_0025593.JPG
sequence,flow.Sequence,2_0,2023-11-02T20:56:09.322Z,,0,,,7923.627,completion,,,,,true,,,,72319.80000007153,72319,64378.861,64394.700000047684,64395.373,72324.244,1,6,,,
trial,html.Screen,2_1_0,2023-11-02T20:56:14.892Z,,0,0,,5565.956000047678,response,ISIC_0028178.JPG,,ISIC_1309015.JPG,ISIC_0028178.JPG,true,1,keypress(m),500,77890.60000002384,77890.20000004768,72316.127,72320,72324.244,77895.484,1,6,2,,ISIC_1309015.JPG
sequence,flow.Sequence,2_1,2023-11-02T20:56:14.893Z,,0,,,5565.956000047678,completion,,,,,true,,,,77890.90000009537,77890.20000004768,72316.127,72320,72324.244,77895.484,1,6,,,
trial,html.Screen,2_2_0,2023-11-02T20:56:18.336Z,,0,0,,3438.5160000000033,response,ISIC_0031128.JPG,,ISIC_3314853.JPG,ISIC_3314853.JPG,true,0,keypress(z),500,81334.40000009537,81334,77880.895,77891.10000002384,77895.484,81338.923,1,6,3,,ISIC_0031128.JPG
sequence,flow.Sequence,2_2,2023-11-02T20:56:18.337Z,,0,,,3438.5160000000033,completion,,,,,true,,,,81334.80000007153,81334,77880.895,77891,77895.484,81338.923,1,6,,,
trial,html.Screen,2_3_0,2023-11-02T20:56:23.380Z,,0,0,,5038.37700007153,response,ISIC_0031612.JPG,,ISIC_8980141.JPG,ISIC_8980141.JPG,true,0,keypress(z),500,86377.90000009537,86377.30000007153,81330.151,81335,81338.923,86382.639,1,6,4,,ISIC_0031612.JPG
sequence,flow.Sequence,2_3,2023-11-02T20:56:23.380Z,,0,,,5038.37700007153,completion,,,,,true,,,,86378.40000009537,86377.30000007153,81330.151,81335,81338.923,86382.639,1,6,,,
trial,html.Screen,2_4_0,2023-11-02T20:56:29.239Z,,0,0,,5854.461000023846,response,ISIC_1197737.JPG,,ISIC_9721604.JPG,ISIC_9721604.JPG,true,0,keypress(z),500,92237.5,92237.10000002384,86378.913,86378.70000004768,86382.639,92242.543,1,6,5,,ISIC_1197737.JPG
sequence,flow.Sequence,2_4,2023-11-02T20:56:29.240Z,,0,,,5854.461000023846,completion,,,,,true,,,,92237.90000009537,92237.10000002384,86378.913,86378.70000004768,86382.639,92242.543,1,6,,,
trial,html.Screen,2_5_0,2023-11-02T20:56:33.674Z,,0,0,,4429.456999999995,response,ISIC_0025346.JPG,,ISIC_0010681.JPG,ISIC_0010681.JPG,true,0,keypress(z),500,96672.40000009537,96672,92231.306,92238.10000002384,92242.543,96676.926,1,6,6,,ISIC_0025346.JPG
sequence,flow.Sequence,2_5,2023-11-02T20:56:33.674Z,,0,,,4429.456999999995,completion,,,,,true,,,,96672.60000002384,96672,92231.306,92238,92242.543,96676.926,1,6,,,
loop,flow.Loop,2,2023-11-02T20:56:33.675Z,,,,,32276.627,completion,,,,,true,,,,96672.80000007153,96672,64378.861,64394.700000047684,64395.373,96676.926,1,6,,,
exp_instructions,html.Screen,3,2023-11-02T20:56:42.902Z,,,,,9222.274000047677,response,,,,,,continue,keypress(Space),,105900.30000007153,105899.20000004768,96660.335,96673,96676.926,105904.785,,,,,
trial,html.Screen,4_0_0,2023-11-02T20:56:49.642Z,,0,1,,6735.615000095364,response,ISIC_0071931.JPG,5,ISIC_0060660.JPG,ISIC_0060660.JPG,false,0,keypress(z),500,112640.60000002384,112640.40000009537,105890.541,105900.60000002384,105904.785,112645.179,8,400,1,,ISIC_0071931.JPG
break,html.Screen,4_0_1,2023-11-02T20:56:49.644Z,,0,,,NaN,,,,,,false,,,,112641.90000009537,112641.60000002384,,112640.80000007153,,112645.179,8,400,,,
break_continue,html.Screen,4_0_2,2023-11-02T20:56:49.644Z,,0,,,NaN,,,,,,false,,,,112642.40000009537,112642.20000004768,,112642,,112645.179,8,400,,,
sequence,flow.Sequence,4_0,2023-11-02T20:56:49.644Z,,0,,,6737.41500004768,completion,,,,,false,,,,112642.60000002384,112642.20000004768,105890.541,105900.60000002384,105904.785,112645.179,8,400,,,
trial,html.Screen,4_1_0,2023-11-02T20:57:01.126Z,,0,1,,11511.218999999997,timeout,ISIC_0062161.JPG,6,ISIC_0047022.JPG,,false,,,500,124123.80000007153,124123.5,112636.886,112642.70000004768,112645.179,124156.398,8,400,2,,
break,html.Screen,4_1_1,2023-11-02T20:57:01.127Z,,0,,,NaN,,,,,,false,,,,124124.80000007153,124124.60000002384,,124123.90000009537,,124156.398,8,400,,,
break_continue,html.Screen,4_1_2,2023-11-02T20:57:01.127Z,,0,,,NaN,,,,,,false,,,,124125.60000002384,124125.30000007153,,124125,,124156.398,8,400,,,
sequence,flow.Sequence,4_1,2023-11-02T20:57:01.128Z,,0,,,11480.121000071522,completion,,,,,false,,,,124125.80000007153,124125.30000007153,112636.886,112642.70000004768,112645.179,124156.398,8,400,,,
trial,html.Screen,4_2_0,2023-11-02T20:57:06.362Z,,0,1,,5203.202000023841,response,ISIC_8353090.JPG,10,ISIC_0029216.JPG,ISIC_8353090.JPG,false,1,keypress(m),500,129359.90000009537,129359.60000002384,124139.685,124126,124156.398,129363.622,8,400,3,,ISIC_0029216.JPG
break,html.Screen,4_2_1,2023-11-02T20:57:06.363Z,,0,,,NaN,,,,,,false,,,,129361,129360.5,,129360.10000002384,,129363.622,8,400,,,
break_continue,html.Screen,4_2_2,2023-11-02T20:57:06.363Z,,0,,,NaN,,,,,,false,,,,129361.5,129361.30000007153,,129361.10000002384,,129363.622,8,400,,,
sequence,flow.Sequence,4_2,2023-11-02T20:57:06.363Z,,0,,,5204.9020000715245,completion,,,,,false,,,,129361.70000004768,129361.30000007153,124139.685,124126,124156.398,129363.622,8,400,,,
trial,html.Screen,4_3_0,2023-11-02T20:57:10.925Z,,0,1,,4559.778000095364,response,ISIC_0031611.JPG,5,ISIC_6148533.JPG,ISIC_0031611.JPG,false,1,keypress(m),500,133923.5,133923.40000009537,129347.959,129361.70000004768,129363.622,133927.754,8,400,4,,ISIC_6148533.JPG
break,html.Screen,4_3_1,2023-11-02T20:57:10.926Z,,0,,,NaN,,,,,,false,,,,133924.5,133924.20000004768,,133923.80000007153,,133927.754,8,400,,,
break_continue,html.Screen,4_3_2,2023-11-02T20:57:10.927Z,,0,,,NaN,,,,,,false,,,,133924.90000009537,133924.80000007153,,133924.70000004768,,133927.754,8,400,,,
sequence,flow.Sequence,4_3,2023-11-02T20:57:10.927Z,,0,,,4561.178000071523,completion,,,,,false,,,,133925.10000002384,133924.80000007153,129347.959,129361.70000004768,129363.622,133927.754,8,400,,,
trial,html.Screen,4_4_0,2023-11-02T20:57:16.946Z,,0,1,,6015.746000000014,response,ISIC_0011128.JPG,6,ISIC_0014423.JPG,ISIC_0011128.JPG,false,1,keypress(m),500,139943.80000007153,139943.5,133913.872,133925.20000004768,133927.754,139948.153,8,400,5,,ISIC_0014423.JPG
break,html.Screen,4_4_1,2023-11-02T20:57:16.947Z,,0,,,NaN,,,,,,false,,,,139944.60000002384,139944.40000009537,,139943.90000009537,,139948.153,8,400,,,
break_continue,html.Screen,4_4_2,2023-11-02T20:57:16.947Z,,0,,,NaN,,,,,,false,,,,139945.10000002384,139945,,139944.80000007153,,139948.153,8,400,,,
sequence,flow.Sequence,4_4,2023-11-02T20:57:16.947Z,,0,,,6017.246000000014,completion,,,,,false,,,,139945.20000004768,139945,133913.872,133925.10000002384,133927.754,139948.153,8,400,,,
trial,html.Screen,4_5_0,2023-11-02T20:57:22.998Z,,0,1,,6047.247000095376,response,ISIC_0026613.JPG,4,ISIC_8863344.JPG,ISIC_8863344.JPG,false,0,keypress(z),500,145995.70000004768,145995.40000009537,139931.823,139945.40000009537,139948.153,146000.067,8,400,6,,ISIC_0026613.JPG
break,html.Screen,4_5_1,2023-11-02T20:57:23.000Z,,0,,,NaN,,,,,,false,,,,145997.90000009537,145996.40000009537,,145995.90000009537,,146000.067,8,400,,,
break_continue,html.Screen,4_5_2,2023-11-02T20:57:23.000Z,,0,,,NaN,,,,,,false,,,,145998.30000007153,145998.20000004768,,145998.10000002384,,146000.067,8,400,,,
sequence,flow.Sequence,4_5,2023-11-02T20:57:23.000Z,,0,,,6050.047000047693,completion,,,,,false,,,,145998.5,145998.20000004768,139931.823,139945.30000007153,139948.153,146000.067,8,400,,,
trial,html.Screen,4_6_0,2023-11-02T20:57:26.730Z,,0,1,,3728.3330000953574,response,ISIC_0000410.JPG,5,ISIC_0064875.JPG,ISIC_0064875.JPG,false,0,keypress(z),500,149728.60000002384,149728.40000009537,145980.599,145998.60000002384,146000.067,149732.718,8,400,7,,ISIC_0000410.JPG
break,html.Screen,4_6_1,2023-11-02T20:57:26.731Z,,0,,,NaN,,,,,,false,,,,149729.5,149729.30000007153,,149728.80000007153,,149732.718,8,400,,,
break_continue,html.Screen,4_6_2,2023-11-02T20:57:26.732Z,,0,,,NaN,,,,,,false,,,,149730,149729.90000009537,,149729.70000004768,,149732.718,8,400,,,
sequence,flow.Sequence,4_6,2023-11-02T20:57:26.732Z,,0,,,3729.8330000953574,completion,,,,,false,,,,149730.10000002384,149729.90000009537,145980.599,145998.60000002384,146000.067,149732.718,8,400,,,
trial,html.Screen,4_7_0,2023-11-02T20:57:31.342Z,,0,1,,4607.082000071532,response,ISIC_0010400.JPG,5,ISIC_2997601.JPG,ISIC_0010400.JPG,false,1,keypress(m),500,154340.10000002384,154339.80000007153,149724.05,149730.20000004768,149732.718,154344.143,8,400,8,,ISIC_2997601.JPG
break,html.Screen,4_7_1,2023-11-02T20:57:31.343Z,,0,,,NaN,,,,,,false,,,,154340.90000009537,154340.70000004768,,154340.30000007153,,154344.143,8,400,,,
break_continue,html.Screen,4_7_2,2023-11-02T20:57:31.343Z,,0,,,NaN,,,,,,false,,,,154341.20000004768,154341.10000002384,,154341,,154344.143,8,400,,,
sequence,flow.Sequence,4_7,2023-11-02T20:57:31.343Z,,0,,,4608.382000023848,completion,,,,,false,,,,154341.30000007153,154341.10000002384,149724.05,149730.20000004768,149732.718,154344.143,8,400,,,
trial,html.Screen,4_8_0,2023-11-02T20:57:35.393Z,,0,1,,4047.057000047673,response,ISIC_0060446.JPG,5,ISIC_6951506.JPG,ISIC_0060446.JPG,false,1,keypress(m),500,158391.5,158391.20000004768,154334.104,154341.40000009537,154344.143,158395.637,8,400,9,,ISIC_6951506.JPG
break,html.Screen,4_8_1,2023-11-02T20:57:35.394Z,,0,,,NaN,,,,,,false,,,,158392.40000009537,158392.10000002384,,158391.60000002384,,158395.637,8,400,,,
break_continue,html.Screen,4_8_2,2023-11-02T20:57:35.395Z,,0,,,NaN,,,,,,false,,,,158393,158392.70000004768,,158392.5,,158395.637,8,400,,,
sequence,flow.Sequence,4_8,2023-11-02T20:57:35.395Z,,0,,,4048.557000047673,completion,,,,,false,,,,158393.10000002384,158392.70000004768,154334.104,154341.40000009537,154344.143,158395.637,8,400,,,
trial,html.Screen,4_9_0,2023-11-02T20:57:40.501Z,,0,1,,5103.163000071538,response,ISIC_0000445.JPG,5,ISIC_5671175.JPG,ISIC_0000445.JPG,false,1,keypress(m),500,163499.10000002384,163498.80000007153,158390.943,158393.20000004768,158395.637,163504.941,8,400,10,,ISIC_5671175.JPG
break,html.Screen,4_9_1,2023-11-02T20:57:40.502Z,,0,,,NaN,,,,,,false,,,,163499.90000009537,163499.70000004768,,163499.20000004768,,163504.941,8,400,,,
break_continue,html.Screen,4_9_2,2023-11-02T20:57:40.502Z,,0,,,NaN,,,,,,false,,,,163500.40000009537,163500.30000007153,,163500,,163504.941,8,400,,,
sequence,flow.Sequence,4_9,2023-11-02T20:57:40.502Z,,0,,,5104.663000071538,completion,,,,,false,,,,163500.5,163500.30000007153,158390.943,158393.10000002384,158395.637,163504.941,8,400,,,
trial,html.Screen,4_10_0,2023-11-02T20:57:44.525Z,,0,1,,4018.1590000238502,response,ISIC_7976724.JPG,5,ISIC_0025165.JPG,ISIC_0025165.JPG,false,0,keypress(z),500,167523.40000009537,167523.10000002384,163484.688,163500.5,163504.941,167527.505,8,400,11,,ISIC_7976724.JPG
break,html.Screen,4_10_1,2023-11-02T20:57:44.526Z,,0,,,NaN,,,,,,false,,,,167524.40000009537,167524.10000002384,,167523.60000002384,,167527.505,8,400,,,
break_continue,html.Screen,4_10_2,2023-11-02T20:57:44.527Z,,0,,,NaN,,,,,,false,,,,167524.90000009537,167524.70000004768,,167524.5,,167527.505,8,400,,,
sequence,flow.Sequence,4_10,2023-11-02T20:57:44.527Z,,0,,,4019.759000047692,completion,,,,,false,,,,167525.10000002384,167524.70000004768,163484.688,163500.5,163504.941,167527.505,8,400,,,
trial,html.Screen,4_11_0,2023-11-02T20:57:50.033Z,,0,1,,5503.195000047679,response,ISIC_0030469.JPG,5,ISIC_0056534.JPG,ISIC_0030469.JPG,false,1,keypress(m),500,173031,173030.70000004768,167514.204,167525.10000002384,167527.505,173035.44,8,400,12,,ISIC_0056534.JPG
break,html.Screen,4_11_1,2023-11-02T20:57:50.034Z,,0,,,NaN,,,,,,false,,,,173032,173031.70000004768,,173031.20000004768,,173035.44,8,400,,,
break_continue,html.Screen,4_11_2,2023-11-02T20:57:50.034Z,,0,,,NaN,,,,,,false,,,,173032.40000009537,173032.30000007153,,173032.10000002384,,173035.44,8,400,,,
sequence,flow.Sequence,4_11,2023-11-02T20:57:50.035Z,,0,,,5504.795000071521,completion,,,,,false,,,,173032.80000007153,173032.30000007153,167514.204,167525.10000002384,167527.505,173035.44,8,400,,,
trial,html.Screen,4_12_0,2023-11-02T20:57:57.525Z,,0,1,,7487.360000071523,response,ISIC_0510774.JPG,5,ISIC_2324728.JPG,ISIC_0510774.JPG,false,1,keypress(m),500,180523.10000002384,180522.80000007153,173016.243,173032.90000009537,173035.44,180527.8,8,400,13,,ISIC_2324728.JPG
break,html.Screen,4_12_1,2023-11-02T20:57:57.526Z,,0,,,NaN,,,,,,false,,,,180524.20000004768,180523.90000009537,,180523.30000007153,,180527.8,8,400,,,
break_continue,html.Screen,4_12_2,2023-11-02T20:57:57.527Z,,0,,,NaN,,,,,,false,,,,180524.70000004768,180524.60000002384,,180524.30000007153,,180527.8,8,400,,,
sequence,flow.Sequence,4_12,2023-11-02T20:57:57.527Z,,0,,,7489.1600000238395,completion,,,,,false,,,,180524.80000007153,180524.60000002384,173016.243,173032.90000009537,173035.44,180527.8,8,400,,,
trial,html.Screen,4_13_0,2023-11-02T20:58:02.681Z,,0,1,,5151.400000047695,response,ISIC_0059571.JPG,6,ISIC_0065582.JPG,ISIC_0065582.JPG,false,0,keypress(z),500,185679.40000009537,185679.20000004768,180514.966,180525,180527.8,185684.1,8,400,14,,ISIC_0059571.JPG
break,html.Screen,4_13_1,2023-11-02T20:58:02.682Z,,0,,,NaN,,,,,,false,,,,185680.40000009537,185680.20000004768,,185679.70000004768,,185684.1,8,400,,,
break_continue,html.Screen,4_13_2,2023-11-02T20:58:02.683Z,,0,,,NaN,,,,,,false,,,,185681,185680.80000007153,,185680.60000002384,,185684.1,8,400,,,
sequence,flow.Sequence,4_13,2023-11-02T20:58:02.683Z,,0,,,5153.000000071537,completion,,,,,false,,,,185681.20000004768,185680.80000007153,180514.966,180524.90000009537,180527.8,185684.1,8,400,,,
trial,html.Screen,4_14_0,2023-11-02T20:58:08.830Z,,0,1,,6143.20000007152,response,ISIC_3401631.JPG,5,ISIC_0053765.JPG,ISIC_0053765.JPG,false,0,keypress(z),500,191827.60000002384,191827.30000007153,185669.091,185681.30000007153,185684.1,191832.263,8,400,15,,ISIC_3401631.JPG
break,html.Screen,4_14_1,2023-11-02T20:58:08.831Z,,0,,,NaN,,,,,,false,,,,191828.70000004768,191828.5,,191827.90000009537,,191832.263,8,400,,,
break_continue,html.Screen,4_14_2,2023-11-02T20:58:08.831Z,,0,,,NaN,,,,,,false,,,,191829.20000004768,191829.10000002384,,191828.90000009537,,191832.263,8,400,,,
sequence,flow.Sequence,4_14,2023-11-02T20:58:08.831Z,,0,,,6145.000000023836,completion,,,,,false,,,,191829.30000007153,191829.10000002384,185669.091,185681.20000004768,185684.1,191832.263,8,400,,,
trial,html.Screen,4_15_0,2023-11-02T20:58:15.313Z,,0,1,,6478.837000023836,response,ISIC_4781223.JPG,5,ISIC_0204355.JPG,ISIC_0204355.JPG,false,0,keypress(z),500,198311.5,198311.10000002384,191825.019,191829.40000009537,191832.263,198316.071,8,400,16,,ISIC_4781223.JPG
break,html.Screen,4_15_1,2023-11-02T20:58:15.314Z,,0,,,NaN,,,,,,false,,,,198312.5,198312.30000007153,,198311.70000004768,,198316.071,8,400,,,
break_continue,html.Screen,4_15_2,2023-11-02T20:58:15.315Z,,0,,,NaN,,,,,,false,,,,198313,198312.90000009537,,198312.70000004768,,198316.071,8,400,,,
sequence,flow.Sequence,4_15,2023-11-02T20:58:15.315Z,,0,,,6480.637000095361,completion,,,,,false,,,,198313.20000004768,198312.90000009537,191825.019,191829.40000009537,191832.263,198316.071,8,400,,,
trial,html.Screen,4_16_0,2023-11-02T20:58:22.004Z,,0,1,,6686.229000071529,response,ISIC_0014219.JPG,4,ISIC_0033856.JPG,ISIC_0033856.JPG,false,0,keypress(z),500,205002.5,205002.30000007153,198306.011,198313.30000007153,198316.071,205007.276,8,400,17,,ISIC_0014219.JPG
break,html.Screen,4_16_1,2023-11-02T20:58:22.005Z,,0,,,NaN,,,,,,false,,,,205003.5,205003.30000007153,,205002.70000004768,,205007.276,8,400,,,
break_continue,html.Screen,4_16_2,2023-11-02T20:58:22.006Z,,0,,,NaN,,,,,,false,,,,205003.90000009537,205003.80000007153,,205003.60000002384,,205007.276,8,400,,,
sequence,flow.Sequence,4_16,2023-11-02T20:58:22.006Z,,0,,,6687.729000071529,completion,,,,,false,,,,205004,205003.80000007153,198306.011,198313.30000007153,198316.071,205007.276,8,400,,,
trial,html.Screen,4_17_0,2023-11-02T20:58:29.241Z,,0,1,,7231.424000047671,response,ISIC_0000313.JPG,6,ISIC_0033968.JPG,ISIC_0033968.JPG,false,0,keypress(z),500,212238.90000009537,212238.70000004768,204995.616,205004.20000004768,205007.276,212243.45,8,400,18,,ISIC_0000313.JPG
break,html.Screen,4_17_1,2023-11-02T20:58:29.242Z,,0,,,NaN,,,,,,false,,,,212239.90000009537,212239.60000002384,,212239.10000002384,,212243.45,8,400,,,
break_continue,html.Screen,4_17_2,2023-11-02T20:58:29.242Z,,0,,,NaN,,,,,,false,,,,212240.20000004768,212240.10000002384,,212239.90000009537,,212243.45,8,400,,,
sequence,flow.Sequence,4_17,2023-11-02T20:58:29.242Z,,0,,,7232.824000023829,completion,,,,,false,,,,212240.5,212240.10000002384,204995.616,205004.20000004768,205007.276,212243.45,8,400,,,
trial,html.Screen,4_18_0,2023-11-02T20:58:38.988Z,,0,1,,9742.549999999988,response,ISIC_4128129.JPG,5,ISIC_3269018.JPG,ISIC_3269018.JPG,false,0,keypress(z),500,221986.5,221986,212228.705,212240.60000002384,212243.45,221992.179,8,400,19,,ISIC_4128129.JPG
break,html.Screen,4_18_1,2023-11-02T20:58:38.990Z,,0,,,NaN,,,,,,false,,,,221987.80000007153,221987.40000009537,,221986.70000004768,,221992.179,8,400,,,
break_continue,html.Screen,4_18_2,2023-11-02T20:58:38.991Z,,0,,,NaN,,,,,,false,,,,221988.70000004768,221988.60000002384,,221988.30000007153,,221992.179,8,400,,,
sequence,flow.Sequence,4_18,2023-11-02T20:58:38.991Z,,0,,,9745.15000002383,completion,,,,,false,,,,221989,221988.60000002384,212228.705,212240.60000002384,212243.45,221992.179,8,400,,,
trial,html.Screen,4_19_0,2023-11-02T20:58:42.066Z,,0,1,,3071.7210000953637,response,ISIC_1037315.JPG,5,ISIC_7503950.JPG,ISIC_7503950.JPG,false,0,keypress(z),500,225064.10000002384,225063.90000009537,221976.821,221989.20000004768,221992.179,225068.546,8,400,20,,ISIC_1037315.JPG
break,html.Screen,4_19_1,2023-11-02T20:58:42.067Z,,0,,,NaN,,,,,,false,,,,225065,225064.80000007153,,225064.30000007153,,225068.546,8,400,,,
break_continue,html.Screen,4_19_2,2023-11-02T20:58:42.068Z,,0,,,NaN,,,,,,false,,,,225065.90000009537,225065.30000007153,,225065.20000004768,,225068.546,8,400,,,
sequence,flow.Sequence,4_19,2023-11-02T20:58:42.068Z,,0,,,3073.121000071522,completion,,,,,false,,,,225066.20000004768,225065.30000007153,221976.821,221989.10000002384,221992.179,225068.546,8,400,,,
trial,html.Screen,4_20_0,2023-11-02T20:58:52.199Z,,0,1,,10128.05400002384,response,ISIC_0069556.JPG,4,ISIC_9222136.JPG,ISIC_0069556.JPG,false,1,keypress(m),500,235196.90000009537,235196.60000002384,225057.913,225066.30000007153,225068.546,235201.002,8,400,21,,ISIC_9222136.JPG
break,html.Screen,4_20_1,2023-11-02T20:58:52.200Z,,0,,,NaN,,,,,,false,,,,235198.10000002384,235197.70000004768,,235197.10000002384,,235201.002,8,400,,,
break_continue,html.Screen,4_20_2,2023-11-02T20:58:52.201Z,,0,,,NaN,,,,,,false,,,,235198.80000007153,235198.60000002384,,235198.30000007153,,235201.002,8,400,,,
sequence,flow.Sequence,4_20,2023-11-02T20:58:52.201Z,,0,,,10130.05400002384,completion,,,,,false,,,,235199,235198.60000002384,225057.913,225066.20000004768,225068.546,235201.002,8,400,,,
trial,html.Screen,4_21_0,2023-11-02T20:59:02.157Z,,0,1,,9953.798000071518,response,ISIC_7296201.JPG,5,ISIC_1368336.JPG,ISIC_7296201.JPG,false,1,keypress(m),500,245155,245154.80000007153,235191.637,235199.30000007153,235201.002,245178.717,8,400,22,,ISIC_1368336.JPG
break,html.Screen,4_21_1,2023-11-02T20:59:02.158Z,,0,,,NaN,,,,,,false,,,,245155.80000007153,245155.60000002384,,245155.10000002384,,245178.717,8,400,,,
break_continue,html.Screen,4_21_2,2023-11-02T20:59:02.158Z,,0,,,NaN,,,,,,false,,,,245156,245155.90000009537,,245155.80000007153,,245178.717,8,400,,,
sequence,flow.Sequence,4_21,2023-11-02T20:59:02.158Z,,0,,,9954.89800009536,completion,,,,,false,,,,245156.20000004768,245155.90000009537,235191.637,235199.20000004768,235201.002,245178.717,8,400,,,
trial,html.Screen,4_22_0,2023-11-02T20:59:09.792Z,,0,1,,7610.782999999996,response,ISIC_0914251.JPG,6,ISIC_3063260.JPG,ISIC_3063260.JPG,false,0,keypress(z),500,252789.70000004768,252789.5,245162.131,245156.40000009537,245178.717,252794.379,8,400,23,,ISIC_0914251.JPG
break,html.Screen,4_22_1,2023-11-02T20:59:09.793Z,,0,,,NaN,,,,,,false,,,,252790.70000004768,252790.5,,252789.90000009537,,252794.379,8,400,,,
break_continue,html.Screen,4_22_2,2023-11-02T20:59:09.793Z,,0,,,NaN,,,,,,false,,,,252791.20000004768,252791,,252790.80000007153,,252794.379,8,400,,,
sequence,flow.Sequence,4_22,2023-11-02T20:59:09.793Z,,0,,,7612.282999999996,completion,,,,,false,,,,252791.30000007153,252791,245162.131,245156.30000007153,245178.717,252794.379,8,400,,,
trial,html.Screen,4_23_0,2023-11-02T20:59:15.236Z,,0,1,,5439.221000023856,response,ISIC_0011193.JPG,4,ISIC_0027590.JPG,ISIC_0027590.JPG,false,0,keypress(z),500,258234,258233.60000002384,252787.346,252791.40000009537,252794.379,258238.289,8,400,24,,ISIC_0011193.JPG
break,html.Screen,4_23_1,2023-11-02T20:59:15.237Z,,0,,,NaN,,,,,,false,,,,258234.90000009537,258234.70000004768,,258234.10000002384,,258238.289,8,400,,,
break_continue,html.Screen,4_23_2,2023-11-02T20:59:15.237Z,,0,,,NaN,,,,,,false,,,,258235.30000007153,258235.30000007153,,258235.10000002384,,258238.289,8,400,,,
sequence,flow.Sequence,4_23,2023-11-02T20:59:15.237Z,,0,,,5440.921000071539,completion,,,,,false,,,,258235.5,258235.30000007153,252787.346,252791.40000009537,252794.379,258238.289,8,400,,,
trial,html.Screen,4_24_0,2023-11-02T20:59:21.128Z,,0,1,,5887.811000023852,response,ISIC_0033953.JPG,5,ISIC_0030404.JPG,ISIC_0030404.JPG,false,0,keypress(z),500,264126.3000000715,264126.10000002384,258229.911,258235.60000002384,258238.289,264130.605,8,400,25,,ISIC_0033953.JPG
break,html.Screen,4_24_1,2023-11-02T20:59:21.129Z,,0,,,NaN,,,,,,false,,,,264127.3000000715,264127.10000002384,,264126.5,,264130.605,8,400,,,
break_continue,html.Screen,4_24_2,2023-11-02T20:59:21.130Z,,0,,,NaN,,,,,,false,,,,264127.8000000715,264127.7000000477,,264127.5,,264130.605,8,400,,,
sequence,flow.Sequence,4_24,2023-11-02T20:59:21.130Z,,0,,,5889.411000047694,completion,,,,,false,,,,264128,264127.7000000477,258229.911,258235.60000002384,258238.289,264130.605,8,400,,,
trial,html.Screen,4_25_0,2023-11-02T20:59:27.004Z,,0,1,,5871.395000000019,response,ISIC_5391758.JPG,4,ISIC_0056788.JPG,ISIC_0056788.JPG,false,0,keypress(z),500,270002.2000000477,270002,264111.207,264128.10000002384,264130.605,270006.974,8,400,26,,ISIC_5391758.JPG
break,html.Screen,4_25_1,2023-11-02T20:59:27.006Z,,0,,,NaN,,,,,,false,,,,270003.7000000477,270003.10000002384,,270002.5,,270006.974,8,400,,,
break_continue,html.Screen,4_25_2,2023-11-02T20:59:27.006Z,,0,,,NaN,,,,,,false,,,,270004.2000000477,270004,,270003.90000009537,,270006.974,8,400,,,
sequence,flow.Sequence,4_25,2023-11-02T20:59:27.006Z,,0,,,5873.395000000019,completion,,,,,false,,,,270004.3000000715,270004,264111.207,264128.10000002384,264130.605,270006.974,8,400,,,
trial,html.Screen,4_26_0,2023-11-02T20:59:30.273Z,,0,1,,3264.2260000476963,response,ISIC_0053473.JPG,6,ISIC_6548734.JPG,ISIC_6548734.JPG,false,0,keypress(z),500,273271.40000009537,273271.2000000477,270002.778,270004.5,270006.974,273292.511,8,400,27,,ISIC_0053473.JPG
break,html.Screen,4_26_1,2023-11-02T20:59:30.275Z,,0,,,NaN,,,,,,false,,,,273273.10000002384,273272.3000000715,,273271.7000000477,,273292.511,8,400,,,
break_continue,html.Screen,4_26_2,2023-11-02T20:59:30.276Z,,0,,,NaN,,,,,,false,,,,273273.5,273273.40000009537,,273273.2000000477,,273292.511,8,400,,,
sequence,flow.Sequence,4_26,2023-11-02T20:59:30.276Z,,0,,,3266.42600009538,completion,,,,,false,,,,273273.7000000477,273273.40000009537,270002.778,270004.40000009537,270006.974,273292.511,8,400,,,
trial,html.Screen,4_27_0,2023-11-02T20:59:34.775Z,,0,1,,4480.289000071527,response,ISIC_7134821.JPG,5,ISIC_0027620.JPG,ISIC_0027620.JPG,false,0,keypress(z),500,277773.10000002384,277772.8000000715,273275.792,273273.90000009537,273292.511,277776.857,8,400,28,,ISIC_7134821.JPG
break,html.Screen,4_27_1,2023-11-02T20:59:34.776Z,,0,,,NaN,,,,,,false,,,,277774.40000009537,277774.3000000715,,277773.3000000715,,277776.857,8,400,,,
break_continue,html.Screen,4_27_2,2023-11-02T20:59:34.777Z,,0,,,NaN,,,,,,false,,,,277774.7000000477,277774.7000000477,,277774.60000002384,,277776.857,8,400,,,
sequence,flow.Sequence,4_27,2023-11-02T20:59:34.777Z,,0,,,4482.189000047685,completion,,,,,false,,,,277774.90000009537,277774.7000000477,273275.792,273273.8000000715,273292.511,277776.857,8,400,,,
trial,html.Screen,4_28_0,2023-11-02T20:59:38.620Z,,0,1,,3840.642999999982,response,ISIC_9203812.JPG,20,ISIC_0030060.JPG,ISIC_0030060.JPG,false,0,keypress(z),500,281617.8000000715,281617.5,277766.512,277775.10000002384,277776.857,281621.698,8,400,29,,ISIC_9203812.JPG
break,html.Screen,4_28_1,2023-11-02T20:59:38.621Z,,0,,,NaN,,,,,,false,,,,281619.40000009537,281618.5,,281617.90000009537,,281621.698,8,400,,,
break_continue,html.Screen,4_28_2,2023-11-02T20:59:38.622Z,,0,,,NaN,,,,,,false,,,,281620,281619.8000000715,,281619.5,,281621.698,8,400,,,
sequence,flow.Sequence,4_28,2023-11-02T20:59:38.622Z,,0,,,3842.9430000715074,completion,,,,,false,,,,281620.10000002384,281619.8000000715,277766.512,277775.10000002384,277776.857,281621.698,8,400,,,
trial,html.Screen,4_29_0,2023-11-02T20:59:43.745Z,,0,1,,5120.702000095393,response,ISIC_0029353.JPG,5,ISIC_0011801.JPG,ISIC_0011801.JPG,false,0,keypress(z),500,286742.60000002384,286742.40000009537,281612.992,281620.40000009537,281621.698,286746.825,8,400,30,,ISIC_0029353.JPG
break,html.Screen,4_29_1,2023-11-02T20:59:43.745Z,,0,,,NaN,,,,,,false,,,,286743.40000009537,286743.3000000715,,286742.8000000715,,286746.825,8,400,,,
break_continue,html.Screen,4_29_2,2023-11-02T20:59:43.746Z,,0,,,NaN,,,,,,false,,,,286743.8000000715,286743.7000000477,,286743.60000002384,,286746.825,8,400,,,
sequence,flow.Sequence,4_29,2023-11-02T20:59:43.746Z,,0,,,5122.002000047709,completion,,,,,false,,,,286744.2000000477,286743.7000000477,281612.992,281620.3000000715,281621.698,286746.825,8,400,,,
trial,html.Screen,4_30_0,2023-11-02T20:59:48.965Z,,0,1,,5215.674999999988,response,ISIC_4629662.JPG,5,ISIC_0071904.JPG,ISIC_0071904.JPG,false,0,keypress(z),500,291962.7000000477,291962.5,286733.823,286744.3000000715,286746.825,291966.872,8,400,31,,ISIC_4629662.JPG
break,html.Screen,4_30_1,2023-11-02T20:59:48.966Z,,0,,,NaN,,,,,,false,,,,291963.60000002384,291963.40000009537,,291963,,291966.872,8,400,,,
break_continue,html.Screen,4_30_2,2023-11-02T20:59:48.966Z,,0,,,NaN,,,,,,false,,,,291964,291963.90000009537,,291963.8000000715,,291966.872,8,400,,,
sequence,flow.Sequence,4_30,2023-11-02T20:59:48.966Z,,0,,,5217.075000095356,completion,,,,,false,,,,291964.10000002384,291963.90000009537,286733.823,286744.2000000477,286746.825,291966.872,8,400,,,
trial,html.Screen,4_31_0,2023-11-02T20:59:53.081Z,,0,1,,4111.5280000953935,response,ISIC_0034074.JPG,5,ISIC_0001137.JPG,ISIC_0034074.JPG,false,1,keypress(m),500,296078.60000002384,296078.40000009537,291962.473,291964.2000000477,291966.872,296082.732,8,400,32,,ISIC_0001137.JPG
break,html.Screen,4_31_1,2023-11-02T20:59:53.082Z,,0,,,NaN,,,,,,false,,,,296080.10000002384,296079.60000002384,,296078.8000000715,,296082.732,8,400,,,
break_continue,html.Screen,4_31_2,2023-11-02T20:59:53.082Z,,0,,,NaN,,,,,,false,,,,296080.5,296080.40000009537,,296080.3000000715,,296082.732,8,400,,,
sequence,flow.Sequence,4_31,2023-11-02T20:59:53.083Z,,0,,,4113.5280000953935,completion,,,,,false,,,,296080.7000000477,296080.40000009537,291962.473,291964.2000000477,291966.872,296082.732,8,400,,,
trial,html.Screen,4_32_0,2023-11-02T20:59:58.957Z,,0,1,,5871.968000047666,response,ISIC_6475049.JPG,6,ISIC_3433060.JPG,ISIC_6475049.JPG,false,1,keypress(m),500,301955,301954.7000000477,296076.152,296080.90000009537,296082.732,301981.091,8,400,33,,ISIC_3433060.JPG
break,html.Screen,4_32_1,2023-11-02T20:59:58.958Z,,0,,,NaN,,,,,,false,,,,301956,301955.8000000715,,301955.40000009537,,301981.091,8,400,,,
break_continue,html.Screen,4_32_2,2023-11-02T20:59:58.958Z,,0,,,NaN,,,,,,false,,,,301956.40000009537,301956.40000009537,,301956.2000000477,,301981.091,8,400,,,
sequence,flow.Sequence,4_32,2023-11-02T20:59:58.959Z,,0,,,5873.668000095349,completion,,,,,false,,,,301956.7000000477,301956.40000009537,296076.152,296080.8000000715,296082.732,301981.091,8,400,,,
trial,html.Screen,4_33_0,2023-11-02T21:00:06.704Z,,0,1,,7721.109000047669,response,ISIC_0003851.JPG,5,ISIC_5595054.JPG,ISIC_5595054.JPG,false,0,keypress(z),500,309702.5,309702.2000000477,301964.315,301956.8000000715,301981.091,309706.668,8,400,34,,ISIC_0003851.JPG
break,html.Screen,4_33_1,2023-11-02T21:00:06.705Z,,0,,,NaN,,,,,,false,,,,309703.2000000477,309703.10000002384,,309702.7000000477,,309706.668,8,400,,,
break_continue,html.Screen,4_33_2,2023-11-02T21:00:06.705Z,,0,,,NaN,,,,,,false,,,,309703.60000002384,309703.5,,309703.40000009537,,309706.668,8,400,,,
sequence,flow.Sequence,4_33,2023-11-02T21:00:06.706Z,,0,,,7722.408999999985,completion,,,,,false,,,,309703.8000000715,309703.5,301964.315,301956.7000000477,301981.091,309706.668,8,400,,,
trial,html.Screen,4_34_0,2023-11-02T21:00:10.580Z,,0,1,,3871.5320000476786,response,ISIC_0058149.JPG,6,ISIC_1802502.JPG,ISIC_0058149.JPG,false,1,keypress(m),500,313578.40000009537,313578.2000000477,309692.823,309703.90000009537,309706.668,313583.066,8,400,35,,ISIC_1802502.JPG
break,html.Screen,4_34_1,2023-11-02T21:00:10.581Z,,0,,,NaN,,,,,,false,,,,313579.5,313579.2000000477,,313578.7000000477,,313583.066,8,400,,,
break_continue,html.Screen,4_34_2,2023-11-02T21:00:10.582Z,,0,,,NaN,,,,,,false,,,,313579.8000000715,313579.7000000477,,313579.5,,313583.066,8,400,,,
sequence,flow.Sequence,4_34,2023-11-02T21:00:10.582Z,,0,,,3873.0320000476786,completion,,,,,false,,,,313580,313579.7000000477,309692.823,309703.90000009537,309706.668,313583.066,8,400,,,
trial,html.Screen,4_35_0,2023-11-02T21:00:19.623Z,,0,1,,9038.134000047692,response,ISIC_0032901.JPG,5,ISIC_5732374.JPG,ISIC_0032901.JPG,false,1,keypress(m),500,322621.40000009537,322621.2000000477,313566.954,313580.10000002384,313583.066,322625.991,8,400,36,,ISIC_5732374.JPG
break,html.Screen,4_35_1,2023-11-02T21:00:19.624Z,,0,,,NaN,,,,,,false,,,,322622.2000000477,322622,,322621.60000002384,,322625.991,8,400,,,
break_continue,html.Screen,4_35_2,2023-11-02T21:00:19.624Z,,0,,,NaN,,,,,,false,,,,322622.60000002384,322622.5,,322622.40000009537,,322625.991,8,400,,,
sequence,flow.Sequence,4_35,2023-11-02T21:00:19.625Z,,0,,,9039.434000000008,completion,,,,,false,,,,322622.8000000715,322622.5,313566.954,313580.10000002384,313583.066,322625.991,8,400,,,
trial,html.Screen,4_36_0,2023-11-02T21:00:24.922Z,,0,1,,5294.209000047704,response,ISIC_0062133.JPG,5,ISIC_0025238.JPG,ISIC_0062133.JPG,false,1,keypress(m),500,327920.5,327920.2000000477,322611.95,322622.90000009537,322625.991,327924.954,8,400,37,,ISIC_0025238.JPG
break,html.Screen,4_36_1,2023-11-02T21:00:24.923Z,,0,,,NaN,,,,,,false,,,,327921.40000009537,327921.3000000715,,327920.7000000477,,327924.954,8,400,,,
break_continue,html.Screen,4_36_2,2023-11-02T21:00:24.924Z,,0,,,NaN,,,,,,false,,,,327922.2000000477,327921.7000000477,,327921.60000002384,,327924.954,8,400,,,
sequence,flow.Sequence,4_36,2023-11-02T21:00:24.924Z,,0,,,5295.709000047704,completion,,,,,false,,,,327922.5,327921.7000000477,322611.95,322622.8000000715,322625.991,327924.954,8,400,,,
trial,html.Screen,4_37_0,2023-11-02T21:00:31.040Z,,0,1,,6112.346000071499,response,ISIC_0064298.JPG,6,ISIC_9527051.JPG,ISIC_0064298.JPG,false,1,keypress(m),500,334037.60000002384,334037.3000000715,327911.139,327922.5,327924.954,334042.371,8,400,38,,ISIC_9527051.JPG
break,html.Screen,4_37_1,2023-11-02T21:00:31.041Z,,0,,,NaN,,,,,,false,,,,334038.8000000715,334038.5,,334037.90000009537,,334042.371,8,400,,,
break_continue,html.Screen,4_37_2,2023-11-02T21:00:31.041Z,,0,,,NaN,,,,,,false,,,,334039.3000000715,334039.2000000477,,334039,,334042.371,8,400,,,
sequence,flow.Sequence,4_37,2023-11-02T21:00:31.041Z,,0,,,6114.246000047657,completion,,,,,false,,,,334039.40000009537,334039.2000000477,327911.139,327922.5,327924.954,334042.371,8,400,,,
trial,html.Screen,4_38_0,2023-11-02T21:00:35.108Z,,0,1,,4063.029000095383,response,ISIC_4322954.JPG,5,ISIC_0011778.JPG,ISIC_0011778.JPG,false,0,keypress(z),500,338105.7000000477,338105.40000009537,334032.705,334039.60000002384,334042.371,338110.219,8,400,39,,ISIC_4322954.JPG
break,html.Screen,4_38_1,2023-11-02T21:00:35.108Z,,0,,,NaN,,,,,,false,,,,338106.60000002384,338106.5,,338105.90000009537,,338110.219,8,400,,,
break_continue,html.Screen,4_38_2,2023-11-02T21:00:35.109Z,,0,,,NaN,,,,,,false,,,,338107.5,338106.90000009537,,338106.7000000477,,338110.219,8,400,,,
sequence,flow.Sequence,4_38,2023-11-02T21:00:35.110Z,,0,,,4064.529000095383,completion,,,,,false,,,,338107.8000000715,338106.90000009537,334032.705,334039.60000002384,334042.371,338110.219,8,400,,,
trial,html.Screen,4_39_0,2023-11-02T21:00:40.775Z,,0,1,,5662.981000047701,response,ISIC_6380209.JPG,5,ISIC_4170698.JPG,ISIC_4170698.JPG,false,0,keypress(z),500,343773.5,343773.2000000477,338100.266,338108,338110.219,343778.268,8,400,40,,ISIC_6380209.JPG
break,html.Screen,4_39_1,2023-11-02T21:00:40.776Z,,0,,,NaN,,,,,,false,,,,343774.5,343774.3000000715,,343773.8000000715,,343778.268,8,400,,,
break_continue,html.Screen,4_39_2,2023-11-02T21:00:40.777Z,,0,,,NaN,,,,,,false,,,,343775,343774.8000000715,,343774.60000002384,,343778.268,8,400,,,
sequence,flow.Sequence,4_39,2023-11-02T21:00:40.777Z,,0,,,5664.581000071543,completion,,,,,false,,,,343775.5,343774.8000000715,338100.266,338107.90000009537,338110.219,343778.268,8,400,,,
trial,html.Screen,4_40_0,2023-11-02T21:00:47.948Z,,0,1,,7167.432000047702,response,ISIC_0064874.JPG,5,ISIC_5110133.JPG,ISIC_0064874.JPG,false,1,keypress(m),500,350946,350945.7000000477,343770.656,343775.7000000477,343778.268,350950.827,8,400,41,,ISIC_5110133.JPG
break,html.Screen,4_40_1,2023-11-02T21:00:47.949Z,,0,,,NaN,,,,,,false,,,,350947.10000002384,350946.90000009537,,350946.40000009537,,350950.827,8,400,,,
break_continue,html.Screen,4_40_2,2023-11-02T21:00:47.950Z,,0,,,NaN,,,,,,false,,,,350947.8000000715,350947.60000002384,,350947.3000000715,,350950.827,8,400,,,
sequence,flow.Sequence,4_40,2023-11-02T21:00:47.950Z,,0,,,7169.33200002386,completion,,,,,false,,,,350948.10000002384,350947.60000002384,343770.656,343775.7000000477,343778.268,350950.827,8,400,,,
trial,html.Screen,4_41_0,2023-11-02T21:00:55.264Z,,0,1,,7311.473000071535,response,ISIC_2166957.JPG,5,ISIC_0028087.JPG,ISIC_2166957.JPG,false,1,keypress(m),500,358262.5,358262.3000000715,350944.516,350948.2000000477,350950.827,358267.311,8,400,42,,ISIC_0028087.JPG
break,html.Screen,4_41_1,2023-11-02T21:00:55.265Z,,0,,,NaN,,,,,,false,,,,358263.60000002384,358263.3000000715,,358262.7000000477,,358267.311,8,400,,,
break_continue,html.Screen,4_41_2,2023-11-02T21:00:55.266Z,,0,,,NaN,,,,,,false,,,,358264.2000000477,358263.90000009537,,358263.8000000715,,358267.311,8,400,,,
sequence,flow.Sequence,4_41,2023-11-02T21:00:55.266Z,,0,,,7313.073000095377,completion,,,,,false,,,,358264.40000009537,358263.90000009537,350944.516,350948.10000002384,350950.827,358267.311,8,400,,,
trial,html.Screen,4_42_0,2023-11-02T21:01:00.372Z,,0,1,,5102.289000023855,response,ISIC_0013497.JPG,5,ISIC_4786412.JPG,ISIC_0013497.JPG,false,1,keypress(m),500,363369.90000009537,363369.60000002384,358260.747,358264.5,358267.311,363374.632,8,400,43,,ISIC_4786412.JPG
break,html.Screen,4_42_1,2023-11-02T21:01:00.373Z,,0,,,NaN,,,,,,false,,,,363370.90000009537,363370.7000000477,,363370.10000002384,,363374.632,8,400,,,
break_continue,html.Screen,4_42_2,2023-11-02T21:01:00.374Z,,0,,,NaN,,,,,,false,,,,363372,363371.3000000715,,363371,,363374.632,8,400,,,
sequence,flow.Sequence,4_42,2023-11-02T21:01:00.374Z,,0,,,5103.989000071539,completion,,,,,false,,,,363372.2000000477,363371.3000000715,358260.747,358264.40000009537,358267.311,363374.632,8,400,,,
trial,html.Screen,4_43_0,2023-11-02T21:01:04.312Z,,0,1,,3935.6680000715423,response,ISIC_6973257.JPG,5,ISIC_0055550.JPG,ISIC_0055550.JPG,false,0,keypress(z),500,367310.5,367310.3000000715,363370.512,363372.3000000715,363374.632,367314.366,8,400,44,,ISIC_6973257.JPG
break,html.Screen,4_43_1,2023-11-02T21:01:04.314Z,,0,,,NaN,,,,,,false,,,,367311.7000000477,367311.3000000715,,367310.7000000477,,367314.366,8,400,,,
break_continue,html.Screen,4_43_2,2023-11-02T21:01:04.314Z,,0,,,NaN,,,,,,false,,,,367312.10000002384,367312,,367311.90000009537,,367314.366,8,400,,,
sequence,flow.Sequence,4_43,2023-11-02T21:01:04.314Z,,0,,,3937.3680000000168,completion,,,,,false,,,,367312.3000000715,367312,363370.512,363372.3000000715,363374.632,367314.366,8,400,,,
trial,html.Screen,4_44_0,2023-11-02T21:01:09.180Z,,0,1,,4863.234000023862,response,ISIC_1558504.JPG,6,ISIC_9668514.JPG,ISIC_1558504.JPG,false,1,keypress(m),500,372177.8000000715,372177.60000002384,367305.099,367312.5,367314.366,372182.445,8,400,45,,ISIC_9668514.JPG
break,html.Screen,4_44_1,2023-11-02T21:01:09.181Z,,0,,,NaN,,,,,,false,,,,372179,372178.7000000477,,372178,,372182.445,8,400,,,
break_continue,html.Screen,4_44_2,2023-11-02T21:01:09.182Z,,0,,,NaN,,,,,,false,,,,372180,372179.8000000715,,372179.10000002384,,372182.445,8,400,,,
sequence,flow.Sequence,4_44,2023-11-02T21:01:09.182Z,,0,,,4865.434000071546,completion,,,,,false,,,,372180.10000002384,372179.8000000715,367305.099,367312.3000000715,367314.366,372182.445,8,400,,,
trial,html.Screen,4_45_0,2023-11-02T21:01:15.024Z,,0,1,,5839.054999999993,response,ISIC_0030695.JPG,4,ISIC_2341875.JPG,ISIC_0030695.JPG,false,1,keypress(m),500,378021.8000000715,378021.5,372168.951,372180.2000000477,372182.445,378026.349,8,400,46,,ISIC_2341875.JPG
break,html.Screen,4_45_1,2023-11-02T21:01:15.025Z,,0,,,NaN,,,,,,false,,,,378022.90000009537,378022.60000002384,,378022,,378026.349,8,400,,,
break_continue,html.Screen,4_45_2,2023-11-02T21:01:15.025Z,,0,,,NaN,,,,,,false,,,,378023.40000009537,378023.2000000477,,378023,,378026.349,8,400,,,
sequence,flow.Sequence,4_45,2023-11-02T21:01:15.025Z,,0,,,5840.755000047677,completion,,,,,false,,,,378023.5,378023.2000000477,372168.951,372180.2000000477,372182.445,378026.349,8,400,,,
trial,html.Screen,4_46_0,2023-11-02T21:01:22.195Z,,0,1,,7166.451000071538,response,ISIC_3148533.JPG,5,ISIC_9418196.JPG,ISIC_9418196.JPG,false,0,keypress(z),500,385193.10000002384,385192.8000000715,378011.723,378023.7000000477,378026.349,385197.58,8,400,47,,ISIC_3148533.JPG
break,html.Screen,4_46_1,2023-11-02T21:01:22.196Z,,0,,,NaN,,,,,,false,,,,385194,385193.8000000715,,385193.2000000477,,385197.58,8,400,,,
break_continue,html.Screen,4_46_2,2023-11-02T21:01:22.197Z,,0,,,NaN,,,,,,false,,,,385194.60000002384,385194.5,,385194.3000000715,,385197.58,8,400,,,
sequence,flow.Sequence,4_46,2023-11-02T21:01:22.197Z,,0,,,7168.151000000013,completion,,,,,false,,,,385194.8000000715,385194.5,378011.723,378023.60000002384,378026.349,385197.58,8,400,,,
trial,html.Screen,4_47_0,2023-11-02T21:01:31.126Z,,0,1,,8926.520000023826,response,ISIC_7100813.JPG,5,ISIC_0010262.JPG,ISIC_0010262.JPG,false,0,keypress(z),500,394124.3000000715,394124.10000002384,385189.992,385194.90000009537,385197.58,394129.011,8,400,48,,ISIC_7100813.JPG
break,html.Screen,4_47_1,2023-11-02T21:01:31.127Z,,0,,,NaN,,,,,,false,,,,394125.40000009537,394125.2000000477,,394124.5,,394129.011,8,400,,,
break_continue,html.Screen,4_47_2,2023-11-02T21:01:31.128Z,,0,,,NaN,,,,,,false,,,,394126,394125.90000009537,,394125.7000000477,,394129.011,8,400,,,
sequence,flow.Sequence,4_47,2023-11-02T21:01:31.128Z,,0,,,8928.320000095351,completion,,,,,false,,,,394126.10000002384,394125.90000009537,385189.992,385194.90000009537,385197.58,394129.011,8,400,,,
trial,html.Screen,4_48_0,2023-11-02T21:01:37.386Z,,0,1,,6255.189000047685,response,ISIC_0069398.JPG,4,ISIC_0031005.JPG,ISIC_0031005.JPG,false,0,keypress(z),500,400384.5,400384.2000000477,394109.679,394126.3000000715,394129.011,400389.03,8,400,49,,ISIC_0069398.JPG
break,html.Screen,4_48_1,2023-11-02T21:01:37.387Z,,0,,,NaN,,,,,,false,,,,400385.60000002384,400385.3000000715,,400384.7000000477,,400389.03,8,400,,,
break_continue,html.Screen,4_48_2,2023-11-02T21:01:37.388Z,,0,,,NaN,,,,,,false,,,,400386,400385.90000009537,,400385.7000000477,,400389.03,8,400,,,
sequence,flow.Sequence,4_48,2023-11-02T21:01:37.388Z,,0,,,6256.889000095369,completion,,,,,false,,,,400386.2000000477,400385.90000009537,394109.679,394126.2000000477,394129.011,400389.03,8,400,,,
trial,html.Screen,4_49_0,2023-11-02T21:01:41.086Z,,0,1,,3694.8700000953395,response,ISIC_0010131.JPG,4,ISIC_7869255.JPG,ISIC_0010131.JPG,false,1,keypress(m),500,404084.2000000477,404083.90000009537,400377.995,400386.3000000715,400389.03,404109.546,8,400,50,,ISIC_7869255.JPG
break,html.Screen,4_49_1,2023-11-02T21:01:51.096Z,,0,,,10000.30600000004,timeout,,,,,false,,,,414094.40000009537,414093.192,404093.138,404084.40000009537,404109.546,414109.852,8,400,,,
break_continue,html.Screen,4_49_2,2023-11-02T21:01:54.177Z,,0,,,3050.2480000238284,response,,,,,false,continue,keypress(Space),,417174.8000000715,417160.10000002384,414093.192,414094.5,414109.852,417179.457,8,400,,,
sequence,flow.Sequence,4_49,2023-11-02T21:01:54.177Z,,0,,,16771.070000023814,completion,,,,,false,,,,417175.10000002384,417160.10000002384,400377.995,400386.2000000477,400389.03,417179.457,8,400,,,
trial,html.Screen,4_50_0,2023-11-02T21:02:02.020Z,,0,2,,7837.843000071531,response,ISIC_0014221.JPG,5,ISIC_0060158.JPG,ISIC_0060158.JPG,false,0,keypress(z),500,425017.5,425017.3000000715,417167.11,417175.2000000477,417179.457,425022.301,8,400,1,,ISIC_0014221.JPG
break,html.Screen,4_50_1,2023-11-02T21:02:02.021Z,,0,,,NaN,,,,,,false,,,,425018.60000002384,425018.3000000715,,425017.7000000477,,425022.301,8,400,,,
break_continue,html.Screen,4_50_2,2023-11-02T21:02:02.022Z,,0,,,NaN,,,,,,false,,,,425019.7000000477,425019,,425018.7000000477,,425022.301,8,400,,,
sequence,flow.Sequence,4_50,2023-11-02T21:02:02.022Z,,0,,,7839.543000000005,completion,,,,,false,,,,425019.8000000715,425019,417167.11,417175.2000000477,417179.457,425022.301,8,400,,,
trial,html.Screen,4_51_0,2023-11-02T21:02:05.464Z,,0,2,,3439.1990000000224,response,ISIC_9228573.JPG,5,ISIC_0067167.JPG,ISIC_0067167.JPG,false,0,keypress(z),500,428461.7000000477,428461.5,425014.774,425020,425022.301,428466.398,8,400,2,,ISIC_9228573.JPG
break,html.Screen,4_51_1,2023-11-02T21:02:05.465Z,,0,,,NaN,,,,,,false,,,,428462.8000000715,428462.5,,428461.90000009537,,428466.398,8,400,,,
break_continue,html.Screen,4_51_2,2023-11-02T21:02:05.465Z,,0,,,NaN,,,,,,false,,,,428463.3000000715,428463.10000002384,,428463,,428466.398,8,400,,,
sequence,flow.Sequence,4_51,2023-11-02T21:02:05.465Z,,0,,,3440.799000023864,completion,,,,,false,,,,428463.40000009537,428463.10000002384,425014.774,425019.90000009537,425022.301,428466.398,8,400,,,
trial,html.Screen,4_52_0,2023-11-02T21:02:09.723Z,,0,2,,4254.902000071539,response,ISIC_0033564.JPG,5,ISIC_0025267.JPG,ISIC_0025267.JPG,false,0,keypress(z),500,432721.5,432721.3000000715,428447.459,428463.60000002384,428466.398,432726.191,8,400,3,,ISIC_0033564.JPG
break,html.Screen,4_52_1,2023-11-02T21:02:09.724Z,,0,,,NaN,,,,,,false,,,,432722.5,432722.3000000715,,432721.8000000715,,432726.191,8,400,,,
break_continue,html.Screen,4_52_2,2023-11-02T21:02:09.725Z,,0,,,NaN,,,,,,false,,,,432723,432722.90000009537,,432722.8000000715,,432726.191,8,400,,,
sequence,flow.Sequence,4_52,2023-11-02T21:02:09.725Z,,0,,,4256.502000095381,completion,,,,,false,,,,432723.2000000477,432722.90000009537,428447.459,428463.5,428466.398,432726.191,8,400,,,
trial,html.Screen,4_53_0,2023-11-02T21:02:14.687Z,,0,2,,4958.609000071534,response,ISIC_4363603.JPG,5,ISIC_0010227.JPG,ISIC_0010227.JPG,false,0,keypress(z),500,437685,437684.8000000715,432717.839,432723.3000000715,432726.191,437689.714,8,400,4,,ISIC_4363603.JPG
break,html.Screen,4_53_1,2023-11-02T21:02:14.688Z,,0,,,NaN,,,,,,false,,,,437686.10000002384,437685.8000000715,,437685.2000000477,,437689.714,8,400,,,
break_continue,html.Screen,4_53_2,2023-11-02T21:02:14.689Z,,0,,,NaN,,,,,,false,,,,437687.2000000477,437687,,437686.2000000477,,437689.714,8,400,,,
sequence,flow.Sequence,4_53,2023-11-02T21:02:14.689Z,,0,,,4960.809000000008,completion,,,,,false,,,,437687.3000000715,437687,432717.839,432723.2000000477,432726.191,437689.714,8,400,,,
trial,html.Screen,4_54_0,2023-11-02T21:02:18.227Z,,0,2,,3534.9860000477056,response,ISIC_1714941.JPG,5,ISIC_0032192.JPG,ISIC_0032192.JPG,false,0,keypress(z),500,441225,441224.7000000477,437681.877,437687.5,437689.714,441229.745,8,400,5,,ISIC_1714941.JPG
break,html.Screen,4_54_1,2023-11-02T21:02:18.228Z,,0,,,NaN,,,,,,false,,,,441226,441225.8000000715,,441225.2000000477,,441229.745,8,400,,,
break_continue,html.Screen,4_54_2,2023-11-02T21:02:18.228Z,,0,,,NaN,,,,,,false,,,,441226.60000002384,441226.40000009537,,441226.3000000715,,441229.745,8,400,,,
sequence,flow.Sequence,4_54,2023-11-02T21:02:18.229Z,,0,,,3536.6860000953893,completion,,,,,false,,,,441226.7000000477,441226.40000009537,437681.877,437687.40000009537,437689.714,441229.745,8,400,,,
trial,html.Screen,4_55_0,2023-11-02T21:02:20.871Z,,0,2,,2639.4550000476884,response,ISIC_0010242.JPG,5,ISIC_3292151.JPG,ISIC_0010242.JPG,false,1,keypress(m),500,443869.40000009537,443869.2000000477,441220.706,441226.8000000715,441229.745,443874.111,8,400,6,,ISIC_3292151.JPG
break,html.Screen,4_55_1,2023-11-02T21:02:20.872Z,,0,,,NaN,,,,,,false,,,,443870.5,443870.2000000477,,443869.60000002384,,443874.111,8,400,,,
break_continue,html.Screen,4_55_2,2023-11-02T21:02:20.873Z,,0,,,NaN,,,,,,false,,,,443870.90000009537,443870.8000000715,,443870.60000002384,,443874.111,8,400,,,
sequence,flow.Sequence,4_55,2023-11-02T21:02:20.873Z,,0,,,2641.0550000715302,completion,,,,,false,,,,443871.10000002384,443870.8000000715,441220.706,441226.8000000715,441229.745,443874.111,8,400,,,
trial,html.Screen,4_56_0,2023-11-02T21:02:24.539Z,,0,2,,3662.789000095392,response,ISIC_0010822.JPG,5,ISIC_2136533.JPG,ISIC_2136533.JPG,false,0,keypress(z),500,447537.2000000477,447536.90000009537,443858.639,443871.2000000477,443874.111,447540.831,8,400,7,,ISIC_0010822.JPG
break,html.Screen,4_56_1,2023-11-02T21:02:24.540Z,,0,,,NaN,,,,,,false,,,,447538.10000002384,447537.90000009537,,447537.40000009537,,447540.831,8,400,,,
break_continue,html.Screen,4_56_2,2023-11-02T21:02:24.540Z,,0,,,NaN,,,,,,false,,,,447538.5,447538.3000000715,,447538.2000000477,,447540.831,8,400,,,
sequence,flow.Sequence,4_56,2023-11-02T21:02:24.541Z,,0,,,3664.1890000715503,completion,,,,,false,,,,447538.60000002384,447538.3000000715,443858.639,443871.2000000477,443874.111,447540.831,8,400,,,
trial,html.Screen,4_57_0,2023-11-02T21:02:28.097Z,,0,2,,3553.46900007152,response,ISIC_0027110.JPG,5,ISIC_0030106.JPG,ISIC_0030106.JPG,false,0,keypress(z),500,451094.60000002384,451094.3000000715,447528.814,447538.8000000715,447540.831,451099.177,8,400,8,,ISIC_0027110.JPG
break,html.Screen,4_57_1,2023-11-02T21:02:28.097Z,,0,,,NaN,,,,,,false,,,,451095.40000009537,451095.2000000477,,451094.7000000477,,451099.177,8,400,,,
break_continue,html.Screen,4_57_2,2023-11-02T21:02:28.098Z,,0,,,NaN,,,,,,false,,,,451095.7000000477,451095.7000000477,,451095.5,,451099.177,8,400,,,
sequence,flow.Sequence,4_57,2023-11-02T21:02:28.098Z,,0,,,3554.869000047678,completion,,,,,false,,,,451095.90000009537,451095.7000000477,447528.814,447538.8000000715,447540.831,451099.177,8,400,,,
trial,html.Screen,4_58_0,2023-11-02T21:02:30.803Z,,0,2,,2701.9230000238167,response,ISIC_0010162.JPG,5,ISIC_0031807.JPG,ISIC_0010162.JPG,false,1,keypress(m),500,453801.40000009537,453801.10000002384,451082.485,451096.10000002384,451099.177,453825.75,8,400,9,,ISIC_0031807.JPG
break,html.Screen,4_58_1,2023-11-02T21:02:30.804Z,,0,,,NaN,,,,,,false,,,,453802.3000000715,453802,,453801.60000002384,,453825.75,8,400,,,
break_continue,html.Screen,4_58_2,2023-11-02T21:02:30.805Z,,0,,,NaN,,,,,,false,,,,453802.7000000477,453802.5,,453802.40000009537,,453825.75,8,400,,,
sequence,flow.Sequence,4_58,2023-11-02T21:02:30.805Z,,0,,,2703.322999999975,completion,,,,,false,,,,453802.8000000715,453802.5,451082.485,451096,451099.177,453825.75,8,400,,,
trial,html.Screen,4_59_0,2023-11-02T21:02:33.959Z,,0,2,,3131.4500000476837,response,ISIC_9475559.JPG,6,ISIC_0032684.JPG,ISIC_0032684.JPG,false,0,keypress(z),500,456957.40000009537,456957.2000000477,453809.133,453802.90000009537,453825.75,456962.102,8,400,10,,ISIC_9475559.JPG
break,html.Screen,4_59_1,2023-11-02T21:02:33.960Z,,0,,,NaN,,,,,,false,,,,456958.40000009537,456958.2000000477,,456957.60000002384,,456962.102,8,400,,,
break_continue,html.Screen,4_59_2,2023-11-02T21:02:33.961Z,,0,,,NaN,,,,,,false,,,,456958.90000009537,456958.8000000715,,456958.60000002384,,456962.102,8,400,,,
sequence,flow.Sequence,4_59,2023-11-02T21:02:33.961Z,,0,,,3133.0500000715256,completion,,,,,false,,,,456959.2000000477,456958.8000000715,453809.133,453802.90000009537,453825.75,456962.102,8,400,,,
trial,html.Screen,4_60_0,2023-11-02T21:02:38.044Z,,0,2,,4079.9980000238284,response,ISIC_0025428.JPG,5,ISIC_0175530.JPG,ISIC_0175530.JPG,false,0,keypress(z),500,461042.40000009537,461042.10000002384,456957.581,456959.3000000715,456962.102,461066.813,8,400,11,,ISIC_0025428.JPG
break,html.Screen,4_60_1,2023-11-02T21:02:38.045Z,,0,,,NaN,,,,,,false,,,,461043.3000000715,461043.10000002384,,461042.5,,461066.813,8,400,,,
break_continue,html.Screen,4_60_2,2023-11-02T21:02:38.045Z,,0,,,NaN,,,,,,false,,,,461043.60000002384,461043.5,,461043.40000009537,,461066.813,8,400,,,
sequence,flow.Sequence,4_60,2023-11-02T21:02:38.046Z,,0,,,4081.3979999999865,completion,,,,,false,,,,461043.7000000477,461043.5,456957.581,456959.3000000715,456962.102,461066.813,8,400,,,
trial,html.Screen,4_61_0,2023-11-02T21:02:41.583Z,,0,2,,3513.88700004766,response,ISIC_0034052.JPG,5,ISIC_0148751.JPG,ISIC_0034052.JPG,false,1,keypress(m),500,464581,464580.7000000477,461049.846,461043.8000000715,461066.813,464588.069,8,400,12,,ISIC_0148751.JPG
break,html.Screen,4_61_1,2023-11-02T21:02:41.584Z,,0,,,NaN,,,,,,false,,,,464581.90000009537,464581.7000000477,,464581.10000002384,,464588.069,8,400,,,
break_continue,html.Screen,4_61_2,2023-11-02T21:02:41.584Z,,0,,,NaN,,,,,,false,,,,464582.40000009537,464582.2000000477,,464582,,464588.069,8,400,,,
sequence,flow.Sequence,4_61,2023-11-02T21:02:41.585Z,,0,,,3515.38700004766,completion,,,,,false,,,,464582.60000002384,464582.2000000477,461049.846,461043.8000000715,461066.813,464588.069,8,400,,,
trial,html.Screen,4_62_0,2023-11-02T21:02:44.515Z,,0,2,,2924.531000023824,response,ISIC_0024781.JPG,5,ISIC_0065622.JPG,ISIC_0065622.JPG,false,0,keypress(z),500,467512.90000009537,467512.60000002384,464580.974,464582.7000000477,464588.069,467517.033,8,400,13,,ISIC_0024781.JPG
break,html.Screen,4_62_1,2023-11-02T21:02:44.517Z,,0,,,NaN,,,,,,false,,,,467514.60000002384,467514.3000000715,,467513,,467517.033,8,400,,,
break_continue,html.Screen,4_62_2,2023-11-02T21:02:44.517Z,,0,,,NaN,,,,,,false,,,,467515.2000000477,467515.10000002384,,467514.90000009537,,467517.033,8,400,,,
sequence,flow.Sequence,4_62,2023-11-02T21:02:44.517Z,,0,,,2927.031000023824,completion,,,,,false,,,,467515.3000000715,467515.10000002384,464580.974,464582.7000000477,464588.069,467517.033,8,400,,,
trial,html.Screen,4_63_0,2023-11-02T21:02:47.800Z,,0,2,,3280.567000023846,response,ISIC_1292607.JPG,5,ISIC_6707990.JPG,ISIC_1292607.JPG,false,1,keypress(m),500,470798,470797.60000002384,467513.506,467515.5,467517.033,470802.626,8,400,14,,ISIC_6707990.JPG
break,html.Screen,4_63_1,2023-11-02T21:02:47.801Z,,0,,,NaN,,,,,,false,,,,470799.40000009537,470799.10000002384,,470798.2000000477,,470802.626,8,400,,,
break_continue,html.Screen,4_63_2,2023-11-02T21:02:47.802Z,,0,,,NaN,,,,,,false,,,,470799.8000000715,470799.7000000477,,470799.60000002384,,470802.626,8,400,,,
sequence,flow.Sequence,4_63,2023-11-02T21:02:47.802Z,,0,,,3282.667000047688,completion,,,,,false,,,,470800.10000002384,470799.7000000477,467513.506,467515.5,467517.033,470802.626,8,400,,,
trial,html.Screen,4_64_0,2023-11-02T21:02:50.988Z,,0,2,,3183.1740000715363,response,ISIC_4589609.JPG,6,ISIC_0061077.JPG,ISIC_0061077.JPG,false,0,keypress(z),500,473986,473985.8000000715,470794.838,470800.2000000477,470802.626,473990.441,8,400,15,,ISIC_4589609.JPG
break,html.Screen,4_64_1,2023-11-02T21:02:50.989Z,,0,,,NaN,,,,,,false,,,,473986.90000009537,473986.7000000477,,473986.2000000477,,473990.441,8,400,,,
break_continue,html.Screen,4_64_2,2023-11-02T21:02:50.989Z,,0,,,NaN,,,,,,false,,,,473987.3000000715,473987.2000000477,,473987.10000002384,,473990.441,8,400,,,
sequence,flow.Sequence,4_64,2023-11-02T21:02:50.989Z,,0,,,3184.5740000476944,completion,,,,,false,,,,473987.5,473987.2000000477,470794.838,470800.2000000477,470802.626,473990.441,8,400,,,
trial,html.Screen,4_65_0,2023-11-02T21:02:54.783Z,,0,2,,3790.259000047692,response,ISIC_4960406.JPG,5,ISIC_0033653.JPG,ISIC_0033653.JPG,false,0,keypress(z),500,477781,477780.7000000477,473980.325,473987.5,473990.441,477785.524,8,400,16,,ISIC_4960406.JPG
break,html.Screen,4_65_1,2023-11-02T21:02:54.784Z,,0,,,NaN,,,,,,false,,,,477781.8000000715,477781.60000002384,,477781.10000002384,,477785.524,8,400,,,
break_continue,html.Screen,4_65_2,2023-11-02T21:02:54.784Z,,0,,,NaN,,,,,,false,,,,477782.3000000715,477782.2000000477,,477782,,477785.524,8,400,,,
sequence,flow.Sequence,4_65,2023-11-02T21:02:54.784Z,,0,,,3791.759000047692,completion,,,,,false,,,,477782.40000009537,477782.2000000477,473980.325,473987.5,473990.441,477785.524,8,400,,,
trial,html.Screen,4_66_0,2023-11-02T21:03:00.259Z,,0,2,,5471.176000047708,response,ISIC_0016127.JPG,5,ISIC_0034120.JPG,ISIC_0016127.JPG,false,1,keypress(m),500,483256.90000009537,483256.7000000477,477775,477782.5,477785.524,483261.235,8,400,17,,ISIC_0034120.JPG
break,html.Screen,4_66_1,2023-11-02T21:03:00.260Z,,0,,,NaN,,,,,,false,,,,483257.90000009537,483257.60000002384,,483257.2000000477,,483261.235,8,400,,,
break_continue,html.Screen,4_66_2,2023-11-02T21:03:00.260Z,,0,,,NaN,,,,,,false,,,,483258.3000000715,483258.10000002384,,483258.10000002384,,483261.235,8,400,,,
sequence,flow.Sequence,4_66,2023-11-02T21:03:00.260Z,,0,,,5472.576000023866,completion,,,,,false,,,,483258.3000000715,483258.10000002384,477775,477782.5,477785.524,483261.235,8,400,,,
trial,html.Screen,4_67_0,2023-11-02T21:03:03.542Z,,0,2,,3278.865000023856,response,ISIC_8065633.JPG,6,ISIC_0024702.JPG,ISIC_0024702.JPG,false,0,keypress(z),500,486540.3000000715,486540.10000002384,483250.102,483258.5,483261.235,486545.166,8,400,18,,ISIC_8065633.JPG
break,html.Screen,4_67_1,2023-11-02T21:03:03.544Z,,0,,,NaN,,,,,,false,,,,486541.90000009537,486541.40000009537,,486540.5,,486545.166,8,400,,,
break_continue,html.Screen,4_67_2,2023-11-02T21:03:03.545Z,,0,,,NaN,,,,,,false,,,,486542.60000002384,486542.40000009537,,486542.2000000477,,486545.166,8,400,,,
sequence,flow.Sequence,4_67,2023-11-02T21:03:03.545Z,,0,,,3281.1650000953814,completion,,,,,false,,,,486542.8000000715,486542.40000009537,483250.102,483258.5,483261.235,486545.166,8,400,,,
trial,html.Screen,4_68_0,2023-11-02T21:03:06.747Z,,0,2,,3199.734000095341,response,ISIC_2508901.JPG,4,ISIC_0062114.JPG,ISIC_0062114.JPG,false,0,keypress(z),500,489745.10000002384,489744.90000009537,486540.161,486543,486545.166,489749.875,8,400,19,,ISIC_2508901.JPG
break,html.Screen,4_68_1,2023-11-02T21:03:06.748Z,,0,,,NaN,,,,,,false,,,,489746.2000000477,489745.90000009537,,489745.40000009537,,489749.875,8,400,,,
break_continue,html.Screen,4_68_2,2023-11-02T21:03:06.749Z,,0,,,NaN,,,,,,false,,,,489746.60000002384,489746.60000002384,,489746.40000009537,,489749.875,8,400,,,
sequence,flow.Sequence,4_68,2023-11-02T21:03:06.749Z,,0,,,3201.4340000238153,completion,,,,,false,,,,489746.90000009537,489746.60000002384,486540.161,486543,486545.166,489749.875,8,400,,,
trial,html.Screen,4_69_0,2023-11-02T21:03:11.199Z,,0,2,,4446.925000071526,response,ISIC_7623407.JPG,5,ISIC_9779803.JPG,ISIC_7623407.JPG,false,1,keypress(m),500,494197.10000002384,494196.8000000715,489740.278,489747,489749.875,494201.54,8,400,20,,ISIC_9779803.JPG
break,html.Screen,4_69_1,2023-11-02T21:03:11.200Z,,0,,,NaN,,,,,,false,,,,494198,494197.7000000477,,494197.2000000477,,494201.54,8,400,,,
break_continue,html.Screen,4_69_2,2023-11-02T21:03:11.200Z,,0,,,NaN,,,,,,false,,,,494198.3000000715,494198.2000000477,,494198.10000002384,,494201.54,8,400,,,
sequence,flow.Sequence,4_69,2023-11-02T21:03:11.200Z,,0,,,4448.325000047684,completion,,,,,false,,,,494198.5,494198.2000000477,489740.278,489746.90000009537,489749.875,494201.54,8,400,,,
trial,html.Screen,4_70_0,2023-11-02T21:03:14.466Z,,0,2,,3262.3600000953884,response,ISIC_2999018.JPG,5,ISIC_6533176.JPG,ISIC_2999018.JPG,false,1,keypress(m),500,497464.2000000477,497463.90000009537,494187.916,494198.60000002384,494201.54,497470.051,8,400,21,,ISIC_6533176.JPG
break,html.Screen,4_70_1,2023-11-02T21:03:14.467Z,,0,,,NaN,,,,,,false,,,,497465.2000000477,497465,,497464.40000009537,,497470.051,8,400,,,
break_continue,html.Screen,4_70_2,2023-11-02T21:03:14.468Z,,0,,,NaN,,,,,,false,,,,497465.8000000715,497465.60000002384,,497465.40000009537,,497470.051,8,400,,,
sequence,flow.Sequence,4_70,2023-11-02T21:03:14.468Z,,0,,,3264.060000023863,completion,,,,,false,,,,497466,497465.60000002384,494187.916,494198.60000002384,494201.54,497470.051,8,400,,,
trial,html.Screen,4_71_0,2023-11-02T21:03:19.238Z,,0,2,,4765.649000047706,response,ISIC_8945395.JPG,5,ISIC_0028520.JPG,ISIC_8945395.JPG,false,1,keypress(m),500,502235.90000009537,502235.7000000477,497454.367,497466.2000000477,497470.051,502240.37,8,400,22,,ISIC_0028520.JPG
break,html.Screen,4_71_1,2023-11-02T21:03:19.239Z,,0,,,NaN,,,,,,false,,,,502236.8000000715,502236.60000002384,,502236.10000002384,,502240.37,8,400,,,
break_continue,html.Screen,4_71_2,2023-11-02T21:03:19.239Z,,0,,,NaN,,,,,,false,,,,502237.3000000715,502237.10000002384,,502236.90000009537,,502240.37,8,400,,,
sequence,flow.Sequence,4_71,2023-11-02T21:03:19.240Z,,0,,,4767.049000023864,completion,,,,,false,,,,502237.7000000477,502237.10000002384,497454.367,497466.2000000477,497470.051,502240.37,8,400,,,
trial,html.Screen,4_72_0,2023-11-02T21:03:24.394Z,,0,2,,5151.030000095372,response,ISIC_2930792.JPG,5,ISIC_0058950.JPG,ISIC_2930792.JPG,false,1,keypress(m),500,507391.7000000477,507391.40000009537,502220.878,502237.8000000715,502240.37,507416.086,8,400,23,,ISIC_0058950.JPG
break,html.Screen,4_72_1,2023-11-02T21:03:24.394Z,,0,,,NaN,,,,,,false,,,,507392.40000009537,507392.3000000715,,507391.90000009537,,507416.086,8,400,,,
break_continue,html.Screen,4_72_2,2023-11-02T21:03:24.395Z,,0,,,NaN,,,,,,false,,,,507392.7000000477,507392.7000000477,,507392.5,,507416.086,8,400,,,
sequence,flow.Sequence,4_72,2023-11-02T21:03:24.395Z,,0,,,5152.330000047688,completion,,,,,false,,,,507392.90000009537,507392.7000000477,502220.878,502237.8000000715,502240.37,507416.086,8,400,,,
trial,html.Screen,4_73_0,2023-11-02T21:03:27.886Z,,0,2,,3467.314000095357,response,ISIC_0061152.JPG,4,ISIC_0063445.JPG,ISIC_0061152.JPG,false,1,keypress(m),500,510883.60000002384,510883.40000009537,507399.661,507393,507416.086,510888.284,8,400,24,,ISIC_0063445.JPG
break,html.Screen,4_73_1,2023-11-02T21:03:27.887Z,,0,,,NaN,,,,,,false,,,,510884.7000000477,510884.40000009537,,510883.8000000715,,510888.284,8,400,,,
break_continue,html.Screen,4_73_2,2023-11-02T21:03:27.887Z,,0,,,NaN,,,,,,false,,,,510885.2000000477,510885,,510884.8000000715,,510888.284,8,400,,,
sequence,flow.Sequence,4_73,2023-11-02T21:03:27.887Z,,0,,,3468.9139999999898,completion,,,,,false,,,,510885.3000000715,510885,507399.661,507393,507416.086,510888.284,8,400,,,
trial,html.Screen,4_74_0,2023-11-02T21:03:30.722Z,,0,2,,2831.3160000238568,response,ISIC_7670817.JPG,5,ISIC_0031127.JPG,ISIC_0031127.JPG,false,0,keypress(z),500,513719.90000009537,513719.60000002384,510880.97,510885.5,510888.284,513724.486,8,400,25,,ISIC_7670817.JPG
break,html.Screen,4_74_1,2023-11-02T21:03:30.723Z,,0,,,NaN,,,,,,false,,,,513720.90000009537,513720.60000002384,,513720.10000002384,,513724.486,8,400,,,
break_continue,html.Screen,4_74_2,2023-11-02T21:03:30.723Z,,0,,,NaN,,,,,,false,,,,513721.40000009537,513721.3000000715,,513721,,513724.486,8,400,,,
sequence,flow.Sequence,4_74,2023-11-02T21:03:30.723Z,,0,,,2833.0160000715405,completion,,,,,false,,,,513721.5,513721.3000000715,510880.97,510885.40000009537,510888.284,513724.486,8,400,,,
trial,html.Screen,4_75_0,2023-11-02T21:03:33.990Z,,0,2,,3263.3140000715503,response,ISIC_7080584.JPG,5,ISIC_9714746.JPG,ISIC_9714746.JPG,false,0,keypress(z),500,516988.10000002384,516987.8000000715,513719.419,513721.60000002384,513724.486,516992.715,8,400,26,,ISIC_7080584.JPG
break,html.Screen,4_75_1,2023-11-02T21:03:33.991Z,,0,,,NaN,,,,,,false,,,,516989.3000000715,516989,,516988.40000009537,,516992.715,8,400,,,
break_continue,html.Screen,4_75_2,2023-11-02T21:03:33.992Z,,0,,,NaN,,,,,,false,,,,516989.60000002384,516989.5,,516989.3000000715,,516992.715,8,400,,,
sequence,flow.Sequence,4_75,2023-11-02T21:03:33.992Z,,0,,,3265.0140000000247,completion,,,,,false,,,,516989.8000000715,516989.5,513719.419,513721.60000002384,513724.486,516992.715,8,400,,,
trial,html.Screen,4_76_0,2023-11-02T21:03:36.873Z,,0,2,,2878.2849999999744,response,ISIC_0004509.JPG,6,ISIC_0000164.JPG,ISIC_0000164.JPG,false,0,keypress(z),500,519871.3000000715,519871,516985.151,516989.90000009537,516992.715,519875.878,8,400,27,,ISIC_0004509.JPG
break,html.Screen,4_76_1,2023-11-02T21:03:36.874Z,,0,,,NaN,,,,,,false,,,,519872.2000000477,519872,,519871.40000009537,,519875.878,8,400,,,
break_continue,html.Screen,4_76_2,2023-11-02T21:03:36.875Z,,0,,,NaN,,,,,,false,,,,519872.7000000477,519872.5,,519872.40000009537,,519875.878,8,400,,,
sequence,flow.Sequence,4_76,2023-11-02T21:03:36.875Z,,0,,,2879.7849999999744,completion,,,,,false,,,,519872.8000000715,519872.5,516985.151,516989.90000009537,516992.715,519875.878,8,400,,,
trial,html.Screen,4_77_0,2023-11-02T21:03:40.237Z,,0,2,,3359.4220000714995,response,ISIC_0000384.JPG,5,ISIC_2874218.JPG,ISIC_0000384.JPG,false,1,keypress(m),500,523235.60000002384,523235.3000000715,519866.089,519872.90000009537,519875.878,523239.725,8,400,28,,ISIC_2874218.JPG
break,html.Screen,4_77_1,2023-11-02T21:03:40.239Z,,0,,,NaN,,,,,,false,,,,523237.10000002384,523236.40000009537,,523235.8000000715,,523239.725,8,400,,,
break_continue,html.Screen,4_77_2,2023-11-02T21:03:40.240Z,,0,,,NaN,,,,,,false,,,,523237.60000002384,523237.5,,523237.3000000715,,523239.725,8,400,,,
sequence,flow.Sequence,4_77,2023-11-02T21:03:40.240Z,,0,,,3361.621999999974,completion,,,,,false,,,,523237.90000009537,523237.5,519866.089,519872.90000009537,519875.878,523239.725,8,400,,,
trial,html.Screen,4_78_0,2023-11-02T21:03:44.547Z,,0,2,,4304.675000095391,response,ISIC_0059082.JPG,5,ISIC_0026348.JPG,ISIC_0059082.JPG,false,1,keypress(m),500,527544.8000000715,527544.4000000954,523226.18,523238,523239.725,527549.499,8,400,29,,ISIC_0026348.JPG
break,html.Screen,4_78_1,2023-11-02T21:03:44.548Z,,0,,,NaN,,,,,,false,,,,527546.1000000238,527545.8000000715,,527545.2000000477,,527549.499,8,400,,,
break_continue,html.Screen,4_78_2,2023-11-02T21:03:44.549Z,,0,,,NaN,,,,,,false,,,,527547.2000000477,527547,,527546.8000000715,,527549.499,8,400,,,
sequence,flow.Sequence,4_78,2023-11-02T21:03:44.549Z,,0,,,4307.275000000023,completion,,,,,false,,,,527547.4000000954,527547,523226.18,523238,523239.725,527549.499,8,400,,,
trial,html.Screen,4_79_0,2023-11-02T21:03:47.864Z,,0,2,,3312.0010000000475,response,ISIC_4524488.JPG,6,ISIC_0010527.JPG,ISIC_0010527.JPG,false,0,keypress(z),500,530861.7000000477,530861.5,527543.742,527547.4000000954,527549.499,530866.215,8,400,30,,ISIC_4524488.JPG
break,html.Screen,4_79_1,2023-11-02T21:03:47.864Z,,0,,,NaN,,,,,,false,,,,530862.5,530862.3000000715,,530861.9000000954,,530866.215,8,400,,,
break_continue,html.Screen,4_79_2,2023-11-02T21:03:47.865Z,,0,,,NaN,,,,,,false,,,,530862.9000000954,530862.9000000954,,530862.6000000238,,530866.215,8,400,,,
sequence,flow.Sequence,4_79,2023-11-02T21:03:47.865Z,,0,,,3313.401000095415,completion,,,,,false,,,,530863.1000000238,530862.9000000954,527543.742,527547.4000000954,527549.499,530866.215,8,400,,,
trial,html.Screen,4_80_0,2023-11-02T21:03:50.635Z,,0,2,,2766.585000071558,response,ISIC_0014722.JPG,5,ISIC_0025791.JPG,ISIC_0014722.JPG,false,1,keypress(m),500,533633.2000000477,533632.8000000715,530855.226,530863.3000000715,530866.215,533637.923,8,400,31,,ISIC_0025791.JPG
break,html.Screen,4_80_1,2023-11-02T21:03:50.636Z,,0,,,NaN,,,,,,false,,,,533634.3000000715,533634,,533633.4000000954,,533637.923,8,400,,,
break_continue,html.Screen,4_80_2,2023-11-02T21:03:50.637Z,,0,,,NaN,,,,,,false,,,,533635.2000000477,533635,,533634.6000000238,,533637.923,8,400,,,
sequence,flow.Sequence,4_80,2023-11-02T21:03:50.637Z,,0,,,2768.7850000000326,completion,,,,,false,,,,533635.4000000954,533635,530855.226,530863.2000000477,530866.215,533637.923,8,400,,,
trial,html.Screen,4_81_0,2023-11-02T21:03:53.903Z,,0,2,,3263.277000047732,response,ISIC_0031589.JPG,6,ISIC_7783346.JPG,ISIC_0031589.JPG,false,1,keypress(m),500,536901.4000000954,536901.2000000477,533626.809,533635.6000000238,533637.923,536906.086,8,400,32,,ISIC_7783346.JPG
break,html.Screen,4_81_1,2023-11-02T21:03:53.904Z,,0,,,NaN,,,,,,false,,,,536902.4000000954,536902.2000000477,,536901.6000000238,,536906.086,8,400,,,
break_continue,html.Screen,4_81_2,2023-11-02T21:03:53.905Z,,0,,,NaN,,,,,,false,,,,536902.9000000954,536902.7000000477,,536902.6000000238,,536906.086,8,400,,,
sequence,flow.Sequence,4_81,2023-11-02T21:03:53.905Z,,0,,,3264.777000047732,completion,,,,,false,,,,536903,536902.7000000477,533626.809,533635.5,533637.923,536906.086,8,400,,,
trial,html.Screen,4_82_0,2023-11-02T21:03:56.787Z,,0,2,,2878.6140000476735,response,ISIC_0029189.JPG,6,ISIC_0064656.JPG,ISIC_0029189.JPG,false,1,keypress(m),500,539784.9000000954,539784.7000000477,536891.568,536903.1000000238,536906.086,539789.627,8,400,33,,ISIC_0064656.JPG
break,html.Screen,4_82_1,2023-11-02T21:03:56.788Z,,0,,,NaN,,,,,,false,,,,539786,539785.7000000477,,539785.1000000238,,539789.627,8,400,,,
break_continue,html.Screen,4_82_2,2023-11-02T21:03:56.788Z,,0,,,NaN,,,,,,false,,,,539786.6000000238,539786.4000000954,,539786.2000000477,,539789.627,8,400,,,
sequence,flow.Sequence,4_82,2023-11-02T21:03:56.789Z,,0,,,2880.314000095357,completion,,,,,false,,,,539786.7000000477,539786.4000000954,536891.568,536903.1000000238,536906.086,539789.627,8,400,,,
trial,html.Screen,4_83_0,2023-11-02T21:03:59.702Z,,0,2,,2910.573000047705,response,ISIC_8860929.JPG,5,ISIC_0000551.JPG,ISIC_0000551.JPG,false,0,keypress(z),500,542700.4000000954,542700.2000000477,539774.285,539786.8000000715,539789.627,542705.136,8,400,34,,ISIC_8860929.JPG
break,html.Screen,4_83_1,2023-11-02T21:03:59.703Z,,0,,,NaN,,,,,,false,,,,542701.5,542701.3000000715,,542700.6000000238,,542705.136,8,400,,,
break_continue,html.Screen,4_83_2,2023-11-02T21:03:59.704Z,,0,,,NaN,,,,,,false,,,,542702.1000000238,542701.9000000954,,542701.8000000715,,542705.136,8,400,,,
sequence,flow.Sequence,4_83,2023-11-02T21:03:59.704Z,,0,,,2912.273000095389,completion,,,,,false,,,,542702.3000000715,542701.9000000954,539774.285,539786.8000000715,539789.627,542705.136,8,400,,,
trial,html.Screen,4_84_0,2023-11-02T21:04:02.331Z,,0,2,,2623.863999999943,response,ISIC_0032001.JPG,5,ISIC_6967143.JPG,ISIC_0032001.JPG,false,1,keypress(m),500,545329.3000000715,545329,542698.533,542702.4000000954,542705.136,545333.529,8,400,35,,ISIC_6967143.JPG
break,html.Screen,4_84_1,2023-11-02T21:04:02.332Z,,0,,,NaN,,,,,,false,,,,545330.4000000954,545330.1000000238,,545329.4000000954,,545333.529,8,400,,,
break_continue,html.Screen,4_84_2,2023-11-02T21:04:02.333Z,,0,,,NaN,,,,,,false,,,,545331.1000000238,545330.9000000954,,545330.7000000477,,545333.529,8,400,,,
sequence,flow.Sequence,4_84,2023-11-02T21:04:02.333Z,,0,,,2625.7640000953106,completion,,,,,false,,,,545331.2000000477,545330.9000000954,542698.533,542702.3000000715,542705.136,545333.529,8,400,,,
trial,html.Screen,4_85_0,2023-11-02T21:04:06.047Z,,0,2,,3710.9710000000196,response,ISIC_0806138.JPG,4,ISIC_0697953.JPG,ISIC_0697953.JPG,false,0,keypress(z),500,549044.7000000477,549044.5,545329.941,545331.4000000954,545333.529,549054.735,8,400,36,,ISIC_0806138.JPG
break,html.Screen,4_85_1,2023-11-02T21:04:06.047Z,,0,,,NaN,,,,,,false,,,,549045.4000000954,549045.3000000715,,549044.8000000715,,549054.735,8,400,,,
break_continue,html.Screen,4_85_2,2023-11-02T21:04:06.048Z,,0,,,NaN,,,,,,false,,,,549045.8000000715,549045.7000000477,,549045.5,,549054.735,8,400,,,
sequence,flow.Sequence,4_85,2023-11-02T21:04:06.048Z,,0,,,3712.1710000477033,completion,,,,,false,,,,549045.9000000954,549045.7000000477,545329.941,545331.3000000715,545333.529,549054.735,8,400,,,
trial,html.Screen,4_86_0,2023-11-02T21:04:09.441Z,,0,2,,3384.5650000715395,response,ISIC_0058186.JPG,6,ISIC_5573566.JPG,ISIC_0058186.JPG,false,1,keypress(m),500,552439.6000000238,552439.3000000715,549037.804,549046.1000000238,549054.735,552443.925,8,400,37,,ISIC_5573566.JPG
break,html.Screen,4_86_1,2023-11-02T21:04:09.442Z,,0,,,NaN,,,,,,false,,,,552440.5,552440.4000000954,,552439.8000000715,,552443.925,8,400,,,
break_continue,html.Screen,4_86_2,2023-11-02T21:04:09.444Z,,0,,,NaN,,,,,,false,,,,552441.8000000715,552441.5,,552441.2000000477,,552443.925,8,400,,,
sequence,flow.Sequence,4_86,2023-11-02T21:04:09.444Z,,0,,,3386.765000000014,completion,,,,,false,,,,552442.1000000238,552441.5,549037.804,549046,549054.735,552443.925,8,400,,,
trial,html.Screen,4_87_0,2023-11-02T21:04:12.374Z,,0,2,,2927.975000095321,response,ISIC_0000450.JPG,5,ISIC_0839675.JPG,ISIC_0000450.JPG,false,1,keypress(m),500,555372.1000000238,555371.9000000954,552432.091,552442.2000000477,552443.925,555383.606,8,400,38,,ISIC_0839675.JPG
break,html.Screen,4_87_1,2023-11-02T21:04:12.375Z,,0,,,NaN,,,,,,false,,,,555373.2000000477,555372.9000000954,,555372.4000000954,,555383.606,8,400,,,
break_continue,html.Screen,4_87_2,2023-11-02T21:04:12.375Z,,0,,,NaN,,,,,,false,,,,555373.7000000477,555373.5,,555373.4000000954,,555383.606,8,400,,,
sequence,flow.Sequence,4_87,2023-11-02T21:04:12.376Z,,0,,,2929.5749999999534,completion,,,,,false,,,,555373.9000000954,555373.5,552432.091,552442.2000000477,552443.925,555383.606,8,400,,,
trial,html.Screen,4_88_0,2023-11-02T21:04:15.770Z,,0,2,,3384.094000047655,response,ISIC_0029998.JPG,5,ISIC_5702591.JPG,ISIC_0029998.JPG,false,1,keypress(m),500,558767.9000000954,558767.7000000477,555367.05,555374.1000000238,555383.606,558772.393,8,400,39,,ISIC_5702591.JPG
break,html.Screen,4_88_1,2023-11-02T21:04:15.771Z,,0,,,NaN,,,,,,false,,,,558768.9000000954,558768.6000000238,,558768,,558772.393,8,400,,,
break_continue,html.Screen,4_88_2,2023-11-02T21:04:15.772Z,,0,,,NaN,,,,,,false,,,,558769.6000000238,558769.1000000238,,558769,,558772.393,8,400,,,
sequence,flow.Sequence,4_88,2023-11-02T21:04:15.772Z,,0,,,3385.494000023813,completion,,,,,false,,,,558769.9000000954,558769.1000000238,555367.05,555374,555383.606,558772.393,8,400,,,
trial,html.Screen,4_89_0,2023-11-02T21:04:19.710Z,,0,2,,3935.5070000953274,response,ISIC_9996128.JPG,6,ISIC_2577938.JPG,ISIC_9996128.JPG,false,1,keypress(m),500,562708.4000000954,562707.9000000954,558759.132,558770,558772.393,562712.849,8,400,40,,ISIC_2577938.JPG
break,html.Screen,4_89_1,2023-11-02T21:04:19.711Z,,0,,,NaN,,,,,,false,,,,562709.4000000954,562709.1000000238,,562708.5,,562712.849,8,400,,,
break_continue,html.Screen,4_89_2,2023-11-02T21:04:19.712Z,,0,,,NaN,,,,,,false,,,,562709.7000000477,562709.6000000238,,562709.5,,562712.849,8,400,,,
sequence,flow.Sequence,4_89,2023-11-02T21:04:19.712Z,,0,,,3937.207000023802,completion,,,,,false,,,,562709.9000000954,562709.6000000238,558759.132,558770,558772.393,562712.849,8,400,,,
trial,html.Screen,4_90_0,2023-11-02T21:04:22.435Z,,0,2,,2719.551000095322,response,ISIC_0034287.JPG,5,ISIC_0029244.JPG,ISIC_0034287.JPG,false,1,keypress(m),500,565432.7000000477,565432.4000000954,562703.147,562710.2000000477,562712.849,565445.446,8,400,41,,ISIC_0029244.JPG
break,html.Screen,4_90_1,2023-11-02T21:04:22.435Z,,0,,,NaN,,,,,,false,,,,565433.6000000238,565433.4000000954,,565432.9000000954,,565445.446,8,400,,,
break_continue,html.Screen,4_90_2,2023-11-02T21:04:22.436Z,,0,,,NaN,,,,,,false,,,,565434,565433.8000000715,,565433.7000000477,,565445.446,8,400,,,
sequence,flow.Sequence,4_90,2023-11-02T21:04:22.436Z,,0,,,2720.95100007148,completion,,,,,false,,,,565434.2000000477,565433.8000000715,562703.147,562710,562712.849,565445.446,8,400,,,
trial,html.Screen,4_91_0,2023-11-02T21:04:26.005Z,,0,2,,3557.8540000715293,response,ISIC_0250064.JPG,5,ISIC_2603420.JPG,ISIC_2603420.JPG,false,0,keypress(z),500,569003.6000000238,569003.3000000715,565428.96,565434.2000000477,565445.446,569008.068,8,400,42,,ISIC_0250064.JPG
break,html.Screen,4_91_1,2023-11-02T21:04:26.006Z,,0,,,NaN,,,,,,false,,,,569004.5,569004.4000000954,,569003.7000000477,,569008.068,8,400,,,
break_continue,html.Screen,4_91_2,2023-11-02T21:04:26.007Z,,0,,,NaN,,,,,,false,,,,569005.1000000238,569004.9000000954,,569004.7000000477,,569008.068,8,400,,,
sequence,flow.Sequence,4_91,2023-11-02T21:04:26.007Z,,0,,,3559.454000095371,completion,,,,,false,,,,569005.2000000477,569004.9000000954,565428.96,565434.2000000477,565445.446,569008.068,8,400,,,
trial,html.Screen,4_92_0,2023-11-02T21:04:28.921Z,,0,2,,2911.2320000715554,response,ISIC_0026921.JPG,4,ISIC_0001108.JPG,ISIC_0001108.JPG,false,0,keypress(z),500,571919.6000000238,571919.3000000715,568991.743,569005.4000000954,569008.068,571924.316,8,400,43,,ISIC_0026921.JPG
break,html.Screen,4_92_1,2023-11-02T21:04:28.922Z,,0,,,NaN,,,,,,false,,,,571920.7000000477,571920.3000000715,,571919.8000000715,,571924.316,8,400,,,
break_continue,html.Screen,4_92_2,2023-11-02T21:04:28.923Z,,0,,,NaN,,,,,,false,,,,571921.2000000477,571921.1000000238,,571920.8000000715,,571924.316,8,400,,,
sequence,flow.Sequence,4_92,2023-11-02T21:04:28.923Z,,0,,,2913.0320000238717,completion,,,,,false,,,,571921.3000000715,571921.1000000238,568991.743,569005.3000000715,569008.068,571924.316,8,400,,,
trial,html.Screen,4_93_0,2023-11-02T21:04:31.678Z,,0,2,,2751.1840000000084,response,ISIC_5017874.JPG,5,ISIC_0064656.JPG,ISIC_5017874.JPG,false,1,keypress(m),500,574675.7000000477,574675.5,571906.327,571921.4000000954,571924.316,574680.556,8,400,44,,ISIC_0064656.JPG
break,html.Screen,4_93_1,2023-11-02T21:04:31.679Z,,0,,,NaN,,,,,,false,,,,574676.8000000715,574676.5,,574675.9000000954,,574680.556,8,400,,,
break_continue,html.Screen,4_93_2,2023-11-02T21:04:31.679Z,,0,,,NaN,,,,,,false,,,,574677.1000000238,574677.1000000238,,574676.8000000715,,574680.556,8,400,,,
sequence,flow.Sequence,4_93,2023-11-02T21:04:31.679Z,,0,,,2752.7840000238502,completion,,,,,false,,,,574677.4000000954,574677.1000000238,571906.327,571921.4000000954,571924.316,574680.556,8,400,,,
trial,html.Screen,4_94_0,2023-11-02T21:04:34.385Z,,0,2,,2702.344000095385,response,ISIC_8096177.JPG,4,ISIC_0066935.JPG,ISIC_0066935.JPG,false,0,keypress(z),500,577383.1000000238,577382.9000000954,574668.791,574677.5,574680.556,577387.746,8,400,45,,ISIC_8096177.JPG
break,html.Screen,4_94_1,2023-11-02T21:04:34.386Z,,0,,,NaN,,,,,,false,,,,577384,577383.8000000715,,577383.3000000715,,577387.746,8,400,,,
break_continue,html.Screen,4_94_2,2023-11-02T21:04:34.386Z,,0,,,NaN,,,,,,false,,,,577384.6000000238,577384.5,,577384.1000000238,,577387.746,8,400,,,
sequence,flow.Sequence,4_94,2023-11-02T21:04:34.387Z,,0,,,2703.9440000000177,completion,,,,,false,,,,577384.8000000715,577384.5,574668.791,574677.5,574680.556,577387.746,8,400,,,
trial,html.Screen,4_95_0,2023-11-02T21:04:38.757Z,,0,2,,4366.753999999957,response,ISIC_0010862.JPG,5,ISIC_6101007.JPG,ISIC_0010862.JPG,false,1,keypress(m),500,581754.8000000715,581754.5,577378.224,577384.9000000954,577387.746,581767.086,8,400,46,,ISIC_6101007.JPG
break,html.Screen,4_95_1,2023-11-02T21:04:38.758Z,,0,,,NaN,,,,,,false,,,,581755.7000000477,581755.5,,581755,,581767.086,8,400,,,
break_continue,html.Screen,4_95_2,2023-11-02T21:04:38.758Z,,0,,,NaN,,,,,,false,,,,581756.5,581756.2000000477,,581756.1000000238,,581767.086,8,400,,,
sequence,flow.Sequence,4_95,2023-11-02T21:04:38.758Z,,0,,,4368.454000047641,completion,,,,,false,,,,581756.6000000238,581756.2000000477,577378.224,577384.9000000954,577387.746,581767.086,8,400,,,
trial,html.Screen,4_96_0,2023-11-02T21:04:43.721Z,,0,2,,4952.1140000476735,response,ISIC_0697953.JPG,6,ISIC_0033756.JPG,ISIC_0033756.JPG,false,0,keypress(z),500,586719.4000000954,586719.2000000477,581750.479,581756.7000000477,581767.086,586724.127,8,400,47,,ISIC_0697953.JPG
break,html.Screen,4_96_1,2023-11-02T21:04:43.722Z,,0,,,NaN,,,,,,false,,,,586720.5,586720.2000000477,,586719.6000000238,,586724.127,8,400,,,
break_continue,html.Screen,4_96_2,2023-11-02T21:04:43.723Z,,0,,,NaN,,,,,,false,,,,586721,586720.9000000954,,586720.7000000477,,586724.127,8,400,,,
sequence,flow.Sequence,4_96,2023-11-02T21:04:43.723Z,,0,,,4953.814000095357,completion,,,,,false,,,,586721.2000000477,586720.9000000954,581750.479,581756.7000000477,581767.086,586724.127,8,400,,,
trial,html.Screen,4_97_0,2023-11-02T21:04:47.181Z,,0,2,,3454.673000071547,response,ISIC_0056930.JPG,4,ISIC_6909624.JPG,ISIC_6909624.JPG,false,0,keypress(z),500,590179.2000000477,590178.8000000715,586708.65,586721.2000000477,586724.127,590183.777,8,400,48,,ISIC_0056930.JPG
break,html.Screen,4_97_1,2023-11-02T21:04:47.182Z,,0,,,NaN,,,,,,false,,,,590180.4000000954,590180,,590179.5,,590183.777,8,400,,,
break_continue,html.Screen,4_97_2,2023-11-02T21:04:47.183Z,,0,,,NaN,,,,,,false,,,,590181.4000000954,590181.2000000477,,590181.1000000238,,590183.777,8,400,,,
sequence,flow.Sequence,4_97,2023-11-02T21:04:47.183Z,,0,,,3457.073000047705,completion,,,,,false,,,,590181.6000000238,590181.2000000477,586708.65,586721.2000000477,586724.127,590183.777,8,400,,,
trial,html.Screen,4_98_0,2023-11-02T21:04:49.857Z,,0,2,,2671.423000047682,response,ISIC_0059082.JPG,5,ISIC_0010372.JPG,ISIC_0059082.JPG,false,1,keypress(m),500,592855.5,592855.2000000477,590168.149,590181.7000000477,590183.777,592860.112,8,400,49,,ISIC_0010372.JPG
break,html.Screen,4_98_1,2023-11-02T21:04:49.858Z,,0,,,NaN,,,,,,false,,,,592856.6000000238,592856.3000000715,,592855.8000000715,,592860.112,8,400,,,
break_continue,html.Screen,4_98_2,2023-11-02T21:04:49.859Z,,0,,,NaN,,,,,,false,,,,592857.1000000238,592856.8000000715,,592856.7000000477,,592860.112,8,400,,,
sequence,flow.Sequence,4_98,2023-11-02T21:04:49.859Z,,0,,,2673.0230000715237,completion,,,,,false,,,,592857.3000000715,592856.8000000715,590168.149,590181.6000000238,590183.777,592860.112,8,400,,,
trial,html.Screen,4_99_0,2023-11-02T21:04:54.423Z,,0,2,,4560.588000047719,response,ISIC_2153686.JPG,5,ISIC_7976934.JPG,ISIC_2153686.JPG,false,1,keypress(m),500,597421,597420.7000000477,592855.482,592857.5,592860.112,597425.549,8,400,50,,ISIC_7976934.JPG
break,html.Screen,4_99_1,2023-11-02T21:05:04.413Z,,0,,,10000.57799999998,timeout,,,,,false,,,,607411.3000000715,607409.89,597420.898,597421.2000000477,597425.549,607426.127,8,400,,,
break_continue,html.Screen,4_99_2,2023-11-02T21:05:54.532Z,,0,,,50078.87300000002,response,,,,,false,continue,keypress(Space),,657530.4000000954,657505,607409.89,607411.6000000238,607426.127,657535.069,8,400,,,
sequence,flow.Sequence,4_99,2023-11-02T21:05:54.533Z,,0,,,64644.888000000035,completion,,,,,false,,,,657530.7000000477,657505,592855.482,592857.4000000954,592860.112,657535.069,8,400,,,
trial,html.Screen,4_100_0,2023-11-02T21:05:57.816Z,,0,3,,3279.031000023824,response,ISIC_1113265.JPG,5,ISIC_0064026.JPG,ISIC_0064026.JPG,false,0,keypress(z),500,660814.3000000715,660814.1000000238,657513.799,657530.8000000715,657535.069,660818.866,8,400,1,,ISIC_1113265.JPG
break,html.Screen,4_100_1,2023-11-02T21:05:57.818Z,,0,,,NaN,,,,,,false,,,,660815.6000000238,660815.2000000477,,660814.6000000238,,660818.866,8,400,,,
break_continue,html.Screen,4_100_2,2023-11-02T21:05:57.818Z,,0,,,NaN,,,,,,false,,,,660816,660815.8000000715,,660815.7000000477,,660818.866,8,400,,,
sequence,flow.Sequence,4_100,2023-11-02T21:05:57.818Z,,0,,,3280.731000071508,completion,,,,,false,,,,660816.1000000238,660815.8000000715,657513.799,657530.8000000715,657535.069,660818.866,8,400,,,
trial,html.Screen,4_101_0,2023-11-02T21:06:01.196Z,,0,3,,3374.7340000238037,response,ISIC_0028422.JPG,5,ISIC_0032995.JPG,ISIC_0028422.JPG,false,1,keypress(m),500,664193.9000000954,664193.6000000238,660800.683,660816.3000000715,660818.866,664198.679,8,400,2,,ISIC_0032995.JPG
break,html.Screen,4_101_1,2023-11-02T21:06:01.197Z,,0,,,NaN,,,,,,false,,,,664194.9000000954,664194.7000000477,,664194.2000000477,,664198.679,8,400,,,
break_continue,html.Screen,4_101_2,2023-11-02T21:06:01.198Z,,0,,,NaN,,,,,,false,,,,664196,664195.3000000715,,664195.2000000477,,664198.679,8,400,,,
sequence,flow.Sequence,4_101,2023-11-02T21:06:01.199Z,,0,,,3376.4340000714874,completion,,,,,false,,,,664197.5,664195.3000000715,660800.683,660816.2000000477,660818.866,664198.679,8,400,,,
trial,html.Screen,4_102_0,2023-11-02T21:06:03.937Z,,0,3,,2736.3209999999963,response,ISIC_8082988.JPG,6,ISIC_0428257.JPG,ISIC_8082988.JPG,false,1,keypress(m),500,666935.2000000477,666935,664189.723,664197.7000000477,664198.679,666939.628,8,400,3,,ISIC_0428257.JPG
break,html.Screen,4_102_1,2023-11-02T21:06:03.938Z,,0,,,NaN,,,,,,false,,,,666936.1000000238,666935.8000000715,,666935.4000000954,,666939.628,8,400,,,
break_continue,html.Screen,4_102_2,2023-11-02T21:06:03.938Z,,0,,,NaN,,,,,,false,,,,666936.6000000238,666936.4000000954,,666936.2000000477,,666939.628,8,400,,,
sequence,flow.Sequence,4_102,2023-11-02T21:06:03.939Z,,0,,,2737.7210000953637,completion,,,,,false,,,,666936.8000000715,666936.4000000954,664189.723,664197.6000000238,664198.679,666939.628,8,400,,,
trial,html.Screen,4_103_0,2023-11-02T21:06:08.037Z,,0,3,,4095.371999999974,response,ISIC_0013577.JPG,5,ISIC_0030898.JPG,ISIC_0013577.JPG,false,1,keypress(m),500,671035.4000000954,671035,666918.523,666937,666939.628,671040.126,8,400,4,,ISIC_0030898.JPG
break,html.Screen,4_103_1,2023-11-02T21:06:08.038Z,,0,,,NaN,,,,,,false,,,,671036.4000000954,671036.1000000238,,671035.6000000238,,671040.126,8,400,,,
break_continue,html.Screen,4_103_2,2023-11-02T21:06:08.039Z,,0,,,NaN,,,,,,false,,,,671036.9000000954,671036.8000000715,,671036.5,,671040.126,8,400,,,
sequence,flow.Sequence,4_103,2023-11-02T21:06:08.039Z,,0,,,4097.1720000714995,completion,,,,,false,,,,671037.4000000954,671036.8000000715,666918.523,666936.9000000954,666939.628,671040.126,8,400,,,
trial,html.Screen,4_104_0,2023-11-02T21:06:10.826Z,,0,3,,2783.3739999999525,response,ISIC_9375324.JPG,5,ISIC_0070248.JPG,ISIC_0070248.JPG,false,0,keypress(z),500,673823.7000000477,673823.5,671030.891,671037.7000000477,671040.126,673828.258,8,400,5,,ISIC_9375324.JPG
break,html.Screen,4_104_1,2023-11-02T21:06:10.827Z,,0,,,NaN,,,,,,false,,,,673825.5,673824.7000000477,,673824,,673828.258,8,400,,,
break_continue,html.Screen,4_104_2,2023-11-02T21:06:10.828Z,,0,,,NaN,,,,,,false,,,,673826,673825.9000000954,,673825.6000000238,,673828.258,8,400,,,
sequence,flow.Sequence,4_104,2023-11-02T21:06:10.828Z,,0,,,2785.77400009532,completion,,,,,false,,,,673826.1000000238,673825.9000000954,671030.891,671037.6000000238,671040.126,673828.258,8,400,,,
trial,html.Screen,4_105_0,2023-11-02T21:06:15.055Z,,0,3,,4224.642000095337,response,ISIC_0031977.JPG,4,ISIC_0061252.JPG,ISIC_0061252.JPG,false,0,keypress(z),500,678053.1000000238,678052.9000000954,673818.427,673826.2000000477,673828.258,678057.839,8,400,6,,ISIC_0031977.JPG
break,html.Screen,4_105_1,2023-11-02T21:06:15.056Z,,0,,,NaN,,,,,,false,,,,678054.4000000954,678054.1000000238,,678053.3000000715,,678057.839,8,400,,,
break_continue,html.Screen,4_105_2,2023-11-02T21:06:15.057Z,,0,,,NaN,,,,,,false,,,,678054.8000000715,678054.7000000477,,678054.6000000238,,678057.839,8,400,,,
sequence,flow.Sequence,4_105,2023-11-02T21:06:15.057Z,,0,,,4226.442000047653,completion,,,,,false,,,,678055,678054.7000000477,673818.427,673826.2000000477,673828.258,678057.839,8,400,,,
trial,html.Screen,4_106_0,2023-11-02T21:06:19.332Z,,0,3,,4271.660999999964,response,ISIC_0069504.JPG,4,ISIC_0000179.JPG,ISIC_0000179.JPG,false,0,keypress(z),500,682329.8000000715,682329.5,678043.575,678055.1000000238,678057.839,682334.429,8,400,7,,ISIC_0069504.JPG
break,html.Screen,4_106_1,2023-11-02T21:06:19.333Z,,0,,,NaN,,,,,,false,,,,682330.8000000715,682330.5,,682330,,682334.429,8,400,,,
break_continue,html.Screen,4_106_2,2023-11-02T21:06:19.333Z,,0,,,NaN,,,,,,false,,,,682331.3000000715,682331.2000000477,,682331,,682334.429,8,400,,,
sequence,flow.Sequence,4_106,2023-11-02T21:06:19.333Z,,0,,,4273.361000047647,completion,,,,,false,,,,682331.5,682331.2000000477,678043.575,678055,678057.839,682334.429,8,400,,,
trial,html.Screen,4_107_0,2023-11-02T21:06:22.807Z,,0,3,,3470.77100004768,response,ISIC_0005854.JPG,6,ISIC_0028061.JPG,ISIC_0028061.JPG,false,0,keypress(z),500,685805.4000000954,685805.2000000477,682320.861,682331.6000000238,682334.429,685809.798,8,400,8,,ISIC_0005854.JPG
break,html.Screen,4_107_1,2023-11-02T21:06:22.808Z,,0,,,NaN,,,,,,false,,,,685806.6000000238,685806.2000000477,,685805.7000000477,,685809.798,8,400,,,
break_continue,html.Screen,4_107_2,2023-11-02T21:06:22.809Z,,0,,,NaN,,,,,,false,,,,685807.3000000715,685807.2000000477,,685807,,685809.798,8,400,,,
sequence,flow.Sequence,4_107,2023-11-02T21:06:22.809Z,,0,,,3472.77100004768,completion,,,,,false,,,,685807.4000000954,685807.2000000477,682320.861,682331.6000000238,682334.429,685809.798,8,400,,,
trial,html.Screen,4_108_0,2023-11-02T21:06:26.220Z,,0,3,,3407.502000071574,response,ISIC_3893354.JPG,4,ISIC_6822870.JPG,ISIC_6822870.JPG,false,0,keypress(z),500,689217.7000000477,689217.3000000715,685790.161,685807.6000000238,685809.798,689222.489,8,400,9,,ISIC_3893354.JPG
break,html.Screen,4_108_1,2023-11-02T21:06:26.221Z,,0,,,NaN,,,,,,false,,,,689219,689218.7000000477,,689218.1000000238,,689222.489,8,400,,,
break_continue,html.Screen,4_108_2,2023-11-02T21:06:26.222Z,,0,,,NaN,,,,,,false,,,,689220.2000000477,689220,,689219.2000000477,,689222.489,8,400,,,
sequence,flow.Sequence,4_108,2023-11-02T21:06:26.222Z,,0,,,3410.2020000000484,completion,,,,,false,,,,689220.5,689220,685790.161,685807.5,685809.798,689222.489,8,400,,,
trial,html.Screen,4_109_0,2023-11-02T21:06:28.912Z,,0,3,,2687.7110000477405,response,ISIC_0061475.JPG,5,ISIC_6754835.JPG,ISIC_0061475.JPG,false,1,keypress(m),500,691910.5,691910.2000000477,689214.909,689220.5,689222.489,691915.155,8,400,10,,ISIC_6754835.JPG
break,html.Screen,4_109_1,2023-11-02T21:06:28.913Z,,0,,,NaN,,,,,,false,,,,691911.6000000238,691911.3000000715,,691910.7000000477,,691915.155,8,400,,,
break_continue,html.Screen,4_109_2,2023-11-02T21:06:28.914Z,,0,,,NaN,,,,,,false,,,,691912.3000000715,691912.1000000238,,691911.9000000954,,691915.155,8,400,,,
sequence,flow.Sequence,4_109,2023-11-02T21:06:28.914Z,,0,,,2689.6110000238987,completion,,,,,false,,,,691912.6000000238,691912.1000000238,689214.909,689220.5,689222.489,691915.155,8,400,,,
trial,html.Screen,4_110_0,2023-11-02T21:06:31.653Z,,0,3,,2735.6450000714976,response,ISIC_7012881.JPG,5,ISIC_0031278.JPG,ISIC_0031278.JPG,false,0,keypress(z),500,694651.1000000238,694650.8000000715,691901.206,691912.8000000715,691915.155,694655.66,8,400,11,,ISIC_7012881.JPG
break,html.Screen,4_110_1,2023-11-02T21:06:31.654Z,,0,,,NaN,,,,,,false,,,,694652.1000000238,694651.8000000715,,694651.3000000715,,694655.66,8,400,,,
break_continue,html.Screen,4_110_2,2023-11-02T21:06:31.654Z,,0,,,NaN,,,,,,false,,,,694652.5,694652.4000000954,,694652.2000000477,,694655.66,8,400,,,
sequence,flow.Sequence,4_110,2023-11-02T21:06:31.655Z,,0,,,2737.2450000953395,completion,,,,,false,,,,694652.7000000477,694652.4000000954,691901.206,691912.8000000715,691915.155,694655.66,8,400,,,
trial,html.Screen,4_111_0,2023-11-02T21:06:35.338Z,,0,3,,3680.240000095335,response,ISIC_0034164.JPG,4,ISIC_9241732.JPG,ISIC_0034164.JPG,false,1,keypress(m),500,698336.1000000238,698335.9000000954,694641.737,694652.9000000954,694655.66,698340.751,8,400,12,,ISIC_9241732.JPG
break,html.Screen,4_111_1,2023-11-02T21:06:35.339Z,,0,,,NaN,,,,,,false,,,,698337.5,698336.9000000954,,698336.3000000715,,698340.751,8,400,,,
break_continue,html.Screen,4_111_2,2023-11-02T21:06:35.340Z,,0,,,NaN,,,,,,false,,,,698337.9000000954,698337.8000000715,,698337.7000000477,,698340.751,8,400,,,
sequence,flow.Sequence,4_111,2023-11-02T21:06:35.340Z,,0,,,3682.140000071493,completion,,,,,false,,,,698338.2000000477,698337.8000000715,694641.737,694652.8000000715,694655.66,698340.751,8,400,,,
trial,html.Screen,4_112_0,2023-11-02T21:06:38.478Z,,0,3,,3135.449000047636,response,ISIC_6208222.JPG,6,ISIC_0013141.JPG,ISIC_6208222.JPG,false,1,keypress(m),500,701476.4000000954,701476.2000000477,698327.493,698338.4000000954,698340.751,701481.196,8,400,13,,ISIC_0013141.JPG
break,html.Screen,4_112_1,2023-11-02T21:06:38.479Z,,0,,,NaN,,,,,,false,,,,701477.5,701477.2000000477,,701476.7000000477,,701481.196,8,400,,,
break_continue,html.Screen,4_112_2,2023-11-02T21:06:38.480Z,,0,,,NaN,,,,,,false,,,,701478,701477.8000000715,,701477.6000000238,,701481.196,8,400,,,
sequence,flow.Sequence,4_112,2023-11-02T21:06:38.480Z,,0,,,3137.049000071478,completion,,,,,false,,,,701478.1000000238,701477.8000000715,698327.493,698338.3000000715,698340.751,701481.196,8,400,,,
trial,html.Screen,4_113_0,2023-11-02T21:06:44.051Z,,0,3,,5567.404000023846,response,ISIC_6735970.JPG,4,ISIC_0055140.JPG,ISIC_0055140.JPG,false,0,keypress(z),500,707048.8000000715,707048.6000000238,701468.981,701478.3000000715,701481.196,707053.517,8,400,14,,ISIC_6735970.JPG
break,html.Screen,4_113_1,2023-11-02T21:06:44.052Z,,0,,,NaN,,,,,,false,,,,707049.9000000954,707049.6000000238,,707049.1000000238,,707053.517,8,400,,,
break_continue,html.Screen,4_113_2,2023-11-02T21:06:44.052Z,,0,,,NaN,,,,,,false,,,,707050.2000000477,707050.2000000477,,707050,,707053.517,8,400,,,
sequence,flow.Sequence,4_113,2023-11-02T21:06:44.052Z,,0,,,5569.004000047687,completion,,,,,false,,,,707050.6000000238,707050.2000000477,701468.981,701478.3000000715,701481.196,707053.517,8,400,,,
trial,html.Screen,4_114_0,2023-11-02T21:06:46.982Z,,0,3,,2926.683000047691,response,ISIC_3425388.JPG,5,ISIC_1894133.JPG,ISIC_1894133.JPG,false,0,keypress(z),500,709980.5,709980.2000000477,707040.951,707050.8000000715,707053.517,709985.333,8,400,15,,ISIC_3425388.JPG
break,html.Screen,4_114_1,2023-11-02T21:06:46.983Z,,0,,,NaN,,,,,,false,,,,709981.6000000238,709981.2000000477,,709980.7000000477,,709985.333,8,400,,,
break_continue,html.Screen,4_114_2,2023-11-02T21:06:46.984Z,,0,,,NaN,,,,,,false,,,,709982.1000000238,709982,,709981.8000000715,,709985.333,8,400,,,
sequence,flow.Sequence,4_114,2023-11-02T21:06:46.984Z,,0,,,2928.4830000000075,completion,,,,,false,,,,709982.3000000715,709982,707040.951,707050.7000000477,707053.517,709985.333,8,400,,,
trial,html.Screen,4_115_0,2023-11-02T21:06:50.859Z,,0,3,,3870.9670000715414,response,ISIC_0011701.JPG,6,ISIC_0011509.JPG,ISIC_0011509.JPG,false,0,keypress(z),500,713856.8000000715,713856.3000000715,709965.942,709982.4000000954,709985.333,713861.276,8,400,16,,ISIC_0011701.JPG
break,html.Screen,4_115_1,2023-11-02T21:06:50.860Z,,0,,,NaN,,,,,,false,,,,713858.6000000238,713857.7000000477,,713857,,713861.276,8,400,,,
break_continue,html.Screen,4_115_2,2023-11-02T21:06:50.861Z,,0,,,NaN,,,,,,false,,,,713859.1000000238,713859,,713858.8000000715,,713861.276,8,400,,,
sequence,flow.Sequence,4_115,2023-11-02T21:06:50.861Z,,0,,,3873.667000000016,completion,,,,,false,,,,713859.3000000715,713859,709965.942,709982.4000000954,709985.333,713861.276,8,400,,,
trial,html.Screen,4_116_0,2023-11-02T21:06:53.872Z,,0,3,,3008.024000071571,response,ISIC_0339930.JPG,5,ISIC_0355177.JPG,ISIC_0339930.JPG,false,1,keypress(m),500,716869.6000000238,716869.3000000715,713853.946,713859.4000000954,713861.276,716874.503,8,400,17,,ISIC_0355177.JPG
break,html.Screen,4_116_1,2023-11-02T21:06:53.873Z,,0,,,NaN,,,,,,false,,,,716870.8000000715,716870.5,,716869.9000000954,,716874.503,8,400,,,
break_continue,html.Screen,4_116_2,2023-11-02T21:06:53.873Z,,0,,,NaN,,,,,,false,,,,716871.5,716871.2000000477,,716870.9000000954,,716874.503,8,400,,,
sequence,flow.Sequence,4_116,2023-11-02T21:06:53.874Z,,0,,,3009.9240000477294,completion,,,,,false,,,,716871.6000000238,716871.2000000477,713853.946,713859.3000000715,713861.276,716874.503,8,400,,,
trial,html.Screen,4_117_0,2023-11-02T21:06:57.011Z,,0,3,,3134.3970000953414,response,ISIC_5518557.JPG,5,ISIC_8863344.JPG,ISIC_8863344.JPG,false,0,keypress(z),500,720009.3000000715,720008.9000000954,716867.056,716871.8000000715,716874.503,720037.799,8,400,18,,ISIC_5518557.JPG
break,html.Screen,4_117_1,2023-11-02T21:06:57.012Z,,0,,,NaN,,,,,,false,,,,720010.5,720010.2000000477,,720009.5,,720037.799,8,400,,,
break_continue,html.Screen,4_117_2,2023-11-02T21:06:57.013Z,,0,,,NaN,,,,,,false,,,,720010.9000000954,720010.8000000715,,720010.6000000238,,720037.799,8,400,,,
sequence,flow.Sequence,4_117,2023-11-02T21:06:57.013Z,,0,,,3136.2970000714995,completion,,,,,false,,,,720011.2000000477,720010.8000000715,716867.056,716871.7000000477,716874.503,720037.799,8,400,,,
trial,html.Screen,4_118_0,2023-11-02T21:07:00.823Z,,0,3,,3782.9010000476846,response,ISIC_0068727.JPG,5,ISIC_3028754.JPG,ISIC_0068727.JPG,false,1,keypress(m),500,723821,723820.7000000477,720020.997,720011.3000000715,720037.799,723846.927,8,400,19,,ISIC_3028754.JPG
break,html.Screen,4_118_1,2023-11-02T21:07:00.824Z,,0,,,NaN,,,,,,false,,,,723821.8000000715,723821.7000000477,,723821.2000000477,,723846.927,8,400,,,
break_continue,html.Screen,4_118_2,2023-11-02T21:07:00.824Z,,0,,,NaN,,,,,,false,,,,723822.1000000238,723822,,723821.9000000954,,723846.927,8,400,,,
sequence,flow.Sequence,4_118,2023-11-02T21:07:00.824Z,,0,,,3784.201000000001,completion,,,,,false,,,,723822.3000000715,723822,720020.997,720011.3000000715,720037.799,723846.927,8,400,,,
trial,html.Screen,4_119_0,2023-11-02T21:07:04.155Z,,0,3,,3305.572999999975,response,ISIC_8100185.JPG,5,ISIC_0072371.JPG,ISIC_8100185.JPG,false,1,keypress(m),500,727152.7000000477,727152.5,723830.276,723822.4000000954,723846.927,727157.318,8,400,20,,ISIC_0072371.JPG
break,html.Screen,4_119_1,2023-11-02T21:07:04.156Z,,0,,,NaN,,,,,,false,,,,727153.7000000477,727153.4000000954,,727152.9000000954,,727157.318,8,400,,,
break_continue,html.Screen,4_119_2,2023-11-02T21:07:04.156Z,,0,,,NaN,,,,,,false,,,,727154.3000000715,727154.1000000238,,727153.8000000715,,727157.318,8,400,,,
sequence,flow.Sequence,4_119,2023-11-02T21:07:04.156Z,,0,,,3307.1730000238167,completion,,,,,false,,,,727154.4000000954,727154.1000000238,723830.276,723822.3000000715,723846.927,727157.318,8,400,,,
trial,html.Screen,4_120_0,2023-11-02T21:07:07.118Z,,0,3,,2958.5820000953972,response,ISIC_0010878.JPG,5,ISIC_5312710.JPG,ISIC_0010878.JPG,false,1,keypress(m),500,730116.2000000477,730115.9000000954,727139.721,727154.6000000238,727157.318,730139.25,8,400,21,,ISIC_5312710.JPG
break,html.Screen,4_120_1,2023-11-02T21:07:07.119Z,,0,,,NaN,,,,,,false,,,,730117.2000000477,730116.9000000954,,730116.4000000954,,730139.25,8,400,,,
break_continue,html.Screen,4_120_2,2023-11-02T21:07:07.120Z,,0,,,NaN,,,,,,false,,,,730117.9000000954,730117.5,,730117.4000000954,,730139.25,8,400,,,
sequence,flow.Sequence,4_120,2023-11-02T21:07:07.120Z,,0,,,2960.18200000003,completion,,,,,false,,,,730118,730117.5,727139.721,727154.6000000238,727157.318,730139.25,8,400,,,
trial,html.Screen,4_121_0,2023-11-02T21:07:10.530Z,,0,3,,3388.25,response,ISIC_6487069.JPG,5,ISIC_1988080.JPG,ISIC_6487069.JPG,false,1,keypress(m),500,733527.8000000715,733527.5,730108.832,730118.1000000238,730139.25,733532.489,8,400,22,,ISIC_1988080.JPG
break,html.Screen,4_121_1,2023-11-02T21:07:10.531Z,,0,,,NaN,,,,,,false,,,,733528.9000000954,733528.6000000238,,733528,,733532.489,8,400,,,
break_continue,html.Screen,4_121_2,2023-11-02T21:07:10.532Z,,0,,,NaN,,,,,,false,,,,733530,733529.9000000954,,733529.8000000715,,733532.489,8,400,,,
sequence,flow.Sequence,4_121,2023-11-02T21:07:10.532Z,,0,,,3390.6500000953674,completion,,,,,false,,,,733530.3000000715,733529.9000000954,730108.832,730118.1000000238,730139.25,733532.489,8,400,,,
trial,html.Screen,4_122_0,2023-11-02T21:07:13.847Z,,0,3,,3312.011000000057,response,ISIC_0030994.JPG,5,ISIC_0027109.JPG,ISIC_0027109.JPG,false,0,keypress(z),500,736844.8000000715,736844.5,733518.4,733530.4000000954,733532.489,736849.472,8,400,23,,ISIC_0030994.JPG
break,html.Screen,4_122_1,2023-11-02T21:07:13.848Z,,0,,,NaN,,,,,,false,,,,736845.9000000954,736845.6000000238,,736845,,736849.472,8,400,,,
break_continue,html.Screen,4_122_2,2023-11-02T21:07:13.848Z,,0,,,NaN,,,,,,false,,,,736846.5,736846.3000000715,,736846.2000000477,,736849.472,8,400,,,
sequence,flow.Sequence,4_122,2023-11-02T21:07:13.849Z,,0,,,3313.8110000715824,completion,,,,,false,,,,736846.6000000238,736846.3000000715,733518.4,733530.4000000954,733532.489,736849.472,8,400,,,
trial,html.Screen,4_123_0,2023-11-02T21:07:17.611Z,,0,3,,3759.0280000000494,response,ISIC_0033412.JPG,5,ISIC_0000042.JPG,ISIC_0033412.JPG,false,1,keypress(m),500,740608.8000000715,740608.5,736845.188,736846.9000000954,736849.472,740613.563,8,400,24,,ISIC_0000042.JPG
break,html.Screen,4_123_1,2023-11-02T21:07:17.612Z,,0,,,NaN,,,,,,false,,,,740610,740609.7000000477,,740609.1000000238,,740613.563,8,400,,,
break_continue,html.Screen,4_123_2,2023-11-02T21:07:17.612Z,,0,,,NaN,,,,,,false,,,,740610.5,740610.4000000954,,740610.3000000715,,740613.563,8,400,,,
sequence,flow.Sequence,4_123,2023-11-02T21:07:17.613Z,,0,,,3760.928000095417,completion,,,,,false,,,,740610.8000000715,740610.4000000954,736845.188,736846.8000000715,736849.472,740613.563,8,400,,,
trial,html.Screen,4_124_0,2023-11-02T21:07:20.881Z,,0,3,,3265.23700007156,response,ISIC_0011944.JPG,5,ISIC_0392105.JPG,ISIC_0392105.JPG,false,0,keypress(z),500,743879.1000000238,743878.8000000715,740605.202,740612.3000000715,740613.563,743883.805,8,400,25,,ISIC_0011944.JPG
break,html.Screen,4_124_1,2023-11-02T21:07:20.882Z,,0,,,NaN,,,,,,false,,,,743880.2000000477,743879.9000000954,,743879.3000000715,,743883.805,8,400,,,
break_continue,html.Screen,4_124_2,2023-11-02T21:07:20.883Z,,0,,,NaN,,,,,,false,,,,743880.7000000477,743880.6000000238,,743880.3000000715,,743883.805,8,400,,,
sequence,flow.Sequence,4_124,2023-11-02T21:07:20.883Z,,0,,,3267.0370000238763,completion,,,,,false,,,,743881,743880.6000000238,740605.202,740610.9000000954,740613.563,743883.805,8,400,,,
trial,html.Screen,4_125_0,2023-11-02T21:07:24.629Z,,0,3,,3743.095000095316,response,ISIC_0941332.JPG,5,ISIC_0063551.JPG,ISIC_0941332.JPG,false,1,keypress(m),500,747627.3000000715,747626.9000000954,743877.998,743881.1000000238,743883.805,747631.943,8,400,26,,ISIC_0063551.JPG
break,html.Screen,4_125_1,2023-11-02T21:07:24.631Z,,0,,,NaN,,,,,,false,,,,747628.6000000238,747628.2000000477,,747627.6000000238,,747631.943,8,400,,,
break_continue,html.Screen,4_125_2,2023-11-02T21:07:24.631Z,,0,,,NaN,,,,,,false,,,,747629.1000000238,747629,,747628.8000000715,,747631.943,8,400,,,
sequence,flow.Sequence,4_125,2023-11-02T21:07:24.631Z,,0,,,3745.194999999949,completion,,,,,false,,,,747629.4000000954,747629,743877.998,743881,743883.805,747631.943,8,400,,,
