sender,sender_type,sender_id,timestamp,meta,,blockNo,condition,duration,ended_on,img_left,img_reveal,img_right,loser,practice,response,response_action,selection_duration,time_commit,time_end,time_render,time_run,time_show,time_switch,total_blocks,total_trials,trialNo,url,winner
informed_consent,html.Screen,0,2023-05-01T16:10:57.827Z,"{""labjs_version"":""20.2.4"",""labjs_build"":{""flavor"":""production"",""commit"":""f5b4a49f956347addd546a832a3327688c2c0fef""},""location"":""https://run.pavlovia.org/MurrayBennett/melanoma-2afc/?participant=65519"",""userAgent"":""Mozilla/5.0 (Windows NT 10.0; Win64; x64) AppleWebKit/537.36 (KHTML, like Gecko) Chrome/112.0.0.0 Safari/537.36 Edg/112.0.1722.64"",""platform"":""Win32"",""language"":""en-US"",""locale"":""en-US"",""timeZone"":""America/Chicago"",""timezoneOffset"":300,""screen_width"":1920,""screen_height"":1080,""scroll_width"":1920,""scroll_height"":889,""window_innerWidth"":1920,""window_innerHeight"":937,""devicePixelRatio"":1}",,,,4376.105000011921,response,,,,,,continue,click button,,6430.5,6429.300000011921,1803.198,2044.5,2053.195,6436.547,,,,"{""participant"":""65519""}",
Welcome,html.Screen,1,2023-05-01T16:11:24.859Z,,,,regular,27025.15299998808,response,,,,,,continue,click button,,33462.30000001192,33461.69999998808,6419.91,6430.699999988079,6436.547,33469.916,,,,,
trial,html.Screen,2_0_0,2023-05-01T16:11:31.152Z,,0,0,,6285.584000000003,response,ISIC_0061792.JPG,,ISIC_4679428.JPG,ISIC_4679428.JPG,true,0,keypress(z),500,39755.60000002384,39755.5,33453.25,33462.40000003576,33469.916,39770.057,1,6,1,,ISIC_0061792.JPG
sequence,flow.Sequence,2_0,2023-05-01T16:11:31.153Z,,0,,,6285.584000000003,completion,,,,,true,,,,39755.80000001192,39755.5,33453.25,33462.40000003576,33469.916,39770.057,1,6,,,
trial,html.Screen,2_1_0,2023-05-01T16:11:34.896Z,,0,0,,3728.6429999880784,response,ISIC_0776486.JPG,,ISIC_5199497.JPG,ISIC_0776486.JPG,true,1,keypress(m),500,43498.80000001192,43498.69999998808,39753.434,39755.80000001192,39770.057,43503.329,1,6,2,,ISIC_5199497.JPG
sequence,flow.Sequence,2_1,2023-05-01T16:11:34.896Z,,0,,,3728.6429999880784,completion,,,,,true,,,,43498.90000003576,43498.69999998808,39753.434,39755.80000001192,39770.057,43503.329,1,6,,,
trial,html.Screen,2_2_0,2023-05-01T16:11:39.913Z,,0,0,,5012.571000035765,response,ISIC_2556187.JPG,,ISIC_8575776.JPG,ISIC_8575776.JPG,true,0,keypress(z),500,48516,48515.90000003576,43486.745,43499,43503.329,48519.904,1,6,3,,ISIC_2556187.JPG
sequence,flow.Sequence,2_2,2023-05-01T16:11:39.913Z,,0,,,5012.571000035765,completion,,,,,true,,,,48516.10000002384,48515.90000003576,43486.745,43498.90000003576,43503.329,48519.904,1,6,,,
trial,html.Screen,2_3_0,2023-05-01T16:11:42.847Z,,0,0,,2930.5959999999977,response,ISIC_8141769.JPG,,ISIC_9238366.JPG,ISIC_8141769.JPG,true,1,keypress(m),500,51450.60000002384,51450.5,48503.436,48516.19999998808,48519.904,51453.303,1,6,4,,ISIC_9238366.JPG
sequence,flow.Sequence,2_3,2023-05-01T16:11:42.847Z,,0,,,2930.5959999999977,completion,,,,,true,,,,51450.69999998808,51450.5,48503.436,48516.19999998808,48519.904,51453.303,1,6,,,
trial,html.Screen,2_4_0,2023-05-01T16:11:46.167Z,,0,0,,3316.896999988079,response,ISIC_8949026.JPG,,ISIC_9959593.JPG,ISIC_8949026.JPG,true,1,keypress(m),500,54770.30000001192,54770.19999998808,51436.757,51450.69999998808,51453.303,54786.785,1,6,5,,ISIC_9959593.JPG
sequence,flow.Sequence,2_4,2023-05-01T16:11:46.167Z,,0,,,3316.896999988079,completion,,,,,true,,,,54770.40000003576,54770.19999998808,51436.757,51450.69999998808,51453.303,54786.785,1,6,,,
trial,html.Screen,2_5_0,2023-05-01T16:11:50.816Z,,0,0,,4632.414999988076,response,ISIC_0010479.JPG,,ISIC_0460240.JPG,ISIC_0460240.JPG,true,0,keypress(z),500,59419.30000001192,59419.19999998808,54770.084,54770.60000002384,54786.785,59436.796,1,6,6,,ISIC_0010479.JPG
sequence,flow.Sequence,2_5,2023-05-01T16:11:50.816Z,,0,,,4632.414999988076,completion,,,,,true,,,,59419.40000003576,59419.19999998808,54770.084,54770.5,54786.785,59436.796,1,6,,,
loop,flow.Loop,2,2023-05-01T16:11:50.816Z,,,,,25949.28399998808,completion,,,,,true,,,,59419.5,59419.19999998808,33453.25,33462.40000003576,33469.916,59436.796,1,6,,,
exp_instructions,html.Screen,3,2023-05-01T16:11:56.819Z,,,,,5984.80400002384,response,,,,,,continue,keypress(Space),,65422.19999998808,65421.60000002384,59403.399,59419.5,59436.796,65436.811,,,,,
trial,html.Screen,4_0_0,2023-05-01T16:12:00.160Z,,0,1,,3326.6889999999985,response,ISIC_2153686.JPG,,ISIC_1382677.JPG,ISIC_1382677.JPG,false,0,keypress(z),500,68763.60000002384,68763.5,65420.083,65422.19999998808,65436.811,68769.921,6,300,1,,ISIC_2153686.JPG
break,html.Screen,4_0_1,2023-05-01T16:12:00.161Z,,0,,,NaN,,,,,,false,,,,68764,68763.90000003576,,68763.80000001192,,68769.921,6,300,,,
break_continue,html.Screen,4_0_2,2023-05-01T16:12:00.161Z,,0,,,NaN,,,,,,false,,,,68764.19999998808,68764.19999998808,,68764.10000002384,,68769.921,6,300,,,
sequence,flow.Sequence,4_0,2023-05-01T16:12:00.161Z,,0,,,3327.3889999880776,completion,,,,,false,,,,68764.30000001192,68764.19999998808,65420.083,65422.19999998808,65436.811,68769.921,6,300,,,
trial,html.Screen,4_1_0,2023-05-01T16:12:04.111Z,,0,1,,3944.778999988077,response,ISIC_9572761.JPG,,ISIC_0060341.JPG,ISIC_9572761.JPG,false,1,keypress(m),500,72714.80000001192,72714.69999998808,68753.463,68764.40000003576,68769.921,72719.932,6,300,2,,ISIC_0060341.JPG
break,html.Screen,4_1_1,2023-05-01T16:12:04.112Z,,0,,,NaN,,,,,,false,,,,72715.10000002384,72714.90000003576,,72714.90000003576,,72719.932,6,300,,,
break_continue,html.Screen,4_1_2,2023-05-01T16:12:04.112Z,,0,,,NaN,,,,,,false,,,,72715.40000003576,72715.40000003576,,72715.30000001192,,72719.932,6,300,,,
sequence,flow.Sequence,4_1,2023-05-01T16:12:04.112Z,,0,,,3945.4790000357607,completion,,,,,false,,,,72715.60000002384,72715.40000003576,68753.463,68764.40000003576,68769.921,72719.932,6,300,,,
trial,html.Screen,4_2_0,2023-05-01T16:12:07.471Z,,0,1,,3354.468000035762,response,ISIC_0054123.JPG,,ISIC_0066532.JPG,ISIC_0054123.JPG,false,1,keypress(m),500,76074.5,76074.40000003576,72703.492,72715.60000002384,72719.932,76086.814,6,300,3,,ISIC_0066532.JPG
break,html.Screen,4_2_1,2023-05-01T16:12:07.471Z,,0,,,NaN,,,,,,false,,,,76074.90000003576,76074.69999998808,,76074.60000002384,,76086.814,6,300,,,
break_continue,html.Screen,4_2_2,2023-05-01T16:12:07.472Z,,0,,,NaN,,,,,,false,,,,76075.10000002384,76075.10000002384,,76075,,76086.814,6,300,,,
sequence,flow.Sequence,4_2,2023-05-01T16:12:07.472Z,,0,,,3355.168000023841,completion,,,,,false,,,,76075.19999998808,76075.10000002384,72703.492,72715.60000002384,72719.932,76086.814,6,300,,,
trial,html.Screen,4_3_0,2023-05-01T16:12:11.711Z,,0,1,,4227.885999988081,response,ISIC_2864893.JPG,,ISIC_0193456.JPG,ISIC_2864893.JPG,false,1,keypress(m),500,80314.80000001192,80314.69999998808,76070.082,76075.30000001192,76086.814,80320.061,6,300,4,,ISIC_0193456.JPG
break,html.Screen,4_3_1,2023-05-01T16:12:11.712Z,,0,,,NaN,,,,,,false,,,,80315.10000002384,80315,,80314.90000003576,,80320.061,6,300,,,
break_continue,html.Screen,4_3_2,2023-05-01T16:12:11.712Z,,0,,,NaN,,,,,,false,,,,80315.40000003576,80315.40000003576,,80315.30000001192,,80320.061,6,300,,,
sequence,flow.Sequence,4_3,2023-05-01T16:12:11.712Z,,0,,,4228.586000035764,completion,,,,,false,,,,80315.5,80315.40000003576,76070.082,76075.30000001192,76086.814,80320.061,6,300,,,
trial,html.Screen,4_4_0,2023-05-01T16:12:17.560Z,,0,1,,5843.4389999999985,response,ISIC_0062196.JPG,,ISIC_9433388.JPG,ISIC_9433388.JPG,false,0,keypress(z),500,86163.60000002384,86163.5,80303.313,80315.60000002384,80320.061,86170.072,6,300,5,,ISIC_0062196.JPG
break,html.Screen,4_4_1,2023-05-01T16:12:17.561Z,,0,,,NaN,,,,,,false,,,,86164,86163.80000001192,,86163.60000002384,,86170.072,6,300,,,
break_continue,html.Screen,4_4_2,2023-05-01T16:12:17.561Z,,0,,,NaN,,,,,,false,,,,86164.19999998808,86164.10000002384,,86164,,86170.072,6,300,,,
sequence,flow.Sequence,4_4,2023-05-01T16:12:17.561Z,,0,,,5844.03900002384,completion,,,,,false,,,,86164.19999998808,86164.10000002384,80303.313,80315.60000002384,80320.061,86170.072,6,300,,,
trial,html.Screen,4_5_0,2023-05-01T16:12:20.399Z,,0,1,,2832.127999988079,response,ISIC_0067840.JPG,,ISIC_6392461.JPG,ISIC_0067840.JPG,false,1,keypress(m),500,89002.30000001192,89002.19999998808,86153.501,86164.30000001192,86170.072,89028.952,6,300,6,,ISIC_6392461.JPG
break,html.Screen,4_5_1,2023-05-01T16:12:20.399Z,,0,,,NaN,,,,,,false,,,,89002.69999998808,89002.5,,89002.40000003576,,89028.952,6,300,,,
break_continue,html.Screen,4_5_2,2023-05-01T16:12:20.400Z,,0,,,NaN,,,,,,false,,,,89003,89002.90000003576,,89002.80000001192,,89028.952,6,300,,,
sequence,flow.Sequence,4_5,2023-05-01T16:12:20.400Z,,0,,,2832.8280000357627,completion,,,,,false,,,,89003,89002.90000003576,86153.501,86164.30000001192,86170.072,89028.952,6,300,,,
trial,html.Screen,4_6_0,2023-05-01T16:12:23.375Z,,0,1,,2949.7479999880743,response,ISIC_0008431.JPG,,ISIC_8502341.JPG,ISIC_0008431.JPG,false,1,keypress(m),500,91978.90000003576,91978.69999998808,88986.796,89003.10000002384,89028.952,91986.846,6,300,7,,ISIC_8502341.JPG
break,html.Screen,4_6_1,2023-05-01T16:12:23.376Z,,0,,,NaN,,,,,,false,,,,91979.19999998808,91979,,91978.90000003576,,91986.846,6,300,,,
break_continue,html.Screen,4_6_2,2023-05-01T16:12:23.376Z,,0,,,NaN,,,,,,false,,,,91979.5,91979.40000003576,,91979.30000001192,,91986.846,6,300,,,
sequence,flow.Sequence,4_6,2023-05-01T16:12:23.376Z,,0,,,2950.448000035758,completion,,,,,false,,,,91979.5,91979.40000003576,88986.796,89003.10000002384,89028.952,91986.846,6,300,,,
trial,html.Screen,4_7_0,2023-05-01T16:12:26.415Z,,0,1,,3031.754000023837,response,ISIC_2642873.JPG,,ISIC_0069633.JPG,ISIC_2642873.JPG,false,1,keypress(m),500,95018.69999998808,95018.60000002384,91970.136,91979.60000002384,91986.846,95040.397,6,300,8,,ISIC_0069633.JPG
break,html.Screen,4_7_1,2023-05-01T16:12:26.416Z,,0,,,NaN,,,,,,false,,,,95019.10000002384,95019,,95018.80000001192,,95040.397,6,300,,,
break_continue,html.Screen,4_7_2,2023-05-01T16:12:26.416Z,,0,,,NaN,,,,,,false,,,,95019.40000003576,95019.30000001192,,95019.19999998808,,95040.397,6,300,,,
sequence,flow.Sequence,4_7,2023-05-01T16:12:26.416Z,,0,,,3032.454000011916,completion,,,,,false,,,,95019.40000003576,95019.30000001192,91970.136,91979.60000002384,91986.846,95040.397,6,300,,,
trial,html.Screen,4_8_0,2023-05-01T16:12:29.840Z,,0,1,,3403.2030000238447,response,ISIC_1939413.JPG,,ISIC_3031937.JPG,ISIC_3031937.JPG,false,0,keypress(z),500,98443.69999998808,98443.60000002384,95003.425,95019.40000003576,95040.397,98453.434,6,300,9,,ISIC_1939413.JPG
break,html.Screen,4_8_1,2023-05-01T16:12:29.841Z,,0,,,NaN,,,,,,false,,,,98444.10000002384,98443.90000003576,,98443.80000001192,,98453.434,6,300,,,
break_continue,html.Screen,4_8_2,2023-05-01T16:12:29.841Z,,0,,,NaN,,,,,,false,,,,98444.5,98444.40000003576,,98444.30000001192,,98453.434,6,300,,,
sequence,flow.Sequence,4_8,2023-05-01T16:12:29.841Z,,0,,,3404.0030000357656,completion,,,,,false,,,,98444.60000002384,98444.40000003576,95003.425,95019.40000003576,95040.397,98453.434,6,300,,,
trial,html.Screen,4_9_0,2023-05-01T16:12:33.503Z,,0,1,,3652.7659999880852,response,ISIC_4981135.JPG,,ISIC_8463871.JPG,ISIC_4981135.JPG,false,1,keypress(m),500,102106.40000003576,102106.19999998808,98436.775,98444.69999998808,98453.434,102120.152,6,300,10,,ISIC_8463871.JPG
break,html.Screen,4_9_1,2023-05-01T16:12:33.503Z,,0,,,NaN,,,,,,false,,,,102106.69999998808,102106.5,,102106.40000003576,,102120.152,6,300,,,
break_continue,html.Screen,4_9_2,2023-05-01T16:12:33.504Z,,0,,,NaN,,,,,,false,,,,102106.90000003576,102106.90000003576,,102106.80000001192,,102120.152,6,300,,,
sequence,flow.Sequence,4_9,2023-05-01T16:12:33.504Z,,0,,,3653.466000035769,completion,,,,,false,,,,102107,102106.90000003576,98436.775,98444.60000002384,98453.434,102120.152,6,300,,,
trial,html.Screen,4_10_0,2023-05-01T16:12:36.575Z,,0,1,,3058.347999999998,response,ISIC_1509635.JPG,,ISIC_6052702.JPG,ISIC_6052702.JPG,false,0,keypress(z),500,105178.60000002384,105178.5,102103.308,102107.10000002384,102120.152,105186.779,6,300,11,,ISIC_1509635.JPG
break,html.Screen,4_10_1,2023-05-01T16:12:36.576Z,,0,,,NaN,,,,,,false,,,,105178.90000003576,105178.80000001192,,105178.60000002384,,105186.779,6,300,,,
break_continue,html.Screen,4_10_2,2023-05-01T16:12:36.576Z,,0,,,NaN,,,,,,false,,,,105179.19999998808,105179.10000002384,,105179,,105186.779,6,300,,,
sequence,flow.Sequence,4_10,2023-05-01T16:12:36.576Z,,0,,,3058.94800002384,completion,,,,,false,,,,105179.40000003576,105179.10000002384,102103.308,102107.10000002384,102120.152,105186.779,6,300,,,
trial,html.Screen,4_11_0,2023-05-01T16:12:39.400Z,,0,1,,2816.920999988084,response,ISIC_0061803.JPG,,ISIC_0000043.JPG,ISIC_0061803.JPG,false,1,keypress(m),500,108003.80000001192,108003.69999998808,105170.108,105179.60000002384,105186.779,108020.038,6,300,12,,ISIC_0000043.JPG
break,html.Screen,4_11_1,2023-05-01T16:12:39.401Z,,0,,,NaN,,,,,,false,,,,108004.19999998808,108004,,108003.90000003576,,108020.038,6,300,,,
break_continue,html.Screen,4_11_2,2023-05-01T16:12:39.401Z,,0,,,NaN,,,,,,false,,,,108004.5,108004.40000003576,,108004.19999998808,,108020.038,6,300,,,
sequence,flow.Sequence,4_11,2023-05-01T16:12:39.401Z,,0,,,2817.621000035768,completion,,,,,false,,,,108004.60000002384,108004.40000003576,105170.108,105179.60000002384,105186.779,108020.038,6,300,,,
trial,html.Screen,4_12_0,2023-05-01T16:12:42.207Z,,0,1,,2790.7620000119205,response,ISIC_8655206.JPG,,ISIC_5157775.JPG,ISIC_5157775.JPG,false,0,keypress(z),500,110810.90000003576,110810.80000001192,107987.78,108004.60000002384,108020.038,110820.054,6,300,13,,ISIC_8655206.JPG
break,html.Screen,4_12_1,2023-05-01T16:12:42.208Z,,0,,,NaN,,,,,,false,,,,110811.19999998808,110811.10000002384,,110811,,110820.054,6,300,,,
break_continue,html.Screen,4_12_2,2023-05-01T16:12:42.208Z,,0,,,NaN,,,,,,false,,,,110811.5,110811.40000003576,,110811.19999998808,,110820.054,6,300,,,
sequence,flow.Sequence,4_12,2023-05-01T16:12:42.208Z,,0,,,2791.3620000357623,completion,,,,,false,,,,110811.5,110811.40000003576,107987.78,108004.60000002384,108020.038,110820.054,6,300,,,
trial,html.Screen,4_13_0,2023-05-01T16:12:44.920Z,,0,1,,2702.9459999999963,response,ISIC_4580926.JPG,,ISIC_5273029.JPG,ISIC_5273029.JPG,false,0,keypress(z),500,113523.10000002384,113523,110803.509,110811.60000002384,110820.054,113536.897,6,300,14,,ISIC_4580926.JPG
break,html.Screen,4_13_1,2023-05-01T16:12:44.920Z,,0,,,NaN,,,,,,false,,,,113523.40000003576,113523.40000003576,,113523.10000002384,,113536.897,6,300,,,
break_continue,html.Screen,4_13_2,2023-05-01T16:12:44.920Z,,0,,,NaN,,,,,,false,,,,113523.60000002384,113523.60000002384,,113523.5,,113536.897,6,300,,,
sequence,flow.Sequence,4_13,2023-05-01T16:12:44.920Z,,0,,,2703.546000023838,completion,,,,,false,,,,113523.80000001192,113523.60000002384,110803.509,110811.60000002384,110820.054,113536.897,6,300,,,
trial,html.Screen,4_14_0,2023-05-01T16:12:47.647Z,,0,1,,2713.5030000357656,response,ISIC_0025020.JPG,,ISIC_0032783.JPG,ISIC_0025020.JPG,false,1,keypress(m),500,116250.40000003576,116250.40000003576,113520.038,113523.80000001192,113536.897,116253.302,6,300,15,,ISIC_0032783.JPG
break,html.Screen,4_14_1,2023-05-01T16:12:47.647Z,,0,,,NaN,,,,,,false,,,,116250.80000001192,116250.69999998808,,116250.5,,116253.302,6,300,,,
break_continue,html.Screen,4_14_2,2023-05-01T16:12:47.648Z,,0,,,NaN,,,,,,false,,,,116251.19999998808,116251,,116250.90000003576,,116253.302,6,300,,,
sequence,flow.Sequence,4_14,2023-05-01T16:12:47.648Z,,0,,,2714.103000000003,completion,,,,,false,,,,116251.19999998808,116251,113520.038,113523.80000001192,113536.897,116253.302,6,300,,,
trial,html.Screen,4_15_0,2023-05-01T16:12:50.359Z,,0,1,,2709.198000000004,response,ISIC_0010358.JPG,,ISIC_3021188.JPG,ISIC_0010358.JPG,false,1,keypress(m),500,118962.60000002384,118962.5,116236.833,116251.30000001192,116253.302,118970.181,6,300,16,,ISIC_3021188.JPG
break,html.Screen,4_15_1,2023-05-01T16:12:50.360Z,,0,,,NaN,,,,,,false,,,,118962.90000003576,118962.80000001192,,118962.69999998808,,118970.181,6,300,,,
break_continue,html.Screen,4_15_2,2023-05-01T16:12:50.360Z,,0,,,NaN,,,,,,false,,,,118963.30000001192,118963.19999998808,,118963.10000002384,,118970.181,6,300,,,
sequence,flow.Sequence,4_15,2023-05-01T16:12:50.360Z,,0,,,2709.897999988083,completion,,,,,false,,,,118963.30000001192,118963.19999998808,116236.833,116251.30000001192,116253.302,118970.181,6,300,,,
trial,html.Screen,4_16_0,2023-05-01T16:12:53.280Z,,0,1,,2913.518999988082,response,ISIC_0066338.JPG,,ISIC_0030592.JPG,ISIC_0066338.JPG,false,1,keypress(m),500,121883.80000001192,121883.69999998808,118953.421,118963.40000003576,118970.181,121886.663,6,300,17,,ISIC_0030592.JPG
break,html.Screen,4_16_1,2023-05-01T16:12:53.280Z,,0,,,NaN,,,,,,false,,,,121884.10000002384,121884,,121883.90000003576,,121886.663,6,300,,,
break_continue,html.Screen,4_16_2,2023-05-01T16:12:53.281Z,,0,,,NaN,,,,,,false,,,,121884.40000003576,121884.40000003576,,121884.30000001192,,121886.663,6,300,,,
sequence,flow.Sequence,4_16,2023-05-01T16:12:53.281Z,,0,,,2914.219000035766,completion,,,,,false,,,,121884.5,121884.40000003576,118953.421,118963.40000003576,118970.181,121886.663,6,300,,,
trial,html.Screen,4_17_0,2023-05-01T16:12:56.071Z,,0,1,,2787.9370000238414,response,ISIC_0013341.JPG,,ISIC_2876105.JPG,ISIC_0013341.JPG,false,1,keypress(m),500,124674.69999998808,124674.60000002384,121870.137,121884.60000002384,121886.663,124686.875,6,300,18,,ISIC_2876105.JPG
break,html.Screen,4_17_1,2023-05-01T16:12:56.071Z,,0,,,NaN,,,,,,false,,,,124675,124675,,124674.80000001192,,124686.875,6,300,,,
break_continue,html.Screen,4_17_2,2023-05-01T16:12:56.072Z,,0,,,NaN,,,,,,false,,,,124675.19999998808,124675.10000002384,,124675,,124686.875,6,300,,,
sequence,flow.Sequence,4_17,2023-05-01T16:12:56.072Z,,0,,,2788.4370000238414,completion,,,,,false,,,,124675.30000001192,124675.10000002384,121870.137,121884.60000002384,121886.663,124686.875,6,300,,,
trial,html.Screen,4_18_0,2023-05-01T16:12:58.743Z,,0,1,,2659.324999988079,response,ISIC_0011349.JPG,,ISIC_3704157.JPG,ISIC_3704157.JPG,false,0,keypress(z),500,127346.30000001192,127346.19999998808,124670.122,124675.40000003576,124686.875,127353.486,6,300,19,,ISIC_0011349.JPG
break,html.Screen,4_18_1,2023-05-01T16:12:58.743Z,,0,,,NaN,,,,,,false,,,,127346.60000002384,127346.60000002384,,127346.40000003576,,127353.486,6,300,,,
break_continue,html.Screen,4_18_2,2023-05-01T16:12:58.743Z,,0,,,NaN,,,,,,false,,,,127346.90000003576,127346.80000001192,,127346.60000002384,,127353.486,6,300,,,
sequence,flow.Sequence,4_18,2023-05-01T16:12:58.743Z,,0,,,2659.925000011921,completion,,,,,false,,,,127347.10000002384,127346.80000001192,124670.122,124675.30000001192,124686.875,127353.486,6,300,,,
trial,html.Screen,4_19_0,2023-05-01T16:13:01.599Z,,0,1,,2849.6140000238374,response,ISIC_7131689.JPG,,ISIC_2772066.JPG,ISIC_2772066.JPG,false,0,keypress(z),500,130203.19999998808,130203.10000002384,127336.644,127347.19999998808,127353.486,130220.223,6,300,20,,ISIC_7131689.JPG
break,html.Screen,4_19_1,2023-05-01T16:13:01.600Z,,0,,,NaN,,,,,,false,,,,130203.5,130203.40000003576,,130203.19999998808,,130220.223,6,300,,,
break_continue,html.Screen,4_19_2,2023-05-01T16:13:01.600Z,,0,,,NaN,,,,,,false,,,,130203.90000003576,130203.69999998808,,130203.60000002384,,130220.223,6,300,,,
sequence,flow.Sequence,4_19,2023-05-01T16:13:01.600Z,,0,,,2850.2139999880746,completion,,,,,false,,,,130203.90000003576,130203.69999998808,127336.644,127347.10000002384,127353.486,130220.223,6,300,,,
trial,html.Screen,4_20_0,2023-05-01T16:13:04.239Z,,0,1,,2622.6770000357646,response,ISIC_9483306.JPG,,ISIC_3283317.JPG,ISIC_9483306.JPG,false,1,keypress(m),500,132843,132842.90000003576,130203.525,130204,130220.223,132853.502,6,300,21,,ISIC_3283317.JPG
break,html.Screen,4_20_1,2023-05-01T16:13:04.240Z,,0,,,NaN,,,,,,false,,,,132843.40000003576,132843.19999998808,,132843.10000002384,,132853.502,6,300,,,
break_continue,html.Screen,4_20_2,2023-05-01T16:13:04.240Z,,0,,,NaN,,,,,,false,,,,132843.60000002384,132843.5,,132843.5,,132853.502,6,300,,,
sequence,flow.Sequence,4_20,2023-05-01T16:13:04.240Z,,0,,,2623.277000000002,completion,,,,,false,,,,132843.69999998808,132843.5,130203.525,130204,130220.223,132853.502,6,300,,,
trial,html.Screen,4_21_0,2023-05-01T16:13:07.031Z,,0,1,,2781.2980000119132,response,ISIC_3764173.JPG,,ISIC_2876105.JPG,ISIC_3764173.JPG,false,1,keypress(m),500,135635,135634.80000001192,132836.866,132843.80000001192,132853.502,135636.671,6,300,22,,ISIC_2876105.JPG
break,html.Screen,4_21_1,2023-05-01T16:13:07.032Z,,0,,,NaN,,,,,,false,,,,135635.19999998808,135635.10000002384,,135635,,135636.671,6,300,,,
break_continue,html.Screen,4_21_2,2023-05-01T16:13:07.032Z,,0,,,NaN,,,,,,false,,,,135635.40000003576,135635.40000003576,,135635.30000001192,,135636.671,6,300,,,
sequence,flow.Sequence,4_21,2023-05-01T16:13:07.032Z,,0,,,2781.898000035755,completion,,,,,false,,,,135635.60000002384,135635.40000003576,132836.866,132843.69999998808,132853.502,135636.671,6,300,,,
trial,html.Screen,4_22_0,2023-05-01T16:13:09.727Z,,0,1,,2693.7290000357607,response,ISIC_9348809.JPG,,ISIC_0034065.JPG,ISIC_0034065.JPG,false,0,keypress(z),500,138330.5,138330.40000003576,135620.141,135635.69999998808,135636.671,138336.841,6,300,23,,ISIC_9348809.JPG
break,html.Screen,4_22_1,2023-05-01T16:13:09.727Z,,0,,,NaN,,,,,,false,,,,138330.69999998808,138330.69999998808,,138330.5,,138336.841,6,300,,,
break_continue,html.Screen,4_22_2,2023-05-01T16:13:09.727Z,,0,,,NaN,,,,,,false,,,,138331,138330.80000001192,,138330.80000001192,,138336.841,6,300,,,
sequence,flow.Sequence,4_22,2023-05-01T16:13:09.727Z,,0,,,2694.129000011919,completion,,,,,false,,,,138331.10000002384,138330.80000001192,135620.141,135635.69999998808,135636.671,138336.841,6,300,,,
trial,html.Screen,4_23_0,2023-05-01T16:13:12.303Z,,0,1,,2569.8589999880933,response,ISIC_0054570.JPG,,ISIC_1497525.JPG,ISIC_1497525.JPG,false,0,keypress(z),500,140906.90000003576,140906.69999998808,138320.168,138331.19999998808,138336.841,140920.194,6,300,24,,ISIC_0054570.JPG
break,html.Screen,4_23_1,2023-05-01T16:13:12.303Z,,0,,,NaN,,,,,,false,,,,140907.19999998808,140907.10000002384,,140907,,140920.194,6,300,,,
break_continue,html.Screen,4_23_2,2023-05-01T16:13:12.304Z,,0,,,NaN,,,,,,false,,,,140907.40000003576,140907.40000003576,,140907.30000001192,,140920.194,6,300,,,
sequence,flow.Sequence,4_23,2023-05-01T16:13:12.304Z,,0,,,2570.559000035777,completion,,,,,false,,,,140907.5,140907.40000003576,138320.168,138331.19999998808,138336.841,140920.194,6,300,,,
trial,html.Screen,4_24_0,2023-05-01T16:13:15.231Z,,0,1,,2914.8060000000114,response,ISIC_1149693.JPG,,ISIC_7895093.JPG,ISIC_1149693.JPG,false,1,keypress(m),500,143835.19999998808,143835,140903.453,140907.69999998808,140920.194,143863.666,6,300,25,,ISIC_7895093.JPG
break,html.Screen,4_24_1,2023-05-01T16:13:15.232Z,,0,,,NaN,,,,,,false,,,,143835.40000003576,143835.40000003576,,143835.19999998808,,143863.666,6,300,,,
break_continue,html.Screen,4_24_2,2023-05-01T16:13:15.232Z,,0,,,NaN,,,,,,false,,,,143835.80000001192,143835.69999998808,,143835.5,,143863.666,6,300,,,
sequence,flow.Sequence,4_24,2023-05-01T16:13:15.232Z,,0,,,2915.5059999880905,completion,,,,,false,,,,143835.90000003576,143835.69999998808,140903.453,140907.60000002384,140920.194,143863.666,6,300,,,
trial,html.Screen,4_25_0,2023-05-01T16:13:17.959Z,,0,1,,2699.4340000238444,response,ISIC_0028129.JPG,,ISIC_0029026.JPG,ISIC_0029026.JPG,false,0,keypress(z),500,146563.19999998808,146563.10000002384,143820.217,143836,143863.666,146570.176,6,300,26,,ISIC_0028129.JPG
break,html.Screen,4_25_1,2023-05-01T16:13:17.960Z,,0,,,NaN,,,,,,false,,,,146563.5,146563.40000003576,,146563.30000001192,,146570.176,6,300,,,
break_continue,html.Screen,4_25_2,2023-05-01T16:13:17.960Z,,0,,,NaN,,,,,,false,,,,146563.90000003576,146563.80000001192,,146563.60000002384,,146570.176,6,300,,,
sequence,flow.Sequence,4_25,2023-05-01T16:13:17.960Z,,0,,,2700.1340000119235,completion,,,,,false,,,,146564,146563.80000001192,143820.217,143835.90000003576,143863.666,146570.176,6,300,,,
trial,html.Screen,4_26_0,2023-05-01T16:13:20.423Z,,0,1,,2456.8239999999932,response,ISIC_0026500.JPG,,ISIC_7101810.JPG,ISIC_7101810.JPG,false,0,keypress(z),500,149027.10000002384,149027,146553.551,146564.10000002384,146570.176,149036.884,6,300,27,,ISIC_0026500.JPG
break,html.Screen,4_26_1,2023-05-01T16:13:20.424Z,,0,,,NaN,,,,,,false,,,,149027.40000003576,149027.40000003576,,149027.19999998808,,149036.884,6,300,,,
break_continue,html.Screen,4_26_2,2023-05-01T16:13:20.424Z,,0,,,NaN,,,,,,false,,,,149027.60000002384,149027.60000002384,,149027.5,,149036.884,6,300,,,
sequence,flow.Sequence,4_26,2023-05-01T16:13:20.424Z,,0,,,2457.424000023835,completion,,,,,false,,,,149027.80000001192,149027.60000002384,146553.551,146564,146570.176,149036.884,6,300,,,
trial,html.Screen,4_27_0,2023-05-01T16:13:23.047Z,,0,1,,2613.216000023851,response,ISIC_1394786.JPG,,ISIC_8766254.JPG,ISIC_1394786.JPG,false,1,keypress(m),500,151650.19999998808,151650.10000002384,149020.19,149027.80000001192,149036.884,151653.412,6,300,28,,ISIC_8766254.JPG
break,html.Screen,4_27_1,2023-05-01T16:13:23.047Z,,0,,,NaN,,,,,,false,,,,151650.60000002384,151650.40000003576,,151650.30000001192,,151653.412,6,300,,,
break_continue,html.Screen,4_27_2,2023-05-01T16:13:23.047Z,,0,,,NaN,,,,,,false,,,,151650.80000001192,151650.60000002384,,151650.60000002384,,151653.412,6,300,,,
sequence,flow.Sequence,4_27,2023-05-01T16:13:23.047Z,,0,,,2613.716000023851,completion,,,,,false,,,,151650.90000003576,151650.60000002384,149020.19,149027.80000001192,149036.884,151653.412,6,300,,,
trial,html.Screen,4_28_0,2023-05-01T16:13:25.720Z,,0,1,,2670.287999988068,response,ISIC_2364150.JPG,,ISIC_0692990.JPG,ISIC_2364150.JPG,false,1,keypress(m),500,154323.80000001192,154323.69999998808,151636.897,151650.90000003576,151653.412,154336.898,6,300,29,,ISIC_0692990.JPG
break,html.Screen,4_28_1,2023-05-01T16:13:25.720Z,,0,,,NaN,,,,,,false,,,,154324.19999998808,154324,,154323.90000003576,,154336.898,6,300,,,
break_continue,html.Screen,4_28_2,2023-05-01T16:13:25.721Z,,0,,,NaN,,,,,,false,,,,154324.40000003576,154324.30000001192,,154324.19999998808,,154336.898,6,300,,,
sequence,flow.Sequence,4_28,2023-05-01T16:13:25.721Z,,0,,,2670.8880000119098,completion,,,,,false,,,,154324.60000002384,154324.30000001192,151636.897,151650.90000003576,151653.412,154336.898,6,300,,,
trial,html.Screen,4_29_0,2023-05-01T16:13:28.375Z,,0,1,,2642.2020000238554,response,ISIC_1067390.JPG,,ISIC_0029906.JPG,ISIC_0029906.JPG,false,0,keypress(z),500,156979.19999998808,156979.10000002384,154320.147,154324.60000002384,154336.898,156986.896,6,300,30,,ISIC_1067390.JPG
break,html.Screen,4_29_1,2023-05-01T16:13:28.376Z,,0,,,NaN,,,,,,false,,,,156979.5,156979.30000001192,,156979.19999998808,,156986.896,6,300,,,
break_continue,html.Screen,4_29_2,2023-05-01T16:13:28.376Z,,0,,,NaN,,,,,,false,,,,156979.69999998808,156979.60000002384,,156979.5,,156986.896,6,300,,,
sequence,flow.Sequence,4_29,2023-05-01T16:13:28.376Z,,0,,,2642.7020000238554,completion,,,,,false,,,,156979.90000003576,156979.60000002384,154320.147,154324.60000002384,154336.898,156986.896,6,300,,,
trial,html.Screen,4_30_0,2023-05-01T16:13:31.175Z,,0,1,,2791.704000023834,response,ISIC_7768567.JPG,,ISIC_0054777.JPG,ISIC_7768567.JPG,false,1,keypress(m),500,159778.60000002384,159778.60000002384,156970.203,156979.90000003576,156986.896,159786.901,6,300,31,,ISIC_0054777.JPG
break,html.Screen,4_30_1,2023-05-01T16:13:31.175Z,,0,,,NaN,,,,,,false,,,,159779,159778.90000003576,,159778.80000001192,,159786.901,6,300,,,
break_continue,html.Screen,4_30_2,2023-05-01T16:13:31.175Z,,0,,,NaN,,,,,,false,,,,159779.10000002384,159779.10000002384,,159779,,159786.901,6,300,,,
sequence,flow.Sequence,4_30,2023-05-01T16:13:31.175Z,,0,,,2792.204000023834,completion,,,,,false,,,,159779.19999998808,159779.10000002384,156970.203,156979.90000003576,156986.896,159786.901,6,300,,,
trial,html.Screen,4_31_0,2023-05-01T16:13:33.783Z,,0,1,,2599.8990000119084,response,ISIC_4874581.JPG,,ISIC_0010777.JPG,ISIC_4874581.JPG,false,1,keypress(m),500,162386.80000001192,162386.80000001192,159770.143,159779.30000001192,159786.901,162403.367,6,300,32,,ISIC_0010777.JPG
break,html.Screen,4_31_1,2023-05-01T16:13:33.783Z,,0,,,NaN,,,,,,false,,,,162387.10000002384,162387,,162386.90000003576,,162403.367,6,300,,,
break_continue,html.Screen,4_31_2,2023-05-01T16:13:33.784Z,,0,,,NaN,,,,,,false,,,,162387.40000003576,162387.30000001192,,162387.19999998808,,162403.367,6,300,,,
sequence,flow.Sequence,4_31,2023-05-01T16:13:33.784Z,,0,,,2600.3990000119084,completion,,,,,false,,,,162387.5,162387.30000001192,159770.143,159779.30000001192,159786.901,162403.367,6,300,,,
trial,html.Screen,4_32_0,2023-05-01T16:13:36.368Z,,0,1,,2567.9330000119226,response,ISIC_9471156.JPG,,ISIC_9586758.JPG,ISIC_9471156.JPG,false,1,keypress(m),500,164971.40000003576,164971.30000001192,162386.845,162387.5,162403.367,164986.649,6,300,33,,ISIC_9586758.JPG
break,html.Screen,4_32_1,2023-05-01T16:13:36.368Z,,0,,,NaN,,,,,,false,,,,164971.80000001192,164971.69999998808,,164971.5,,164986.649,6,300,,,
break_continue,html.Screen,4_32_2,2023-05-01T16:13:36.368Z,,0,,,NaN,,,,,,false,,,,164971.90000003576,164971.90000003576,,164971.80000001192,,164986.649,6,300,,,
sequence,flow.Sequence,4_32,2023-05-01T16:13:36.368Z,,0,,,2568.5330000357644,completion,,,,,false,,,,164972,164971.90000003576,162386.845,162387.5,162403.367,164986.649,6,300,,,
trial,html.Screen,4_33_0,2023-05-01T16:13:39.007Z,,0,1,,2624.050999988074,response,ISIC_0010752.JPG,,ISIC_0026394.JPG,ISIC_0026394.JPG,false,0,keypress(z),500,167610.90000003576,167610.69999998808,164970.016,164972.10000002384,164986.649,167620.215,6,300,34,,ISIC_0010752.JPG
break,html.Screen,4_33_1,2023-05-01T16:13:39.007Z,,0,,,NaN,,,,,,false,,,,167611.10000002384,167611,,167610.90000003576,,167620.215,6,300,,,
break_continue,html.Screen,4_33_2,2023-05-01T16:13:39.008Z,,0,,,NaN,,,,,,false,,,,167611.30000001192,167611.19999998808,,167611.10000002384,,167620.215,6,300,,,
sequence,flow.Sequence,4_33,2023-05-01T16:13:39.008Z,,0,,,2624.550999988074,completion,,,,,false,,,,167611.40000003576,167611.19999998808,164970.016,164972.10000002384,164986.649,167620.215,6,300,,,
trial,html.Screen,4_34_0,2023-05-01T16:13:41.679Z,,0,1,,2662.3850000238454,response,ISIC_0069591.JPG,,ISIC_3394080.JPG,ISIC_3394080.JPG,false,0,keypress(z),500,170282.69999998808,170282.60000002384,167603.312,167611.60000002384,167620.215,170286.724,6,300,35,,ISIC_0069591.JPG
break,html.Screen,4_34_1,2023-05-01T16:13:41.679Z,,0,,,NaN,,,,,,false,,,,170283,170282.90000003576,,170282.80000001192,,170286.724,6,300,,,
break_continue,html.Screen,4_34_2,2023-05-01T16:13:41.680Z,,0,,,NaN,,,,,,false,,,,170283.30000001192,170283.19999998808,,170283.10000002384,,170286.724,6,300,,,
sequence,flow.Sequence,4_34,2023-05-01T16:13:41.680Z,,0,,,2662.9849999880826,completion,,,,,false,,,,170283.30000001192,170283.19999998808,167603.312,167611.60000002384,167620.215,170286.724,6,300,,,
trial,html.Screen,4_35_0,2023-05-01T16:13:44.376Z,,0,1,,2692.5760000119335,response,ISIC_0033512.JPG,,ISIC_5363229.JPG,ISIC_0033512.JPG,false,1,keypress(m),500,172979.40000003576,172979.30000001192,170270.171,170283.40000003576,170286.724,172986.895,6,300,36,,ISIC_5363229.JPG
break,html.Screen,4_35_1,2023-05-01T16:13:44.376Z,,0,,,NaN,,,,,,false,,,,172979.80000001192,172979.69999998808,,172979.5,,172986.895,6,300,,,
break_continue,html.Screen,4_35_2,2023-05-01T16:13:44.376Z,,0,,,NaN,,,,,,false,,,,172980,172979.90000003576,,172979.80000001192,,172986.895,6,300,,,
sequence,flow.Sequence,4_35,2023-05-01T16:13:44.376Z,,0,,,2693.1760000357754,completion,,,,,false,,,,172980.10000002384,172979.90000003576,170270.171,170283.40000003576,170286.724,172986.895,6,300,,,
trial,html.Screen,4_36_0,2023-05-01T16:13:47.047Z,,0,1,,2663.7050000238523,response,ISIC_5347727.JPG,,ISIC_7714981.JPG,ISIC_7714981.JPG,false,0,keypress(z),500,175650.80000001192,175650.60000002384,172970.139,172980.10000002384,172986.895,175653.386,6,300,37,,ISIC_5347727.JPG
break,html.Screen,4_36_1,2023-05-01T16:13:47.047Z,,0,,,NaN,,,,,,false,,,,175651,175651,,175650.90000003576,,175653.386,6,300,,,
break_continue,html.Screen,4_36_2,2023-05-01T16:13:47.048Z,,0,,,NaN,,,,,,false,,,,175651.19999998808,175651.19999998808,,175651.10000002384,,175653.386,6,300,,,
sequence,flow.Sequence,4_36,2023-05-01T16:13:47.048Z,,0,,,2664.3049999880895,completion,,,,,false,,,,175651.40000003576,175651.19999998808,172970.139,172980.10000002384,172986.895,175653.386,6,300,,,
trial,html.Screen,4_37_0,2023-05-01T16:13:49.799Z,,0,1,,2749.7140000238433,response,ISIC_0786233.JPG,,ISIC_9382494.JPG,ISIC_0786233.JPG,false,1,keypress(m),500,178403.19999998808,178403.10000002384,175636.846,175651.5,175653.386,178420.144,6,300,38,,ISIC_9382494.JPG
break,html.Screen,4_37_1,2023-05-01T16:13:49.800Z,,0,,,NaN,,,,,,false,,,,178403.5,178403.40000003576,,178403.30000001192,,178420.144,6,300,,,
break_continue,html.Screen,4_37_2,2023-05-01T16:13:49.800Z,,0,,,NaN,,,,,,false,,,,178403.80000001192,178403.60000002384,,178403.60000002384,,178420.144,6,300,,,
sequence,flow.Sequence,4_37,2023-05-01T16:13:49.800Z,,0,,,2750.2140000238433,completion,,,,,false,,,,178403.80000001192,178403.60000002384,175636.846,175651.5,175653.386,178420.144,6,300,,,
trial,html.Screen,4_38_0,2023-05-01T16:13:52.471Z,,0,1,,2654.7560000357626,response,ISIC_8127578.JPG,,ISIC_0032982.JPG,ISIC_8127578.JPG,false,1,keypress(m),500,181075,181074.90000003576,178403.372,178403.90000003576,178420.144,181086.974,6,300,39,,ISIC_0032982.JPG
break,html.Screen,4_38_1,2023-05-01T16:13:52.472Z,,0,,,NaN,,,,,,false,,,,181075.30000001192,181075.19999998808,,181075.10000002384,,181086.974,6,300,,,
break_continue,html.Screen,4_38_2,2023-05-01T16:13:52.472Z,,0,,,NaN,,,,,,false,,,,181075.60000002384,181075.5,,181075.40000003576,,181086.974,6,300,,,
sequence,flow.Sequence,4_38,2023-05-01T16:13:52.472Z,,0,,,2655.3559999999998,completion,,,,,false,,,,181075.60000002384,181075.5,178403.372,178403.90000003576,178420.144,181086.974,6,300,,,
trial,html.Screen,4_39_0,2023-05-01T16:13:54.975Z,,0,1,,2491.6260000238544,response,ISIC_0014920.JPG,,ISIC_0030663.JPG,ISIC_0030663.JPG,false,0,keypress(z),500,183578.69999998808,183578.60000002384,181070.212,181075.69999998808,181086.974,183586.923,6,300,40,,ISIC_0014920.JPG
break,html.Screen,4_39_1,2023-05-01T16:13:54.975Z,,0,,,NaN,,,,,,false,,,,183579,183578.90000003576,,183578.80000001192,,183586.923,6,300,,,
break_continue,html.Screen,4_39_2,2023-05-01T16:13:54.975Z,,0,,,NaN,,,,,,false,,,,183579.19999998808,183579.19999998808,,183579,,183586.923,6,300,,,
sequence,flow.Sequence,4_39,2023-05-01T16:13:54.975Z,,0,,,2492.2259999880916,completion,,,,,false,,,,183579.40000003576,183579.19999998808,181070.212,181075.69999998808,181086.974,183586.923,6,300,,,
trial,html.Screen,4_40_0,2023-05-01T16:13:57.559Z,,0,1,,2576.2769999880693,response,ISIC_0032779.JPG,,ISIC_0010730.JPG,ISIC_0010730.JPG,false,0,keypress(z),500,186163.30000001192,186163.19999998808,183569.972,183579.40000003576,183586.923,186170.232,6,300,41,,ISIC_0032779.JPG
break,html.Screen,4_40_1,2023-05-01T16:13:57.560Z,,0,,,NaN,,,,,,false,,,,186163.5,186163.5,,186163.30000001192,,186170.232,6,300,,,
break_continue,html.Screen,4_40_2,2023-05-01T16:13:57.560Z,,0,,,NaN,,,,,,false,,,,186163.80000001192,186163.69999998808,,186163.60000002384,,186170.232,6,300,,,
sequence,flow.Sequence,4_40,2023-05-01T16:13:57.560Z,,0,,,2576.7769999880693,completion,,,,,false,,,,186163.90000003576,186163.69999998808,183569.972,183579.40000003576,183586.923,186170.232,6,300,,,
trial,html.Screen,4_41_0,2023-05-01T16:14:00.095Z,,0,1,,2528.6680000357737,response,ISIC_0025324.JPG,,ISIC_5055871.JPG,ISIC_5055871.JPG,false,0,keypress(z),500,188699,188698.90000003576,186153.558,186164,186170.232,188703.434,6,300,42,,ISIC_0025324.JPG
break,html.Screen,4_41_1,2023-05-01T16:14:00.095Z,,0,,,NaN,,,,,,false,,,,188699.30000001192,188699.19999998808,,188699,,188703.434,6,300,,,
break_continue,html.Screen,4_41_2,2023-05-01T16:14:00.095Z,,0,,,NaN,,,,,,false,,,,188699.40000003576,188699.30000001192,,188699.30000001192,,188703.434,6,300,,,
sequence,flow.Sequence,4_41,2023-05-01T16:14:00.096Z,,0,,,2529.068000011932,completion,,,,,false,,,,188699.60000002384,188699.30000001192,186153.558,186164,186170.232,188703.434,6,300,,,
trial,html.Screen,4_42_0,2023-05-01T16:14:05.422Z,,0,1,,5322.966000035754,response,ISIC_0004728.JPG,,ISIC_2936321.JPG,ISIC_2936321.JPG,false,0,keypress(z),500,194026.5,194026.40000003576,188686.867,188699.60000002384,188703.434,194036.783,6,300,43,,ISIC_0004728.JPG
break,html.Screen,4_42_1,2023-05-01T16:14:05.423Z,,0,,,NaN,,,,,,false,,,,194026.80000001192,194026.69999998808,,194026.60000002384,,194036.783,6,300,,,
break_continue,html.Screen,4_42_2,2023-05-01T16:14:05.423Z,,0,,,NaN,,,,,,false,,,,194027.10000002384,194027,,194026.90000003576,,194036.783,6,300,,,
sequence,flow.Sequence,4_42,2023-05-01T16:14:05.423Z,,0,,,5323.565999999992,completion,,,,,false,,,,194027.19999998808,194027,188686.867,188699.60000002384,188703.434,194036.783,6,300,,,
trial,html.Screen,4_43_0,2023-05-01T16:14:08.287Z,,0,1,,2853.9169999880833,response,ISIC_0026780.JPG,,ISIC_2050512.JPG,ISIC_2050512.JPG,false,0,keypress(z),500,196890.69999998808,196890.69999998808,194020.236,194027.19999998808,194036.783,196903.575,6,300,44,,ISIC_0026780.JPG
break,html.Screen,4_43_1,2023-05-01T16:14:08.287Z,,0,,,NaN,,,,,,false,,,,196891,196891,,196890.90000003576,,196903.575,6,300,,,
break_continue,html.Screen,4_43_2,2023-05-01T16:14:08.287Z,,0,,,NaN,,,,,,false,,,,196891.30000001192,196891.10000002384,,196891.10000002384,,196903.575,6,300,,,
sequence,flow.Sequence,4_43,2023-05-01T16:14:08.287Z,,0,,,2854.317000023846,completion,,,,,false,,,,196891.40000003576,196891.10000002384,194020.236,194027.19999998808,194036.783,196903.575,6,300,,,
trial,html.Screen,4_44_0,2023-05-01T16:14:11.055Z,,0,1,,2755.825000035751,response,ISIC_6370597.JPG,,ISIC_1470250.JPG,ISIC_1470250.JPG,false,0,keypress(z),500,199659.40000003576,199659.40000003576,196886.914,196891.40000003576,196903.575,199670.263,6,300,45,,ISIC_6370597.JPG
break,html.Screen,4_44_1,2023-05-01T16:14:11.056Z,,0,,,NaN,,,,,,false,,,,199659.80000001192,199659.69999998808,,199659.60000002384,,199670.263,6,300,,,
break_continue,html.Screen,4_44_2,2023-05-01T16:14:11.056Z,,0,,,NaN,,,,,,false,,,,199660,199659.80000001192,,199659.80000001192,,199670.263,6,300,,,
sequence,flow.Sequence,4_44,2023-05-01T16:14:11.056Z,,0,,,2756.2250000119093,completion,,,,,false,,,,199660.10000002384,199659.80000001192,196886.914,196891.40000003576,196903.575,199670.263,6,300,,,
trial,html.Screen,4_45_0,2023-05-01T16:14:13.759Z,,0,1,,2693.0370000119146,response,ISIC_0027507.JPG,,ISIC_0060897.JPG,ISIC_0060897.JPG,false,0,keypress(z),500,202363.40000003576,202363.30000001192,199653.374,199660.10000002384,199670.263,202370.25,6,300,46,,ISIC_0027507.JPG
break,html.Screen,4_45_1,2023-05-01T16:14:13.760Z,,0,,,NaN,,,,,,false,,,,202363.80000001192,202363.60000002384,,202363.5,,202370.25,6,300,,,
break_continue,html.Screen,4_45_2,2023-05-01T16:14:13.760Z,,0,,,NaN,,,,,,false,,,,202364,202363.90000003576,,202363.80000001192,,202370.25,6,300,,,
sequence,flow.Sequence,4_45,2023-05-01T16:14:13.760Z,,0,,,2693.6370000357565,completion,,,,,false,,,,202364.10000002384,202363.90000003576,199653.374,199660.10000002384,199670.263,202370.25,6,300,,,
trial,html.Screen,4_46_0,2023-05-01T16:14:16.375Z,,0,1,,2608.650000035763,response,ISIC_0032413.JPG,,ISIC_1231419.JPG,ISIC_0032413.JPG,false,1,keypress(m),500,204979,204978.90000003576,202353.562,202364.19999998808,202370.25,204986.945,6,300,47,,ISIC_1231419.JPG
break,html.Screen,4_46_1,2023-05-01T16:14:16.375Z,,0,,,NaN,,,,,,false,,,,204979.30000001192,204979.19999998808,,204979.10000002384,,204986.945,6,300,,,
break_continue,html.Screen,4_46_2,2023-05-01T16:14:16.376Z,,0,,,NaN,,,,,,false,,,,204979.60000002384,204979.5,,204979.40000003576,,204986.945,6,300,,,
sequence,flow.Sequence,4_46,2023-05-01T16:14:16.376Z,,0,,,2609.25,completion,,,,,false,,,,204979.69999998808,204979.5,202353.562,202364.19999998808,202370.25,204986.945,6,300,,,
trial,html.Screen,4_47_0,2023-05-01T16:14:19.072Z,,0,1,,2689.355000011914,response,ISIC_0010011.JPG,,ISIC_0054239.JPG,ISIC_0010011.JPG,false,1,keypress(m),500,207676.5,207676.30000001192,204970.225,204979.80000001192,204986.945,207686.951,6,300,48,,ISIC_0054239.JPG
break,html.Screen,4_47_1,2023-05-01T16:14:19.073Z,,0,,,NaN,,,,,,false,,,,207676.69999998808,207676.60000002384,,207676.5,,207686.951,6,300,,,
break_continue,html.Screen,4_47_2,2023-05-01T16:14:19.073Z,,0,,,NaN,,,,,,false,,,,207676.80000001192,207676.69999998808,,207676.69999998808,,207686.951,6,300,,,
sequence,flow.Sequence,4_47,2023-05-01T16:14:19.073Z,,0,,,2689.754999988072,completion,,,,,false,,,,207676.90000003576,207676.69999998808,204970.225,204979.80000001192,204986.945,207686.951,6,300,,,
trial,html.Screen,4_48_0,2023-05-01T16:14:21.591Z,,0,1,,2507.449000035762,response,ISIC_0872145.JPG,,ISIC_7319169.JPG,ISIC_0872145.JPG,false,1,keypress(m),500,210194.5,210194.40000003576,207670.262,207677,207686.951,210203.556,6,300,49,,ISIC_7319169.JPG
break,html.Screen,4_48_1,2023-05-01T16:14:21.591Z,,0,,,NaN,,,,,,false,,,,210194.80000001192,210194.69999998808,,210194.60000002384,,210203.556,6,300,,,
break_continue,html.Screen,4_48_2,2023-05-01T16:14:21.591Z,,0,,,NaN,,,,,,false,,,,210195.10000002384,210195,,210194.90000003576,,210203.556,6,300,,,
sequence,flow.Sequence,4_48,2023-05-01T16:14:21.591Z,,0,,,2508.048999999999,completion,,,,,false,,,,210195.19999998808,210195,207670.262,207677,207686.951,210203.556,6,300,,,
trial,html.Screen,4_49_0,2023-05-01T16:14:24.375Z,,0,1,,2775.2440000119095,response,ISIC_0010198.JPG,,ISIC_7108282.JPG,ISIC_7108282.JPG,false,0,keypress(z),500,212979,212978.80000001192,210186.883,210195.30000001192,210203.556,212986.785,6,300,50,,ISIC_0010198.JPG
break,html.Screen,4_49_1,2023-05-01T16:14:29.367Z,,0,,,5000.176000000007,timeout,,,,,false,,,,217970.80000001192,217970.277,212970.21,212979,212986.785,217986.961,6,300,,,
break_continue,html.Screen,4_49_2,2023-05-01T16:14:32.527Z,,0,,,3139.0389999999898,response,,,,,false,continue,keypress(Space),,221130.90000003576,221126,217970.277,217970.90000003576,217986.961,221136.735,6,300,,,
sequence,flow.Sequence,4_49,2023-05-01T16:14:32.527Z,,0,,,10922.443999999989,completion,,,,,false,,,,221131,221126,210186.883,210195.30000001192,210203.556,221136.735,6,300,,,
trial,html.Screen,4_50_0,2023-05-01T16:14:35.351Z,,0,2,,2818.1650000357768,response,ISIC_6370977.JPG,,ISIC_0025451.JPG,ISIC_6370977.JPG,false,1,keypress(m),500,223955.10000002384,223954.90000003576,221120.129,221131.10000002384,221136.735,223970.29,6,300,1,,ISIC_0025451.JPG
break,html.Screen,4_50_1,2023-05-01T16:14:35.351Z,,0,,,NaN,,,,,,false,,,,223955.40000003576,223955.30000001192,,223955.10000002384,,223970.29,6,300,,,
break_continue,html.Screen,4_50_2,2023-05-01T16:14:35.352Z,,0,,,NaN,,,,,,false,,,,223955.60000002384,223955.5,,223955.5,,223970.29,6,300,,,
sequence,flow.Sequence,4_50,2023-05-01T16:14:35.352Z,,0,,,2818.765000000014,completion,,,,,false,,,,223955.69999998808,223955.5,221120.129,221131.10000002384,221136.735,223970.29,6,300,,,
trial,html.Screen,4_51_0,2023-05-01T16:14:38.207Z,,0,2,,2841.010000011913,response,ISIC_9441572.JPG,,ISIC_0060696.JPG,ISIC_9441572.JPG,false,1,keypress(m),500,226811.30000001192,226811.30000001192,223953.608,223955.80000001192,223970.29,226820.278,6,300,2,,ISIC_0060696.JPG
break,html.Screen,4_51_1,2023-05-01T16:14:38.208Z,,0,,,NaN,,,,,,false,,,,226811.80000001192,226811.60000002384,,226811.40000003576,,226820.278,6,300,,,
break_continue,html.Screen,4_51_2,2023-05-01T16:14:38.208Z,,0,,,NaN,,,,,,false,,,,226812.10000002384,226811.90000003576,,226811.80000001192,,226820.278,6,300,,,
sequence,flow.Sequence,4_51,2023-05-01T16:14:38.208Z,,0,,,2841.6100000357546,completion,,,,,false,,,,226812.19999998808,226811.90000003576,223953.608,223955.80000001192,223970.29,226820.278,6,300,,,
trial,html.Screen,4_52_0,2023-05-01T16:14:40.815Z,,0,2,,2599.02200001193,response,ISIC_0032982.JPG,,ISIC_9895220.JPG,ISIC_9895220.JPG,false,0,keypress(z),500,229419.40000003576,229419.30000001192,226803.628,226812.30000001192,226820.278,229448.145,6,300,3,,ISIC_0032982.JPG
break,html.Screen,4_52_1,2023-05-01T16:14:40.816Z,,0,,,NaN,,,,,,false,,,,229419.69999998808,229419.69999998808,,229419.5,,229448.145,6,300,,,
break_continue,html.Screen,4_52_2,2023-05-01T16:14:40.816Z,,0,,,NaN,,,,,,false,,,,229419.90000003576,229419.80000001192,,229419.80000001192,,229448.145,6,300,,,
sequence,flow.Sequence,4_52,2023-05-01T16:14:40.816Z,,0,,,2599.52200001193,completion,,,,,false,,,,229420,229419.80000001192,226803.628,226812.30000001192,226820.278,229448.145,6,300,,,
trial,html.Screen,4_53_0,2023-05-01T16:14:43.775Z,,0,2,,2931.1550000119314,response,ISIC_0033759.JPG,,ISIC_0912291.JPG,ISIC_0912291.JPG,false,0,keypress(z),500,232379.30000001192,232379.30000001192,229403.652,229420,229448.145,232386.97,6,300,4,,ISIC_0033759.JPG
break,html.Screen,4_53_1,2023-05-01T16:14:43.776Z,,0,,,NaN,,,,,,false,,,,232379.60000002384,232379.5,,232379.40000003576,,232386.97,6,300,,,
break_continue,html.Screen,4_53_2,2023-05-01T16:14:43.776Z,,0,,,NaN,,,,,,false,,,,232379.90000003576,232379.69999998808,,232379.69999998808,,232386.97,6,300,,,
sequence,flow.Sequence,4_53,2023-05-01T16:14:43.776Z,,0,,,2931.5549999880895,completion,,,,,false,,,,232380,232379.69999998808,229403.652,229420,229448.145,232386.97,6,300,,,
trial,html.Screen,4_54_0,2023-05-01T16:14:46.279Z,,0,2,,2495.9300000357616,response,ISIC_0030817.JPG,,ISIC_9126343.JPG,ISIC_9126343.JPG,false,0,keypress(z),500,234883,234882.90000003576,232370.115,232380,232386.97,234886.843,6,300,5,,ISIC_0030817.JPG
break,html.Screen,4_54_1,2023-05-01T16:14:46.279Z,,0,,,NaN,,,,,,false,,,,234883.40000003576,234883.30000001192,,234883.10000002384,,234886.843,6,300,,,
break_continue,html.Screen,4_54_2,2023-05-01T16:14:46.280Z,,0,,,NaN,,,,,,false,,,,234883.60000002384,234883.5,,234883.40000003576,,234886.843,6,300,,,
sequence,flow.Sequence,4_54,2023-05-01T16:14:46.280Z,,0,,,2496.529999999999,completion,,,,,false,,,,234883.69999998808,234883.5,232370.115,232380,232386.97,234886.843,6,300,,,
trial,html.Screen,4_55_0,2023-05-01T16:14:48.719Z,,0,2,,2435.5570000357693,response,ISIC_5495413.JPG,,ISIC_1558504.JPG,ISIC_1558504.JPG,false,0,keypress(z),500,237322.5,237322.40000003576,234870.148,234883.69999998808,234886.843,237353.58,6,300,6,,ISIC_5495413.JPG
break,html.Screen,4_55_1,2023-05-01T16:14:48.719Z,,0,,,NaN,,,,,,false,,,,237322.80000001192,237322.69999998808,,237322.60000002384,,237353.58,6,300,,,
break_continue,html.Screen,4_55_2,2023-05-01T16:14:48.719Z,,0,,,NaN,,,,,,false,,,,237323,237322.90000003576,,237322.80000001192,,237353.58,6,300,,,
sequence,flow.Sequence,4_55,2023-05-01T16:14:48.719Z,,0,,,2436.0570000357693,completion,,,,,false,,,,237323,237322.90000003576,234870.148,234883.69999998808,234886.843,237353.58,6,300,,,
trial,html.Screen,4_56_0,2023-05-01T16:14:51.360Z,,0,2,,2610.0200000238547,response,ISIC_0054974.JPG,,ISIC_7980387.JPG,ISIC_7980387.JPG,false,0,keypress(z),500,239963.69999998808,239963.60000002384,237336.878,237323,237353.58,239970.286,6,300,7,,ISIC_0054974.JPG
break,html.Screen,4_56_1,2023-05-01T16:14:51.360Z,,0,,,NaN,,,,,,false,,,,239963.90000003576,239963.90000003576,,239963.80000001192,,239970.286,6,300,,,
break_continue,html.Screen,4_56_2,2023-05-01T16:14:51.360Z,,0,,,NaN,,,,,,false,,,,239964.19999998808,239964.10000002384,,239964.10000002384,,239970.286,6,300,,,
sequence,flow.Sequence,4_56,2023-05-01T16:14:51.360Z,,0,,,2610.5200000238547,completion,,,,,false,,,,239964.40000003576,239964.10000002384,237336.878,237323,237353.58,239970.286,6,300,,,
trial,html.Screen,4_57_0,2023-05-01T16:14:53.638Z,,0,2,,2272.214000000007,response,ISIC_1068686.JPG,,ISIC_0012672.JPG,ISIC_0012672.JPG,false,0,keypress(z),500,242242.69999998808,242242.5,239953.601,239964.40000003576,239970.286,242270.115,6,300,8,,ISIC_1068686.JPG
break,html.Screen,4_57_1,2023-05-01T16:14:53.639Z,,0,,,NaN,,,,,,false,,,,242242.90000003576,242242.80000001192,,242242.69999998808,,242270.115,6,300,,,
break_continue,html.Screen,4_57_2,2023-05-01T16:14:53.639Z,,0,,,NaN,,,,,,false,,,,242243.10000002384,242243,,242242.90000003576,,242270.115,6,300,,,
sequence,flow.Sequence,4_57,2023-05-01T16:14:53.639Z,,0,,,2272.714000000007,completion,,,,,false,,,,242243.19999998808,242243,239953.601,239964.40000003576,239970.286,242270.115,6,300,,,
trial,html.Screen,4_58_0,2023-05-01T16:14:56.502Z,,0,2,,2836.485000023851,response,ISIC_0597218.JPG,,ISIC_5203791.JPG,ISIC_5203791.JPG,false,0,keypress(z),500,245106.69999998808,245106.60000002384,242253.483,242243.19999998808,242270.115,245120.302,6,300,9,,ISIC_0597218.JPG
break,html.Screen,4_58_1,2023-05-01T16:14:56.503Z,,0,,,NaN,,,,,,false,,,,245107,245107,,245106.80000001192,,245120.302,6,300,,,
break_continue,html.Screen,4_58_2,2023-05-01T16:14:56.503Z,,0,,,NaN,,,,,,false,,,,245107.30000001192,245107.10000002384,,245107,,245120.302,6,300,,,
sequence,flow.Sequence,4_58,2023-05-01T16:14:56.503Z,,0,,,2836.985000023851,completion,,,,,false,,,,245107.40000003576,245107.10000002384,242253.483,242243.19999998808,242270.115,245120.302,6,300,,,
trial,html.Screen,4_59_0,2023-05-01T16:14:59.134Z,,0,2,,2618.198000000004,response,ISIC_3389695.JPG,,ISIC_7329395.JPG,ISIC_3389695.JPG,false,1,keypress(m),500,247738.60000002384,247738.5,245103.678,245107.5,245120.302,247753.634,6,300,10,,ISIC_7329395.JPG
break,html.Screen,4_59_1,2023-05-01T16:14:59.135Z,,0,,,NaN,,,,,,false,,,,247738.90000003576,247738.80000001192,,247738.69999998808,,247753.634,6,300,,,
break_continue,html.Screen,4_59_2,2023-05-01T16:14:59.135Z,,0,,,NaN,,,,,,false,,,,247739.30000001192,247739.19999998808,,247739.10000002384,,247753.634,6,300,,,
sequence,flow.Sequence,4_59,2023-05-01T16:14:59.135Z,,0,,,2618.897999988083,completion,,,,,false,,,,247739.30000001192,247739.19999998808,245103.678,245107.5,245120.302,247753.634,6,300,,,
trial,html.Screen,4_60_0,2023-05-01T16:15:02.246Z,,0,2,,3096.966000023851,response,ISIC_0033216.JPG,,ISIC_0015193.JPG,ISIC_0033216.JPG,false,1,keypress(m),500,250850.60000002384,250850.60000002384,247736.987,247739.30000001192,247753.634,250853.437,6,300,11,,ISIC_0015193.JPG
break,html.Screen,4_60_1,2023-05-01T16:15:02.247Z,,0,,,NaN,,,,,,false,,,,250851,250850.90000003576,,250850.80000001192,,250853.437,6,300,,,
break_continue,html.Screen,4_60_2,2023-05-01T16:15:02.247Z,,0,,,NaN,,,,,,false,,,,250851.30000001192,250851.19999998808,,250851.19999998808,,250853.437,6,300,,,
sequence,flow.Sequence,4_60,2023-05-01T16:15:02.247Z,,0,,,3097.565999988088,completion,,,,,false,,,,250851.40000003576,250851.19999998808,247736.987,247739.30000001192,247753.634,250853.437,6,300,,,
trial,html.Screen,4_61_0,2023-05-01T16:15:05.127Z,,0,2,,2877.5629999999946,response,ISIC_0029453.JPG,,ISIC_0061379.JPG,ISIC_0061379.JPG,false,0,keypress(z),500,253731.10000002384,253731,250836.946,250851.5,250853.437,253736.843,6,300,12,,ISIC_0029453.JPG
break,html.Screen,4_61_1,2023-05-01T16:15:05.127Z,,0,,,NaN,,,,,,false,,,,253731.5,253731.30000001192,,253731.10000002384,,253736.843,6,300,,,
break_continue,html.Screen,4_61_2,2023-05-01T16:15:05.127Z,,0,,,NaN,,,,,,false,,,,253731.69999998808,253731.69999998808,,253731.5,,253736.843,6,300,,,
sequence,flow.Sequence,4_61,2023-05-01T16:15:05.128Z,,0,,,2878.2629999880737,completion,,,,,false,,,,253731.80000001192,253731.69999998808,250836.946,250851.5,250853.437,253736.843,6,300,,,
trial,html.Screen,4_62_0,2023-05-01T16:15:08.112Z,,0,2,,2979.3569999880856,response,ISIC_7945429.JPG,,ISIC_6062536.JPG,ISIC_7945429.JPG,false,1,keypress(m),500,256716.19999998808,256716.19999998808,253720.131,253731.90000003576,253736.843,256720.15,6,300,13,,ISIC_6062536.JPG
break,html.Screen,4_62_1,2023-05-01T16:15:08.112Z,,0,,,NaN,,,,,,false,,,,256716.60000002384,256716.40000003576,,256716.30000001192,,256720.15,6,300,,,
break_continue,html.Screen,4_62_2,2023-05-01T16:15:08.112Z,,0,,,NaN,,,,,,false,,,,256716.80000001192,256716.69999998808,,256716.60000002384,,256720.15,6,300,,,
sequence,flow.Sequence,4_62,2023-05-01T16:15:08.113Z,,0,,,2979.8569999880856,completion,,,,,false,,,,256716.90000003576,256716.69999998808,253720.131,253731.90000003576,253736.843,256720.15,6,300,,,
trial,html.Screen,4_63_0,2023-05-01T16:15:10.878Z,,0,2,,2762.1500000119267,response,ISIC_0069698.JPG,,ISIC_0030852.JPG,ISIC_0069698.JPG,false,1,keypress(m),500,259482.40000003576,259482.30000001192,256703.644,256716.90000003576,256720.15,259486.817,6,300,14,,ISIC_0030852.JPG
break,html.Screen,4_63_1,2023-05-01T16:15:10.878Z,,0,,,NaN,,,,,,false,,,,259482.69999998808,259482.60000002384,,259482.5,,259486.817,6,300,,,
break_continue,html.Screen,4_63_2,2023-05-01T16:15:10.879Z,,0,,,NaN,,,,,,false,,,,259483,259482.90000003576,,259482.80000001192,,259486.817,6,300,,,
sequence,flow.Sequence,4_63,2023-05-01T16:15:10.879Z,,0,,,2762.7500000357686,completion,,,,,false,,,,259483.10000002384,259482.90000003576,256703.644,256716.90000003576,256720.15,259486.817,6,300,,,
trial,html.Screen,4_64_0,2023-05-01T16:15:13.359Z,,0,2,,2476.283000023832,response,ISIC_0033268.JPG,,ISIC_5568525.JPG,ISIC_5568525.JPG,false,0,keypress(z),500,261963.19999998808,261963.10000002384,259470.299,259483.10000002384,259486.817,261970.27,6,300,15,,ISIC_0033268.JPG
break,html.Screen,4_64_1,2023-05-01T16:15:13.359Z,,0,,,NaN,,,,,,false,,,,261963.60000002384,261963.40000003576,,261963.19999998808,,261970.27,6,300,,,
break_continue,html.Screen,4_64_2,2023-05-01T16:15:13.360Z,,0,,,NaN,,,,,,false,,,,261963.80000001192,261963.80000001192,,261963.69999998808,,261970.27,6,300,,,
sequence,flow.Sequence,4_64,2023-05-01T16:15:13.360Z,,0,,,2476.983000011911,completion,,,,,false,,,,261963.90000003576,261963.80000001192,259470.299,259483.10000002384,259486.817,261970.27,6,300,,,
trial,html.Screen,4_65_0,2023-05-01T16:15:16.015Z,,0,2,,2648.4299999880895,response,ISIC_0028131.JPG,,ISIC_0000452.JPG,ISIC_0000452.JPG,false,0,keypress(z),500,264618.90000003576,264618.6999999881,261953.609,261963.90000003576,261970.27,264649.474,6,300,16,,ISIC_0028131.JPG
break,html.Screen,4_65_1,2023-05-01T16:15:16.015Z,,0,,,NaN,,,,,,false,,,,264619.1999999881,264619.10000002384,,264619,,264649.474,6,300,,,
break_continue,html.Screen,4_65_2,2023-05-01T16:15:16.015Z,,0,,,NaN,,,,,,false,,,,264619.5,264619.40000003576,,264619.3000000119,,264649.474,6,300,,,
sequence,flow.Sequence,4_65,2023-05-01T16:15:16.015Z,,0,,,2649.1300000357733,completion,,,,,false,,,,264619.60000002384,264619.40000003576,261953.609,261963.90000003576,261970.27,264649.474,6,300,,,
trial,html.Screen,4_66_0,2023-05-01T16:15:18.583Z,,0,2,,2537.5260000000126,response,ISIC_0030900.JPG,,ISIC_0357043.JPG,ISIC_0357043.JPG,false,0,keypress(z),500,267187.10000002384,267187,264603.644,264619.60000002384,264649.474,267203.646,6,300,17,,ISIC_0030900.JPG
break,html.Screen,4_66_1,2023-05-01T16:15:18.583Z,,0,,,NaN,,,,,,false,,,,267187.5,267187.3000000119,,267187.1999999881,,267203.646,6,300,,,
break_continue,html.Screen,4_66_2,2023-05-01T16:15:18.583Z,,0,,,NaN,,,,,,false,,,,267187.8000000119,267187.60000002384,,267187.5,,267203.646,6,300,,,
sequence,flow.Sequence,4_66,2023-05-01T16:15:18.584Z,,0,,,2538.1260000238544,completion,,,,,false,,,,267187.8000000119,267187.60000002384,264603.644,264619.60000002384,264649.474,267203.646,6,300,,,
trial,html.Screen,4_67_0,2023-05-01T16:15:21.455Z,,0,2,,2855.154000011913,response,ISIC_0072021.JPG,,ISIC_6710082.JPG,ISIC_0072021.JPG,false,1,keypress(m),500,270058.90000003576,270058.8000000119,267187.006,267187.8000000119,267203.646,270070.321,6,300,18,,ISIC_6710082.JPG
break,html.Screen,4_67_1,2023-05-01T16:15:21.455Z,,0,,,NaN,,,,,,false,,,,270059.3000000119,270059.10000002384,,270059,,270070.321,6,300,,,
break_continue,html.Screen,4_67_2,2023-05-01T16:15:21.455Z,,0,,,NaN,,,,,,false,,,,270059.60000002384,270059.5,,270059.40000003576,,270070.321,6,300,,,
sequence,flow.Sequence,4_67,2023-05-01T16:15:21.455Z,,0,,,2855.853999999992,completion,,,,,false,,,,270059.6999999881,270059.5,267187.006,267187.8000000119,267203.646,270070.321,6,300,,,
trial,html.Screen,4_68_0,2023-05-01T16:15:23.911Z,,0,2,,2444.878999988083,response,ISIC_0028781.JPG,,ISIC_1254469.JPG,ISIC_1254469.JPG,false,0,keypress(z),500,272515.3000000119,272515.1999999881,270053.598,270059.6999999881,270070.321,272520.11,6,300,19,,ISIC_0028781.JPG
break,html.Screen,4_68_1,2023-05-01T16:15:23.911Z,,0,,,NaN,,,,,,false,,,,272515.6999999881,272515.5,,272515.40000003576,,272520.11,6,300,,,
break_continue,html.Screen,4_68_2,2023-05-01T16:15:23.912Z,,0,,,NaN,,,,,,false,,,,272516.10000002384,272515.90000003576,,272515.8000000119,,272520.11,6,300,,,
sequence,flow.Sequence,4_68,2023-05-01T16:15:23.912Z,,0,,,2445.5790000357665,completion,,,,,false,,,,272516.1999999881,272515.90000003576,270053.598,270059.6999999881,270070.321,272520.11,6,300,,,
trial,html.Screen,4_69_0,2023-05-01T16:15:26.479Z,,0,2,,2563.190000011935,response,ISIC_9668514.JPG,,ISIC_7397447.JPG,ISIC_9668514.JPG,false,1,keypress(m),500,275083.3000000119,275083.3000000119,272503.635,272516.3000000119,272520.11,275086.865,6,300,20,,ISIC_7397447.JPG
break,html.Screen,4_69_1,2023-05-01T16:15:26.479Z,,0,,,NaN,,,,,,false,,,,275083.6999999881,275083.5,,275083.40000003576,,275086.865,6,300,,,
break_continue,html.Screen,4_69_2,2023-05-01T16:15:26.479Z,,0,,,NaN,,,,,,false,,,,275083.8000000119,275083.6999999881,,275083.6999999881,,275086.865,6,300,,,
sequence,flow.Sequence,4_69,2023-05-01T16:15:26.480Z,,0,,,2563.589999988093,completion,,,,,false,,,,275083.8000000119,275083.6999999881,272503.635,272516.1999999881,272520.11,275086.865,6,300,,,
trial,html.Screen,4_70_0,2023-05-01T16:15:28.975Z,,0,2,,2492.735000023851,response,ISIC_0523125.JPG,,ISIC_0062762.JPG,ISIC_0523125.JPG,false,1,keypress(m),500,277579.6999999881,277579.60000002384,275070.331,275083.8000000119,275086.865,277586.913,6,300,21,,ISIC_0062762.JPG
break,html.Screen,4_70_1,2023-05-01T16:15:28.976Z,,0,,,NaN,,,,,,false,,,,277580,277579.90000003576,,277579.8000000119,,277586.913,6,300,,,
break_continue,html.Screen,4_70_2,2023-05-01T16:15:28.976Z,,0,,,NaN,,,,,,false,,,,277580.1999999881,277580.1999999881,,277580.10000002384,,277586.913,6,300,,,
sequence,flow.Sequence,4_70,2023-05-01T16:15:28.976Z,,0,,,2493.3349999880884,completion,,,,,false,,,,277580.3000000119,277580.1999999881,275070.331,275083.8000000119,275086.865,277586.913,6,300,,,
trial,html.Screen,4_71_0,2023-05-01T16:15:31.447Z,,0,2,,2463.7869999880786,response,ISIC_0046316.JPG,,ISIC_0061265.JPG,ISIC_0061265.JPG,false,0,keypress(z),500,280050.8000000119,280050.6999999881,277570.266,277580.40000003576,277586.913,280070.33,6,300,22,,ISIC_0046316.JPG
break,html.Screen,4_71_1,2023-05-01T16:15:31.447Z,,0,,,NaN,,,,,,false,,,,280051.10000002384,280051,,280050.90000003576,,280070.33,6,300,,,
break_continue,html.Screen,4_71_2,2023-05-01T16:15:31.447Z,,0,,,NaN,,,,,,false,,,,280051.3000000119,280051.1999999881,,280051.10000002384,,280070.33,6,300,,,
sequence,flow.Sequence,4_71,2023-05-01T16:15:31.447Z,,0,,,2464.2869999880786,completion,,,,,false,,,,280051.40000003576,280051.1999999881,277570.266,277580.40000003576,277586.913,280070.33,6,300,,,
trial,html.Screen,4_72_0,2023-05-01T16:15:33.942Z,,0,2,,2476.0700000357465,response,ISIC_8935085.JPG,,ISIC_2876105.JPG,ISIC_8935085.JPG,false,1,keypress(m),500,282546.5,282546.40000003576,280053.628,280051.40000003576,280070.33,282570.337,6,300,23,,ISIC_2876105.JPG
break,html.Screen,4_72_1,2023-05-01T16:15:33.942Z,,0,,,NaN,,,,,,false,,,,282546.8000000119,282546.6999999881,,282546.60000002384,,282570.337,6,300,,,
break_continue,html.Screen,4_72_2,2023-05-01T16:15:33.943Z,,0,,,NaN,,,,,,false,,,,282546.90000003576,282546.90000003576,,282546.8000000119,,282570.337,6,300,,,
sequence,flow.Sequence,4_72,2023-05-01T16:15:33.943Z,,0,,,2476.5700000357465,completion,,,,,false,,,,282547,282546.90000003576,280053.628,280051.40000003576,280070.33,282570.337,6,300,,,
trial,html.Screen,4_73_0,2023-05-01T16:15:36.502Z,,0,2,,2536.0630000357633,response,ISIC_0033245.JPG,,ISIC_0064141.JPG,ISIC_0064141.JPG,false,0,keypress(z),500,285106.5,285106.40000003576,282553.633,282547,282570.337,285120.346,6,300,24,,ISIC_0033245.JPG
break,html.Screen,4_73_1,2023-05-01T16:15:36.502Z,,0,,,NaN,,,,,,false,,,,285106.8000000119,285106.6999999881,,285106.60000002384,,285120.346,6,300,,,
break_continue,html.Screen,4_73_2,2023-05-01T16:15:36.503Z,,0,,,NaN,,,,,,false,,,,285107,285106.90000003576,,285106.8000000119,,285120.346,6,300,,,
sequence,flow.Sequence,4_73,2023-05-01T16:15:36.503Z,,0,,,2536.5630000357633,completion,,,,,false,,,,285107.10000002384,285106.90000003576,282553.633,282547,282570.337,285120.346,6,300,,,
trial,html.Screen,4_74_0,2023-05-01T16:15:39.102Z,,0,2,,2586.1539999999804,response,ISIC_0064821.JPG,,ISIC_0012057.JPG,ISIC_0012057.JPG,false,0,keypress(z),500,287706.5,287706.5,285103.694,285107.10000002384,285120.346,287720.345,6,300,25,,ISIC_0064821.JPG
break,html.Screen,4_74_1,2023-05-01T16:15:39.103Z,,0,,,NaN,,,,,,false,,,,287706.8000000119,287706.8000000119,,287706.6999999881,,287720.345,6,300,,,
break_continue,html.Screen,4_74_2,2023-05-01T16:15:39.103Z,,0,,,NaN,,,,,,false,,,,287707.10000002384,287707,,287706.90000003576,,287720.345,6,300,,,
sequence,flow.Sequence,4_74,2023-05-01T16:15:39.103Z,,0,,,2586.6539999999804,completion,,,,,false,,,,287707.1999999881,287707,285103.694,285107.10000002384,285120.346,287720.345,6,300,,,
trial,html.Screen,4_75_0,2023-05-01T16:15:41.710Z,,0,2,,2594.0550000357907,response,ISIC_3328295.JPG,,ISIC_0072564.JPG,ISIC_3328295.JPG,false,1,keypress(m),500,290314.5,290314.40000003576,287703.691,287707.3000000119,287720.345,290320.303,6,300,26,,ISIC_0072564.JPG
break,html.Screen,4_75_1,2023-05-01T16:15:41.711Z,,0,,,NaN,,,,,,false,,,,290314.8000000119,290314.6999999881,,290314.60000002384,,290320.303,6,300,,,
break_continue,html.Screen,4_75_2,2023-05-01T16:15:41.711Z,,0,,,NaN,,,,,,false,,,,290315.10000002384,290315,,290314.90000003576,,290320.303,6,300,,,
sequence,flow.Sequence,4_75,2023-05-01T16:15:41.711Z,,0,,,2594.655000000028,completion,,,,,false,,,,290315.3000000119,290315,287703.691,287707.1999999881,287720.345,290320.303,6,300,,,
trial,html.Screen,4_76_0,2023-05-01T16:15:44.359Z,,0,2,,2642.9970000119065,response,ISIC_8646115.JPG,,ISIC_6414435.JPG,ISIC_6414435.JPG,false,0,keypress(z),500,292963.40000003576,292963.3000000119,290303.666,290315.3000000119,290320.303,292970.346,6,300,27,,ISIC_8646115.JPG
break,html.Screen,4_76_1,2023-05-01T16:15:44.359Z,,0,,,NaN,,,,,,false,,,,292963.6999999881,292963.60000002384,,292963.5,,292970.346,6,300,,,
break_continue,html.Screen,4_76_2,2023-05-01T16:15:44.360Z,,0,,,NaN,,,,,,false,,,,292963.90000003576,292963.8000000119,,292963.6999999881,,292970.346,6,300,,,
sequence,flow.Sequence,4_76,2023-05-01T16:15:44.360Z,,0,,,2643.4970000119065,completion,,,,,false,,,,292964,292963.8000000119,290303.666,290315.3000000119,290320.303,292970.346,6,300,,,
trial,html.Screen,4_77_0,2023-05-01T16:15:48.310Z,,0,2,,3943.9540000119014,response,ISIC_0027769.JPG,,ISIC_9688534.JPG,ISIC_9688534.JPG,false,0,keypress(z),500,296914.3000000119,296914.3000000119,292953.682,292964.10000002384,292970.346,296920.313,6,300,28,,ISIC_0027769.JPG
break,html.Screen,4_77_1,2023-05-01T16:15:48.310Z,,0,,,NaN,,,,,,false,,,,296914.6999999881,296914.60000002384,,296914.5,,296920.313,6,300,,,
break_continue,html.Screen,4_77_2,2023-05-01T16:15:48.311Z,,0,,,NaN,,,,,,false,,,,296915,296914.90000003576,,296914.90000003576,,296920.313,6,300,,,
sequence,flow.Sequence,4_77,2023-05-01T16:15:48.311Z,,0,,,3944.5540000357432,completion,,,,,false,,,,296915.10000002384,296914.90000003576,292953.682,292964.10000002384,292970.346,296920.313,6,300,,,
trial,html.Screen,4_78_0,2023-05-01T16:15:51.535Z,,0,2,,3218.787000023818,response,ISIC_0024398.JPG,,ISIC_0072691.JPG,ISIC_0024398.JPG,false,1,keypress(m),500,300139.3000000119,300139.10000002384,296903.598,296915.10000002384,296920.313,300153.68,6,300,29,,ISIC_0072691.JPG
break,html.Screen,4_78_1,2023-05-01T16:15:51.535Z,,0,,,NaN,,,,,,false,,,,300139.60000002384,300139.5,,300139.3000000119,,300153.68,6,300,,,
break_continue,html.Screen,4_78_2,2023-05-01T16:15:51.536Z,,0,,,NaN,,,,,,false,,,,300139.8000000119,300139.8000000119,,300139.6999999881,,300153.68,6,300,,,
sequence,flow.Sequence,4_78,2023-05-01T16:15:51.536Z,,0,,,3219.487000011897,completion,,,,,false,,,,300140,300139.8000000119,296903.598,296915.10000002384,296920.313,300153.68,6,300,,,
trial,html.Screen,4_79_0,2023-05-01T16:15:54.462Z,,0,2,,2913.019999988086,response,ISIC_0068975.JPG,,ISIC_9699615.JPG,ISIC_0068975.JPG,false,1,keypress(m),500,303066.8000000119,303066.6999999881,300137.007,300140,300153.68,303070.205,6,300,30,,ISIC_9699615.JPG
break,html.Screen,4_79_1,2023-05-01T16:15:54.462Z,,0,,,NaN,,,,,,false,,,,303067,303067,,303066.8000000119,,303070.205,6,300,,,
break_continue,html.Screen,4_79_2,2023-05-01T16:15:54.463Z,,0,,,NaN,,,,,,false,,,,303067.1999999881,303067.1999999881,,303067,,303070.205,6,300,,,
sequence,flow.Sequence,4_79,2023-05-01T16:15:54.463Z,,0,,,2913.519999988086,completion,,,,,false,,,,303067.3000000119,303067.1999999881,300137.007,300140,300153.68,303070.205,6,300,,,
trial,html.Screen,4_80_0,2023-05-01T16:15:56.918Z,,0,2,,2451.994999988063,response,ISIC_8642938.JPG,,ISIC_7814144.JPG,ISIC_7814144.JPG,false,0,keypress(z),500,305522.3000000119,305522.1999999881,303053.633,303067.40000003576,303070.205,305537.043,6,300,31,,ISIC_8642938.JPG
break,html.Screen,4_80_1,2023-05-01T16:15:56.918Z,,0,,,NaN,,,,,,false,,,,305522.6999999881,305522.5,,305522.40000003576,,305537.043,6,300,,,
break_continue,html.Screen,4_80_2,2023-05-01T16:15:56.918Z,,0,,,NaN,,,,,,false,,,,305523,305522.90000003576,,305522.8000000119,,305537.043,6,300,,,
sequence,flow.Sequence,4_80,2023-05-01T16:15:56.918Z,,0,,,2452.6950000357465,completion,,,,,false,,,,305523.10000002384,305522.90000003576,303053.633,303067.40000003576,303070.205,305537.043,6,300,,,
trial,html.Screen,4_81_0,2023-05-01T16:15:59.502Z,,0,2,,2569.0570000238367,response,ISIC_0025571.JPG,,ISIC_2255411.JPG,ISIC_0025571.JPG,false,1,keypress(m),500,308106.1999999881,308106.10000002384,305520.343,305523.1999999881,305537.043,308120.362,6,300,32,,ISIC_2255411.JPG
break,html.Screen,4_81_1,2023-05-01T16:15:59.502Z,,0,,,NaN,,,,,,false,,,,308106.5,308106.40000003576,,308106.3000000119,,308120.362,6,300,,,
break_continue,html.Screen,4_81_2,2023-05-01T16:15:59.502Z,,0,,,NaN,,,,,,false,,,,308106.8000000119,308106.60000002384,,308106.60000002384,,308120.362,6,300,,,
sequence,flow.Sequence,4_81,2023-05-01T16:15:59.502Z,,0,,,2569.5570000238367,completion,,,,,false,,,,308106.8000000119,308106.60000002384,305520.343,305523.10000002384,305537.043,308120.362,6,300,,,
trial,html.Screen,4_82_0,2023-05-01T16:16:01.999Z,,0,2,,2483.03800003574,response,ISIC_0059037.JPG,,ISIC_5952650.JPG,ISIC_5952650.JPG,false,0,keypress(z),500,310603.5,310603.40000003576,308103.708,308106.90000003576,308120.362,310620.376,6,300,33,,ISIC_0059037.JPG
break,html.Screen,4_82_1,2023-05-01T16:16:01.999Z,,0,,,NaN,,,,,,false,,,,310603.90000003576,310603.8000000119,,310603.60000002384,,310620.376,6,300,,,
break_continue,html.Screen,4_82_2,2023-05-01T16:16:01.999Z,,0,,,NaN,,,,,,false,,,,310604,310604,,310603.90000003576,,310620.376,6,300,,,
sequence,flow.Sequence,4_82,2023-05-01T16:16:02.000Z,,0,,,2483.637999999977,completion,,,,,false,,,,310604.10000002384,310604,308103.708,308106.90000003576,308120.362,310620.376,6,300,,,
trial,html.Screen,4_83_0,2023-05-01T16:16:04.654Z,,0,2,,2638.2240000238526,response,ISIC_0034166.JPG,,ISIC_5611010.JPG,ISIC_0034166.JPG,false,1,keypress(m),500,313258.8000000119,313258.60000002384,310603.686,310604.1999999881,310620.376,313270.377,6,300,34,,ISIC_5611010.JPG
break,html.Screen,4_83_1,2023-05-01T16:16:04.655Z,,0,,,NaN,,,,,,false,,,,313259.10000002384,313259,,313258.8000000119,,313270.377,6,300,,,
break_continue,html.Screen,4_83_2,2023-05-01T16:16:04.655Z,,0,,,NaN,,,,,,false,,,,313259.40000003576,313259.3000000119,,313259.1999999881,,313270.377,6,300,,,
sequence,flow.Sequence,4_83,2023-05-01T16:16:04.655Z,,0,,,2638.9240000119316,completion,,,,,false,,,,313259.5,313259.3000000119,310603.686,310604.1999999881,310620.376,313270.377,6,300,,,
trial,html.Screen,4_84_0,2023-05-01T16:16:07.255Z,,0,2,,2588.9230000119423,response,ISIC_1674754.JPG,,ISIC_1018265.JPG,ISIC_1674754.JPG,false,1,keypress(m),500,315859.40000003576,315859.3000000119,313253.602,313259.60000002384,313270.377,315870.378,6,300,35,,ISIC_1018265.JPG
break,html.Screen,4_84_1,2023-05-01T16:16:07.255Z,,0,,,NaN,,,,,,false,,,,315859.6999999881,315859.5,,315859.40000003576,,315870.378,6,300,,,
break_continue,html.Screen,4_84_2,2023-05-01T16:16:07.255Z,,0,,,NaN,,,,,,false,,,,315859.90000003576,315859.6999999881,,315859.6999999881,,315870.378,6,300,,,
sequence,flow.Sequence,4_84,2023-05-01T16:16:07.255Z,,0,,,2589.3229999881005,completion,,,,,false,,,,315860.10000002384,315859.6999999881,313253.602,313259.5,313270.377,315870.378,6,300,,,
trial,html.Screen,4_85_0,2023-05-01T16:16:09.879Z,,0,2,,2612.821999988053,response,ISIC_0484171.JPG,,ISIC_0072266.JPG,ISIC_0072266.JPG,false,0,keypress(z),500,318483.1999999881,318483.1999999881,315853.72,315860.10000002384,315870.378,318486.908,6,300,36,,ISIC_0484171.JPG
break,html.Screen,4_85_1,2023-05-01T16:16:09.879Z,,0,,,NaN,,,,,,false,,,,318483.60000002384,318483.5,,318483.40000003576,,318486.908,6,300,,,
break_continue,html.Screen,4_85_2,2023-05-01T16:16:09.879Z,,0,,,NaN,,,,,,false,,,,318483.90000003576,318483.6999999881,,318483.60000002384,,318486.908,6,300,,,
sequence,flow.Sequence,4_85,2023-05-01T16:16:09.879Z,,0,,,2613.321999988053,completion,,,,,false,,,,318483.90000003576,318483.6999999881,315853.72,315860.10000002384,315870.378,318486.908,6,300,,,
trial,html.Screen,4_86_0,2023-05-01T16:16:12.631Z,,0,2,,2748.492000035767,response,ISIC_0030484.JPG,,ISIC_4425766.JPG,ISIC_4425766.JPG,false,0,keypress(z),500,321235.5,321235.40000003576,318470.394,318484,318486.908,321264,6,300,37,,ISIC_0030484.JPG
break,html.Screen,4_86_1,2023-05-01T16:16:12.631Z,,0,,,NaN,,,,,,false,,,,321235.90000003576,321235.6999999881,,321235.60000002384,,321264,6,300,,,
break_continue,html.Screen,4_86_2,2023-05-01T16:16:12.632Z,,0,,,NaN,,,,,,false,,,,321236.1999999881,321236,,321235.90000003576,,321264,6,300,,,
sequence,flow.Sequence,4_86,2023-05-01T16:16:12.632Z,,0,,,2749.092000000004,completion,,,,,false,,,,321236.1999999881,321236,318470.394,318484,318486.908,321264,6,300,,,
trial,html.Screen,4_87_0,2023-05-01T16:16:15.383Z,,0,2,,2723.100000023842,response,ISIC_2930792.JPG,,ISIC_0010442.JPG,ISIC_0010442.JPG,false,0,keypress(z),500,323987.10000002384,323987.10000002384,321220.348,321236.3000000119,321264,324003.68,6,300,38,,ISIC_2930792.JPG
break,html.Screen,4_87_1,2023-05-01T16:16:15.383Z,,0,,,NaN,,,,,,false,,,,323987.5,323987.3000000119,,323987.1999999881,,324003.68,6,300,,,
break_continue,html.Screen,4_87_2,2023-05-01T16:16:15.383Z,,0,,,NaN,,,,,,false,,,,323987.8000000119,323987.6999999881,,323987.60000002384,,324003.68,6,300,,,
sequence,flow.Sequence,4_87,2023-05-01T16:16:15.383Z,,0,,,2723.699999988079,completion,,,,,false,,,,323987.90000003576,323987.6999999881,321220.348,321236.3000000119,321264,324003.68,6,300,,,
trial,html.Screen,4_88_0,2023-05-01T16:16:18.230Z,,0,2,,2830.820000000007,response,ISIC_0011528.JPG,,ISIC_0057702.JPG,ISIC_0057702.JPG,false,0,keypress(z),500,326834.60000002384,326834.5,323987.041,323987.90000003576,324003.68,326836.833,6,300,39,,ISIC_0011528.JPG
break,html.Screen,4_88_1,2023-05-01T16:16:18.230Z,,0,,,NaN,,,,,,false,,,,326834.8000000119,326834.8000000119,,326834.60000002384,,326836.833,6,300,,,
break_continue,html.Screen,4_88_2,2023-05-01T16:16:18.230Z,,0,,,NaN,,,,,,false,,,,326835.10000002384,326835,,326834.90000003576,,326836.833,6,300,,,
sequence,flow.Sequence,4_88,2023-05-01T16:16:18.231Z,,0,,,2831.320000000007,completion,,,,,false,,,,326835.10000002384,326835,323987.041,323987.90000003576,324003.68,326836.833,6,300,,,
trial,html.Screen,4_89_0,2023-05-01T16:16:22.598Z,,0,2,,4365.467000011937,response,ISIC_8363485.JPG,,ISIC_6692344.JPG,ISIC_8363485.JPG,false,1,keypress(m),500,331202.40000003576,331202.3000000119,326820.348,326835.3000000119,326836.833,331225.077,6,300,40,,ISIC_6692344.JPG
break,html.Screen,4_89_1,2023-05-01T16:16:22.598Z,,0,,,NaN,,,,,,false,,,,331202.6999999881,331202.60000002384,,331202.40000003576,,331225.077,6,300,,,
break_continue,html.Screen,4_89_2,2023-05-01T16:16:22.598Z,,0,,,NaN,,,,,,false,,,,331203,331202.8000000119,,331202.6999999881,,331225.077,6,300,,,
sequence,flow.Sequence,4_89,2023-05-01T16:16:22.598Z,,0,,,4365.967000011937,completion,,,,,false,,,,331203.10000002384,331202.8000000119,326820.348,326835.1999999881,326836.833,331225.077,6,300,,,
trial,html.Screen,4_90_0,2023-05-01T16:16:26.374Z,,0,2,,3753.622999988089,response,ISIC_7867077.JPG,,ISIC_0068530.JPG,ISIC_7867077.JPG,false,1,keypress(m),500,334978.8000000119,334978.6999999881,331187.036,331203.10000002384,331225.077,334986.918,6,300,41,,ISIC_0068530.JPG
break,html.Screen,4_90_1,2023-05-01T16:16:26.375Z,,0,,,NaN,,,,,,false,,,,334979.1999999881,334979.10000002384,,334978.90000003576,,334986.918,6,300,,,
break_continue,html.Screen,4_90_2,2023-05-01T16:16:26.375Z,,0,,,NaN,,,,,,false,,,,334979.40000003576,334979.40000003576,,334979.1999999881,,334986.918,6,300,,,
sequence,flow.Sequence,4_90,2023-05-01T16:16:26.375Z,,0,,,3754.3230000357726,completion,,,,,false,,,,334979.60000002384,334979.40000003576,331187.036,331203.10000002384,331225.077,334986.918,6,300,,,
trial,html.Screen,4_91_0,2023-05-01T16:16:29.222Z,,0,2,,2839.9820000357577,response,ISIC_3564461.JPG,,ISIC_0024987.JPG,ISIC_3564461.JPG,false,1,keypress(m),500,337827,337826.90000003576,334970.296,334979.60000002384,334986.918,337837.082,6,300,42,,ISIC_0024987.JPG
break,html.Screen,4_91_1,2023-05-01T16:16:29.223Z,,0,,,NaN,,,,,,false,,,,337827.3000000119,337827.10000002384,,337827,,337837.082,6,300,,,
break_continue,html.Screen,4_91_2,2023-05-01T16:16:29.223Z,,0,,,NaN,,,,,,false,,,,337827.60000002384,337827.5,,337827.40000003576,,337837.082,6,300,,,
sequence,flow.Sequence,4_91,2023-05-01T16:16:29.223Z,,0,,,2840.581999999995,completion,,,,,false,,,,337827.6999999881,337827.5,334970.296,334979.60000002384,334986.918,337837.082,6,300,,,
trial,html.Screen,4_92_0,2023-05-01T16:16:31.830Z,,0,2,,2597.718000011926,response,ISIC_0034074.JPG,,ISIC_0066378.JPG,ISIC_0066378.JPG,false,0,keypress(z),500,340434.90000003576,340434.8000000119,337820.363,337827.8000000119,337837.082,340436.882,6,300,43,,ISIC_0034074.JPG
break,html.Screen,4_92_1,2023-05-01T16:16:31.831Z,,0,,,NaN,,,,,,false,,,,340435.3000000119,340435.10000002384,,340435,,340436.882,6,300,,,
break_continue,html.Screen,4_92_2,2023-05-01T16:16:31.831Z,,0,,,NaN,,,,,,false,,,,340435.60000002384,340435.5,,340435.3000000119,,340436.882,6,300,,,
sequence,flow.Sequence,4_92,2023-05-01T16:16:31.831Z,,0,,,2598.418000000005,completion,,,,,false,,,,340435.60000002384,340435.5,337820.363,337827.6999999881,337837.082,340436.882,6,300,,,
trial,html.Screen,4_93_0,2023-05-01T16:16:34.334Z,,0,2,,2501.9180000119377,response,ISIC_0072604.JPG,,ISIC_9045601.JPG,ISIC_9045601.JPG,false,0,keypress(z),500,342938.8000000119,342938.8000000119,340420.384,340435.6999999881,340436.882,342953.715,6,300,44,,ISIC_0072604.JPG
break,html.Screen,4_93_1,2023-05-01T16:16:34.335Z,,0,,,NaN,,,,,,false,,,,342939.10000002384,342939,,342938.90000003576,,342953.715,6,300,,,
break_continue,html.Screen,4_93_2,2023-05-01T16:16:34.335Z,,0,,,NaN,,,,,,false,,,,342939.40000003576,342939.1999999881,,342939.1999999881,,342953.715,6,300,,,
sequence,flow.Sequence,4_93,2023-05-01T16:16:34.335Z,,0,,,2502.317999988096,completion,,,,,false,,,,342939.40000003576,342939.1999999881,340420.384,340435.6999999881,340436.882,342953.715,6,300,,,
trial,html.Screen,4_94_0,2023-05-01T16:16:37.190Z,,0,2,,2841.185000035737,response,ISIC_6072777.JPG,,ISIC_9351418.JPG,ISIC_9351418.JPG,false,0,keypress(z),500,345795,345794.90000003576,342936.961,342939.5,342953.715,345803.736,6,300,45,,ISIC_6072777.JPG
break,html.Screen,4_94_1,2023-05-01T16:16:37.191Z,,0,,,NaN,,,,,,false,,,,345795.3000000119,345795.10000002384,,345795,,345803.736,6,300,,,
break_continue,html.Screen,4_94_2,2023-05-01T16:16:37.191Z,,0,,,NaN,,,,,,false,,,,345795.5,345795.40000003576,,345795.3000000119,,345803.736,6,300,,,
sequence,flow.Sequence,4_94,2023-05-01T16:16:37.191Z,,0,,,2841.685000035737,completion,,,,,false,,,,345795.60000002384,345795.40000003576,342936.961,342939.5,342953.715,345803.736,6,300,,,
trial,html.Screen,4_95_0,2023-05-01T16:16:39.862Z,,0,2,,2662.6640000357875,response,ISIC_3652847.JPG,,ISIC_8048668.JPG,ISIC_8048668.JPG,false,0,keypress(z),500,348466.60000002384,348466.40000003576,345787.036,345795.6999999881,345803.736,348470.213,6,300,46,,ISIC_3652847.JPG
break,html.Screen,4_95_1,2023-05-01T16:16:39.863Z,,0,,,NaN,,,,,,false,,,,348467.5,348467.3000000119,,348466.8000000119,,348470.213,6,300,,,
break_continue,html.Screen,4_95_2,2023-05-01T16:16:39.863Z,,0,,,NaN,,,,,,false,,,,348467.8000000119,348467.6999999881,,348467.6999999881,,348470.213,6,300,,,
sequence,flow.Sequence,4_95,2023-05-01T16:16:39.863Z,,0,,,2663.9639999881038,completion,,,,,false,,,,348467.90000003576,348467.6999999881,345787.036,345795.6999999881,345803.736,348470.213,6,300,,,
trial,html.Screen,4_96_0,2023-05-01T16:16:42.271Z,,0,2,,2404.9869999880902,response,ISIC_0032750.JPG,,ISIC_0030072.JPG,ISIC_0030072.JPG,false,0,keypress(z),500,350875.1999999881,350875.1999999881,348453.732,348467.90000003576,348470.213,350887.018,6,300,47,,ISIC_0032750.JPG
break,html.Screen,4_96_1,2023-05-01T16:16:42.271Z,,0,,,NaN,,,,,,false,,,,350875.5,350875.5,,350875.40000003576,,350887.018,6,300,,,
break_continue,html.Screen,4_96_2,2023-05-01T16:16:42.271Z,,0,,,NaN,,,,,,false,,,,350875.8000000119,350875.6999999881,,350875.6999999881,,350887.018,6,300,,,
sequence,flow.Sequence,4_96,2023-05-01T16:16:42.271Z,,0,,,2405.4869999880902,completion,,,,,false,,,,350875.90000003576,350875.6999999881,348453.732,348467.90000003576,348470.213,350887.018,6,300,,,
trial,html.Screen,4_97_0,2023-05-01T16:16:44.862Z,,0,2,,2579.282000011939,response,ISIC_1802502.JPG,,ISIC_7448231.JPG,ISIC_7448231.JPG,false,0,keypress(z),500,353466.40000003576,353466.3000000119,350870.398,350875.90000003576,350887.018,353487.042,6,300,48,,ISIC_1802502.JPG
break,html.Screen,4_97_1,2023-05-01T16:16:44.862Z,,0,,,NaN,,,,,,false,,,,353466.60000002384,353466.60000002384,,353466.40000003576,,353487.042,6,300,,,
break_continue,html.Screen,4_97_2,2023-05-01T16:16:44.862Z,,0,,,NaN,,,,,,false,,,,353466.8000000119,353466.6999999881,,353466.6999999881,,353487.042,6,300,,,
sequence,flow.Sequence,4_97,2023-05-01T16:16:44.862Z,,0,,,2579.6819999880972,completion,,,,,false,,,,353466.8000000119,353466.6999999881,350870.398,350875.90000003576,350887.018,353487.042,6,300,,,
trial,html.Screen,4_98_0,2023-05-01T16:16:47.462Z,,0,2,,2579.6579999880632,response,ISIC_2259861.JPG,,ISIC_0061643.JPG,ISIC_0061643.JPG,false,0,keypress(z),500,356066.8000000119,356066.6999999881,353470.214,353466.8000000119,353487.042,356070.238,6,300,49,,ISIC_2259861.JPG
break,html.Screen,4_98_1,2023-05-01T16:16:47.463Z,,0,,,NaN,,,,,,false,,,,356067.1999999881,356067,,356066.90000003576,,356070.238,6,300,,,
break_continue,html.Screen,4_98_2,2023-05-01T16:16:47.463Z,,0,,,NaN,,,,,,false,,,,356067.40000003576,356067.3000000119,,356067.3000000119,,356070.238,6,300,,,
sequence,flow.Sequence,4_98,2023-05-01T16:16:47.463Z,,0,,,2580.258000011905,completion,,,,,false,,,,356067.5,356067.3000000119,353470.214,353466.8000000119,353487.042,356070.238,6,300,,,
trial,html.Screen,4_99_0,2023-05-01T16:16:49.959Z,,0,2,,2493.062000011909,response,ISIC_8127394.JPG,,ISIC_0061880.JPG,ISIC_0061880.JPG,false,0,keypress(z),500,358563.3000000119,358563.3000000119,356053.653,356067.5,356070.238,358570.413,6,300,50,,ISIC_8127394.JPG
break,html.Screen,4_99_1,2023-05-01T16:16:54.949Z,,0,,,5000.010000000009,timeout,,,,,false,,,,363554.1999999881,363553.724,358553.608,358563.40000003576,358570.413,363570.423,6,300,,,
break_continue,html.Screen,4_99_2,2023-05-01T16:17:00.761Z,,0,,,5787.477000035753,response,,,,,false,continue,keypress(Space),,369366.10000002384,369357.90000003576,363553.724,363554.3000000119,363570.423,369370.251,6,300,,,
sequence,flow.Sequence,4_99,2023-05-01T16:17:00.761Z,,0,,,13287.66200003575,completion,,,,,false,,,,369366.1999999881,369357.90000003576,356053.653,356067.5,356070.238,369370.251,6,300,,,
trial,html.Screen,4_100_0,2023-05-01T16:17:04.341Z,,0,3,,3575.94899998809,response,ISIC_0033980.JPG,,ISIC_0004932.JPG,ISIC_0004932.JPG,false,0,keypress(z),500,372946.3000000119,372946.1999999881,369353.488,369366.3000000119,369370.251,372953.736,6,300,1,,ISIC_0033980.JPG
break,html.Screen,4_100_1,2023-05-01T16:17:04.342Z,,0,,,NaN,,,,,,false,,,,372946.6999999881,372946.5,,372946.40000003576,,372953.736,6,300,,,
break_continue,html.Screen,4_100_2,2023-05-01T16:17:04.342Z,,0,,,NaN,,,,,,false,,,,372947,372946.90000003576,,372946.8000000119,,372953.736,6,300,,,
sequence,flow.Sequence,4_100,2023-05-01T16:17:04.342Z,,0,,,3576.6490000357735,completion,,,,,false,,,,372947.10000002384,372946.90000003576,369353.488,369366.1999999881,369370.251,372953.736,6,300,,,
trial,html.Screen,4_101_0,2023-05-01T16:17:08.270Z,,0,3,,3921.0640000119456,response,ISIC_0004794.JPG,,ISIC_0032774.JPG,ISIC_0004794.JPG,false,1,keypress(m),500,376875,376874.8000000119,372936.94,372947.10000002384,372953.736,376887.049,6,300,2,,ISIC_0032774.JPG
break,html.Screen,4_101_1,2023-05-01T16:17:08.270Z,,0,,,NaN,,,,,,false,,,,376875.1999999881,376875.10000002384,,376875,,376887.049,6,300,,,
break_continue,html.Screen,4_101_2,2023-05-01T16:17:08.271Z,,0,,,NaN,,,,,,false,,,,376875.40000003576,376875.3000000119,,376875.1999999881,,376887.049,6,300,,,
sequence,flow.Sequence,4_101,2023-05-01T16:17:08.271Z,,0,,,3921.5640000119456,completion,,,,,false,,,,376875.5,376875.3000000119,372936.94,372947.10000002384,372953.736,376887.049,6,300,,,
trial,html.Screen,4_102_0,2023-05-01T16:17:10.942Z,,0,3,,2659.251000011922,response,ISIC_4746361.JPG,,ISIC_1135213.JPG,ISIC_1135213.JPG,false,0,keypress(z),500,379546.5,379546.3000000119,376870.379,376875.60000002384,376887.049,379553.773,6,300,3,,ISIC_4746361.JPG
break,html.Screen,4_102_1,2023-05-01T16:17:10.942Z,,0,,,NaN,,,,,,false,,,,379546.6999999881,379546.6999999881,,379546.5,,379553.773,6,300,,,
break_continue,html.Screen,4_102_2,2023-05-01T16:17:10.942Z,,0,,,NaN,,,,,,false,,,,379546.90000003576,379546.8000000119,,379546.8000000119,,379553.773,6,300,,,
sequence,flow.Sequence,4_102,2023-05-01T16:17:10.942Z,,0,,,2659.751000011922,completion,,,,,false,,,,379547,379546.8000000119,376870.379,376875.5,376887.049,379553.773,6,300,,,
trial,html.Screen,4_103_0,2023-05-01T16:17:13.447Z,,0,3,,2497.7270000000135,response,ISIC_0029609.JPG,,ISIC_8659618.JPG,ISIC_8659618.JPG,false,0,keypress(z),500,382051.6999999881,382051.5,379537.066,379547.10000002384,379553.773,382053.567,6,300,4,,ISIC_0029609.JPG
break,html.Screen,4_103_1,2023-05-01T16:17:13.447Z,,0,,,NaN,,,,,,false,,,,382051.90000003576,382051.90000003576,,382051.6999999881,,382053.567,6,300,,,
break_continue,html.Screen,4_103_2,2023-05-01T16:17:13.447Z,,0,,,NaN,,,,,,false,,,,382052.1999999881,382052.10000002384,,382052.10000002384,,382053.567,6,300,,,
sequence,flow.Sequence,4_103,2023-05-01T16:17:13.447Z,,0,,,2498.3270000238554,completion,,,,,false,,,,382052.40000003576,382052.10000002384,379537.066,379547.10000002384,379553.773,382053.567,6,300,,,
trial,html.Screen,4_104_0,2023-05-01T16:17:15.879Z,,0,3,,2430.333000035782,response,ISIC_6576397.JPG,,ISIC_0069330.JPG,ISIC_6576397.JPG,false,1,keypress(m),500,384484,384483.90000003576,382037.104,382052.5,382053.567,384503.76,6,300,5,,ISIC_0069330.JPG
break,html.Screen,4_104_1,2023-05-01T16:17:15.879Z,,0,,,NaN,,,,,,false,,,,384484.3000000119,384484.1999999881,,384484.10000002384,,384503.76,6,300,,,
break_continue,html.Screen,4_104_2,2023-05-01T16:17:15.880Z,,0,,,NaN,,,,,,false,,,,384484.40000003576,384484.40000003576,,384484.3000000119,,384503.76,6,300,,,
sequence,flow.Sequence,4_104,2023-05-01T16:17:15.880Z,,0,,,2430.833000035782,completion,,,,,false,,,,384484.5,384484.40000003576,382037.104,382052.5,382053.567,384503.76,6,300,,,
trial,html.Screen,4_105_0,2023-05-01T16:17:18.486Z,,0,3,,2586.6400000357535,response,ISIC_0033704.JPG,,ISIC_7283084.JPG,ISIC_0033704.JPG,false,1,keypress(m),500,387090.5,387090.40000003576,384487.093,384484.5,384503.76,387103.726,6,300,6,,ISIC_7283084.JPG
break,html.Screen,4_105_1,2023-05-01T16:17:18.486Z,,0,,,NaN,,,,,,false,,,,387090.8000000119,387090.6999999881,,387090.60000002384,,387103.726,6,300,,,
break_continue,html.Screen,4_105_2,2023-05-01T16:17:18.486Z,,0,,,NaN,,,,,,false,,,,387091,387090.90000003576,,387090.8000000119,,387103.726,6,300,,,
sequence,flow.Sequence,4_105,2023-05-01T16:17:18.486Z,,0,,,2587.1400000357535,completion,,,,,false,,,,387091.10000002384,387090.90000003576,384487.093,384484.5,384503.76,387103.726,6,300,,,
trial,html.Screen,4_106_0,2023-05-01T16:17:21.271Z,,0,3,,2771.5740000118967,response,ISIC_6297317.JPG,,ISIC_0029698.JPG,ISIC_0029698.JPG,false,0,keypress(z),500,389875.40000003576,389875.3000000119,387087.108,387091.1999999881,387103.726,389887.14,6,300,7,,ISIC_6297317.JPG
break,html.Screen,4_106_1,2023-05-01T16:17:21.271Z,,0,,,NaN,,,,,,false,,,,389875.6999999881,389875.60000002384,,389875.5,,389887.14,6,300,,,
break_continue,html.Screen,4_106_2,2023-05-01T16:17:21.271Z,,0,,,NaN,,,,,,false,,,,389875.90000003576,389875.8000000119,,389875.8000000119,,389887.14,6,300,,,
sequence,flow.Sequence,4_106,2023-05-01T16:17:21.271Z,,0,,,2772.0740000118967,completion,,,,,false,,,,389876,389875.8000000119,387087.108,387091.1999999881,387103.726,389887.14,6,300,,,
trial,html.Screen,4_107_0,2023-05-01T16:17:23.918Z,,0,3,,2635.960000023828,response,ISIC_0011858.JPG,,ISIC_1858237.JPG,ISIC_1858237.JPG,false,0,keypress(z),500,392523.1999999881,392523.10000002384,389870.423,389876.10000002384,389887.14,392537.133,6,300,8,,ISIC_0011858.JPG
break,html.Screen,4_107_1,2023-05-01T16:17:23.919Z,,0,,,NaN,,,,,,false,,,,392523.5,392523.40000003576,,392523.3000000119,,392537.133,6,300,,,
break_continue,html.Screen,4_107_2,2023-05-01T16:17:23.919Z,,0,,,NaN,,,,,,false,,,,392523.8000000119,392523.60000002384,,392523.60000002384,,392537.133,6,300,,,
sequence,flow.Sequence,4_107,2023-05-01T16:17:23.919Z,,0,,,2636.460000023828,completion,,,,,false,,,,392523.90000003576,392523.60000002384,389870.423,389876.10000002384,389887.14,392537.133,6,300,,,
trial,html.Screen,4_108_0,2023-05-01T16:17:26.550Z,,0,3,,2617.1670000119484,response,ISIC_7642142.JPG,,ISIC_0069620.JPG,ISIC_7642142.JPG,false,1,keypress(m),500,395154.40000003576,395154.3000000119,392520.318,392524,392537.133,395170.456,6,300,9,,ISIC_0069620.JPG
break,html.Screen,4_108_1,2023-05-01T16:17:26.550Z,,0,,,NaN,,,,,,false,,,,395154.8000000119,395154.60000002384,,395154.5,,395170.456,6,300,,,
break_continue,html.Screen,4_108_2,2023-05-01T16:17:26.550Z,,0,,,NaN,,,,,,false,,,,395155,395154.90000003576,,395154.90000003576,,395170.456,6,300,,,
sequence,flow.Sequence,4_108,2023-05-01T16:17:26.550Z,,0,,,2617.7670000357903,completion,,,,,false,,,,395155.10000002384,395154.90000003576,392520.318,392524,392537.133,395170.456,6,300,,,
trial,html.Screen,4_109_0,2023-05-01T16:17:29.206Z,,0,3,,2640.2439999880735,response,ISIC_6559840.JPG,,ISIC_7341401.JPG,ISIC_6559840.JPG,false,1,keypress(m),500,397810.6999999881,397810.6999999881,395153.573,395155.1999999881,395170.456,397820.422,6,300,10,,ISIC_7341401.JPG
break,html.Screen,4_109_1,2023-05-01T16:17:29.206Z,,0,,,NaN,,,,,,false,,,,397811.10000002384,397810.90000003576,,397810.8000000119,,397820.422,6,300,,,
break_continue,html.Screen,4_109_2,2023-05-01T16:17:29.206Z,,0,,,NaN,,,,,,false,,,,397811.3000000119,397811.1999999881,,397811.10000002384,,397820.422,6,300,,,
sequence,flow.Sequence,4_109,2023-05-01T16:17:29.207Z,,0,,,2640.7439999880735,completion,,,,,false,,,,397811.5,397811.1999999881,395153.573,395155.1999999881,395170.456,397820.422,6,300,,,
trial,html.Screen,4_110_0,2023-05-01T16:17:31.846Z,,0,3,,2630.4780000357423,response,ISIC_0033644.JPG,,ISIC_0058828.JPG,ISIC_0058828.JPG,false,0,keypress(z),500,400451.10000002384,400450.90000003576,397803.782,397811.5,397820.422,400453.622,6,300,11,,ISIC_0033644.JPG
break,html.Screen,4_110_1,2023-05-01T16:17:31.846Z,,0,,,NaN,,,,,,false,,,,400451.3000000119,400451.1999999881,,400451.10000002384,,400453.622,6,300,,,
break_continue,html.Screen,4_110_2,2023-05-01T16:17:31.847Z,,0,,,NaN,,,,,,false,,,,400451.6999999881,400451.60000002384,,400451.5,,400453.622,6,300,,,
sequence,flow.Sequence,4_110,2023-05-01T16:17:31.847Z,,0,,,2631.1780000238214,completion,,,,,false,,,,400451.8000000119,400451.60000002384,397803.782,397811.5,397820.422,400453.622,6,300,,,
trial,html.Screen,4_111_0,2023-05-01T16:17:34.599Z,,0,3,,2749.878000000026,response,ISIC_0808203.JPG,,ISIC_9475559.JPG,ISIC_0808203.JPG,false,1,keypress(m),500,403203.5,403203.5,400437.032,400451.8000000119,400453.622,403220.294,6,300,12,,ISIC_9475559.JPG
break,html.Screen,4_111_1,2023-05-01T16:17:34.599Z,,0,,,NaN,,,,,,false,,,,403203.90000003576,403203.6999999881,,403203.6999999881,,403220.294,6,300,,,
break_continue,html.Screen,4_111_2,2023-05-01T16:17:34.599Z,,0,,,NaN,,,,,,false,,,,403204.1999999881,403204,,403204,,403220.294,6,300,,,
sequence,flow.Sequence,4_111,2023-05-01T16:17:34.599Z,,0,,,2750.378000000026,completion,,,,,false,,,,403204.40000003576,403204,400437.032,400451.8000000119,400453.622,403220.294,6,300,,,
trial,html.Screen,4_112_0,2023-05-01T16:17:44.599Z,,0,3,,10016.679999999993,timeout,ISIC_0061231.JPG,,ISIC_5934239.JPG,,false,,,500,413204.1999999881,413204.10000002384,403203.705,403204.60000002384,403220.294,413236.974,6,300,13,,
break,html.Screen,4_112_1,2023-05-01T16:17:44.600Z,,0,,,NaN,,,,,,false,,,,413204.5,413204.40000003576,,413204.3000000119,,413236.974,6,300,,,
break_continue,html.Screen,4_112_2,2023-05-01T16:17:44.600Z,,0,,,NaN,,,,,,false,,,,413204.60000002384,413204.60000002384,,413204.5,,413236.974,6,300,,,
sequence,flow.Sequence,4_112,2023-05-01T16:17:44.600Z,,0,,,9984.306000023847,completion,,,,,false,,,,413204.6999999881,413204.60000002384,403203.705,403204.40000003576,403220.294,413236.974,6,300,,,
trial,html.Screen,4_113_0,2023-05-01T16:17:54.615Z,,0,3,,10016.80700000003,timeout,ISIC_6581765.JPG,,ISIC_2436560.JPG,,false,,,500,423220.6999999881,423220.60000002384,413220.503,413204.6999999881,413236.974,423253.781,6,300,14,,
break,html.Screen,4_113_1,2023-05-01T16:17:54.616Z,,0,,,NaN,,,,,,false,,,,423221,423220.8000000119,,423220.6999999881,,423253.781,6,300,,,
break_continue,html.Screen,4_113_2,2023-05-01T16:17:54.616Z,,0,,,NaN,,,,,,false,,,,423221,423221,,423221,,423253.781,6,300,,,
sequence,flow.Sequence,4_113,2023-05-01T16:17:54.616Z,,0,,,9984.026000000013,completion,,,,,false,,,,423221.1999999881,423221,413220.503,413204.6999999881,413236.974,423253.781,6,300,,,
trial,html.Screen,4_114_0,2023-05-01T16:18:04.633Z,,0,3,,10016.695999999996,timeout,ISIC_7062293.JPG,,ISIC_2487188.JPG,,false,,,500,433237.90000003576,433237.6999999881,423237.078,423221.1999999881,423253.781,433270.477,6,300,15,,
break,html.Screen,4_114_1,2023-05-01T16:18:04.633Z,,0,,,NaN,,,,,,false,,,,433238.10000002384,433238,,433237.90000003576,,433270.477,6,300,,,
break_continue,html.Screen,4_114_2,2023-05-01T16:18:04.633Z,,0,,,NaN,,,,,,false,,,,433238.3000000119,433238.1999999881,,433238.1999999881,,433270.477,6,300,,,
sequence,flow.Sequence,4_114,2023-05-01T16:18:04.633Z,,0,,,9984.418999988062,completion,,,,,false,,,,433238.40000003576,433238.1999999881,423237.078,423221.1999999881,423253.781,433270.477,6,300,,,
trial,html.Screen,4_115_0,2023-05-01T16:18:14.649Z,,0,3,,10016.617999999959,timeout,ISIC_5320483.JPG,,ISIC_0033319.JPG,,false,,,500,443254.1999999881,443254,433253.697,433238.40000003576,433270.477,443287.095,6,300,16,,
break,html.Screen,4_115_1,2023-05-01T16:18:14.649Z,,0,,,NaN,,,,,,false,,,,443254.5,443254.40000003576,,443254.1999999881,,443287.095,6,300,,,
break_continue,html.Screen,4_115_2,2023-05-01T16:18:14.649Z,,0,,,NaN,,,,,,false,,,,443254.60000002384,443254.5,,443254.5,,443287.095,6,300,,,
sequence,flow.Sequence,4_115,2023-05-01T16:18:14.649Z,,0,,,9984.022999999986,completion,,,,,false,,,,443254.6999999881,443254.5,433253.697,433238.40000003576,433270.477,443287.095,6,300,,,
trial,html.Screen,4_116_0,2023-05-01T16:18:24.666Z,,0,3,,10016.693000000028,timeout,ISIC_7097931.JPG,,ISIC_0070927.JPG,,false,,,500,453271.10000002384,453270.90000003576,443270.553,443254.6999999881,443287.095,453303.788,6,300,17,,
break,html.Screen,4_116_1,2023-05-01T16:18:24.666Z,,0,,,NaN,,,,,,false,,,,453271.3000000119,453271.1999999881,,453271.10000002384,,453303.788,6,300,,,
break_continue,html.Screen,4_116_2,2023-05-01T16:18:24.666Z,,0,,,NaN,,,,,,false,,,,453271.5,453271.40000003576,,453271.3000000119,,453303.788,6,300,,,
sequence,flow.Sequence,4_116,2023-05-01T16:18:24.666Z,,0,,,9984.30500003579,completion,,,,,false,,,,453271.5,453271.40000003576,443270.553,443254.6999999881,443287.095,453303.788,6,300,,,
trial,html.Screen,4_117_0,2023-05-01T16:18:34.190Z,,0,3,,9491.812000023841,response,ISIC_0013707.JPG,,ISIC_0031752.JPG,ISIC_0031752.JPG,false,0,keypress(z),500,462795.6999999881,462795.60000002384,453287.204,453271.5,453303.788,462803.872,6,300,18,,ISIC_0013707.JPG
break,html.Screen,4_117_1,2023-05-01T16:18:34.191Z,,0,,,NaN,,,,,,false,,,,462796,462796,,462795.8000000119,,462803.872,6,300,,,
break_continue,html.Screen,4_117_2,2023-05-01T16:18:34.191Z,,0,,,NaN,,,,,,false,,,,462796.3000000119,462796.1999999881,,462796.10000002384,,462803.872,6,300,,,
sequence,flow.Sequence,4_117,2023-05-01T16:18:34.191Z,,0,,,9492.411999988079,completion,,,,,false,,,,462796.5,462796.1999999881,453287.204,453271.5,453303.788,462803.872,6,300,,,
trial,html.Screen,4_118_0,2023-05-01T16:18:37.414Z,,0,3,,3215.228000023868,response,ISIC_0032098.JPG,,ISIC_7017547.JPG,ISIC_7017547.JPG,false,0,keypress(z),500,466019.3000000119,466019.10000002384,462787.198,462796.60000002384,462803.872,466044.772,6,300,19,,ISIC_0032098.JPG
break,html.Screen,4_118_1,2023-05-01T16:18:37.414Z,,0,,,NaN,,,,,,false,,,,466019.60000002384,466019.5,,466019.40000003576,,466044.772,6,300,,,
break_continue,html.Screen,4_118_2,2023-05-01T16:18:37.415Z,,0,,,NaN,,,,,,false,,,,466019.8000000119,466019.6999999881,,466019.6999999881,,466044.772,6,300,,,
sequence,flow.Sequence,4_118,2023-05-01T16:18:37.415Z,,0,,,3215.827999988105,completion,,,,,false,,,,466019.90000003576,466019.6999999881,462787.198,462796.5,462803.872,466044.772,6,300,,,
trial,html.Screen,4_119_0,2023-05-01T16:18:40.422Z,,0,3,,2982.427999988082,response,ISIC_0759561.JPG,,ISIC_0067172.JPG,ISIC_0759561.JPG,false,1,keypress(m),500,469027.3000000119,469027.1999999881,466003.866,466020,466044.772,469037.159,6,300,20,,ISIC_0067172.JPG
break,html.Screen,4_119_1,2023-05-01T16:18:40.422Z,,0,,,NaN,,,,,,false,,,,469027.60000002384,469027.5,,469027.40000003576,,469037.159,6,300,,,
break_continue,html.Screen,4_119_2,2023-05-01T16:18:40.423Z,,0,,,NaN,,,,,,false,,,,469027.8000000119,469027.6999999881,,469027.6999999881,,469037.159,6,300,,,
sequence,flow.Sequence,4_119,2023-05-01T16:18:40.423Z,,0,,,2982.927999988082,completion,,,,,false,,,,469027.90000003576,469027.6999999881,466003.866,466019.90000003576,466044.772,469037.159,6,300,,,
trial,html.Screen,4_120_0,2023-05-01T16:18:43.126Z,,0,3,,2694.040999988094,response,ISIC_1795529.JPG,,ISIC_0060860.JPG,ISIC_1795529.JPG,false,1,keypress(m),500,471731.3000000119,471731.1999999881,469020.47,469028,469037.159,471737.172,6,300,21,,ISIC_0060860.JPG
break,html.Screen,4_120_1,2023-05-01T16:18:43.126Z,,0,,,NaN,,,,,,false,,,,471731.60000002384,471731.5,,471731.3000000119,,471737.172,6,300,,,
break_continue,html.Screen,4_120_2,2023-05-01T16:18:43.127Z,,0,,,NaN,,,,,,false,,,,471731.90000003576,471731.8000000119,,471731.8000000119,,471737.172,6,300,,,
sequence,flow.Sequence,4_120,2023-05-01T16:18:43.127Z,,0,,,2694.641000011936,completion,,,,,false,,,,471732,471731.8000000119,469020.47,469027.90000003576,469037.159,471737.172,6,300,,,
trial,html.Screen,4_121_0,2023-05-01T16:18:45.727Z,,0,3,,2594.4280000238214,response,ISIC_0057881.JPG,,ISIC_1961064.JPG,ISIC_0057881.JPG,false,1,keypress(m),500,474331.8000000119,474331.60000002384,471720.463,471732.10000002384,471737.172,474337.157,6,300,22,,ISIC_1961064.JPG
break,html.Screen,4_121_1,2023-05-01T16:18:45.727Z,,0,,,NaN,,,,,,false,,,,474332.10000002384,474332,,474331.90000003576,,474337.157,6,300,,,
break_continue,html.Screen,4_121_2,2023-05-01T16:18:45.727Z,,0,,,NaN,,,,,,false,,,,474332.40000003576,474332.1999999881,,474332.10000002384,,474337.157,6,300,,,
sequence,flow.Sequence,4_121,2023-05-01T16:18:45.727Z,,0,,,2595.0279999880586,completion,,,,,false,,,,474332.60000002384,474332.1999999881,471720.463,471732.10000002384,471737.172,474337.157,6,300,,,
trial,html.Screen,4_122_0,2023-05-01T16:18:48.303Z,,0,3,,2570.5429999880726,response,ISIC_4495099.JPG,,ISIC_2246150.JPG,ISIC_4495099.JPG,false,1,keypress(m),500,476907.6999999881,476907.6999999881,474320.413,474332.60000002384,474337.157,476920.534,6,300,23,,ISIC_2246150.JPG
break,html.Screen,4_122_1,2023-05-01T16:18:48.303Z,,0,,,NaN,,,,,,false,,,,476908.10000002384,476908,,476907.8000000119,,476920.534,6,300,,,
break_continue,html.Screen,4_122_2,2023-05-01T16:18:48.303Z,,0,,,NaN,,,,,,false,,,,476908.3000000119,476908.1999999881,,476908.1999999881,,476920.534,6,300,,,
sequence,flow.Sequence,4_122,2023-05-01T16:18:48.303Z,,0,,,2571.0429999880726,completion,,,,,false,,,,476908.40000003576,476908.1999999881,474320.413,474332.60000002384,474337.157,476920.534,6,300,,,
trial,html.Screen,4_123_0,2023-05-01T16:18:50.878Z,,0,3,,2562.3660000357777,response,ISIC_0033204.JPG,,ISIC_0010306.JPG,ISIC_0010306.JPG,false,0,keypress(z),500,479483,479482.90000003576,476903.855,476908.40000003576,476920.534,479487.033,6,300,24,,ISIC_0033204.JPG
break,html.Screen,4_123_1,2023-05-01T16:18:50.878Z,,0,,,NaN,,,,,,false,,,,479483.40000003576,479483.3000000119,,479483.1999999881,,479487.033,6,300,,,
break_continue,html.Screen,4_123_2,2023-05-01T16:18:50.878Z,,0,,,NaN,,,,,,false,,,,479483.60000002384,479483.5,,479483.40000003576,,479487.033,6,300,,,
sequence,flow.Sequence,4_123,2023-05-01T16:18:50.879Z,,0,,,2562.966000000015,completion,,,,,false,,,,479483.6999999881,479483.5,476903.855,476908.40000003576,476920.534,479487.033,6,300,,,
trial,html.Screen,4_124_0,2023-05-01T16:18:53.493Z,,0,3,,2611.467000000004,response,ISIC_9879693.JPG,,ISIC_0003150.JPG,ISIC_0003150.JPG,false,0,keypress(z),500,482098.60000002384,482098.5,479470.519,479483.8000000119,479487.033,482103.807,6,300,25,,ISIC_9879693.JPG
break,html.Screen,4_124_1,2023-05-01T16:18:53.493Z,,0,,,NaN,,,,,,false,,,,482098.90000003576,482098.6999999881,,482098.60000002384,,482103.807,6,300,,,
break_continue,html.Screen,4_124_2,2023-05-01T16:18:53.493Z,,0,,,NaN,,,,,,false,,,,482099.1999999881,482099.10000002384,,482099,,482103.807,6,300,,,
sequence,flow.Sequence,4_124,2023-05-01T16:18:53.493Z,,0,,,2612.067000023846,completion,,,,,false,,,,482099.3000000119,482099.10000002384,479470.519,479483.8000000119,479487.033,482103.807,6,300,,,
trial,html.Screen,4_125_0,2023-05-01T16:18:55.998Z,,0,3,,2499.9930000119493,response,ISIC_6406517.JPG,,ISIC_0013953.JPG,ISIC_0013953.JPG,false,0,keypress(z),500,484603.8000000119,484603.8000000119,482087.055,482099.3000000119,482103.807,484620.565,6,300,26,,ISIC_6406517.JPG
break,html.Screen,4_125_1,2023-05-01T16:18:55.998Z,,0,,,NaN,,,,,,false,,,,484604.10000002384,484604,,484603.90000003576,,484620.565,6,300,,,
break_continue,html.Screen,4_125_2,2023-05-01T16:18:55.998Z,,0,,,NaN,,,,,,false,,,,484604.40000003576,484604.3000000119,,484604.10000002384,,484620.565,6,300,,,
sequence,flow.Sequence,4_125,2023-05-01T16:18:55.999Z,,0,,,2500.4930000119493,completion,,,,,false,,,,484604.5,484604.3000000119,482087.055,482099.3000000119,482103.807,484620.565,6,300,,,
