sender,sender_type,sender_id,timestamp,meta,,blockNo,condition,duration,ended_on,img_left,img_reveal,img_right,loser,practice,response,response_action,selection_duration,time_commit,time_end,time_render,time_run,time_show,time_switch,total_blocks,total_trials,trialNo,url,winner
informed_consent,html.Screen,0,2023-09-08T21:09:27.545Z,"{""labjs_version"":""20.2.4"",""labjs_build"":{""flavor"":""production"",""commit"":""f5b4a49f956347addd546a832a3327688c2c0fef""},""location"":""https://run.pavlovia.org/MurrayBennett/melanoma-2afc/?participant=63dd3dd2593c92be97d8dbde&STUDY_ID=64f8c92207ba404bcb356c90&SESSION_ID=64fb8d67044bc989a101f4e5&platform=prolific"",""userAgent"":""Mozilla/5.0 (Windows NT 10.0; Win64; x64) AppleWebKit/537.36 (KHTML, like Gecko) Chrome/116.0.0.0 Safari/537.36"",""platform"":""Win32"",""language"":""en-US"",""locale"":""en-US"",""timeZone"":""America/Los_Angeles"",""timezoneOffset"":420,""screen_width"":1920,""screen_height"":1080,""scroll_width"":1920,""scroll_height"":915,""window_innerWidth"":1920,""window_innerHeight"":963,""devicePixelRatio"":1}",,,,3347.1349999523163,response,,,,,,consent,click button,,5620.5,5619.299999952316,2255.466,2263.600000023842,2272.165,5622.387,,,,"{""participant"":""63dd3dd2593c92be97d8dbde"",""STUDY_ID"":""64f8c92207ba404bcb356c90"",""SESSION_ID"":""64fb8d67044bc989a101f4e5"",""platform"":""prolific""}",
Welcome,html.Screen,1,2023-09-08T21:09:37.730Z,,,,asymmetry,10182.213000023843,response,,,,,,continue,click button,,15805.200000047684,15804.600000023842,5605.747,5620.600000023842,5622.387,15823.067,,,,,
trial,html.Screen,2_0_0,2023-09-08T21:09:42.293Z,,0,0,,4545.133000047685,response,ISIC_6997061.JPG,,ISIC_0069348.JPG,ISIC_0069348.JPG,true,0,keypress(z),500,20368.5,20368.200000047684,15806.399,15805.399999976158,15823.067,20373.384,1,6,1,,ISIC_6997061.JPG
sequence,flow.Sequence,2_0,2023-09-08T21:09:42.293Z,,0,,,4545.133000047685,completion,,,,,true,,,,20368.600000023842,20368.200000047684,15806.399,15805.399999976158,15823.067,20373.384,1,6,,,
trial,html.Screen,2_1_0,2023-09-08T21:09:45.354Z,,0,0,,3055.7160000238437,response,ISIC_0057368.JPG,,ISIC_0009529.JPG,ISIC_0057368.JPG,true,1,keypress(m),500,23429.299999952316,23429.100000023842,20356.686,20368.600000023842,20373.384,23440.242,1,6,2,,ISIC_0009529.JPG
sequence,flow.Sequence,2_1,2023-09-08T21:09:45.354Z,,0,,,3055.7160000238437,completion,,,,,true,,,,23429.5,23429.100000023842,20356.686,20368.600000023842,20373.384,23440.242,1,6,,,
trial,html.Screen,2_2_0,2023-09-08T21:09:48.722Z,,0,0,,3356.9580000476853,response,ISIC_9758671.JPG,,ISIC_0064954.JPG,ISIC_9758671.JPG,true,1,keypress(m),500,26797.299999952316,26797.200000047684,23423.519,23429.5,23440.242,26807.241,1,6,3,,ISIC_0064954.JPG
sequence,flow.Sequence,2_2,2023-09-08T21:09:48.722Z,,0,,,3356.9580000476853,completion,,,,,true,,,,26797.399999976158,26797.200000047684,23423.519,23429.5,23440.242,26807.241,1,6,,,
trial,html.Screen,2_3_0,2023-09-08T21:09:51.563Z,,0,0,,2830.959000047682,response,ISIC_0005785.JPG,,ISIC_0000080.JPG,ISIC_0005785.JPG,true,1,keypress(m),500,29638.399999976158,29638.200000047684,26790.413,26797.5,26807.241,29640.67,1,6,4,,ISIC_0000080.JPG
sequence,flow.Sequence,2_3,2023-09-08T21:09:51.563Z,,0,,,2830.959000047682,completion,,,,,true,,,,29638.600000023842,29638.200000047684,26790.413,26797.5,26807.241,29640.67,1,6,,,
trial,html.Screen,2_4_0,2023-09-08T21:09:54.300Z,,0,0,,2734.629999952318,response,ISIC_5390060.JPG,,ISIC_7944028.JPG,ISIC_5390060.JPG,true,1,keypress(m),500,32375.700000047684,32375.299999952316,29623.981,29638.600000023842,29640.67,32390.851,1,6,5,,ISIC_7944028.JPG
sequence,flow.Sequence,2_4,2023-09-08T21:09:54.300Z,,0,,,2734.629999952318,completion,,,,,true,,,,32376,32375.299999952316,29623.981,29638.600000023842,29640.67,32390.851,1,6,,,
trial,html.Screen,2_5_0,2023-09-08T21:09:57.091Z,,0,0,,2775.349000047685,response,ISIC_0794216.JPG,,ISIC_0010188.JPG,ISIC_0010188.JPG,true,0,keypress(z),500,35166.299999952316,35166.200000047684,32374.152,32376,32390.851,35174.406,1,6,6,,ISIC_0794216.JPG
sequence,flow.Sequence,2_5,2023-09-08T21:09:57.091Z,,0,,,2775.349000047685,completion,,,,,true,,,,35166.5,35166.200000047684,32374.152,32376,32390.851,35174.406,1,6,,,
loop,flow.Loop,2,2023-09-08T21:09:57.091Z,,,,,19343.133000047685,completion,,,,,true,,,,35166.60000002384,35166.200000047684,15806.399,15805.399999976158,15823.067,35174.406,1,6,,,
exp_instructions,html.Screen,3,2023-09-08T21:10:01.343Z,,,,,4243.393999952314,response,,,,,,continue,keypress(Space),,39418.299999952316,39417.799999952316,35157.701,35166.60000002384,35174.406,39424.663,,,,,
trial,html.Screen,4_0_0,2023-09-08T21:10:04.965Z,,0,1,,3615.636999952316,response,ISIC_5046340.JPG,5,ISIC_7509837.JPG,ISIC_5046340.JPG,false,1,keypress(m),500,43040.39999997616,43040.299999952316,39407.866,39418.299999952316,39424.663,43041.637,8,400,1,,ISIC_7509837.JPG
break,html.Screen,4_0_1,2023-09-08T21:10:04.965Z,,0,,,NaN,,,,,,false,,,,43040.89999997616,43040.700000047684,,43040.5,,43041.637,8,400,,,
break_continue,html.Screen,4_0_2,2023-09-08T21:10:04.965Z,,0,,,NaN,,,,,,false,,,,43041.10000002384,43041,,43040.89999997616,,43041.637,8,400,,,
sequence,flow.Sequence,4_0,2023-09-08T21:10:04.965Z,,0,,,3616.3369999999995,completion,,,,,false,,,,43041.10000002384,43041,39407.866,39418.299999952316,39424.663,43041.637,8,400,,,
trial,html.Screen,4_1_0,2023-09-08T21:10:09.613Z,,0,1,,4646.662999952314,response,ISIC_0000539.JPG,5,ISIC_8082460.JPG,ISIC_8082460.JPG,false,0,keypress(z),500,47688.39999997616,47688.299999952316,43024.9,43041.200000047684,43041.637,47691.979,8,400,2,,ISIC_0000539.JPG
break,html.Screen,4_1_1,2023-09-08T21:10:09.613Z,,0,,,NaN,,,,,,false,,,,47688.89999997616,47688.799999952316,,47688.60000002384,,47691.979,8,400,,,
break_continue,html.Screen,4_1_2,2023-09-08T21:10:09.613Z,,0,,,NaN,,,,,,false,,,,47689.10000002384,47689.10000002384,,47689,,47691.979,8,400,,,
sequence,flow.Sequence,4_1,2023-09-08T21:10:09.614Z,,0,,,4647.463000023839,completion,,,,,false,,,,47689.200000047684,47689.10000002384,43024.9,43041.200000047684,43041.637,47691.979,8,400,,,
trial,html.Screen,4_2_0,2023-09-08T21:10:13.749Z,,0,1,,4132.320999952317,response,ISIC_2171940.JPG,5,ISIC_8911740.JPG,ISIC_2171940.JPG,false,1,keypress(m),500,51824.5,51824.299999952316,47675.225,47689.299999952316,47691.979,51825.54,8,400,3,,ISIC_8911740.JPG
break,html.Screen,4_2_1,2023-09-08T21:10:13.749Z,,0,,,NaN,,,,,,false,,,,51824.799999952316,51824.700000047684,,51824.5,,51825.54,8,400,,,
break_continue,html.Screen,4_2_2,2023-09-08T21:10:13.749Z,,0,,,NaN,,,,,,false,,,,51824.89999997616,51824.89999997616,,51824.799999952316,,51825.54,8,400,,,
sequence,flow.Sequence,4_2,2023-09-08T21:10:13.749Z,,0,,,4132.920999976159,completion,,,,,false,,,,51825,51824.89999997616,47675.225,47689.299999952316,47691.979,51825.54,8,400,,,
trial,html.Screen,4_3_0,2023-09-08T21:10:17.246Z,,0,1,,3495.7599999523154,response,ISIC_0013096.JPG,6,ISIC_0063664.JPG,ISIC_0013096.JPG,false,1,keypress(m),500,55321.5,55321.299999952316,51808.863,51825.10000002384,51825.54,55325.839,8,400,4,,ISIC_0063664.JPG
break,html.Screen,4_3_1,2023-09-08T21:10:17.246Z,,0,,,NaN,,,,,,false,,,,55321.799999952316,55321.700000047684,,55321.60000002384,,55325.839,8,400,,,
break_continue,html.Screen,4_3_2,2023-09-08T21:10:17.246Z,,0,,,NaN,,,,,,false,,,,55322,55321.89999997616,,55321.89999997616,,55325.839,8,400,,,
sequence,flow.Sequence,4_3,2023-09-08T21:10:17.246Z,,0,,,3496.3599999761573,completion,,,,,false,,,,55322.10000002384,55321.89999997616,51808.863,51825.10000002384,51825.54,55325.839,8,400,,,
trial,html.Screen,4_4_0,2023-09-08T21:10:20.561Z,,0,1,,3310.4609999523163,response,ISIC_5941314.JPG,5,ISIC_6588982.JPG,ISIC_6588982.JPG,false,0,keypress(z),500,58636.5,58636.299999952316,55309.061,55322.10000002384,55325.839,58642.706,8,400,5,,ISIC_5941314.JPG
break,html.Screen,4_4_1,2023-09-08T21:10:20.561Z,,0,,,NaN,,,,,,false,,,,58636.799999952316,58636.799999952316,,58636.5,,58642.706,8,400,,,
break_continue,html.Screen,4_4_2,2023-09-08T21:10:20.561Z,,0,,,NaN,,,,,,false,,,,58637,58636.89999997616,,58636.89999997616,,58642.706,8,400,,,
sequence,flow.Sequence,4_4,2023-09-08T21:10:20.561Z,,0,,,3311.060999976158,completion,,,,,false,,,,58637,58636.89999997616,55309.061,55322.10000002384,55325.839,58642.706,8,400,,,
trial,html.Screen,4_5_0,2023-09-08T21:10:24.309Z,,0,1,,3740.69399997616,response,ISIC_4269227.JPG,6,ISIC_0568867.JPG,ISIC_4269227.JPG,false,1,keypress(m),500,62383.60000002384,62383.39999997616,58625.957,58637.200000047684,58642.706,62392.938,8,400,6,,ISIC_0568867.JPG
break,html.Screen,4_5_1,2023-09-08T21:10:24.309Z,,0,,,NaN,,,,,,false,,,,62384,62383.89999997616,,62383.60000002384,,62392.938,8,400,,,
break_continue,html.Screen,4_5_2,2023-09-08T21:10:24.309Z,,0,,,NaN,,,,,,false,,,,62384.10000002384,62384.10000002384,,62384,,62392.938,8,400,,,
sequence,flow.Sequence,4_5,2023-09-08T21:10:24.309Z,,0,,,3741.3940000238435,completion,,,,,false,,,,62384.200000047684,62384.10000002384,58625.957,58637.200000047684,58642.706,62392.938,8,400,,,
trial,html.Screen,4_6_0,2023-09-08T21:10:27.655Z,,0,1,,3337.461999976156,response,ISIC_0061184.JPG,5,ISIC_7164403.JPG,ISIC_7164403.JPG,false,0,keypress(z),500,65730.5,65730.39999997616,62376.235,62384.200000047684,62392.938,65743.16,8,400,7,,ISIC_0061184.JPG
break,html.Screen,4_6_1,2023-09-08T21:10:27.656Z,,0,,,NaN,,,,,,false,,,,65730.89999997616,65730.79999995232,,65730.60000002384,,65743.16,8,400,,,
break_continue,html.Screen,4_6_2,2023-09-08T21:10:27.656Z,,0,,,NaN,,,,,,false,,,,65731.10000002384,65731,,65730.89999997616,,65743.16,8,400,,,
sequence,flow.Sequence,4_6,2023-09-08T21:10:27.656Z,,0,,,3338.061999999998,completion,,,,,false,,,,65731.10000002384,65731,62376.235,62384.200000047684,62392.938,65743.16,8,400,,,
trial,html.Screen,4_7_0,2023-09-08T21:10:30.426Z,,0,1,,2757.2399999761546,response,ISIC_0347984.JPG,5,ISIC_1076091.JPG,ISIC_1076091.JPG,false,0,keypress(z),500,68500.5,68500.39999997616,65726.445,65731.10000002384,65743.16,68526.7,8,400,8,,ISIC_0347984.JPG
break,html.Screen,4_7_1,2023-09-08T21:10:30.426Z,,0,,,NaN,,,,,,false,,,,68500.89999997616,68500.79999995232,,68500.60000002384,,68526.7,8,400,,,
break_continue,html.Screen,4_7_2,2023-09-08T21:10:30.426Z,,0,,,NaN,,,,,,false,,,,68501,68501,,68501,,68526.7,8,400,,,
sequence,flow.Sequence,4_7,2023-09-08T21:10:30.426Z,,0,,,2757.8399999999965,completion,,,,,false,,,,68501.10000002384,68501,65726.445,65731.10000002384,65743.16,68526.7,8,400,,,
trial,html.Screen,4_8_0,2023-09-08T21:10:33.244Z,,0,1,,2791.699999976161,response,ISIC_3696488.JPG,6,ISIC_5179884.JPG,ISIC_5179884.JPG,false,0,keypress(z),500,71318.60000002384,71318.39999997616,68510.025,68501.20000004768,68526.7,71326.873,8,400,9,,ISIC_3696488.JPG
break,html.Screen,4_8_1,2023-09-08T21:10:33.244Z,,0,,,NaN,,,,,,false,,,,71319.39999997616,71318.79999995232,,71318.60000002384,,71326.873,8,400,,,
break_continue,html.Screen,4_8_2,2023-09-08T21:10:33.245Z,,0,,,NaN,,,,,,false,,,,71319.60000002384,71319.60000002384,,71319.5,,71326.873,8,400,,,
sequence,flow.Sequence,4_8,2023-09-08T21:10:33.245Z,,0,,,2792.9000000238448,completion,,,,,false,,,,71319.70000004768,71319.60000002384,68510.025,68501.20000004768,68526.7,71326.873,8,400,,,
trial,html.Screen,4_9_0,2023-09-08T21:10:35.950Z,,0,1,,2697.5269999761513,response,ISIC_7833178.JPG,5,ISIC_6882080.JPG,ISIC_7833178.JPG,false,1,keypress(m),500,74024.5,74024.39999997616,71310.199,71319.79999995232,71326.873,74027.073,8,400,10,,ISIC_6882080.JPG
break,html.Screen,4_9_1,2023-09-08T21:10:35.950Z,,0,,,NaN,,,,,,false,,,,74024.89999997616,74024.79999995232,,74024.60000002384,,74027.073,8,400,,,
break_continue,html.Screen,4_9_2,2023-09-08T21:10:35.950Z,,0,,,NaN,,,,,,false,,,,74025.10000002384,74025,,74025,,74027.073,8,400,,,
sequence,flow.Sequence,4_9,2023-09-08T21:10:35.950Z,,0,,,2698.126999999993,completion,,,,,false,,,,74025.10000002384,74025,71310.199,71319.79999995232,71326.873,74027.073,8,400,,,
trial,html.Screen,4_10_0,2023-09-08T21:10:38.897Z,,0,1,,2944.326999976154,response,ISIC_6882080.JPG,5,ISIC_0032339.JPG,ISIC_6882080.JPG,false,1,keypress(m),500,76971.60000002384,76971.39999997616,74010.332,74025.20000004768,74027.073,76977.296,8,400,11,,ISIC_0032339.JPG
break,html.Screen,4_10_1,2023-09-08T21:10:38.897Z,,0,,,NaN,,,,,,false,,,,76971.89999997616,76971.89999997616,,76971.60000002384,,76977.296,8,400,,,
break_continue,html.Screen,4_10_2,2023-09-08T21:10:38.897Z,,0,,,NaN,,,,,,false,,,,76972,76972,,76971.89999997616,,76977.296,8,400,,,
sequence,flow.Sequence,4_10,2023-09-08T21:10:38.897Z,,0,,,2944.926999999996,completion,,,,,false,,,,76972.10000002384,76972,74010.332,74025.20000004768,74027.073,76977.296,8,400,,,
trial,html.Screen,4_11_0,2023-09-08T21:10:41.675Z,,0,1,,2772.203999999998,response,ISIC_0011064.JPG,5,ISIC_0010510.JPG,ISIC_0011064.JPG,false,1,keypress(m),500,79749.5,79749.5,76960.542,76972.20000004768,76977.296,79760.819,8,400,12,,ISIC_0010510.JPG
break,html.Screen,4_11_1,2023-09-08T21:10:41.675Z,,0,,,NaN,,,,,,false,,,,79749.89999997616,79749.89999997616,,79749.60000002384,,79760.819,8,400,,,
break_continue,html.Screen,4_11_2,2023-09-08T21:10:41.675Z,,0,,,NaN,,,,,,false,,,,79750.10000002384,79750.10000002384,,79749.89999997616,,79760.819,8,400,,,
sequence,flow.Sequence,4_11,2023-09-08T21:10:41.675Z,,0,,,2772.8040000238398,completion,,,,,false,,,,79750.10000002384,79750.10000002384,76960.542,76972.20000004768,76977.296,79760.819,8,400,,,
trial,html.Screen,4_12_0,2023-09-08T21:10:44.290Z,,0,1,,2603.680999999997,response,ISIC_0033399.JPG,5,ISIC_9300579.JPG,ISIC_9300579.JPG,false,0,keypress(z),500,82364.70000004768,82364.5,79744.099,79750.20000004768,79760.819,82377.675,8,400,13,,ISIC_0033399.JPG
break,html.Screen,4_12_1,2023-09-08T21:10:44.290Z,,0,,,NaN,,,,,,false,,,,82365,82365,,82364.70000004768,,82377.675,8,400,,,
break_continue,html.Screen,4_12_2,2023-09-08T21:10:44.290Z,,0,,,NaN,,,,,,false,,,,82365.20000004768,82365.10000002384,,82365,,82377.675,8,400,,,
sequence,flow.Sequence,4_12,2023-09-08T21:10:44.290Z,,0,,,2604.2810000238387,completion,,,,,false,,,,82365.20000004768,82365.10000002384,79744.099,79750.10000002384,79760.819,82377.675,8,400,,,
trial,html.Screen,4_13_0,2023-09-08T21:10:47.028Z,,0,1,,2724.925000023839,response,ISIC_8021960.JPG,4,ISIC_0027591.JPG,ISIC_8021960.JPG,false,1,keypress(m),500,85102.70000004768,85102.60000002384,82360.953,82365.29999995232,82377.675,85111.193,8,400,14,,ISIC_0027591.JPG
break,html.Screen,4_13_1,2023-09-08T21:10:47.028Z,,0,,,NaN,,,,,,false,,,,85103.10000002384,85103,,85102.70000004768,,85111.193,8,400,,,
break_continue,html.Screen,4_13_2,2023-09-08T21:10:47.028Z,,0,,,NaN,,,,,,false,,,,85103.20000004768,85103.20000004768,,85103.10000002384,,85111.193,8,400,,,
sequence,flow.Sequence,4_13,2023-09-08T21:10:47.028Z,,0,,,2725.525000047681,completion,,,,,false,,,,85103.29999995232,85103.20000004768,82360.953,82365.29999995232,82377.675,85111.193,8,400,,,
trial,html.Screen,4_14_0,2023-09-08T21:10:49.755Z,,0,1,,2718.3070000000007,response,ISIC_2059085.JPG,5,ISIC_6199335.JPG,ISIC_2059085.JPG,false,1,keypress(m),500,87829.60000002384,87829.5,85094.435,85103.29999995232,85111.193,87844.677,8,400,15,,ISIC_6199335.JPG
break,html.Screen,4_14_1,2023-09-08T21:10:49.755Z,,0,,,NaN,,,,,,false,,,,87830.10000002384,87830,,87829.79999995232,,87844.677,8,400,,,
break_continue,html.Screen,4_14_2,2023-09-08T21:10:49.755Z,,0,,,NaN,,,,,,false,,,,87830.29999995232,87830.20000004768,,87830.10000002384,,87844.677,8,400,,,
sequence,flow.Sequence,4_14,2023-09-08T21:10:49.755Z,,0,,,2719.0070000476844,completion,,,,,false,,,,87830.29999995232,87830.20000004768,85094.435,85103.29999995232,85111.193,87844.677,8,400,,,
trial,html.Screen,4_15_0,2023-09-08T21:10:53.284Z,,0,1,,3513.923000023846,response,ISIC_3410193.JPG,5,ISIC_0031914.JPG,ISIC_3410193.JPG,false,1,keypress(m),500,91358.60000002384,91358.60000002384,87827.949,87830.39999997616,87844.677,91361.606,8,400,16,,ISIC_0031914.JPG
break,html.Screen,4_15_1,2023-09-08T21:10:53.284Z,,0,,,NaN,,,,,,false,,,,91359.10000002384,91358.89999997616,,91358.79999995232,,91361.606,8,400,,,
break_continue,html.Screen,4_15_2,2023-09-08T21:10:53.284Z,,0,,,NaN,,,,,,false,,,,91359.10000002384,91359.10000002384,,91359.10000002384,,91361.606,8,400,,,
sequence,flow.Sequence,4_15,2023-09-08T21:10:53.284Z,,0,,,3514.423000023846,completion,,,,,false,,,,91359.20000004768,91359.10000002384,87827.949,87830.39999997616,87844.677,91361.606,8,400,,,
trial,html.Screen,4_16_0,2023-09-08T21:10:56.060Z,,0,1,,2772.994000023842,response,ISIC_2377039.JPG,5,ISIC_0032017.JPG,ISIC_2377039.JPG,false,1,keypress(m),500,94134.70000004768,94134.60000002384,91344.864,91359.29999995232,91361.606,94145.12,8,400,17,,ISIC_0032017.JPG
break,html.Screen,4_16_1,2023-09-08T21:10:56.060Z,,0,,,NaN,,,,,,false,,,,94135.10000002384,94135.10000002384,,94134.79999995232,,94145.12,8,400,,,
break_continue,html.Screen,4_16_2,2023-09-08T21:10:56.060Z,,0,,,NaN,,,,,,false,,,,94135.29999995232,94135.29999995232,,94135.10000002384,,94145.12,8,400,,,
sequence,flow.Sequence,4_16,2023-09-08T21:10:56.060Z,,0,,,2773.6939999523165,completion,,,,,false,,,,94135.39999997616,94135.29999995232,91344.864,91359.20000004768,91361.606,94145.12,8,400,,,
trial,html.Screen,4_17_0,2023-09-08T21:10:58.782Z,,0,1,,2711.5800000476884,response,ISIC_6036959.JPG,6,ISIC_7803163.JPG,ISIC_7803163.JPG,false,0,keypress(z),500,96856.70000004768,96856.70000004768,94128.419,94135.39999997616,94145.12,96861.993,8,400,18,,ISIC_6036959.JPG
break,html.Screen,4_17_1,2023-09-08T21:10:58.782Z,,0,,,NaN,,,,,,false,,,,96857.20000004768,96857,,96856.89999997616,,96861.993,8,400,,,
break_continue,html.Screen,4_17_2,2023-09-08T21:10:58.782Z,,0,,,NaN,,,,,,false,,,,96857.39999997616,96857.29999995232,,96857.29999995232,,96861.993,8,400,,,
sequence,flow.Sequence,4_17,2023-09-08T21:10:58.782Z,,0,,,2712.179999952321,completion,,,,,false,,,,96857.39999997616,96857.29999995232,94128.419,94135.39999997616,94145.12,96861.993,8,400,,,
trial,html.Screen,4_18_0,2023-09-08T21:11:01.893Z,,0,1,,3105.6070000238396,response,ISIC_0372902.JPG,6,ISIC_6370597.JPG,ISIC_0372902.JPG,false,1,keypress(m),500,99967.79999995232,99967.60000002384,96845.294,96857.5,96861.993,99978.84,8,400,19,,ISIC_6370597.JPG
break,html.Screen,4_18_1,2023-09-08T21:11:01.893Z,,0,,,NaN,,,,,,false,,,,99968.10000002384,99968,,99967.79999995232,,99978.84,8,400,,,
break_continue,html.Screen,4_18_2,2023-09-08T21:11:01.893Z,,0,,,NaN,,,,,,false,,,,99968.29999995232,99968.20000004768,,99968.10000002384,,99978.84,8,400,,,
sequence,flow.Sequence,4_18,2023-09-08T21:11:01.893Z,,0,,,3106.2070000476815,completion,,,,,false,,,,99968.39999997616,99968.20000004768,96845.294,96857.39999997616,96861.993,99978.84,8,400,,,
trial,html.Screen,4_19_0,2023-09-08T21:11:05.709Z,,0,1,,3804.860000047687,response,ISIC_0010901.JPG,5,ISIC_0069486.JPG,ISIC_0010901.JPG,false,1,keypress(m),500,103783.79999995232,103783.70000004768,99962.131,99968.39999997616,99978.84,103795.769,8,400,20,,ISIC_0069486.JPG
break,html.Screen,4_19_1,2023-09-08T21:11:05.709Z,,0,,,NaN,,,,,,false,,,,103784.20000004768,103784.20000004768,,103783.89999997616,,103795.769,8,400,,,
break_continue,html.Screen,4_19_2,2023-09-08T21:11:05.709Z,,0,,,NaN,,,,,,false,,,,103784.39999997616,103784.39999997616,,103784.20000004768,,103795.769,8,400,,,
sequence,flow.Sequence,4_19,2023-09-08T21:11:05.709Z,,0,,,3805.5599999761616,completion,,,,,false,,,,103784.39999997616,103784.39999997616,99962.131,99968.39999997616,99978.84,103795.769,8,400,,,
trial,html.Screen,4_20_0,2023-09-08T21:11:08.638Z,,0,1,,2917.130999976158,response,ISIC_0007416.JPG,6,ISIC_4851652.JPG,ISIC_0007416.JPG,false,1,keypress(m),500,106713,106712.89999997616,103779.085,103784.5,103795.769,106745.988,8,400,21,,ISIC_4851652.JPG
break,html.Screen,4_20_1,2023-09-08T21:11:08.638Z,,0,,,NaN,,,,,,false,,,,106713.5,106713.39999997616,,106713.10000002384,,106745.988,8,400,,,
break_continue,html.Screen,4_20_2,2023-09-08T21:11:08.639Z,,0,,,NaN,,,,,,false,,,,106713.60000002384,106713.60000002384,,106713.5,,106745.988,8,400,,,
sequence,flow.Sequence,4_20,2023-09-08T21:11:08.639Z,,0,,,2917.8310000238416,completion,,,,,false,,,,106713.60000002384,106713.60000002384,103779.085,103784.39999997616,103795.769,106745.988,8,400,,,
trial,html.Screen,4_21_0,2023-09-08T21:11:11.584Z,,0,1,,2912.8119999523187,response,ISIC_0032473.JPG,6,ISIC_3249783.JPG,ISIC_3249783.JPG,false,0,keypress(z),500,109658.79999995232,109658.79999995232,106729.307,106713.79999995232,106745.988,109662.823,8,400,22,,ISIC_0032473.JPG
break,html.Screen,4_21_1,2023-09-08T21:11:11.584Z,,0,,,NaN,,,,,,false,,,,109659.29999995232,109659.10000002384,,109658.89999997616,,109662.823,8,400,,,
break_continue,html.Screen,4_21_2,2023-09-08T21:11:11.584Z,,0,,,NaN,,,,,,false,,,,109659.29999995232,109659.29999995232,,109659.29999995232,,109662.823,8,400,,,
sequence,flow.Sequence,4_21,2023-09-08T21:11:11.584Z,,0,,,2913.3119999523187,completion,,,,,false,,,,109659.39999997616,109659.29999995232,106729.307,106713.70000004768,106745.988,109662.823,8,400,,,
trial,html.Screen,4_22_0,2023-09-08T21:11:14.454Z,,0,1,,2865.8770000476798,response,ISIC_7984080.JPG,5,ISIC_0059866.JPG,ISIC_7984080.JPG,false,1,keypress(m),500,112528.89999997616,112528.70000004768,109646.181,109659.5,109662.823,112529.711,8,400,23,,ISIC_0059866.JPG
break,html.Screen,4_22_1,2023-09-08T21:11:14.454Z,,0,,,NaN,,,,,,false,,,,112529.20000004768,112529.10000002384,,112529,,112529.711,8,400,,,
break_continue,html.Screen,4_22_2,2023-09-08T21:11:14.454Z,,0,,,NaN,,,,,,false,,,,112529.29999995232,112529.29999995232,,112529.20000004768,,112529.711,8,400,,,
sequence,flow.Sequence,4_22,2023-09-08T21:11:14.454Z,,0,,,2866.4769999523123,completion,,,,,false,,,,112529.39999997616,112529.29999995232,109646.181,109659.5,109662.823,112529.711,8,400,,,
trial,html.Screen,4_23_0,2023-09-08T21:11:17.161Z,,0,1,,2706.0889999523206,response,ISIC_7491389.JPG,5,ISIC_0061244.JPG,ISIC_7491389.JPG,false,1,keypress(m),500,115235.89999997616,115235.79999995232,112513.039,112529.5,112529.711,115246.559,8,400,24,,ISIC_0061244.JPG
break,html.Screen,4_23_1,2023-09-08T21:11:17.161Z,,0,,,NaN,,,,,,false,,,,115236.29999995232,115236.20000004768,,115236,,115246.559,8,400,,,
break_continue,html.Screen,4_23_2,2023-09-08T21:11:17.161Z,,0,,,NaN,,,,,,false,,,,115236.39999997616,115236.39999997616,,115236.29999995232,,115246.559,8,400,,,
sequence,flow.Sequence,4_23,2023-09-08T21:11:17.162Z,,0,,,2706.6889999761624,completion,,,,,false,,,,115236.5,115236.39999997616,112513.039,112529.5,112529.711,115246.559,8,400,,,
trial,html.Screen,4_24_0,2023-09-08T21:11:21.184Z,,0,1,,4012.2409999523225,response,ISIC_0011924.JPG,6,ISIC_2717192.JPG,ISIC_0011924.JPG,false,1,keypress(m),500,119258.89999997616,119258.79999995232,115229.837,115236.5,115246.559,119263.494,8,400,25,,ISIC_2717192.JPG
break,html.Screen,4_24_1,2023-09-08T21:11:21.184Z,,0,,,NaN,,,,,,false,,,,119259.29999995232,119259.20000004768,,119259,,119263.494,8,400,,,
break_continue,html.Screen,4_24_2,2023-09-08T21:11:21.184Z,,0,,,NaN,,,,,,false,,,,119259.39999997616,119259.39999997616,,119259.39999997616,,119263.494,8,400,,,
sequence,flow.Sequence,4_24,2023-09-08T21:11:21.185Z,,0,,,4012.8409999761643,completion,,,,,false,,,,119259.5,119259.39999997616,115229.837,115236.5,115246.559,119263.494,8,400,,,
trial,html.Screen,4_25_0,2023-09-08T21:11:23.955Z,,0,1,,2766.3059999523102,response,ISIC_6780471.JPG,5,ISIC_7235128.JPG,ISIC_6780471.JPG,false,1,keypress(m),500,122029.89999997616,122029.79999995232,119246.818,119259.60000002384,119263.494,122030.391,8,400,26,,ISIC_7235128.JPG
break,html.Screen,4_25_1,2023-09-08T21:11:23.956Z,,0,,,NaN,,,,,,false,,,,122030.5,122030.20000004768,,122030.10000002384,,122030.391,8,400,,,
break_continue,html.Screen,4_25_2,2023-09-08T21:11:23.956Z,,0,,,NaN,,,,,,false,,,,122030.79999995232,122030.70000004768,,122030.60000002384,,122030.391,8,400,,,
sequence,flow.Sequence,4_25,2023-09-08T21:11:23.956Z,,0,,,2767.2060000476777,completion,,,,,false,,,,122030.79999995232,122030.70000004768,119246.818,119259.60000002384,119263.494,122030.391,8,400,,,
trial,html.Screen,4_26_0,2023-09-08T21:11:26.504Z,,0,1,,2548.408999952313,response,ISIC_1708591.JPG,5,ISIC_0031208.JPG,ISIC_1708591.JPG,false,1,keypress(m),500,124578.89999997616,124578.79999995232,122013.672,122030.89999997616,122030.391,124580.569,8,400,27,,ISIC_0031208.JPG
break,html.Screen,4_26_1,2023-09-08T21:11:26.504Z,,0,,,NaN,,,,,,false,,,,124579.29999995232,124579.20000004768,,124579,,124580.569,8,400,,,
break_continue,html.Screen,4_26_2,2023-09-08T21:11:26.504Z,,0,,,NaN,,,,,,false,,,,124579.39999997616,124579.29999995232,,124579.29999995232,,124580.569,8,400,,,
sequence,flow.Sequence,4_26,2023-09-08T21:11:26.504Z,,0,,,2548.908999952313,completion,,,,,false,,,,124579.5,124579.29999995232,122013.672,122030.89999997616,122030.391,124580.569,8,400,,,
trial,html.Screen,4_27_0,2023-09-08T21:11:29.088Z,,0,1,,2582.230999952313,response,ISIC_4026569.JPG,6,ISIC_7423852.JPG,ISIC_4026569.JPG,false,1,keypress(m),500,127163,127162.79999995232,124563.815,124579.60000002384,124580.569,127164.065,8,400,28,,ISIC_7423852.JPG
break,html.Screen,4_27_1,2023-09-08T21:11:29.088Z,,0,,,NaN,,,,,,false,,,,127163.29999995232,127163.29999995232,,127163,,127164.065,8,400,,,
break_continue,html.Screen,4_27_2,2023-09-08T21:11:29.088Z,,0,,,NaN,,,,,,false,,,,127163.5,127163.39999997616,,127163.39999997616,,127164.065,8,400,,,
sequence,flow.Sequence,4_27,2023-09-08T21:11:29.089Z,,0,,,2582.830999976155,completion,,,,,false,,,,127163.5,127163.39999997616,124563.815,124579.60000002384,124580.569,127164.065,8,400,,,
trial,html.Screen,4_28_0,2023-09-08T21:11:31.907Z,,0,1,,2817.834999976156,response,ISIC_0485529.JPG,6,ISIC_0027076.JPG,ISIC_0027076.JPG,false,0,keypress(z),500,129982.20000004768,129981.89999997616,127147.332,127163.60000002384,127164.065,129997.583,8,400,29,,ISIC_0485529.JPG
break,html.Screen,4_28_1,2023-09-08T21:11:31.908Z,,0,,,NaN,,,,,,false,,,,129982.70000004768,129982.60000002384,,129982.29999995232,,129997.583,8,400,,,
break_continue,html.Screen,4_28_2,2023-09-08T21:11:31.908Z,,0,,,NaN,,,,,,false,,,,129982.89999997616,129982.89999997616,,129982.70000004768,,129997.583,8,400,,,
sequence,flow.Sequence,4_28,2023-09-08T21:11:31.908Z,,0,,,2818.834999976156,completion,,,,,false,,,,129983,129982.89999997616,127147.332,127163.5,127164.065,129997.583,8,400,,,
trial,html.Screen,4_29_0,2023-09-08T21:11:34.697Z,,0,1,,2774.3169999761594,response,ISIC_4570724.JPG,6,ISIC_0059597.JPG,ISIC_4570724.JPG,false,1,keypress(m),500,132772,132771.89999997616,129980.901,129983.10000002384,129997.583,132781.098,8,400,30,,ISIC_0059597.JPG
break,html.Screen,4_29_1,2023-09-08T21:11:34.697Z,,0,,,NaN,,,,,,false,,,,132772.39999997616,132772.29999995232,,132772.10000002384,,132781.098,8,400,,,
break_continue,html.Screen,4_29_2,2023-09-08T21:11:34.698Z,,0,,,NaN,,,,,,false,,,,132772.60000002384,132772.5,,132772.39999997616,,132781.098,8,400,,,
sequence,flow.Sequence,4_29,2023-09-08T21:11:34.698Z,,0,,,2774.9170000000013,completion,,,,,false,,,,132772.60000002384,132772.5,129980.901,129983.10000002384,129997.583,132781.098,8,400,,,
trial,html.Screen,4_30_0,2023-09-08T21:11:37.377Z,,0,1,,2670.80199997616,response,ISIC_5370803.JPG,6,ISIC_3123377.JPG,ISIC_5370803.JPG,false,1,keypress(m),500,135452,135451.89999997616,132764.393,132772.70000004768,132781.098,135464.655,8,400,31,,ISIC_3123377.JPG
break,html.Screen,4_30_1,2023-09-08T21:11:37.377Z,,0,,,NaN,,,,,,false,,,,135452.39999997616,135452.29999995232,,135452.10000002384,,135464.655,8,400,,,
break_continue,html.Screen,4_30_2,2023-09-08T21:11:37.378Z,,0,,,NaN,,,,,,false,,,,135452.5,135452.39999997616,,135452.39999997616,,135464.655,8,400,,,
sequence,flow.Sequence,4_30,2023-09-08T21:11:37.378Z,,0,,,2671.30199997616,completion,,,,,false,,,,135452.5,135452.39999997616,132764.393,132772.60000002384,132781.098,135464.655,8,400,,,
trial,html.Screen,4_31_0,2023-09-08T21:11:40.132Z,,0,1,,2742.2449999761593,response,ISIC_5706908.JPG,5,ISIC_0056192.JPG,ISIC_5706908.JPG,false,1,keypress(m),500,138207.10000002384,138206.89999997616,135447.945,135452.60000002384,135464.655,138214.812,8,400,32,,ISIC_0056192.JPG
break,html.Screen,4_31_1,2023-09-08T21:11:40.133Z,,0,,,NaN,,,,,,false,,,,138207.60000002384,138207.39999997616,,138207.20000004768,,138214.812,8,400,,,
break_continue,html.Screen,4_31_2,2023-09-08T21:11:40.133Z,,0,,,NaN,,,,,,false,,,,138207.79999995232,138207.60000002384,,138207.60000002384,,138214.812,8,400,,,
sequence,flow.Sequence,4_31,2023-09-08T21:11:40.133Z,,0,,,2742.945000023843,completion,,,,,false,,,,138207.79999995232,138207.60000002384,135447.945,135452.60000002384,135464.655,138214.812,8,400,,,
trial,html.Screen,4_32_0,2023-09-08T21:11:42.967Z,,0,1,,2827.087999976153,response,ISIC_7226381.JPG,6,ISIC_0430356.JPG,ISIC_7226381.JPG,false,1,keypress(m),500,141042.10000002384,141041.89999997616,138198.225,138207.89999997616,138214.812,141048.377,8,400,33,,ISIC_0430356.JPG
break,html.Screen,4_32_1,2023-09-08T21:11:42.968Z,,0,,,NaN,,,,,,false,,,,141042.5,141042.39999997616,,141042.20000004768,,141048.377,8,400,,,
break_continue,html.Screen,4_32_2,2023-09-08T21:11:42.968Z,,0,,,NaN,,,,,,false,,,,141042.70000004768,141042.70000004768,,141042.5,,141048.377,8,400,,,
sequence,flow.Sequence,4_32,2023-09-08T21:11:42.968Z,,0,,,2827.8880000476784,completion,,,,,false,,,,141042.79999995232,141042.70000004768,138198.225,138207.79999995232,138214.812,141048.377,8,400,,,
trial,html.Screen,4_33_0,2023-09-08T21:11:45.865Z,,0,1,,2891.9229999523086,response,ISIC_6342224.JPG,4,ISIC_4438786.JPG,ISIC_4438786.JPG,false,0,keypress(z),500,143940.5,143940.29999995232,141031.662,141042.79999995232,141048.377,143948.524,8,400,34,,ISIC_6342224.JPG
break,html.Screen,4_33_1,2023-09-08T21:11:45.866Z,,0,,,NaN,,,,,,false,,,,143940.89999997616,143940.79999995232,,143940.60000002384,,143948.524,8,400,,,
break_continue,html.Screen,4_33_2,2023-09-08T21:11:45.866Z,,0,,,NaN,,,,,,false,,,,143941,143940.89999997616,,143940.89999997616,,143948.524,8,400,,,
sequence,flow.Sequence,4_33,2023-09-08T21:11:45.866Z,,0,,,2892.5229999761505,completion,,,,,false,,,,143941,143940.89999997616,141031.662,141042.79999995232,141048.377,143948.524,8,400,,,
trial,html.Screen,4_34_0,2023-09-08T21:11:49.180Z,,0,1,,3305.975999999995,response,ISIC_2046891.JPG,5,ISIC_7651838.JPG,ISIC_2046891.JPG,false,1,keypress(m),500,147254.70000004768,147254.5,143931.834,143941.10000002384,143948.524,147265.431,8,400,35,,ISIC_7651838.JPG
break,html.Screen,4_34_1,2023-09-08T21:11:49.180Z,,0,,,NaN,,,,,,false,,,,147255.10000002384,147255,,147254.79999995232,,147265.431,8,400,,,
break_continue,html.Screen,4_34_2,2023-09-08T21:11:49.180Z,,0,,,NaN,,,,,,false,,,,147255.20000004768,147255.20000004768,,147255.20000004768,,147265.431,8,400,,,
sequence,flow.Sequence,4_34,2023-09-08T21:11:49.180Z,,0,,,3306.676000047679,completion,,,,,false,,,,147255.29999995232,147255.20000004768,143931.834,143941.10000002384,143948.524,147265.431,8,400,,,
trial,html.Screen,4_35_0,2023-09-08T21:11:51.726Z,,0,1,,2535.1690000238304,response,ISIC_9521776.JPG,5,ISIC_0029303.JPG,ISIC_9521776.JPG,false,1,keypress(m),500,149800.79999995232,149800.60000002384,147248.719,147255.29999995232,147265.431,149815.6,8,400,36,,ISIC_0029303.JPG
break,html.Screen,4_35_1,2023-09-08T21:11:51.726Z,,0,,,NaN,,,,,,false,,,,149801.20000004768,149801,,149800.89999997616,,149815.6,8,400,,,
break_continue,html.Screen,4_35_2,2023-09-08T21:11:51.726Z,,0,,,NaN,,,,,,false,,,,149801.29999995232,149801.29999995232,,149801.29999995232,,149815.6,8,400,,,
sequence,flow.Sequence,4_35,2023-09-08T21:11:51.726Z,,0,,,2535.868999952305,completion,,,,,false,,,,149801.39999997616,149801.29999995232,147248.719,147255.29999995232,147265.431,149815.6,8,400,,,
trial,html.Screen,4_36_0,2023-09-08T21:11:54.592Z,,0,1,,2850.899999999994,response,ISIC_0012082.JPG,4,ISIC_0014867.JPG,ISIC_0014867.JPG,false,0,keypress(z),500,152666.70000004768,152666.5,149798.918,149801.39999997616,149815.6,152682.471,8,400,37,,ISIC_0012082.JPG
break,html.Screen,4_36_1,2023-09-08T21:11:54.592Z,,0,,,NaN,,,,,,false,,,,152667,152667,,152666.79999995232,,152682.471,8,400,,,
break_continue,html.Screen,4_36_2,2023-09-08T21:11:54.592Z,,0,,,NaN,,,,,,false,,,,152667.20000004768,152667.10000002384,,152667.10000002384,,152682.471,8,400,,,
sequence,flow.Sequence,4_36,2023-09-08T21:11:54.592Z,,0,,,2851.500000023836,completion,,,,,false,,,,152667.20000004768,152667.10000002384,149798.918,149801.39999997616,149815.6,152682.471,8,400,,,
trial,html.Screen,4_37_0,2023-09-08T21:11:57.813Z,,0,1,,3205.0290000000095,response,ISIC_0000029.JPG,5,ISIC_0014545.JPG,ISIC_0000029.JPG,false,1,keypress(m),500,155887.60000002384,155887.5,152665.777,152667.29999995232,152682.471,155899.343,8,400,38,,ISIC_0014545.JPG
break,html.Screen,4_37_1,2023-09-08T21:11:57.813Z,,0,,,NaN,,,,,,false,,,,155888,155887.89999997616,,155887.70000004768,,155899.343,8,400,,,
break_continue,html.Screen,4_37_2,2023-09-08T21:11:57.813Z,,0,,,NaN,,,,,,false,,,,155888.20000004768,155888.10000002384,,155888.10000002384,,155899.343,8,400,,,
sequence,flow.Sequence,4_37,2023-09-08T21:11:57.813Z,,0,,,3205.6290000238514,completion,,,,,false,,,,155888.29999995232,155888.10000002384,152665.777,152667.29999995232,152682.471,155899.343,8,400,,,
trial,html.Screen,4_38_0,2023-09-08T21:12:00.493Z,,0,1,,2668.2570000238484,response,ISIC_0027445.JPG,5,ISIC_0054777.JPG,ISIC_0027445.JPG,false,1,keypress(m),500,158567.79999995232,158567.60000002384,155882.665,155888.29999995232,155899.343,158583.052,8,400,39,,ISIC_0054777.JPG
break,html.Screen,4_38_1,2023-09-08T21:12:00.493Z,,0,,,NaN,,,,,,false,,,,158568.39999997616,158568.29999995232,,158567.89999997616,,158583.052,8,400,,,
break_continue,html.Screen,4_38_2,2023-09-08T21:12:00.494Z,,0,,,NaN,,,,,,false,,,,158568.70000004768,158568.60000002384,,158568.5,,158583.052,8,400,,,
sequence,flow.Sequence,4_38,2023-09-08T21:12:00.494Z,,0,,,2669.2570000238484,completion,,,,,false,,,,158568.79999995232,158568.60000002384,155882.665,155888.29999995232,155899.343,158583.052,8,400,,,
trial,html.Screen,4_39_0,2023-09-08T21:12:03.109Z,,0,1,,2600.548000023846,response,ISIC_4034644.JPG,5,ISIC_0011699.JPG,ISIC_4034644.JPG,false,1,keypress(m),500,161183.79999995232,161183.60000002384,158566.182,158568.89999997616,158583.052,161199.737,8,400,40,,ISIC_0011699.JPG
break,html.Screen,4_39_1,2023-09-08T21:12:03.109Z,,0,,,NaN,,,,,,false,,,,161184.39999997616,161184.29999995232,,161183.89999997616,,161199.737,8,400,,,
break_continue,html.Screen,4_39_2,2023-09-08T21:12:03.110Z,,0,,,NaN,,,,,,false,,,,161184.60000002384,161184.60000002384,,161184.5,,161199.737,8,400,,,
sequence,flow.Sequence,4_39,2023-09-08T21:12:03.110Z,,0,,,2601.548000023846,completion,,,,,false,,,,161184.70000004768,161184.60000002384,158566.182,158568.89999997616,158583.052,161199.737,8,400,,,
trial,html.Screen,4_40_0,2023-09-08T21:12:05.726Z,,0,1,,2600.863000023848,response,ISIC_7898061.JPG,6,ISIC_0010415.JPG,ISIC_7898061.JPG,false,1,keypress(m),500,163800.70000004768,163800.60000002384,161182.99,161184.79999995232,161199.737,163816.572,8,400,41,,ISIC_0010415.JPG
break,html.Screen,4_40_1,2023-09-08T21:12:05.726Z,,0,,,NaN,,,,,,false,,,,163801.20000004768,163801,,163800.89999997616,,163816.572,8,400,,,
break_continue,html.Screen,4_40_2,2023-09-08T21:12:05.726Z,,0,,,NaN,,,,,,false,,,,163801.29999995232,163801.29999995232,,163801.20000004768,,163816.572,8,400,,,
sequence,flow.Sequence,4_40,2023-09-08T21:12:05.726Z,,0,,,2601.5629999523226,completion,,,,,false,,,,163801.39999997616,163801.29999995232,161182.99,161184.79999995232,161199.737,163816.572,8,400,,,
trial,html.Screen,4_41_0,2023-09-08T21:12:08.417Z,,0,1,,2675.0280000238563,response,ISIC_4223734.JPG,5,ISIC_9667297.JPG,ISIC_4223734.JPG,false,1,keypress(m),500,166491.70000004768,166491.60000002384,163799.853,163801.39999997616,163816.572,166500.07,8,400,42,,ISIC_9667297.JPG
break,html.Screen,4_41_1,2023-09-08T21:12:08.417Z,,0,,,NaN,,,,,,false,,,,166492.10000002384,166492,,166491.79999995232,,166500.07,8,400,,,
break_continue,html.Screen,4_41_2,2023-09-08T21:12:08.417Z,,0,,,NaN,,,,,,false,,,,166492.20000004768,166492.20000004768,,166492.20000004768,,166500.07,8,400,,,
sequence,flow.Sequence,4_41,2023-09-08T21:12:08.417Z,,0,,,2675.628000047698,completion,,,,,false,,,,166492.29999995232,166492.20000004768,163799.853,163801.39999997616,163816.572,166500.07,8,400,,,
trial,html.Screen,4_42_0,2023-09-08T21:12:11.124Z,,0,1,,2698.530000023835,response,ISIC_0479264.JPG,6,ISIC_2937407.JPG,ISIC_0479264.JPG,false,1,keypress(m),500,169198.70000004768,169198.60000002384,166483.351,166492.29999995232,166500.07,169200.311,8,400,43,,ISIC_2937407.JPG
break,html.Screen,4_42_1,2023-09-08T21:12:11.124Z,,0,,,NaN,,,,,,false,,,,169199.10000002384,169199,,169198.89999997616,,169200.311,8,400,,,
break_continue,html.Screen,4_42_2,2023-09-08T21:12:11.124Z,,0,,,NaN,,,,,,false,,,,169199.29999995232,169199.29999995232,,169199.10000002384,,169200.311,8,400,,,
sequence,flow.Sequence,4_42,2023-09-08T21:12:11.124Z,,0,,,2699.2299999523093,completion,,,,,false,,,,169199.29999995232,169199.29999995232,166483.351,166492.29999995232,166500.07,169200.311,8,400,,,
trial,html.Screen,4_43_0,2023-09-08T21:12:13.702Z,,0,1,,2576.289000023855,response,ISIC_0013618.JPG,5,ISIC_4887874.JPG,ISIC_4887874.JPG,false,0,keypress(z),500,171776.79999995232,171776.60000002384,169183.586,169199.39999997616,169200.311,171783.773,8,400,44,,ISIC_0013618.JPG
break,html.Screen,4_43_1,2023-09-08T21:12:13.702Z,,0,,,NaN,,,,,,false,,,,171777.10000002384,171777.10000002384,,171776.79999995232,,171783.773,8,400,,,
break_continue,html.Screen,4_43_2,2023-09-08T21:12:13.702Z,,0,,,NaN,,,,,,false,,,,171777.29999995232,171777.29999995232,,171777.20000004768,,171783.773,8,400,,,
sequence,flow.Sequence,4_43,2023-09-08T21:12:13.702Z,,0,,,2576.9889999523293,completion,,,,,false,,,,171777.39999997616,171777.29999995232,169183.586,169199.39999997616,169200.311,171783.773,8,400,,,
trial,html.Screen,4_44_0,2023-09-08T21:12:16.318Z,,0,1,,2608.927000047697,response,ISIC_0014171.JPG,6,ISIC_0028462.JPG,ISIC_0014171.JPG,false,1,keypress(m),500,174392.79999995232,174392.70000004768,171767.058,171777.39999997616,171783.773,174400.66,8,400,45,,ISIC_0028462.JPG
break,html.Screen,4_44_1,2023-09-08T21:12:16.318Z,,0,,,NaN,,,,,,false,,,,174393.10000002384,174393.10000002384,,174392.89999997616,,174400.66,8,400,,,
break_continue,html.Screen,4_44_2,2023-09-08T21:12:16.318Z,,0,,,NaN,,,,,,false,,,,174393.39999997616,174393.29999995232,,174393.20000004768,,174400.66,8,400,,,
sequence,flow.Sequence,4_44,2023-09-08T21:12:16.318Z,,0,,,2609.52699995233,completion,,,,,false,,,,174393.39999997616,174393.29999995232,171767.058,171777.39999997616,171783.773,174400.66,8,400,,,
trial,html.Screen,4_45_0,2023-09-08T21:12:19.015Z,,0,1,,2689.04000004768,response,ISIC_9754098.JPG,6,ISIC_0000358.JPG,ISIC_9754098.JPG,false,1,keypress(m),500,177089.79999995232,177089.70000004768,174383.9,174393.5,174400.66,177100.895,8,400,46,,ISIC_0000358.JPG
break,html.Screen,4_45_1,2023-09-08T21:12:19.015Z,,0,,,NaN,,,,,,false,,,,177090.10000002384,177090.10000002384,,177089.79999995232,,177100.895,8,400,,,
break_continue,html.Screen,4_45_2,2023-09-08T21:12:19.015Z,,0,,,NaN,,,,,,false,,,,177090.29999995232,177090.29999995232,,177090.29999995232,,177100.895,8,400,,,
sequence,flow.Sequence,4_45,2023-09-08T21:12:19.015Z,,0,,,2689.639999952313,completion,,,,,false,,,,177090.39999997616,177090.29999995232,174383.9,174393.5,174400.66,177100.895,8,400,,,
trial,html.Screen,4_46_0,2023-09-08T21:12:21.498Z,,0,1,,2471.805000047694,response,ISIC_5297660.JPG,6,ISIC_0058016.JPG,ISIC_5297660.JPG,false,1,keypress(m),500,179572.89999997616,179572.70000004768,177084.098,177090.39999997616,177100.895,179584.313,8,400,47,,ISIC_0058016.JPG
break,html.Screen,4_46_1,2023-09-08T21:12:21.498Z,,0,,,NaN,,,,,,false,,,,179573.29999995232,179573.20000004768,,179573,,179584.313,8,400,,,
break_continue,html.Screen,4_46_2,2023-09-08T21:12:21.498Z,,0,,,NaN,,,,,,false,,,,179573.39999997616,179573.29999995232,,179573.29999995232,,179584.313,8,400,,,
sequence,flow.Sequence,4_46,2023-09-08T21:12:21.498Z,,0,,,2472.4049999523268,completion,,,,,false,,,,179573.5,179573.29999995232,177084.098,177090.39999997616,177100.895,179584.313,8,400,,,
trial,html.Screen,4_47_0,2023-09-08T21:12:24.048Z,,0,1,,2538.387000047689,response,ISIC_4086323.JPG,5,ISIC_7100755.JPG,ISIC_7100755.JPG,false,0,keypress(z),500,182122.89999997616,182122.70000004768,179567.647,179573.60000002384,179584.313,182134.482,8,400,48,,ISIC_4086323.JPG
break,html.Screen,4_47_1,2023-09-08T21:12:24.048Z,,0,,,NaN,,,,,,false,,,,182123.10000002384,182123.10000002384,,182122.89999997616,,182134.482,8,400,,,
break_continue,html.Screen,4_47_2,2023-09-08T21:12:24.048Z,,0,,,NaN,,,,,,false,,,,182123.39999997616,182123.29999995232,,182123.20000004768,,182134.482,8,400,,,
sequence,flow.Sequence,4_47,2023-09-08T21:12:24.048Z,,0,,,2538.9869999523216,completion,,,,,false,,,,182123.39999997616,182123.29999995232,179567.647,179573.60000002384,179584.313,182134.482,8,400,,,
trial,html.Screen,4_48_0,2023-09-08T21:12:26.616Z,,0,1,,2556.2180000476947,response,ISIC_0013813.JPG,6,ISIC_7293518.JPG,ISIC_7293518.JPG,false,0,keypress(z),500,184690.89999997616,184690.70000004768,182117.777,182123.39999997616,182134.482,184701.327,8,400,49,,ISIC_0013813.JPG
break,html.Screen,4_48_1,2023-09-08T21:12:26.616Z,,0,,,NaN,,,,,,false,,,,184691.29999995232,184691.29999995232,,184691.10000002384,,184701.327,8,400,,,
break_continue,html.Screen,4_48_2,2023-09-08T21:12:26.617Z,,0,,,NaN,,,,,,false,,,,184691.5,184691.5,,184691.39999997616,,184701.327,8,400,,,
sequence,flow.Sequence,4_48,2023-09-08T21:12:26.617Z,,0,,,2557.018000000011,completion,,,,,false,,,,184691.60000002384,184691.5,182117.777,182123.39999997616,182134.482,184701.327,8,400,,,
trial,html.Screen,4_49_0,2023-09-08T21:12:29.312Z,,0,1,,2685.3730000476935,response,ISIC_0072642.JPG,6,ISIC_0027561.JPG,ISIC_0027561.JPG,false,0,keypress(z),500,187386.79999995232,187386.70000004768,184684.697,184691.70000004768,184701.327,187401.517,8,400,50,,ISIC_0072642.JPG
break,html.Screen,4_49_1,2023-09-08T21:12:39.311Z,,0,,,10000.69100000002,timeout,,,,,false,,,,197386,197385.539,187384.852,187387,187401.517,197402.208,8,400,,,
break_continue,html.Screen,4_49_2,2023-09-08T21:12:41.272Z,,0,,,1940.9920000476704,response,,,,,false,continue,keypress(Space),,199347.10000002384,199343.20000004768,197385.539,197386.10000002384,197402.208,199352.354,8,400,,,
sequence,flow.Sequence,4_49,2023-09-08T21:12:41.272Z,,0,,,14641.873000047693,completion,,,,,false,,,,199347.29999995232,199343.20000004768,184684.697,184691.70000004768,184701.327,199352.354,8,400,,,
trial,html.Screen,4_50_0,2023-09-08T21:12:43.754Z,,0,2,,2476.3460000476916,response,ISIC_0061972.JPG,6,ISIC_0031900.JPG,ISIC_0061972.JPG,false,1,keypress(m),500,201828.89999997616,201828.70000004768,199335.599,199347.29999995232,199352.354,201835.893,8,400,1,,ISIC_0031900.JPG
break,html.Screen,4_50_1,2023-09-08T21:12:43.754Z,,0,,,NaN,,,,,,false,,,,201829.29999995232,201829.20000004768,,201829,,201835.893,8,400,,,
break_continue,html.Screen,4_50_2,2023-09-08T21:12:43.754Z,,0,,,NaN,,,,,,false,,,,201829.39999997616,201829.39999997616,,201829.29999995232,,201835.893,8,400,,,
sequence,flow.Sequence,4_50,2023-09-08T21:12:43.754Z,,0,,,2477.045999976166,completion,,,,,false,,,,201829.5,201829.39999997616,199335.599,199347.29999995232,199352.354,201835.893,8,400,,,
trial,html.Screen,4_51_0,2023-09-08T21:12:46.381Z,,0,2,,2619.9069999523053,response,ISIC_0030440.JPG,5,ISIC_0029609.JPG,ISIC_0030440.JPG,false,1,keypress(m),500,204455.89999997616,204455.79999995232,201819.163,201829.60000002384,201835.893,204469.358,8,400,2,,ISIC_0029609.JPG
break,html.Screen,4_51_1,2023-09-08T21:12:46.381Z,,0,,,NaN,,,,,,false,,,,204456.29999995232,204456.20000004768,,204456,,204469.358,8,400,,,
break_continue,html.Screen,4_51_2,2023-09-08T21:12:46.381Z,,0,,,NaN,,,,,,false,,,,204456.5,204456.5,,204456.39999997616,,204469.358,8,400,,,
sequence,flow.Sequence,4_51,2023-09-08T21:12:46.382Z,,0,,,2620.606999999989,completion,,,,,false,,,,204456.5,204456.5,201819.163,201829.5,201835.893,204469.358,8,400,,,
trial,html.Screen,4_52_0,2023-09-08T21:12:48.976Z,,0,2,,2581.441999952309,response,ISIC_0011704.JPG,5,ISIC_5675703.JPG,ISIC_5675703.JPG,false,0,keypress(z),500,207050.89999997616,207050.79999995232,204452.669,204456.60000002384,204469.358,207052.887,8,400,3,,ISIC_0011704.JPG
break,html.Screen,4_52_1,2023-09-08T21:12:48.976Z,,0,,,NaN,,,,,,false,,,,207051.29999995232,207051.20000004768,,207051,,207052.887,8,400,,,
break_continue,html.Screen,4_52_2,2023-09-08T21:12:48.976Z,,0,,,NaN,,,,,,false,,,,207051.5,207051.39999997616,,207051.39999997616,,207052.887,8,400,,,
sequence,flow.Sequence,4_52,2023-09-08T21:12:48.977Z,,0,,,2582.0419999761507,completion,,,,,false,,,,207051.60000002384,207051.39999997616,204452.669,204456.5,204469.358,207052.887,8,400,,,
trial,html.Screen,4_53_0,2023-09-08T21:12:51.555Z,,0,2,,2576.9129999523284,response,ISIC_0033625.JPG,5,ISIC_0029933.JPG,ISIC_0033625.JPG,false,1,keypress(m),500,209629.89999997616,209629.79999995232,207036.156,207051.60000002384,207052.887,209636.371,8,400,4,,ISIC_0029933.JPG
break,html.Screen,4_53_1,2023-09-08T21:12:51.555Z,,0,,,NaN,,,,,,false,,,,209630.29999995232,209630.20000004768,,209630,,209636.371,8,400,,,
break_continue,html.Screen,4_53_2,2023-09-08T21:12:51.555Z,,0,,,NaN,,,,,,false,,,,209630.39999997616,209630.39999997616,,209630.29999995232,,209636.371,8,400,,,
sequence,flow.Sequence,4_53,2023-09-08T21:12:51.555Z,,0,,,2577.5129999761702,completion,,,,,false,,,,209630.5,209630.39999997616,207036.156,207051.60000002384,207052.887,209636.371,8,400,,,
trial,html.Screen,4_54_0,2023-09-08T21:12:54.212Z,,0,2,,2650.82900004767,response,ISIC_0013232.JPG,6,ISIC_0010730.JPG,ISIC_0013232.JPG,false,1,keypress(m),500,212287.29999995232,212287.20000004768,209619.724,209630.5,209636.371,212303.213,8,400,5,,ISIC_0010730.JPG
break,html.Screen,4_54_1,2023-09-08T21:12:54.213Z,,0,,,NaN,,,,,,false,,,,212287.70000004768,212287.60000002384,,212287.39999997616,,212303.213,8,400,,,
break_continue,html.Screen,4_54_2,2023-09-08T21:12:54.213Z,,0,,,NaN,,,,,,false,,,,212288.39999997616,212287.79999995232,,212287.70000004768,,212303.213,8,400,,,
sequence,flow.Sequence,4_54,2023-09-08T21:12:54.213Z,,0,,,2651.4289999523025,completion,,,,,false,,,,212288.39999997616,212287.79999995232,209619.724,209630.5,209636.371,212303.213,8,400,,,
trial,html.Screen,4_55_0,2023-09-08T21:12:56.824Z,,0,2,,2595.5869999523275,response,ISIC_2518896.JPG,5,ISIC_5258657.JPG,ISIC_2518896.JPG,false,1,keypress(m),500,214898.89999997616,214898.79999995232,212286.635,212288.5,212303.213,214903.452,8,400,6,,ISIC_5258657.JPG
break,html.Screen,4_55_1,2023-09-08T21:12:56.824Z,,0,,,NaN,,,,,,false,,,,214899.5,214899.29999995232,,214899.10000002384,,214903.452,8,400,,,
break_continue,html.Screen,4_55_2,2023-09-08T21:12:56.825Z,,0,,,NaN,,,,,,false,,,,214899.70000004768,214899.60000002384,,214899.60000002384,,214903.452,8,400,,,
sequence,flow.Sequence,4_55,2023-09-08T21:12:56.825Z,,0,,,2596.387000023853,completion,,,,,false,,,,214899.79999995232,214899.60000002384,212286.635,212288.5,212303.213,214903.452,8,400,,,
trial,html.Screen,4_56_0,2023-09-08T21:12:59.418Z,,0,2,,2589.2480000476935,response,ISIC_0031611.JPG,5,ISIC_8389839.JPG,ISIC_8389839.JPG,false,0,keypress(z),500,217492.89999997616,217492.70000004768,214886.753,214899.79999995232,214903.452,217503.565,8,400,7,,ISIC_0031611.JPG
break,html.Screen,4_56_1,2023-09-08T21:12:59.418Z,,0,,,NaN,,,,,,false,,,,217493.29999995232,217493.20000004768,,217493,,217503.565,8,400,,,
break_continue,html.Screen,4_56_2,2023-09-08T21:12:59.418Z,,0,,,NaN,,,,,,false,,,,217493.39999997616,217493.39999997616,,217493.29999995232,,217503.565,8,400,,,
sequence,flow.Sequence,4_56,2023-09-08T21:12:59.418Z,,0,,,2589.947999976168,completion,,,,,false,,,,217493.39999997616,217493.39999997616,214886.753,214899.79999995232,214903.452,217503.565,8,400,,,
trial,html.Screen,4_57_0,2023-09-08T21:13:02.093Z,,0,2,,2664.234999952314,response,ISIC_0874261.JPG,6,ISIC_0069536.JPG,ISIC_0874261.JPG,false,1,keypress(m),500,220167.79999995232,220167.79999995232,217486.865,217493.5,217503.565,220187.092,8,400,8,,ISIC_0069536.JPG
break,html.Screen,4_57_1,2023-09-08T21:13:02.093Z,,0,,,NaN,,,,,,false,,,,220168.20000004768,220168.10000002384,,220167.89999997616,,220187.092,8,400,,,
break_continue,html.Screen,4_57_2,2023-09-08T21:13:02.093Z,,0,,,NaN,,,,,,false,,,,220168.29999995232,220168.20000004768,,220168.20000004768,,220187.092,8,400,,,
sequence,flow.Sequence,4_57,2023-09-08T21:13:02.093Z,,0,,,2664.6350000476814,completion,,,,,false,,,,220168.39999997616,220168.20000004768,217486.865,217493.5,217503.565,220187.092,8,400,,,
trial,html.Screen,4_58_0,2023-09-08T21:13:05.078Z,,0,2,,2965.6080000476795,response,ISIC_8479104.JPG,6,ISIC_0063447.JPG,ISIC_8479104.JPG,false,1,keypress(m),500,223152.79999995232,223152.70000004768,220170.418,220168.39999997616,220187.092,223171.689,8,400,9,,ISIC_0063447.JPG
break,html.Screen,4_58_1,2023-09-08T21:13:05.078Z,,0,,,NaN,,,,,,false,,,,223153.20000004768,223153.10000002384,,223152.89999997616,,223171.689,8,400,,,
break_continue,html.Screen,4_58_2,2023-09-08T21:13:05.078Z,,0,,,NaN,,,,,,false,,,,223153.29999995232,223153.29999995232,,223153.20000004768,,223171.689,8,400,,,
sequence,flow.Sequence,4_58,2023-09-08T21:13:05.078Z,,0,,,2966.207999952312,completion,,,,,false,,,,223153.39999997616,223153.29999995232,220170.418,220168.39999997616,220187.092,223171.689,8,400,,,
trial,html.Screen,4_59_0,2023-09-08T21:13:08.141Z,,0,2,,3044.0110000476707,response,ISIC_0033704.JPG,5,ISIC_4033676.JPG,ISIC_4033676.JPG,false,0,keypress(z),500,226215.89999997616,226215.70000004768,223137.269,223153.5,223171.689,226220.917,8,400,10,,ISIC_0033704.JPG
break,html.Screen,4_59_1,2023-09-08T21:13:08.142Z,,0,,,NaN,,,,,,false,,,,226216.60000002384,226216.10000002384,,226216,,226220.917,8,400,,,
break_continue,html.Screen,4_59_2,2023-09-08T21:13:08.142Z,,0,,,NaN,,,,,,false,,,,226216.89999997616,226216.79999995232,,226216.79999995232,,226220.917,8,400,,,
sequence,flow.Sequence,4_59,2023-09-08T21:13:08.142Z,,0,,,3045.1109999523032,completion,,,,,false,,,,226216.89999997616,226216.79999995232,223137.269,223153.5,223171.689,226220.917,8,400,,,
trial,html.Screen,4_60_0,2023-09-08T21:13:11.488Z,,0,2,,3341.8829999523296,response,ISIC_0026853.JPG,6,ISIC_0610849.JPG,ISIC_0610849.JPG,false,0,keypress(z),500,229562.79999995232,229562.79999995232,226204.132,226217,226220.917,229571.109,8,400,11,,ISIC_0026853.JPG
break,html.Screen,4_60_1,2023-09-08T21:13:11.488Z,,0,,,NaN,,,,,,false,,,,229563.29999995232,229563.10000002384,,229562.89999997616,,229571.109,8,400,,,
break_continue,html.Screen,4_60_2,2023-09-08T21:13:11.488Z,,0,,,NaN,,,,,,false,,,,229563.39999997616,229563.39999997616,,229563.29999995232,,229571.109,8,400,,,
sequence,flow.Sequence,4_60,2023-09-08T21:13:11.488Z,,0,,,3342.4829999761714,completion,,,,,false,,,,229563.5,229563.39999997616,226204.132,226216.89999997616,226220.917,229571.109,8,400,,,
trial,html.Screen,4_61_0,2023-09-08T21:13:14.466Z,,0,2,,2969.6909999523195,response,ISIC_0072496.JPG,5,ISIC_0026791.JPG,ISIC_0026791.JPG,false,0,keypress(z),500,232540.89999997616,232540.79999995232,229554.453,229563.5,229571.109,232554.624,8,400,12,,ISIC_0072496.JPG
break,html.Screen,4_61_1,2023-09-08T21:13:14.466Z,,0,,,NaN,,,,,,false,,,,232541.29999995232,232541.20000004768,,232541,,232554.624,8,400,,,
break_continue,html.Screen,4_61_2,2023-09-08T21:13:14.466Z,,0,,,NaN,,,,,,false,,,,232541.5,232541.39999997616,,232541.29999995232,,232554.624,8,400,,,
sequence,flow.Sequence,4_61,2023-09-08T21:13:14.467Z,,0,,,2970.2909999761614,completion,,,,,false,,,,232541.5,232541.39999997616,229554.453,229563.5,229571.109,232554.624,8,400,,,
trial,html.Screen,4_62_0,2023-09-08T21:13:18.264Z,,0,2,,3783.7759999761474,response,ISIC_3343475.JPG,5,ISIC_1251639.JPG,ISIC_3343475.JPG,false,1,keypress(m),500,236338.60000002384,236338.39999997616,232537.908,232541.60000002384,232554.624,236354.909,8,400,13,,ISIC_1251639.JPG
break,html.Screen,4_62_1,2023-09-08T21:13:18.264Z,,0,,,NaN,,,,,,false,,,,236339.10000002384,236338.89999997616,,236338.70000004768,,236354.909,8,400,,,
break_continue,html.Screen,4_62_2,2023-09-08T21:13:18.264Z,,0,,,NaN,,,,,,false,,,,236339.39999997616,236339.20000004768,,236339.20000004768,,236354.909,8,400,,,
sequence,flow.Sequence,4_62,2023-09-08T21:13:18.265Z,,0,,,3784.576000047673,completion,,,,,false,,,,236339.60000002384,236339.20000004768,232537.908,232541.60000002384,232554.624,236354.909,8,400,,,
trial,html.Screen,4_63_0,2023-09-08T21:13:20.971Z,,0,2,,2690.6910000238277,response,ISIC_4131353.JPG,4,ISIC_8584748.JPG,ISIC_8584748.JPG,false,0,keypress(z),500,239045.79999995232,239045.60000002384,236338.174,236339.60000002384,236354.909,239055.162,8,400,14,,ISIC_4131353.JPG
break,html.Screen,4_63_1,2023-09-08T21:13:20.971Z,,0,,,NaN,,,,,,false,,,,239046.10000002384,239046,,239045.89999997616,,239055.162,8,400,,,
break_continue,html.Screen,4_63_2,2023-09-08T21:13:20.971Z,,0,,,NaN,,,,,,false,,,,239046.29999995232,239046.29999995232,,239046.20000004768,,239055.162,8,400,,,
sequence,flow.Sequence,4_63,2023-09-08T21:13:20.971Z,,0,,,2691.390999952302,completion,,,,,false,,,,239046.39999997616,239046.29999995232,236338.174,236339.60000002384,236354.909,239055.162,8,400,,,
trial,html.Screen,4_64_0,2023-09-08T21:13:23.564Z,,0,2,,2584.0380000476725,response,ISIC_6090057.JPG,4,ISIC_0010664.JPG,ISIC_6090057.JPG,false,1,keypress(m),500,241639.39999997616,241639.20000004768,239038.423,239046.5,239055.162,241671.929,8,400,15,,ISIC_0010664.JPG
break,html.Screen,4_64_1,2023-09-08T21:13:23.565Z,,0,,,NaN,,,,,,false,,,,241639.79999995232,241639.70000004768,,241639.5,,241671.929,8,400,,,
break_continue,html.Screen,4_64_2,2023-09-08T21:13:23.565Z,,0,,,NaN,,,,,,false,,,,241640,241640,,241640,,241671.929,8,400,,,
sequence,flow.Sequence,4_64,2023-09-08T21:13:23.565Z,,0,,,2584.837999999989,completion,,,,,false,,,,241640.10000002384,241640,239038.423,239046.39999997616,239055.162,241671.929,8,400,,,
trial,html.Screen,4_65_0,2023-09-08T21:13:26.415Z,,0,2,,2818.171000023838,response,ISIC_0063556.JPG,5,ISIC_8073036.JPG,ISIC_0063556.JPG,false,1,keypress(m),500,244490.20000004768,244490.10000002384,241655.261,241640.20000004768,241671.929,244505.435,8,400,16,,ISIC_8073036.JPG
break,html.Screen,4_65_1,2023-09-08T21:13:26.416Z,,0,,,NaN,,,,,,false,,,,244490.60000002384,244490.5,,244490.29999995232,,244505.435,8,400,,,
break_continue,html.Screen,4_65_2,2023-09-08T21:13:26.416Z,,0,,,NaN,,,,,,false,,,,244490.79999995232,244490.70000004768,,244490.70000004768,,244505.435,8,400,,,
sequence,flow.Sequence,4_65,2023-09-08T21:13:26.416Z,,0,,,2818.77100004768,completion,,,,,false,,,,244490.79999995232,244490.70000004768,241655.261,241640.20000004768,241671.929,244505.435,8,400,,,
trial,html.Screen,4_66_0,2023-09-08T21:13:28.929Z,,0,2,,2498.5650000000023,response,ISIC_2902328.JPG,5,ISIC_0033122.JPG,ISIC_2902328.JPG,false,1,keypress(m),500,247004.20000004768,247004,244488.716,244490.89999997616,244505.435,247005.61,8,400,17,,ISIC_0033122.JPG
break,html.Screen,4_66_1,2023-09-08T21:13:28.929Z,,0,,,NaN,,,,,,false,,,,247004.39999997616,247004.39999997616,,247004.20000004768,,247005.61,8,400,,,
break_continue,html.Screen,4_66_2,2023-09-08T21:13:28.930Z,,0,,,NaN,,,,,,false,,,,247004.60000002384,247004.60000002384,,247004.5,,247005.61,8,400,,,
sequence,flow.Sequence,4_66,2023-09-08T21:13:28.930Z,,0,,,2499.165000023844,completion,,,,,false,,,,247004.70000004768,247004.60000002384,244488.716,244490.79999995232,244505.435,247005.61,8,400,,,
trial,html.Screen,4_67_0,2023-09-08T21:13:31.604Z,,0,2,,2673.390000000014,response,ISIC_9303594.JPG,6,ISIC_0014675.JPG,ISIC_9303594.JPG,false,1,keypress(m),500,249679.20000004768,249679,246988.96,247004.79999995232,247005.61,249689.161,8,400,18,,ISIC_0014675.JPG
break,html.Screen,4_67_1,2023-09-08T21:13:31.605Z,,0,,,NaN,,,,,,false,,,,249679.60000002384,249679.39999997616,,249679.29999995232,,249689.161,8,400,,,
break_continue,html.Screen,4_67_2,2023-09-08T21:13:31.605Z,,0,,,NaN,,,,,,false,,,,249679.79999995232,249679.70000004768,,249679.60000002384,,249689.161,8,400,,,
sequence,flow.Sequence,4_67,2023-09-08T21:13:31.605Z,,0,,,2674.0900000476977,completion,,,,,false,,,,249679.79999995232,249679.70000004768,246988.96,247004.79999995232,247005.61,249689.161,8,400,,,
trial,html.Screen,4_68_0,2023-09-08T21:13:34.137Z,,0,2,,2522.839000000007,response,ISIC_1874480.JPG,6,ISIC_1037315.JPG,ISIC_1037315.JPG,false,0,keypress(z),500,252212.10000002384,252212,249672.438,249679.79999995232,249689.161,252222.632,8,400,19,,ISIC_1874480.JPG
break,html.Screen,4_68_1,2023-09-08T21:13:34.137Z,,0,,,NaN,,,,,,false,,,,252212.39999997616,252212.39999997616,,252212.20000004768,,252222.632,8,400,,,
break_continue,html.Screen,4_68_2,2023-09-08T21:13:34.138Z,,0,,,NaN,,,,,,false,,,,252212.60000002384,252212.60000002384,,252212.60000002384,,252222.632,8,400,,,
sequence,flow.Sequence,4_68,2023-09-08T21:13:34.138Z,,0,,,2523.439000023849,completion,,,,,false,,,,252212.70000004768,252212.60000002384,249672.438,249679.79999995232,249689.161,252222.632,8,400,,,
trial,html.Screen,4_69_0,2023-09-08T21:13:36.683Z,,0,2,,2535.3679999999877,response,ISIC_0060091.JPG,5,ISIC_0026780.JPG,ISIC_0026780.JPG,false,0,keypress(z),500,254758.10000002384,254758,252205.919,252212.79999995232,252222.632,254772.866,8,400,20,,ISIC_0060091.JPG
break,html.Screen,4_69_1,2023-09-08T21:13:36.684Z,,0,,,NaN,,,,,,false,,,,254758.60000002384,254758.5,,254758.29999995232,,254772.866,8,400,,,
break_continue,html.Screen,4_69_2,2023-09-08T21:13:36.684Z,,0,,,NaN,,,,,,false,,,,254758.79999995232,254758.70000004768,,254758.60000002384,,254772.866,8,400,,,
sequence,flow.Sequence,4_69,2023-09-08T21:13:36.684Z,,0,,,2536.0680000476714,completion,,,,,false,,,,254758.79999995232,254758.70000004768,252205.919,252212.70000004768,252222.632,254772.866,8,400,,,
trial,html.Screen,4_70_0,2023-09-08T21:13:39.249Z,,0,2,,2551.234000023833,response,ISIC_0001129.JPG,5,ISIC_5498651.JPG,ISIC_0001129.JPG,false,1,keypress(m),500,257324.20000004768,257324.10000002384,254756.114,254758.89999997616,254772.866,257339.657,8,400,21,,ISIC_5498651.JPG
break,html.Screen,4_70_1,2023-09-08T21:13:39.250Z,,0,,,NaN,,,,,,false,,,,257324.60000002384,257324.5,,257324.29999995232,,257339.657,8,400,,,
break_continue,html.Screen,4_70_2,2023-09-08T21:13:39.250Z,,0,,,NaN,,,,,,false,,,,257324.70000004768,257324.70000004768,,257324.60000002384,,257339.657,8,400,,,
sequence,flow.Sequence,4_70,2023-09-08T21:13:39.250Z,,0,,,2551.8340000476746,completion,,,,,false,,,,257324.89999997616,257324.70000004768,254756.114,254758.79999995232,254772.866,257339.657,8,400,,,
trial,html.Screen,4_71_0,2023-09-08T21:13:41.716Z,,0,2,,2451.4430000238353,response,ISIC_0055797.JPG,5,ISIC_0054185.JPG,ISIC_0055797.JPG,false,1,keypress(m),500,259791.29999995232,259791.10000002384,257322.958,257325,257339.657,259806.533,8,400,22,,ISIC_0054185.JPG
break,html.Screen,4_71_1,2023-09-08T21:13:41.717Z,,0,,,NaN,,,,,,false,,,,259791.60000002384,259791.60000002384,,259791.39999997616,,259806.533,8,400,,,
break_continue,html.Screen,4_71_2,2023-09-08T21:13:41.717Z,,0,,,NaN,,,,,,false,,,,259791.79999995232,259791.79999995232,,259791.70000004768,,259806.533,8,400,,,
sequence,flow.Sequence,4_71,2023-09-08T21:13:41.717Z,,0,,,2452.1429999523098,completion,,,,,false,,,,259791.89999997616,259791.79999995232,257322.958,257324.89999997616,257339.657,259806.533,8,400,,,
trial,html.Screen,4_72_0,2023-09-08T21:13:44.442Z,,0,2,,2710.467000000004,response,ISIC_5993530.JPG,5,ISIC_3666219.JPG,ISIC_5993530.JPG,false,1,keypress(m),500,262517.2000000477,262517,259789.815,259791.89999997616,259806.533,262523.388,8,400,23,,ISIC_3666219.JPG
break,html.Screen,4_72_1,2023-09-08T21:13:44.442Z,,0,,,NaN,,,,,,false,,,,262517.5,262517.39999997616,,262517.2000000477,,262523.388,8,400,,,
break_continue,html.Screen,4_72_2,2023-09-08T21:13:44.443Z,,0,,,NaN,,,,,,false,,,,262517.7000000477,262517.60000002384,,262517.60000002384,,262523.388,8,400,,,
sequence,flow.Sequence,4_72,2023-09-08T21:13:44.443Z,,0,,,2711.067000023846,completion,,,,,false,,,,262517.7000000477,262517.60000002384,259789.815,259791.89999997616,259806.533,262523.388,8,400,,,
trial,html.Screen,4_73_0,2023-09-08T21:13:46.989Z,,0,2,,2540.7120000238647,response,ISIC_0054651.JPG,6,ISIC_4219589.JPG,ISIC_4219589.JPG,false,0,keypress(z),500,265064.2999999523,265064.10000002384,262506.677,262517.7999999523,262523.388,265073.532,8,400,24,,ISIC_0054651.JPG
break,html.Screen,4_73_1,2023-09-08T21:13:46.990Z,,0,,,NaN,,,,,,false,,,,265064.89999997616,265064.7000000477,,265064.5,,265073.532,8,400,,,
break_continue,html.Screen,4_73_2,2023-09-08T21:13:46.990Z,,0,,,NaN,,,,,,false,,,,265065,265065,,265065,,265073.532,8,400,,,
sequence,flow.Sequence,4_73,2023-09-08T21:13:46.990Z,,0,,,2541.612000000023,completion,,,,,false,,,,265065.2000000477,265065,262506.677,262517.7000000477,262523.388,265073.532,8,400,,,
trial,html.Screen,4_74_0,2023-09-08T21:13:49.552Z,,0,2,,2553.4679999999935,response,ISIC_6800044.JPG,4,ISIC_0878793.JPG,ISIC_6800044.JPG,false,1,keypress(m),500,267627.2000000477,267627,265056.859,265065.2000000477,265073.532,267640.356,8,400,25,,ISIC_0878793.JPG
break,html.Screen,4_74_1,2023-09-08T21:13:49.553Z,,0,,,NaN,,,,,,false,,,,267627.60000002384,267627.60000002384,,267627.2999999523,,267640.356,8,400,,,
break_continue,html.Screen,4_74_2,2023-09-08T21:13:49.553Z,,0,,,NaN,,,,,,false,,,,267627.7999999523,267627.7999999523,,267627.7000000477,,267640.356,8,400,,,
sequence,flow.Sequence,4_74,2023-09-08T21:13:49.553Z,,0,,,2554.2679999523098,completion,,,,,false,,,,267628,267627.7999999523,265056.859,265065.2000000477,265073.532,267640.356,8,400,,,
trial,html.Screen,4_75_0,2023-09-08T21:13:52.003Z,,0,2,,2437.643999999971,response,ISIC_0066223.JPG,6,ISIC_4398011.JPG,ISIC_0066223.JPG,false,1,keypress(m),500,270078.2000000477,270078,267623.705,267628,267640.356,270090.57,8,400,26,,ISIC_4398011.JPG
break,html.Screen,4_75_1,2023-09-08T21:13:52.004Z,,0,,,NaN,,,,,,false,,,,270078.5,270078.39999997616,,270078.2999999523,,270090.57,8,400,,,
break_continue,html.Screen,4_75_2,2023-09-08T21:13:52.004Z,,0,,,NaN,,,,,,false,,,,270078.60000002384,270078.60000002384,,270078.60000002384,,270090.57,8,400,,,
sequence,flow.Sequence,4_75,2023-09-08T21:13:52.004Z,,0,,,2438.244000023813,completion,,,,,false,,,,270078.7999999523,270078.60000002384,267623.705,267628,267640.356,270090.57,8,400,,,
trial,html.Screen,4_76_0,2023-09-08T21:13:54.476Z,,0,2,,2460.429999999993,response,ISIC_9182492.JPG,6,ISIC_0024951.JPG,ISIC_9182492.JPG,false,1,keypress(m),500,272551.10000002384,272551,270073.845,270078.7999999523,270090.57,272574.078,8,400,27,,ISIC_0024951.JPG
break,html.Screen,4_76_1,2023-09-08T21:13:54.477Z,,0,,,NaN,,,,,,false,,,,272551.5,272551.39999997616,,272551.2000000477,,272574.078,8,400,,,
break_continue,html.Screen,4_76_2,2023-09-08T21:13:54.477Z,,0,,,NaN,,,,,,false,,,,272551.7000000477,272551.60000002384,,272551.5,,272574.078,8,400,,,
sequence,flow.Sequence,4_76,2023-09-08T21:13:54.477Z,,0,,,2461.030000023835,completion,,,,,false,,,,272551.7000000477,272551.60000002384,270073.845,270078.7999999523,270090.57,272574.078,8,400,,,
trial,html.Screen,4_77_0,2023-09-08T21:13:56.900Z,,0,2,,2400.622000047704,response,ISIC_9260499.JPG,6,ISIC_1687004.JPG,ISIC_9260499.JPG,false,1,keypress(m),500,274974.7000000477,274974.7000000477,272557.376,272551.7000000477,272574.078,275007.595,8,400,28,,ISIC_1687004.JPG
break,html.Screen,4_77_1,2023-09-08T21:13:56.900Z,,0,,,NaN,,,,,,false,,,,274975.5,274975.2000000477,,274974.89999997616,,275007.595,8,400,,,
break_continue,html.Screen,4_77_2,2023-09-08T21:13:56.901Z,,0,,,NaN,,,,,,false,,,,274975.60000002384,274975.5,,274975.5,,275007.595,8,400,,,
sequence,flow.Sequence,4_77,2023-09-08T21:13:56.901Z,,0,,,2401.4220000000205,completion,,,,,false,,,,274975.60000002384,274975.5,272557.376,272551.7000000477,272574.078,275007.595,8,400,,,
trial,html.Screen,4_78_0,2023-09-08T21:13:59.623Z,,0,2,,2690.405000000028,response,ISIC_0026296.JPG,6,ISIC_3635014.JPG,ISIC_0026296.JPG,false,1,keypress(m),500,277698.2000000477,277698,274990.928,274975.7000000477,275007.595,277707.72,8,400,29,,ISIC_3635014.JPG
break,html.Screen,4_78_1,2023-09-08T21:13:59.624Z,,0,,,NaN,,,,,,false,,,,277698.60000002384,277698.5,,277698.2000000477,,277707.72,8,400,,,
break_continue,html.Screen,4_78_2,2023-09-08T21:13:59.624Z,,0,,,NaN,,,,,,false,,,,277698.60000002384,277698.60000002384,,277698.60000002384,,277707.72,8,400,,,
sequence,flow.Sequence,4_78,2023-09-08T21:13:59.624Z,,0,,,2691.00500002387,completion,,,,,false,,,,277698.7000000477,277698.60000002384,274990.928,274975.7000000477,275007.595,277707.72,8,400,,,
trial,html.Screen,4_79_0,2023-09-08T21:14:02.089Z,,0,2,,2456.38000002387,response,ISIC_0504730.JPG,6,ISIC_0062734.JPG,ISIC_0062734.JPG,false,0,keypress(z),500,280164.2000000477,280164.10000002384,277691.123,277698.7000000477,277707.72,280174.553,8,400,30,,ISIC_0504730.JPG
break,html.Screen,4_79_1,2023-09-08T21:14:02.090Z,,0,,,NaN,,,,,,false,,,,280164.60000002384,280164.5,,280164.2999999523,,280174.553,8,400,,,
break_continue,html.Screen,4_79_2,2023-09-08T21:14:02.090Z,,0,,,NaN,,,,,,false,,,,280164.7999999523,280164.7000000477,,280164.60000002384,,280174.553,8,400,,,
sequence,flow.Sequence,4_79,2023-09-08T21:14:02.090Z,,0,,,2456.9800000477117,completion,,,,,false,,,,280164.7999999523,280164.7000000477,277691.123,277698.7000000477,277707.72,280174.553,8,400,,,
trial,html.Screen,4_80_0,2023-09-08T21:14:04.587Z,,0,2,,2487.5470000238274,response,ISIC_0772836.JPG,6,ISIC_0028484.JPG,ISIC_0772836.JPG,false,1,keypress(m),500,282662.2000000477,282662.10000002384,280157.886,280164.89999997616,280174.553,282674.732,8,400,31,,ISIC_0028484.JPG
break,html.Screen,4_80_1,2023-09-08T21:14:04.588Z,,0,,,NaN,,,,,,false,,,,282662.60000002384,282662.5,,282662.2999999523,,282674.732,8,400,,,
break_continue,html.Screen,4_80_2,2023-09-08T21:14:04.588Z,,0,,,NaN,,,,,,false,,,,282662.7000000477,282662.7000000477,,282662.60000002384,,282674.732,8,400,,,
sequence,flow.Sequence,4_80,2023-09-08T21:14:04.588Z,,0,,,2488.1470000476693,completion,,,,,false,,,,282662.7999999523,282662.7000000477,280157.886,280164.89999997616,280174.553,282674.732,8,400,,,
trial,html.Screen,4_81_0,2023-09-08T21:14:07.069Z,,0,2,,2469.267999999982,response,ISIC_0010364.JPG,6,ISIC_0029405.JPG,ISIC_0029405.JPG,false,0,keypress(z),500,285144.2999999523,285144,282658.05,282662.7999999523,282674.732,285158.247,8,400,32,,ISIC_0010364.JPG
break,html.Screen,4_81_1,2023-09-08T21:14:07.070Z,,0,,,NaN,,,,,,false,,,,285144.5,285144.5,,285144.2999999523,,285158.247,8,400,,,
break_continue,html.Screen,4_81_2,2023-09-08T21:14:07.070Z,,0,,,NaN,,,,,,false,,,,285144.7000000477,285144.60000002384,,285144.60000002384,,285158.247,8,400,,,
sequence,flow.Sequence,4_81,2023-09-08T21:14:07.070Z,,0,,,2469.8680000238237,completion,,,,,false,,,,285144.7000000477,285144.60000002384,282658.05,282662.7999999523,282674.732,285158.247,8,400,,,
trial,html.Screen,4_82_0,2023-09-08T21:14:09.456Z,,0,2,,2372.853000023868,response,ISIC_0002566.JPG,6,ISIC_0063447.JPG,ISIC_0002566.JPG,false,1,keypress(m),500,287531.2000000477,287531.10000002384,285141.595,285144.89999997616,285158.247,287541.727,8,400,33,,ISIC_0063447.JPG
break,html.Screen,4_82_1,2023-09-08T21:14:09.457Z,,0,,,NaN,,,,,,false,,,,287531.7000000477,287531.5,,287531.39999997616,,287541.727,8,400,,,
break_continue,html.Screen,4_82_2,2023-09-08T21:14:09.457Z,,0,,,NaN,,,,,,false,,,,287531.89999997616,287531.7999999523,,287531.7999999523,,287541.727,8,400,,,
sequence,flow.Sequence,4_82,2023-09-08T21:14:09.457Z,,0,,,2373.5529999523424,completion,,,,,false,,,,287531.89999997616,287531.7999999523,285141.595,285144.89999997616,285158.247,287541.727,8,400,,,
trial,html.Screen,4_83_0,2023-09-08T21:14:12.118Z,,0,2,,2651.47300004767,response,ISIC_9791275.JPG,5,ISIC_8986997.JPG,ISIC_8986997.JPG,false,0,keypress(z),500,290193.2999999523,290193.2000000477,287525.171,287531.89999997616,287541.727,290225.314,8,400,34,,ISIC_9791275.JPG
break,html.Screen,4_83_1,2023-09-08T21:14:12.119Z,,0,,,NaN,,,,,,false,,,,290193.7000000477,290193.60000002384,,290193.39999997616,,290225.314,8,400,,,
break_continue,html.Screen,4_83_2,2023-09-08T21:14:12.119Z,,0,,,NaN,,,,,,false,,,,290193.7999999523,290193.7999999523,,290193.7000000477,,290225.314,8,400,,,
sequence,flow.Sequence,4_83,2023-09-08T21:14:12.119Z,,0,,,2652.072999952303,completion,,,,,false,,,,290193.89999997616,290193.7999999523,287525.171,287531.89999997616,287541.727,290225.314,8,400,,,
trial,html.Screen,4_84_0,2023-09-08T21:14:14.905Z,,0,2,,2754.8860000476707,response,ISIC_0068413.JPG,5,ISIC_1784613.JPG,ISIC_1784613.JPG,false,0,keypress(z),500,292980.39999997616,292980.2000000477,290208.585,290193.89999997616,290225.314,292992.148,8,400,35,,ISIC_0068413.JPG
break,html.Screen,4_84_1,2023-09-08T21:14:14.906Z,,0,,,NaN,,,,,,false,,,,292980.7999999523,292980.7000000477,,292980.5,,292992.148,8,400,,,
break_continue,html.Screen,4_84_2,2023-09-08T21:14:14.906Z,,0,,,NaN,,,,,,false,,,,292981,292981,,292980.89999997616,,292992.148,8,400,,,
sequence,flow.Sequence,4_84,2023-09-08T21:14:14.906Z,,0,,,2755.685999999987,completion,,,,,false,,,,292981.10000002384,292981,290208.585,290193.89999997616,290225.314,292992.148,8,400,,,
trial,html.Screen,4_85_0,2023-09-08T21:14:17.438Z,,0,2,,2521.052000047697,response,ISIC_0055054.JPG,6,ISIC_2741583.JPG,ISIC_2741583.JPG,false,0,keypress(z),500,295513.2999999523,295513.2000000477,292975.441,292981.2000000477,292992.148,295525.606,8,400,36,,ISIC_0055054.JPG
break,html.Screen,4_85_1,2023-09-08T21:14:17.439Z,,0,,,NaN,,,,,,false,,,,295513.7999999523,295513.60000002384,,295513.5,,295525.606,8,400,,,
break_continue,html.Screen,4_85_2,2023-09-08T21:14:17.439Z,,0,,,NaN,,,,,,false,,,,295513.89999997616,295513.7999999523,,295513.7999999523,,295525.606,8,400,,,
sequence,flow.Sequence,4_85,2023-09-08T21:14:17.440Z,,0,,,2521.65199995233,completion,,,,,false,,,,295514.5,295513.7999999523,292975.441,292981.2000000477,292992.148,295525.606,8,400,,,
trial,html.Screen,4_86_0,2023-09-08T21:14:20.113Z,,0,2,,2662.594000047655,response,ISIC_0953317.JPG,5,ISIC_0027327.JPG,ISIC_0953317.JPG,false,1,keypress(m),500,298188.2999999523,298188.2000000477,295508.905,295514.60000002384,295525.606,298192.459,8,400,37,,ISIC_0027327.JPG
break,html.Screen,4_86_1,2023-09-08T21:14:20.114Z,,0,,,NaN,,,,,,false,,,,298188.7000000477,298188.60000002384,,298188.39999997616,,298192.459,8,400,,,
break_continue,html.Screen,4_86_2,2023-09-08T21:14:20.114Z,,0,,,NaN,,,,,,false,,,,298188.7999999523,298188.7999999523,,298188.7000000477,,298192.459,8,400,,,
sequence,flow.Sequence,4_86,2023-09-08T21:14:20.114Z,,0,,,2663.1939999522874,completion,,,,,false,,,,298188.7999999523,298188.7999999523,295508.905,295514.60000002384,295525.606,298192.459,8,400,,,
trial,html.Screen,4_87_0,2023-09-08T21:14:22.775Z,,0,2,,2657.7410000477103,response,ISIC_0014181.JPG,5,ISIC_0000551.JPG,ISIC_0014181.JPG,false,1,keypress(m),500,300850.2999999523,300850.2000000477,298175.771,298188.89999997616,298192.459,300859.354,8,400,38,,ISIC_0000551.JPG
break,html.Screen,4_87_1,2023-09-08T21:14:22.776Z,,0,,,NaN,,,,,,false,,,,300850.7000000477,300850.60000002384,,300850.39999997616,,300859.354,8,400,,,
break_continue,html.Screen,4_87_2,2023-09-08T21:14:22.776Z,,0,,,NaN,,,,,,false,,,,300850.7999999523,300850.7999999523,,300850.7999999523,,300859.354,8,400,,,
sequence,flow.Sequence,4_87,2023-09-08T21:14:22.776Z,,0,,,2658.340999952343,completion,,,,,false,,,,300850.89999997616,300850.7999999523,298175.771,298188.89999997616,298192.459,300859.354,8,400,,,
trial,html.Screen,4_88_0,2023-09-08T21:14:25.338Z,,0,2,,2553.8460000476916,response,ISIC_0029693.JPG,6,ISIC_0031863.JPG,ISIC_0031863.JPG,false,0,keypress(z),500,303413.2999999523,303413.2000000477,300842.598,300851,300859.354,303426.171,8,400,39,,ISIC_0029693.JPG
break,html.Screen,4_88_1,2023-09-08T21:14:25.339Z,,0,,,NaN,,,,,,false,,,,303413.7000000477,303413.60000002384,,303413.39999997616,,303426.171,8,400,,,
break_continue,html.Screen,4_88_2,2023-09-08T21:14:25.339Z,,0,,,NaN,,,,,,false,,,,303413.89999997616,303413.7999999523,,303413.7000000477,,303426.171,8,400,,,
sequence,flow.Sequence,4_88,2023-09-08T21:14:25.339Z,,0,,,2554.445999952324,completion,,,,,false,,,,303413.89999997616,303413.7999999523,300842.598,300850.89999997616,300859.354,303426.171,8,400,,,
trial,html.Screen,4_89_0,2023-09-08T21:14:27.740Z,,0,2,,2389.0290000477107,response,ISIC_5231145.JPG,6,ISIC_9406275.JPG,ISIC_9406275.JPG,false,0,keypress(z),500,305815.2999999523,305815.2000000477,303409.475,303414,303426.171,305826.357,8,400,40,,ISIC_5231145.JPG
break,html.Screen,4_89_1,2023-09-08T21:14:27.741Z,,0,,,NaN,,,,,,false,,,,305815.7000000477,305815.60000002384,,305815.5,,305826.357,8,400,,,
break_continue,html.Screen,4_89_2,2023-09-08T21:14:27.741Z,,0,,,NaN,,,,,,false,,,,305815.89999997616,305815.7999999523,,305815.7000000477,,305826.357,8,400,,,
sequence,flow.Sequence,4_89,2023-09-08T21:14:27.741Z,,0,,,2389.6289999523433,completion,,,,,false,,,,305815.89999997616,305815.7999999523,303409.475,303414,303426.171,305826.357,8,400,,,
trial,html.Screen,4_90_0,2023-09-08T21:14:30.238Z,,0,2,,2486.942999952298,response,ISIC_9072034.JPG,6,ISIC_2908315.JPG,ISIC_2908315.JPG,false,0,keypress(z),500,308313.5,308313.2999999523,305809.669,305815.89999997616,305826.357,308326.525,8,400,41,,ISIC_9072034.JPG
break,html.Screen,4_90_1,2023-09-08T21:14:30.239Z,,0,,,NaN,,,,,,false,,,,308313.89999997616,308313.7999999523,,308313.5,,308326.525,8,400,,,
break_continue,html.Screen,4_90_2,2023-09-08T21:14:30.239Z,,0,,,NaN,,,,,,false,,,,308313.89999997616,308313.89999997616,,308313.89999997616,,308326.525,8,400,,,
sequence,flow.Sequence,4_90,2023-09-08T21:14:30.239Z,,0,,,2487.54299997614,completion,,,,,false,,,,308314.10000002384,308313.89999997616,305809.669,305815.89999997616,305826.357,308326.525,8,400,,,
trial,html.Screen,4_91_0,2023-09-08T21:14:32.689Z,,0,2,,2437.6750000476604,response,ISIC_0057307.JPG,5,ISIC_0004986.JPG,ISIC_0004986.JPG,false,0,keypress(z),500,310764.2999999523,310764.2000000477,308309.817,308314.10000002384,308326.525,310793.366,8,400,42,,ISIC_0057307.JPG
break,html.Screen,4_91_1,2023-09-08T21:14:32.690Z,,0,,,NaN,,,,,,false,,,,310764.7999999523,310764.60000002384,,310764.5,,310793.366,8,400,,,
break_continue,html.Screen,4_91_2,2023-09-08T21:14:32.690Z,,0,,,NaN,,,,,,false,,,,310764.7999999523,310764.7999999523,,310764.7999999523,,310793.366,8,400,,,
sequence,flow.Sequence,4_91,2023-09-08T21:14:32.690Z,,0,,,2438.274999952293,completion,,,,,false,,,,310764.89999997616,310764.7999999523,308309.817,308314.10000002384,308326.525,310793.366,8,400,,,
trial,html.Screen,4_92_0,2023-09-08T21:14:35.609Z,,0,2,,2890.9339999523363,response,ISIC_3272999.JPG,6,ISIC_8248922.JPG,ISIC_3272999.JPG,false,1,keypress(m),500,313684.39999997616,313684.2999999523,310776.67,310765,310793.366,313693.562,8,400,43,,ISIC_8248922.JPG
break,html.Screen,4_92_1,2023-09-08T21:14:35.610Z,,0,,,NaN,,,,,,false,,,,313684.7999999523,313684.7000000477,,313684.5,,313693.562,8,400,,,
break_continue,html.Screen,4_92_2,2023-09-08T21:14:35.610Z,,0,,,NaN,,,,,,false,,,,313684.89999997616,313684.7999999523,,313684.7999999523,,313693.562,8,400,,,
sequence,flow.Sequence,4_92,2023-09-08T21:14:35.610Z,,0,,,2891.4339999523363,completion,,,,,false,,,,313685,313684.7999999523,310776.67,310764.89999997616,310793.366,313693.562,8,400,,,
trial,html.Screen,4_93_0,2023-09-08T21:14:38.049Z,,0,2,,2430.6380000477075,response,ISIC_0057028.JPG,6,ISIC_6529819.JPG,ISIC_6529819.JPG,false,0,keypress(z),500,316124.2999999523,316124.2000000477,313676.827,313685.10000002384,313693.562,316127.024,8,400,44,,ISIC_0057028.JPG
break,html.Screen,4_93_1,2023-09-08T21:14:38.050Z,,0,,,NaN,,,,,,false,,,,316124.7000000477,316124.60000002384,,316124.39999997616,,316127.024,8,400,,,
break_continue,html.Screen,4_93_2,2023-09-08T21:14:38.050Z,,0,,,NaN,,,,,,false,,,,316124.89999997616,316124.7999999523,,316124.7999999523,,316127.024,8,400,,,
sequence,flow.Sequence,4_93,2023-09-08T21:14:38.050Z,,0,,,2431.23799995234,completion,,,,,false,,,,316124.89999997616,316124.7999999523,313676.827,313685.10000002384,313693.562,316127.024,8,400,,,
trial,html.Screen,4_94_0,2023-09-08T21:14:40.547Z,,0,2,,2495.176000047708,response,ISIC_4151356.JPG,6,ISIC_0000520.JPG,ISIC_4151356.JPG,false,1,keypress(m),500,318622.39999997616,318622.2000000477,316110.368,316124.89999997616,316127.024,318627.198,8,400,45,,ISIC_0000520.JPG
break,html.Screen,4_94_1,2023-09-08T21:14:40.548Z,,0,,,NaN,,,,,,false,,,,318622.7000000477,318622.7000000477,,318622.5,,318627.198,8,400,,,
break_continue,html.Screen,4_94_2,2023-09-08T21:14:40.548Z,,0,,,NaN,,,,,,false,,,,318622.89999997616,318622.7999999523,,318622.7000000477,,318627.198,8,400,,,
sequence,flow.Sequence,4_94,2023-09-08T21:14:40.548Z,,0,,,2495.7759999523405,completion,,,,,false,,,,318622.89999997616,318622.7999999523,316110.368,316124.89999997616,316127.024,318627.198,8,400,,,
trial,html.Screen,4_95_0,2023-09-08T21:14:43.302Z,,0,2,,2750.002000047709,response,ISIC_3296136.JPG,5,ISIC_3591332.JPG,ISIC_3296136.JPG,false,1,keypress(m),500,321377.39999997616,321377.2000000477,318610.554,318623,318627.198,321394.058,8,400,46,,ISIC_3591332.JPG
break,html.Screen,4_95_1,2023-09-08T21:14:43.303Z,,0,,,NaN,,,,,,false,,,,321377.7999999523,321377.7000000477,,321377.5,,321394.058,8,400,,,
break_continue,html.Screen,4_95_2,2023-09-08T21:14:43.303Z,,0,,,NaN,,,,,,false,,,,321378,321377.89999997616,,321377.7999999523,,321394.058,8,400,,,
sequence,flow.Sequence,4_95,2023-09-08T21:14:43.303Z,,0,,,2750.7019999761833,completion,,,,,false,,,,321378,321377.89999997616,318610.554,318623,318627.198,321394.058,8,400,,,
trial,html.Screen,4_96_0,2023-09-08T21:14:45.707Z,,0,2,,2388.1420000476646,response,ISIC_0056330.JPG,6,ISIC_0070403.JPG,ISIC_0056330.JPG,false,1,keypress(m),500,323782.39999997616,323782.2000000477,321377.393,321378.10000002384,321394.058,323794.231,8,400,47,,ISIC_0070403.JPG
break,html.Screen,4_96_1,2023-09-08T21:14:45.708Z,,0,,,NaN,,,,,,false,,,,323782.7999999523,323782.60000002384,,323782.5,,323794.231,8,400,,,
break_continue,html.Screen,4_96_2,2023-09-08T21:14:45.708Z,,0,,,NaN,,,,,,false,,,,323782.89999997616,323782.89999997616,,323782.7999999523,,323794.231,8,400,,,
sequence,flow.Sequence,4_96,2023-09-08T21:14:45.708Z,,0,,,2388.841999976139,completion,,,,,false,,,,323783,323782.89999997616,321377.393,321378.10000002384,321394.058,323794.231,8,400,,,
trial,html.Screen,4_97_0,2023-09-08T21:14:48.255Z,,0,2,,2535.1689999761293,response,ISIC_9278685.JPG,6,ISIC_5454766.JPG,ISIC_9278685.JPG,false,1,keypress(m),500,326329.5,326329.39999997616,323777.553,323783,323794.231,326344.441,8,400,48,,ISIC_5454766.JPG
break,html.Screen,4_97_1,2023-09-08T21:14:48.255Z,,0,,,NaN,,,,,,false,,,,326330.10000002384,326329.89999997616,,326329.60000002384,,326344.441,8,400,,,
break_continue,html.Screen,4_97_2,2023-09-08T21:14:48.255Z,,0,,,NaN,,,,,,false,,,,326330.2000000477,326330.2000000477,,326330.10000002384,,326344.441,8,400,,,
sequence,flow.Sequence,4_97,2023-09-08T21:14:48.255Z,,0,,,2535.969000047655,completion,,,,,false,,,,326330.2999999523,326330.2000000477,323777.553,323783,323794.231,326344.441,8,400,,,
trial,html.Screen,4_98_0,2023-09-08T21:14:50.769Z,,0,2,,2499.8589999523247,response,ISIC_0027407.JPG,4,ISIC_0026879.JPG,ISIC_0026879.JPG,false,0,keypress(z),500,328844.39999997616,328844.2999999523,326327.826,326330.2999999523,326344.441,328861.256,8,400,49,,ISIC_0027407.JPG
break,html.Screen,4_98_1,2023-09-08T21:14:50.770Z,,0,,,NaN,,,,,,false,,,,328844.7999999523,328844.7000000477,,328844.5,,328861.256,8,400,,,
break_continue,html.Screen,4_98_2,2023-09-08T21:14:50.770Z,,0,,,NaN,,,,,,false,,,,328845,328844.89999997616,,328844.89999997616,,328861.256,8,400,,,
sequence,flow.Sequence,4_98,2023-09-08T21:14:50.770Z,,0,,,2500.4589999761665,completion,,,,,false,,,,328845,328844.89999997616,326327.826,326330.2999999523,326344.441,328861.256,8,400,,,
trial,html.Screen,4_99_0,2023-09-08T21:14:53.555Z,,0,2,,2768.9440000476898,response,ISIC_0070651.JPG,5,ISIC_0006850.JPG,ISIC_0006850.JPG,false,0,keypress(z),500,331630.39999997616,331630.2000000477,328844.569,328845.10000002384,328861.256,331644.795,8,400,50,,ISIC_0070651.JPG
break,html.Screen,4_99_1,2023-09-08T21:15:03.554Z,,0,,,10000.674999999988,timeout,,,,,false,,,,341629.2000000477,341628.782,331628.11,331630.5,331644.795,341645.47,8,400,,,
break_continue,html.Screen,4_99_2,2023-09-08T21:15:07.111Z,,0,,,3533.329999952344,response,,,,,false,continue,keypress(Space),,345186.2999999523,345178.7999999523,341628.782,341629.2999999523,341645.47,345195.684,8,400,,,
sequence,flow.Sequence,4_99,2023-09-08T21:15:07.111Z,,0,,,16317.543999952322,completion,,,,,false,,,,345186.39999997616,345178.7999999523,328844.569,328845.10000002384,328861.256,345195.684,8,400,,,
trial,html.Screen,4_100_0,2023-09-08T21:15:09.726Z,,0,3,,2604.7159999761498,response,ISIC_0030447.JPG,4,ISIC_0028567.JPG,ISIC_0030447.JPG,false,1,keypress(m),500,347800.5,347800.39999997616,345178.68,345186.39999997616,345195.684,347812.576,8,400,1,,ISIC_0028567.JPG
break,html.Screen,4_100_1,2023-09-08T21:15:09.726Z,,0,,,NaN,,,,,,false,,,,347801.10000002384,347801,,347800.7000000477,,347812.576,8,400,,,
break_continue,html.Screen,4_100_2,2023-09-08T21:15:09.726Z,,0,,,NaN,,,,,,false,,,,347801.5,347801.39999997616,,347801.2999999523,,347812.576,8,400,,,
sequence,flow.Sequence,4_100,2023-09-08T21:15:09.727Z,,0,,,2605.7159999761498,completion,,,,,false,,,,347801.60000002384,347801.39999997616,345178.68,345186.39999997616,345195.684,347812.576,8,400,,,
trial,html.Screen,4_101_0,2023-09-08T21:15:12.545Z,,0,3,,2807.7239999523154,response,ISIC_0000445.JPG,5,ISIC_6966230.JPG,ISIC_0000445.JPG,false,1,keypress(m),500,350620.39999997616,350620.2999999523,347795.812,347801.7000000477,347812.576,350629.388,8,400,2,,ISIC_6966230.JPG
break,html.Screen,4_101_1,2023-09-08T21:15:12.546Z,,0,,,NaN,,,,,,false,,,,350620.7999999523,350620.7000000477,,350620.5,,350629.388,8,400,,,
break_continue,html.Screen,4_101_2,2023-09-08T21:15:12.546Z,,0,,,NaN,,,,,,false,,,,350620.89999997616,350620.7999999523,,350620.7999999523,,350629.388,8,400,,,
sequence,flow.Sequence,4_101,2023-09-08T21:15:12.546Z,,0,,,2808.2239999523154,completion,,,,,false,,,,350621,350620.7999999523,347795.812,347801.7000000477,347812.576,350629.388,8,400,,,
trial,html.Screen,4_102_0,2023-09-08T21:15:15.014Z,,0,3,,2459.911999952339,response,ISIC_0010208.JPG,5,ISIC_0025766.JPG,ISIC_0010208.JPG,false,1,keypress(m),500,353089.39999997616,353089.2999999523,350612.689,350621,350629.388,353096.235,8,400,3,,ISIC_0025766.JPG
break,html.Screen,4_102_1,2023-09-08T21:15:15.015Z,,0,,,NaN,,,,,,false,,,,353089.7000000477,353089.60000002384,,353089.5,,353096.235,8,400,,,
break_continue,html.Screen,4_102_2,2023-09-08T21:15:15.015Z,,0,,,NaN,,,,,,false,,,,353089.89999997616,353089.89999997616,,353089.7999999523,,353096.235,8,400,,,
sequence,flow.Sequence,4_102,2023-09-08T21:15:15.015Z,,0,,,2460.511999976181,completion,,,,,false,,,,353090,353089.89999997616,350612.689,350621,350629.388,353096.235,8,400,,,
trial,html.Screen,4_103_0,2023-09-08T21:15:17.390Z,,0,3,,2369.0649999523303,response,ISIC_0034180.JPG,5,ISIC_0029693.JPG,ISIC_0029693.JPG,false,0,keypress(z),500,355465.39999997616,355465.2999999523,353079.533,353090,353096.235,355479.779,8,400,4,,ISIC_0034180.JPG
break,html.Screen,4_103_1,2023-09-08T21:15:17.391Z,,0,,,NaN,,,,,,false,,,,355465.7999999523,355465.7000000477,,355465.60000002384,,355479.779,8,400,,,
break_continue,html.Screen,4_103_2,2023-09-08T21:15:17.391Z,,0,,,NaN,,,,,,false,,,,355466,355466,,355465.89999997616,,355479.779,8,400,,,
sequence,flow.Sequence,4_103,2023-09-08T21:15:17.391Z,,0,,,2369.765000000014,completion,,,,,false,,,,355466,355466,353079.533,353090,353096.235,355479.779,8,400,,,
trial,html.Screen,4_104_0,2023-09-08T21:15:20.008Z,,0,3,,2603.520999952336,response,ISIC_9622250.JPG,5,ISIC_0071916.JPG,ISIC_9622250.JPG,false,1,keypress(m),500,358083.39999997616,358083.2999999523,355463.04,355466.10000002384,355479.779,358096.589,8,400,5,,ISIC_0071916.JPG
break,html.Screen,4_104_1,2023-09-08T21:15:20.009Z,,0,,,NaN,,,,,,false,,,,358083.7999999523,358083.7000000477,,358083.5,,358096.589,8,400,,,
break_continue,html.Screen,4_104_2,2023-09-08T21:15:20.009Z,,0,,,NaN,,,,,,false,,,,358083.89999997616,358083.89999997616,,358083.89999997616,,358096.589,8,400,,,
sequence,flow.Sequence,4_104,2023-09-08T21:15:20.009Z,,0,,,2604.1209999761777,completion,,,,,false,,,,358084,358083.89999997616,355463.04,355466.10000002384,355479.779,358096.589,8,400,,,
trial,html.Screen,4_105_0,2023-09-08T21:15:22.586Z,,0,3,,2564.81099997618,response,ISIC_0030119.JPG,5,ISIC_6951506.JPG,ISIC_6951506.JPG,false,0,keypress(z),500,360661.5,360661.39999997616,358079.92,358084,358096.589,360680.115,8,400,6,,ISIC_0030119.JPG
break,html.Screen,4_105_1,2023-09-08T21:15:22.587Z,,0,,,NaN,,,,,,false,,,,360661.7999999523,360661.7000000477,,360661.60000002384,,360680.115,8,400,,,
break_continue,html.Screen,4_105_2,2023-09-08T21:15:22.587Z,,0,,,NaN,,,,,,false,,,,360661.89999997616,360661.89999997616,,360661.89999997616,,360680.115,8,400,,,
sequence,flow.Sequence,4_105,2023-09-08T21:15:22.587Z,,0,,,2565.31099997618,completion,,,,,false,,,,360662,360661.89999997616,358079.92,358084,358096.589,360680.115,8,400,,,
trial,html.Screen,4_106_0,2023-09-08T21:15:25.071Z,,0,3,,2466.2849999761675,response,ISIC_8516223.JPG,4,ISIC_7283084.JPG,ISIC_7283084.JPG,false,0,keypress(z),500,363146.5,363146.39999997616,360663.436,360662.10000002384,360680.115,363146.942,8,400,7,,ISIC_8516223.JPG
break,html.Screen,4_106_1,2023-09-08T21:15:25.072Z,,0,,,NaN,,,,,,false,,,,363146.89999997616,363146.7000000477,,363146.5,,363146.942,8,400,,,
break_continue,html.Screen,4_106_2,2023-09-08T21:15:25.072Z,,0,,,NaN,,,,,,false,,,,363147,363146.89999997616,,363146.89999997616,,363146.942,8,400,,,
sequence,flow.Sequence,4_106,2023-09-08T21:15:25.072Z,,0,,,2466.7849999761675,completion,,,,,false,,,,363147,363146.89999997616,360663.436,360662.10000002384,360680.115,363146.942,8,400,,,
trial,html.Screen,4_107_0,2023-09-08T21:15:27.655Z,,0,3,,2583.3579999523354,response,ISIC_7181296.JPG,5,ISIC_0060832.JPG,ISIC_7181296.JPG,false,1,keypress(m),500,365730.39999997616,365730.2999999523,363130.251,363147.10000002384,363146.942,365747.101,8,400,8,,ISIC_0060832.JPG
break,html.Screen,4_107_1,2023-09-08T21:15:27.656Z,,0,,,NaN,,,,,,false,,,,365730.89999997616,365730.7999999523,,365730.5,,365747.101,8,400,,,
break_continue,html.Screen,4_107_2,2023-09-08T21:15:27.656Z,,0,,,NaN,,,,,,false,,,,365731.10000002384,365731,,365731,,365747.101,8,400,,,
sequence,flow.Sequence,4_107,2023-09-08T21:15:27.656Z,,0,,,2584.058000000019,completion,,,,,false,,,,365731.2000000477,365731,363130.251,363147.10000002384,363146.942,365747.101,8,400,,,
trial,html.Screen,4_108_0,2023-09-08T21:15:30.203Z,,0,3,,2530.298999976134,response,ISIC_2841488.JPG,5,ISIC_0033027.JPG,ISIC_2841488.JPG,false,1,keypress(m),500,368277.5,368277.39999997616,365730.488,365731.2000000477,365747.101,368280.627,8,400,9,,ISIC_0033027.JPG
break,html.Screen,4_108_1,2023-09-08T21:15:30.203Z,,0,,,NaN,,,,,,false,,,,368277.89999997616,368277.7999999523,,368277.60000002384,,368280.627,8,400,,,
break_continue,html.Screen,4_108_2,2023-09-08T21:15:30.203Z,,0,,,NaN,,,,,,false,,,,368278,368278,,368277.89999997616,,368280.627,8,400,,,
sequence,flow.Sequence,4_108,2023-09-08T21:15:30.203Z,,0,,,2530.898999999976,completion,,,,,false,,,,368278.10000002384,368278,365730.488,365731.2000000477,365747.101,368280.627,8,400,,,
trial,html.Screen,4_109_0,2023-09-08T21:15:32.654Z,,0,3,,2447.7729999761796,response,ISIC_4175400.JPG,5,ISIC_3356355.JPG,ISIC_3356355.JPG,false,0,keypress(z),500,370728.5,370728.39999997616,368263.987,368278.10000002384,368280.627,370730.795,8,400,10,,ISIC_4175400.JPG
break,html.Screen,4_109_1,2023-09-08T21:15:32.654Z,,0,,,NaN,,,,,,false,,,,370728.7999999523,370728.7999999523,,370728.60000002384,,370730.795,8,400,,,
break_continue,html.Screen,4_109_2,2023-09-08T21:15:32.654Z,,0,,,NaN,,,,,,false,,,,370729.10000002384,370728.89999997616,,370728.89999997616,,370730.795,8,400,,,
sequence,flow.Sequence,4_109,2023-09-08T21:15:32.654Z,,0,,,2448.2729999761796,completion,,,,,false,,,,370729.10000002384,370728.89999997616,368263.987,368278.10000002384,368280.627,370730.795,8,400,,,
trial,html.Screen,4_110_0,2023-09-08T21:15:35.040Z,,0,3,,2383.9050000477,response,ISIC_1925590.JPG,5,ISIC_1092432.JPG,ISIC_1925590.JPG,false,1,keypress(m),500,373114.7999999523,373114.7000000477,370714.121,370729.10000002384,370730.795,373147.614,8,400,11,,ISIC_1092432.JPG
break,html.Screen,4_110_1,2023-09-08T21:15:35.040Z,,0,,,NaN,,,,,,false,,,,373115.2000000477,373115.10000002384,,373114.89999997616,,373147.614,8,400,,,
break_continue,html.Screen,4_110_2,2023-09-08T21:15:35.040Z,,0,,,NaN,,,,,,false,,,,373115.39999997616,373115.2999999523,,373115.2999999523,,373147.614,8,400,,,
sequence,flow.Sequence,4_110,2023-09-08T21:15:35.040Z,,0,,,2384.5049999523326,completion,,,,,false,,,,373115.39999997616,373115.2999999523,370714.121,370729.10000002384,370730.795,373147.614,8,400,,,
trial,html.Screen,4_111_0,2023-09-08T21:15:37.434Z,,0,3,,2360.7859999761567,response,ISIC_0016094.JPG,4,ISIC_0072030.JPG,ISIC_0016094.JPG,false,1,keypress(m),500,375508.60000002384,375508.39999997616,373130.942,373115.5,373147.614,375514.468,8,400,12,,ISIC_0072030.JPG
break,html.Screen,4_111_1,2023-09-08T21:15:37.434Z,,0,,,NaN,,,,,,false,,,,375508.7999999523,375508.7999999523,,375508.60000002384,,375514.468,8,400,,,
break_continue,html.Screen,4_111_2,2023-09-08T21:15:37.434Z,,0,,,NaN,,,,,,false,,,,375509,375509,,375508.89999997616,,375514.468,8,400,,,
sequence,flow.Sequence,4_111,2023-09-08T21:15:37.434Z,,0,,,2361.3859999999986,completion,,,,,false,,,,375509.10000002384,375509,373130.942,373115.5,373147.614,375514.468,8,400,,,
trial,html.Screen,4_112_0,2023-09-08T21:15:40.354Z,,0,3,,2913.9319999761647,response,ISIC_6529073.JPG,6,ISIC_6860222.JPG,ISIC_6529073.JPG,false,1,keypress(m),500,378428.5,378428.39999997616,375497.728,375509.10000002384,375514.468,378431.324,8,400,13,,ISIC_6860222.JPG
break,html.Screen,4_112_1,2023-09-08T21:15:40.354Z,,0,,,NaN,,,,,,false,,,,378428.7999999523,378428.7999999523,,378428.60000002384,,378431.324,8,400,,,
break_continue,html.Screen,4_112_2,2023-09-08T21:15:40.354Z,,0,,,NaN,,,,,,false,,,,378429,378429,,378428.89999997616,,378431.324,8,400,,,
sequence,flow.Sequence,4_112,2023-09-08T21:15:40.354Z,,0,,,2914.5320000000065,completion,,,,,false,,,,378429.10000002384,378429,375497.728,375509.10000002384,375514.468,378431.324,8,400,,,
trial,html.Screen,4_113_0,2023-09-08T21:15:42.932Z,,0,3,,2575.1759999999776,response,ISIC_9049170.JPG,6,ISIC_8783066.JPG,ISIC_8783066.JPG,false,0,keypress(z),500,381006.60000002384,381006.5,378414.629,378429.2000000477,378431.324,381014.823,8,400,14,,ISIC_9049170.JPG
break,html.Screen,4_113_1,2023-09-08T21:15:42.932Z,,0,,,NaN,,,,,,false,,,,381007,381006.89999997616,,381006.60000002384,,381014.823,8,400,,,
break_continue,html.Screen,4_113_2,2023-09-08T21:15:42.932Z,,0,,,NaN,,,,,,false,,,,381007.10000002384,381007.10000002384,,381007,,381014.823,8,400,,,
sequence,flow.Sequence,4_113,2023-09-08T21:15:42.932Z,,0,,,2575.7760000238195,completion,,,,,false,,,,381007.10000002384,381007.10000002384,378414.629,378429.10000002384,378431.324,381014.823,8,400,,,
trial,html.Screen,4_114_0,2023-09-08T21:15:45.323Z,,0,3,,2382.5769999761833,response,ISIC_0063164.JPG,5,ISIC_5586765.JPG,ISIC_5586765.JPG,false,0,keypress(z),500,383397.5,383397.39999997616,380998.148,381007.2000000477,381014.823,383398.35,8,400,15,,ISIC_0063164.JPG
break,html.Screen,4_114_1,2023-09-08T21:15:45.323Z,,0,,,NaN,,,,,,false,,,,383397.89999997616,383397.7999999523,,383397.60000002384,,383398.35,8,400,,,
break_continue,html.Screen,4_114_2,2023-09-08T21:15:45.323Z,,0,,,NaN,,,,,,false,,,,383398.10000002384,383398,,383398,,383398.35,8,400,,,
sequence,flow.Sequence,4_114,2023-09-08T21:15:45.323Z,,0,,,2383.177000000025,completion,,,,,false,,,,383398.10000002384,383398,380998.148,381007.10000002384,381014.823,383398.35,8,400,,,
trial,html.Screen,4_115_0,2023-09-08T21:15:49.139Z,,0,3,,3815.0499999761814,response,ISIC_0025357.JPG,5,ISIC_9726155.JPG,ISIC_0025357.JPG,false,1,keypress(m),500,387213.60000002384,387213.39999997616,383381.63,383398.2000000477,383398.35,387215.245,8,400,16,,ISIC_9726155.JPG
break,html.Screen,4_115_1,2023-09-08T21:15:49.139Z,,0,,,NaN,,,,,,false,,,,387213.89999997616,387213.89999997616,,387213.7000000477,,387215.245,8,400,,,
break_continue,html.Screen,4_115_2,2023-09-08T21:15:49.139Z,,0,,,NaN,,,,,,false,,,,387214,387214,,387214,,387215.245,8,400,,,
sequence,flow.Sequence,4_115,2023-09-08T21:15:49.139Z,,0,,,3815.6500000000233,completion,,,,,false,,,,387214.10000002384,387214,383381.63,383398.2000000477,383398.35,387215.245,8,400,,,
trial,html.Screen,4_116_0,2023-09-08T21:15:51.725Z,,0,3,,2584.2550000000047,response,ISIC_0010822.JPG,6,ISIC_0028859.JPG,ISIC_0010822.JPG,false,1,keypress(m),500,389799.60000002384,389799.5,387198.523,387214.2000000477,387215.245,389815.458,8,400,17,,ISIC_0028859.JPG
break,html.Screen,4_116_1,2023-09-08T21:15:51.725Z,,0,,,NaN,,,,,,false,,,,389800.10000002384,389800,,389799.7999999523,,389815.458,8,400,,,
break_continue,html.Screen,4_116_2,2023-09-08T21:15:51.725Z,,0,,,NaN,,,,,,false,,,,389800.2000000477,389800.2000000477,,389800.2000000477,,389815.458,8,400,,,
sequence,flow.Sequence,4_116,2023-09-08T21:15:51.725Z,,0,,,2584.9550000476884,completion,,,,,false,,,,389800.2999999523,389800.2000000477,387198.523,387214.10000002384,387215.245,389815.458,8,400,,,
trial,html.Screen,4_117_0,2023-09-08T21:15:54.208Z,,0,3,,2467.042000000016,response,ISIC_0033217.JPG,4,ISIC_9465061.JPG,ISIC_0033217.JPG,false,1,keypress(m),500,392282.7000000477,392282.5,389798.746,389800.39999997616,389815.458,392298.932,8,400,18,,ISIC_9465061.JPG
break,html.Screen,4_117_1,2023-09-08T21:15:54.208Z,,0,,,NaN,,,,,,false,,,,392283.10000002384,392283.10000002384,,392282.7999999523,,392298.932,8,400,,,
break_continue,html.Screen,4_117_2,2023-09-08T21:15:54.208Z,,0,,,NaN,,,,,,false,,,,392283.2999999523,392283.2000000477,,392283.10000002384,,392298.932,8,400,,,
sequence,flow.Sequence,4_117,2023-09-08T21:15:54.208Z,,0,,,2467.7420000476995,completion,,,,,false,,,,392283.39999997616,392283.2000000477,389798.746,389800.39999997616,389815.458,392298.932,8,400,,,
trial,html.Screen,4_118_0,2023-09-08T21:15:56.646Z,,0,3,,2421.4679999761865,response,ISIC_1476361.JPG,5,ISIC_1566428.JPG,ISIC_1476361.JPG,false,1,keypress(m),500,394720.60000002384,394720.39999997616,392282.221,392283.39999997616,392298.932,394732.427,8,400,19,,ISIC_1566428.JPG
break,html.Screen,4_118_1,2023-09-08T21:15:56.646Z,,0,,,NaN,,,,,,false,,,,394721,394720.89999997616,,394720.7000000477,,394732.427,8,400,,,
break_continue,html.Screen,4_118_2,2023-09-08T21:15:56.646Z,,0,,,NaN,,,,,,false,,,,394721.10000002384,394721,,394721,,394732.427,8,400,,,
sequence,flow.Sequence,4_118,2023-09-08T21:15:56.646Z,,0,,,2422.0680000000284,completion,,,,,false,,,,394721.2000000477,394721,392282.221,392283.39999997616,392298.932,394732.427,8,400,,,
trial,html.Screen,4_119_0,2023-09-08T21:15:59.672Z,,0,3,,3014.072999999975,response,ISIC_0031472.JPG,5,ISIC_0014694.JPG,ISIC_0014694.JPG,false,0,keypress(z),500,397746.60000002384,397746.5,394715.788,394721.2999999523,394732.427,397749.315,8,400,20,,ISIC_0031472.JPG
break,html.Screen,4_119_1,2023-09-08T21:15:59.672Z,,0,,,NaN,,,,,,false,,,,397747,397746.89999997616,,397746.7000000477,,397749.315,8,400,,,
break_continue,html.Screen,4_119_2,2023-09-08T21:15:59.672Z,,0,,,NaN,,,,,,false,,,,397747.10000002384,397747,,397747,,397749.315,8,400,,,
sequence,flow.Sequence,4_119,2023-09-08T21:15:59.672Z,,0,,,3014.572999999975,completion,,,,,false,,,,397747.10000002384,397747,394715.788,394721.2000000477,394732.427,397749.315,8,400,,,
trial,html.Screen,4_120_0,2023-09-08T21:16:02.141Z,,0,3,,2466.084999976156,response,ISIC_0450295.JPG,5,ISIC_0060222.JPG,ISIC_0450295.JPG,false,1,keypress(m),500,400215.5,400215.39999997616,397732.633,397747.2000000477,397749.315,400216.132,8,400,21,,ISIC_0060222.JPG
break,html.Screen,4_120_1,2023-09-08T21:16:02.141Z,,0,,,NaN,,,,,,false,,,,400216,400215.7999999523,,400215.60000002384,,400216.132,8,400,,,
break_continue,html.Screen,4_120_2,2023-09-08T21:16:02.141Z,,0,,,NaN,,,,,,false,,,,400216.10000002384,400216.10000002384,,400216,,400216.132,8,400,,,
sequence,flow.Sequence,4_120,2023-09-08T21:16:02.141Z,,0,,,2466.7850000238395,completion,,,,,false,,,,400216.10000002384,400216.10000002384,397732.633,397747.2000000477,397749.315,400216.132,8,400,,,
trial,html.Screen,4_121_0,2023-09-08T21:16:04.614Z,,0,3,,2472.3680000000168,response,ISIC_5041679.JPG,6,ISIC_0030873.JPG,ISIC_5041679.JPG,false,1,keypress(m),500,402688.60000002384,402688.5,400199.464,400216.2000000477,400216.132,402699.634,8,400,22,,ISIC_0030873.JPG
break,html.Screen,4_121_1,2023-09-08T21:16:04.614Z,,0,,,NaN,,,,,,false,,,,402688.89999997616,402688.89999997616,,402688.7000000477,,402699.634,8,400,,,
break_continue,html.Screen,4_121_2,2023-09-08T21:16:04.614Z,,0,,,NaN,,,,,,false,,,,402689.10000002384,402689,,402689,,402699.634,8,400,,,
sequence,flow.Sequence,4_121,2023-09-08T21:16:04.614Z,,0,,,2472.8680000000168,completion,,,,,false,,,,402689.10000002384,402689,400199.464,400216.2000000477,400216.132,402699.634,8,400,,,
trial,html.Screen,4_122_0,2023-09-08T21:16:07.369Z,,0,3,,2743.86599999998,response,ISIC_0024552.JPG,6,ISIC_0068080.JPG,ISIC_0068080.JPG,false,0,keypress(z),500,405443.7000000477,405443.5,402682.941,402689.2000000477,402699.634,405449.819,8,400,23,,ISIC_0024552.JPG
break,html.Screen,4_122_1,2023-09-08T21:16:07.369Z,,0,,,NaN,,,,,,false,,,,405444,405444,,405443.7999999523,,405449.819,8,400,,,
break_continue,html.Screen,4_122_2,2023-09-08T21:16:07.369Z,,0,,,NaN,,,,,,false,,,,405444.2000000477,405444.2000000477,,405444.10000002384,,405449.819,8,400,,,
sequence,flow.Sequence,4_122,2023-09-08T21:16:07.369Z,,0,,,2744.5660000476637,completion,,,,,false,,,,405444.2000000477,405444.2000000477,402682.941,402689.2000000477,402699.634,405449.819,8,400,,,
trial,html.Screen,4_123_0,2023-09-08T21:16:09.903Z,,0,3,,2527.5809999761404,response,ISIC_0005248.JPG,5,ISIC_2372468.JPG,ISIC_2372468.JPG,false,0,keypress(z),500,407977.60000002384,407977.39999997616,405433.189,405444.2000000477,405449.819,407983.365,8,400,24,,ISIC_0005248.JPG
break,html.Screen,4_123_1,2023-09-08T21:16:09.903Z,,0,,,NaN,,,,,,false,,,,407978,407977.89999997616,,407977.7000000477,,407983.365,8,400,,,
break_continue,html.Screen,4_123_2,2023-09-08T21:16:09.903Z,,0,,,NaN,,,,,,false,,,,407978.2000000477,407978,,407978,,407983.365,8,400,,,
sequence,flow.Sequence,4_123,2023-09-08T21:16:09.903Z,,0,,,2528.1809999999823,completion,,,,,false,,,,407978.2000000477,407978,405433.189,405444.2000000477,405449.819,407983.365,8,400,,,
trial,html.Screen,4_124_0,2023-09-08T21:16:12.529Z,,0,3,,2620.1350000000093,response,ISIC_8664718.JPG,6,ISIC_5546488.JPG,ISIC_5546488.JPG,false,0,keypress(z),500,410603.60000002384,410603.5,407966.841,407978.2000000477,407983.365,410616.898,8,400,25,,ISIC_8664718.JPG
break,html.Screen,4_124_1,2023-09-08T21:16:12.529Z,,0,,,NaN,,,,,,false,,,,410604,410604,,410603.7999999523,,410616.898,8,400,,,
break_continue,html.Screen,4_124_2,2023-09-08T21:16:12.529Z,,0,,,NaN,,,,,,false,,,,410604.2000000477,410604.2000000477,,410604.10000002384,,410616.898,8,400,,,
sequence,flow.Sequence,4_124,2023-09-08T21:16:12.529Z,,0,,,2620.835000047693,completion,,,,,false,,,,410604.2999999523,410604.2000000477,407966.841,407978.2000000477,407983.365,410616.898,8,400,,,
trial,html.Screen,4_125_0,2023-09-08T21:16:15.160Z,,0,3,,2617.7020000238554,response,ISIC_0033638.JPG,5,ISIC_1644520.JPG,ISIC_0033638.JPG,false,1,keypress(m),500,413234.7999999523,413234.60000002384,410600.171,410604.2999999523,410616.898,413250.361,8,400,26,,ISIC_1644520.JPG
