sender,sender_type,sender_id,timestamp,meta,,blockNo,condition,duration,ended_on,img_left,img_reveal,img_right,loser,practice,response,response_action,selection_duration,time_commit,time_end,time_render,time_run,time_show,time_switch,total_blocks,total_trials,trialNo,url,winner
informed_consent,html.Screen,0,2023-10-31T16:53:57.450Z,"{""labjs_version"":""20.2.4"",""labjs_build"":{""flavor"":""production"",""commit"":""f5b4a49f956347addd546a832a3327688c2c0fef""},""location"":""https://run.pavlovia.org/MurrayBennett/melanoma-2afc/?participant=65707&platform=sona"",""userAgent"":""Mozilla/5.0 (Windows NT 10.0; Win64; x64) AppleWebKit/537.36 (KHTML, like Gecko) Chrome/118.0.0.0 Safari/537.36 Edg/118.0.2088.76"",""platform"":""Win32"",""language"":""en-US"",""locale"":""en-US"",""timeZone"":""America/Chicago"",""timezoneOffset"":300,""screen_width"":1920,""screen_height"":1080,""scroll_width"":1406,""scroll_height"":683,""window_innerWidth"":1406,""window_innerHeight"":731,""devicePixelRatio"":1}",,,,29441.691000035764,response,,,,,,consent,click button,,31416.100000023842,31414.900000035763,1706.593,1977.699999988079,1973.209,31423.225,,,,"{""participant"":""65707"",""platform"":""sona""}",
Welcome,html.Screen,1,2023-10-31T16:56:17.136Z,,,,colourful,139675.97499998807,response,,,,,,continue,click button,,171100.19999998808,171099.19999998808,31406.56,31416.19999998808,31423.225,171106.282,,,,,
trial,html.Screen,2_0_0,2023-10-31T16:56:28.635Z,,0,0,,11516.679999999993,timeout,ISIC_0025593.JPG,,ISIC_0063388.JPG,,true,,,500,182598.69999998808,182598.10000002384,171089.724,171100.5,171106.282,182622.962,1,6,1,,
sequence,flow.Sequence,2_0,2023-10-31T16:56:28.636Z,,0,,,11491.818000023835,completion,,,,,true,,,,182599.40000003576,182598.10000002384,171089.724,171100.40000003576,171106.282,182622.962,1,6,,,
trial,html.Screen,2_1_0,2023-10-31T16:56:33.375Z,,0,0,,4715.338000011921,response,ISIC_1309015.JPG,,ISIC_0028178.JPG,ISIC_1309015.JPG,true,1,keypress(m),500,187339,187338.30000001192,182606.252,182599.80000001192,182622.962,187356.333,1,6,2,,ISIC_0028178.JPG
sequence,flow.Sequence,2_1,2023-10-31T16:56:33.376Z,,0,,,4715.338000011921,completion,,,,,true,,,,187339.69999998808,187338.30000001192,182606.252,182599.69999998808,182622.962,187356.333,1,6,,,
trial,html.Screen,2_2_0,2023-10-31T16:56:37.779Z,,0,0,,4386.166999999987,response,ISIC_0031128.JPG,,ISIC_3314853.JPG,ISIC_0031128.JPG,true,1,keypress(m),500,191743,191742.5,187339.799,187340.10000002384,187356.333,191756.449,1,6,3,,ISIC_3314853.JPG
sequence,flow.Sequence,2_2,2023-10-31T16:56:37.780Z,,0,,,4386.166999999987,completion,,,,,true,,,,191743.69999998808,191742.5,187339.799,187340,187356.333,191756.449,1,6,,,
trial,html.Screen,2_3_0,2023-10-31T16:56:41.319Z,,0,0,,3525.5510000000068,response,ISIC_8980141.JPG,,ISIC_0031612.JPG,ISIC_0031612.JPG,true,0,keypress(z),500,195282.5,195282,191739.663,191744.10000002384,191756.449,195289.552,1,6,4,,ISIC_8980141.JPG
sequence,flow.Sequence,2_3,2023-10-31T16:56:41.320Z,,0,,,3525.5510000000068,completion,,,,,true,,,,195283.30000001192,195282,191739.663,191744,191756.449,195289.552,1,6,,,
trial,html.Screen,2_4_0,2023-10-31T16:56:44.139Z,,0,0,,2812.448000000004,response,ISIC_9721604.JPG,,ISIC_1197737.JPG,ISIC_9721604.JPG,true,1,keypress(m),500,198102.60000002384,198102,195272.984,195283.69999998808,195289.552,198106.275,1,6,5,,ISIC_1197737.JPG
sequence,flow.Sequence,2_4,2023-10-31T16:56:44.140Z,,0,,,2812.448000000004,completion,,,,,true,,,,198103.30000001192,198102,195272.984,195283.60000002384,195289.552,198106.275,1,6,,,
trial,html.Screen,2_5_0,2023-10-31T16:56:47.695Z,,0,0,,3551.8250000238477,response,ISIC_0025346.JPG,,ISIC_0010681.JPG,ISIC_0025346.JPG,true,1,keypress(m),500,201658.69999998808,201658.10000002384,198089.734,198103.69999998808,198106.275,201673.075,1,6,6,,ISIC_0010681.JPG
sequence,flow.Sequence,2_5,2023-10-31T16:56:47.696Z,,0,,,3551.8250000238477,completion,,,,,true,,,,201659.40000003576,201658.10000002384,198089.734,198103.60000002384,198106.275,201673.075,1,6,,,
loop,flow.Loop,2,2023-10-31T16:56:47.696Z,,,,,30551.818000023835,completion,,,,,true,,,,201659.90000003576,201658.10000002384,171089.724,171100.40000003576,171106.282,201673.075,1,6,,,
exp_instructions,html.Screen,3,2023-10-31T16:57:03.727Z,,,,,16015.825000035751,response,,,,,,continue,keypress(Space),,217690.30000001192,217688.90000003576,201656.508,201660.10000002384,201673.075,217706.398,,,,,
trial,html.Screen,4_0_0,2023-10-31T16:57:08.005Z,,0,1,,4261.6020000000135,response,ISIC_0028462.JPG,5,ISIC_9142919.JPG,ISIC_9142919.JPG,false,0,keypress(z),500,221968.60000002384,221968,217689.57,217690.80000001192,217706.398,221972.952,8,400,1,,ISIC_0028462.JPG
break,html.Screen,4_0_1,2023-10-31T16:57:08.007Z,,0,,,NaN,,,,,,false,,,,221970.30000001192,221969.90000003576,,221968.90000003576,,221972.952,8,400,,,
break_continue,html.Screen,4_0_2,2023-10-31T16:57:08.008Z,,0,,,NaN,,,,,,false,,,,221971.30000001192,221971,,221970.69999998808,,221972.952,8,400,,,
sequence,flow.Sequence,4_0,2023-10-31T16:57:08.008Z,,0,,,4264.6020000000135,completion,,,,,false,,,,221971.69999998808,221971,217689.57,217690.80000001192,217706.398,221972.952,8,400,,,
trial,html.Screen,4_1_0,2023-10-31T16:57:12.140Z,,0,1,,4129.848000011931,response,ISIC_8241457.JPG,5,ISIC_3919752.JPG,ISIC_3919752.JPG,false,0,keypress(z),500,226103.19999998808,226102.80000001192,221956.415,221972,221972.952,226106.237,8,400,2,,ISIC_8241457.JPG
break,html.Screen,4_1_1,2023-10-31T16:57:12.141Z,,0,,,NaN,,,,,,false,,,,226104.30000001192,226104,,226103.5,,226106.237,8,400,,,
break_continue,html.Screen,4_1_2,2023-10-31T16:57:12.141Z,,0,,,NaN,,,,,,false,,,,226105,226104.80000001192,,226104.60000002384,,226106.237,8,400,,,
sequence,flow.Sequence,4_1,2023-10-31T16:57:12.142Z,,0,,,4131.848000011931,completion,,,,,false,,,,226105.30000001192,226104.80000001192,221956.415,221971.90000003576,221972.952,226106.237,8,400,,,
trial,html.Screen,4_2_0,2023-10-31T16:57:16.209Z,,0,1,,4066.163000035769,response,ISIC_6529073.JPG,5,ISIC_1165548.JPG,ISIC_1165548.JPG,false,0,keypress(z),500,230172.80000001192,230172.40000003576,226089.675,226105.5,226106.237,230189.543,8,400,3,,ISIC_6529073.JPG
break,html.Screen,4_2_1,2023-10-31T16:57:16.211Z,,0,,,NaN,,,,,,false,,,,230174.30000001192,230173.90000003576,,230173.19999998808,,230189.543,8,400,,,
break_continue,html.Screen,4_2_2,2023-10-31T16:57:16.212Z,,0,,,NaN,,,,,,false,,,,230175.19999998808,230175,,230174.69999998808,,230189.543,8,400,,,
sequence,flow.Sequence,4_2,2023-10-31T16:57:16.212Z,,0,,,4068.7630000000063,completion,,,,,false,,,,230175.60000002384,230175,226089.675,226105.40000003576,226106.237,230189.543,8,400,,,
trial,html.Screen,4_3_0,2023-10-31T16:57:20.328Z,,0,1,,4101.456999999995,response,ISIC_0054239.JPG,5,ISIC_0060222.JPG,ISIC_0060222.JPG,false,0,keypress(z),500,234291.5,234291,230172.975,230175.90000003576,230189.543,234306.366,8,400,4,,ISIC_0054239.JPG
break,html.Screen,4_3_1,2023-10-31T16:57:20.329Z,,0,,,NaN,,,,,,false,,,,234293,234292.5,,234291.90000003576,,234306.366,8,400,,,
break_continue,html.Screen,4_3_2,2023-10-31T16:57:20.330Z,,0,,,NaN,,,,,,false,,,,234293.80000001192,234293.5,,234293.30000001192,,234306.366,8,400,,,
sequence,flow.Sequence,4_3,2023-10-31T16:57:20.331Z,,0,,,4103.956999999995,completion,,,,,false,,,,234294.19999998808,234293.5,230172.975,230175.80000001192,230189.543,234306.366,8,400,,,
trial,html.Screen,4_4_0,2023-10-31T16:57:24.925Z,,0,1,,4581.734000023833,response,ISIC_2668481.JPG,6,ISIC_5273029.JPG,ISIC_5273029.JPG,false,0,keypress(z),500,238888.60000002384,238888.10000002384,234289.44,234294.5,234306.366,238923.1,8,400,5,,ISIC_2668481.JPG
break,html.Screen,4_4_1,2023-10-31T16:57:24.926Z,,0,,,NaN,,,,,,false,,,,238889.90000003576,238889.5,,238888.90000003576,,238923.1,8,400,,,
break_continue,html.Screen,4_4_2,2023-10-31T16:57:24.927Z,,0,,,NaN,,,,,,false,,,,238890.69999998808,238890.40000003576,,238890.19999998808,,238923.1,8,400,,,
sequence,flow.Sequence,4_4,2023-10-31T16:57:24.927Z,,0,,,4584.034000035754,completion,,,,,false,,,,238891.10000002384,238890.40000003576,234289.44,234294.40000003576,234306.366,238923.1,8,400,,,
trial,html.Screen,4_5_0,2023-10-31T16:57:29.060Z,,0,1,,4099.300000035757,response,ISIC_0256926.JPG,5,ISIC_7693611.JPG,ISIC_0256926.JPG,false,1,keypress(m),500,243022.80000001192,243022.40000003576,238906.281,238891.40000003576,238923.1,243039.477,8,400,6,,ISIC_7693611.JPG
break,html.Screen,4_5_1,2023-10-31T16:57:29.061Z,,0,,,NaN,,,,,,false,,,,243024.19999998808,243023.90000003576,,243023.19999998808,,243039.477,8,400,,,
break_continue,html.Screen,4_5_2,2023-10-31T16:57:29.062Z,,0,,,NaN,,,,,,false,,,,243025,243024.80000001192,,243024.5,,243039.477,8,400,,,
sequence,flow.Sequence,4_5,2023-10-31T16:57:29.062Z,,0,,,4101.700000011915,completion,,,,,false,,,,243025.40000003576,243024.80000001192,238906.281,238891.19999998808,238923.1,243039.477,8,400,,,
trial,html.Screen,4_6_0,2023-10-31T16:57:34.458Z,,0,1,,5381.123000023828,response,ISIC_9822801.JPG,5,ISIC_6416533.JPG,ISIC_9822801.JPG,false,1,keypress(m),500,248421,248420.60000002384,243023.149,243025.69999998808,243039.477,248439.762,8,400,7,,ISIC_6416533.JPG
break,html.Screen,4_6_1,2023-10-31T16:57:34.459Z,,0,,,NaN,,,,,,false,,,,248422.60000002384,248422.19999998808,,248421.5,,248439.762,8,400,,,
break_continue,html.Screen,4_6_2,2023-10-31T16:57:34.460Z,,0,,,NaN,,,,,,false,,,,248423.30000001192,248423,,248422.80000001192,,248439.762,8,400,,,
sequence,flow.Sequence,4_6,2023-10-31T16:57:34.461Z,,0,,,5383.5229999999865,completion,,,,,false,,,,248423.80000001192,248423,243023.149,243025.60000002384,243039.477,248439.762,8,400,,,
trial,html.Screen,4_7_0,2023-10-31T16:57:38.560Z,,0,1,,4082.937999988091,response,ISIC_0009735.JPG,6,ISIC_8128335.JPG,ISIC_0009735.JPG,false,1,keypress(m),500,252523,252522.69999998808,248406.175,248424.10000002384,248439.762,252539.636,8,400,8,,ISIC_8128335.JPG
break,html.Screen,4_7_1,2023-10-31T16:57:38.561Z,,0,,,NaN,,,,,,false,,,,252524.5,252524.10000002384,,252523.5,,252539.636,8,400,,,
break_continue,html.Screen,4_7_2,2023-10-31T16:57:38.562Z,,0,,,NaN,,,,,,false,,,,252525.30000001192,252525,,252524.80000001192,,252539.636,8,400,,,
sequence,flow.Sequence,4_7,2023-10-31T16:57:38.562Z,,0,,,4085.238000000012,completion,,,,,false,,,,252525.69999998808,252525,248406.175,248424,248439.762,252539.636,8,400,,,
trial,html.Screen,4_8_0,2023-10-31T16:57:45.637Z,,0,1,,7059.964000023843,response,ISIC_0031155.JPG,4,ISIC_0058331.JPG,ISIC_0058331.JPG,false,0,keypress(z),500,259600,259599.60000002384,252523.079,252526,252539.636,259606.228,8,400,9,,ISIC_0031155.JPG
break,html.Screen,4_8_1,2023-10-31T16:57:45.638Z,,0,,,NaN,,,,,,false,,,,259601.40000003576,259600.90000003576,,259600.30000001192,,259606.228,8,400,,,
break_continue,html.Screen,4_8_2,2023-10-31T16:57:45.639Z,,0,,,NaN,,,,,,false,,,,259602.19999998808,259601.90000003576,,259601.69999998808,,259606.228,8,400,,,
sequence,flow.Sequence,4_8,2023-10-31T16:57:45.639Z,,0,,,7062.264000035764,completion,,,,,false,,,,259602.5,259601.90000003576,252523.079,252525.80000001192,252539.636,259606.228,8,400,,,
trial,html.Screen,4_9_0,2023-10-31T16:57:50.795Z,,0,1,,5151.072000011918,response,ISIC_6119830.JPG,5,ISIC_0009916.JPG,ISIC_6119830.JPG,false,1,keypress(m),500,264757.8000000119,264757.3000000119,259589.397,259602.80000001192,259606.228,264772.722,8,400,10,,ISIC_0009916.JPG
break,html.Screen,4_9_1,2023-10-31T16:57:50.796Z,,0,,,NaN,,,,,,false,,,,264759.40000003576,264759,,264758.3000000119,,264772.722,8,400,,,
break_continue,html.Screen,4_9_2,2023-10-31T16:57:50.797Z,,0,,,NaN,,,,,,false,,,,264760.3000000119,264760,,264759.6999999881,,264772.722,8,400,,,
sequence,flow.Sequence,4_9,2023-10-31T16:57:50.797Z,,0,,,5153.771999999997,completion,,,,,false,,,,264760.6999999881,264760,259589.397,259602.69999998808,259606.228,264772.722,8,400,,,
trial,html.Screen,4_10_0,2023-10-31T16:57:55.729Z,,0,1,,4919.178000035754,response,ISIC_0026470.JPG,5,ISIC_0011994.JPG,ISIC_0026470.JPG,false,1,keypress(m),500,269692.3000000119,269691.90000003576,264756.155,264761,264772.722,269706.135,8,400,11,,ISIC_0011994.JPG
break,html.Screen,4_10_1,2023-10-31T16:57:55.731Z,,0,,,NaN,,,,,,false,,,,269693.8000000119,269693.40000003576,,269692.8000000119,,269706.135,8,400,,,
break_continue,html.Screen,4_10_2,2023-10-31T16:57:55.731Z,,0,,,NaN,,,,,,false,,,,269694.60000002384,269694.40000003576,,269694.10000002384,,269706.135,8,400,,,
sequence,flow.Sequence,4_10,2023-10-31T16:57:55.732Z,,0,,,4921.678000035754,completion,,,,,false,,,,269695.10000002384,269694.40000003576,264756.155,264760.90000003576,264772.722,269706.135,8,400,,,
trial,html.Screen,4_11_0,2023-10-31T16:57:59.527Z,,0,1,,3783.5649999880698,response,ISIC_5768749.JPG,5,ISIC_1054090.JPG,ISIC_5768749.JPG,false,1,keypress(m),500,273490.10000002384,273489.6999999881,269689.638,269695.5,269706.135,273506.332,8,400,12,,ISIC_1054090.JPG
break,html.Screen,4_11_1,2023-10-31T16:57:59.528Z,,0,,,NaN,,,,,,false,,,,273491.3000000119,273491,,273490.5,,273506.332,8,400,,,
break_continue,html.Screen,4_11_2,2023-10-31T16:57:59.529Z,,0,,,NaN,,,,,,false,,,,273492.10000002384,273491.90000003576,,273491.60000002384,,273506.332,8,400,,,
sequence,flow.Sequence,4_11,2023-10-31T16:57:59.529Z,,0,,,3785.7650000357535,completion,,,,,false,,,,273492.5,273491.90000003576,269689.638,269695.40000003576,269706.135,273506.332,8,400,,,
trial,html.Screen,4_12_0,2023-10-31T16:58:05.293Z,,0,1,,5748.968000011926,response,ISIC_1231722.JPG,6,ISIC_0214186.JPG,ISIC_1231722.JPG,false,1,keypress(m),500,279255.6999999881,279255.3000000119,273489.475,273492.8000000119,273506.332,279272.918,8,400,13,,ISIC_0214186.JPG
break,html.Screen,4_12_1,2023-10-31T16:58:05.294Z,,0,,,NaN,,,,,,false,,,,279257,279256.6999999881,,279256.10000002384,,279272.918,8,400,,,
break_continue,html.Screen,4_12_2,2023-10-31T16:58:05.295Z,,0,,,NaN,,,,,,false,,,,279258,279257.6999999881,,279257.40000003576,,279272.918,8,400,,,
sequence,flow.Sequence,4_12,2023-10-31T16:58:05.295Z,,0,,,5751.367999988084,completion,,,,,false,,,,279258.5,279257.6999999881,273489.475,273492.60000002384,273506.332,279272.918,8,400,,,
trial,html.Screen,4_13_0,2023-10-31T16:58:09.587Z,,0,1,,4277.281999988074,response,ISIC_4915897.JPG,5,ISIC_5623844.JPG,ISIC_4915897.JPG,false,1,keypress(m),500,283550.6999999881,283550.1999999881,279256.24,279258.6999999881,279272.918,283556.148,8,400,14,,ISIC_5623844.JPG
break,html.Screen,4_13_1,2023-10-31T16:58:09.589Z,,0,,,NaN,,,,,,false,,,,283552.1999999881,283551.8000000119,,283551.1999999881,,283556.148,8,400,,,
break_continue,html.Screen,4_13_2,2023-10-31T16:58:09.590Z,,0,,,NaN,,,,,,false,,,,283552.90000003576,283552.60000002384,,283552.40000003576,,283556.148,8,400,,,
sequence,flow.Sequence,4_13,2023-10-31T16:58:09.590Z,,0,,,4279.682000023837,completion,,,,,false,,,,283553.3000000119,283552.60000002384,279256.24,279258.60000002384,279272.918,283556.148,8,400,,,
trial,html.Screen,4_14_0,2023-10-31T16:58:14.155Z,,0,1,,4562.051999988093,response,ISIC_0060589.JPG,5,ISIC_0014844.JPG,ISIC_0014844.JPG,false,0,keypress(z),500,288118.60000002384,288118.1999999881,283539.7,283553.5,283556.148,288122.763,8,400,15,,ISIC_0060589.JPG
break,html.Screen,4_14_1,2023-10-31T16:58:14.156Z,,0,,,NaN,,,,,,false,,,,288119.60000002384,288119.40000003576,,288118.8000000119,,288122.763,8,400,,,
break_continue,html.Screen,4_14_2,2023-10-31T16:58:14.157Z,,0,,,NaN,,,,,,false,,,,288120.3000000119,288120.10000002384,,288119.90000003576,,288122.763,8,400,,,
sequence,flow.Sequence,4_14,2023-10-31T16:58:14.157Z,,0,,,4563.952000023855,completion,,,,,false,,,,288120.6999999881,288120.10000002384,283539.7,283553.40000003576,283556.148,288122.763,8,400,,,
trial,html.Screen,4_15_0,2023-10-31T16:58:17.745Z,,0,1,,3584.5370000119437,response,ISIC_5790319.JPG,6,ISIC_0072828.JPG,ISIC_0072828.JPG,false,0,keypress(z),500,291707.8000000119,291707.3000000119,288106.342,288120.8000000119,288122.763,291722.754,8,400,16,,ISIC_5790319.JPG
break,html.Screen,4_15_1,2023-10-31T16:58:17.746Z,,0,,,NaN,,,,,,false,,,,291709.1999999881,291708.90000003576,,291708.1999999881,,291722.754,8,400,,,
break_continue,html.Screen,4_15_2,2023-10-31T16:58:17.747Z,,0,,,NaN,,,,,,false,,,,291710,291709.8000000119,,291709.5,,291722.754,8,400,,,
sequence,flow.Sequence,4_15,2023-10-31T16:58:17.747Z,,0,,,3587.0370000119437,completion,,,,,false,,,,291710.3000000119,291709.8000000119,288106.342,288120.8000000119,288122.763,291722.754,8,400,,,
trial,html.Screen,4_16_0,2023-10-31T16:58:22.406Z,,0,1,,4646.546000011906,response,ISIC_5312584.JPG,5,ISIC_0012151.JPG,ISIC_5312584.JPG,false,1,keypress(m),500,296369.6999999881,296369.3000000119,291706.312,291710.60000002384,291722.754,296372.8,8,400,17,,ISIC_0012151.JPG
break,html.Screen,4_16_1,2023-10-31T16:58:22.408Z,,0,,,NaN,,,,,,false,,,,296371.10000002384,296370.6999999881,,296370.1999999881,,296372.8,8,400,,,
break_continue,html.Screen,4_16_2,2023-10-31T16:58:22.409Z,,0,,,NaN,,,,,,false,,,,296371.90000003576,296371.6999999881,,296371.40000003576,,296372.8,8,400,,,
sequence,flow.Sequence,4_16,2023-10-31T16:58:22.409Z,,0,,,4648.945999988064,completion,,,,,false,,,,296372.3000000119,296371.6999999881,291706.312,291710.5,291722.754,296372.8,8,400,,,
trial,html.Screen,4_17_0,2023-10-31T16:58:25.164Z,,0,1,,2754.1000000357744,response,ISIC_0654846.JPG,5,ISIC_0027498.JPG,ISIC_0654846.JPG,false,1,keypress(m),500,299127.40000003576,299126.90000003576,296356.039,296372.6999999881,296372.8,299139.405,8,400,18,,ISIC_0027498.JPG
break,html.Screen,4_17_1,2023-10-31T16:58:25.166Z,,0,,,NaN,,,,,,false,,,,299128.8000000119,299128.5,,299127.8000000119,,299139.405,8,400,,,
break_continue,html.Screen,4_17_2,2023-10-31T16:58:25.166Z,,0,,,NaN,,,,,,false,,,,299129.60000002384,299129.40000003576,,299129.10000002384,,299139.405,8,400,,,
sequence,flow.Sequence,4_17,2023-10-31T16:58:25.167Z,,0,,,2756.6000000357744,completion,,,,,false,,,,299130.10000002384,299129.40000003576,296356.039,296372.5,296372.8,299139.405,8,400,,,
trial,html.Screen,4_18_0,2023-10-31T16:58:29.042Z,,0,1,,3865.195000023814,response,ISIC_8705622.JPG,5,ISIC_0001505.JPG,ISIC_8705622.JPG,false,1,keypress(m),500,303005.10000002384,303004.60000002384,299122.952,299130.40000003576,299139.405,303022.978,8,400,19,,ISIC_0001505.JPG
break,html.Screen,4_18_1,2023-10-31T16:58:29.044Z,,0,,,NaN,,,,,,false,,,,303006.60000002384,303006.10000002384,,303005.5,,303022.978,8,400,,,
break_continue,html.Screen,4_18_2,2023-10-31T16:58:29.045Z,,0,,,NaN,,,,,,false,,,,303007.3000000119,303007.10000002384,,303006.8000000119,,303022.978,8,400,,,
sequence,flow.Sequence,4_18,2023-10-31T16:58:29.045Z,,0,,,3867.695000023814,completion,,,,,false,,,,303007.6999999881,303007.10000002384,299122.952,299130.3000000119,299139.405,303022.978,8,400,,,
trial,html.Screen,4_19_0,2023-10-31T16:58:31.833Z,,0,1,,2771.92200003576,response,ISIC_0010011.JPG,6,ISIC_0012063.JPG,ISIC_0010011.JPG,false,1,keypress(m),500,305795.40000003576,305794.90000003576,303006.337,303008.10000002384,303022.978,305806.086,8,400,20,,ISIC_0012063.JPG
break,html.Screen,4_19_1,2023-10-31T16:58:31.834Z,,0,,,NaN,,,,,,false,,,,305796.8000000119,305796.40000003576,,305795.8000000119,,305806.086,8,400,,,
break_continue,html.Screen,4_19_2,2023-10-31T16:58:31.835Z,,0,,,NaN,,,,,,false,,,,305797.90000003576,305797.5,,305797.1999999881,,305806.086,8,400,,,
sequence,flow.Sequence,4_19,2023-10-31T16:58:31.836Z,,0,,,2774.521999999997,completion,,,,,false,,,,305798.3000000119,305797.5,303006.337,303007.90000003576,303022.978,305806.086,8,400,,,
trial,html.Screen,4_20_0,2023-10-31T16:58:37.631Z,,0,1,,5787.113999988069,response,ISIC_0009666.JPG,5,ISIC_0056979.JPG,ISIC_0009666.JPG,false,1,keypress(m),500,311593.60000002384,311593.1999999881,305789.392,305798.8000000119,305806.086,311606.199,8,400,21,,ISIC_0056979.JPG
break,html.Screen,4_20_1,2023-10-31T16:58:37.632Z,,0,,,NaN,,,,,,false,,,,311594.6999999881,311594.5,,311593.90000003576,,311606.199,8,400,,,
break_continue,html.Screen,4_20_2,2023-10-31T16:58:37.633Z,,0,,,NaN,,,,,,false,,,,311595.40000003576,311595.10000002384,,311594.90000003576,,311606.199,8,400,,,
sequence,flow.Sequence,4_20,2023-10-31T16:58:37.633Z,,0,,,5789.014000023832,completion,,,,,false,,,,311595.6999999881,311595.10000002384,305789.392,305798.60000002384,305806.086,311606.199,8,400,,,
trial,html.Screen,4_21_0,2023-10-31T16:58:42.564Z,,0,1,,4920.500999988057,response,ISIC_4701063.JPG,5,ISIC_9214649.JPG,ISIC_9214649.JPG,false,0,keypress(z),500,316527.10000002384,316526.6999999881,311589.532,311596,311606.199,316539.481,8,400,22,,ISIC_4701063.JPG
break,html.Screen,4_21_1,2023-10-31T16:58:42.566Z,,0,,,NaN,,,,,,false,,,,316528.3000000119,316528,,316527.40000003576,,316539.481,8,400,,,
break_continue,html.Screen,4_21_2,2023-10-31T16:58:42.566Z,,0,,,NaN,,,,,,false,,,,316528.90000003576,316528.6999999881,,316528.5,,316539.481,8,400,,,
sequence,flow.Sequence,4_21,2023-10-31T16:58:42.567Z,,0,,,4922.500999988057,completion,,,,,false,,,,316529.40000003576,316528.6999999881,311589.532,311595.90000003576,311606.199,316539.481,8,400,,,
trial,html.Screen,4_22_0,2023-10-31T16:58:45.610Z,,0,1,,3032.319000011892,response,ISIC_5468164.JPG,5,ISIC_0060525.JPG,ISIC_5468164.JPG,false,1,keypress(m),500,319572.1999999881,319571.8000000119,316522.672,316529.6999999881,316539.481,319589.593,8,400,23,,ISIC_0060525.JPG
break,html.Screen,4_22_1,2023-10-31T16:58:45.611Z,,0,,,NaN,,,,,,false,,,,319573.6999999881,319573.3000000119,,319572.6999999881,,319589.593,8,400,,,
break_continue,html.Screen,4_22_2,2023-10-31T16:58:45.612Z,,0,,,NaN,,,,,,false,,,,319574.5,319574.1999999881,,319573.90000003576,,319589.593,8,400,,,
sequence,flow.Sequence,4_22,2023-10-31T16:58:45.612Z,,0,,,3034.71899998805,completion,,,,,false,,,,319574.6999999881,319574.1999999881,316522.672,316529.6999999881,316539.481,319589.593,8,400,,,
trial,html.Screen,4_23_0,2023-10-31T16:58:49.919Z,,0,1,,4292.106999988086,response,ISIC_0033998.JPG,6,ISIC_7997132.JPG,ISIC_7997132.JPG,false,0,keypress(z),500,323881.8000000119,323881.6999999881,319572.863,319575.10000002384,319589.593,323889.274,8,400,24,,ISIC_0033998.JPG
break,html.Screen,4_23_1,2023-10-31T16:58:49.920Z,,0,,,NaN,,,,,,false,,,,323882.1999999881,323882.10000002384,,323881.90000003576,,323889.274,8,400,,,
break_continue,html.Screen,4_23_2,2023-10-31T16:58:49.920Z,,0,,,NaN,,,,,,false,,,,323882.40000003576,323882.3000000119,,323882.3000000119,,323889.274,8,400,,,
sequence,flow.Sequence,4_23,2023-10-31T16:58:49.920Z,,0,,,4292.707000011927,completion,,,,,false,,,,323882.5,323882.3000000119,319572.863,319574.90000003576,319589.593,323889.274,8,400,,,
trial,html.Screen,4_24_0,2023-10-31T16:58:54.225Z,,0,1,,4298.626000035787,response,ISIC_0070051.JPG,6,ISIC_4074537.JPG,ISIC_4074537.JPG,false,0,keypress(z),500,328188.10000002384,328187.90000003576,323872.73,323882.60000002384,323889.274,328207.309,8,400,25,,ISIC_0070051.JPG
break,html.Screen,4_24_1,2023-10-31T16:58:54.226Z,,0,,,NaN,,,,,,false,,,,328188.8000000119,328188.5,,328188.3000000119,,328207.309,8,400,,,
break_continue,html.Screen,4_24_2,2023-10-31T16:58:54.226Z,,0,,,NaN,,,,,,false,,,,328189.10000002384,328189,,328188.90000003576,,328207.309,8,400,,,
sequence,flow.Sequence,4_24,2023-10-31T16:58:54.227Z,,0,,,4299.726000000024,completion,,,,,false,,,,328189.3000000119,328189,323872.73,323882.60000002384,323889.274,328207.309,8,400,,,
trial,html.Screen,4_25_0,2023-10-31T16:58:58.821Z,,0,1,,4575.991000011913,response,ISIC_0025499.JPG,5,ISIC_0057495.JPG,ISIC_0057495.JPG,false,0,keypress(z),500,332783.8000000119,332783.3000000119,328172.902,328189.3000000119,328207.309,332789.287,8,400,26,,ISIC_0025499.JPG
break,html.Screen,4_25_1,2023-10-31T16:58:58.822Z,,0,,,NaN,,,,,,false,,,,332785.10000002384,332784.8000000119,,332784.10000002384,,332789.287,8,400,,,
break_continue,html.Screen,4_25_2,2023-10-31T16:58:58.823Z,,0,,,NaN,,,,,,false,,,,332785.90000003576,332785.60000002384,,332785.40000003576,,332789.287,8,400,,,
sequence,flow.Sequence,4_25,2023-10-31T16:58:58.824Z,,0,,,4578.2910000238335,completion,,,,,false,,,,332786.1999999881,332785.60000002384,328172.902,328189.3000000119,328207.309,332789.287,8,400,,,
trial,html.Screen,4_26_0,2023-10-31T16:59:02.332Z,,0,1,,3504.6130000357516,response,ISIC_6478506.JPG,6,ISIC_7235371.JPG,ISIC_6478506.JPG,false,1,keypress(m),500,336294.40000003576,336293.90000003576,332772.772,332786.5,332789.287,336305.994,8,400,27,,ISIC_7235371.JPG
break,html.Screen,4_26_1,2023-10-31T16:59:02.333Z,,0,,,NaN,,,,,,false,,,,336295.60000002384,336295.3000000119,,336294.6999999881,,336305.994,8,400,,,
break_continue,html.Screen,4_26_2,2023-10-31T16:59:02.334Z,,0,,,NaN,,,,,,false,,,,336296.3000000119,336296.10000002384,,336295.90000003576,,336305.994,8,400,,,
sequence,flow.Sequence,4_26,2023-10-31T16:59:02.334Z,,0,,,3506.8130000238307,completion,,,,,false,,,,336296.6999999881,336296.10000002384,332772.772,332786.40000003576,332789.287,336305.994,8,400,,,
trial,html.Screen,4_27_0,2023-10-31T16:59:06.913Z,,0,1,,4569.606000023836,response,ISIC_0013972.JPG,5,ISIC_5325805.JPG,ISIC_0013972.JPG,false,1,keypress(m),500,340875.90000003576,340875.60000002384,336289.555,336297,336305.994,340889.341,8,400,28,,ISIC_5325805.JPG
break,html.Screen,4_27_1,2023-10-31T16:59:06.915Z,,0,,,NaN,,,,,,false,,,,340877.40000003576,340877,,340876.40000003576,,340889.341,8,400,,,
break_continue,html.Screen,4_27_2,2023-10-31T16:59:06.915Z,,0,,,NaN,,,,,,false,,,,340878.10000002384,340877.8000000119,,340877.60000002384,,340889.341,8,400,,,
sequence,flow.Sequence,4_27,2023-10-31T16:59:06.916Z,,0,,,4571.806000011915,completion,,,,,false,,,,340878.40000003576,340877.8000000119,336289.555,336296.90000003576,336305.994,340889.341,8,400,,,
trial,html.Screen,4_28_0,2023-10-31T16:59:11.544Z,,0,1,,4616.358999988064,response,ISIC_4568084.JPG,4,ISIC_0030653.JPG,ISIC_4568084.JPG,false,1,keypress(m),500,345506.1999999881,345505.6999999881,340872.724,340878.8000000119,340889.341,345522.885,8,400,29,,ISIC_0030653.JPG
break,html.Screen,4_28_1,2023-10-31T16:59:11.545Z,,0,,,NaN,,,,,,false,,,,345507.60000002384,345507.3000000119,,345506.60000002384,,345522.885,8,400,,,
break_continue,html.Screen,4_28_2,2023-10-31T16:59:11.546Z,,0,,,NaN,,,,,,false,,,,345508.40000003576,345508.10000002384,,345507.90000003576,,345522.885,8,400,,,
sequence,flow.Sequence,4_28,2023-10-31T16:59:11.546Z,,0,,,4618.759000023827,completion,,,,,false,,,,345508.6999999881,345508.10000002384,340872.724,340878.60000002384,340889.341,345522.885,8,400,,,
trial,html.Screen,4_29_0,2023-10-31T16:59:16.174Z,,0,1,,4613.114999999991,response,ISIC_3689759.JPG,4,ISIC_0011747.JPG,ISIC_3689759.JPG,false,1,keypress(m),500,350136.40000003576,350136,345506.253,345509.10000002384,345522.885,350139.354,8,400,30,,ISIC_0011747.JPG
break,html.Screen,4_29_1,2023-10-31T16:59:16.175Z,,0,,,NaN,,,,,,false,,,,350137.90000003576,350137.5,,350136.90000003576,,350139.354,8,400,,,
break_continue,html.Screen,4_29_2,2023-10-31T16:59:16.176Z,,0,,,NaN,,,,,,false,,,,350138.8000000119,350138.5,,350138.1999999881,,350139.354,8,400,,,
sequence,flow.Sequence,4_29,2023-10-31T16:59:16.177Z,,0,,,4615.614999999991,completion,,,,,false,,,,350139.1999999881,350138.5,345506.253,345509,345522.885,350139.354,8,400,,,
trial,html.Screen,4_30_0,2023-10-31T16:59:20.580Z,,0,1,,4403.146000000008,response,ISIC_0070784.JPG,6,ISIC_7626256.JPG,ISIC_7626256.JPG,false,0,keypress(z),500,354542.90000003576,354542.5,350122.735,350139.40000003576,350139.354,354555.979,8,400,31,,ISIC_0070784.JPG
break,html.Screen,4_30_1,2023-10-31T16:59:20.582Z,,0,,,NaN,,,,,,false,,,,354544.3000000119,354544,,354543.40000003576,,354555.979,8,400,,,
break_continue,html.Screen,4_30_2,2023-10-31T16:59:20.583Z,,0,,,NaN,,,,,,false,,,,354545.1999999881,354544.90000003576,,354544.60000002384,,354555.979,8,400,,,
sequence,flow.Sequence,4_30,2023-10-31T16:59:20.583Z,,0,,,4405.546000035771,completion,,,,,false,,,,354545.5,354544.90000003576,350122.735,350139.3000000119,350139.354,354555.979,8,400,,,
trial,html.Screen,4_31_0,2023-10-31T16:59:25.098Z,,0,1,,4503.821000011929,response,ISIC_0067159.JPG,6,ISIC_0012245.JPG,ISIC_0067159.JPG,false,1,keypress(m),500,359060.1999999881,359059.8000000119,354539.376,354545.8000000119,354555.979,359072.681,8,400,32,,ISIC_0012245.JPG
break,html.Screen,4_31_1,2023-10-31T16:59:25.099Z,,0,,,NaN,,,,,,false,,,,359061.5,359061.1999999881,,359060.60000002384,,359072.681,8,400,,,
break_continue,html.Screen,4_31_2,2023-10-31T16:59:25.100Z,,0,,,NaN,,,,,,false,,,,359062.40000003576,359062.1999999881,,359061.90000003576,,359072.681,8,400,,,
sequence,flow.Sequence,4_31,2023-10-31T16:59:25.100Z,,0,,,4506.220999988087,completion,,,,,false,,,,359062.8000000119,359062.1999999881,354539.376,354545.8000000119,354555.979,359072.681,8,400,,,
trial,html.Screen,4_32_0,2023-10-31T16:59:29.649Z,,0,1,,4538.41900002386,response,ISIC_1440377.JPG,5,ISIC_0010014.JPG,ISIC_1440377.JPG,false,1,keypress(m),500,363611.60000002384,363611.10000002384,359056.207,359063.10000002384,359072.681,363622.571,8,400,33,,ISIC_0010014.JPG
break,html.Screen,4_32_1,2023-10-31T16:59:29.651Z,,0,,,NaN,,,,,,false,,,,363612.90000003576,363612.60000002384,,363612,,363622.571,8,400,,,
break_continue,html.Screen,4_32_2,2023-10-31T16:59:29.651Z,,0,,,NaN,,,,,,false,,,,363613.8000000119,363613.60000002384,,363613.3000000119,,363622.571,8,400,,,
sequence,flow.Sequence,4_32,2023-10-31T16:59:29.652Z,,0,,,4540.91900002386,completion,,,,,false,,,,363614.10000002384,363613.60000002384,359056.207,359063,359072.681,363622.571,8,400,,,
trial,html.Screen,4_33_0,2023-10-31T16:59:35.080Z,,0,1,,5418.8290000357665,response,ISIC_0013243.JPG,5,ISIC_5449076.JPG,ISIC_5449076.JPG,false,0,keypress(z),500,369041.8000000119,369041.40000003576,363605.99,363614.40000003576,363622.571,369072.659,8,400,34,,ISIC_0013243.JPG
break,html.Screen,4_33_1,2023-10-31T16:59:35.081Z,,0,,,NaN,,,,,,false,,,,369043.1999999881,369042.8000000119,,369042.1999999881,,369072.659,8,400,,,
break_continue,html.Screen,4_33_2,2023-10-31T16:59:35.082Z,,0,,,NaN,,,,,,false,,,,369043.90000003576,369043.6999999881,,369043.40000003576,,369072.659,8,400,,,
sequence,flow.Sequence,4_33,2023-10-31T16:59:35.082Z,,0,,,5421.128999988083,completion,,,,,false,,,,369044.1999999881,369043.6999999881,363605.99,363614.3000000119,363622.571,369072.659,8,400,,,
trial,html.Screen,4_34_0,2023-10-31T16:59:38.941Z,,0,1,,3830.540999988094,response,ISIC_2621288.JPG,4,ISIC_5688950.JPG,ISIC_2621288.JPG,false,1,keypress(m),500,372903.60000002384,372903.1999999881,369056.15,369044.5,369072.659,372923.937,8,400,35,,ISIC_5688950.JPG
break,html.Screen,4_34_1,2023-10-31T16:59:38.943Z,,0,,,NaN,,,,,,false,,,,372905,372904.60000002384,,372904.10000002384,,372923.937,8,400,,,
break_continue,html.Screen,4_34_2,2023-10-31T16:59:38.944Z,,0,,,NaN,,,,,,false,,,,372905.8000000119,372905.5,,372905.3000000119,,372923.937,8,400,,,
sequence,flow.Sequence,4_34,2023-10-31T16:59:38.944Z,,0,,,3832.841000000015,completion,,,,,false,,,,372906.1999999881,372905.5,369056.15,369044.40000003576,369072.659,372923.937,8,400,,,
trial,html.Screen,4_35_0,2023-10-31T16:59:42.322Z,,0,1,,3360.3630000119447,response,ISIC_0758797.JPG,6,ISIC_6255494.JPG,ISIC_6255494.JPG,false,0,keypress(z),500,376284.6999999881,376284.3000000119,372889.407,372906.40000003576,372923.937,376289.31,8,400,36,,ISIC_0758797.JPG
break,html.Screen,4_35_1,2023-10-31T16:59:42.324Z,,0,,,NaN,,,,,,false,,,,376286,376285.60000002384,,376285.1999999881,,376289.31,8,400,,,
break_continue,html.Screen,4_35_2,2023-10-31T16:59:42.324Z,,0,,,NaN,,,,,,false,,,,376286.6999999881,376286.5,,376286.3000000119,,376289.31,8,400,,,
sequence,flow.Sequence,4_35,2023-10-31T16:59:42.325Z,,0,,,3362.5630000000237,completion,,,,,false,,,,376287.10000002384,376286.5,372889.407,372906.40000003576,372923.937,376289.31,8,400,,,
trial,html.Screen,4_36_0,2023-10-31T16:59:45.031Z,,0,1,,2703.9900000119233,response,ISIC_1484659.JPG,6,ISIC_0024507.JPG,ISIC_1484659.JPG,false,1,keypress(m),500,378993.8000000119,378993.3000000119,376272.723,376287.40000003576,376289.31,379022.744,8,400,37,,ISIC_0024507.JPG
break,html.Screen,4_36_1,2023-10-31T16:59:45.033Z,,0,,,NaN,,,,,,false,,,,378995.1999999881,378994.8000000119,,378994.1999999881,,379022.744,8,400,,,
break_continue,html.Screen,4_36_2,2023-10-31T16:59:45.034Z,,0,,,NaN,,,,,,false,,,,378995.90000003576,378995.6999999881,,378995.40000003576,,379022.744,8,400,,,
sequence,flow.Sequence,4_36,2023-10-31T16:59:45.034Z,,0,,,2706.3899999880814,completion,,,,,false,,,,378996.3000000119,378995.6999999881,376272.723,376287.3000000119,376289.31,379022.744,8,400,,,
trial,html.Screen,4_37_0,2023-10-31T16:59:49.788Z,,0,1,,4727.356000023836,response,ISIC_9354965.JPG,5,ISIC_0065796.JPG,ISIC_0065796.JPG,false,0,keypress(z),500,383750.60000002384,383750.10000002384,379005.987,378996.6999999881,379022.744,383755.951,8,400,38,,ISIC_9354965.JPG
break,html.Screen,4_37_1,2023-10-31T16:59:49.790Z,,0,,,NaN,,,,,,false,,,,383752,383751.60000002384,,383751,,383755.951,8,400,,,
break_continue,html.Screen,4_37_2,2023-10-31T16:59:49.790Z,,0,,,NaN,,,,,,false,,,,383752.6999999881,383752.5,,383752.3000000119,,383755.951,8,400,,,
sequence,flow.Sequence,4_37,2023-10-31T16:59:49.791Z,,0,,,4729.755999999994,completion,,,,,false,,,,383753.10000002384,383752.5,379005.987,378996.5,379022.744,383755.951,8,400,,,
trial,html.Screen,4_38_0,2023-10-31T16:59:54.722Z,,0,1,,4927.649000023841,response,ISIC_2161819.JPG,5,ISIC_7590292.JPG,ISIC_2161819.JPG,false,1,keypress(m),500,388684,388683.60000002384,383739.521,383753.3000000119,383755.951,388689.156,8,400,39,,ISIC_7590292.JPG
break,html.Screen,4_38_1,2023-10-31T16:59:54.723Z,,0,,,NaN,,,,,,false,,,,388685.6999999881,388685.10000002384,,388684.40000003576,,388689.156,8,400,,,
break_continue,html.Screen,4_38_2,2023-10-31T16:59:54.724Z,,0,,,NaN,,,,,,false,,,,388686.8000000119,388686.5,,388686.1999999881,,388689.156,8,400,,,
sequence,flow.Sequence,4_38,2023-10-31T16:59:54.725Z,,0,,,4930.548999999999,completion,,,,,false,,,,388687.10000002384,388686.5,383739.521,383753.3000000119,383755.951,388689.156,8,400,,,
trial,html.Screen,4_39_0,2023-10-31T16:59:58.919Z,,0,1,,4192.043999988062,response,ISIC_9239632.JPG,4,ISIC_0000167.JPG,ISIC_9239632.JPG,false,1,keypress(m),500,392881.6999999881,392881.1999999881,388672.642,388687.40000003576,388689.156,392889.154,8,400,40,,ISIC_0000167.JPG
break,html.Screen,4_39_1,2023-10-31T16:59:58.921Z,,0,,,NaN,,,,,,false,,,,392883.10000002384,392882.8000000119,,392882.10000002384,,392889.154,8,400,,,
break_continue,html.Screen,4_39_2,2023-10-31T16:59:58.922Z,,0,,,NaN,,,,,,false,,,,392884.3000000119,392884,,392883.60000002384,,392889.154,8,400,,,
sequence,flow.Sequence,4_39,2023-10-31T16:59:58.922Z,,0,,,4194.843999999983,completion,,,,,false,,,,392884.6999999881,392884,388672.642,388687.3000000119,388689.156,392889.154,8,400,,,
trial,html.Screen,4_40_0,2023-10-31T17:00:04.029Z,,0,1,,5101.246000035782,response,ISIC_0013411.JPG,6,ISIC_6678508.JPG,ISIC_6678508.JPG,false,0,keypress(z),500,397991,397990.40000003576,392872.855,392885,392889.154,398005.84,8,400,41,,ISIC_0013411.JPG
break,html.Screen,4_40_1,2023-10-31T17:00:04.030Z,,0,,,NaN,,,,,,false,,,,397992.3000000119,397992,,397991.3000000119,,398005.84,8,400,,,
break_continue,html.Screen,4_40_2,2023-10-31T17:00:04.031Z,,0,,,NaN,,,,,,false,,,,397993.10000002384,397992.90000003576,,397992.6999999881,,398005.84,8,400,,,
sequence,flow.Sequence,4_40,2023-10-31T17:00:04.031Z,,0,,,5103.746000035782,completion,,,,,false,,,,397993.5,397992.90000003576,392872.855,392884.90000003576,392889.154,398005.84,8,400,,,
trial,html.Screen,4_41_0,2023-10-31T17:00:09.748Z,,0,1,,5704.3599999880535,response,ISIC_0028488.JPG,5,ISIC_0002953.JPG,ISIC_0002953.JPG,false,0,keypress(z),500,403710.5,403710.1999999881,397989.162,397993.8000000119,398005.84,403722.465,8,400,42,,ISIC_0028488.JPG
break,html.Screen,4_41_1,2023-10-31T17:00:09.749Z,,0,,,NaN,,,,,,false,,,,403711.6999999881,403711.40000003576,,403710.90000003576,,403722.465,8,400,,,
break_continue,html.Screen,4_41_2,2023-10-31T17:00:09.750Z,,0,,,NaN,,,,,,false,,,,403712.40000003576,403712.1999999881,,403712,,403722.465,8,400,,,
sequence,flow.Sequence,4_41,2023-10-31T17:00:09.750Z,,0,,,5706.3599999880535,completion,,,,,false,,,,403712.6999999881,403712.1999999881,397989.162,397993.6999999881,398005.84,403722.465,8,400,,,
trial,html.Screen,4_42_0,2023-10-31T17:00:12.441Z,,0,1,,2680.3350000118953,response,ISIC_0025817.JPG,5,ISIC_6358752.JPG,ISIC_0025817.JPG,false,1,keypress(m),500,406403,406402.8000000119,403706.158,403712.90000003576,403722.465,406405.81,8,400,43,,ISIC_6358752.JPG
break,html.Screen,4_42_1,2023-10-31T17:00:12.441Z,,0,,,NaN,,,,,,false,,,,406403.8000000119,406403.5,,406403.1999999881,,406405.81,8,400,,,
break_continue,html.Screen,4_42_2,2023-10-31T17:00:12.442Z,,0,,,NaN,,,,,,false,,,,406404.3000000119,406404.10000002384,,406404,,406405.81,8,400,,,
sequence,flow.Sequence,4_42,2023-10-31T17:00:12.442Z,,0,,,2681.6350000238162,completion,,,,,false,,,,406404.40000003576,406404.10000002384,403706.158,403712.90000003576,403722.465,406405.81,8,400,,,
trial,html.Screen,4_43_0,2023-10-31T17:00:17.452Z,,0,1,,5008.090000035765,response,ISIC_0033117.JPG,5,ISIC_0011126.JPG,ISIC_0033117.JPG,false,1,keypress(m),500,411414.3000000119,411413.90000003576,406389.482,406404.60000002384,406405.81,411422.584,8,400,44,,ISIC_0011126.JPG
break,html.Screen,4_43_1,2023-10-31T17:00:17.454Z,,0,,,NaN,,,,,,false,,,,411415.8000000119,411415.40000003576,,411414.8000000119,,411422.584,8,400,,,
break_continue,html.Screen,4_43_2,2023-10-31T17:00:17.454Z,,0,,,NaN,,,,,,false,,,,411416.60000002384,411416.3000000119,,411416.10000002384,,411422.584,8,400,,,
sequence,flow.Sequence,4_43,2023-10-31T17:00:17.455Z,,0,,,5010.490000011923,completion,,,,,false,,,,411416.90000003576,411416.3000000119,406389.482,406404.60000002384,406405.81,411422.584,8,400,,,
trial,html.Screen,4_44_0,2023-10-31T17:00:21.426Z,,0,1,,3964.8160000357893,response,ISIC_0060508.JPG,6,ISIC_0033946.JPG,ISIC_0060508.JPG,false,1,keypress(m),500,415387.8000000119,415387.40000003576,411406.076,411417.3000000119,411422.584,415422.768,8,400,45,,ISIC_0033946.JPG
break,html.Screen,4_44_1,2023-10-31T17:00:21.427Z,,0,,,NaN,,,,,,false,,,,415389.3000000119,415388.90000003576,,415388.1999999881,,415422.768,8,400,,,
break_continue,html.Screen,4_44_2,2023-10-31T17:00:21.428Z,,0,,,NaN,,,,,,false,,,,415390.1999999881,415389.90000003576,,415389.6999999881,,415422.768,8,400,,,
sequence,flow.Sequence,4_44,2023-10-31T17:00:21.428Z,,0,,,3967.3160000357893,completion,,,,,false,,,,415390.5,415389.90000003576,411406.076,411417.10000002384,411422.584,415422.768,8,400,,,
trial,html.Screen,4_45_0,2023-10-31T17:00:25.352Z,,0,1,,3891.032000011939,response,ISIC_2421696.JPG,5,ISIC_0003068.JPG,ISIC_0003068.JPG,false,0,keypress(z),500,419314.1999999881,419313.8000000119,415405.922,415390.90000003576,415422.768,419322.568,8,400,46,,ISIC_2421696.JPG
break,html.Screen,4_45_1,2023-10-31T17:00:25.353Z,,0,,,NaN,,,,,,false,,,,419315.6999999881,419315.40000003576,,419314.6999999881,,419322.568,8,400,,,
break_continue,html.Screen,4_45_2,2023-10-31T17:00:25.354Z,,0,,,NaN,,,,,,false,,,,419316.60000002384,419316.1999999881,,419316,,419322.568,8,400,,,
sequence,flow.Sequence,4_45,2023-10-31T17:00:25.355Z,,0,,,3893.4319999880972,completion,,,,,false,,,,419317,419316.1999999881,415405.922,415390.8000000119,415422.768,419322.568,8,400,,,
trial,html.Screen,4_46_0,2023-10-31T17:00:31.488Z,,0,1,,6126.631999988051,response,ISIC_0028081.JPG,5,ISIC_3304982.JPG,ISIC_0028081.JPG,false,1,keypress(m),500,425449.60000002384,425449.1999999881,419306.078,419317.1999999881,419322.568,425472.464,8,400,47,,ISIC_3304982.JPG
break,html.Screen,4_46_1,2023-10-31T17:00:31.489Z,,0,,,NaN,,,,,,false,,,,425450.90000003576,425450.60000002384,,425450,,425472.464,8,400,,,
break_continue,html.Screen,4_46_2,2023-10-31T17:00:31.490Z,,0,,,NaN,,,,,,false,,,,425451.60000002384,425451.40000003576,,425451.10000002384,,425472.464,8,400,,,
sequence,flow.Sequence,4_46,2023-10-31T17:00:31.490Z,,0,,,6128.832000035734,completion,,,,,false,,,,425452,425451.40000003576,419306.078,419317.10000002384,419322.568,425472.464,8,400,,,
trial,html.Screen,4_47_0,2023-10-31T17:00:36.005Z,,0,1,,4494.436000035785,response,ISIC_0010468.JPG,5,ISIC_2021321.JPG,ISIC_0010468.JPG,false,1,keypress(m),500,429967.3000000119,429966.90000003576,425455.85,425452.1999999881,425472.464,429972.426,8,400,48,,ISIC_2021321.JPG
break,html.Screen,4_47_1,2023-10-31T17:00:36.007Z,,0,,,NaN,,,,,,false,,,,429968.40000003576,429968.10000002384,,429967.60000002384,,429972.426,8,400,,,
break_continue,html.Screen,4_47_2,2023-10-31T17:00:36.007Z,,0,,,NaN,,,,,,false,,,,429969.10000002384,429968.90000003576,,429968.6999999881,,429972.426,8,400,,,
sequence,flow.Sequence,4_47,2023-10-31T17:00:36.008Z,,0,,,4496.436000035785,completion,,,,,false,,,,429969.40000003576,429968.90000003576,425455.85,425452.10000002384,425472.464,429972.426,8,400,,,
trial,html.Screen,4_48_0,2023-10-31T17:00:40.539Z,,0,1,,4528.374000011943,response,ISIC_0013839.JPG,5,ISIC_0030554.JPG,ISIC_0013839.JPG,false,1,keypress(m),500,434501.10000002384,434500.8000000119,429956,429969.6999999881,429972.426,434505.736,8,400,49,,ISIC_0030554.JPG
break,html.Screen,4_48_1,2023-10-31T17:00:40.540Z,,0,,,NaN,,,,,,false,,,,434501.8000000119,434501.60000002384,,434501.3000000119,,434505.736,8,400,,,
break_continue,html.Screen,4_48_2,2023-10-31T17:00:40.540Z,,0,,,NaN,,,,,,false,,,,434502.10000002384,434502.10000002384,,434501.90000003576,,434505.736,8,400,,,
sequence,flow.Sequence,4_48,2023-10-31T17:00:40.541Z,,0,,,4529.674000023864,completion,,,,,false,,,,434502.3000000119,434502.10000002384,429956,429969.5,429972.426,434505.736,8,400,,,
trial,html.Screen,4_49_0,2023-10-31T17:00:44.943Z,,0,1,,4398.764000000025,response,ISIC_6717322.JPG,6,ISIC_1870415.JPG,ISIC_6717322.JPG,false,1,keypress(m),500,438904.6999999881,438904.5,434489.099,434502.5,434505.736,438939.213,8,400,50,,ISIC_1870415.JPG
break,html.Screen,4_49_1,2023-10-31T17:00:54.962Z,,0,,,9999.82699999999,timeout,,,,,false,,,,448924,448922.454,438922.552,438905.10000002384,438939.213,448939.04,8,400,,,
break_continue,html.Screen,4_49_2,2023-10-31T17:00:57.177Z,,0,,,2182.1599999881,response,,,,,false,continue,keypress(Space),,451138.90000003576,451121.1999999881,448922.454,448924.3000000119,448939.04,451155.86,8,400,,,
sequence,flow.Sequence,4_49,2023-10-31T17:00:57.177Z,,0,,,16615.463999988104,completion,,,,,false,,,,451139,451121.1999999881,434489.099,434502.40000003576,434505.736,451155.86,8,400,,,
trial,html.Screen,4_50_0,2023-10-31T17:01:01.403Z,,0,2,,4208.440000011935,response,ISIC_0170101.JPG,4,ISIC_0054777.JPG,ISIC_0170101.JPG,false,1,keypress(m),500,455364.6999999881,455364.3000000119,451138.948,451139,451155.86,455372.386,8,400,1,,ISIC_0054777.JPG
break,html.Screen,4_50_1,2023-10-31T17:01:01.404Z,,0,,,NaN,,,,,,false,,,,455366,455365.6999999881,,455365.10000002384,,455372.386,8,400,,,
break_continue,html.Screen,4_50_2,2023-10-31T17:01:01.405Z,,0,,,NaN,,,,,,false,,,,455366.90000003576,455366.60000002384,,455366.40000003576,,455372.386,8,400,,,
sequence,flow.Sequence,4_50,2023-10-31T17:01:01.406Z,,0,,,4210.740000023856,completion,,,,,false,,,,455367.3000000119,455366.60000002384,451138.948,451139,451155.86,455372.386,8,400,,,
trial,html.Screen,4_51_0,2023-10-31T17:01:05.248Z,,0,2,,3837.2140000238433,response,ISIC_0013492.JPG,5,ISIC_9522489.JPG,ISIC_0013492.JPG,false,1,keypress(m),500,459210,459209.60000002384,455355.816,455367.6999999881,455372.386,459222.453,8,400,2,,ISIC_9522489.JPG
break,html.Screen,4_51_1,2023-10-31T17:01:05.249Z,,0,,,NaN,,,,,,false,,,,459211.1999999881,459210.90000003576,,459210.3000000119,,459222.453,8,400,,,
break_continue,html.Screen,4_51_2,2023-10-31T17:01:05.250Z,,0,,,NaN,,,,,,false,,,,459211.8000000119,459211.60000002384,,459211.40000003576,,459222.453,8,400,,,
sequence,flow.Sequence,4_51,2023-10-31T17:01:05.250Z,,0,,,3839.2140000238433,completion,,,,,false,,,,459212.10000002384,459211.60000002384,455355.816,455367.5,455372.386,459222.453,8,400,,,
trial,html.Screen,4_52_0,2023-10-31T17:01:11.734Z,,0,2,,6472.447000035783,response,ISIC_1166522.JPG,4,ISIC_8035608.JPG,ISIC_1166522.JPG,false,1,keypress(m),500,465695.40000003576,465694.90000003576,459205.81,459212.40000003576,459222.453,465705.743,8,400,3,,ISIC_8035608.JPG
break,html.Screen,4_52_1,2023-10-31T17:01:11.735Z,,0,,,NaN,,,,,,false,,,,465696.8000000119,465696.5,,465695.90000003576,,465705.743,8,400,,,
break_continue,html.Screen,4_52_2,2023-10-31T17:01:11.736Z,,0,,,NaN,,,,,,false,,,,465697.6999999881,465697.3000000119,,465697.1999999881,,465705.743,8,400,,,
sequence,flow.Sequence,4_52,2023-10-31T17:01:11.736Z,,0,,,6474.847000011941,completion,,,,,false,,,,465698,465697.3000000119,459205.81,459212.3000000119,459222.453,465705.743,8,400,,,
trial,html.Screen,4_53_0,2023-10-31T17:01:14.588Z,,0,2,,2843.857000023825,response,ISIC_0028338.JPG,5,ISIC_4087267.JPG,ISIC_0028338.JPG,false,1,keypress(m),500,468550,468549.60000002384,465689.095,465698.40000003576,465705.743,468555.729,8,400,4,,ISIC_4087267.JPG
break,html.Screen,4_53_1,2023-10-31T17:01:14.590Z,,0,,,NaN,,,,,,false,,,,468551.40000003576,468551.10000002384,,468550.40000003576,,468555.729,8,400,,,
break_continue,html.Screen,4_53_2,2023-10-31T17:01:14.590Z,,0,,,NaN,,,,,,false,,,,468552.3000000119,468551.90000003576,,468551.6999999881,,468555.729,8,400,,,
sequence,flow.Sequence,4_53,2023-10-31T17:01:14.591Z,,0,,,2846.157000035746,completion,,,,,false,,,,468552.60000002384,468551.90000003576,465689.095,465698.3000000119,465705.743,468555.729,8,400,,,
trial,html.Screen,4_54_0,2023-10-31T17:01:17.843Z,,0,2,,3248.771000000008,response,ISIC_0054914.JPG,6,ISIC_0025155.JPG,ISIC_0025155.JPG,false,0,keypress(z),500,471804.60000002384,471804.5,468539.344,468552.90000003576,468555.729,471822.943,8,400,5,,ISIC_0054914.JPG
break,html.Screen,4_54_1,2023-10-31T17:01:17.843Z,,0,,,NaN,,,,,,false,,,,471805,471804.8000000119,,471804.6999999881,,471822.943,8,400,,,
break_continue,html.Screen,4_54_2,2023-10-31T17:01:17.843Z,,0,,,NaN,,,,,,false,,,,471805.1999999881,471805.10000002384,,471805,,471822.943,8,400,,,
sequence,flow.Sequence,4_54,2023-10-31T17:01:17.843Z,,0,,,3249.37100002385,completion,,,,,false,,,,471805.1999999881,471805.10000002384,468539.344,468552.8000000119,468555.729,471822.943,8,400,,,
trial,html.Screen,4_55_0,2023-10-31T17:01:23.157Z,,0,2,,5295.8570000118925,response,ISIC_0014127.JPG,6,ISIC_8015541.JPG,ISIC_8015541.JPG,false,0,keypress(z),500,477119.3000000119,477118.8000000119,471788.969,471805.3000000119,471822.943,477122.386,8,400,6,,ISIC_0014127.JPG
break,html.Screen,4_55_1,2023-10-31T17:01:23.159Z,,0,,,NaN,,,,,,false,,,,477120.60000002384,477120.3000000119,,477119.6999999881,,477122.386,8,400,,,
break_continue,html.Screen,4_55_2,2023-10-31T17:01:23.160Z,,0,,,NaN,,,,,,false,,,,477121.3000000119,477121.1999999881,,477120.90000003576,,477122.386,8,400,,,
sequence,flow.Sequence,4_55,2023-10-31T17:01:23.160Z,,0,,,5298.256999988051,completion,,,,,false,,,,477121.8000000119,477121.1999999881,471788.969,471805.1999999881,471822.943,477122.386,8,400,,,
trial,html.Screen,4_56_0,2023-10-31T17:01:27.418Z,,0,2,,4257.414000011922,response,ISIC_4718313.JPG,5,ISIC_0056413.JPG,ISIC_4718313.JPG,false,1,keypress(m),500,481380,481379.8000000119,477105.897,477122,477122.386,481388.949,8,400,7,,ISIC_0056413.JPG
break,html.Screen,4_56_1,2023-10-31T17:01:27.418Z,,0,,,NaN,,,,,,false,,,,481380.1999999881,481380.10000002384,,481380,,481388.949,8,400,,,
break_continue,html.Screen,4_56_2,2023-10-31T17:01:27.419Z,,0,,,NaN,,,,,,false,,,,481380.3000000119,481380.3000000119,,481380.1999999881,,481388.949,8,400,,,
sequence,flow.Sequence,4_56,2023-10-31T17:01:27.419Z,,0,,,4257.914000011922,completion,,,,,false,,,,481380.40000003576,481380.3000000119,477105.897,477121.90000003576,477122.386,481388.949,8,400,,,
trial,html.Screen,4_57_0,2023-10-31T17:01:33.086Z,,0,2,,5657.750999988057,response,ISIC_2479134.JPG,6,ISIC_6093728.JPG,ISIC_2479134.JPG,false,1,keypress(m),500,487047.10000002384,487046.6999999881,481372.264,481380.40000003576,481388.949,487072.334,8,400,8,,ISIC_6093728.JPG
break,html.Screen,4_57_1,2023-10-31T17:01:33.087Z,,0,,,NaN,,,,,,false,,,,487048.40000003576,487048.10000002384,,487047.5,,487072.334,8,400,,,
break_continue,html.Screen,4_57_2,2023-10-31T17:01:33.088Z,,0,,,NaN,,,,,,false,,,,487049.10000002384,487048.8000000119,,487048.60000002384,,487072.334,8,400,,,
sequence,flow.Sequence,4_57,2023-10-31T17:01:33.088Z,,0,,,5659.851000011899,completion,,,,,false,,,,487049.40000003576,487048.8000000119,481372.264,481380.40000003576,481388.949,487072.334,8,400,,,
trial,html.Screen,4_58_0,2023-10-31T17:01:36.611Z,,0,2,,3499.3659999881056,response,ISIC_3750329.JPG,5,ISIC_6926118.JPG,ISIC_3750329.JPG,false,1,keypress(m),500,490572.10000002384,490571.6999999881,487055.878,487049.6999999881,487072.334,490589.249,8,400,9,,ISIC_6926118.JPG
break,html.Screen,4_58_1,2023-10-31T17:01:36.612Z,,0,,,NaN,,,,,,false,,,,490573.5,490573.1999999881,,490572.60000002384,,490589.249,8,400,,,
break_continue,html.Screen,4_58_2,2023-10-31T17:01:36.613Z,,0,,,NaN,,,,,,false,,,,490574.40000003576,490574.10000002384,,490573.90000003576,,490589.249,8,400,,,
sequence,flow.Sequence,4_58,2023-10-31T17:01:36.613Z,,0,,,3501.7660000238684,completion,,,,,false,,,,490574.8000000119,490574.10000002384,487055.878,487049.60000002384,487072.334,490589.249,8,400,,,
trial,html.Screen,4_59_0,2023-10-31T17:01:41.657Z,,0,2,,5028.351000023831,response,ISIC_3157046.JPG,5,ISIC_1234463.JPG,ISIC_1234463.JPG,false,0,keypress(z),500,495618.10000002384,495617.60000002384,490572.637,490575,490589.249,495622.384,8,400,10,,ISIC_3157046.JPG
break,html.Screen,4_59_1,2023-10-31T17:01:41.658Z,,0,,,NaN,,,,,,false,,,,495619.60000002384,495619.10000002384,,495618.60000002384,,495622.384,8,400,,,
break_continue,html.Screen,4_59_2,2023-10-31T17:01:41.659Z,,0,,,NaN,,,,,,false,,,,495620.40000003576,495620.1999999881,,495619.90000003576,,495622.384,8,400,,,
sequence,flow.Sequence,4_59,2023-10-31T17:01:41.659Z,,0,,,5030.950999988068,completion,,,,,false,,,,495621,495620.1999999881,490572.637,490574.90000003576,490589.249,495622.384,8,400,,,
trial,html.Screen,4_60_0,2023-10-31T17:01:44.831Z,,0,2,,3169.61599999998,response,ISIC_6805527.JPG,5,ISIC_7253401.JPG,ISIC_6805527.JPG,false,1,keypress(m),500,498792.5,498792,495605.82,495621.3000000119,495622.384,498805.827,8,400,11,,ISIC_7253401.JPG
break,html.Screen,4_60_1,2023-10-31T17:01:44.832Z,,0,,,NaN,,,,,,false,,,,498793.8000000119,498793.5,,498792.8000000119,,498805.827,8,400,,,
break_continue,html.Screen,4_60_2,2023-10-31T17:01:44.833Z,,0,,,NaN,,,,,,false,,,,498794.60000002384,498794.40000003576,,498794.10000002384,,498805.827,8,400,,,
sequence,flow.Sequence,4_60,2023-10-31T17:01:44.833Z,,0,,,3172.0160000357428,completion,,,,,false,,,,498794.90000003576,498794.40000003576,495605.82,495621.1999999881,495622.384,498805.827,8,400,,,
trial,html.Screen,4_61_0,2023-10-31T17:01:49.619Z,,0,2,,4774.17300000001,response,ISIC_9353514.JPG,5,ISIC_8578732.JPG,ISIC_8578732.JPG,false,0,keypress(z),500,503580.40000003576,503580,498789.21,498794.90000003576,498805.827,503589.034,8,400,12,,ISIC_9353514.JPG
break,html.Screen,4_61_1,2023-10-31T17:01:49.620Z,,0,,,NaN,,,,,,false,,,,503581.90000003576,503581.5,,503580.90000003576,,503589.034,8,400,,,
break_continue,html.Screen,4_61_2,2023-10-31T17:01:49.621Z,,0,,,NaN,,,,,,false,,,,503582.6999999881,503582.40000003576,,503582.1999999881,,503589.034,8,400,,,
sequence,flow.Sequence,4_61,2023-10-31T17:01:49.622Z,,0,,,4776.573000035773,completion,,,,,false,,,,503583.1999999881,503582.40000003576,498789.21,498794.90000003576,498805.827,503589.034,8,400,,,
trial,html.Screen,4_62_0,2023-10-31T17:01:52.697Z,,0,2,,3068.766000011936,response,ISIC_1739667.JPG,5,ISIC_9214649.JPG,ISIC_9214649.JPG,false,0,keypress(z),500,506658.1999999881,506657.8000000119,503572.247,503583.40000003576,503589.034,506672.465,8,400,13,,ISIC_1739667.JPG
break,html.Screen,4_62_1,2023-10-31T17:01:52.698Z,,0,,,NaN,,,,,,false,,,,506659.60000002384,506659.1999999881,,506658.6999999881,,506672.465,8,400,,,
break_continue,html.Screen,4_62_2,2023-10-31T17:01:52.699Z,,0,,,NaN,,,,,,false,,,,506660.5,506660.3000000119,,506659.90000003576,,506672.465,8,400,,,
sequence,flow.Sequence,4_62,2023-10-31T17:01:52.699Z,,0,,,3071.266000011936,completion,,,,,false,,,,506660.8000000119,506660.3000000119,503572.247,503583.3000000119,503589.034,506672.465,8,400,,,
trial,html.Screen,4_63_0,2023-10-31T17:01:56.847Z,,0,2,,4135.435000035737,response,ISIC_0009713.JPG,4,ISIC_9732721.JPG,ISIC_9732721.JPG,false,0,keypress(z),500,510808.3000000119,510807.90000003576,506655.913,506661.1999999881,506672.465,510822.512,8,400,14,,ISIC_0009713.JPG
break,html.Screen,4_63_1,2023-10-31T17:01:56.848Z,,0,,,NaN,,,,,,false,,,,510809.3000000119,510809.10000002384,,510808.60000002384,,510822.512,8,400,,,
break_continue,html.Screen,4_63_2,2023-10-31T17:01:56.848Z,,0,,,NaN,,,,,,false,,,,510809.90000003576,510809.6999999881,,510809.5,,510822.512,8,400,,,
sequence,flow.Sequence,4_63,2023-10-31T17:01:56.849Z,,0,,,4137.2349999880535,completion,,,,,false,,,,510810.10000002384,510809.6999999881,506655.913,506661.10000002384,506672.465,510822.512,8,400,,,
trial,html.Screen,4_64_0,2023-10-31T17:02:01.011Z,,0,2,,4149.888000035775,response,ISIC_4481362.JPG,5,ISIC_9810276.JPG,ISIC_4481362.JPG,false,1,keypress(m),500,514972.60000002384,514972.40000003576,510805.586,510810.3000000119,510822.512,514988.872,8,400,15,,ISIC_9810276.JPG
break,html.Screen,4_64_1,2023-10-31T17:02:01.011Z,,0,,,NaN,,,,,,false,,,,514972.90000003576,514972.90000003576,,514972.6999999881,,514988.872,8,400,,,
break_continue,html.Screen,4_64_2,2023-10-31T17:02:01.012Z,,0,,,NaN,,,,,,false,,,,514973.10000002384,514973.10000002384,,514973,,514988.872,8,400,,,
sequence,flow.Sequence,4_64,2023-10-31T17:02:01.012Z,,0,,,4150.588000023854,completion,,,,,false,,,,514973.3000000119,514973.10000002384,510805.586,510810.3000000119,510822.512,514988.872,8,400,,,
trial,html.Screen,4_65_0,2023-10-31T17:02:04.053Z,,0,2,,3025.327999988105,response,ISIC_0030391.JPG,5,ISIC_1380069.JPG,ISIC_1380069.JPG,false,0,keypress(z),500,518014.60000002384,518014.1999999881,514972.2,514973.3000000119,514988.872,518022.304,8,400,16,,ISIC_0030391.JPG
break,html.Screen,4_65_1,2023-10-31T17:02:04.054Z,,0,,,NaN,,,,,,false,,,,518015.40000003576,518015.1999999881,,518014.8000000119,,518022.304,8,400,,,
break_continue,html.Screen,4_65_2,2023-10-31T17:02:04.055Z,,0,,,NaN,,,,,,false,,,,518016,518015.8000000119,,518015.6999999881,,518022.304,8,400,,,
sequence,flow.Sequence,4_65,2023-10-31T17:02:04.055Z,,0,,,3026.928000011947,completion,,,,,false,,,,518016.3000000119,518015.8000000119,514972.2,514973.3000000119,514988.872,518022.304,8,400,,,
trial,html.Screen,4_66_0,2023-10-31T17:02:06.953Z,,0,2,,2891.596000035759,response,ISIC_4191202.JPG,5,ISIC_0000042.JPG,ISIC_4191202.JPG,false,1,keypress(m),500,520914.3000000119,520913.90000003576,518005.564,518016.40000003576,518022.304,520922.325,8,400,17,,ISIC_0000042.JPG
break,html.Screen,4_66_1,2023-10-31T17:02:06.954Z,,0,,,NaN,,,,,,false,,,,520915.40000003576,520915.10000002384,,520914.60000002384,,520922.325,8,400,,,
break_continue,html.Screen,4_66_2,2023-10-31T17:02:06.954Z,,0,,,NaN,,,,,,false,,,,520915.90000003576,520915.8000000119,,520915.5,,520922.325,8,400,,,
sequence,flow.Sequence,4_66,2023-10-31T17:02:06.955Z,,0,,,2893.496000011917,completion,,,,,false,,,,520916.1999999881,520915.8000000119,518005.564,518016.40000003576,518022.304,520922.325,8,400,,,
trial,html.Screen,4_67_0,2023-10-31T17:02:11.198Z,,0,2,,4236.874999988067,response,ISIC_5629390.JPG,6,ISIC_0072422.JPG,ISIC_0072422.JPG,false,0,keypress(z),500,525159.4000000358,525159.1999999881,520905.808,520916.40000003576,520922.325,525172.185,8,400,18,,ISIC_5629390.JPG
break,html.Screen,4_67_1,2023-10-31T17:02:11.198Z,,0,,,NaN,,,,,,false,,,,525159.6999999881,525159.6000000238,,525159.5,,525172.185,8,400,,,
break_continue,html.Screen,4_67_2,2023-10-31T17:02:11.198Z,,0,,,NaN,,,,,,false,,,,525159.9000000358,525159.9000000358,,525159.8000000119,,525172.185,8,400,,,
sequence,flow.Sequence,4_67,2023-10-31T17:02:11.199Z,,0,,,4237.575000035751,completion,,,,,false,,,,525160.1000000238,525159.9000000358,520905.808,520916.40000003576,520922.325,525172.185,8,400,,,
trial,html.Screen,4_68_0,2023-10-31T17:02:15.457Z,,0,2,,4245.814999999944,response,ISIC_0029007.JPG,5,ISIC_5247560.JPG,ISIC_5247560.JPG,false,0,keypress(z),500,529418.1000000238,529418,525155.527,525160.1000000238,525172.185,529422.236,8,400,19,,ISIC_0029007.JPG
break,html.Screen,4_68_1,2023-10-31T17:02:15.457Z,,0,,,NaN,,,,,,false,,,,529418.5,529418.4000000358,,529418.3000000119,,529422.236,8,400,,,
break_continue,html.Screen,4_68_2,2023-10-31T17:02:15.457Z,,0,,,NaN,,,,,,false,,,,529418.6999999881,529418.6999999881,,529418.6000000238,,529422.236,8,400,,,
sequence,flow.Sequence,4_68,2023-10-31T17:02:15.457Z,,0,,,4246.514999988023,completion,,,,,false,,,,529418.8000000119,529418.6999999881,525155.527,525160.1000000238,525172.185,529422.236,8,400,,,
trial,html.Screen,4_69_0,2023-10-31T17:02:18.115Z,,0,2,,2654.3640000238083,response,ISIC_2057184.JPG,5,ISIC_0069361.JPG,ISIC_2057184.JPG,false,1,keypress(m),500,532076.6999999881,532076.6000000238,529405.58,529418.9000000358,529422.236,532088.846,8,400,20,,ISIC_0069361.JPG
break,html.Screen,4_69_1,2023-10-31T17:02:18.116Z,,0,,,NaN,,,,,,false,,,,532077.1999999881,532077.1000000238,,532076.8000000119,,532088.846,8,400,,,
break_continue,html.Screen,4_69_2,2023-10-31T17:02:18.116Z,,0,,,NaN,,,,,,false,,,,532077.5,532077.4000000358,,532077.3000000119,,532088.846,8,400,,,
sequence,flow.Sequence,4_69,2023-10-31T17:02:18.116Z,,0,,,2655.1640000357293,completion,,,,,false,,,,532077.6999999881,532077.4000000358,529405.58,529418.9000000358,529422.236,532088.846,8,400,,,
trial,html.Screen,4_70_0,2023-10-31T17:02:21.591Z,,0,2,,3463.0540000357432,response,ISIC_0058177.JPG,5,ISIC_2153401.JPG,ISIC_2153401.JPG,false,0,keypress(z),500,535552.1999999881,535551.9000000358,532072.189,532077.6999999881,532088.846,535555.641,8,400,21,,ISIC_0058177.JPG
break,html.Screen,4_70_1,2023-10-31T17:02:21.592Z,,0,,,NaN,,,,,,false,,,,535553.3000000119,535553,,535552.5,,535555.641,8,400,,,
break_continue,html.Screen,4_70_2,2023-10-31T17:02:21.592Z,,0,,,NaN,,,,,,false,,,,535554,535553.8000000119,,535553.6000000238,,535555.641,8,400,,,
sequence,flow.Sequence,4_70,2023-10-31T17:02:21.593Z,,0,,,3464.9540000119014,completion,,,,,false,,,,535554.3000000119,535553.8000000119,532072.189,532077.6999999881,532088.846,535555.641,8,400,,,
trial,html.Screen,4_71_0,2023-10-31T17:02:23.867Z,,0,2,,2272.459000023897,response,ISIC_5156491.JPG,5,ISIC_0033713.JPG,ISIC_0033713.JPG,false,0,keypress(z),500,537828.3000000119,537828.1000000238,535539.116,535554.5,535555.641,537839.092,8,400,22,,ISIC_5156491.JPG
break,html.Screen,4_71_1,2023-10-31T17:02:23.867Z,,0,,,NaN,,,,,,false,,,,537829,537828.8000000119,,537828.5,,537839.092,8,400,,,
break_continue,html.Screen,4_71_2,2023-10-31T17:02:23.868Z,,0,,,NaN,,,,,,false,,,,537829.4000000358,537829.3000000119,,537829.1000000238,,537839.092,8,400,,,
sequence,flow.Sequence,4_71,2023-10-31T17:02:23.868Z,,0,,,2273.659000011976,completion,,,,,false,,,,537829.6000000238,537829.3000000119,535539.116,535554.5,535555.641,537839.092,8,400,,,
trial,html.Screen,4_72_0,2023-10-31T17:02:29.680Z,,0,2,,5801.008000023896,response,ISIC_6210962.JPG,6,ISIC_3871225.JPG,ISIC_6210962.JPG,false,1,keypress(m),500,543640.6000000238,543640.1000000238,537822.313,537829.6999999881,537839.092,543655.717,8,400,23,,ISIC_3871225.JPG
break,html.Screen,4_72_1,2023-10-31T17:02:29.681Z,,0,,,NaN,,,,,,false,,,,543642,543641.6999999881,,543641,,543655.717,8,400,,,
break_continue,html.Screen,4_72_2,2023-10-31T17:02:29.682Z,,0,,,NaN,,,,,,false,,,,543642.8000000119,543642.6000000238,,543642.3000000119,,543655.717,8,400,,,
sequence,flow.Sequence,4_72,2023-10-31T17:02:29.683Z,,0,,,5803.508000023896,completion,,,,,false,,,,543643.1999999881,543642.6000000238,537822.313,537829.6000000238,537839.092,543655.717,8,400,,,
trial,html.Screen,4_73_0,2023-10-31T17:02:34.246Z,,0,2,,4550.383000023896,response,ISIC_0013777.JPG,5,ISIC_6400714.JPG,ISIC_0013777.JPG,false,1,keypress(m),500,548206.3000000119,548206.1000000238,543638.861,543643.4000000358,543655.717,548222.211,8,400,24,,ISIC_6400714.JPG
break,html.Screen,4_73_1,2023-10-31T17:02:34.247Z,,0,,,NaN,,,,,,false,,,,548207.4000000358,548207.1000000238,,548206.6999999881,,548222.211,8,400,,,
break_continue,html.Screen,4_73_2,2023-10-31T17:02:34.247Z,,0,,,NaN,,,,,,false,,,,548207.9000000358,548207.8000000119,,548207.6000000238,,548222.211,8,400,,,
sequence,flow.Sequence,4_73,2023-10-31T17:02:34.248Z,,0,,,4552.083000011975,completion,,,,,false,,,,548208.1999999881,548207.8000000119,543638.861,543643.4000000358,543655.717,548222.211,8,400,,,
trial,html.Screen,4_74_0,2023-10-31T17:02:38.090Z,,0,2,,3828.2889999999898,response,ISIC_6663112.JPG,5,ISIC_0058098.JPG,ISIC_6663112.JPG,false,1,keypress(m),500,552050.6000000238,552050.5,548205.807,548208.4000000358,548222.211,552055.485,8,400,25,,ISIC_0058098.JPG
break,html.Screen,4_74_1,2023-10-31T17:02:38.090Z,,0,,,NaN,,,,,,false,,,,552051.1000000238,552051,,552050.8000000119,,552055.485,8,400,,,
break_continue,html.Screen,4_74_2,2023-10-31T17:02:38.091Z,,0,,,NaN,,,,,,false,,,,552051.1999999881,552051.1999999881,,552051.1999999881,,552055.485,8,400,,,
sequence,flow.Sequence,4_74,2023-10-31T17:02:38.091Z,,0,,,3828.988999988069,completion,,,,,false,,,,552051.3000000119,552051.1999999881,548205.807,548208.4000000358,548222.211,552055.485,8,400,,,
trial,html.Screen,4_75_0,2023-10-31T17:02:41.853Z,,0,2,,3757.315000011935,response,ISIC_0002566.JPG,4,ISIC_0055147.JPG,ISIC_0002566.JPG,false,1,keypress(m),500,555813.1999999881,555812.8000000119,552039.191,552051.4000000358,552055.485,555822.204,8,400,26,,ISIC_0055147.JPG
break,html.Screen,4_75_1,2023-10-31T17:02:41.854Z,,0,,,NaN,,,,,,false,,,,555814.6000000238,555814.1000000238,,555813.5,,555822.204,8,400,,,
break_continue,html.Screen,4_75_2,2023-10-31T17:02:41.855Z,,0,,,NaN,,,,,,false,,,,555815.5,555815.1999999881,,555815,,555822.204,8,400,,,
sequence,flow.Sequence,4_75,2023-10-31T17:02:41.855Z,,0,,,3759.714999988093,completion,,,,,false,,,,555815.9000000358,555815.1999999881,552039.191,552051.3000000119,552055.485,555822.204,8,400,,,
trial,html.Screen,4_76_0,2023-10-31T17:02:45.907Z,,0,2,,4045.096000011894,response,ISIC_4259290.JPG,5,ISIC_3452564.JPG,ISIC_3452564.JPG,false,0,keypress(z),500,559867.4000000358,559867.3000000119,555805.836,555816.1000000238,555822.204,559872.128,8,400,27,,ISIC_4259290.JPG
break,html.Screen,4_76_1,2023-10-31T17:02:45.907Z,,0,,,NaN,,,,,,false,,,,559867.6999999881,559867.6000000238,,559867.6000000238,,559872.128,8,400,,,
break_continue,html.Screen,4_76_2,2023-10-31T17:02:45.907Z,,0,,,NaN,,,,,,false,,,,559867.9000000358,559867.9000000358,,559867.8000000119,,559872.128,8,400,,,
sequence,flow.Sequence,4_76,2023-10-31T17:02:45.907Z,,0,,,4045.696000035736,completion,,,,,false,,,,559868,559867.9000000358,555805.836,555816,555822.204,559872.128,8,400,,,
trial,html.Screen,4_77_0,2023-10-31T17:02:49.780Z,,0,2,,3868.7720000357367,response,ISIC_9947624.JPG,4,ISIC_0068610.JPG,ISIC_9947624.JPG,false,1,keypress(m),500,563741.1000000238,563740.9000000358,559855.45,559868,559872.128,563755.472,8,400,28,,ISIC_0068610.JPG
break,html.Screen,4_77_1,2023-10-31T17:02:49.781Z,,0,,,NaN,,,,,,false,,,,563741.6000000238,563741.5,,563741.1999999881,,563755.472,8,400,,,
break_continue,html.Screen,4_77_2,2023-10-31T17:02:49.781Z,,0,,,NaN,,,,,,false,,,,563741.8000000119,563741.6999999881,,563741.6999999881,,563755.472,8,400,,,
sequence,flow.Sequence,4_77,2023-10-31T17:02:49.781Z,,0,,,3869.571999988053,completion,,,,,false,,,,563741.9000000358,563741.6999999881,559855.45,559868,559872.128,563755.472,8,400,,,
trial,html.Screen,4_78_0,2023-10-31T17:02:53.527Z,,0,2,,3731.8280000119703,response,ISIC_1513720.JPG,5,ISIC_8368872.JPG,ISIC_8368872.JPG,false,0,keypress(z),500,567487.6999999881,567487.3000000119,563738.765,563742,563755.472,567505.687,8,400,29,,ISIC_1513720.JPG
break,html.Screen,4_78_1,2023-10-31T17:02:53.528Z,,0,,,NaN,,,,,,false,,,,567488.8000000119,567488.5,,567488,,567505.687,8,400,,,
break_continue,html.Screen,4_78_2,2023-10-31T17:02:53.529Z,,0,,,NaN,,,,,,false,,,,567489.4000000358,567489.3000000119,,567489,,567505.687,8,400,,,
sequence,flow.Sequence,4_78,2023-10-31T17:02:53.529Z,,0,,,3733.8280000119703,completion,,,,,false,,,,567489.6999999881,567489.3000000119,563738.765,563742,563755.472,567505.687,8,400,,,
trial,html.Screen,4_79_0,2023-10-31T17:02:57.420Z,,0,2,,3874.7130000357283,response,ISIC_6159783.JPG,4,ISIC_6792899.JPG,ISIC_6792899.JPG,false,0,keypress(z),500,571380.9000000358,571380.4000000358,567472.414,567490,567505.687,571388.894,8,400,30,,ISIC_6159783.JPG
break,html.Screen,4_79_1,2023-10-31T17:02:57.422Z,,0,,,NaN,,,,,,false,,,,571382.3000000119,571381.9000000358,,571381.4000000358,,571388.894,8,400,,,
break_continue,html.Screen,4_79_2,2023-10-31T17:02:57.422Z,,0,,,NaN,,,,,,false,,,,571383,571382.8000000119,,571382.5,,571388.894,8,400,,,
sequence,flow.Sequence,4_79,2023-10-31T17:02:57.423Z,,0,,,3877.1130000118865,completion,,,,,false,,,,571383.4000000358,571382.8000000119,567472.414,567489.9000000358,567505.687,571388.894,8,400,,,
trial,html.Screen,4_80_0,2023-10-31T17:03:02.130Z,,0,2,,4701.206000023871,response,ISIC_0032357.JPG,5,ISIC_0068950.JPG,ISIC_0032357.JPG,false,1,keypress(m),500,576090.6000000238,576090.1000000238,571372.421,571383.6999999881,571388.894,576105.67,8,400,31,,ISIC_0068950.JPG
break,html.Screen,4_80_1,2023-10-31T17:03:02.131Z,,0,,,NaN,,,,,,false,,,,576091.8000000119,576091.5,,576090.9000000358,,576105.67,8,400,,,
break_continue,html.Screen,4_80_2,2023-10-31T17:03:02.132Z,,0,,,NaN,,,,,,false,,,,576092.6000000238,576092.3000000119,,576092.1000000238,,576105.67,8,400,,,
sequence,flow.Sequence,4_80,2023-10-31T17:03:02.132Z,,0,,,4703.40600001195,completion,,,,,false,,,,576092.9000000358,576092.3000000119,571372.421,571383.5,571388.894,576105.67,8,400,,,
trial,html.Screen,4_81_0,2023-10-31T17:03:06.232Z,,0,2,,4086.130000011879,response,ISIC_0011482.JPG,5,ISIC_0015129.JPG,ISIC_0011482.JPG,false,1,keypress(m),500,580192.1999999881,580191.8000000119,576089.079,576093.1000000238,576105.67,580205.648,8,400,32,,ISIC_0015129.JPG
break,html.Screen,4_81_1,2023-10-31T17:03:06.233Z,,0,,,NaN,,,,,,false,,,,580193.5,580193.1000000238,,580192.6000000238,,580205.648,8,400,,,
break_continue,html.Screen,4_81_2,2023-10-31T17:03:06.234Z,,0,,,NaN,,,,,,false,,,,580194.1999999881,580194,,580193.8000000119,,580205.648,8,400,,,
sequence,flow.Sequence,4_81,2023-10-31T17:03:06.234Z,,0,,,4088.329999999958,completion,,,,,false,,,,580194.6000000238,580194,576089.079,576093.1000000238,576105.67,580205.648,8,400,,,
trial,html.Screen,4_82_0,2023-10-31T17:03:10.205Z,,0,2,,3959.5519999880344,response,ISIC_9822350.JPG,5,ISIC_0059892.JPG,ISIC_0059892.JPG,false,0,keypress(z),500,584165.5,584165.1999999881,580189.077,580194.9000000358,580205.648,584172.084,8,400,33,,ISIC_9822350.JPG
break,html.Screen,4_82_1,2023-10-31T17:03:10.205Z,,0,,,NaN,,,,,,false,,,,584166,584165.8000000119,,584165.6000000238,,584172.084,8,400,,,
break_continue,html.Screen,4_82_2,2023-10-31T17:03:10.206Z,,0,,,NaN,,,,,,false,,,,584166.1999999881,584166.1000000238,,584166,,584172.084,8,400,,,
sequence,flow.Sequence,4_82,2023-10-31T17:03:10.206Z,,0,,,3960.452000023797,completion,,,,,false,,,,584166.3000000119,584166.1000000238,580189.077,580194.8000000119,580205.648,584172.084,8,400,,,
trial,html.Screen,4_83_0,2023-10-31T17:03:16.064Z,,0,2,,5852.216000011889,response,ISIC_0029652.JPG,6,ISIC_0065539.JPG,ISIC_0029652.JPG,false,1,keypress(m),500,590024.6999999881,590024.3000000119,584155.751,584166.5,584172.084,590038.926,8,400,34,,ISIC_0065539.JPG
break,html.Screen,4_83_1,2023-10-31T17:03:16.065Z,,0,,,NaN,,,,,,false,,,,590026.1000000238,590025.6000000238,,590025.1000000238,,590038.926,8,400,,,
break_continue,html.Screen,4_83_2,2023-10-31T17:03:16.066Z,,0,,,NaN,,,,,,false,,,,590026.6999999881,590026.5,,590026.1999999881,,590038.926,8,400,,,
sequence,flow.Sequence,4_83,2023-10-31T17:03:16.066Z,,0,,,5854.415999999968,completion,,,,,false,,,,590027.1000000238,590026.5,584155.751,584166.4000000358,584172.084,590038.926,8,400,,,
trial,html.Screen,4_84_0,2023-10-31T17:03:19.798Z,,0,2,,3719.674000023864,response,ISIC_0034256.JPG,4,ISIC_3288342.JPG,ISIC_3288342.JPG,false,0,keypress(z),500,593758.8000000119,593758.6000000238,590022.433,590027.3000000119,590038.926,593772.297,8,400,35,,ISIC_0034256.JPG
break,html.Screen,4_84_1,2023-10-31T17:03:19.799Z,,0,,,NaN,,,,,,false,,,,593759.3000000119,593759.1000000238,,593759,,593772.297,8,400,,,
break_continue,html.Screen,4_84_2,2023-10-31T17:03:19.799Z,,0,,,NaN,,,,,,false,,,,593759.8000000119,593759.6999999881,,593759.5,,593772.297,8,400,,,
sequence,flow.Sequence,4_84,2023-10-31T17:03:19.799Z,,0,,,3720.7739999881014,completion,,,,,false,,,,593759.9000000358,593759.6999999881,590022.433,590027.1999999881,590038.926,593772.297,8,400,,,
trial,html.Screen,4_85_0,2023-10-31T17:03:22.698Z,,0,2,,2885.7029999999795,response,ISIC_6126554.JPG,5,ISIC_5921777.JPG,ISIC_6126554.JPG,false,1,keypress(m),500,596658.5,596658,593755.545,593760.1000000238,593772.297,596672.27,8,400,36,,ISIC_5921777.JPG
break,html.Screen,4_85_1,2023-10-31T17:03:22.699Z,,0,,,NaN,,,,,,false,,,,596659.9000000358,596659.5,,596658.9000000358,,596672.27,8,400,,,
break_continue,html.Screen,4_85_2,2023-10-31T17:03:22.700Z,,0,,,NaN,,,,,,false,,,,596660.6999999881,596660.4000000358,,596660.1999999881,,596672.27,8,400,,,
sequence,flow.Sequence,4_85,2023-10-31T17:03:22.700Z,,0,,,2888.1030000357423,completion,,,,,false,,,,596661.1000000238,596660.4000000358,593755.545,593760,593772.297,596672.27,8,400,,,
trial,html.Screen,4_86_0,2023-10-31T17:03:28.913Z,,0,2,,6199.229999999981,response,ISIC_0046441.JPG,5,ISIC_0053734.JPG,ISIC_0046441.JPG,false,1,keypress(m),500,602871.8000000119,602871.5,596655.711,596661.4000000358,596672.27,602888.919,8,400,37,,ISIC_0053734.JPG
break,html.Screen,4_86_1,2023-10-31T17:03:28.915Z,,0,,,NaN,,,,,,false,,,,602873.1999999881,602872.8000000119,,602872.3000000119,,602888.919,8,400,,,
break_continue,html.Screen,4_86_2,2023-10-31T17:03:28.915Z,,0,,,NaN,,,,,,false,,,,602874,602873.6999999881,,602873.5,,602888.919,8,400,,,
sequence,flow.Sequence,4_86,2023-10-31T17:03:28.916Z,,0,,,6201.42999998806,completion,,,,,false,,,,602874.1999999881,602873.6999999881,596655.711,596661.3000000119,596672.27,602888.919,8,400,,,
trial,html.Screen,4_87_0,2023-10-31T17:03:32.213Z,,0,2,,3282.7809999880847,response,ISIC_8752021.JPG,5,ISIC_0260290.JPG,ISIC_0260290.JPG,false,0,keypress(z),500,606172.1999999881,606171.6999999881,602872.244,602874.3000000119,602888.919,606188.923,8,400,38,,ISIC_8752021.JPG
break,html.Screen,4_87_1,2023-10-31T17:03:32.215Z,,0,,,NaN,,,,,,false,,,,606173.5,606173.1999999881,,606172.5,,606188.923,8,400,,,
break_continue,html.Screen,4_87_2,2023-10-31T17:03:32.216Z,,0,,,NaN,,,,,,false,,,,606174.1999999881,606174,,606173.6999999881,,606188.923,8,400,,,
sequence,flow.Sequence,4_87,2023-10-31T17:03:32.216Z,,0,,,3285.0810000000056,completion,,,,,false,,,,606174.6000000238,606174,602872.244,602874.1999999881,602888.919,606188.923,8,400,,,
trial,html.Screen,4_88_0,2023-10-31T17:03:35.563Z,,0,2,,3332.5770000000484,response,ISIC_3942075.JPG,6,ISIC_3738751.JPG,ISIC_3942075.JPG,false,1,keypress(m),500,609521.9000000358,609521.5,606172.286,606174.8000000119,606188.923,609538.864,8,400,39,,ISIC_3738751.JPG
break,html.Screen,4_88_1,2023-10-31T17:03:35.564Z,,0,,,NaN,,,,,,false,,,,609523.1999999881,609522.9000000358,,609522.3000000119,,609538.864,8,400,,,
break_continue,html.Screen,4_88_2,2023-10-31T17:03:35.565Z,,0,,,NaN,,,,,,false,,,,609523.9000000358,609523.6999999881,,609523.4000000358,,609538.864,8,400,,,
sequence,flow.Sequence,4_88,2023-10-31T17:03:35.566Z,,0,,,3334.7769999881275,completion,,,,,false,,,,609524.3000000119,609523.6999999881,606172.286,606174.6999999881,606188.923,609538.864,8,400,,,
trial,html.Screen,4_89_0,2023-10-31T17:03:38.800Z,,0,2,,3219.9360000119777,response,ISIC_0034092.JPG,4,ISIC_7351443.JPG,ISIC_7351443.JPG,false,0,keypress(z),500,612758.9000000358,612758.8000000119,609522.153,609524.5,609538.864,612788.801,8,400,40,,ISIC_0034092.JPG
break,html.Screen,4_89_1,2023-10-31T17:03:38.801Z,,0,,,NaN,,,,,,false,,,,612759.3000000119,612759.1999999881,,612759,,612788.801,8,400,,,
break_continue,html.Screen,4_89_2,2023-10-31T17:03:38.801Z,,0,,,NaN,,,,,,false,,,,612759.5,612759.4000000358,,612759.4000000358,,612788.801,8,400,,,
sequence,flow.Sequence,4_89,2023-10-31T17:03:38.801Z,,0,,,3220.5360000358196,completion,,,,,false,,,,612759.6000000238,612759.4000000358,609522.153,609524.4000000358,609538.864,612788.801,8,400,,,
trial,html.Screen,4_90_0,2023-10-31T17:03:41.826Z,,0,2,,2995.6990000000224,response,ISIC_0056790.JPG,5,ISIC_7759376.JPG,ISIC_7759376.JPG,false,0,keypress(z),500,615784.9000000358,615784.5,612772.313,612759.6000000238,612788.801,615788.831,8,400,41,,ISIC_0056790.JPG
break,html.Screen,4_90_1,2023-10-31T17:03:41.828Z,,0,,,NaN,,,,,,false,,,,615786.4000000358,615786,,615785.4000000358,,615788.831,8,400,,,
break_continue,html.Screen,4_90_2,2023-10-31T17:03:41.828Z,,0,,,NaN,,,,,,false,,,,615787.1000000238,615786.9000000358,,615786.6000000238,,615788.831,8,400,,,
sequence,flow.Sequence,4_90,2023-10-31T17:03:41.829Z,,0,,,2998.099000035785,completion,,,,,false,,,,615787.5,615786.9000000358,612772.313,612759.6000000238,612788.801,615788.831,8,400,,,
trial,html.Screen,4_91_0,2023-10-31T17:03:45.387Z,,0,2,,3556.569000035757,response,ISIC_9125409.JPG,5,ISIC_7693995.JPG,ISIC_9125409.JPG,false,1,keypress(m),500,619345.8000000119,619345.4000000358,615772.011,615787.8000000119,615788.831,619372.12,8,400,42,,ISIC_7693995.JPG
break,html.Screen,4_91_1,2023-10-31T17:03:45.388Z,,0,,,NaN,,,,,,false,,,,619347.1999999881,619346.6999999881,,619346.1999999881,,619372.12,8,400,,,
break_continue,html.Screen,4_91_2,2023-10-31T17:03:45.389Z,,0,,,NaN,,,,,,false,,,,619348,619347.8000000119,,619347.6000000238,,619372.12,8,400,,,
sequence,flow.Sequence,4_91,2023-10-31T17:03:45.390Z,,0,,,3558.9690000119153,completion,,,,,false,,,,619348.4000000358,619347.8000000119,615772.011,615787.6999999881,615788.831,619372.12,8,400,,,
trial,html.Screen,4_92_0,2023-10-31T17:03:48.097Z,,0,2,,2683.0799999880837,response,ISIC_0012722.JPG,6,ISIC_0064060.JPG,ISIC_0012722.JPG,false,1,keypress(m),500,622055.6999999881,622055.1999999881,619338.755,619348.6999999881,619372.12,622072.345,8,400,43,,ISIC_0064060.JPG
break,html.Screen,4_92_1,2023-10-31T17:03:48.098Z,,0,,,NaN,,,,,,false,,,,622057.1000000238,622056.8000000119,,622056.1000000238,,622072.345,8,400,,,
break_continue,html.Screen,4_92_2,2023-10-31T17:03:48.099Z,,0,,,NaN,,,,,,false,,,,622057.9000000358,622057.6000000238,,622057.3000000119,,622072.345,8,400,,,
sequence,flow.Sequence,4_92,2023-10-31T17:03:48.100Z,,0,,,2685.4800000238465,completion,,,,,false,,,,622058.1999999881,622057.6000000238,619338.755,619348.6000000238,619372.12,622072.345,8,400,,,
trial,html.Screen,4_93_0,2023-10-31T17:03:51.079Z,,0,2,,2965.155000000028,response,ISIC_0025165.JPG,5,ISIC_0066889.JPG,ISIC_0025165.JPG,false,1,keypress(m),500,625037.8000000119,625037.5,622055.701,622058.6000000238,622072.345,625072.337,8,400,44,,ISIC_0066889.JPG
break,html.Screen,4_93_1,2023-10-31T17:03:51.080Z,,0,,,NaN,,,,,,false,,,,625039.1000000238,625038.9000000358,,625038.3000000119,,625072.337,8,400,,,
break_continue,html.Screen,4_93_2,2023-10-31T17:03:51.081Z,,0,,,NaN,,,,,,false,,,,625039.8000000119,625039.6000000238,,625039.4000000358,,625072.337,8,400,,,
sequence,flow.Sequence,4_93,2023-10-31T17:03:51.081Z,,0,,,2967.25500002387,completion,,,,,false,,,,625040.1999999881,625039.6000000238,622055.701,622058.5,622072.345,625072.337,8,400,,,
trial,html.Screen,4_94_0,2023-10-31T17:03:56.412Z,,0,2,,5298.063000035705,response,ISIC_0065525.JPG,6,ISIC_5067317.JPG,ISIC_5067317.JPG,false,0,keypress(z),500,630370.9000000358,630370.4000000358,625055.666,625040.4000000358,625072.337,630388.729,8,400,45,,ISIC_0065525.JPG
break,html.Screen,4_94_1,2023-10-31T17:03:56.413Z,,0,,,NaN,,,,,,false,,,,630372.1999999881,630371.8000000119,,630371.1999999881,,630388.729,8,400,,,
break_continue,html.Screen,4_94_2,2023-10-31T17:03:56.414Z,,0,,,NaN,,,,,,false,,,,630373,630372.8000000119,,630372.5,,630388.729,8,400,,,
sequence,flow.Sequence,4_94,2023-10-31T17:03:56.415Z,,0,,,5300.463000011863,completion,,,,,false,,,,630373.4000000358,630372.8000000119,625055.666,625040.3000000119,625072.337,630388.729,8,400,,,
trial,html.Screen,4_95_0,2023-10-31T17:03:59.890Z,,0,2,,3459.470999988029,response,ISIC_7984646.JPG,6,ISIC_0025085.JPG,ISIC_7984646.JPG,false,1,keypress(m),500,633848.6999999881,633848.1999999881,630355.656,630373.6000000238,630388.729,633855.455,8,400,46,,ISIC_0025085.JPG
break,html.Screen,4_95_1,2023-10-31T17:03:59.894Z,,0,,,NaN,,,,,,false,,,,633852.4000000358,633851.9000000358,,633849.1999999881,,633855.455,8,400,,,
break_continue,html.Screen,4_95_2,2023-10-31T17:03:59.895Z,,0,,,NaN,,,,,,false,,,,633853.3000000119,633853,,633852.8000000119,,633855.455,8,400,,,
sequence,flow.Sequence,4_95,2023-10-31T17:03:59.895Z,,0,,,3464.2709999999497,completion,,,,,false,,,,633853.6999999881,633853,630355.656,630373.5,630388.729,633855.455,8,400,,,
trial,html.Screen,4_96_0,2023-10-31T17:04:03.402Z,,0,2,,3505.244999988121,response,ISIC_0059904.JPG,5,ISIC_6390738.JPG,ISIC_6390738.JPG,false,0,keypress(z),500,637361.1000000238,637360.6999999881,633838.766,633853.9000000358,633855.455,637372.055,8,400,47,,ISIC_0059904.JPG
break,html.Screen,4_96_1,2023-10-31T17:04:03.404Z,,0,,,NaN,,,,,,false,,,,637362.6000000238,637362.3000000119,,637361.6000000238,,637372.055,8,400,,,
break_continue,html.Screen,4_96_2,2023-10-31T17:04:03.405Z,,0,,,NaN,,,,,,false,,,,637363.4000000358,637363.1000000238,,637362.9000000358,,637372.055,8,400,,,
sequence,flow.Sequence,4_96,2023-10-31T17:04:03.405Z,,0,,,3507.6450000238838,completion,,,,,false,,,,637363.8000000119,637363.1000000238,633838.766,633853.8000000119,633855.455,637372.055,8,400,,,
trial,html.Screen,4_97_0,2023-10-31T17:04:07.345Z,,0,2,,3930.8450000357116,response,ISIC_1477990.JPG,5,ISIC_0026690.JPG,ISIC_1477990.JPG,false,1,keypress(m),500,641303.3000000119,641302.9000000358,637355.484,637364.1000000238,637372.055,641322.686,8,400,48,,ISIC_0026690.JPG
break,html.Screen,4_97_1,2023-10-31T17:04:07.346Z,,0,,,NaN,,,,,,false,,,,641305,641304.1999999881,,641303.6999999881,,641322.686,8,400,,,
break_continue,html.Screen,4_97_2,2023-10-31T17:04:07.348Z,,0,,,NaN,,,,,,false,,,,641306.3000000119,641305.9000000358,,641305.5,,641322.686,8,400,,,
sequence,flow.Sequence,4_97,2023-10-31T17:04:07.348Z,,0,,,3933.8450000357116,completion,,,,,false,,,,641307,641305.9000000358,637355.484,637364,637372.055,641322.686,8,400,,,
trial,html.Screen,4_98_0,2023-10-31T17:04:11.160Z,,0,2,,3795.314000000013,response,ISIC_9511265.JPG,5,ISIC_7358691.JPG,ISIC_7358691.JPG,false,0,keypress(z),500,645118.5,645118,641288.776,641307.4000000358,641322.686,645122.088,8,400,49,,ISIC_9511265.JPG
break,html.Screen,4_98_1,2023-10-31T17:04:11.161Z,,0,,,NaN,,,,,,false,,,,645120,645119.6999999881,,645119,,645122.088,8,400,,,
break_continue,html.Screen,4_98_2,2023-10-31T17:04:11.162Z,,0,,,NaN,,,,,,false,,,,645121,645120.6000000238,,645120.3000000119,,645122.088,8,400,,,
sequence,flow.Sequence,4_98,2023-10-31T17:04:11.163Z,,0,,,3797.914000023855,completion,,,,,false,,,,645121.5,645120.6000000238,641288.776,641307.1999999881,641322.686,645122.088,8,400,,,
trial,html.Screen,4_99_0,2023-10-31T17:04:14.510Z,,0,2,,3346.412000000011,response,ISIC_0030183.JPG,5,ISIC_9395707.JPG,ISIC_9395707.JPG,false,0,keypress(z),500,648469,648468.5,645105.459,645121.8000000119,645122.088,648472.087,8,400,50,,ISIC_0030183.JPG
break,html.Screen,4_99_1,2023-10-31T17:04:24.497Z,,0,,,10000.081999999937,timeout,,,,,false,,,,658456.1999999881,658455.493,648455.643,648469.4000000358,648472.087,658472.169,8,400,,,
break_continue,html.Screen,4_99_2,2023-10-31T17:04:28.643Z,,0,,,4103.6310000119265,response,,,,,false,continue,keypress(Space),,662599.9000000358,662575.8000000119,658455.493,658456.3000000119,658472.169,662605.443,8,400,,,
sequence,flow.Sequence,4_99,2023-10-31T17:04:28.643Z,,0,,,17453.712000011932,completion,,,,,false,,,,662600,662575.8000000119,645105.459,645121.6999999881,645122.088,662605.443,8,400,,,
trial,html.Screen,4_100_0,2023-10-31T17:04:31.605Z,,0,3,,2955.4570000357926,response,ISIC_0031070.JPG,4,ISIC_1988058.JPG,ISIC_1988058.JPG,false,0,keypress(z),500,665561.3000000119,665560.9000000358,662588.764,662600.1000000238,662605.443,665571.974,8,400,1,,ISIC_0031070.JPG
break,html.Screen,4_100_1,2023-10-31T17:04:31.606Z,,0,,,NaN,,,,,,false,,,,665562.8000000119,665562.4000000358,,665561.8000000119,,665571.974,8,400,,,
break_continue,html.Screen,4_100_2,2023-10-31T17:04:31.607Z,,0,,,NaN,,,,,,false,,,,665563.6000000238,665563.3000000119,,665563,,665571.974,8,400,,,
sequence,flow.Sequence,4_100,2023-10-31T17:04:31.607Z,,0,,,2957.8570000119507,completion,,,,,false,,,,665564,665563.3000000119,662588.764,662600,662605.443,665571.974,8,400,,,
trial,html.Screen,4_101_0,2023-10-31T17:04:35.066Z,,0,3,,3450.5259999999544,response,ISIC_0032954.JPG,5,ISIC_0031074.JPG,ISIC_0031074.JPG,false,0,keypress(z),500,669023,669022.5,665555.377,665564.3000000119,665571.974,669038.93,8,400,2,,ISIC_0032954.JPG
break,html.Screen,4_101_1,2023-10-31T17:04:35.068Z,,0,,,NaN,,,,,,false,,,,669024.4000000358,669024,,669023.3000000119,,669038.93,8,400,,,
break_continue,html.Screen,4_101_2,2023-10-31T17:04:35.068Z,,0,,,NaN,,,,,,false,,,,669025.3000000119,669025,,669024.6999999881,,669038.93,8,400,,,
sequence,flow.Sequence,4_101,2023-10-31T17:04:35.069Z,,0,,,3453.0259999999544,completion,,,,,false,,,,669025.6999999881,669025,665555.377,665564.1999999881,665571.974,669038.93,8,400,,,
trial,html.Screen,4_102_0,2023-10-31T17:04:38.272Z,,0,3,,3189.069999999949,response,ISIC_0025085.JPG,4,ISIC_1870309.JPG,ISIC_1870309.JPG,false,0,keypress(z),500,672228.5,672228,669022.224,669026,669038.93,672238.667,8,400,3,,ISIC_0025085.JPG
break,html.Screen,4_102_1,2023-10-31T17:04:38.273Z,,0,,,NaN,,,,,,false,,,,672230,672229.6000000238,,672228.9000000358,,672238.667,8,400,,,
break_continue,html.Screen,4_102_2,2023-10-31T17:04:38.274Z,,0,,,NaN,,,,,,false,,,,672230.6999999881,672230.4000000358,,672230.1999999881,,672238.667,8,400,,,
sequence,flow.Sequence,4_102,2023-10-31T17:04:38.274Z,,0,,,3191.4700000357116,completion,,,,,false,,,,672231.1000000238,672230.4000000358,669022.224,669025.8000000119,669038.93,672238.667,8,400,,,
trial,html.Screen,4_103_0,2023-10-31T17:04:41.349Z,,0,3,,3066.933000023826,response,ISIC_1334038.JPG,5,ISIC_0034268.JPG,ISIC_1334038.JPG,false,1,keypress(m),500,675305.8000000119,675305.6000000238,672222.212,672231.3000000119,672238.667,675322.175,8,400,4,,ISIC_0034268.JPG
break,html.Screen,4_103_1,2023-10-31T17:04:41.350Z,,0,,,NaN,,,,,,false,,,,675306.6000000238,675306.3000000119,,675306,,675322.175,8,400,,,
break_continue,html.Screen,4_103_2,2023-10-31T17:04:41.350Z,,0,,,NaN,,,,,,false,,,,675307,675306.9000000358,,675306.8000000119,,675322.175,8,400,,,
sequence,flow.Sequence,4_103,2023-10-31T17:04:41.350Z,,0,,,3068.233000035747,completion,,,,,false,,,,675307.1999999881,675306.9000000358,672222.212,672231.3000000119,672238.667,675322.175,8,400,,,
trial,html.Screen,4_104_0,2023-10-31T17:04:44.665Z,,0,3,,3299.1250000118744,response,ISIC_0033607.JPG,5,ISIC_4093484.JPG,ISIC_4093484.JPG,false,0,keypress(z),500,678621.6999999881,678621.3000000119,675305.344,675307.3000000119,675322.175,678638.884,8,400,5,,ISIC_0033607.JPG
break,html.Screen,4_104_1,2023-10-31T17:04:44.666Z,,0,,,NaN,,,,,,false,,,,678623,678622.6999999881,,678622.1000000238,,678638.884,8,400,,,
break_continue,html.Screen,4_104_2,2023-10-31T17:04:44.667Z,,0,,,NaN,,,,,,false,,,,678623.8000000119,678623.5,,678623.3000000119,,678638.884,8,400,,,
sequence,flow.Sequence,4_104,2023-10-31T17:04:44.667Z,,0,,,3301.3249999999534,completion,,,,,false,,,,678624.1000000238,678623.5,675305.344,675307.3000000119,675322.175,678638.884,8,400,,,
trial,html.Screen,4_105_0,2023-10-31T17:04:47.598Z,,0,3,,2915.8159999881173,response,ISIC_7503950.JPG,5,ISIC_5388493.JPG,ISIC_5388493.JPG,false,0,keypress(z),500,681555.1999999881,681554.6999999881,678622.167,678624.3000000119,678638.884,681571.972,8,400,6,,ISIC_7503950.JPG
break,html.Screen,4_105_1,2023-10-31T17:04:47.600Z,,0,,,NaN,,,,,,false,,,,681556.6999999881,681556.1999999881,,681555.6000000238,,681571.972,8,400,,,
break_continue,html.Screen,4_105_2,2023-10-31T17:04:47.601Z,,0,,,NaN,,,,,,false,,,,681557.5,681557.1999999881,,681557,,681571.972,8,400,,,
sequence,flow.Sequence,4_105,2023-10-31T17:04:47.601Z,,0,,,2918.3159999881173,completion,,,,,false,,,,681557.9000000358,681557.1999999881,678622.167,678624.1999999881,678638.884,681571.972,8,400,,,
trial,html.Screen,4_106_0,2023-10-31T17:04:51.348Z,,0,3,,3732.428000035812,response,ISIC_0006321.JPG,4,ISIC_0034217.JPG,ISIC_0006321.JPG,false,1,keypress(m),500,685304.8000000119,685304.4000000358,681555.581,681558.3000000119,681571.972,685322.078,8,400,7,,ISIC_0034217.JPG
break,html.Screen,4_106_1,2023-10-31T17:04:51.349Z,,0,,,NaN,,,,,,false,,,,685306.1000000238,685305.6999999881,,685305.1999999881,,685322.078,8,400,,,
break_continue,html.Screen,4_106_2,2023-10-31T17:04:51.350Z,,0,,,NaN,,,,,,false,,,,685306.8000000119,685306.6000000238,,685306.4000000358,,685322.078,8,400,,,
sequence,flow.Sequence,4_106,2023-10-31T17:04:51.350Z,,0,,,3734.628000023891,completion,,,,,false,,,,685307.1999999881,685306.6000000238,681555.581,681558.1000000238,681571.972,685322.078,8,400,,,
trial,html.Screen,4_107_0,2023-10-31T17:04:54.666Z,,0,3,,3300.5220000238623,response,ISIC_9978498.JPG,5,ISIC_0008945.JPG,ISIC_0008945.JPG,false,0,keypress(z),500,688623.1000000238,688622.6000000238,685305.385,685307.5,685322.078,688638.623,8,400,8,,ISIC_9978498.JPG
break,html.Screen,4_107_1,2023-10-31T17:04:54.668Z,,0,,,NaN,,,,,,false,,,,688624.6000000238,688624.1999999881,,688623.6000000238,,688638.623,8,400,,,
break_continue,html.Screen,4_107_2,2023-10-31T17:04:54.668Z,,0,,,NaN,,,,,,false,,,,688625.3000000119,688625,,688624.8000000119,,688638.623,8,400,,,
sequence,flow.Sequence,4_107,2023-10-31T17:04:54.669Z,,0,,,3302.9220000000205,completion,,,,,false,,,,688625.6999999881,688625,685305.385,685307.4000000358,685322.078,688638.623,8,400,,,
trial,html.Screen,4_108_0,2023-10-31T17:04:59.008Z,,0,3,,4325.876999999979,response,ISIC_0000375.JPG,5,ISIC_6609484.JPG,ISIC_6609484.JPG,false,0,keypress(z),500,692965,692964.5,688622.202,688626,688638.623,692972.004,8,400,9,,ISIC_0000375.JPG
break,html.Screen,4_108_1,2023-10-31T17:04:59.010Z,,0,,,NaN,,,,,,false,,,,692966.4000000358,692966,,692965.4000000358,,692972.004,8,400,,,
break_continue,html.Screen,4_108_2,2023-10-31T17:04:59.010Z,,0,,,NaN,,,,,,false,,,,692967.3000000119,692967,,692966.8000000119,,692972.004,8,400,,,
sequence,flow.Sequence,4_108,2023-10-31T17:04:59.011Z,,0,,,4328.376999999979,completion,,,,,false,,,,692967.6999999881,692967,688622.202,688625.9000000358,688638.623,692972.004,8,400,,,
trial,html.Screen,4_109_0,2023-10-31T17:05:02.374Z,,0,3,,3358.3960000358056,response,ISIC_0027956.JPG,5,ISIC_0000022.JPG,ISIC_0000022.JPG,false,0,keypress(z),500,696330.9000000358,696330.4000000358,692955.53,692968,692972.004,696338.524,8,400,10,,ISIC_0027956.JPG
break,html.Screen,4_109_1,2023-10-31T17:05:02.375Z,,0,,,NaN,,,,,,false,,,,696332.1000000238,696331.8000000119,,696331.1999999881,,696338.524,8,400,,,
break_continue,html.Screen,4_109_2,2023-10-31T17:05:02.376Z,,0,,,NaN,,,,,,false,,,,696332.9000000358,696332.6000000238,,696332.4000000358,,696338.524,8,400,,,
sequence,flow.Sequence,4_109,2023-10-31T17:05:02.376Z,,0,,,3360.5960000238847,completion,,,,,false,,,,696333.3000000119,696332.6000000238,692955.53,692967.8000000119,692972.004,696338.524,8,400,,,
trial,html.Screen,4_110_0,2023-10-31T17:05:05.292Z,,0,3,,2909.776000011945,response,ISIC_0025215.JPG,6,ISIC_1530981.JPG,ISIC_0025215.JPG,false,1,keypress(m),500,699248.5,699248.3000000119,696322.196,696333.6000000238,696338.524,699255.178,8,400,11,,ISIC_1530981.JPG
break,html.Screen,4_110_1,2023-10-31T17:05:05.292Z,,0,,,NaN,,,,,,false,,,,699248.6999999881,699248.6999999881,,699248.5,,699255.178,8,400,,,
break_continue,html.Screen,4_110_2,2023-10-31T17:05:05.292Z,,0,,,NaN,,,,,,false,,,,699248.9000000358,699248.9000000358,,699248.8000000119,,699255.178,8,400,,,
sequence,flow.Sequence,4_110,2023-10-31T17:05:05.292Z,,0,,,2910.376000035787,completion,,,,,false,,,,699249,699248.9000000358,696322.196,696333.4000000358,696338.524,699255.178,8,400,,,
trial,html.Screen,4_111_0,2023-10-31T17:05:08.957Z,,0,3,,3658.8220000000438,response,ISIC_0031642.JPG,5,ISIC_9765024.JPG,ISIC_9765024.JPG,false,0,keypress(z),500,702914.1999999881,702914,699238.532,699249,699255.178,702938.514,8,400,12,,ISIC_0031642.JPG
break,html.Screen,4_111_1,2023-10-31T17:05:08.958Z,,0,,,NaN,,,,,,false,,,,702914.5,702914.4000000358,,702914.1999999881,,702938.514,8,400,,,
break_continue,html.Screen,4_111_2,2023-10-31T17:05:08.958Z,,0,,,NaN,,,,,,false,,,,702914.6999999881,702914.6999999881,,702914.6000000238,,702938.514,8,400,,,
sequence,flow.Sequence,4_111,2023-10-31T17:05:08.958Z,,0,,,3659.521999988123,completion,,,,,false,,,,702914.9000000358,702914.6999999881,699238.532,699249,699255.178,702938.514,8,400,,,
trial,html.Screen,4_112_0,2023-10-31T17:05:11.664Z,,0,3,,2681.8860000357963,response,ISIC_0014164.JPG,6,ISIC_0032313.JPG,ISIC_0014164.JPG,false,1,keypress(m),500,705620.6999999881,705620.4000000358,702921.834,702914.9000000358,702938.514,705638.784,8,400,13,,ISIC_0032313.JPG
break,html.Screen,4_112_1,2023-10-31T17:05:11.665Z,,0,,,NaN,,,,,,false,,,,705621.6999999881,705621.5,,705621,,705638.784,8,400,,,
break_continue,html.Screen,4_112_2,2023-10-31T17:05:11.665Z,,0,,,NaN,,,,,,false,,,,705622.1999999881,705622.1000000238,,705621.9000000358,,705638.784,8,400,,,
sequence,flow.Sequence,4_112,2023-10-31T17:05:11.666Z,,0,,,2683.5860000238754,completion,,,,,false,,,,705622.5,705622.1000000238,702921.834,702914.9000000358,702938.514,705638.784,8,400,,,
trial,html.Screen,4_113_0,2023-10-31T17:05:15.013Z,,0,3,,3330.6160000357777,response,ISIC_1132966.JPG,5,ISIC_0033211.JPG,ISIC_1132966.JPG,false,1,keypress(m),500,708969.8000000119,708969.4000000358,705605.314,705622.6999999881,705638.784,708989.489,8,400,14,,ISIC_0033211.JPG
break,html.Screen,4_113_1,2023-10-31T17:05:15.014Z,,0,,,NaN,,,,,,false,,,,708970.9000000358,708970.6000000238,,708970.1000000238,,708989.489,8,400,,,
break_continue,html.Screen,4_113_2,2023-10-31T17:05:15.015Z,,0,,,NaN,,,,,,false,,,,708971.6000000238,708971.3000000119,,708971.1000000238,,708989.489,8,400,,,
sequence,flow.Sequence,4_113,2023-10-31T17:05:15.015Z,,0,,,3332.516000011936,completion,,,,,false,,,,708971.8000000119,708971.3000000119,705605.314,705622.6000000238,705638.784,708989.489,8,400,,,
trial,html.Screen,4_114_0,2023-10-31T17:05:19.482Z,,0,3,,4449.311000011978,response,ISIC_0030774.JPG,5,ISIC_0032701.JPG,ISIC_0032701.JPG,false,0,keypress(z),500,713439.1000000238,713438.8000000119,708955.205,708972,708989.489,713455.329,8,400,15,,ISIC_0030774.JPG
break,html.Screen,4_114_1,2023-10-31T17:05:19.484Z,,0,,,NaN,,,,,,false,,,,713440.6000000238,713440.1000000238,,713439.6000000238,,713455.329,8,400,,,
break_continue,html.Screen,4_114_2,2023-10-31T17:05:19.484Z,,0,,,NaN,,,,,,false,,,,713441.1999999881,713441,,713440.6999999881,,713455.329,8,400,,,
sequence,flow.Sequence,4_114,2023-10-31T17:05:19.485Z,,0,,,4451.511000000057,completion,,,,,false,,,,713441.6000000238,713441,708955.205,708971.9000000358,708989.489,713455.329,8,400,,,
trial,html.Screen,4_115_0,2023-10-31T17:05:22.751Z,,0,3,,3252.471000011894,response,ISIC_0027091.JPG,6,ISIC_4023381.JPG,ISIC_4023381.JPG,false,0,keypress(z),500,716708.1999999881,716707.8000000119,713438.845,713441.9000000358,713455.329,716721.922,8,400,16,,ISIC_0027091.JPG
break,html.Screen,4_115_1,2023-10-31T17:05:22.753Z,,0,,,NaN,,,,,,false,,,,716709.6000000238,716709.3000000119,,716708.6000000238,,716721.922,8,400,,,
break_continue,html.Screen,4_115_2,2023-10-31T17:05:22.754Z,,0,,,NaN,,,,,,false,,,,716710.4000000358,716710.1999999881,,716709.9000000358,,716721.922,8,400,,,
sequence,flow.Sequence,4_115,2023-10-31T17:05:22.754Z,,0,,,3254.870999988052,completion,,,,,false,,,,716710.8000000119,716710.1999999881,713438.845,713441.8000000119,713455.329,716721.922,8,400,,,
trial,html.Screen,4_116_0,2023-10-31T17:05:26.133Z,,0,3,,3367.1780000238214,response,ISIC_0014926.JPG,5,ISIC_0058828.JPG,ISIC_0014926.JPG,false,1,keypress(m),500,720089.5,720089.1000000238,716705.323,716711.1000000238,716721.922,720105.458,8,400,17,,ISIC_0058828.JPG
break,html.Screen,4_116_1,2023-10-31T17:05:26.134Z,,0,,,NaN,,,,,,false,,,,720090.6000000238,720090.3000000119,,720089.8000000119,,720105.458,8,400,,,
break_continue,html.Screen,4_116_2,2023-10-31T17:05:26.134Z,,0,,,NaN,,,,,,false,,,,720091.3000000119,720091,,720090.9000000358,,720105.458,8,400,,,
sequence,flow.Sequence,4_116,2023-10-31T17:05:26.135Z,,0,,,3369.0779999999795,completion,,,,,false,,,,720091.5,720091,716705.323,716711,716721.922,720105.458,8,400,,,
trial,html.Screen,4_117_0,2023-10-31T17:05:29.436Z,,0,3,,3284.9420000357786,response,ISIC_0054480.JPG,7,ISIC_5426854.JPG,ISIC_5426854.JPG,false,0,keypress(z),500,723390.9000000358,723390.4000000358,720088.806,720091.6999999881,720105.458,723421.925,8,400,18,,ISIC_0054480.JPG
break,html.Screen,4_117_1,2023-10-31T17:05:29.437Z,,0,,,NaN,,,,,,false,,,,723392.1000000238,723391.8000000119,,723391.1999999881,,723421.925,8,400,,,
break_continue,html.Screen,4_117_2,2023-10-31T17:05:29.438Z,,0,,,NaN,,,,,,false,,,,723392.8000000119,723392.6000000238,,723392.4000000358,,723421.925,8,400,,,
sequence,flow.Sequence,4_117,2023-10-31T17:05:29.438Z,,0,,,3287.1420000238577,completion,,,,,false,,,,723393.1999999881,723392.6000000238,720088.806,720091.6999999881,720105.458,723421.925,8,400,,,
trial,html.Screen,4_118_0,2023-10-31T17:05:33.442Z,,0,3,,3974.5749999999534,response,ISIC_0059501.JPG,5,ISIC_9106966.JPG,ISIC_0059501.JPG,false,1,keypress(m),500,727396.8000000119,727396.5,723405.383,723393.5,723421.925,727405.376,8,400,19,,ISIC_9106966.JPG
break,html.Screen,4_118_1,2023-10-31T17:05:33.444Z,,0,,,NaN,,,,,,false,,,,727398.3000000119,727397.9000000358,,727397.3000000119,,727405.376,8,400,,,
break_continue,html.Screen,4_118_2,2023-10-31T17:05:33.444Z,,0,,,NaN,,,,,,false,,,,727399.1000000238,727398.9000000358,,727398.6000000238,,727405.376,8,400,,,
sequence,flow.Sequence,4_118,2023-10-31T17:05:33.445Z,,0,,,3976.975000035716,completion,,,,,false,,,,727399.5,727398.9000000358,723405.383,723393.4000000358,723421.925,727405.376,8,400,,,
trial,html.Screen,4_119_0,2023-10-31T17:05:36.663Z,,0,3,,3212.3239999880316,response,ISIC_0061066.JPG,5,ISIC_0030296.JPG,ISIC_0030296.JPG,false,0,keypress(z),500,730618.1999999881,730617.6999999881,727388.741,727399.8000000119,727405.376,730621.881,8,400,20,,ISIC_0061066.JPG
break,html.Screen,4_119_1,2023-10-31T17:05:36.665Z,,0,,,NaN,,,,,,false,,,,730619.4000000358,730619.1000000238,,730618.5,,730621.881,8,400,,,
break_continue,html.Screen,4_119_2,2023-10-31T17:05:36.665Z,,0,,,NaN,,,,,,false,,,,730620.1999999881,730619.9000000358,,730619.8000000119,,730621.881,8,400,,,
sequence,flow.Sequence,4_119,2023-10-31T17:05:36.666Z,,0,,,3214.5240000357153,completion,,,,,false,,,,730620.6000000238,730619.9000000358,727388.741,727399.8000000119,727405.376,730621.881,8,400,,,
trial,html.Screen,4_120_0,2023-10-31T17:05:39.997Z,,0,3,,3329.618999999948,response,ISIC_0059625.JPG,5,ISIC_0029028.JPG,ISIC_0029028.JPG,false,0,keypress(z),500,733951.6999999881,733951.5,730605.197,730620.9000000358,730621.881,733955.186,8,400,21,,ISIC_0059625.JPG
break,html.Screen,4_120_1,2023-10-31T17:05:39.998Z,,0,,,NaN,,,,,,false,,,,733952.6000000238,733952.4000000358,,733952,,733955.186,8,400,,,
break_continue,html.Screen,4_120_2,2023-10-31T17:05:39.998Z,,0,,,NaN,,,,,,false,,,,733953.1000000238,733953,,733952.6999999881,,733955.186,8,400,,,
sequence,flow.Sequence,4_120,2023-10-31T17:05:39.998Z,,0,,,3331.118999999948,completion,,,,,false,,,,733953.3000000119,733953,730605.197,730620.8000000119,730621.881,733955.186,8,400,,,
trial,html.Screen,4_121_0,2023-10-31T17:05:42.993Z,,0,3,,2992.614000011934,response,ISIC_0030077.JPG,6,ISIC_1774797.JPG,ISIC_1774797.JPG,false,0,keypress(z),500,736948,736947.8000000119,733938.453,733953.6000000238,733955.186,736955.167,8,400,22,,ISIC_0030077.JPG
break,html.Screen,4_121_1,2023-10-31T17:05:42.994Z,,0,,,NaN,,,,,,false,,,,736948.8000000119,736948.6000000238,,736948.3000000119,,736955.167,8,400,,,
break_continue,html.Screen,4_121_2,2023-10-31T17:05:42.994Z,,0,,,NaN,,,,,,false,,,,736949.1999999881,736949,,736948.9000000358,,736955.167,8,400,,,
sequence,flow.Sequence,4_121,2023-10-31T17:05:42.995Z,,0,,,2993.814000000013,completion,,,,,false,,,,736949.4000000358,736949,733938.453,733953.5,733955.186,736955.167,8,400,,,
trial,html.Screen,4_122_0,2023-10-31T17:05:45.685Z,,0,3,,2684.633000011905,response,ISIC_0006744.JPG,5,ISIC_0060705.JPG,ISIC_0006744.JPG,false,1,keypress(m),500,739640.1999999881,739639.8000000119,736938.691,736949.6000000238,736955.167,739655.342,8,400,23,,ISIC_0060705.JPG
break,html.Screen,4_122_1,2023-10-31T17:05:45.687Z,,0,,,NaN,,,,,,false,,,,739642,739641.5,,739640.8000000119,,739655.342,8,400,,,
break_continue,html.Screen,4_122_2,2023-10-31T17:05:45.688Z,,0,,,NaN,,,,,,false,,,,739642.9000000358,739642.6000000238,,739642.3000000119,,739655.342,8,400,,,
sequence,flow.Sequence,4_122,2023-10-31T17:05:45.688Z,,0,,,2687.433000023826,completion,,,,,false,,,,739643.3000000119,739642.6000000238,736938.691,736949.5,736955.167,739655.342,8,400,,,
trial,html.Screen,4_123_0,2023-10-31T17:05:48.876Z,,0,3,,3174.758000023896,response,ISIC_6635590.JPG,4,ISIC_0010866.JPG,ISIC_6635590.JPG,false,1,keypress(m),500,742830.6000000238,742830.1000000238,739638.601,739643.6000000238,739655.342,742838.558,8,400,24,,ISIC_0010866.JPG
break,html.Screen,4_123_1,2023-10-31T17:05:48.877Z,,0,,,NaN,,,,,,false,,,,742831.8000000119,742831.4000000358,,742830.9000000358,,742838.558,8,400,,,
break_continue,html.Screen,4_123_2,2023-10-31T17:05:48.878Z,,0,,,NaN,,,,,,false,,,,742832.8000000119,742832.5,,742832.1999999881,,742838.558,8,400,,,
sequence,flow.Sequence,4_123,2023-10-31T17:05:48.878Z,,0,,,3177.158000000054,completion,,,,,false,,,,742833.1999999881,742832.5,739638.601,739643.5,739655.342,742838.558,8,400,,,
trial,html.Screen,4_124_0,2023-10-31T17:05:51.684Z,,0,3,,2800.342000035802,response,ISIC_0066094.JPG,6,ISIC_0009230.JPG,ISIC_0009230.JPG,false,0,keypress(z),500,745639.3000000119,745638.9000000358,742822.081,742833.5,742838.558,745655.41,8,400,25,,ISIC_0066094.JPG
break,html.Screen,4_124_1,2023-10-31T17:05:51.686Z,,0,,,NaN,,,,,,false,,,,745640.6999999881,745640.4000000358,,745639.6999999881,,745655.41,8,400,,,
break_continue,html.Screen,4_124_2,2023-10-31T17:05:51.687Z,,0,,,NaN,,,,,,false,,,,745641.8000000119,745641.3000000119,,745641.1000000238,,745655.41,8,400,,,
sequence,flow.Sequence,4_124,2023-10-31T17:05:51.687Z,,0,,,2802.74200001196,completion,,,,,false,,,,745642.3000000119,745641.3000000119,742822.081,742833.4000000358,742838.558,745655.41,8,400,,,
trial,html.Screen,4_125_0,2023-10-31T17:05:55.883Z,,0,3,,4181.589999999967,response,ISIC_0028757.JPG,6,ISIC_9906799.JPG,ISIC_0028757.JPG,false,1,keypress(m),500,749837.5,749837,745638.591,745642.6000000238,745655.41,749871.953,8,400,26,,ISIC_9906799.JPG
break,html.Screen,4_125_1,2023-10-31T17:05:55.884Z,,0,,,NaN,,,,,,false,,,,749838.6999999881,749838.4000000358,,749837.9000000358,,749871.953,8,400,,,
break_continue,html.Screen,4_125_2,2023-10-31T17:05:55.885Z,,0,,,NaN,,,,,,false,,,,749839.6000000238,749839.3000000119,,749839.1000000238,,749871.953,8,400,,,
sequence,flow.Sequence,4_125,2023-10-31T17:05:55.885Z,,0,,,4183.890000011888,completion,,,,,false,,,,749840.3000000119,749839.3000000119,745638.591,745642.6000000238,745655.41,749871.953,8,400,,,
