sender,sender_type,sender_id,timestamp,meta,,blockNo,condition,duration,ended_on,img_left,img_reveal,img_right,loser,practice,response,response_action,selection_duration,time_commit,time_end,time_render,time_run,time_show,time_switch,total_blocks,total_trials,trialNo,url,winner
informed_consent,html.Screen,0,2023-09-15T16:39:54.423Z,"{""labjs_version"":""20.2.4"",""labjs_build"":{""flavor"":""production"",""commit"":""f5b4a49f956347addd546a832a3327688c2c0fef""},""location"":""https://run.pavlovia.org/MurrayBennett/melanoma-2afc/?participant=67381&platform=sona"",""userAgent"":""Mozilla/5.0 (Windows NT 10.0; Win64; x64) AppleWebKit/537.36 (KHTML, like Gecko) Chrome/116.0.0.0 Safari/537.36 Edg/116.0.1938.81"",""platform"":""Win32"",""language"":""en-US"",""locale"":""en-US"",""timeZone"":""America/Chicago"",""timezoneOffset"":300,""screen_width"":1536,""screen_height"":1024,""scroll_width"":1488,""scroll_height"":854,""window_innerWidth"":1488,""window_innerHeight"":902,""devicePixelRatio"":1}",,,,2813.725000023842,response,,,,,,consent,click button,,5293.700000017881,5291.100000023842,2110.749,2476.5,2477.375,5310.413,,,,"{""participant"":""67381"",""platform"":""sona""}",
Welcome,html.Screen,1,2023-09-15T16:40:00.790Z,,,,asymmetry,6347.887000011921,response,,,,,,continue,click button,,11660.5,11658.300000011921,5277.085,5294.100000023842,5310.413,11695.614,,,,,
trial,html.Screen,2_0_0,2023-09-15T16:40:12.323Z,,0,0,,11519.186,timeout,ISIC_6997061.JPG,,ISIC_0069348.JPG,,true,,,500,23193.5,23193,11645.553,11660.90000000596,11695.614,23214.8,1,6,1,,
sequence,flow.Sequence,2_0,2023-09-15T16:40:12.323Z,,0,,,11497.386,completion,,,,,true,,,,23193.80000001192,23193,11645.553,11660.800000011921,11695.614,23214.8,1,6,,,
trial,html.Screen,2_1_0,2023-09-15T16:40:18.499Z,,0,0,,6154.400000017882,response,ISIC_0009529.JPG,,ISIC_0057368.JPG,ISIC_0057368.JPG,true,0,keypress(z),500,29369.600000023842,29369.20000001788,23180.711,23194,23214.8,29407.41,1,6,2,,ISIC_0009529.JPG
sequence,flow.Sequence,2_1,2023-09-15T16:40:18.499Z,,0,,,6154.400000017882,completion,,,,,true,,,,29369.90000000596,29369.20000001788,23180.711,23193.90000000596,23214.8,29407.41,1,6,,,
trial,html.Screen,2_2_0,2023-09-15T16:40:24.603Z,,0,0,,6066.190000023842,response,ISIC_9758671.JPG,,ISIC_0064954.JPG,ISIC_9758671.JPG,true,1,keypress(m),500,35474.10000002384,35473.60000002384,29369.018,29370.100000023842,29407.41,35512.09,1,6,3,,ISIC_0064954.JPG
sequence,flow.Sequence,2_2,2023-09-15T16:40:24.604Z,,0,,,6066.190000023842,completion,,,,,true,,,,35474.5,35473.60000002384,29369.018,29370,29407.41,35512.09,1,6,,,
trial,html.Screen,2_3_0,2023-09-15T16:40:28.716Z,,0,0,,4074.4100000000035,response,ISIC_0000080.JPG,,ISIC_0005785.JPG,ISIC_0005785.JPG,true,0,keypress(z),500,39587,39586.5,35473.08,35474.70000001788,35512.09,39625.162,1,6,4,,ISIC_0000080.JPG
sequence,flow.Sequence,2_3,2023-09-15T16:40:28.717Z,,0,,,4074.4100000000035,completion,,,,,true,,,,39587.5,39586.5,35473.08,35474.70000001788,35512.09,39625.162,1,6,,,
trial,html.Screen,2_4_0,2023-09-15T16:40:34.405Z,,0,0,,5650.438000023845,response,ISIC_7944028.JPG,,ISIC_5390060.JPG,ISIC_7944028.JPG,true,1,keypress(m),500,45276.10000002384,45275.60000002384,39579.306,39587.70000001788,39625.162,45314.11,1,6,5,,ISIC_5390060.JPG
sequence,flow.Sequence,2_4,2023-09-15T16:40:34.406Z,,0,,,5650.438000023845,completion,,,,,true,,,,45276.40000000596,45275.60000002384,39579.306,39587.60000002384,39625.162,45314.11,1,6,,,
trial,html.Screen,2_5_0,2023-09-15T16:40:39.322Z,,0,0,,4878.090000017881,response,ISIC_0010188.JPG,,ISIC_0794216.JPG,ISIC_0794216.JPG,true,0,keypress(z),500,50192.60000002384,50192.20000001788,45267.975,45276.70000001788,45314.11,50214.259,1,6,6,,ISIC_0010188.JPG
sequence,flow.Sequence,2_5,2023-09-15T16:40:39.322Z,,0,,,4878.090000017881,completion,,,,,true,,,,50193,50192.20000001788,45267.975,45276.5,45314.11,50214.259,1,6,,,
loop,flow.Loop,2,2023-09-15T16:40:39.323Z,,,,,38496.58600001788,completion,,,,,true,,,,50193.20000001788,50192.20000001788,11645.553,11660.700000017881,11695.614,50214.259,1,6,,,
exp_instructions,html.Screen,3,2023-09-15T16:40:42.917Z,,,,,3572.441000017883,response,,,,,,continue,keypress(Space),,53787.90000000596,53786.70000001788,50178.956,50193.30000001192,50214.259,53825.686,,,,,
trial,html.Screen,4_0_0,2023-09-15T16:40:48.433Z,,0,1,,5477.41400002384,response,ISIC_8207974.JPG,1,ISIC_0034068.JPG,ISIC_8207974.JPG,false,1,keypress(m),500,59303.40000000596,59303.10000002384,53778.868,53788.10000002384,53825.686,59326.168,8,400,1,,ISIC_0034068.JPG
break,html.Screen,4_0_1,2023-09-15T16:40:48.434Z,,0,,,NaN,,,,,,false,,,,59305,59304.5,,59303.60000002384,,59326.168,8,400,,,
break_continue,html.Screen,4_0_2,2023-09-15T16:40:48.435Z,,0,,,NaN,,,,,,false,,,,59305.60000002384,59305.40000000596,,59305.20000001788,,59326.168,8,400,,,
sequence,flow.Sequence,4_0,2023-09-15T16:40:48.435Z,,0,,,5479.714000005959,completion,,,,,false,,,,59305.80000001192,59305.40000000596,53778.868,53788.10000002384,53825.686,59326.168,8,400,,,
trial,html.Screen,4_1_0,2023-09-15T16:40:53.994Z,,0,1,,5532.932000023844,response,ISIC_8570555.JPG,8,ISIC_2151846.JPG,ISIC_8570555.JPG,false,1,keypress(m),500,64859.60000002384,64859.10000002384,59288.954,59306,59326.168,64897.153,8,400,2,,ISIC_2151846.JPG
break,html.Screen,4_1_1,2023-09-15T16:40:53.995Z,,0,,,NaN,,,,,,false,,,,64860.70000001788,64860.40000000596,,64859.90000000596,,64897.153,8,400,,,
break_continue,html.Screen,4_1_2,2023-09-15T16:40:53.996Z,,0,,,NaN,,,,,,false,,,,64861.20000001788,64861,,64860.90000000596,,64897.153,8,400,,,
sequence,flow.Sequence,4_1,2023-09-15T16:40:53.996Z,,0,,,5534.832000000002,completion,,,,,false,,,,64861.40000000596,64861,59288.954,59306,59326.168,64897.153,8,400,,,
trial,html.Screen,4_2_0,2023-09-15T16:40:59.754Z,,0,1,,5721.947000023843,response,ISIC_0010543.JPG,7,ISIC_8865595.JPG,ISIC_8865595.JPG,false,0,keypress(z),500,70619.40000000596,70619.10000002384,64856.989,64861.5,64897.153,70657.224,8,400,3,,ISIC_0010543.JPG
break,html.Screen,4_2_1,2023-09-15T16:40:59.755Z,,0,,,NaN,,,,,,false,,,,70620.40000000596,70620.20000001788,,70619.60000002384,,70657.224,8,400,,,
break_continue,html.Screen,4_2_2,2023-09-15T16:40:59.756Z,,0,,,NaN,,,,,,false,,,,70620.90000000596,70620.80000001192,,70620.70000001788,,70657.224,8,400,,,
sequence,flow.Sequence,4_2,2023-09-15T16:40:59.756Z,,0,,,5723.6470000119225,completion,,,,,false,,,,70621.20000001788,70620.80000001192,64856.989,64861.40000000596,64897.153,70657.224,8,400,,,
trial,html.Screen,4_3_0,2023-09-15T16:41:05.229Z,,0,1,,5436.87600002384,response,ISIC_0024317.JPG,9,ISIC_0030681.JPG,ISIC_0024317.JPG,false,1,keypress(m),500,76094.5,76094.10000002384,70610.23,70621.20000001788,70657.224,76132.346,8,400,4,,ISIC_0030681.JPG
break,html.Screen,4_3_1,2023-09-15T16:41:05.231Z,,0,,,NaN,,,,,,false,,,,76095.70000001788,76095.60000002384,,76094.90000000596,,76132.346,8,400,,,
break_continue,html.Screen,4_3_2,2023-09-15T16:41:05.231Z,,0,,,NaN,,,,,,false,,,,76096.40000000596,76096.10000002384,,76096,,76132.346,8,400,,,
sequence,flow.Sequence,4_3,2023-09-15T16:41:05.231Z,,0,,,5438.87600002384,completion,,,,,false,,,,76096.5,76096.10000002384,70610.23,70621.20000001788,70657.224,76132.346,8,400,,,
trial,html.Screen,4_4_0,2023-09-15T16:41:08.735Z,,0,1,,3467.3540000178764,response,ISIC_7351443.JPG,7,ISIC_4554863.JPG,ISIC_4554863.JPG,false,0,keypress(z),500,79599.90000000596,79599.70000001788,76091.139,76096.70000001788,76132.346,79628.188,8,400,5,,ISIC_7351443.JPG
break,html.Screen,4_4_1,2023-09-15T16:41:08.736Z,,0,,,NaN,,,,,,false,,,,79601,79600.70000001788,,79600.20000001788,,79628.188,8,400,,,
break_continue,html.Screen,4_4_2,2023-09-15T16:41:08.736Z,,0,,,NaN,,,,,,false,,,,79601.60000002384,79601.5,,79601.30000001192,,79628.188,8,400,,,
sequence,flow.Sequence,4_4,2023-09-15T16:41:08.737Z,,0,,,3469.153999999995,completion,,,,,false,,,,79601.90000000596,79601.5,76091.139,76096.70000001788,76132.346,79628.188,8,400,,,
trial,html.Screen,4_5_0,2023-09-15T16:41:11.963Z,,0,1,,3199.3120000000054,response,ISIC_0054671.JPG,85,ISIC_0000164.JPG,ISIC_0054671.JPG,false,1,keypress(m),500,82827.80000001192,82827.5,79593.821,79602,79628.188,82865.513,8,400,6,,ISIC_0000164.JPG
break,html.Screen,4_5_1,2023-09-15T16:41:11.964Z,,0,,,NaN,,,,,,false,,,,82829,82828.70000001788,,82828,,82865.513,8,400,,,
break_continue,html.Screen,4_5_2,2023-09-15T16:41:11.964Z,,0,,,NaN,,,,,,false,,,,82829.60000002384,82829.40000000596,,82829.20000001788,,82865.513,8,400,,,
sequence,flow.Sequence,4_5,2023-09-15T16:41:11.965Z,,0,,,3201.212000005966,completion,,,,,false,,,,82829.70000001788,82829.40000000596,79593.821,79601.90000000596,79628.188,82865.513,8,400,,,
trial,html.Screen,4_6_0,2023-09-15T16:41:15.858Z,,0,1,,3857.7870000119146,response,ISIC_0032047.JPG,7,ISIC_8814398.JPG,ISIC_8814398.JPG,false,0,keypress(z),500,86723.60000002384,86723.30000001192,82817.333,82829.90000000596,82865.513,86744.94,8,400,7,,ISIC_0032047.JPG
break,html.Screen,4_6_1,2023-09-15T16:41:15.860Z,,0,,,NaN,,,,,,false,,,,86724.90000000596,86724.40000000596,,86723.80000001192,,86744.94,8,400,,,
break_continue,html.Screen,4_6_2,2023-09-15T16:41:15.861Z,,0,,,NaN,,,,,,false,,,,86725.80000001192,86725.70000001788,,86725.5,,86744.94,8,400,,,
sequence,flow.Sequence,4_6,2023-09-15T16:41:15.861Z,,0,,,3860.187000017875,completion,,,,,false,,,,86726.10000002384,86725.70000001788,82817.333,82829.80000001192,82865.513,86744.94,8,400,,,
trial,html.Screen,4_7_0,2023-09-15T16:41:24.790Z,,0,1,,8909.66000002384,response,ISIC_0003539.JPG,967,ISIC_0005854.JPG,ISIC_0005854.JPG,false,0,keypress(z),500,95654.90000000596,95654.60000002384,86708.763,86726.20000001788,86744.94,95678.366,8,400,8,,ISIC_0003539.JPG
break,html.Screen,4_7_1,2023-09-15T16:41:24.791Z,,0,,,NaN,,,,,,false,,,,95656.10000002384,95655.90000000596,,95655.20000001788,,95678.366,8,400,,,
break_continue,html.Screen,4_7_2,2023-09-15T16:41:24.792Z,,0,,,NaN,,,,,,false,,,,95656.70000001788,95656.60000002384,,95656.40000000596,,95678.366,8,400,,,
sequence,flow.Sequence,4_7,2023-09-15T16:41:24.792Z,,0,,,8911.66000002384,completion,,,,,false,,,,95656.90000000596,95656.60000002384,86708.763,86726.20000001788,86744.94,95678.366,8,400,,,
trial,html.Screen,4_8_0,2023-09-15T16:41:35.629Z,,0,1,,10815.434000011926,response,ISIC_9106966.JPG,3,ISIC_0028415.JPG,ISIC_9106966.JPG,false,1,keypress(m),500,106494.20000001788,106493.80000001192,95641.931,95657,95678.366,106529.832,8,400,9,,ISIC_0028415.JPG
break,html.Screen,4_8_1,2023-09-15T16:41:35.630Z,,0,,,NaN,,,,,,false,,,,106495.30000001192,106495,,106494.40000000596,,106529.832,8,400,,,
break_continue,html.Screen,4_8_2,2023-09-15T16:41:35.631Z,,0,,,NaN,,,,,,false,,,,106495.80000001192,106495.70000001788,,106495.5,,106529.832,8,400,,,
sequence,flow.Sequence,4_8,2023-09-15T16:41:35.631Z,,0,,,10817.334000017887,completion,,,,,false,,,,106496,106495.70000001788,95641.931,95656.90000000596,95678.366,106529.832,8,400,,,
trial,html.Screen,4_9_0,2023-09-15T16:41:39.322Z,,0,1,,3657.668000000005,response,ISIC_3737739.JPG,7,ISIC_0014093.JPG,ISIC_3737739.JPG,false,1,keypress(m),500,110187.70000001788,110187.5,106494.693,106496.10000002384,106529.832,110209.365,8,400,10,,ISIC_0014093.JPG
break,html.Screen,4_9_1,2023-09-15T16:41:39.324Z,,0,,,NaN,,,,,,false,,,,110188.70000001788,110188.5,,110187.90000000596,,110209.365,8,400,,,
break_continue,html.Screen,4_9_2,2023-09-15T16:41:39.324Z,,0,,,NaN,,,,,,false,,,,110189.30000001192,110189.20000001788,,110189,,110209.365,8,400,,,
sequence,flow.Sequence,4_9,2023-09-15T16:41:39.324Z,,0,,,3659.3680000178865,completion,,,,,false,,,,110189.5,110189.20000001788,106494.693,106496,106529.832,110209.365,8,400,,,
trial,html.Screen,4_10_0,2023-09-15T16:41:45.534Z,,0,1,,6189.235000023837,response,ISIC_8986997.JPG,493,ISIC_0066532.JPG,ISIC_0066532.JPG,false,0,keypress(z),500,116399,116398.60000002384,110172.706,110189.60000002384,110209.365,116471.501,8,400,11,,ISIC_8986997.JPG
break,html.Screen,4_10_1,2023-09-15T16:41:45.535Z,,0,,,NaN,,,,,,false,,,,116400,116399.80000001192,,116399.30000001192,,116471.501,8,400,,,
break_continue,html.Screen,4_10_2,2023-09-15T16:41:45.535Z,,0,,,NaN,,,,,,false,,,,116400.30000001192,116400.20000001788,,116400.10000002384,,116471.501,8,400,,,
sequence,flow.Sequence,4_10,2023-09-15T16:41:45.535Z,,0,,,6190.835000017876,completion,,,,,false,,,,116400.5,116400.20000001788,110172.706,110189.60000002384,110209.365,116471.501,8,400,,,
trial,html.Screen,4_11_0,2023-09-15T16:41:57.316Z,,0,1,,11747.171000000002,timeout,ISIC_9088774.JPG,7,ISIC_0370008.JPG,,false,,,500,128180.90000000596,128180.60000002384,116421.544,116400.60000002384,116471.501,128218.672,8,400,12,,
break,html.Screen,4_11_1,2023-09-15T16:41:57.317Z,,0,,,NaN,,,,,,false,,,,128181.80000001192,128181.60000002384,,128181.10000002384,,128218.672,8,400,,,
break_continue,html.Screen,4_11_2,2023-09-15T16:41:57.318Z,,0,,,NaN,,,,,,false,,,,128182.90000000596,128182.70000001788,,128182.60000002384,,128218.672,8,400,,,
sequence,flow.Sequence,4_11,2023-09-15T16:41:57.318Z,,0,,,11711.199000017878,completion,,,,,false,,,,128183,128182.70000001788,116421.544,116400.60000002384,116471.501,128218.672,8,400,,,
trial,html.Screen,4_12_0,2023-09-15T16:42:01.693Z,,0,1,,4339.2280000059545,response,ISIC_6352730.JPG,499,ISIC_9965754.JPG,ISIC_9965754.JPG,false,0,keypress(z),500,132558.20000001788,132557.90000000596,128171.134,128183.20000001788,128218.672,132579.605,8,400,13,,ISIC_6352730.JPG
break,html.Screen,4_12_1,2023-09-15T16:42:01.694Z,,0,,,NaN,,,,,,false,,,,132559.20000001788,132559,,132558.40000000596,,132579.605,8,400,,,
break_continue,html.Screen,4_12_2,2023-09-15T16:42:01.695Z,,0,,,NaN,,,,,,false,,,,132559.90000000596,132559.70000001788,,132559.60000002384,,132579.605,8,400,,,
sequence,flow.Sequence,4_12,2023-09-15T16:42:01.695Z,,0,,,4341.0280000178755,completion,,,,,false,,,,132560.10000002384,132559.70000001788,128171.134,128183.20000001788,128218.672,132579.605,8,400,,,
trial,html.Screen,4_13_0,2023-09-15T16:42:05.386Z,,0,1,,3670.6950000119105,response,ISIC_4699989.JPG,6,ISIC_0475506.JPG,ISIC_4699989.JPG,false,1,keypress(m),500,136250.70000001788,136250.30000001192,132543.404,132560.20000001788,132579.605,136291.342,8,400,14,,ISIC_0475506.JPG
break,html.Screen,4_13_1,2023-09-15T16:42:05.387Z,,0,,,NaN,,,,,,false,,,,136251.80000001192,136251.5,,136250.80000001192,,136291.342,8,400,,,
break_continue,html.Screen,4_13_2,2023-09-15T16:42:05.387Z,,0,,,NaN,,,,,,false,,,,136252.30000001192,136252.10000002384,,136251.90000000596,,136291.342,8,400,,,
sequence,flow.Sequence,4_13,2023-09-15T16:42:05.387Z,,0,,,3672.4950000238314,completion,,,,,false,,,,136252.40000000596,136252.10000002384,132543.404,132560.20000001788,132579.605,136291.342,8,400,,,
trial,html.Screen,4_14_0,2023-09-15T16:42:09.414Z,,0,1,,3987.4580000119167,response,ISIC_0000358.JPG,433,ISIC_0053542.JPG,ISIC_0000358.JPG,false,1,keypress(m),500,140279.10000002384,140278.80000001192,136242.826,136252.60000002384,136291.342,140316.781,8,400,15,,ISIC_0053542.JPG
break,html.Screen,4_14_1,2023-09-15T16:42:09.415Z,,0,,,NaN,,,,,,false,,,,140280.10000002384,140279.90000000596,,140279.30000001192,,140316.781,8,400,,,
break_continue,html.Screen,4_14_2,2023-09-15T16:42:09.416Z,,0,,,NaN,,,,,,false,,,,140280.60000002384,140280.5,,140280.30000001192,,140316.781,8,400,,,
sequence,flow.Sequence,4_14,2023-09-15T16:42:09.416Z,,0,,,3989.157999999996,completion,,,,,false,,,,140280.90000000596,140280.5,136242.826,136252.5,136291.342,140316.781,8,400,,,
trial,html.Screen,4_15_0,2023-09-15T16:42:15.339Z,,0,1,,5886.519000011933,response,ISIC_0386664.JPG,6,ISIC_5063476.JPG,ISIC_5063476.JPG,false,0,keypress(z),500,146203.70000001788,146203.30000001192,140275.648,140281,140316.781,146279.779,8,400,16,,ISIC_0386664.JPG
break,html.Screen,4_15_1,2023-09-15T16:42:15.340Z,,0,,,NaN,,,,,,false,,,,146204.60000002384,146204.40000000596,,146203.90000000596,,146279.779,8,400,,,
break_continue,html.Screen,4_15_2,2023-09-15T16:42:15.340Z,,0,,,NaN,,,,,,false,,,,146204.90000000596,146204.90000000596,,146204.70000001788,,146279.779,8,400,,,
sequence,flow.Sequence,4_15,2023-09-15T16:42:15.340Z,,0,,,5888.119000005972,completion,,,,,false,,,,146205.10000002384,146204.90000000596,140275.648,140281,140316.781,146279.779,8,400,,,
trial,html.Screen,4_16_0,2023-09-15T16:42:19.686Z,,0,1,,4270.921000017872,response,ISIC_0069370.JPG,11,ISIC_0034012.JPG,ISIC_0034012.JPG,false,0,keypress(z),500,150551.10000002384,150550.70000001788,146230.042,146205.20000001788,146279.779,150593.865,8,400,17,,ISIC_0069370.JPG
break,html.Screen,4_16_1,2023-09-15T16:42:19.687Z,,0,,,NaN,,,,,,false,,,,150552,150551.80000001192,,150551.20000001788,,150593.865,8,400,,,
break_continue,html.Screen,4_16_2,2023-09-15T16:42:19.688Z,,0,,,NaN,,,,,,false,,,,150552.60000002384,150552.40000000596,,150552.30000001192,,150593.865,8,400,,,
sequence,flow.Sequence,4_16,2023-09-15T16:42:19.688Z,,0,,,4272.621000005951,completion,,,,,false,,,,150552.80000001192,150552.40000000596,146230.042,146205.20000001788,146279.779,150593.865,8,400,,,
trial,html.Screen,4_17_0,2023-09-15T16:42:24.560Z,,0,1,,4831.235000023851,response,ISIC_9936773.JPG,132,ISIC_0033090.JPG,ISIC_9936773.JPG,false,1,keypress(m),500,155425.5,155425.10000002384,150546.911,150552.80000001192,150593.865,155463.147,8,400,18,,ISIC_0033090.JPG
break,html.Screen,4_17_1,2023-09-15T16:42:24.562Z,,0,,,NaN,,,,,,false,,,,155426.60000002384,155426.30000001192,,155425.70000001788,,155463.147,8,400,,,
break_continue,html.Screen,4_17_2,2023-09-15T16:42:24.562Z,,0,,,NaN,,,,,,false,,,,155427,155426.90000000596,,155426.70000001788,,155463.147,8,400,,,
sequence,flow.Sequence,4_17,2023-09-15T16:42:24.562Z,,0,,,4833.03500000597,completion,,,,,false,,,,155427.20000001788,155426.90000000596,150546.911,150552.80000001192,150593.865,155463.147,8,400,,,
trial,html.Screen,4_18_0,2023-09-15T16:42:28.016Z,,0,1,,3417.553000017884,response,ISIC_0000393.JPG,6,ISIC_4419686.JPG,ISIC_4419686.JPG,false,0,keypress(z),500,158881,158880.70000001788,155416.033,155427.30000001192,155463.147,158918.684,8,400,19,,ISIC_0000393.JPG
break,html.Screen,4_18_1,2023-09-15T16:42:28.018Z,,0,,,NaN,,,,,,false,,,,158882.60000002384,158881.80000001192,,158881.20000001788,,158918.684,8,400,,,
break_continue,html.Screen,4_18_2,2023-09-15T16:42:28.018Z,,0,,,NaN,,,,,,false,,,,158883.10000002384,158882.90000000596,,158882.80000001192,,158918.684,8,400,,,
sequence,flow.Sequence,4_18,2023-09-15T16:42:28.018Z,,0,,,3419.7530000059633,completion,,,,,false,,,,158883.30000001192,158882.90000000596,155416.033,155427.30000001192,155463.147,158918.684,8,400,,,
trial,html.Screen,4_19_0,2023-09-15T16:42:34.086Z,,0,1,,6032.4160000238335,response,ISIC_5336007.JPG,806,ISIC_1166740.JPG,ISIC_1166740.JPG,false,0,keypress(z),500,164951.40000000596,164951.10000002384,158869.939,158883.5,158918.684,164977.059,8,400,20,,ISIC_5336007.JPG
break,html.Screen,4_19_1,2023-09-15T16:42:34.087Z,,0,,,NaN,,,,,,false,,,,164952.5,164952.30000001192,,164951.60000002384,,164977.059,8,400,,,
break_continue,html.Screen,4_19_2,2023-09-15T16:42:34.088Z,,0,,,NaN,,,,,,false,,,,164953.30000001192,164953.10000002384,,164952.90000000596,,164977.059,8,400,,,
sequence,flow.Sequence,4_19,2023-09-15T16:42:34.088Z,,0,,,6034.4160000238335,completion,,,,,false,,,,164953.5,164953.10000002384,158869.939,158883.40000000596,158918.684,164977.059,8,400,,,
trial,html.Screen,4_20_0,2023-09-15T16:42:38.992Z,,0,1,,4879.341000005952,response,ISIC_0068544.JPG,6,ISIC_1650523.JPG,ISIC_0068544.JPG,false,1,keypress(m),500,169856.70000001788,169856.40000000596,164939.5,164953.5,164977.059,169894.487,8,400,21,,ISIC_1650523.JPG
break,html.Screen,4_20_1,2023-09-15T16:42:38.993Z,,0,,,NaN,,,,,,false,,,,169857.70000001788,169857.5,,169856.90000000596,,169894.487,8,400,,,
break_continue,html.Screen,4_20_2,2023-09-15T16:42:38.994Z,,0,,,NaN,,,,,,false,,,,169858.80000001192,169858.60000002384,,169858.5,,169894.487,8,400,,,
sequence,flow.Sequence,4_20,2023-09-15T16:42:38.994Z,,0,,,4881.5410000238335,completion,,,,,false,,,,169859,169858.60000002384,164939.5,164953.5,164977.059,169894.487,8,400,,,
trial,html.Screen,4_21_0,2023-09-15T16:42:42.736Z,,0,1,,3706.5130000000063,response,ISIC_4249893.JPG,9,ISIC_9921747.JPG,ISIC_4249893.JPG,false,1,keypress(m),500,173601.30000001192,173601,169850.474,169859.20000001788,169894.487,173639.209,8,400,22,,ISIC_9921747.JPG
break,html.Screen,4_21_1,2023-09-15T16:42:42.738Z,,0,,,NaN,,,,,,false,,,,173602.60000002384,173602.20000001788,,173601.5,,173639.209,8,400,,,
break_continue,html.Screen,4_21_2,2023-09-15T16:42:42.738Z,,0,,,NaN,,,,,,false,,,,173603.20000001788,173603.10000002384,,173602.80000001192,,173639.209,8,400,,,
sequence,flow.Sequence,4_21,2023-09-15T16:42:42.738Z,,0,,,3708.613000023848,completion,,,,,false,,,,173603.40000000596,173603.10000002384,169850.474,169859,169894.487,173639.209,8,400,,,
trial,html.Screen,4_22_0,2023-09-15T16:42:46.032Z,,0,1,,3257.8910000238393,response,ISIC_8956001.JPG,84,ISIC_0028548.JPG,ISIC_8956001.JPG,false,1,keypress(m),500,176897.40000000596,176897.10000002384,173593.998,173603.5,173639.209,176935.022,8,400,23,,ISIC_0028548.JPG
break,html.Screen,4_22_1,2023-09-15T16:42:46.033Z,,0,,,NaN,,,,,,false,,,,176898.40000000596,176898.20000001788,,176897.70000001788,,176935.022,8,400,,,
break_continue,html.Screen,4_22_2,2023-09-15T16:42:46.034Z,,0,,,NaN,,,,,,false,,,,176899,176898.90000000596,,176898.70000001788,,176935.022,8,400,,,
sequence,flow.Sequence,4_22,2023-09-15T16:42:46.034Z,,0,,,3259.691000005958,completion,,,,,false,,,,176899.30000001192,176898.90000000596,173593.998,173603.5,173639.209,176935.022,8,400,,,
trial,html.Screen,4_23_0,2023-09-15T16:42:51.187Z,,0,1,,5116.878000005963,response,ISIC_0029453.JPG,5,ISIC_2916754.JPG,ISIC_2916754.JPG,false,0,keypress(z),500,182052.10000002384,182051.90000000596,176889.179,176899.40000000596,176935.022,182090.019,8,400,24,,ISIC_0029453.JPG
break,html.Screen,4_23_1,2023-09-15T16:42:51.188Z,,0,,,NaN,,,,,,false,,,,182053.40000000596,182053.10000002384,,182052.40000000596,,182090.019,8,400,,,
break_continue,html.Screen,4_23_2,2023-09-15T16:42:51.189Z,,0,,,NaN,,,,,,false,,,,182054.40000000596,182054.30000001192,,182054.20000001788,,182090.019,8,400,,,
sequence,flow.Sequence,4_23,2023-09-15T16:42:51.189Z,,0,,,5119.278000011924,completion,,,,,false,,,,182054.60000002384,182054.30000001192,176889.179,176899.30000001192,176935.022,182090.019,8,400,,,
trial,html.Screen,4_24_0,2023-09-15T16:42:54.579Z,,0,1,,3353.681000017881,response,ISIC_5005869.JPG,6,ISIC_1373468.JPG,ISIC_5005869.JPG,false,1,keypress(m),500,185444.30000001192,185443.70000001788,182047.244,182054.70000001788,182090.019,185470.643,8,400,25,,ISIC_1373468.JPG
break,html.Screen,4_24_1,2023-09-15T16:42:54.581Z,,0,,,NaN,,,,,,false,,,,185445.60000002384,185445.30000001192,,185444.5,,185470.643,8,400,,,
break_continue,html.Screen,4_24_2,2023-09-15T16:42:54.581Z,,0,,,NaN,,,,,,false,,,,185446.20000001788,185446,,185445.90000000596,,185470.643,8,400,,,
sequence,flow.Sequence,4_24,2023-09-15T16:42:54.581Z,,0,,,3355.9809999999998,completion,,,,,false,,,,185446.30000001192,185446,182047.244,182054.70000001788,182090.019,185470.643,8,400,,,
trial,html.Screen,4_25_0,2023-09-15T16:42:58.022Z,,0,1,,3415.65700001191,response,ISIC_4223155.JPG,242,ISIC_7351939.JPG,ISIC_4223155.JPG,false,1,keypress(m),500,188886.70000001788,188886.30000001192,185436.216,185446.60000002384,185470.643,188924.205,8,400,26,,ISIC_7351939.JPG
break,html.Screen,4_25_1,2023-09-15T16:42:58.023Z,,0,,,NaN,,,,,,false,,,,188887.70000001788,188887.5,,188886.90000000596,,188924.205,8,400,,,
break_continue,html.Screen,4_25_2,2023-09-15T16:42:58.024Z,,0,,,NaN,,,,,,false,,,,188888.70000001788,188888.60000002384,,188888.40000000596,,188924.205,8,400,,,
sequence,flow.Sequence,4_25,2023-09-15T16:42:58.024Z,,0,,,3417.957000023831,completion,,,,,false,,,,188888.90000000596,188888.60000002384,185436.216,185446.5,185470.643,188924.205,8,400,,,
trial,html.Screen,4_26_0,2023-09-15T16:43:01.510Z,,0,1,,3450.8950000238547,response,ISIC_0030107.JPG,5,ISIC_0072473.JPG,ISIC_0030107.JPG,false,1,keypress(m),500,192375.5,192375.10000002384,188875.831,188889.10000002384,188924.205,192418.884,8,400,27,,ISIC_0072473.JPG
break,html.Screen,4_26_1,2023-09-15T16:43:01.512Z,,0,,,NaN,,,,,,false,,,,192376.70000001788,192376.5,,192375.80000001192,,192418.884,8,400,,,
break_continue,html.Screen,4_26_2,2023-09-15T16:43:01.512Z,,0,,,NaN,,,,,,false,,,,192377.30000001192,192377.10000002384,,192377,,192418.884,8,400,,,
sequence,flow.Sequence,4_26,2023-09-15T16:43:01.512Z,,0,,,3452.8950000238547,completion,,,,,false,,,,192377.5,192377.10000002384,188875.831,188889,188924.205,192418.884,8,400,,,
trial,html.Screen,4_27_0,2023-09-15T16:43:07.301Z,,0,1,,5746.716000023851,response,ISIC_1611503.JPG,306,ISIC_2183722.JPG,ISIC_1611503.JPG,false,1,keypress(m),500,198166,198165.60000002384,192374.246,192377.60000002384,192418.884,198204.177,8,400,28,,ISIC_2183722.JPG
break,html.Screen,4_27_1,2023-09-15T16:43:07.302Z,,0,,,NaN,,,,,,false,,,,198167.20000001788,198166.90000000596,,198166.20000001788,,198204.177,8,400,,,
break_continue,html.Screen,4_27_2,2023-09-15T16:43:07.303Z,,0,,,NaN,,,,,,false,,,,198167.90000000596,198167.70000001788,,198167.60000002384,,198204.177,8,400,,,
sequence,flow.Sequence,4_27,2023-09-15T16:43:07.303Z,,0,,,5748.8160000178905,completion,,,,,false,,,,198168.20000001788,198167.70000001788,192374.246,192377.5,192418.884,198204.177,8,400,,,
trial,html.Screen,4_28_0,2023-09-15T16:43:11.466Z,,0,1,,4126.823000000004,response,ISIC_7699223.JPG,19,ISIC_0030592.JPG,ISIC_7699223.JPG,false,1,keypress(m),500,202331.20000001788,202331,198164.342,198168.20000001788,198204.177,202371.797,8,400,29,,ISIC_0030592.JPG
break,html.Screen,4_28_1,2023-09-15T16:43:11.467Z,,0,,,NaN,,,,,,false,,,,202332.10000002384,202332,,202331.5,,202371.797,8,400,,,
break_continue,html.Screen,4_28_2,2023-09-15T16:43:11.467Z,,0,,,NaN,,,,,,false,,,,202332.5,202332.40000000596,,202332.20000001788,,202371.797,8,400,,,
sequence,flow.Sequence,4_28,2023-09-15T16:43:11.468Z,,0,,,4128.223000005964,completion,,,,,false,,,,202332.70000001788,202332.40000000596,198164.342,198168.20000001788,198204.177,202371.797,8,400,,,
trial,html.Screen,4_29_0,2023-09-15T16:43:15.852Z,,0,1,,4345.3030000238505,response,ISIC_1120654.JPG,354,ISIC_4707475.JPG,ISIC_4707475.JPG,false,0,keypress(z),500,206717.5,206717.10000002384,202338.357,202332.70000001788,202371.797,206755.098,8,400,30,,ISIC_1120654.JPG
break,html.Screen,4_29_1,2023-09-15T16:43:15.853Z,,0,,,NaN,,,,,,false,,,,206718.5,206718.30000001192,,206717.70000001788,,206755.098,8,400,,,
break_continue,html.Screen,4_29_2,2023-09-15T16:43:15.854Z,,0,,,NaN,,,,,,false,,,,206719.10000002384,206719,,206718.80000001192,,206755.098,8,400,,,
sequence,flow.Sequence,4_29,2023-09-15T16:43:15.854Z,,0,,,4347.203000000009,completion,,,,,false,,,,206719.30000001192,206719,202338.357,202332.70000001788,202371.797,206755.098,8,400,,,
trial,html.Screen,4_30_0,2023-09-15T16:43:19.534Z,,0,1,,3643.6020000178833,response,ISIC_0025523.JPG,8,ISIC_9933790.JPG,ISIC_9933790.JPG,false,0,keypress(z),500,210398.90000000596,210398.70000001788,206708.06,206719.40000000596,206755.098,210419.604,8,400,31,,ISIC_0025523.JPG
break,html.Screen,4_30_1,2023-09-15T16:43:19.535Z,,0,,,NaN,,,,,,false,,,,210400.20000001788,210399.80000001192,,210399.20000001788,,210419.604,8,400,,,
break_continue,html.Screen,4_30_2,2023-09-15T16:43:19.536Z,,0,,,NaN,,,,,,false,,,,210400.80000001192,210400.60000002384,,210400.5,,210419.604,8,400,,,
sequence,flow.Sequence,4_30,2023-09-15T16:43:19.536Z,,0,,,3645.5020000238437,completion,,,,,false,,,,210401.10000002384,210400.60000002384,206708.06,206719.40000000596,206755.098,210419.604,8,400,,,
trial,html.Screen,4_31_0,2023-09-15T16:43:23.891Z,,0,1,,4336.096000017889,response,ISIC_5231145.JPG,290,ISIC_0031931.JPG,ISIC_5231145.JPG,false,1,keypress(m),500,214755.90000000596,214755.70000001788,210384.006,210401.20000001788,210419.604,214793.645,8,400,32,,ISIC_0031931.JPG
break,html.Screen,4_31_1,2023-09-15T16:43:23.892Z,,0,,,NaN,,,,,,false,,,,214757,214756.80000001192,,214756.20000001788,,214793.645,8,400,,,
break_continue,html.Screen,4_31_2,2023-09-15T16:43:23.892Z,,0,,,NaN,,,,,,false,,,,214757.5,214757.40000000596,,214757.20000001788,,214793.645,8,400,,,
sequence,flow.Sequence,4_31,2023-09-15T16:43:23.893Z,,0,,,4337.796000005968,completion,,,,,false,,,,214757.70000001788,214757.40000000596,210384.006,210401.20000001788,210419.604,214793.645,8,400,,,
trial,html.Screen,4_32_0,2023-09-15T16:43:28.042Z,,0,1,,4112.8550000000105,response,ISIC_0056444.JPG,6,ISIC_0068413.JPG,ISIC_0056444.JPG,false,1,keypress(m),500,218906.80000001192,218906.5,214750.456,214757.90000000596,214793.645,218934.337,8,400,33,,ISIC_0068413.JPG
break,html.Screen,4_32_1,2023-09-15T16:43:28.043Z,,0,,,NaN,,,,,,false,,,,218908.10000002384,218907.80000001192,,218907.20000001788,,218934.337,8,400,,,
break_continue,html.Screen,4_32_2,2023-09-15T16:43:28.043Z,,0,,,NaN,,,,,,false,,,,218908.60000002384,218908.5,,218908.40000000596,,218934.337,8,400,,,
sequence,flow.Sequence,4_32,2023-09-15T16:43:28.044Z,,0,,,4114.8550000000105,completion,,,,,false,,,,218908.70000001788,218908.5,214750.456,214757.80000001192,214793.645,218934.337,8,400,,,
trial,html.Screen,4_33_0,2023-09-15T16:43:32.585Z,,0,1,,4515.6630000000005,response,ISIC_5868291.JPG,777,ISIC_9225640.JPG,ISIC_9225640.JPG,false,0,keypress(z),500,223450.40000000596,223450,218898.024,218908.90000000596,218934.337,223487.997,8,400,34,,ISIC_5868291.JPG
break,html.Screen,4_33_1,2023-09-15T16:43:32.586Z,,0,,,NaN,,,,,,false,,,,223451.40000000596,223451.20000001788,,223450.60000002384,,223487.997,8,400,,,
break_continue,html.Screen,4_33_2,2023-09-15T16:43:32.587Z,,0,,,NaN,,,,,,false,,,,223452.10000002384,223451.80000001192,,223451.70000001788,,223487.997,8,400,,,
sequence,flow.Sequence,4_33,2023-09-15T16:43:32.587Z,,0,,,4517.463000011921,completion,,,,,false,,,,223452.30000001192,223451.80000001192,218898.024,218908.90000000596,218934.337,223487.997,8,400,,,
trial,html.Screen,4_34_0,2023-09-15T16:43:36.568Z,,0,1,,3945.002999999997,response,ISIC_0067205.JPG,7,ISIC_7632525.JPG,ISIC_7632525.JPG,false,0,keypress(z),500,227433.20000001788,227433,223441.919,223452.40000000596,223487.997,227470.608,8,400,35,,ISIC_0067205.JPG
break,html.Screen,4_34_1,2023-09-15T16:43:36.569Z,,0,,,NaN,,,,,,false,,,,227434.20000001788,227434,,227433.40000000596,,227470.608,8,400,,,
break_continue,html.Screen,4_34_2,2023-09-15T16:43:36.570Z,,0,,,NaN,,,,,,false,,,,227434.70000001788,227434.5,,227434.40000000596,,227470.608,8,400,,,
sequence,flow.Sequence,4_34,2023-09-15T16:43:36.570Z,,0,,,3946.502999999997,completion,,,,,false,,,,227434.90000000596,227434.5,223441.919,223452.30000001192,223487.997,227470.608,8,400,,,
trial,html.Screen,4_35_0,2023-09-15T16:43:40.454Z,,0,1,,3847.792000005953,response,ISIC_0030017.JPG,245,ISIC_6119202.JPG,ISIC_0030017.JPG,false,1,keypress(m),500,231318.80000001192,231318.40000000596,227432.435,227435,227470.608,231356.175,8,400,36,,ISIC_6119202.JPG
break,html.Screen,4_35_1,2023-09-15T16:43:40.455Z,,0,,,NaN,,,,,,false,,,,231320.10000002384,231319.60000002384,,231318.90000000596,,231356.175,8,400,,,
break_continue,html.Screen,4_35_2,2023-09-15T16:43:40.456Z,,0,,,NaN,,,,,,false,,,,231320.80000001192,231320.60000002384,,231320.40000000596,,231356.175,8,400,,,
sequence,flow.Sequence,4_35,2023-09-15T16:43:40.456Z,,0,,,3849.9920000238344,completion,,,,,false,,,,231321,231320.60000002384,227432.435,227434.90000000596,227470.608,231356.175,8,400,,,
trial,html.Screen,4_36_0,2023-09-15T16:43:47.023Z,,0,1,,6531.125000011933,response,ISIC_5055871.JPG,7,ISIC_0025316.JPG,ISIC_5055871.JPG,false,1,keypress(m),500,237887.80000001192,237887.30000001192,231316.436,231321.20000001788,231356.175,237925.537,8,400,37,,ISIC_0025316.JPG
break,html.Screen,4_36_1,2023-09-15T16:43:47.024Z,,0,,,NaN,,,,,,false,,,,237888.90000000596,237888.70000001788,,237888,,237925.537,8,400,,,
break_continue,html.Screen,4_36_2,2023-09-15T16:43:47.024Z,,0,,,NaN,,,,,,false,,,,237889.5,237889.30000001192,,237889.20000001788,,237925.537,8,400,,,
sequence,flow.Sequence,4_36,2023-09-15T16:43:47.025Z,,0,,,6533.125000011933,completion,,,,,false,,,,237889.60000002384,237889.30000001192,231316.436,231321.20000001788,231356.175,237925.537,8,400,,,
trial,html.Screen,4_37_0,2023-09-15T16:43:52.729Z,,0,1,,5668.76300001191,response,ISIC_4803943.JPG,5,ISIC_6313487.JPG,ISIC_6313487.JPG,false,0,keypress(z),500,243594.60000002384,243594.30000001192,237886.739,237889.80000001192,237925.537,243632.368,8,400,38,,ISIC_4803943.JPG
break,html.Screen,4_37_1,2023-09-15T16:43:52.731Z,,0,,,NaN,,,,,,false,,,,243595.80000001192,243595.40000000596,,243594.90000000596,,243632.368,8,400,,,
break_continue,html.Screen,4_37_2,2023-09-15T16:43:52.732Z,,0,,,NaN,,,,,,false,,,,243596.80000001192,243596.60000002384,,243596.40000000596,,243632.368,8,400,,,
sequence,flow.Sequence,4_37,2023-09-15T16:43:52.732Z,,0,,,5671.063000023831,completion,,,,,false,,,,243596.90000000596,243596.60000002384,237886.739,237889.80000001192,237925.537,243632.368,8,400,,,
trial,html.Screen,4_38_0,2023-09-15T16:43:56.202Z,,0,1,,3434.4320000119333,response,ISIC_1350519.JPG,6,ISIC_0066109.JPG,ISIC_0066109.JPG,false,0,keypress(z),500,247067.20000001788,247066.80000001192,243584.101,243597.10000002384,243632.368,247092.693,8,400,39,,ISIC_1350519.JPG
break,html.Screen,4_38_1,2023-09-15T16:43:56.203Z,,0,,,NaN,,,,,,false,,,,247068.30000001192,247068,,247067.40000000596,,247092.693,8,400,,,
break_continue,html.Screen,4_38_2,2023-09-15T16:43:56.204Z,,0,,,NaN,,,,,,false,,,,247068.80000001192,247068.70000001788,,247068.5,,247092.693,8,400,,,
sequence,flow.Sequence,4_38,2023-09-15T16:43:56.204Z,,0,,,3436.3320000178937,completion,,,,,false,,,,247069,247068.70000001788,243584.101,243597,243632.368,247092.693,8,400,,,
trial,html.Screen,4_39_0,2023-09-15T16:44:00.454Z,,0,1,,4226.207000005961,response,ISIC_9227392.JPG,620,ISIC_9852341.JPG,ISIC_9227392.JPG,false,1,keypress(m),500,251319.20000001788,251318.90000000596,247058.413,247069.20000001788,247092.693,251355.71,8,400,40,,ISIC_9852341.JPG
break,html.Screen,4_39_1,2023-09-15T16:44:00.455Z,,0,,,NaN,,,,,,false,,,,251320.20000001788,251319.90000000596,,251319.40000000596,,251355.71,8,400,,,
break_continue,html.Screen,4_39_2,2023-09-15T16:44:00.456Z,,0,,,NaN,,,,,,false,,,,251320.60000002384,251320.60000002384,,251320.5,,251355.71,8,400,,,
sequence,flow.Sequence,4_39,2023-09-15T16:44:00.456Z,,0,,,4227.907000023843,completion,,,,,false,,,,251320.80000001192,251320.60000002384,247058.413,247069.10000002384,247092.693,251355.71,8,400,,,
trial,html.Screen,4_40_0,2023-09-15T16:44:05.295Z,,0,1,,4804.190000005969,response,ISIC_0055147.JPG,4,ISIC_1251811.JPG,ISIC_1251811.JPG,false,0,keypress(z),500,256160.30000001192,256159.90000000596,251313.81,251321,251355.71,256198,8,400,41,,ISIC_0055147.JPG
break,html.Screen,4_40_1,2023-09-15T16:44:05.296Z,,0,,,NaN,,,,,,false,,,,256161.40000000596,256161,,256160.5,,256198,8,400,,,
break_continue,html.Screen,4_40_2,2023-09-15T16:44:05.297Z,,0,,,NaN,,,,,,false,,,,256162,256161.80000001192,,256161.70000001788,,256198,8,400,,,
sequence,flow.Sequence,4_40,2023-09-15T16:44:05.297Z,,0,,,4806.090000011929,completion,,,,,false,,,,256162.20000001788,256161.80000001192,251313.81,251320.90000000596,251355.71,256198,8,400,,,
trial,html.Screen,4_41_0,2023-09-15T16:44:08.399Z,,0,1,,3065.4000000059605,response,ISIC_4427755.JPG,13,ISIC_9433388.JPG,ISIC_9433388.JPG,false,0,keypress(z),500,259263.70000001788,259263.40000000596,256160.462,256162.40000000596,256198,259301.658,8,400,42,,ISIC_4427755.JPG
break,html.Screen,4_41_1,2023-09-15T16:44:08.400Z,,0,,,NaN,,,,,,false,,,,259265,259264.60000002384,,259264,,259301.658,8,400,,,
break_continue,html.Screen,4_41_2,2023-09-15T16:44:08.400Z,,0,,,NaN,,,,,,false,,,,259265.5,259265.30000001192,,259265.30000001192,,259301.658,8,400,,,
sequence,flow.Sequence,4_41,2023-09-15T16:44:08.401Z,,0,,,3067.300000011921,completion,,,,,false,,,,259265.80000001192,259265.30000001192,256160.462,256162.40000000596,256198,259301.658,8,400,,,
trial,html.Screen,4_42_0,2023-09-15T16:44:11.398Z,,0,1,,2961.342000000004,response,ISIC_0066382.JPG,7,ISIC_0060978.JPG,ISIC_0060978.JPG,false,0,keypress(z),500,262263.3000000119,262263,259252.757,259265.90000000596,259301.658,262301.086,8,400,43,,ISIC_0066382.JPG
break,html.Screen,4_42_1,2023-09-15T16:44:11.399Z,,0,,,NaN,,,,,,false,,,,262264.60000002384,262264.2000000179,,262263.60000002384,,262301.086,8,400,,,
break_continue,html.Screen,4_42_2,2023-09-15T16:44:11.400Z,,0,,,NaN,,,,,,false,,,,262265.10000002384,262265,,262264.90000000596,,262301.086,8,400,,,
sequence,flow.Sequence,4_42,2023-09-15T16:44:11.400Z,,0,,,2963.342000000004,completion,,,,,false,,,,262265.40000000596,262265,259252.757,259265.90000000596,259301.658,262301.086,8,400,,,
trial,html.Screen,4_43_0,2023-09-15T16:44:14.517Z,,0,1,,3080.4139999999898,response,ISIC_6340564.JPG,8,ISIC_7354733.JPG,ISIC_6340564.JPG,false,1,keypress(m),500,265382,265381.5,262259.474,262265.60000002384,262301.086,265408.858,8,400,44,,ISIC_7354733.JPG
break,html.Screen,4_43_1,2023-09-15T16:44:14.518Z,,0,,,NaN,,,,,,false,,,,265383.10000002384,265382.90000000596,,265382.2000000179,,265408.858,8,400,,,
break_continue,html.Screen,4_43_2,2023-09-15T16:44:14.519Z,,0,,,NaN,,,,,,false,,,,265383.8000000119,265383.60000002384,,265383.40000000596,,265408.858,8,400,,,
sequence,flow.Sequence,4_43,2023-09-15T16:44:14.519Z,,0,,,3082.5140000238316,completion,,,,,false,,,,265384,265383.60000002384,262259.474,262265.5,262301.086,265408.858,8,400,,,
trial,html.Screen,4_44_0,2023-09-15T16:44:17.667Z,,0,1,,3123.042000005953,response,ISIC_9854454.JPG,308,ISIC_0062318.JPG,ISIC_9854454.JPG,false,1,keypress(m),500,268532.3000000119,268531.90000000596,265373.537,265384.2000000179,265408.858,268569.82,8,400,45,,ISIC_0062318.JPG
break,html.Screen,4_44_1,2023-09-15T16:44:17.668Z,,0,,,NaN,,,,,,false,,,,268533.3000000119,268533.10000002384,,268532.5,,268569.82,8,400,,,
break_continue,html.Screen,4_44_2,2023-09-15T16:44:17.669Z,,0,,,NaN,,,,,,false,,,,268533.90000000596,268533.7000000179,,268533.5,,268569.82,8,400,,,
sequence,flow.Sequence,4_44,2023-09-15T16:44:17.669Z,,0,,,3124.842000017874,completion,,,,,false,,,,268534.10000002384,268533.7000000179,265373.537,265384.2000000179,265408.858,268569.82,8,400,,,
trial,html.Screen,4_45_0,2023-09-15T16:44:21.646Z,,0,1,,3941.280000023835,response,ISIC_9217340.JPG,5,ISIC_8759726.JPG,ISIC_8759726.JPG,false,0,keypress(z),500,272511.40000000596,272511.10000002384,268524.439,268534.2000000179,268569.82,272547.845,8,400,46,,ISIC_9217340.JPG
break,html.Screen,4_45_1,2023-09-15T16:44:21.647Z,,0,,,NaN,,,,,,false,,,,272512.40000000596,272512.2000000179,,272511.60000002384,,272547.845,8,400,,,
break_continue,html.Screen,4_45_2,2023-09-15T16:44:21.648Z,,0,,,NaN,,,,,,false,,,,272513.10000002384,272512.90000000596,,272512.7000000179,,272547.845,8,400,,,
sequence,flow.Sequence,4_45,2023-09-15T16:44:21.648Z,,0,,,3943.0800000059535,completion,,,,,false,,,,272513.3000000119,272512.90000000596,268524.439,268534.2000000179,268569.82,272547.845,8,400,,,
trial,html.Screen,4_46_0,2023-09-15T16:44:30.048Z,,0,1,,8364.455000011949,response,ISIC_0012081.JPG,181,ISIC_0015258.JPG,ISIC_0015258.JPG,false,0,keypress(z),500,280912.8000000119,280912.3000000119,272511.681,272513.5,272547.845,280950.679,8,400,47,,ISIC_0012081.JPG
break,html.Screen,4_46_1,2023-09-15T16:44:30.049Z,,0,,,NaN,,,,,,false,,,,280914.10000002384,280913.60000002384,,280913.10000002384,,280950.679,8,400,,,
break_continue,html.Screen,4_46_2,2023-09-15T16:44:30.050Z,,0,,,NaN,,,,,,false,,,,280915,280914.90000000596,,280914.7000000179,,280950.679,8,400,,,
sequence,flow.Sequence,4_46,2023-09-15T16:44:30.050Z,,0,,,8367.055000005988,completion,,,,,false,,,,280915.2000000179,280914.90000000596,272511.681,272513.40000000596,272547.845,280950.679,8,400,,,
trial,html.Screen,4_47_0,2023-09-15T16:44:34.201Z,,0,1,,4114.820999999996,response,ISIC_1504257.JPG,6,ISIC_6637542.JPG,ISIC_6637542.JPG,false,0,keypress(z),500,285065.90000000596,285065.5,280903.433,280915.40000000596,280950.679,285087.176,8,400,48,,ISIC_1504257.JPG
break,html.Screen,4_47_1,2023-09-15T16:44:34.202Z,,0,,,NaN,,,,,,false,,,,285067.10000002384,285066.60000002384,,285066.10000002384,,285087.176,8,400,,,
break_continue,html.Screen,4_47_2,2023-09-15T16:44:34.203Z,,0,,,NaN,,,,,,false,,,,285068.10000002384,285067.90000000596,,285067.7000000179,,285087.176,8,400,,,
sequence,flow.Sequence,4_47,2023-09-15T16:44:34.203Z,,0,,,4117.221000005957,completion,,,,,false,,,,285068.2000000179,285067.90000000596,280903.433,280915.40000000596,280950.679,285087.176,8,400,,,
trial,html.Screen,4_48_0,2023-09-15T16:44:37.931Z,,0,1,,3708.6240000119433,response,ISIC_9059250.JPG,624,ISIC_7503950.JPG,ISIC_7503950.JPG,false,0,keypress(z),500,288796.10000002384,288795.8000000119,285051.905,285068.40000000596,285087.176,288833.723,8,400,49,,ISIC_9059250.JPG
break,html.Screen,4_48_1,2023-09-15T16:44:37.932Z,,0,,,NaN,,,,,,false,,,,288797.10000002384,288796.90000000596,,288796.3000000119,,288833.723,8,400,,,
break_continue,html.Screen,4_48_2,2023-09-15T16:44:37.933Z,,0,,,NaN,,,,,,false,,,,288798.10000002384,288798,,288797.8000000119,,288833.723,8,400,,,
sequence,flow.Sequence,4_48,2023-09-15T16:44:37.933Z,,0,,,3710.8240000000224,completion,,,,,false,,,,288798.2000000179,288798,285051.905,285068.40000000596,285087.176,288833.723,8,400,,,
trial,html.Screen,4_49_0,2023-09-15T16:44:40.948Z,,0,1,,2979.277000000002,response,ISIC_4001990.JPG,5,ISIC_0010409.JPG,ISIC_4001990.JPG,false,1,keypress(m),500,291813.40000000596,291813,288791.843,288798.40000000596,288833.723,291851.437,8,400,50,,ISIC_0010409.JPG
break,html.Screen,4_49_1,2023-09-15T16:44:51.320Z,,0,,,10333.764000000025,timeout,,,,,false,,,,302185,302184.7000000179,291809.335,291813.8000000119,291851.437,302185.201,8,400,,,
break_continue,html.Screen,4_49_2,2023-09-15T16:44:53.841Z,,0,,,2505.899000023841,response,,,,,false,continue,keypress(Space),,304705.7000000179,304691.10000002384,302184.7000000179,302185.2000000179,302185.201,304733.428,8,400,,,
sequence,flow.Sequence,4_49,2023-09-15T16:44:53.841Z,,0,,,15857.377000023844,completion,,,,,false,,,,304705.90000000596,304691.10000002384,288791.843,288798.40000000596,288833.723,304733.428,8,400,,,
trial,html.Screen,4_50_0,2023-09-15T16:44:56.998Z,,0,2,,3129.6720000238274,response,ISIC_0024401.JPG,7,ISIC_0032701.JPG,ISIC_0032701.JPG,false,0,keypress(z),500,307863.40000000596,307863.10000002384,304697.249,304706,304733.428,307901.395,8,400,1,,ISIC_0024401.JPG
break,html.Screen,4_50_1,2023-09-15T16:44:57.000Z,,0,,,NaN,,,,,,false,,,,307864.8000000119,307864.40000000596,,307863.7000000179,,307901.395,8,400,,,
break_continue,html.Screen,4_50_2,2023-09-15T16:44:57.000Z,,0,,,NaN,,,,,,false,,,,307865.3000000119,307865.10000002384,,307865,,307901.395,8,400,,,
sequence,flow.Sequence,4_50,2023-09-15T16:44:57.000Z,,0,,,3131.6720000238274,completion,,,,,false,,,,307865.5,307865.10000002384,304697.249,304706,304733.428,307901.395,8,400,,,
trial,html.Screen,4_51_0,2023-09-15T16:45:01.831Z,,0,2,,4794.005000005942,response,ISIC_3928910.JPG,6,ISIC_0011460.JPG,ISIC_3928910.JPG,false,1,keypress(m),500,312695.7000000179,312695.40000000596,307860.968,307865.60000002384,307901.395,312733.436,8,400,2,,ISIC_0011460.JPG
break,html.Screen,4_51_1,2023-09-15T16:45:01.832Z,,0,,,NaN,,,,,,false,,,,312696.8000000119,312696.5,,312695.90000000596,,312733.436,8,400,,,
break_continue,html.Screen,4_51_2,2023-09-15T16:45:01.832Z,,0,,,NaN,,,,,,false,,,,312697.5,312697.2000000179,,312697.10000002384,,312733.436,8,400,,,
sequence,flow.Sequence,4_51,2023-09-15T16:45:01.833Z,,0,,,4795.805000017863,completion,,,,,false,,,,312697.7000000179,312697.2000000179,307860.968,307865.60000002384,307901.395,312733.436,8,400,,,
trial,html.Screen,4_52_0,2023-09-15T16:45:04.566Z,,0,2,,2697.664000023855,response,ISIC_4973666.JPG,6,ISIC_0012288.JPG,ISIC_0012288.JPG,false,0,keypress(z),500,315431.40000000596,315431.10000002384,312687.861,312697.8000000119,312733.436,315452.736,8,400,3,,ISIC_4973666.JPG
break,html.Screen,4_52_1,2023-09-15T16:45:04.567Z,,0,,,NaN,,,,,,false,,,,315432.40000000596,315432.2000000179,,315431.60000002384,,315452.736,8,400,,,
break_continue,html.Screen,4_52_2,2023-09-15T16:45:04.568Z,,0,,,NaN,,,,,,false,,,,315432.90000000596,315432.8000000119,,315432.60000002384,,315452.736,8,400,,,
sequence,flow.Sequence,4_52,2023-09-15T16:45:04.568Z,,0,,,2699.364000011934,completion,,,,,false,,,,315433.2000000179,315432.8000000119,312687.861,312697.8000000119,312733.436,315452.736,8,400,,,
trial,html.Screen,4_53_0,2023-09-15T16:45:09.363Z,,0,2,,4775.064000011946,response,ISIC_4320200.JPG,7,ISIC_5980439.JPG,ISIC_4320200.JPG,false,1,keypress(m),500,320228.40000000596,320227.8000000119,315417.473,315433.40000000596,315452.736,320251.729,8,400,4,,ISIC_5980439.JPG
break,html.Screen,4_53_1,2023-09-15T16:45:09.365Z,,0,,,NaN,,,,,,false,,,,320229.8000000119,320229.3000000119,,320228.7000000179,,320251.729,8,400,,,
break_continue,html.Screen,4_53_2,2023-09-15T16:45:09.365Z,,0,,,NaN,,,,,,false,,,,320230.3000000119,320230.2000000179,,320230,,320251.729,8,400,,,
sequence,flow.Sequence,4_53,2023-09-15T16:45:09.366Z,,0,,,4777.464000017906,completion,,,,,false,,,,320230.60000002384,320230.2000000179,315417.473,315433.40000000596,315452.736,320251.729,8,400,,,
trial,html.Screen,4_54_0,2023-09-15T16:45:12.383Z,,0,2,,2995.771000000008,response,ISIC_0054954.JPG,6,ISIC_0059625.JPG,ISIC_0059625.JPG,false,0,keypress(z),500,323247.8000000119,323247.5,320216.254,320230.7000000179,320251.729,323285.488,8,400,5,,ISIC_0054954.JPG
break,html.Screen,4_54_1,2023-09-15T16:45:12.384Z,,0,,,NaN,,,,,,false,,,,323248.8000000119,323248.60000002384,,323248,,323285.488,8,400,,,
break_continue,html.Screen,4_54_2,2023-09-15T16:45:12.385Z,,0,,,NaN,,,,,,false,,,,323249.8000000119,323249.8000000119,,323249.60000002384,,323285.488,8,400,,,
sequence,flow.Sequence,4_54,2023-09-15T16:45:12.385Z,,0,,,2998.071000011929,completion,,,,,false,,,,323250.10000002384,323249.8000000119,320216.254,320230.60000002384,320251.729,323285.488,8,400,,,
trial,html.Screen,4_55_0,2023-09-15T16:45:15.594Z,,0,2,,3173.7120000178693,response,ISIC_8105020.JPG,433,ISIC_6440229.JPG,ISIC_6440229.JPG,false,0,keypress(z),500,326459.5,326459.2000000179,323242.498,323250.3000000119,323285.488,326483.061,8,400,6,,ISIC_8105020.JPG
break,html.Screen,4_55_1,2023-09-15T16:45:15.595Z,,0,,,NaN,,,,,,false,,,,326460.3000000119,326460.2000000179,,326459.60000002384,,326483.061,8,400,,,
break_continue,html.Screen,4_55_2,2023-09-15T16:45:15.596Z,,0,,,NaN,,,,,,false,,,,326461.10000002384,326460.90000000596,,326460.8000000119,,326483.061,8,400,,,
sequence,flow.Sequence,4_55,2023-09-15T16:45:15.596Z,,0,,,3175.4120000059484,completion,,,,,false,,,,326461.3000000119,326460.90000000596,323242.498,323250.10000002384,323285.488,326483.061,8,400,,,
trial,html.Screen,4_56_0,2023-09-15T16:45:18.472Z,,0,2,,2854.039000023855,response,ISIC_1531204.JPG,8,ISIC_6176182.JPG,ISIC_1531204.JPG,false,1,keypress(m),500,329337.3000000119,329337.10000002384,326445.447,326461.5,326483.061,329374.905,8,400,7,,ISIC_6176182.JPG
break,html.Screen,4_56_1,2023-09-15T16:45:18.474Z,,0,,,NaN,,,,,,false,,,,329339,329338.2000000179,,329337.60000002384,,329374.905,8,400,,,
break_continue,html.Screen,4_56_2,2023-09-15T16:45:18.474Z,,0,,,NaN,,,,,,false,,,,329339.40000000596,329339.3000000119,,329339.10000002384,,329374.905,8,400,,,
sequence,flow.Sequence,4_56,2023-09-15T16:45:18.475Z,,0,,,2856.239000011934,completion,,,,,false,,,,329339.60000002384,329339.3000000119,326445.447,326461.40000000596,326483.061,329374.905,8,400,,,
trial,html.Screen,4_57_0,2023-09-15T16:45:21.031Z,,0,2,,2520.195000023814,response,ISIC_0034208.JPG,2,ISIC_4231346.JPG,ISIC_4231346.JPG,false,0,keypress(z),500,331895.5,331895.10000002384,329329.533,329339.7000000179,329374.905,331933.36,8,400,8,,ISIC_0034208.JPG
break,html.Screen,4_57_1,2023-09-15T16:45:21.032Z,,0,,,NaN,,,,,,false,,,,331896.8000000119,331896.40000000596,,331895.8000000119,,331933.36,8,400,,,
break_continue,html.Screen,4_57_2,2023-09-15T16:45:21.032Z,,0,,,NaN,,,,,,false,,,,331897.3000000119,331897.10000002384,,331897,,331933.36,8,400,,,
sequence,flow.Sequence,4_57,2023-09-15T16:45:21.032Z,,0,,,2522.195000023814,completion,,,,,false,,,,331897.5,331897.10000002384,329329.533,329339.60000002384,329374.905,331933.36,8,400,,,
trial,html.Screen,4_58_0,2023-09-15T16:45:23.927Z,,0,2,,2857.940000011935,response,ISIC_5273029.JPG,9,ISIC_0032192.JPG,ISIC_5273029.JPG,false,1,keypress(m),500,334791.60000002384,334791.3000000119,331890.573,331897.60000002384,331933.36,334814.585,8,400,9,,ISIC_0032192.JPG
break,html.Screen,4_58_1,2023-09-15T16:45:23.928Z,,0,,,NaN,,,,,,false,,,,334792.60000002384,334792.3000000119,,334791.8000000119,,334814.585,8,400,,,
break_continue,html.Screen,4_58_2,2023-09-15T16:45:23.928Z,,0,,,NaN,,,,,,false,,,,334793,334792.90000000596,,334792.8000000119,,334814.585,8,400,,,
sequence,flow.Sequence,4_58,2023-09-15T16:45:23.928Z,,0,,,2859.5400000059744,completion,,,,,false,,,,334793.2000000179,334792.90000000596,331890.573,331897.60000002384,331933.36,334814.585,8,400,,,
trial,html.Screen,4_59_0,2023-09-15T16:45:26.599Z,,0,2,,2649.6150000178604,response,ISIC_9588279.JPG,6,ISIC_0069361.JPG,ISIC_9588279.JPG,false,1,keypress(m),500,337464.5,337464.2000000179,334778.292,334794.3000000119,334814.585,337491.953,8,400,10,,ISIC_0069361.JPG
break,html.Screen,4_59_1,2023-09-15T16:45:26.601Z,,0,,,NaN,,,,,,false,,,,337465.5,337465.2000000179,,337464.7000000179,,337491.953,8,400,,,
break_continue,html.Screen,4_59_2,2023-09-15T16:45:26.601Z,,0,,,NaN,,,,,,false,,,,337466.10000002384,337465.90000000596,,337465.8000000119,,337491.953,8,400,,,
sequence,flow.Sequence,4_59,2023-09-15T16:45:26.601Z,,0,,,2651.3150000059395,completion,,,,,false,,,,337466.3000000119,337465.90000000596,334778.292,334793.3000000119,334814.585,337491.953,8,400,,,
trial,html.Screen,4_60_0,2023-09-15T16:45:31.813Z,,0,2,,5185.947000005981,response,ISIC_0031079.JPG,8,ISIC_3418978.JPG,ISIC_0031079.JPG,false,1,keypress(m),500,342678.3000000119,342677.90000000596,337451.642,337466.40000000596,337491.953,342719.127,8,400,11,,ISIC_3418978.JPG
break,html.Screen,4_60_1,2023-09-15T16:45:31.815Z,,0,,,NaN,,,,,,false,,,,342679.40000000596,342679,,342678.5,,342719.127,8,400,,,
break_continue,html.Screen,4_60_2,2023-09-15T16:45:31.815Z,,0,,,NaN,,,,,,false,,,,342680,342679.90000000596,,342679.8000000119,,342719.127,8,400,,,
sequence,flow.Sequence,4_60,2023-09-15T16:45:31.815Z,,0,,,5187.947000005981,completion,,,,,false,,,,342680.2000000179,342679.90000000596,337451.642,337466.40000000596,337491.953,342719.127,8,400,,,
trial,html.Screen,4_61_0,2023-09-15T16:45:35.653Z,,0,2,,3798.9730000238633,response,ISIC_8100185.JPG,8,ISIC_6626544.JPG,ISIC_8100185.JPG,false,1,keypress(m),500,346518.40000000596,346518.10000002384,342675.005,342680.3000000119,342719.127,346567.369,8,400,12,,ISIC_6626544.JPG
break,html.Screen,4_61_1,2023-09-15T16:45:35.655Z,,0,,,NaN,,,,,,false,,,,346519.7000000179,346519.2000000179,,346518.7000000179,,346567.369,8,400,,,
break_continue,html.Screen,4_61_2,2023-09-15T16:45:35.655Z,,0,,,NaN,,,,,,false,,,,346520.3000000119,346520.10000002384,,346519.90000000596,,346567.369,8,400,,,
sequence,flow.Sequence,4_61,2023-09-15T16:45:35.655Z,,0,,,3800.9730000238633,completion,,,,,false,,,,346520.40000000596,346520.10000002384,342675.005,342680.3000000119,342719.127,346567.369,8,400,,,
trial,html.Screen,4_62_0,2023-09-15T16:45:40.095Z,,0,2,,4392.531000005954,response,ISIC_0011095.JPG,167,ISIC_2856521.JPG,ISIC_2856521.JPG,false,0,keypress(z),500,350960.40000000596,350959.90000000596,346518.778,346520.60000002384,346567.369,350996.294,8,400,13,,ISIC_0011095.JPG
break,html.Screen,4_62_1,2023-09-15T16:45:40.097Z,,0,,,NaN,,,,,,false,,,,350962,350961.40000000596,,350960.90000000596,,350996.294,8,400,,,
break_continue,html.Screen,4_62_2,2023-09-15T16:45:40.097Z,,0,,,NaN,,,,,,false,,,,350962.5,350962.3000000119,,350962.2000000179,,350996.294,8,400,,,
sequence,flow.Sequence,4_62,2023-09-15T16:45:40.098Z,,0,,,4394.931000011915,completion,,,,,false,,,,350962.7000000179,350962.3000000119,346518.778,346520.5,346567.369,350996.294,8,400,,,
trial,html.Screen,4_63_0,2023-09-15T16:45:44.074Z,,0,2,,3942.7060000000056,response,ISIC_0033025.JPG,6,ISIC_0024259.JPG,ISIC_0024259.JPG,false,0,keypress(z),500,354939.3000000119,354939,350959.331,350962.7000000179,350996.294,354960.507,8,400,14,,ISIC_0033025.JPG
break,html.Screen,4_63_1,2023-09-15T16:45:44.075Z,,0,,,NaN,,,,,,false,,,,354940.2000000179,354940,,354939.40000000596,,354960.507,8,400,,,
break_continue,html.Screen,4_63_2,2023-09-15T16:45:44.076Z,,0,,,NaN,,,,,,false,,,,354941.3000000119,354941.2000000179,,354941.10000002384,,354960.507,8,400,,,
sequence,flow.Sequence,4_63,2023-09-15T16:45:44.078Z,,0,,,3944.906000017887,completion,,,,,false,,,,354942.7000000179,354941.2000000179,350959.331,350962.7000000179,350996.294,354960.507,8,400,,,
trial,html.Screen,4_64_0,2023-09-15T16:45:48.435Z,,0,2,,4338.993000000017,response,ISIC_7441957.JPG,749,ISIC_9268487.JPG,ISIC_7441957.JPG,false,1,keypress(m),500,359299.90000000596,359299.5,354925.216,354942.90000000596,354960.507,359337.49,8,400,15,,ISIC_9268487.JPG
break,html.Screen,4_64_1,2023-09-15T16:45:48.436Z,,0,,,NaN,,,,,,false,,,,359300.90000000596,359300.60000002384,,359300,,359337.49,8,400,,,
break_continue,html.Screen,4_64_2,2023-09-15T16:45:48.437Z,,0,,,NaN,,,,,,false,,,,359301.5,359301.40000000596,,359301.2000000179,,359337.49,8,400,,,
sequence,flow.Sequence,4_64,2023-09-15T16:45:48.437Z,,0,,,4340.893000005977,completion,,,,,false,,,,359301.8000000119,359301.40000000596,354925.216,354942.90000000596,354960.507,359337.49,8,400,,,
trial,html.Screen,4_65_0,2023-09-15T16:45:52.853Z,,0,2,,4380.31000001193,response,ISIC_0013953.JPG,19,ISIC_0033152.JPG,ISIC_0033152.JPG,false,0,keypress(z),500,363718,363717.8000000119,359296.117,359301.90000000596,359337.49,363755.835,8,400,16,,ISIC_0013953.JPG
break,html.Screen,4_65_1,2023-09-15T16:45:52.854Z,,0,,,NaN,,,,,,false,,,,363719,363718.8000000119,,363718.3000000119,,363755.835,8,400,,,
break_continue,html.Screen,4_65_2,2023-09-15T16:45:52.855Z,,0,,,NaN,,,,,,false,,,,363719.8000000119,363719.40000000596,,363719.3000000119,,363755.835,8,400,,,
sequence,flow.Sequence,4_65,2023-09-15T16:45:52.855Z,,0,,,4381.91000000597,completion,,,,,false,,,,363720.10000002384,363719.40000000596,359296.117,359301.8000000119,359337.49,363755.835,8,400,,,
trial,html.Screen,4_66_0,2023-09-15T16:45:57.163Z,,0,2,,4271.4650000119,response,ISIC_0011130.JPG,966,ISIC_8865595.JPG,ISIC_8865595.JPG,false,0,keypress(z),500,368027.8000000119,368027.3000000119,363711.733,363720.2000000179,363755.835,368065.536,8,400,17,,ISIC_0011130.JPG
break,html.Screen,4_66_1,2023-09-15T16:45:57.164Z,,0,,,NaN,,,,,,false,,,,368028.90000000596,368028.7000000179,,368028.10000002384,,368065.536,8,400,,,
break_continue,html.Screen,4_66_2,2023-09-15T16:45:57.165Z,,0,,,NaN,,,,,,false,,,,368029.8000000119,368029.7000000179,,368029.5,,368065.536,8,400,,,
sequence,flow.Sequence,4_66,2023-09-15T16:45:57.165Z,,0,,,4273.86500001786,completion,,,,,false,,,,368030,368029.7000000179,363711.733,363720.2000000179,363755.835,368065.536,8,400,,,
trial,html.Screen,4_67_0,2023-09-15T16:46:00.592Z,,0,2,,3390.8640000059386,response,ISIC_7330564.JPG,6,ISIC_5909451.JPG,ISIC_7330564.JPG,false,1,keypress(m),500,371456.7000000179,371456.40000000596,368017.721,368030.10000002384,368065.536,371481.522,8,400,18,,ISIC_5909451.JPG
break,html.Screen,4_67_1,2023-09-15T16:46:00.593Z,,0,,,NaN,,,,,,false,,,,371457.8000000119,371457.40000000596,,371457,,371481.522,8,400,,,
break_continue,html.Screen,4_67_2,2023-09-15T16:46:00.593Z,,0,,,NaN,,,,,,false,,,,371458.40000000596,371458.2000000179,,371458.10000002384,,371481.522,8,400,,,
sequence,flow.Sequence,4_67,2023-09-15T16:46:00.593Z,,0,,,3392.6640000178595,completion,,,,,false,,,,371458.60000002384,371458.2000000179,368017.721,368030,368065.536,371481.522,8,400,,,
trial,html.Screen,4_68_0,2023-09-15T16:46:04.277Z,,0,2,,3660.678000017884,response,ISIC_0057487.JPG,230,ISIC_2384274.JPG,ISIC_2384274.JPG,false,0,keypress(z),500,375142.40000000596,375142.2000000179,371444.109,371458.8000000119,371481.522,375169.803,8,400,19,,ISIC_0057487.JPG
break,html.Screen,4_68_1,2023-09-15T16:46:04.278Z,,0,,,NaN,,,,,,false,,,,375143.40000000596,375143.10000002384,,375142.7000000179,,375169.803,8,400,,,
break_continue,html.Screen,4_68_2,2023-09-15T16:46:04.279Z,,0,,,NaN,,,,,,false,,,,375144,375143.8000000119,,375143.7000000179,,375169.803,8,400,,,
sequence,flow.Sequence,4_68,2023-09-15T16:46:04.279Z,,0,,,3662.2780000119237,completion,,,,,false,,,,375144.2000000179,375143.8000000119,371444.109,371458.60000002384,371481.522,375169.803,8,400,,,
trial,html.Screen,4_69_0,2023-09-15T16:46:07.406Z,,0,2,,3100.597000005946,response,ISIC_0067521.JPG,8,ISIC_0659400.JPG,ISIC_0659400.JPG,false,0,keypress(z),500,378270.8000000119,378270.40000000596,375134.099,375144.3000000119,375169.803,378314.409,8,400,20,,ISIC_0067521.JPG
break,html.Screen,4_69_1,2023-09-15T16:46:07.407Z,,0,,,NaN,,,,,,false,,,,378271.90000000596,378271.5,,378271,,378314.409,8,400,,,
break_continue,html.Screen,4_69_2,2023-09-15T16:46:07.407Z,,0,,,NaN,,,,,,false,,,,378272.3000000119,378272.2000000179,,378272.10000002384,,378314.409,8,400,,,
sequence,flow.Sequence,4_69,2023-09-15T16:46:07.407Z,,0,,,3102.397000017867,completion,,,,,false,,,,378272.5,378272.2000000179,375134.099,375144.3000000119,375169.803,378314.409,8,400,,,
trial,html.Screen,4_70_0,2023-09-15T16:46:10.519Z,,0,2,,3069.7910000178963,response,ISIC_0030784.JPG,416,ISIC_0033021.JPG,ISIC_0033021.JPG,false,0,keypress(z),500,381384.5,381384.2000000179,378265.511,378272.60000002384,378314.409,381443.415,8,400,21,,ISIC_0030784.JPG
break,html.Screen,4_70_1,2023-09-15T16:46:10.520Z,,0,,,NaN,,,,,,false,,,,381385.3000000119,381385.2000000179,,381384.7000000179,,381443.415,8,400,,,
break_continue,html.Screen,4_70_2,2023-09-15T16:46:10.521Z,,0,,,NaN,,,,,,false,,,,381385.7000000179,381385.60000002384,,381385.5,,381443.415,8,400,,,
sequence,flow.Sequence,4_70,2023-09-15T16:46:10.521Z,,0,,,3071.1910000238568,completion,,,,,false,,,,381385.90000000596,381385.60000002384,378265.511,378272.5,378314.409,381443.415,8,400,,,
trial,html.Screen,4_71_0,2023-09-15T16:46:15.316Z,,0,2,,4737.285000017902,response,ISIC_6701139.JPG,5,ISIC_0032001.JPG,ISIC_6701139.JPG,false,1,keypress(m),500,386181.2000000179,386180.7000000179,381393.558,381385.90000000596,381443.415,386211.874,8,400,22,,ISIC_0032001.JPG
break,html.Screen,4_71_1,2023-09-15T16:46:15.317Z,,0,,,NaN,,,,,,false,,,,386182.3000000119,386181.90000000596,,386181.40000000596,,386211.874,8,400,,,
break_continue,html.Screen,4_71_2,2023-09-15T16:46:15.318Z,,0,,,NaN,,,,,,false,,,,386182.90000000596,386182.8000000119,,386182.7000000179,,386211.874,8,400,,,
sequence,flow.Sequence,4_71,2023-09-15T16:46:15.318Z,,0,,,4739.385000011942,completion,,,,,false,,,,386183.2000000179,386182.8000000119,381393.558,381385.90000000596,381443.415,386211.874,8,400,,,
trial,html.Screen,4_72_0,2023-09-15T16:46:19.760Z,,0,2,,4412.52600000595,response,ISIC_2198823.JPG,497,ISIC_7984646.JPG,ISIC_7984646.JPG,false,0,keypress(z),500,390624.8000000119,390624.40000000596,386175.832,386183.3000000119,386211.874,390662.75,8,400,23,,ISIC_2198823.JPG
break,html.Screen,4_72_1,2023-09-15T16:46:19.761Z,,0,,,NaN,,,,,,false,,,,390626.10000002384,390625.7000000179,,390625.10000002384,,390662.75,8,400,,,
break_continue,html.Screen,4_72_2,2023-09-15T16:46:19.761Z,,0,,,NaN,,,,,,false,,,,390626.5,390626.40000000596,,390626.3000000119,,390662.75,8,400,,,
sequence,flow.Sequence,4_72,2023-09-15T16:46:19.762Z,,0,,,4414.52600000595,completion,,,,,false,,,,390626.8000000119,390626.40000000596,386175.832,386183.2000000179,386211.874,390662.75,8,400,,,
trial,html.Screen,4_73_0,2023-09-15T16:46:24.793Z,,0,2,,4995.350000023842,response,ISIC_5223280.JPG,7,ISIC_6324832.JPG,ISIC_6324832.JPG,false,0,keypress(z),500,395658.5,395658.10000002384,390624.123,390626.8000000119,390662.75,395696.251,8,400,24,,ISIC_5223280.JPG
break,html.Screen,4_73_1,2023-09-15T16:46:24.795Z,,0,,,NaN,,,,,,false,,,,395659.7000000179,395659.3000000119,,395658.7000000179,,395696.251,8,400,,,
break_continue,html.Screen,4_73_2,2023-09-15T16:46:24.796Z,,0,,,NaN,,,,,,false,,,,395660.7000000179,395660.60000002384,,395660.40000000596,,395696.251,8,400,,,
sequence,flow.Sequence,4_73,2023-09-15T16:46:24.796Z,,0,,,4997.850000023842,completion,,,,,false,,,,395660.90000000596,395660.60000002384,390624.123,390626.8000000119,390662.75,395696.251,8,400,,,
trial,html.Screen,4_74_0,2023-09-15T16:46:27.732Z,,0,2,,2900.949000017892,response,ISIC_0025512.JPG,6,ISIC_0033981.JPG,ISIC_0033981.JPG,false,0,keypress(z),500,398597.60000002384,398597.2000000179,395650.67,395661,395696.251,398621.791,8,400,25,,ISIC_0025512.JPG
break,html.Screen,4_74_1,2023-09-15T16:46:27.733Z,,0,,,NaN,,,,,,false,,,,398598.7000000179,398598.3000000119,,398597.8000000119,,398621.791,8,400,,,
break_continue,html.Screen,4_74_2,2023-09-15T16:46:27.734Z,,0,,,NaN,,,,,,false,,,,398599.10000002384,398599,,398598.8000000119,,398621.791,8,400,,,
sequence,flow.Sequence,4_74,2023-09-15T16:46:27.734Z,,0,,,2902.7490000000107,completion,,,,,false,,,,398599.3000000119,398599,395650.67,395661,395696.251,398621.791,8,400,,,
trial,html.Screen,4_75_0,2023-09-15T16:46:30.787Z,,0,2,,3030.3090000238153,response,ISIC_5325805.JPG,7,ISIC_4967639.JPG,ISIC_4967639.JPG,false,0,keypress(z),500,401652.3000000119,401652.10000002384,398587.36,398599.40000000596,398621.791,401689.937,8,400,26,,ISIC_5325805.JPG
break,html.Screen,4_75_1,2023-09-15T16:46:30.788Z,,0,,,NaN,,,,,,false,,,,401653.3000000119,401653.10000002384,,401652.60000002384,,401689.937,8,400,,,
break_continue,html.Screen,4_75_2,2023-09-15T16:46:30.789Z,,0,,,NaN,,,,,,false,,,,401654.2000000179,401654,,401653.90000000596,,401689.937,8,400,,,
sequence,flow.Sequence,4_75,2023-09-15T16:46:30.789Z,,0,,,3032.2089999999735,completion,,,,,false,,,,401654.40000000596,401654,398587.36,398599.40000000596,398621.791,401689.937,8,400,,,
trial,html.Screen,4_76_0,2023-09-15T16:46:33.423Z,,0,2,,2597.763000017905,response,ISIC_0033668.JPG,7,ISIC_8248922.JPG,ISIC_8248922.JPG,false,0,keypress(z),500,404287.90000000596,404287.7000000179,401651.411,401654.5,401689.937,404325.914,8,400,27,,ISIC_0033668.JPG
break,html.Screen,4_76_1,2023-09-15T16:46:33.424Z,,0,,,NaN,,,,,,false,,,,404288.8000000119,404288.7000000179,,404288.2000000179,,404325.914,8,400,,,
break_continue,html.Screen,4_76_2,2023-09-15T16:46:33.424Z,,0,,,NaN,,,,,,false,,,,404289.60000002384,404289.5,,404289.2000000179,,404325.914,8,400,,,
sequence,flow.Sequence,4_76,2023-09-15T16:46:33.425Z,,0,,,2599.5630000000237,completion,,,,,false,,,,404289.8000000119,404289.5,401651.411,401654.5,401689.937,404325.914,8,400,,,
trial,html.Screen,4_77_0,2023-09-15T16:46:36.238Z,,0,2,,2776.886000011931,response,ISIC_2647198.JPG,7,ISIC_0006727.JPG,ISIC_0006727.JPG,false,0,keypress(z),500,407103.10000002384,407102.8000000119,404280.936,404289.90000000596,404325.914,407140.782,8,400,28,,ISIC_2647198.JPG
break,html.Screen,4_77_1,2023-09-15T16:46:36.239Z,,0,,,NaN,,,,,,false,,,,407104.2000000179,407104,,407103.3000000119,,407140.782,8,400,,,
break_continue,html.Screen,4_77_2,2023-09-15T16:46:36.240Z,,0,,,NaN,,,,,,false,,,,407105.2000000179,407105.10000002384,,407105,,407140.782,8,400,,,
sequence,flow.Sequence,4_77,2023-09-15T16:46:36.240Z,,0,,,2779.186000023852,completion,,,,,false,,,,407105.5,407105.10000002384,404280.936,404289.8000000119,404325.914,407140.782,8,400,,,
trial,html.Screen,4_78_0,2023-09-15T16:46:39.162Z,,0,2,,2886.0180000119144,response,ISIC_0033911.JPG,6,ISIC_0010231.JPG,ISIC_0033911.JPG,false,1,keypress(m),500,410027.10000002384,410026.8000000119,407092.043,407105.60000002384,407140.782,410048.892,8,400,29,,ISIC_0010231.JPG
break,html.Screen,4_78_1,2023-09-15T16:46:39.163Z,,0,,,NaN,,,,,,false,,,,410028,410027.90000000596,,410027.3000000119,,410048.892,8,400,,,
break_continue,html.Screen,4_78_2,2023-09-15T16:46:39.164Z,,0,,,NaN,,,,,,false,,,,410028.7000000179,410028.5,,410028.40000000596,,410048.892,8,400,,,
sequence,flow.Sequence,4_78,2023-09-15T16:46:39.164Z,,0,,,2887.7179999999935,completion,,,,,false,,,,410028.90000000596,410028.5,407092.043,407105.5,407140.782,410048.892,8,400,,,
trial,html.Screen,4_79_0,2023-09-15T16:46:41.903Z,,0,2,,2718.508000005968,response,ISIC_3059367.JPG,7,ISIC_1247683.JPG,ISIC_3059367.JPG,false,1,keypress(m),500,412767.8000000119,412767.40000000596,410013.263,410029.10000002384,410048.892,412805.609,8,400,30,,ISIC_1247683.JPG
break,html.Screen,4_79_1,2023-09-15T16:46:41.904Z,,0,,,NaN,,,,,,false,,,,412768.90000000596,412768.7000000179,,412768.10000002384,,412805.609,8,400,,,
break_continue,html.Screen,4_79_2,2023-09-15T16:46:41.905Z,,0,,,NaN,,,,,,false,,,,412769.90000000596,412769.8000000119,,412769.60000002384,,412805.609,8,400,,,
sequence,flow.Sequence,4_79,2023-09-15T16:46:41.905Z,,0,,,2720.9080000119284,completion,,,,,false,,,,412770.10000002384,412769.8000000119,410013.263,410029,410048.892,412805.609,8,400,,,
trial,html.Screen,4_80_0,2023-09-15T16:46:44.795Z,,0,2,,2854.0910000178847,response,ISIC_6052860.JPG,5,ISIC_7171090.JPG,ISIC_6052860.JPG,false,1,keypress(m),500,415660.10000002384,415659.7000000179,412761.607,412770.3000000119,412805.609,415697.686,8,400,31,,ISIC_7171090.JPG
break,html.Screen,4_80_1,2023-09-15T16:46:44.796Z,,0,,,NaN,,,,,,false,,,,415661.2000000179,415660.90000000596,,415660.3000000119,,415697.686,8,400,,,
break_continue,html.Screen,4_80_2,2023-09-15T16:46:44.796Z,,0,,,NaN,,,,,,false,,,,415661.60000002384,415661.5,,415661.40000000596,,415697.686,8,400,,,
sequence,flow.Sequence,4_80,2023-09-15T16:46:44.797Z,,0,,,2855.8910000000033,completion,,,,,false,,,,415661.90000000596,415661.5,412761.607,412770.3000000119,412805.609,415697.686,8,400,,,
trial,html.Screen,4_81_0,2023-09-15T16:46:47.451Z,,0,2,,2618.314000000013,response,ISIC_0070092.JPG,7,ISIC_5854552.JPG,ISIC_5854552.JPG,false,0,keypress(z),500,418316.3000000119,418316,415654.287,415662,415697.686,418354.039,8,400,32,,ISIC_0070092.JPG
break,html.Screen,4_81_1,2023-09-15T16:46:47.452Z,,0,,,NaN,,,,,,false,,,,418317.5,418317.10000002384,,418316.60000002384,,418354.039,8,400,,,
break_continue,html.Screen,4_81_2,2023-09-15T16:46:47.453Z,,0,,,NaN,,,,,,false,,,,418318.10000002384,418317.90000000596,,418317.8000000119,,418354.039,8,400,,,
sequence,flow.Sequence,4_81,2023-09-15T16:46:47.453Z,,0,,,2620.2140000059735,completion,,,,,false,,,,418318.2000000179,418317.90000000596,415654.287,415661.90000000596,415697.686,418354.039,8,400,,,
trial,html.Screen,4_82_0,2023-09-15T16:46:49.998Z,,0,2,,2508.6610000178916,response,ISIC_0063018.JPG,6,ISIC_0032272.JPG,ISIC_0032272.JPG,false,0,keypress(z),500,420862.90000000596,420862.7000000179,418305.041,418318.40000000596,418354.039,420900.041,8,400,33,,ISIC_0063018.JPG
break,html.Screen,4_82_1,2023-09-15T16:46:49.999Z,,0,,,NaN,,,,,,false,,,,420864,420863.8000000119,,420863.2000000179,,420900.041,8,400,,,
break_continue,html.Screen,4_82_2,2023-09-15T16:46:49.999Z,,0,,,NaN,,,,,,false,,,,420864.60000002384,420864.5,,420864.40000000596,,420900.041,8,400,,,
sequence,flow.Sequence,4_82,2023-09-15T16:46:50.000Z,,0,,,2510.4610000000102,completion,,,,,false,,,,420864.8000000119,420864.5,418305.041,418318.40000000596,418354.039,420900.041,8,400,,,
trial,html.Screen,4_83_0,2023-09-15T16:46:52.875Z,,0,2,,2839.859000005934,response,ISIC_0014288.JPG,7,ISIC_0027363.JPG,ISIC_0014288.JPG,false,1,keypress(m),500,423740.10000002384,423739.90000000596,420857.518,420864.90000000596,420900.041,423777.861,8,400,34,,ISIC_0027363.JPG
break,html.Screen,4_83_1,2023-09-15T16:46:52.876Z,,0,,,NaN,,,,,,false,,,,423741.2000000179,423741,,423740.3000000119,,423777.861,8,400,,,
break_continue,html.Screen,4_83_2,2023-09-15T16:46:52.877Z,,0,,,NaN,,,,,,false,,,,423742.3000000119,423742.10000002384,,423741.90000000596,,423777.861,8,400,,,
sequence,flow.Sequence,4_83,2023-09-15T16:46:52.877Z,,0,,,2842.0590000238153,completion,,,,,false,,,,423742.40000000596,423742.10000002384,420857.518,420864.90000000596,420900.041,423777.861,8,400,,,
trial,html.Screen,4_84_0,2023-09-15T16:46:55.578Z,,0,2,,2664.9390000119456,response,ISIC_5952650.JPG,6,ISIC_0033042.JPG,ISIC_5952650.JPG,false,1,keypress(m),500,426443.2000000179,426442.8000000119,423738.406,423742.60000002384,423777.861,426464.438,8,400,35,,ISIC_0033042.JPG
break,html.Screen,4_84_1,2023-09-15T16:46:55.579Z,,0,,,NaN,,,,,,false,,,,426444.3000000119,426444.10000002384,,426443.5,,426464.438,8,400,,,
break_continue,html.Screen,4_84_2,2023-09-15T16:46:55.580Z,,0,,,NaN,,,,,,false,,,,426445.3000000119,426445.2000000179,,426445.10000002384,,426464.438,8,400,,,
sequence,flow.Sequence,4_84,2023-09-15T16:46:55.580Z,,0,,,2667.339000017906,completion,,,,,false,,,,426445.60000002384,426445.2000000179,423738.406,423742.5,423777.861,426464.438,8,400,,,
trial,html.Screen,4_85_0,2023-09-15T16:46:58.257Z,,0,2,,2657.7620000178576,response,ISIC_1520897.JPG,8,ISIC_0027110.JPG,ISIC_0027110.JPG,false,0,keypress(z),500,429122.60000002384,429122.2000000179,426430.435,426445.7000000179,426464.438,429160.445,8,400,36,,ISIC_1520897.JPG
break,html.Screen,4_85_1,2023-09-15T16:46:58.258Z,,0,,,NaN,,,,,,false,,,,429123.60000002384,429123.40000000596,,429122.8000000119,,429160.445,8,400,,,
break_continue,html.Screen,4_85_2,2023-09-15T16:46:58.260Z,,0,,,NaN,,,,,,false,,,,429124.8000000119,429124.5,,429124.40000000596,,429160.445,8,400,,,
sequence,flow.Sequence,4_85,2023-09-15T16:46:58.260Z,,0,,,2660.0619999999763,completion,,,,,false,,,,429124.90000000596,429124.5,426430.435,426445.7000000179,426464.438,429160.445,8,400,,,
trial,html.Screen,4_86_0,2023-09-15T16:47:04.315Z,,0,2,,6019.255000017874,response,ISIC_0053816.JPG,4,ISIC_2757355.JPG,ISIC_0053816.JPG,false,1,keypress(m),500,435180.10000002384,435179.7000000179,429115.065,429125.10000002384,429160.445,435218.091,8,400,37,,ISIC_2757355.JPG
break,html.Screen,4_86_1,2023-09-15T16:47:04.316Z,,0,,,NaN,,,,,,false,,,,435181.5,435181,,435180.3000000119,,435218.091,8,400,,,
break_continue,html.Screen,4_86_2,2023-09-15T16:47:04.317Z,,0,,,NaN,,,,,,false,,,,435182,435181.90000000596,,435181.7000000179,,435218.091,8,400,,,
sequence,flow.Sequence,4_86,2023-09-15T16:47:04.317Z,,0,,,6021.4550000059535,completion,,,,,false,,,,435182.2000000179,435181.90000000596,429115.065,429125,429160.445,435218.091,8,400,,,
trial,html.Screen,4_87_0,2023-09-15T16:47:07.117Z,,0,2,,2763.709000011906,response,ISIC_0030518.JPG,8,ISIC_0032955.JPG,ISIC_0030518.JPG,false,1,keypress(m),500,437982.3000000119,437981.8000000119,435179.05,435182.40000000596,435218.091,438005.212,8,400,38,,ISIC_0032955.JPG
break,html.Screen,4_87_1,2023-09-15T16:47:07.119Z,,0,,,NaN,,,,,,false,,,,437984,437983.60000002384,,437982.7000000179,,438005.212,8,400,,,
break_continue,html.Screen,4_87_2,2023-09-15T16:47:07.120Z,,0,,,NaN,,,,,,false,,,,437984.7000000179,437984.40000000596,,437984.3000000119,,438005.212,8,400,,,
sequence,flow.Sequence,4_87,2023-09-15T16:47:07.120Z,,0,,,2766.3090000059456,completion,,,,,false,,,,437985,437984.40000000596,435179.05,435182.40000000596,435218.091,438005.212,8,400,,,
trial,html.Screen,4_88_0,2023-09-15T16:47:10.716Z,,0,2,,3575.2880000000005,response,ISIC_7057495.JPG,19,ISIC_0030356.JPG,ISIC_0030356.JPG,false,0,keypress(z),500,441580.8000000119,441580.5,437968.114,437985.2000000179,438005.212,441618.534,8,400,39,,ISIC_7057495.JPG
break,html.Screen,4_88_1,2023-09-15T16:47:10.717Z,,0,,,NaN,,,,,,false,,,,441582.5,441581.7000000179,,441581,,441618.534,8,400,,,
break_continue,html.Screen,4_88_2,2023-09-15T16:47:10.718Z,,0,,,NaN,,,,,,false,,,,441583,441582.90000000596,,441582.7000000179,,441618.534,8,400,,,
sequence,flow.Sequence,4_88,2023-09-15T16:47:10.718Z,,0,,,3577.688000005961,completion,,,,,false,,,,441583.10000002384,441582.90000000596,437968.114,437985.10000002384,438005.212,441618.534,8,400,,,
trial,html.Screen,4_89_0,2023-09-15T16:47:14.786Z,,0,2,,4032.466000000015,response,ISIC_7619234.JPG,5,ISIC_0033241.JPG,ISIC_0033241.JPG,false,0,keypress(z),500,445651.40000000596,445651,441575.793,441583.2000000179,441618.534,445688.999,8,400,40,,ISIC_7619234.JPG
break,html.Screen,4_89_1,2023-09-15T16:47:14.787Z,,0,,,NaN,,,,,,false,,,,445652.40000000596,445652.10000002384,,445651.60000002384,,445688.999,8,400,,,
break_continue,html.Screen,4_89_2,2023-09-15T16:47:14.788Z,,0,,,NaN,,,,,,false,,,,445653.5,445653.40000000596,,445653.10000002384,,445688.999,8,400,,,
sequence,flow.Sequence,4_89,2023-09-15T16:47:14.788Z,,0,,,4034.8660000059754,completion,,,,,false,,,,445653.7000000179,445653.40000000596,441575.793,441583.2000000179,441618.534,445688.999,8,400,,,
trial,html.Screen,4_90_0,2023-09-15T16:47:18.028Z,,0,2,,3204.2010000178707,response,ISIC_2126575.JPG,38,ISIC_0032779.JPG,ISIC_0032779.JPG,false,0,keypress(z),500,448893.60000002384,448893.2000000179,445640.24,445653.8000000119,445688.999,448931.437,8,400,41,,ISIC_2126575.JPG
break,html.Screen,4_90_1,2023-09-15T16:47:18.030Z,,0,,,NaN,,,,,,false,,,,448894.8000000119,448894.3000000119,,448893.8000000119,,448931.437,8,400,,,
break_continue,html.Screen,4_90_2,2023-09-15T16:47:18.031Z,,0,,,NaN,,,,,,false,,,,448895.8000000119,448895.60000002384,,448895.5,,448931.437,8,400,,,
sequence,flow.Sequence,4_90,2023-09-15T16:47:18.031Z,,0,,,3206.601000023831,completion,,,,,false,,,,448896,448895.60000002384,445640.24,445653.7000000179,445688.999,448931.437,8,400,,,
trial,html.Screen,4_91_0,2023-09-15T16:47:21.461Z,,0,2,,3394.263000017905,response,ISIC_6766153.JPG,11,ISIC_7831274.JPG,ISIC_6766153.JPG,false,1,keypress(m),500,452326.10000002384,452325.7000000179,448889.198,448896.10000002384,448931.437,452372.694,8,400,42,,ISIC_7831274.JPG
break,html.Screen,4_91_1,2023-09-15T16:47:21.462Z,,0,,,NaN,,,,,,false,,,,452327.40000000596,452326.90000000596,,452326.40000000596,,452372.694,8,400,,,
break_continue,html.Screen,4_91_2,2023-09-15T16:47:21.463Z,,0,,,NaN,,,,,,false,,,,452327.8000000119,452327.60000002384,,452327.60000002384,,452372.694,8,400,,,
sequence,flow.Sequence,4_91,2023-09-15T16:47:21.463Z,,0,,,3396.1630000238656,completion,,,,,false,,,,452328,452327.60000002384,448889.198,448896.10000002384,448931.437,452372.694,8,400,,,
trial,html.Screen,4_92_0,2023-09-15T16:47:25.006Z,,0,2,,3498.3059999999823,response,ISIC_6032520.JPG,356,ISIC_0030929.JPG,ISIC_6032520.JPG,false,1,keypress(m),500,455871.40000000596,455871,452327.06,452328.10000002384,452372.694,455909.13,8,400,43,,ISIC_0030929.JPG
break,html.Screen,4_92_1,2023-09-15T16:47:25.007Z,,0,,,NaN,,,,,,false,,,,455872.60000002384,455872.2000000179,,455871.60000002384,,455909.13,8,400,,,
break_continue,html.Screen,4_92_2,2023-09-15T16:47:25.008Z,,0,,,NaN,,,,,,false,,,,455873.10000002384,455873,,455872.8000000119,,455909.13,8,400,,,
sequence,flow.Sequence,4_92,2023-09-15T16:47:25.008Z,,0,,,3500.3059999999823,completion,,,,,false,,,,455873.2000000179,455873,452327.06,452328.10000002384,452372.694,455909.13,8,400,,,
trial,html.Screen,4_93_0,2023-09-15T16:47:27.854Z,,0,2,,2809.770000005956,response,ISIC_5518595.JPG,7,ISIC_3342474.JPG,ISIC_5518595.JPG,false,1,keypress(m),500,458719.3000000119,458718.90000000596,455862.436,455873.40000000596,455909.13,458756.997,8,400,44,,ISIC_3342474.JPG
break,html.Screen,4_93_1,2023-09-15T16:47:27.855Z,,0,,,NaN,,,,,,false,,,,458720.3000000119,458720.2000000179,,458719.5,,458756.997,8,400,,,
break_continue,html.Screen,4_93_2,2023-09-15T16:47:27.856Z,,0,,,NaN,,,,,,false,,,,458720.90000000596,458720.8000000119,,458720.60000002384,,458756.997,8,400,,,
sequence,flow.Sequence,4_93,2023-09-15T16:47:27.856Z,,0,,,2811.6700000119163,completion,,,,,false,,,,458721,458720.8000000119,455862.436,455873.40000000596,455909.13,458756.997,8,400,,,
trial,html.Screen,4_94_0,2023-09-15T16:47:30.890Z,,0,2,,2997.4030000059865,response,ISIC_7677876.JPG,6,ISIC_0070003.JPG,ISIC_0070003.JPG,false,0,keypress(z),500,461754.8000000119,461754.40000000596,458716.257,458721.2000000179,458756.997,461792.39,8,400,45,,ISIC_7677876.JPG
break,html.Screen,4_94_1,2023-09-15T16:47:30.891Z,,0,,,NaN,,,,,,false,,,,461755.8000000119,461755.5,,461755,,461792.39,8,400,,,
break_continue,html.Screen,4_94_2,2023-09-15T16:47:30.891Z,,0,,,NaN,,,,,,false,,,,461756.5,461756.2000000179,,461756.10000002384,,461792.39,8,400,,,
sequence,flow.Sequence,4_94,2023-09-15T16:47:30.892Z,,0,,,2999.2030000179075,completion,,,,,false,,,,461756.7000000179,461756.2000000179,458716.257,458721.2000000179,458756.997,461792.39,8,400,,,
trial,html.Screen,4_95_0,2023-09-15T16:47:34.210Z,,0,2,,3282.8100000178674,response,ISIC_0626501.JPG,8,ISIC_0068961.JPG,ISIC_0626501.JPG,false,1,keypress(m),500,465075.5,465075.2000000179,461745.852,461756.8000000119,461792.39,465113.344,8,400,46,,ISIC_0068961.JPG
break,html.Screen,4_95_1,2023-09-15T16:47:34.211Z,,0,,,NaN,,,,,,false,,,,465076.5,465076.3000000119,,465075.8000000119,,465113.344,8,400,,,
break_continue,html.Screen,4_95_2,2023-09-15T16:47:34.212Z,,0,,,NaN,,,,,,false,,,,465077.10000002384,465077,,465076.90000000596,,465113.344,8,400,,,
sequence,flow.Sequence,4_95,2023-09-15T16:47:34.212Z,,0,,,3284.609999999986,completion,,,,,false,,,,465077.40000000596,465077,461745.852,461756.8000000119,461792.39,465113.344,8,400,,,
trial,html.Screen,4_96_0,2023-09-15T16:47:37.815Z,,0,2,,3566.3560000178986,response,ISIC_0014708.JPG,606,ISIC_0010729.JPG,ISIC_0014708.JPG,false,1,keypress(m),500,468680.10000002384,468679.7000000179,465069.45,465077.40000000596,465113.344,468737.978,8,400,47,,ISIC_0010729.JPG
break,html.Screen,4_96_1,2023-09-15T16:47:37.816Z,,0,,,NaN,,,,,,false,,,,468680.90000000596,468680.8000000119,,468680.2000000179,,468737.978,8,400,,,
break_continue,html.Screen,4_96_2,2023-09-15T16:47:37.816Z,,0,,,NaN,,,,,,false,,,,468681.2000000179,468681.10000002384,,468681,,468737.978,8,400,,,
sequence,flow.Sequence,4_96,2023-09-15T16:47:37.816Z,,0,,,3567.756000023859,completion,,,,,false,,,,468681.40000000596,468681.10000002384,465069.45,465077.40000000596,465113.344,468737.978,8,400,,,
trial,html.Screen,4_97_0,2023-09-15T16:47:41.237Z,,0,2,,3364.021999999997,response,ISIC_0010400.JPG,6,ISIC_0060508.JPG,ISIC_0060508.JPG,false,0,keypress(z),500,472102.3000000119,472102,468687.966,468681.5,468737.978,472128.66,8,400,48,,ISIC_0010400.JPG
break,html.Screen,4_97_1,2023-09-15T16:47:41.238Z,,0,,,NaN,,,,,,false,,,,472103.3000000119,472103.10000002384,,472102.60000002384,,472128.66,8,400,,,
break_continue,html.Screen,4_97_2,2023-09-15T16:47:41.239Z,,0,,,NaN,,,,,,false,,,,472103.8000000119,472103.8000000119,,472103.60000002384,,472128.66,8,400,,,
sequence,flow.Sequence,4_97,2023-09-15T16:47:41.239Z,,0,,,3365.822000011918,completion,,,,,false,,,,472104,472103.8000000119,468687.966,468681.40000000596,468737.978,472128.66,8,400,,,
trial,html.Screen,4_98_0,2023-09-15T16:47:46.071Z,,0,2,,4807.6400000119465,response,ISIC_1175170.JPG,576,ISIC_0000395.JPG,ISIC_1175170.JPG,false,1,keypress(m),500,476936.60000002384,476936.3000000119,472089.786,472104.10000002384,472128.66,476974.444,8,400,49,,ISIC_0000395.JPG
break,html.Screen,4_98_1,2023-09-15T16:47:46.072Z,,0,,,NaN,,,,,,false,,,,476937.7000000179,476937.5,,476936.8000000119,,476974.444,8,400,,,
break_continue,html.Screen,4_98_2,2023-09-15T16:47:46.073Z,,0,,,NaN,,,,,,false,,,,476938.40000000596,476938.2000000179,,476938,,476974.444,8,400,,,
sequence,flow.Sequence,4_98,2023-09-15T16:47:46.073Z,,0,,,4809.540000017907,completion,,,,,false,,,,476938.7000000179,476938.2000000179,472089.786,472104.10000002384,472128.66,476974.444,8,400,,,
trial,html.Screen,4_99_0,2023-09-15T16:47:49.092Z,,0,2,,2982.7560000178637,response,ISIC_0024512.JPG,8,ISIC_9751601.JPG,ISIC_9751601.JPG,false,0,keypress(z),500,479957.60000002384,479957.2000000179,476928.88,476938.8000000119,476974.444,479979.006,8,400,50,,ISIC_0024512.JPG
break,html.Screen,4_99_1,2023-09-15T16:47:59.315Z,,0,,,10200.531000000017,timeout,,,,,false,,,,490180.5,490180.10000002384,479944.243,479957.8000000119,479979.006,490179.537,8,400,,,
break_continue,html.Screen,4_99_2,2023-09-15T16:48:33.692Z,,0,,,34351.56300002383,response,,,,,false,continue,keypress(Space),,524556.900000006,524531.1000000238,490180.10000002384,490180.7000000179,490179.537,524595.026,8,400,,,
sequence,flow.Sequence,4_99,2023-09-15T16:48:33.692Z,,0,,,47556.656000023824,completion,,,,,false,,,,524557.2000000179,524531.1000000238,476928.88,476938.7000000179,476974.444,524595.026,8,400,,,
trial,html.Screen,4_100_0,2023-09-15T16:48:39.050Z,,0,3,,5319.474000000046,response,ISIC_1048913.JPG,4,ISIC_0026509.JPG,ISIC_1048913.JPG,false,1,keypress(m),500,529914.8000000119,529914.5,524550.283,524557.3000000119,524595.026,529936.148,8,400,1,,ISIC_0026509.JPG
break,html.Screen,4_100_1,2023-09-15T16:48:39.051Z,,0,,,NaN,,,,,,false,,,,529916,529915.6000000238,,529915.1000000238,,529936.148,8,400,,,
break_continue,html.Screen,4_100_2,2023-09-15T16:48:39.051Z,,0,,,NaN,,,,,,false,,,,529916.5,529916.400000006,,529916.3000000119,,529936.148,8,400,,,
sequence,flow.Sequence,4_100,2023-09-15T16:48:39.051Z,,0,,,5321.374000006006,completion,,,,,false,,,,529916.7000000179,529916.400000006,524550.283,524557.2000000179,524595.026,529936.148,8,400,,,
trial,html.Screen,4_101_0,2023-09-15T16:48:41.898Z,,0,3,,2826.5520000178367,response,ISIC_0070136.JPG,9,ISIC_0031958.JPG,ISIC_0031958.JPG,false,0,keypress(z),500,532763,532762.7000000179,529901.501,529916.8000000119,529936.148,532800.779,8,400,2,,ISIC_0070136.JPG
break,html.Screen,4_101_1,2023-09-15T16:48:41.899Z,,0,,,NaN,,,,,,false,,,,532764.1000000238,532763.900000006,,532763.3000000119,,532800.779,8,400,,,
break_continue,html.Screen,4_101_2,2023-09-15T16:48:41.900Z,,0,,,NaN,,,,,,false,,,,532764.900000006,532764.7000000179,,532764.5,,532800.779,8,400,,,
sequence,flow.Sequence,4_101,2023-09-15T16:48:41.900Z,,0,,,2828.5520000178367,completion,,,,,false,,,,532765.1000000238,532764.7000000179,529901.501,529916.8000000119,529936.148,532800.779,8,400,,,
trial,html.Screen,4_102_0,2023-09-15T16:48:44.635Z,,0,3,,2698.8210000238614,response,ISIC_6710082.JPG,7,ISIC_2332127.JPG,ISIC_6710082.JPG,false,1,keypress(m),500,535500,535499.6000000238,532761.049,532765.2000000179,532800.779,535537.58,8,400,3,,ISIC_2332127.JPG
break,html.Screen,4_102_1,2023-09-15T16:48:44.636Z,,0,,,NaN,,,,,,false,,,,535501,535500.8000000119,,535500.2000000179,,535537.58,8,400,,,
break_continue,html.Screen,4_102_2,2023-09-15T16:48:44.636Z,,0,,,NaN,,,,,,false,,,,535501.5,535501.3000000119,,535501.2000000179,,535537.58,8,400,,,
sequence,flow.Sequence,4_102,2023-09-15T16:48:44.636Z,,0,,,2700.5210000119405,completion,,,,,false,,,,535501.7000000179,535501.3000000119,532761.049,532765.2000000179,532800.779,535537.58,8,400,,,
trial,html.Screen,4_103_0,2023-09-15T16:48:47.407Z,,0,3,,2734.220000011963,response,ISIC_0002693.JPG,10,ISIC_4453506.JPG,ISIC_0002693.JPG,false,1,keypress(m),500,538272,538271.8000000119,535492.745,535501.8000000119,535537.58,538294.714,8,400,4,,ISIC_4453506.JPG
break,html.Screen,4_103_1,2023-09-15T16:48:47.408Z,,0,,,NaN,,,,,,false,,,,538273.2000000179,538272.900000006,,538272.3000000119,,538294.714,8,400,,,
break_continue,html.Screen,4_103_2,2023-09-15T16:48:47.409Z,,0,,,NaN,,,,,,false,,,,538273.8000000119,538273.6000000238,,538273.5,,538294.714,8,400,,,
sequence,flow.Sequence,4_103,2023-09-15T16:48:47.409Z,,0,,,2736.0200000238838,completion,,,,,false,,,,538274,538273.6000000238,535492.745,535501.8000000119,535537.58,538294.714,8,400,,,
trial,html.Screen,4_104_0,2023-09-15T16:48:51.028Z,,0,3,,3598.0860000118846,response,ISIC_0010723.JPG,7,ISIC_0064298.JPG,ISIC_0064298.JPG,false,0,keypress(z),500,541893.1000000238,541892.8000000119,538257.696,538274.2000000179,538294.714,541930.896,8,400,5,,ISIC_0010723.JPG
break,html.Screen,4_104_1,2023-09-15T16:48:51.029Z,,0,,,NaN,,,,,,false,,,,541894.3000000119,541893.900000006,,541893.400000006,,541930.896,8,400,,,
break_continue,html.Screen,4_104_2,2023-09-15T16:48:51.029Z,,0,,,NaN,,,,,,false,,,,541894.7000000179,541894.6000000238,,541894.400000006,,541930.896,8,400,,,
sequence,flow.Sequence,4_104,2023-09-15T16:48:51.030Z,,0,,,3599.8860000238055,completion,,,,,false,,,,541894.8000000119,541894.6000000238,538257.696,538274.1000000238,538294.714,541930.896,8,400,,,
trial,html.Screen,4_105_0,2023-09-15T16:48:53.796Z,,0,3,,2729.6040000000503,response,ISIC_3288342.JPG,7,ISIC_3170155.JPG,ISIC_3170155.JPG,false,0,keypress(z),500,544660.900000006,544660.5,541889.933,541895,541930.896,544698.675,8,400,6,,ISIC_3288342.JPG
break,html.Screen,4_105_1,2023-09-15T16:48:53.797Z,,0,,,NaN,,,,,,false,,,,544662.6000000238,544661.8000000119,,544661.1000000238,,544698.675,8,400,,,
break_continue,html.Screen,4_105_2,2023-09-15T16:48:53.798Z,,0,,,NaN,,,,,,false,,,,544663.2000000179,544663,,544662.8000000119,,544698.675,8,400,,,
sequence,flow.Sequence,4_105,2023-09-15T16:48:53.798Z,,0,,,2732.1040000000503,completion,,,,,false,,,,544663.3000000119,544663,541889.933,541895,541930.896,544698.675,8,400,,,
trial,html.Screen,4_106_0,2023-09-15T16:48:56.722Z,,0,3,,2888.025000017835,response,ISIC_0422299.JPG,5,ISIC_1569775.JPG,ISIC_1569775.JPG,false,0,keypress(z),500,547587.1000000238,547586.7000000179,544657.311,544663.5,544698.675,547622.536,8,400,7,,ISIC_0422299.JPG
break,html.Screen,4_106_1,2023-09-15T16:48:56.723Z,,0,,,NaN,,,,,,false,,,,547588.2000000179,547587.8000000119,,547587.3000000119,,547622.536,8,400,,,
break_continue,html.Screen,4_106_2,2023-09-15T16:48:56.723Z,,0,,,NaN,,,,,,false,,,,547588.6000000238,547588.5,,547588.5,,547622.536,8,400,,,
sequence,flow.Sequence,4_106,2023-09-15T16:48:56.724Z,,0,,,2889.8249999999534,completion,,,,,false,,,,547588.900000006,547588.5,544657.311,544663.400000006,544698.675,547622.536,8,400,,,
trial,html.Screen,4_107_0,2023-09-15T16:48:59.260Z,,0,3,,2502.064000023878,response,ISIC_0064080.JPG,15,ISIC_0033016.JPG,ISIC_0064080.JPG,false,1,keypress(m),500,550125,550124.6000000238,547582.689,547589,547622.536,550162.881,8,400,8,,ISIC_0033016.JPG
break,html.Screen,4_107_1,2023-09-15T16:48:59.261Z,,0,,,NaN,,,,,,false,,,,550126.2000000179,550125.900000006,,550125.3000000119,,550162.881,8,400,,,
break_continue,html.Screen,4_107_2,2023-09-15T16:48:59.262Z,,0,,,NaN,,,,,,false,,,,550127.2000000179,550127,,550126.900000006,,550162.881,8,400,,,
sequence,flow.Sequence,4_107,2023-09-15T16:48:59.262Z,,0,,,2504.4640000000363,completion,,,,,false,,,,550127.400000006,550127,547582.689,547588.900000006,547622.536,550162.881,8,400,,,
trial,html.Screen,4_108_0,2023-09-15T16:49:01.892Z,,0,3,,2593.618999999948,response,ISIC_3836576.JPG,9,ISIC_0010046.JPG,ISIC_3836576.JPG,false,1,keypress(m),500,552756.8000000119,552756.5,550116.9,550127.6000000238,550162.881,552794.628,8,400,9,,ISIC_0010046.JPG
break,html.Screen,4_108_1,2023-09-15T16:49:01.893Z,,0,,,NaN,,,,,,false,,,,552758.2000000179,552757.6000000238,,552757.1000000238,,552794.628,8,400,,,
break_continue,html.Screen,4_108_2,2023-09-15T16:49:01.894Z,,0,,,NaN,,,,,,false,,,,552759,552758.900000006,,552758.7000000179,,552794.628,8,400,,,
sequence,flow.Sequence,4_108,2023-09-15T16:49:01.894Z,,0,,,2596.0190000059083,completion,,,,,false,,,,552759.2000000179,552758.900000006,550116.9,550127.5,550162.881,552794.628,8,400,,,
trial,html.Screen,4_109_0,2023-09-15T16:49:06.101Z,,0,3,,4171.371999999974,response,ISIC_5832901.JPG,6,ISIC_0011798.JPG,ISIC_0011798.JPG,false,0,keypress(z),500,556966.3000000119,556966,552752.333,552759.3000000119,552794.628,557004.076,8,400,10,,ISIC_5832901.JPG
break,html.Screen,4_109_1,2023-09-15T16:49:06.102Z,,0,,,NaN,,,,,,false,,,,556967.3000000119,556967.1000000238,,556966.6000000238,,557004.076,8,400,,,
break_continue,html.Screen,4_109_2,2023-09-15T16:49:06.103Z,,0,,,NaN,,,,,,false,,,,556968.3000000119,556968.3000000119,,556968,,557004.076,8,400,,,
sequence,flow.Sequence,4_109,2023-09-15T16:49:06.103Z,,0,,,4173.672000011895,completion,,,,,false,,,,556968.5,556968.3000000119,552752.333,552759.2000000179,552794.628,557004.076,8,400,,,
trial,html.Screen,4_110_0,2023-09-15T16:49:10.570Z,,0,3,,4431.1240000178805,response,ISIC_5499139.JPG,717,ISIC_0056156.JPG,ISIC_5499139.JPG,false,1,keypress(m),500,561435.5,561435.2000000179,556963.253,556968.6000000238,557004.076,561464.662,8,400,11,,ISIC_0056156.JPG
break,html.Screen,4_110_1,2023-09-15T16:49:10.572Z,,0,,,NaN,,,,,,false,,,,561436.7000000179,561436.400000006,,561435.8000000119,,561464.662,8,400,,,
break_continue,html.Screen,4_110_2,2023-09-15T16:49:10.572Z,,0,,,NaN,,,,,,false,,,,561437.2000000179,561437.1000000238,,561436.900000006,,561464.662,8,400,,,
sequence,flow.Sequence,4_110,2023-09-15T16:49:10.572Z,,0,,,4433.024000023841,completion,,,,,false,,,,561437.400000006,561437.1000000238,556963.253,556968.6000000238,557004.076,561464.662,8,400,,,
trial,html.Screen,4_111_0,2023-09-15T16:49:13.668Z,,0,3,,3068.03800001787,response,ISIC_2152875.JPG,6,ISIC_1192835.JPG,ISIC_1192835.JPG,false,0,keypress(z),500,564533,564532.7000000179,561426.174,561437.5,561464.662,564570.84,8,400,12,,ISIC_2152875.JPG
break,html.Screen,4_111_1,2023-09-15T16:49:13.669Z,,0,,,NaN,,,,,,false,,,,564534.3000000119,564533.8000000119,,564533.2000000179,,564570.84,8,400,,,
break_continue,html.Screen,4_111_2,2023-09-15T16:49:13.670Z,,0,,,NaN,,,,,,false,,,,564534.7000000179,564534.6000000238,,564534.400000006,,564570.84,8,400,,,
sequence,flow.Sequence,4_111,2023-09-15T16:49:13.670Z,,0,,,3069.9380000238307,completion,,,,,false,,,,564535,564534.6000000238,561426.174,561437.5,561464.662,564570.84,8,400,,,
trial,html.Screen,4_112_0,2023-09-15T16:49:16.512Z,,0,3,,2805.860000017914,response,ISIC_8073036.JPG,146,ISIC_0897876.JPG,ISIC_0897876.JPG,false,0,keypress(z),500,567377,567376.7000000179,564525.775,564535,564570.84,567414.771,8,400,13,,ISIC_8073036.JPG
break,html.Screen,4_112_1,2023-09-15T16:49:16.513Z,,0,,,NaN,,,,,,false,,,,567378.2000000179,567377.900000006,,567377.3000000119,,567414.771,8,400,,,
break_continue,html.Screen,4_112_2,2023-09-15T16:49:16.514Z,,0,,,NaN,,,,,,false,,,,567378.8000000119,567378.7000000179,,567378.5,,567414.771,8,400,,,
sequence,flow.Sequence,4_112,2023-09-15T16:49:16.514Z,,0,,,2807.860000017914,completion,,,,,false,,,,567379,567378.7000000179,564525.775,564535,564570.84,567414.771,8,400,,,
trial,html.Screen,4_113_0,2023-09-15T16:49:18.906Z,,0,3,,2356.2290000000503,response,ISIC_0005769.JPG,7,ISIC_6556622.JPG,ISIC_6556622.JPG,false,0,keypress(z),500,569771.400000006,569771,567376.165,567379.2000000179,567414.771,569814.906,8,400,14,,ISIC_0005769.JPG
break,html.Screen,4_113_1,2023-09-15T16:49:18.907Z,,0,,,NaN,,,,,,false,,,,569772.400000006,569772.2000000179,,569771.6000000238,,569814.906,8,400,,,
break_continue,html.Screen,4_113_2,2023-09-15T16:49:18.908Z,,0,,,NaN,,,,,,false,,,,569773.2000000179,569773,,569772.900000006,,569814.906,8,400,,,
sequence,flow.Sequence,4_113,2023-09-15T16:49:18.908Z,,0,,,2358.2290000000503,completion,,,,,false,,,,569773.5,569773,567376.165,567379.1000000238,567414.771,569814.906,8,400,,,
trial,html.Screen,4_114_0,2023-09-15T16:49:22.083Z,,0,3,,3132.4940000060014,response,ISIC_0063234.JPG,6,ISIC_3435596.JPG,ISIC_0063234.JPG,false,1,keypress(m),500,572947.7000000179,572947.400000006,569771.006,569773.5,569814.906,572985.547,8,400,15,,ISIC_3435596.JPG
break,html.Screen,4_114_1,2023-09-15T16:49:22.084Z,,0,,,NaN,,,,,,false,,,,572948.8000000119,572948.6000000238,,572948,,572985.547,8,400,,,
break_continue,html.Screen,4_114_2,2023-09-15T16:49:22.084Z,,0,,,NaN,,,,,,false,,,,572949.5,572949.3000000119,,572949.1000000238,,572985.547,8,400,,,
sequence,flow.Sequence,4_114,2023-09-15T16:49:22.085Z,,0,,,3134.394000011962,completion,,,,,false,,,,572949.7000000179,572949.3000000119,569771.006,569773.5,569814.906,572985.547,8,400,,,
trial,html.Screen,4_115_0,2023-09-15T16:49:24.727Z,,0,3,,2606.153000017861,response,ISIC_7124160.JPG,8,ISIC_0013801.JPG,ISIC_7124160.JPG,false,1,keypress(m),500,575592.1000000238,575591.7000000179,572945.303,572949.900000006,572985.547,575613.438,8,400,16,,ISIC_0013801.JPG
break,html.Screen,4_115_1,2023-09-15T16:49:24.728Z,,0,,,NaN,,,,,,false,,,,575593.3000000119,575592.900000006,,575592.400000006,,575613.438,8,400,,,
break_continue,html.Screen,4_115_2,2023-09-15T16:49:24.729Z,,0,,,NaN,,,,,,false,,,,575593.900000006,575593.8000000119,,575593.5,,575613.438,8,400,,,
sequence,flow.Sequence,4_115,2023-09-15T16:49:24.729Z,,0,,,2608.2530000119004,completion,,,,,false,,,,575594.2000000179,575593.8000000119,572945.303,572949.8000000119,572985.547,575613.438,8,400,,,
trial,html.Screen,4_116_0,2023-09-15T16:49:27.070Z,,0,3,,2321.3620000119554,response,ISIC_0034086.JPG,6,ISIC_3509838.JPG,ISIC_0034086.JPG,false,1,keypress(m),500,577935.1000000238,577934.8000000119,575577.819,575594.2000000179,575613.438,577972.919,8,400,17,,ISIC_3509838.JPG
break,html.Screen,4_116_1,2023-09-15T16:49:27.071Z,,0,,,NaN,,,,,,false,,,,577936.3000000119,577935.900000006,,577935.3000000119,,577972.919,8,400,,,
break_continue,html.Screen,4_116_2,2023-09-15T16:49:27.072Z,,0,,,NaN,,,,,,false,,,,577936.8000000119,577936.6000000238,,577936.5,,577972.919,8,400,,,
sequence,flow.Sequence,4_116,2023-09-15T16:49:27.072Z,,0,,,2323.1620000238763,completion,,,,,false,,,,577937.1000000238,577936.6000000238,575577.819,575594.2000000179,575613.438,577972.919,8,400,,,
trial,html.Screen,4_117_0,2023-09-15T16:49:30.411Z,,0,3,,3303.481000005966,response,ISIC_0013165.JPG,5,ISIC_0069121.JPG,ISIC_0013165.JPG,false,1,keypress(m),500,581276.7000000179,581276.400000006,577930.686,577937.3000000119,577972.919,581314.559,8,400,18,,ISIC_0069121.JPG
break,html.Screen,4_117_1,2023-09-15T16:49:30.413Z,,0,,,NaN,,,,,,false,,,,581277.8000000119,581277.400000006,,581276.900000006,,581314.559,8,400,,,
break_continue,html.Screen,4_117_2,2023-09-15T16:49:30.413Z,,0,,,NaN,,,,,,false,,,,581278.400000006,581278.3000000119,,581278.1000000238,,581314.559,8,400,,,
sequence,flow.Sequence,4_117,2023-09-15T16:49:30.413Z,,0,,,3305.3810000119265,completion,,,,,false,,,,581278.7000000179,581278.3000000119,577930.686,577937.2000000179,577972.919,581314.559,8,400,,,
trial,html.Screen,4_118_0,2023-09-15T16:49:33.672Z,,0,3,,3222.4409999999916,response,ISIC_0011498.JPG,402,ISIC_3559222.JPG,ISIC_3559222.JPG,false,0,keypress(z),500,584537.3000000119,584537,581266.519,581278.8000000119,581314.559,584575.131,8,400,19,,ISIC_0011498.JPG
break,html.Screen,4_118_1,2023-09-15T16:49:33.673Z,,0,,,NaN,,,,,,false,,,,584538.400000006,584538.1000000238,,584537.5,,584575.131,8,400,,,
break_continue,html.Screen,4_118_2,2023-09-15T16:49:33.674Z,,0,,,NaN,,,,,,false,,,,584539.400000006,584539.2000000179,,584539.1000000238,,584575.131,8,400,,,
sequence,flow.Sequence,4_118,2023-09-15T16:49:33.674Z,,0,,,3224.641000017873,completion,,,,,false,,,,584539.5,584539.2000000179,581266.519,581278.8000000119,581314.559,584575.131,8,400,,,
trial,html.Screen,4_119_0,2023-09-15T16:49:36.351Z,,0,3,,2640.4690000237897,response,ISIC_9756117.JPG,12,ISIC_0033498.JPG,ISIC_9756117.JPG,false,1,keypress(m),500,587215.900000006,587215.6000000238,584533.267,584539.7000000179,584575.131,587237.157,8,400,20,,ISIC_0033498.JPG
break,html.Screen,4_119_1,2023-09-15T16:49:36.352Z,,0,,,NaN,,,,,,false,,,,587216.900000006,587216.7000000179,,587216.1000000238,,587237.157,8,400,,,
break_continue,html.Screen,4_119_2,2023-09-15T16:49:36.353Z,,0,,,NaN,,,,,,false,,,,587217.900000006,587217.8000000119,,587217.5,,587237.157,8,400,,,
sequence,flow.Sequence,4_119,2023-09-15T16:49:36.353Z,,0,,,2642.669000011869,completion,,,,,false,,,,587218.1000000238,587217.8000000119,584533.267,584539.6000000238,584575.131,587237.157,8,400,,,
trial,html.Screen,4_120_0,2023-09-15T16:49:39.974Z,,0,3,,3601.6430000119144,response,ISIC_4307205.JPG,8,ISIC_0059435.JPG,ISIC_4307205.JPG,false,1,keypress(m),500,590839,590838.8000000119,587201.336,587218.2000000179,587237.157,590876.759,8,400,21,,ISIC_0059435.JPG
break,html.Screen,4_120_1,2023-09-15T16:49:39.975Z,,0,,,NaN,,,,,,false,,,,590840.1000000238,590839.900000006,,590839.3000000119,,590876.759,8,400,,,
break_continue,html.Screen,4_120_2,2023-09-15T16:49:39.976Z,,0,,,NaN,,,,,,false,,,,590841.2000000179,590841,,590840.8000000119,,590876.759,8,400,,,
sequence,flow.Sequence,4_120,2023-09-15T16:49:39.976Z,,0,,,3603.8429999999935,completion,,,,,false,,,,590841.3000000119,590841,587201.336,587218.2000000179,587237.157,590876.759,8,400,,,
trial,html.Screen,4_121_0,2023-09-15T16:49:42.615Z,,0,3,,2603.241000000038,response,ISIC_9470876.JPG,7,ISIC_0027145.JPG,ISIC_9470876.JPG,false,1,keypress(m),500,593480.400000006,593480,590834.287,590841.400000006,590876.759,593515.747,8,400,22,,ISIC_0027145.JPG
break,html.Screen,4_121_1,2023-09-15T16:49:42.617Z,,0,,,NaN,,,,,,false,,,,593482,593481.7000000179,,593480.7000000179,,593515.747,8,400,,,
break_continue,html.Screen,4_121_2,2023-09-15T16:49:42.618Z,,0,,,NaN,,,,,,false,,,,593482.900000006,593482.400000006,,593482.2000000179,,593515.747,8,400,,,
sequence,flow.Sequence,4_121,2023-09-15T16:49:42.618Z,,0,,,2605.6410000059986,completion,,,,,false,,,,593483.1000000238,593482.400000006,590834.287,590841.400000006,590876.759,593515.747,8,400,,,
trial,html.Screen,4_122_0,2023-09-15T16:49:45.510Z,,0,3,,2859.053000011947,response,ISIC_6640686.JPG,6,ISIC_0067170.JPG,ISIC_6640686.JPG,false,1,keypress(m),500,596375.1000000238,596374.8000000119,593472.219,593483.3000000119,593515.747,596412.816,8,400,23,,ISIC_0067170.JPG
break,html.Screen,4_122_1,2023-09-15T16:49:45.511Z,,0,,,NaN,,,,,,false,,,,596376,596375.8000000119,,596375.3000000119,,596412.816,8,400,,,
break_continue,html.Screen,4_122_2,2023-09-15T16:49:45.512Z,,0,,,NaN,,,,,,false,,,,596377,596376.8000000119,,596376.3000000119,,596412.816,8,400,,,
sequence,flow.Sequence,4_122,2023-09-15T16:49:45.512Z,,0,,,2861.053000011947,completion,,,,,false,,,,596377.2000000179,596376.8000000119,593472.219,593483.3000000119,593515.747,596412.816,8,400,,,
trial,html.Screen,4_123_0,2023-09-15T16:49:48.595Z,,0,3,,3046.6840000000084,response,ISIC_2565206.JPG,6,ISIC_0028501.JPG,ISIC_0028501.JPG,false,0,keypress(z),500,599459.900000006,599459.5,596370.858,596377.3000000119,596412.816,599497.415,8,400,24,,ISIC_2565206.JPG
break,html.Screen,4_123_1,2023-09-15T16:49:48.596Z,,0,,,NaN,,,,,,false,,,,599460.8000000119,599460.7000000179,,599460.1000000238,,599497.415,8,400,,,
break_continue,html.Screen,4_123_2,2023-09-15T16:49:48.596Z,,0,,,NaN,,,,,,false,,,,599461.3000000119,599461.2000000179,,599461,,599497.415,8,400,,,
sequence,flow.Sequence,4_123,2023-09-15T16:49:48.596Z,,0,,,3048.38400001789,completion,,,,,false,,,,599461.5,599461.2000000179,596370.858,596377.3000000119,596412.816,599497.415,8,400,,,
trial,html.Screen,4_124_0,2023-09-15T16:49:51.504Z,,0,3,,2871.6850000238046,response,ISIC_9418196.JPG,227,ISIC_0000310.JPG,ISIC_9418196.JPG,false,1,keypress(m),500,602369.3000000119,602369.1000000238,599455.628,599461.6000000238,599497.415,602391.022,8,400,25,,ISIC_0000310.JPG
break,html.Screen,4_124_1,2023-09-15T16:49:51.505Z,,0,,,NaN,,,,,,false,,,,602370.3000000119,602370.1000000238,,602369.5,,602391.022,8,400,,,
break_continue,html.Screen,4_124_2,2023-09-15T16:49:51.506Z,,0,,,NaN,,,,,,false,,,,602370.8000000119,602370.7000000179,,602370.5,,602391.022,8,400,,,
sequence,flow.Sequence,4_124,2023-09-15T16:49:51.506Z,,0,,,2873.285000017844,completion,,,,,false,,,,602371,602370.7000000179,599455.628,599461.6000000238,599497.415,602391.022,8,400,,,
trial,html.Screen,4_125_0,2023-09-15T16:49:54.567Z,,0,3,,3040.8780000059633,response,ISIC_0071707.JPG,21,ISIC_0025379.JPG,ISIC_0025379.JPG,false,0,keypress(z),500,605432.2000000179,605431.900000006,602356.809,602371.1000000238,602391.022,605453.473,8,400,26,,ISIC_0071707.JPG
break,html.Screen,4_125_1,2023-09-15T16:49:54.568Z,,0,,,NaN,,,,,,false,,,,605433.3000000119,605433,,605432.400000006,,605453.473,8,400,,,
break_continue,html.Screen,4_125_2,2023-09-15T16:49:54.569Z,,0,,,NaN,,,,,,false,,,,605434.3000000119,605434.1000000238,,605434,,605453.473,8,400,,,
sequence,flow.Sequence,4_125,2023-09-15T16:49:54.569Z,,0,,,3043.0780000238447,completion,,,,,false,,,,605434.5,605434.1000000238,602356.809,602371,602391.022,605453.473,8,400,,,
