sender,sender_type,sender_id,timestamp,meta,,blockNo,condition,duration,ended_on,img_left,img_reveal,img_right,loser,practice,response,response_action,selection_duration,time_commit,time_end,time_render,time_run,time_show,time_switch,total_blocks,total_trials,trialNo,url,winner
informed_consent,html.Screen,0,2023-09-11T18:27:29.927Z,"{""labjs_version"":""20.2.4"",""labjs_build"":{""flavor"":""production"",""commit"":""f5b4a49f956347addd546a832a3327688c2c0fef""},""location"":""https://run.pavlovia.org/MurrayBennett/melanoma-2afc/?participant=67632&platform=sona"",""userAgent"":""Mozilla/5.0 (Macintosh; Intel Mac OS X 10_15_7) AppleWebKit/537.36 (KHTML, like Gecko) Chrome/116.0.0.0 Safari/537.36"",""platform"":""MacIntel"",""language"":""en-US"",""locale"":""en-US"",""timeZone"":""America/Chicago"",""timezoneOffset"":300,""screen_width"":1440,""screen_height"":900,""scroll_width"":1440,""scroll_height"":640,""window_innerWidth"":1440,""window_innerHeight"":688,""devicePixelRatio"":2}",,,,11066.680000190736,response,,,,,,consent,click button,,13789.600000143051,13786.800000190735,2570.126,2726.7000000476837,2720.12,13803.413,,,,"{""participant"":""67632"",""platform"":""sona""}",
Welcome,html.Screen,1,2023-09-11T18:27:41.076Z,,,,regular,11130.68700014305,response,,,,,,continue,click button,,24938.700000047684,24934.10000014305,13786.747,13789.800000190735,13803.413,24953.462,,,,,
trial,html.Screen,2_0_0,2023-09-11T18:27:52.579Z,,0,0,,11516.682999999997,timeout,ISIC_0061792.JPG,,ISIC_4679428.JPG,,true,,,500,36442.10000014305,36441.5,24936.796,24938.900000095367,24953.462,36470.145,1,6,1,,
sequence,flow.Sequence,2_0,2023-09-11T18:27:52.580Z,,0,,,11488.038,completion,,,,,true,,,,36442.700000047684,36441.5,24936.796,24938.900000095367,24953.462,36470.145,1,6,,,
trial,html.Screen,2_1_0,2023-09-11T18:27:55.583Z,,0,0,,2975.555000047687,response,ISIC_0776486.JPG,,ISIC_5199497.JPG,ISIC_5199497.JPG,true,0,keypress(Z),500,39446.10000014305,39445.700000047684,36453.479,36443,36470.145,39453.359,1,6,2,,ISIC_0776486.JPG
sequence,flow.Sequence,2_1,2023-09-11T18:27:55.583Z,,0,,,2975.555000047687,completion,,,,,true,,,,39446.5,39445.700000047684,36453.479,36442.90000009537,36470.145,39453.359,1,6,,,
trial,html.Screen,2_2_0,2023-09-11T18:28:01.605Z,,0,0,,6014.241000143054,response,ISIC_2556187.JPG,,ISIC_8575776.JPG,ISIC_8575776.JPG,true,0,keypress(Z),500,45468.10000014305,45467.60000014305,39436.693,39446.700000047684,39453.359,45469.785,1,6,3,,ISIC_2556187.JPG
sequence,flow.Sequence,2_2,2023-09-11T18:28:01.605Z,,0,,,6014.241000143054,completion,,,,,true,,,,45468.60000014305,45467.60000014305,39436.693,39446.700000047684,39453.359,45469.785,1,6,,,
trial,html.Screen,2_3_0,2023-09-11T18:28:09.018Z,,0,0,,7410.515000190731,response,ISIC_8141769.JPG,,ISIC_9238366.JPG,ISIC_9238366.JPG,true,0,keypress(Z),500,52880.800000190735,52880.300000190735,45453.119,45468.800000190735,45469.785,52886.547,1,6,4,,ISIC_8141769.JPG
sequence,flow.Sequence,2_3,2023-09-11T18:28:09.018Z,,0,,,7410.515000190731,completion,,,,,true,,,,52881.300000190735,52880.300000190735,45453.119,45468.700000047684,45469.785,52886.547,1,6,,,
trial,html.Screen,2_4_0,2023-09-11T18:28:14.703Z,,0,0,,5679.253000190736,response,ISIC_9959593.JPG,,ISIC_8949026.JPG,ISIC_9959593.JPG,true,1,keypress(m),500,58566.300000190735,58565.800000190735,52869.881,52881.60000014305,52886.547,58570.12,1,6,5,,ISIC_8949026.JPG
sequence,flow.Sequence,2_4,2023-09-11T18:28:14.703Z,,0,,,5679.253000190736,completion,,,,,true,,,,58566.800000190735,58565.800000190735,52869.881,52881.5,52886.547,58570.12,1,6,,,
trial,html.Screen,2_5_0,2023-09-11T18:28:16.738Z,,0,0,,2030.6800001907322,response,ISIC_0010479.JPG,,ISIC_0460240.JPG,ISIC_0010479.JPG,true,1,keypress(m),500,60601.10000014305,60600.800000190735,58553.454,58567,58570.12,60603.372,1,6,6,,ISIC_0460240.JPG
sequence,flow.Sequence,2_5,2023-09-11T18:28:16.738Z,,0,,,2030.6800001907322,completion,,,,,true,,,,60601.300000190735,60600.800000190735,58553.454,58566.90000009537,58570.12,60603.372,1,6,,,
loop,flow.Loop,2,2023-09-11T18:28:16.738Z,,,,,35647.338000190735,completion,,,,,true,,,,60601.5,60600.800000190735,24936.796,24938.800000190735,24953.462,60603.372,1,6,,,
exp_instructions,html.Screen,3,2023-09-11T18:28:19.721Z,,,,,2976.627999999997,response,,,,,,continue,keypress(Space),,63584.60000014305,63580,60586.706,60601.5,60603.372,63586.586,,,,,
trial,html.Screen,4_0_0,2023-09-11T18:28:23.505Z,,0,1,,3780.913999999997,response,ISIC_2023592.JPG,9,ISIC_5585279.JPG,ISIC_2023592.JPG,false,1,keypress(m),500,67368,67367.5,63569.92,63585,63586.586,67369.768,8,400,1,,ISIC_5585279.JPG
break,html.Screen,4_0_1,2023-09-11T18:28:23.506Z,,0,,,NaN,,,,,,false,,,,67369.40000009537,67369.10000014305,,67368.30000019073,,67369.768,8,400,,,
break_continue,html.Screen,4_0_2,2023-09-11T18:28:23.507Z,,0,,,NaN,,,,,,false,,,,67369.80000019073,67369.70000004768,,67369.60000014305,,67369.768,8,400,,,
sequence,flow.Sequence,4_0,2023-09-11T18:28:23.507Z,,0,,,3783.1140000476807,completion,,,,,false,,,,67370.10000014305,67369.70000004768,63569.92,63584.90000009537,63586.586,67369.768,8,400,,,
trial,html.Screen,4_1_0,2023-09-11T18:28:27.399Z,,0,1,,3891.9320000476873,response,ISIC_0055361.JPG,8,ISIC_7738955.JPG,ISIC_7738955.JPG,false,0,keypress(z),500,71262.20000004768,71261.70000004768,67353.102,67370.20000004768,67369.768,71270.041,8,400,2,,ISIC_0055361.JPG
break,html.Screen,4_1_1,2023-09-11T18:28:27.400Z,,0,,,NaN,,,,,,false,,,,71263.30000019073,71263.10000014305,,71262.60000014305,,71270.041,8,400,,,
break_continue,html.Screen,4_1_2,2023-09-11T18:28:27.401Z,,0,,,NaN,,,,,,false,,,,71264.5,71263.5,,71263.40000009537,,71270.041,8,400,,,
sequence,flow.Sequence,4_1,2023-09-11T18:28:27.401Z,,0,,,3893.7320000000036,completion,,,,,false,,,,71264.60000014305,71263.5,67353.102,67370.20000004768,67369.768,71270.041,8,400,,,
trial,html.Screen,4_2_0,2023-09-11T18:28:32.222Z,,0,1,,4815.35900009537,response,ISIC_0059353.JPG,7,ISIC_0069620.JPG,ISIC_0069620.JPG,false,0,keypress(z),500,76085.70000004768,76085.40000009537,71253.375,71264.70000004768,71270.041,76086.515,8,400,3,,ISIC_0059353.JPG
break,html.Screen,4_2_1,2023-09-11T18:28:32.223Z,,0,,,NaN,,,,,,false,,,,76086.40000009537,76086.30000019073,,76085.90000009537,,76086.515,8,400,,,
break_continue,html.Screen,4_2_2,2023-09-11T18:28:32.223Z,,0,,,NaN,,,,,,false,,,,76086.60000014305,76086.60000014305,,76086.5,,76086.515,8,400,,,
sequence,flow.Sequence,4_2,2023-09-11T18:28:32.223Z,,0,,,4816.559000143054,completion,,,,,false,,,,76086.70000004768,76086.60000014305,71253.375,71264.70000004768,71270.041,76086.515,8,400,,,
trial,html.Screen,4_3_0,2023-09-11T18:28:35.027Z,,0,1,,2803.1850000476843,response,ISIC_0030492.JPG,8,ISIC_8588033.JPG,ISIC_0030492.JPG,false,1,keypress(m),500,78890.10000014305,78889.70000004768,76069.849,76086.70000004768,76086.515,78903.473,8,400,4,,ISIC_8588033.JPG
break,html.Screen,4_3_1,2023-09-11T18:28:35.027Z,,0,,,NaN,,,,,,false,,,,78890.80000019073,78890.60000014305,,78890.30000019073,,78903.473,8,400,,,
break_continue,html.Screen,4_3_2,2023-09-11T18:28:35.028Z,,0,,,NaN,,,,,,false,,,,78891,78890.90000009537,,78890.90000009537,,78903.473,8,400,,,
sequence,flow.Sequence,4_3,2023-09-11T18:28:35.028Z,,0,,,2804.385000095368,completion,,,,,false,,,,78891.10000014305,78890.90000009537,76069.849,76086.70000004768,76086.515,78903.473,8,400,,,
trial,html.Screen,4_4_0,2023-09-11T18:28:38.570Z,,0,1,,3529.4270000953693,response,ISIC_0061066.JPG,9,ISIC_0029761.JPG,ISIC_0029761.JPG,false,0,keypress(z),500,82433.40000009537,82432.90000009537,78886.807,78891.20000004768,78903.473,82436.665,8,400,5,,ISIC_0061066.JPG
break,html.Screen,4_4_1,2023-09-11T18:28:38.571Z,,0,,,NaN,,,,,,false,,,,82434.40000009537,82434.20000004768,,82433.70000004768,,82436.665,8,400,,,
break_continue,html.Screen,4_4_2,2023-09-11T18:28:38.571Z,,0,,,NaN,,,,,,false,,,,82434.70000004768,82434.60000014305,,82434.5,,82436.665,8,400,,,
sequence,flow.Sequence,4_4,2023-09-11T18:28:38.571Z,,0,,,3531.127000143053,completion,,,,,false,,,,82434.90000009537,82434.60000014305,78886.807,78891.20000004768,78903.473,82436.665,8,400,,,
trial,html.Screen,4_5_0,2023-09-11T18:28:41.153Z,,0,1,,2579.235000095374,response,ISIC_7319686.JPG,8,ISIC_0012382.JPG,ISIC_7319686.JPG,false,1,keypress(m),500,85016.20000004768,85015.90000009537,82419.999,82435.10000014305,82436.665,85019.895,8,400,6,,ISIC_0012382.JPG
break,html.Screen,4_5_1,2023-09-11T18:28:41.154Z,,0,,,NaN,,,,,,false,,,,85017.30000019073,85017.20000004768,,85016.70000004768,,85019.895,8,400,,,
break_continue,html.Screen,4_5_2,2023-09-11T18:28:41.154Z,,0,,,NaN,,,,,,false,,,,85017.60000014305,85017.60000014305,,85017.5,,85019.895,8,400,,,
sequence,flow.Sequence,4_5,2023-09-11T18:28:41.154Z,,0,,,2580.9350001430576,completion,,,,,false,,,,85017.80000019073,85017.60000014305,82419.999,82435,82436.665,85019.895,8,400,,,
trial,html.Screen,4_6_0,2023-09-11T18:28:43.957Z,,0,1,,2799.905000190731,response,ISIC_1585370.JPG,8,ISIC_0057313.JPG,ISIC_1585370.JPG,false,1,keypress(m),500,87820.20000004768,87819.80000019073,85003.229,85017.90000009537,85019.895,87836.449,8,400,7,,ISIC_0057313.JPG
break,html.Screen,4_6_1,2023-09-11T18:28:43.957Z,,0,,,NaN,,,,,,false,,,,87820.80000019073,87820.60000014305,,87820.30000019073,,87836.449,8,400,,,
break_continue,html.Screen,4_6_2,2023-09-11T18:28:43.957Z,,0,,,NaN,,,,,,false,,,,87820.90000009537,87820.90000009537,,87820.90000009537,,87836.449,8,400,,,
sequence,flow.Sequence,4_6,2023-09-11T18:28:43.958Z,,0,,,2801.0050000953634,completion,,,,,false,,,,87821,87820.90000009537,85003.229,85017.80000019073,85019.895,87836.449,8,400,,,
trial,html.Screen,4_7_0,2023-09-11T18:28:46.878Z,,0,1,,2904.651000143058,response,ISIC_3926019.JPG,8,ISIC_7044184.JPG,ISIC_7044184.JPG,false,0,keypress(z),500,90741.60000014305,90741.10000014305,87819.783,87821.10000014305,87836.449,90753.378,8,400,8,,ISIC_3926019.JPG
break,html.Screen,4_7_1,2023-09-11T18:28:46.879Z,,0,,,NaN,,,,,,false,,,,90742.5,90742.40000009537,,90741.90000009537,,90753.378,8,400,,,
break_continue,html.Screen,4_7_2,2023-09-11T18:28:46.879Z,,0,,,NaN,,,,,,false,,,,90742.90000009537,90742.80000019073,,90742.70000004768,,90753.378,8,400,,,
sequence,flow.Sequence,4_7,2023-09-11T18:28:46.880Z,,0,,,2906.3510001907416,completion,,,,,false,,,,90743.10000014305,90742.80000019073,87819.783,87821,87836.449,90753.378,8,400,,,
trial,html.Screen,4_8_0,2023-09-11T18:28:50.292Z,,0,1,,3402.0220000953705,response,ISIC_0805941.JPG,8,ISIC_0011858.JPG,ISIC_0011858.JPG,false,0,keypress(z),500,94155.70000004768,94155.40000009537,90736.712,90743.20000004768,90753.378,94169.908,8,400,9,,ISIC_0805941.JPG
break,html.Screen,4_8_1,2023-09-11T18:28:50.293Z,,0,,,NaN,,,,,,false,,,,94156.80000019073,94156.60000014305,,94156.10000014305,,94169.908,8,400,,,
break_continue,html.Screen,4_8_2,2023-09-11T18:28:50.294Z,,0,,,NaN,,,,,,false,,,,94157.20000004768,94157.10000014305,,94156.90000009537,,94169.908,8,400,,,
sequence,flow.Sequence,4_8,2023-09-11T18:28:50.294Z,,0,,,3403.722000143054,completion,,,,,false,,,,94157.40000009537,94157.10000014305,90736.712,90743.10000014305,90753.378,94169.908,8,400,,,
trial,html.Screen,4_9_0,2023-09-11T18:28:53.736Z,,0,1,,3429.1920001430553,response,ISIC_9720518.JPG,8,ISIC_0003910.JPG,ISIC_9720518.JPG,false,1,keypress(m),500,97599.5,97599.10000014305,94153.242,94157.60000014305,94169.908,97603.104,8,400,10,,ISIC_0003910.JPG
break,html.Screen,4_9_1,2023-09-11T18:28:53.737Z,,0,,,NaN,,,,,,false,,,,97600.5,97600.30000019073,,97599.70000004768,,97603.104,8,400,,,
break_continue,html.Screen,4_9_2,2023-09-11T18:28:53.737Z,,0,,,NaN,,,,,,false,,,,97600.80000019073,97600.70000004768,,97600.60000014305,,97603.104,8,400,,,
sequence,flow.Sequence,4_9,2023-09-11T18:28:53.737Z,,0,,,3430.792000047688,completion,,,,,false,,,,97601,97600.70000004768,94153.242,94157.5,94169.908,97603.104,8,400,,,
trial,html.Screen,4_10_0,2023-09-11T18:28:57.375Z,,0,1,,3634.6960001907282,response,ISIC_4443373.JPG,8,ISIC_2805573.JPG,ISIC_2805573.JPG,false,0,keypress(z),500,101238.30000019073,101237.80000019073,97586.438,97601.10000014305,97603.104,101253.411,8,400,11,,ISIC_4443373.JPG
break,html.Screen,4_10_1,2023-09-11T18:28:57.376Z,,0,,,NaN,,,,,,false,,,,101239.20000004768,101239,,101238.5,,101253.411,8,400,,,
break_continue,html.Screen,4_10_2,2023-09-11T18:28:57.376Z,,0,,,NaN,,,,,,false,,,,101239.60000014305,101239.5,,101239.30000019073,,101253.411,8,400,,,
sequence,flow.Sequence,4_10,2023-09-11T18:28:57.376Z,,0,,,3636.3959999999934,completion,,,,,false,,,,101239.80000019073,101239.5,97586.438,97601,97603.104,101253.411,8,400,,,
trial,html.Screen,4_11_0,2023-09-11T18:29:00.966Z,,0,1,,3576.089000000007,response,ISIC_9690371.JPG,8,ISIC_0027402.JPG,ISIC_0027402.JPG,false,0,keypress(z),500,104829.90000009537,104829.5,101236.745,101239.90000009537,101253.411,104836.601,8,400,12,,ISIC_9690371.JPG
break,html.Screen,4_11_1,2023-09-11T18:29:00.967Z,,0,,,NaN,,,,,,false,,,,104830.90000009537,104830.60000014305,,104830.10000014305,,104836.601,8,400,,,
break_continue,html.Screen,4_11_2,2023-09-11T18:29:00.968Z,,0,,,NaN,,,,,,false,,,,104831.20000004768,104831.10000014305,,104830.90000009537,,104836.601,8,400,,,
sequence,flow.Sequence,4_11,2023-09-11T18:29:00.968Z,,0,,,3577.6890001430584,completion,,,,,false,,,,104831.40000009537,104831.10000014305,101236.745,101239.80000019073,101253.411,104836.601,8,400,,,
trial,html.Screen,4_12_0,2023-09-11T18:29:04.071Z,,0,1,,3097.899000000005,response,ISIC_0070747.JPG,8,ISIC_7587869.JPG,ISIC_0070747.JPG,false,1,keypress(m),500,107934.80000019073,107934.5,104819.935,104831.5,104836.601,107936.477,8,400,13,,ISIC_7587869.JPG
break,html.Screen,4_12_1,2023-09-11T18:29:04.072Z,,0,,,NaN,,,,,,false,,,,107935.60000014305,107935.5,,107935.10000014305,,107936.477,8,400,,,
break_continue,html.Screen,4_12_2,2023-09-11T18:29:04.072Z,,0,,,NaN,,,,,,false,,,,107935.90000009537,107935.80000019073,,107935.70000004768,,107936.477,8,400,,,
sequence,flow.Sequence,4_12,2023-09-11T18:29:04.072Z,,0,,,3099.1990001907398,completion,,,,,false,,,,107936,107935.80000019073,104819.935,104831.5,104836.601,107936.477,8,400,,,
trial,html.Screen,4_13_0,2023-09-11T18:29:06.827Z,,0,1,,2753.623000143052,response,ISIC_2445765.JPG,8,ISIC_1569775.JPG,ISIC_1569775.JPG,false,0,keypress(z),500,110690.5,110690.10000014305,107919.811,107936.20000004768,107936.477,110703.447,8,400,14,,ISIC_2445765.JPG
break,html.Screen,4_13_1,2023-09-11T18:29:06.828Z,,0,,,NaN,,,,,,false,,,,110691.20000004768,110691,,110690.70000004768,,110703.447,8,400,,,
break_continue,html.Screen,4_13_2,2023-09-11T18:29:06.828Z,,0,,,NaN,,,,,,false,,,,110691.5,110691.40000009537,,110691.20000004768,,110703.447,8,400,,,
sequence,flow.Sequence,4_13,2023-09-11T18:29:06.828Z,,0,,,2754.9230000953685,completion,,,,,false,,,,110691.5,110691.40000009537,107919.811,107936.20000004768,107936.477,110703.447,8,400,,,
trial,html.Screen,4_14_0,2023-09-11T18:29:09.681Z,,0,1,,2840.553,response,ISIC_8496052.JPG,8,ISIC_0011136.JPG,ISIC_8496052.JPG,false,1,keypress(m),500,113544.5,113544,110686.781,110691.60000014305,110703.447,113553.333,8,400,15,,ISIC_0011136.JPG
break,html.Screen,4_14_1,2023-09-11T18:29:09.682Z,,0,,,NaN,,,,,,false,,,,113545.40000009537,113545.30000019073,,113544.80000019073,,113553.333,8,400,,,
break_continue,html.Screen,4_14_2,2023-09-11T18:29:09.682Z,,0,,,NaN,,,,,,false,,,,113545.90000009537,113545.70000004768,,113545.60000014305,,113553.333,8,400,,,
sequence,flow.Sequence,4_14,2023-09-11T18:29:09.682Z,,0,,,2842.2530000476836,completion,,,,,false,,,,113546.10000014305,113545.70000004768,110686.781,110691.60000014305,110703.447,113553.333,8,400,,,
trial,html.Screen,4_15_0,2023-09-11T18:29:12.366Z,,0,1,,2676.5670000953687,response,ISIC_0563533.JPG,8,ISIC_0028071.JPG,ISIC_0028071.JPG,false,0,keypress(z),500,116230.10000014305,116229.90000009537,113536.667,113546.10000014305,113553.333,116236.559,8,400,16,,ISIC_0563533.JPG
break,html.Screen,4_15_1,2023-09-11T18:29:12.367Z,,0,,,NaN,,,,,,false,,,,116230.60000014305,116230.40000009537,,116230.20000004768,,116236.559,8,400,,,
break_continue,html.Screen,4_15_2,2023-09-11T18:29:12.367Z,,0,,,NaN,,,,,,false,,,,116230.70000004768,116230.70000004768,,116230.60000014305,,116236.559,8,400,,,
sequence,flow.Sequence,4_15,2023-09-11T18:29:12.367Z,,0,,,2677.367000047685,completion,,,,,false,,,,116230.80000019073,116230.70000004768,113536.667,113546.10000014305,113553.333,116236.559,8,400,,,
trial,html.Screen,4_16_0,2023-09-11T18:29:14.643Z,,0,1,,2269.8410000953736,response,ISIC_0061152.JPG,8,ISIC_0028467.JPG,ISIC_0061152.JPG,false,1,keypress(m),500,118506.80000019073,118506.40000009537,116219.893,116230.80000019073,116236.559,118519.801,8,400,17,,ISIC_0028467.JPG
break,html.Screen,4_16_1,2023-09-11T18:29:14.644Z,,0,,,NaN,,,,,,false,,,,118507.60000014305,118507.5,,118507.10000014305,,118519.801,8,400,,,
break_continue,html.Screen,4_16_2,2023-09-11T18:29:14.644Z,,0,,,NaN,,,,,,false,,,,118508,118507.90000009537,,118507.70000004768,,118519.801,8,400,,,
sequence,flow.Sequence,4_16,2023-09-11T18:29:14.645Z,,0,,,2271.3410000953736,completion,,,,,false,,,,118508.20000004768,118507.90000009537,116219.893,116230.80000019073,116236.559,118519.801,8,400,,,
trial,html.Screen,4_17_0,2023-09-11T18:29:17.287Z,,0,1,,2630.2990001430444,response,ISIC_6234702.JPG,8,ISIC_0000301.JPG,ISIC_0000301.JPG,false,0,keypress(z),500,121150.40000009537,121150.10000014305,118503.135,118508.30000019073,118519.801,121153.431,8,400,18,,ISIC_6234702.JPG
break,html.Screen,4_17_1,2023-09-11T18:29:17.288Z,,0,,,NaN,,,,,,false,,,,121151.30000019073,121151.10000014305,,121150.80000019073,,121153.431,8,400,,,
break_continue,html.Screen,4_17_2,2023-09-11T18:29:17.288Z,,0,,,NaN,,,,,,false,,,,121151.70000004768,121151.60000014305,,121151.5,,121153.431,8,400,,,
sequence,flow.Sequence,4_17,2023-09-11T18:29:17.288Z,,0,,,2631.7990001430444,completion,,,,,false,,,,121151.90000009537,121151.60000014305,118503.135,118508.30000019073,118519.801,121153.431,8,400,,,
trial,html.Screen,4_18_0,2023-09-11T18:29:19.559Z,,0,1,,2268.869000190738,response,ISIC_0061164.JPG,8,ISIC_3424207.JPG,ISIC_0061164.JPG,false,1,keypress(m),500,123422.60000014305,123422.30000019073,121136.765,121152,121153.431,123436.673,8,400,19,,ISIC_3424207.JPG
break,html.Screen,4_18_1,2023-09-11T18:29:19.560Z,,0,,,NaN,,,,,,false,,,,123423.60000014305,123423.30000019073,,123423,,123436.673,8,400,,,
break_continue,html.Screen,4_18_2,2023-09-11T18:29:19.560Z,,0,,,NaN,,,,,,false,,,,123423.90000009537,123423.80000019073,,123423.70000004768,,123436.673,8,400,,,
sequence,flow.Sequence,4_18,2023-09-11T18:29:19.560Z,,0,,,2270.369000190738,completion,,,,,false,,,,123424.10000014305,123423.80000019073,121136.765,121152,121153.431,123436.673,8,400,,,
trial,html.Screen,4_19_0,2023-09-11T18:29:22.476Z,,0,1,,2902.5270000476885,response,ISIC_7323761.JPG,9,ISIC_0192596.JPG,ISIC_0192596.JPG,false,0,keypress(z),500,126339.60000014305,126339.20000004768,123420.007,123424.20000004768,123436.673,126353.223,8,400,20,,ISIC_7323761.JPG
break,html.Screen,4_19_1,2023-09-11T18:29:22.477Z,,0,,,NaN,,,,,,false,,,,126340.5,126340.30000019073,,126339.80000019073,,126353.223,8,400,,,
break_continue,html.Screen,4_19_2,2023-09-11T18:29:22.477Z,,0,,,NaN,,,,,,false,,,,126340.90000009537,126340.80000019073,,126340.60000014305,,126353.223,8,400,,,
sequence,flow.Sequence,4_19,2023-09-11T18:29:22.477Z,,0,,,2904.1270001907396,completion,,,,,false,,,,126341,126340.80000019073,123420.007,123424.20000004768,123436.673,126353.223,8,400,,,
trial,html.Screen,4_20_0,2023-09-11T18:29:24.801Z,,0,1,,2310.6770000953693,response,ISIC_3286956.JPG,6,ISIC_0010532.JPG,ISIC_3286956.JPG,false,1,keypress(m),500,128664.40000009537,128663.90000009537,126336.557,126341.20000004768,126353.223,128669.797,8,400,21,,ISIC_0010532.JPG
break,html.Screen,4_20_1,2023-09-11T18:29:24.802Z,,0,,,NaN,,,,,,false,,,,128665.30000019073,128665.10000014305,,128664.60000014305,,128669.797,8,400,,,
break_continue,html.Screen,4_20_2,2023-09-11T18:29:24.802Z,,0,,,NaN,,,,,,false,,,,128665.70000004768,128665.5,,128665.40000009537,,128669.797,8,400,,,
sequence,flow.Sequence,4_20,2023-09-11T18:29:24.802Z,,0,,,2312.277000000002,completion,,,,,false,,,,128665.80000019073,128665.5,126336.557,126341.10000014305,126353.223,128669.797,8,400,,,
trial,html.Screen,4_21_0,2023-09-11T18:29:27.749Z,,0,1,,2942.6030000953615,response,ISIC_7875088.JPG,6,ISIC_0015193.JPG,ISIC_0015193.JPG,false,0,keypress(z),500,131612.80000019073,131612.40000009537,128653.131,128665.90000009537,128669.797,131620.089,8,400,22,,ISIC_7875088.JPG
break,html.Screen,4_21_1,2023-09-11T18:29:27.750Z,,0,,,NaN,,,,,,false,,,,131613.70000004768,131613.5,,131613.10000014305,,131620.089,8,400,,,
break_continue,html.Screen,4_21_2,2023-09-11T18:29:27.750Z,,0,,,NaN,,,,,,false,,,,131614,131614,,131613.90000009537,,131620.089,8,400,,,
sequence,flow.Sequence,4_21,2023-09-11T18:29:27.751Z,,0,,,2944.202999999994,completion,,,,,false,,,,131614.20000004768,131614,128653.131,128665.90000009537,128669.797,131620.089,8,400,,,
trial,html.Screen,4_22_0,2023-09-11T18:29:30.556Z,,0,1,,2799.31100009536,response,ISIC_9433388.JPG,8,ISIC_8551124.JPG,ISIC_9433388.JPG,false,1,keypress(m),500,134419.80000019073,134419.40000009537,131603.423,131614.40000009537,131620.089,134436.643,8,400,23,,ISIC_8551124.JPG
break,html.Screen,4_22_1,2023-09-11T18:29:30.557Z,,0,,,NaN,,,,,,false,,,,134420.80000019073,134420.5,,134420,,134436.643,8,400,,,
break_continue,html.Screen,4_22_2,2023-09-11T18:29:30.557Z,,0,,,NaN,,,,,,false,,,,134421.10000014305,134421,,134420.80000019073,,134436.643,8,400,,,
sequence,flow.Sequence,4_22,2023-09-11T18:29:30.558Z,,0,,,2800.910999999993,completion,,,,,false,,,,134421.20000004768,134421,131603.423,131614.30000019073,131620.089,134436.643,8,400,,,
trial,html.Screen,4_23_0,2023-09-11T18:29:33.747Z,,0,1,,3173.95700014304,response,ISIC_6937905.JPG,8,ISIC_0033568.JPG,ISIC_6937905.JPG,false,1,keypress(m),500,137611.10000014305,137610.60000014305,134419.977,134421.40000009537,134436.643,137619.849,8,400,24,,ISIC_0033568.JPG
break,html.Screen,4_23_1,2023-09-11T18:29:33.748Z,,0,,,NaN,,,,,,false,,,,137612,137611.80000019073,,137611.40000009537,,137619.849,8,400,,,
break_continue,html.Screen,4_23_2,2023-09-11T18:29:33.749Z,,0,,,NaN,,,,,,false,,,,137612.40000009537,137612.30000019073,,137612.10000014305,,137619.849,8,400,,,
sequence,flow.Sequence,4_23,2023-09-11T18:29:33.749Z,,0,,,3175.657000190724,completion,,,,,false,,,,137612.5,137612.30000019073,134419.977,134421.40000009537,134436.643,137619.849,8,400,,,
trial,html.Screen,4_24_0,2023-09-11T18:29:37.258Z,,0,1,,3501.55100009538,response,ISIC_9475559.JPG,5,ISIC_0011752.JPG,ISIC_0011752.JPG,false,0,keypress(z),500,141121.70000004768,141121.40000009537,137603.183,137612.70000004768,137619.849,141136.813,8,400,25,,ISIC_9475559.JPG
break,html.Screen,4_24_1,2023-09-11T18:29:37.258Z,,0,,,NaN,,,,,,false,,,,141122.20000004768,141122.10000014305,,141121.80000019073,,141136.813,8,400,,,
break_continue,html.Screen,4_24_2,2023-09-11T18:29:37.259Z,,0,,,NaN,,,,,,false,,,,141122.30000019073,141122.30000019073,,141122.20000004768,,141136.813,8,400,,,
sequence,flow.Sequence,4_24,2023-09-11T18:29:37.259Z,,0,,,3502.4510001907474,completion,,,,,false,,,,141122.40000009537,141122.30000019073,137603.183,137612.60000014305,137619.849,141136.813,8,400,,,
trial,html.Screen,4_25_0,2023-09-11T18:29:40.320Z,,0,1,,3046.387000047689,response,ISIC_4644299.JPG,8,ISIC_7482149.JPG,ISIC_4644299.JPG,false,1,keypress(m),500,144183.60000014305,144183.20000004768,141120.147,141122.5,141136.813,144186.691,8,400,26,,ISIC_7482149.JPG
break,html.Screen,4_25_1,2023-09-11T18:29:40.321Z,,0,,,NaN,,,,,,false,,,,144184.60000014305,144184.5,,144183.90000009537,,144186.691,8,400,,,
break_continue,html.Screen,4_25_2,2023-09-11T18:29:40.321Z,,0,,,NaN,,,,,,false,,,,144185,144184.90000009537,,144184.80000019073,,144186.691,8,400,,,
sequence,flow.Sequence,4_25,2023-09-11T18:29:40.321Z,,0,,,3048.087000095373,completion,,,,,false,,,,144185.10000014305,144184.90000009537,141120.147,141122.5,141136.813,144186.691,8,400,,,
trial,html.Screen,4_26_0,2023-09-11T18:29:43.311Z,,0,1,,2987.3090000000084,response,ISIC_7921023.JPG,9,ISIC_0013731.JPG,ISIC_0013731.JPG,false,0,keypress(z),500,147174.30000019073,147174,144170.025,144185.30000019073,144186.691,147186.571,8,400,27,,ISIC_7921023.JPG
break,html.Screen,4_26_1,2023-09-11T18:29:43.312Z,,0,,,NaN,,,,,,false,,,,147175.30000019073,147175.20000004768,,147174.60000014305,,147186.571,8,400,,,
break_continue,html.Screen,4_26_2,2023-09-11T18:29:43.312Z,,0,,,NaN,,,,,,false,,,,147175.70000004768,147175.5,,147175.5,,147186.571,8,400,,,
sequence,flow.Sequence,4_26,2023-09-11T18:29:43.312Z,,0,,,2988.8090000000084,completion,,,,,false,,,,147175.80000019073,147175.5,144170.025,144185.20000004768,144186.691,147186.571,8,400,,,
trial,html.Screen,4_27_0,2023-09-11T18:29:47.743Z,,0,1,,4420.129000047687,response,ISIC_0010783.JPG,6,ISIC_9014786.JPG,ISIC_0010783.JPG,false,1,keypress(m),500,151607.20000004768,151606.70000004768,147169.905,147176,147186.571,151620.052,8,400,28,,ISIC_9014786.JPG
break,html.Screen,4_27_1,2023-09-11T18:29:47.744Z,,0,,,NaN,,,,,,false,,,,151608.10000014305,151608,,151607.5,,151620.052,8,400,,,
break_continue,html.Screen,4_27_2,2023-09-11T18:29:47.745Z,,0,,,NaN,,,,,,false,,,,151608.60000014305,151608.40000009537,,151608.30000019073,,151620.052,8,400,,,
sequence,flow.Sequence,4_27,2023-09-11T18:29:47.745Z,,0,,,4421.829000095371,completion,,,,,false,,,,151608.80000019073,151608.40000009537,147169.905,147176,147186.571,151620.052,8,400,,,
trial,html.Screen,4_28_0,2023-09-11T18:29:51.862Z,,0,1,,4104.948000000004,response,ISIC_7667157.JPG,8,ISIC_8484660.JPG,ISIC_8484660.JPG,false,0,keypress(z),500,155725.60000014305,155725,151603.386,151608.90000009537,151620.052,155736.554,8,400,29,,ISIC_7667157.JPG
break,html.Screen,4_28_1,2023-09-11T18:29:51.863Z,,0,,,NaN,,,,,,false,,,,155726.5,155726.40000009537,,155725.90000009537,,155736.554,8,400,,,
break_continue,html.Screen,4_28_2,2023-09-11T18:29:51.863Z,,0,,,NaN,,,,,,false,,,,155726.90000009537,155726.90000009537,,155726.70000004768,,155736.554,8,400,,,
sequence,flow.Sequence,4_28,2023-09-11T18:29:51.863Z,,0,,,4106.848000095371,completion,,,,,false,,,,155727.10000014305,155726.90000009537,151603.386,151608.90000009537,151620.052,155736.554,8,400,,,
trial,html.Screen,4_29_0,2023-09-11T18:29:54.986Z,,0,1,,3112.64600004768,response,ISIC_0031079.JPG,7,ISIC_2670475.JPG,ISIC_2670475.JPG,false,0,keypress(z),500,158849.60000014305,158849.20000004768,155719.888,155727.10000014305,155736.554,158853.096,8,400,30,,ISIC_0031079.JPG
break,html.Screen,4_29_1,2023-09-11T18:29:54.987Z,,0,,,NaN,,,,,,false,,,,158850.70000004768,158850.5,,158850,,158853.096,8,400,,,
break_continue,html.Screen,4_29_2,2023-09-11T18:29:54.987Z,,0,,,NaN,,,,,,false,,,,158851,158850.90000009537,,158850.80000019073,,158853.096,8,400,,,
sequence,flow.Sequence,4_29,2023-09-11T18:29:54.987Z,,0,,,3114.3460000953637,completion,,,,,false,,,,158851.10000014305,158850.90000009537,155719.888,155727.10000014305,155736.554,158853.096,8,400,,,
trial,html.Screen,4_30_0,2023-09-11T18:29:58.112Z,,0,1,,3122.0040001430607,response,ISIC_0062241.JPG,8,ISIC_0591011.JPG,ISIC_0062241.JPG,false,1,keypress(m),500,161975.60000014305,161975.10000014305,158836.43,158851.30000019073,158853.096,161986.777,8,400,31,,ISIC_0591011.JPG
break,html.Screen,4_30_1,2023-09-11T18:29:58.113Z,,0,,,NaN,,,,,,false,,,,161976.5,161976.30000019073,,161975.90000009537,,161986.777,8,400,,,
break_continue,html.Screen,4_30_2,2023-09-11T18:29:58.113Z,,0,,,NaN,,,,,,false,,,,161976.90000009537,161976.80000019073,,161976.60000014305,,161986.777,8,400,,,
sequence,flow.Sequence,4_30,2023-09-11T18:29:58.113Z,,0,,,3123.7040001907444,completion,,,,,false,,,,161977.10000014305,161976.80000019073,158836.43,158851.30000019073,158853.096,161986.777,8,400,,,
trial,html.Screen,4_31_0,2023-09-11T18:30:01.639Z,,0,1,,3515.222999999998,response,ISIC_5122042.JPG,7,ISIC_0056186.JPG,ISIC_0056186.JPG,false,0,keypress(z),500,165502.5,165502,161970.111,161977.20000004768,161986.777,165519.969,8,400,32,,ISIC_5122042.JPG
break,html.Screen,4_31_1,2023-09-11T18:30:01.640Z,,0,,,NaN,,,,,,false,,,,165503.70000004768,165503.40000009537,,165502.80000019073,,165519.969,8,400,,,
break_continue,html.Screen,4_31_2,2023-09-11T18:30:01.640Z,,0,,,NaN,,,,,,false,,,,165504.10000014305,165504,,165503.80000019073,,165519.969,8,400,,,
sequence,flow.Sequence,4_31,2023-09-11T18:30:01.640Z,,0,,,3517.222999999998,completion,,,,,false,,,,165504.20000004768,165504,161970.111,161977.20000004768,161986.777,165519.969,8,400,,,
trial,html.Screen,4_32_0,2023-09-11T18:30:04.235Z,,0,1,,2578.731000047672,response,ISIC_9384835.JPG,6,ISIC_1323048.JPG,ISIC_1323048.JPG,false,0,keypress(z),500,168099.10000014305,168098.70000004768,165503.303,165504.30000019073,165519.969,168103.199,8,400,33,,ISIC_9384835.JPG
break,html.Screen,4_32_1,2023-09-11T18:30:04.236Z,,0,,,NaN,,,,,,false,,,,168100.20000004768,168100,,168099.40000009537,,168103.199,8,400,,,
break_continue,html.Screen,4_32_2,2023-09-11T18:30:04.237Z,,0,,,NaN,,,,,,false,,,,168100.5,168100.5,,168100.30000019073,,168103.199,8,400,,,
sequence,flow.Sequence,4_32,2023-09-11T18:30:04.237Z,,0,,,2580.530999999988,completion,,,,,false,,,,168100.70000004768,168100.5,165503.303,165504.30000019073,165519.969,168103.199,8,400,,,
trial,html.Screen,4_33_0,2023-09-11T18:30:06.562Z,,0,1,,2321.701000095374,response,ISIC_3923443.JPG,6,ISIC_5148474.JPG,ISIC_3923443.JPG,false,1,keypress(m),500,170425.5,170424.90000009537,168086.533,168100.90000009537,168103.199,170436.439,8,400,34,,ISIC_5148474.JPG
break,html.Screen,4_33_1,2023-09-11T18:30:06.563Z,,0,,,NaN,,,,,,false,,,,170426.5,170426.40000009537,,170425.80000019073,,170436.439,8,400,,,
break_continue,html.Screen,4_33_2,2023-09-11T18:30:06.563Z,,0,,,NaN,,,,,,false,,,,170426.90000009537,170426.80000019073,,170426.70000004768,,170436.439,8,400,,,
sequence,flow.Sequence,4_33,2023-09-11T18:30:06.563Z,,0,,,2323.6010001907416,completion,,,,,false,,,,170427.10000014305,170426.80000019073,168086.533,168100.80000019073,168103.199,170436.439,8,400,,,
trial,html.Screen,4_34_0,2023-09-11T18:30:09.001Z,,0,1,,2427.560999999987,response,ISIC_0025184.JPG,5,ISIC_8679617.JPG,ISIC_8679617.JPG,false,0,keypress(z),500,172864.5,172864,170419.773,170427.20000004768,170436.439,172870.114,8,400,35,,ISIC_0025184.JPG
break,html.Screen,4_34_1,2023-09-11T18:30:09.002Z,,0,,,NaN,,,,,,false,,,,172865.5,172865.40000009537,,172864.90000009537,,172870.114,8,400,,,
break_continue,html.Screen,4_34_2,2023-09-11T18:30:09.002Z,,0,,,NaN,,,,,,false,,,,172866,172865.80000019073,,172865.70000004768,,172870.114,8,400,,,
sequence,flow.Sequence,4_34,2023-09-11T18:30:09.002Z,,0,,,2429.361000190722,completion,,,,,false,,,,172866.20000004768,172865.80000019073,170419.773,170427.20000004768,170436.439,172870.114,8,400,,,
trial,html.Screen,4_35_0,2023-09-11T18:30:11.878Z,,0,1,,2870.9860001430498,response,ISIC_3897960.JPG,7,ISIC_3950753.JPG,ISIC_3897960.JPG,false,1,keypress(m),500,175741.5,175741.10000014305,172853.448,172866.30000019073,172870.114,175753.332,8,400,36,,ISIC_3950753.JPG
break,html.Screen,4_35_1,2023-09-11T18:30:11.879Z,,0,,,NaN,,,,,,false,,,,175742.5,175742.30000019073,,175741.80000019073,,175753.332,8,400,,,
break_continue,html.Screen,4_35_2,2023-09-11T18:30:11.879Z,,0,,,NaN,,,,,,false,,,,175742.90000009537,175742.80000019073,,175742.70000004768,,175753.332,8,400,,,
sequence,flow.Sequence,4_35,2023-09-11T18:30:11.879Z,,0,,,2872.6860001907335,completion,,,,,false,,,,175743.10000014305,175742.80000019073,172853.448,172866.20000004768,172870.114,175753.332,8,400,,,
trial,html.Screen,4_36_0,2023-09-11T18:30:14.155Z,,0,1,,2265.0680000953726,response,ISIC_0033324.JPG,8,ISIC_0059336.JPG,ISIC_0033324.JPG,false,1,keypress(m),500,178018.90000009537,178018.40000009537,175736.666,175743.20000004768,175753.332,178036.574,8,400,37,,ISIC_0059336.JPG
break,html.Screen,4_36_1,2023-09-11T18:30:14.156Z,,0,,,NaN,,,,,,false,,,,178019.90000009537,178019.70000004768,,178019.10000014305,,178036.574,8,400,,,
break_continue,html.Screen,4_36_2,2023-09-11T18:30:14.156Z,,0,,,NaN,,,,,,false,,,,178020.20000004768,178020.10000014305,,178020,,178036.574,8,400,,,
sequence,flow.Sequence,4_36,2023-09-11T18:30:14.156Z,,0,,,2266.7680001430563,completion,,,,,false,,,,178020.40000009537,178020.10000014305,175736.666,175743.20000004768,175753.332,178036.574,8,400,,,
trial,html.Screen,4_37_0,2023-09-11T18:30:16.944Z,,0,1,,2771.026000143058,response,ISIC_9720044.JPG,6,ISIC_7035246.JPG,ISIC_9720044.JPG,false,1,keypress(m),500,180807.90000009537,180807.60000014305,178019.908,178020.5,178036.574,180819.796,8,400,38,,ISIC_7035246.JPG
break,html.Screen,4_37_1,2023-09-11T18:30:16.945Z,,0,,,NaN,,,,,,false,,,,180809,180808.80000019073,,180808.30000019073,,180819.796,8,400,,,
break_continue,html.Screen,4_37_2,2023-09-11T18:30:16.945Z,,0,,,NaN,,,,,,false,,,,180809.30000019073,180809.20000004768,,180809.10000014305,,180819.796,8,400,,,
sequence,flow.Sequence,4_37,2023-09-11T18:30:16.946Z,,0,,,2772.6260000476905,completion,,,,,false,,,,180809.5,180809.20000004768,178019.908,178020.40000009537,178036.574,180819.796,8,400,,,
trial,html.Screen,4_38_0,2023-09-11T18:30:19.607Z,,0,1,,2651.0040001907328,response,ISIC_5439597.JPG,9,ISIC_5015378.JPG,ISIC_5015378.JPG,false,0,keypress(z),500,183471.10000014305,183470.80000019073,180803.13,180809.70000004768,180819.796,183486.776,8,400,39,,ISIC_5439597.JPG
break,html.Screen,4_38_1,2023-09-11T18:30:19.608Z,,0,,,NaN,,,,,,false,,,,183472.10000014305,183471.90000009537,,183471.40000009537,,183486.776,8,400,,,
break_continue,html.Screen,4_38_2,2023-09-11T18:30:19.608Z,,0,,,NaN,,,,,,false,,,,183472.5,183472.30000019073,,183472.20000004768,,183486.776,8,400,,,
sequence,flow.Sequence,4_38,2023-09-11T18:30:19.609Z,,0,,,2652.5040001907328,completion,,,,,false,,,,183472.70000004768,183472.30000019073,180803.13,180809.70000004768,180819.796,183486.776,8,400,,,
trial,html.Screen,4_39_0,2023-09-11T18:30:22.379Z,,0,1,,2755.424000047671,response,ISIC_2970409.JPG,4,ISIC_0046429.JPG,ISIC_2970409.JPG,false,1,keypress(m),500,186242.70000004768,186242.20000004768,183470.11,183472.80000019073,183486.776,186253.332,8,400,40,,ISIC_0046429.JPG
break,html.Screen,4_39_1,2023-09-11T18:30:22.380Z,,0,,,NaN,,,,,,false,,,,186243.70000004768,186243.5,,186243,,186253.332,8,400,,,
break_continue,html.Screen,4_39_2,2023-09-11T18:30:22.380Z,,0,,,NaN,,,,,,false,,,,186244.10000014305,186244,,186243.80000019073,,186253.332,8,400,,,
sequence,flow.Sequence,4_39,2023-09-11T18:30:22.380Z,,0,,,2757.2239999999874,completion,,,,,false,,,,186244.30000019073,186244,183470.11,183472.70000004768,183486.776,186253.332,8,400,,,
trial,html.Screen,4_40_0,2023-09-11T18:30:25.184Z,,0,1,,2794.0680000953726,response,ISIC_4640181.JPG,8,ISIC_0014270.JPG,ISIC_0014270.JPG,false,0,keypress(z),500,189048,189047.40000009537,186236.666,186244.40000009537,186253.332,189053.22,8,400,41,,ISIC_4640181.JPG
break,html.Screen,4_40_1,2023-09-11T18:30:25.185Z,,0,,,NaN,,,,,,false,,,,189049,189048.70000004768,,189048.30000019073,,189053.22,8,400,,,
break_continue,html.Screen,4_40_2,2023-09-11T18:30:25.185Z,,0,,,NaN,,,,,,false,,,,189049.30000019073,189049.20000004768,,189049,,189053.22,8,400,,,
sequence,flow.Sequence,4_40,2023-09-11T18:30:25.185Z,,0,,,2795.868000047689,completion,,,,,false,,,,189049.5,189049.20000004768,186236.666,186244.40000009537,186253.332,189053.22,8,400,,,
trial,html.Screen,4_41_0,2023-09-11T18:30:28.711Z,,0,1,,3520.9800000476826,response,ISIC_0053686.JPG,7,ISIC_9630931.JPG,ISIC_0053686.JPG,false,1,keypress(m),500,192574.60000014305,192574.20000004768,189036.554,189049.70000004768,189053.22,192586.412,8,400,42,,ISIC_9630931.JPG
break,html.Screen,4_41_1,2023-09-11T18:30:28.712Z,,0,,,NaN,,,,,,false,,,,192575.60000014305,192575.40000009537,,192574.90000009537,,192586.412,8,400,,,
break_continue,html.Screen,4_41_2,2023-09-11T18:30:28.712Z,,0,,,NaN,,,,,,false,,,,192576,192575.90000009537,,192575.70000004768,,192586.412,8,400,,,
sequence,flow.Sequence,4_41,2023-09-11T18:30:28.712Z,,0,,,3522.6800000953663,completion,,,,,false,,,,192576.10000014305,192575.90000009537,189036.554,189049.70000004768,189053.22,192586.412,8,400,,,
trial,html.Screen,4_42_0,2023-09-11T18:30:31.099Z,,0,1,,2376.3880001907237,response,ISIC_8569205.JPG,8,ISIC_0003767.JPG,ISIC_0003767.JPG,false,0,keypress(z),500,194963.10000014305,194962.80000019073,192569.746,192576.30000019073,192586.412,194970.077,8,400,43,,ISIC_8569205.JPG
break,html.Screen,4_42_1,2023-09-11T18:30:31.100Z,,0,,,NaN,,,,,,false,,,,194964.10000014305,194963.90000009537,,194963.40000009537,,194970.077,8,400,,,
break_continue,html.Screen,4_42_2,2023-09-11T18:30:31.100Z,,0,,,NaN,,,,,,false,,,,194964.5,194964.30000019073,,194964.20000004768,,194970.077,8,400,,,
sequence,flow.Sequence,4_42,2023-09-11T18:30:31.101Z,,0,,,2377.8880001907237,completion,,,,,false,,,,194964.70000004768,194964.30000019073,192569.746,192576.30000019073,192586.412,194970.077,8,400,,,
trial,html.Screen,4_43_0,2023-09-11T18:30:33.493Z,,0,1,,2386.7230001907446,response,ISIC_0030817.JPG,8,ISIC_7462953.JPG,ISIC_0030817.JPG,false,1,keypress(m),500,197357.20000004768,197356.80000019073,194953.411,194964.80000019073,194970.077,197369.981,8,400,44,,ISIC_7462953.JPG
break,html.Screen,4_43_1,2023-09-11T18:30:33.494Z,,0,,,NaN,,,,,,false,,,,197358.20000004768,197358,,197357.5,,197369.981,8,400,,,
break_continue,html.Screen,4_43_2,2023-09-11T18:30:33.495Z,,0,,,NaN,,,,,,false,,,,197358.60000014305,197358.5,,197358.30000019073,,197369.981,8,400,,,
sequence,flow.Sequence,4_43,2023-09-11T18:30:33.495Z,,0,,,2388.42300000001,completion,,,,,false,,,,197358.80000019073,197358.5,194953.411,194964.80000019073,194970.077,197369.981,8,400,,,
trial,html.Screen,4_44_0,2023-09-11T18:30:36.061Z,,0,1,,2554.6190001430514,response,ISIC_0013898.JPG,6,ISIC_8865595.JPG,ISIC_8865595.JPG,false,0,keypress(z),500,199924.90000009537,199924.60000014305,197353.315,197358.90000009537,197369.981,199936.545,8,400,45,,ISIC_0013898.JPG
break,html.Screen,4_44_1,2023-09-11T18:30:36.061Z,,0,,,NaN,,,,,,false,,,,199925.5,199925.30000019073,,199925.10000014305,,199936.545,8,400,,,
break_continue,html.Screen,4_44_2,2023-09-11T18:30:36.062Z,,0,,,NaN,,,,,,false,,,,199925.70000004768,199925.60000014305,,199925.5,,199936.545,8,400,,,
sequence,flow.Sequence,4_44,2023-09-11T18:30:36.062Z,,0,,,2555.6190001430514,completion,,,,,false,,,,199925.70000004768,199925.60000014305,197353.315,197358.90000009537,197369.981,199936.545,8,400,,,
trial,html.Screen,4_45_0,2023-09-11T18:30:38.368Z,,0,1,,2294.954999999987,response,ISIC_0032019.JPG,5,ISIC_0071735.JPG,ISIC_0032019.JPG,false,1,keypress(m),500,202231.90000009537,202231.5,199919.879,199925.80000019073,199936.545,202236.453,8,400,46,,ISIC_0071735.JPG
break,html.Screen,4_45_1,2023-09-11T18:30:38.369Z,,0,,,NaN,,,,,,false,,,,202232.80000019073,202232.60000014305,,202232.20000004768,,202236.453,8,400,,,
break_continue,html.Screen,4_45_2,2023-09-11T18:30:38.369Z,,0,,,NaN,,,,,,false,,,,202233.30000019073,202233.10000014305,,202233,,202236.453,8,400,,,
sequence,flow.Sequence,4_45,2023-09-11T18:30:38.369Z,,0,,,2296.5550001430383,completion,,,,,false,,,,202233.5,202233.10000014305,199919.879,199925.70000004768,199936.545,202236.453,8,400,,,
trial,html.Screen,4_46_0,2023-09-11T18:30:40.911Z,,0,1,,2538.247000047675,response,ISIC_0055917.JPG,7,ISIC_0015200.JPG,ISIC_0015200.JPG,false,0,keypress(z),500,204775,204774.70000004768,202219.787,202233.60000014305,202236.453,204786.779,8,400,47,,ISIC_0055917.JPG
break,html.Screen,4_46_1,2023-09-11T18:30:40.912Z,,0,,,NaN,,,,,,false,,,,204776,204775.80000019073,,204775.40000009537,,204786.779,8,400,,,
break_continue,html.Screen,4_46_2,2023-09-11T18:30:40.912Z,,0,,,NaN,,,,,,false,,,,204776.30000019073,204776.30000019073,,204776.10000014305,,204786.779,8,400,,,
sequence,flow.Sequence,4_46,2023-09-11T18:30:40.912Z,,0,,,2539.8470001907262,completion,,,,,false,,,,204776.60000014305,204776.30000019073,202219.787,202233.5,202236.453,204786.779,8,400,,,
trial,html.Screen,4_47_0,2023-09-11T18:30:43.247Z,,0,1,,2324.121000095358,response,ISIC_0024591.JPG,9,ISIC_0057032.JPG,ISIC_0024591.JPG,false,1,keypress(m),500,207111.30000019073,207110.90000009537,204770.113,204776.70000004768,204786.779,207120.019,8,400,48,,ISIC_0057032.JPG
break,html.Screen,4_47_1,2023-09-11T18:30:43.248Z,,0,,,NaN,,,,,,false,,,,207112.30000019073,207112.10000014305,,207111.60000014305,,207120.019,8,400,,,
break_continue,html.Screen,4_47_2,2023-09-11T18:30:43.249Z,,0,,,NaN,,,,,,false,,,,207112.60000014305,207112.5,,207112.40000009537,,207120.019,8,400,,,
sequence,flow.Sequence,4_47,2023-09-11T18:30:43.249Z,,0,,,2325.7209999999905,completion,,,,,false,,,,207112.80000019073,207112.5,204770.113,204776.60000014305,204786.779,207120.019,8,400,,,
trial,html.Screen,4_48_0,2023-09-11T18:30:45.879Z,,0,1,,2622.381000095367,response,ISIC_0067008.JPG,7,ISIC_0034173.JPG,ISIC_0067008.JPG,false,1,keypress(m),500,209742.90000009537,209742.40000009537,207103.353,207113,207120.019,209753.247,8,400,49,,ISIC_0034173.JPG
break,html.Screen,4_48_1,2023-09-11T18:30:45.880Z,,0,,,NaN,,,,,,false,,,,209743.80000019073,209743.60000014305,,209743.20000004768,,209753.247,8,400,,,
break_continue,html.Screen,4_48_2,2023-09-11T18:30:45.880Z,,0,,,NaN,,,,,,false,,,,209744.10000014305,209744,,209743.90000009537,,209753.247,8,400,,,
sequence,flow.Sequence,4_48,2023-09-11T18:30:45.880Z,,0,,,2623.9809999999998,completion,,,,,false,,,,209744.40000009537,209744,207103.353,207112.90000009537,207120.019,209753.247,8,400,,,
trial,html.Screen,4_49_0,2023-09-11T18:30:48.711Z,,0,1,,2821.4530000476807,response,ISIC_3335505.JPG,9,ISIC_6488658.JPG,ISIC_6488658.JPG,false,0,keypress(z),500,212575.20000004768,212574.70000004768,209736.581,209744.60000014305,209753.247,212586.467,8,400,50,,ISIC_3335505.JPG
break,html.Screen,4_49_1,2023-09-11T18:30:58.710Z,,0,,,10000.002000000008,timeout,,,,,false,,,,222573.80000019073,222569.803,212569.801,212575.5,212586.467,222586.469,8,400,,,
break_continue,html.Screen,4_49_2,2023-09-11T18:31:00.014Z,,0,,,1281.0309999999881,response,,,,,false,continue,keypress(Space),,223878.70000004768,223867.5,222569.803,222574,222586.469,223886.417,8,400,,,
sequence,flow.Sequence,4_49,2023-09-11T18:31:00.015Z,,0,,,14114.252999999997,completion,,,,,false,,,,223878.90000009537,223867.5,209736.581,209744.5,209753.247,223886.417,8,400,,,
trial,html.Screen,4_50_0,2023-09-11T18:31:02.688Z,,0,2,,2665.783000047697,response,ISIC_6017985.JPG,9,ISIC_9101055.JPG,ISIC_9101055.JPG,false,0,keypress(z),500,226552.60000014305,226552.20000004768,223869.751,223879,223886.417,226570.067,8,400,1,,ISIC_6017985.JPG
break,html.Screen,4_50_1,2023-09-11T18:31:02.689Z,,0,,,NaN,,,,,,false,,,,226553.60000014305,226553.40000009537,,226552.90000009537,,226570.067,8,400,,,
break_continue,html.Screen,4_50_2,2023-09-11T18:31:02.690Z,,0,,,NaN,,,,,,false,,,,226554.10000014305,226554,,226553.90000009537,,226570.067,8,400,,,
sequence,flow.Sequence,4_50,2023-09-11T18:31:02.690Z,,0,,,2667.5830000000133,completion,,,,,false,,,,226554.20000004768,226554,223869.751,223879,223886.417,226570.067,8,400,,,
trial,html.Screen,4_51_0,2023-09-11T18:31:05.751Z,,0,2,,3044.43299999999,response,ISIC_7651944.JPG,7,ISIC_0536433.JPG,ISIC_0536433.JPG,false,0,keypress(z),500,229615,229614.5,226553.401,226554.40000009537,226570.067,229619.945,8,400,2,,ISIC_7651944.JPG
break,html.Screen,4_51_1,2023-09-11T18:31:05.752Z,,0,,,NaN,,,,,,false,,,,229616,229615.80000019073,,229615.30000019073,,229619.945,8,400,,,
break_continue,html.Screen,4_51_2,2023-09-11T18:31:05.752Z,,0,,,NaN,,,,,,false,,,,229616.40000009537,229616.20000004768,,229616.20000004768,,229619.945,8,400,,,
sequence,flow.Sequence,4_51,2023-09-11T18:31:05.752Z,,0,,,3046.1330000476737,completion,,,,,false,,,,229616.60000014305,229616.20000004768,226553.401,226554.30000019073,226570.067,229619.945,8,400,,,
trial,html.Screen,4_52_0,2023-09-11T18:31:08.379Z,,0,2,,2623.054999999993,response,ISIC_0031863.JPG,8,ISIC_0011448.JPG,ISIC_0011448.JPG,false,0,keypress(z),500,232243.5,232243,229603.279,229616.70000004768,229619.945,232253.173,8,400,3,,ISIC_0031863.JPG
break,html.Screen,4_52_1,2023-09-11T18:31:08.380Z,,0,,,NaN,,,,,,false,,,,232244.40000009537,232244.30000019073,,232243.70000004768,,232253.173,8,400,,,
break_continue,html.Screen,4_52_2,2023-09-11T18:31:08.381Z,,0,,,NaN,,,,,,false,,,,232244.90000009537,232244.70000004768,,232244.60000014305,,232253.173,8,400,,,
sequence,flow.Sequence,4_52,2023-09-11T18:31:08.381Z,,0,,,2624.7550000476767,completion,,,,,false,,,,232245.10000014305,232244.70000004768,229603.279,229616.70000004768,229619.945,232253.173,8,400,,,
trial,html.Screen,4_53_0,2023-09-11T18:31:11.205Z,,0,2,,2816.127000190725,response,ISIC_1868816.JPG,8,ISIC_2885086.JPG,ISIC_2885086.JPG,false,0,keypress(z),500,235069.70000004768,235069.30000019073,232236.507,232245.30000019073,232253.173,235086.815,8,400,4,,ISIC_1868816.JPG
break,html.Screen,4_53_1,2023-09-11T18:31:11.206Z,,0,,,NaN,,,,,,false,,,,235070.80000019073,235070.60000014305,,235070.10000014305,,235086.815,8,400,,,
break_continue,html.Screen,4_53_2,2023-09-11T18:31:11.207Z,,0,,,NaN,,,,,,false,,,,235071.10000014305,235071,,235070.90000009537,,235086.815,8,400,,,
sequence,flow.Sequence,4_53,2023-09-11T18:31:11.207Z,,0,,,2817.82699999999,completion,,,,,false,,,,235071.30000019073,235071,232236.507,232245.30000019073,232253.173,235086.815,8,400,,,
trial,html.Screen,4_54_0,2023-09-11T18:31:14.061Z,,0,2,,2837.4850001907325,response,ISIC_0025791.JPG,5,ISIC_3993924.JPG,ISIC_3993924.JPG,false,0,keypress(z),500,237924.80000019073,237924.30000019073,235070.149,235071.5,235086.815,237936.701,8,400,5,,ISIC_0025791.JPG
break,html.Screen,4_54_1,2023-09-11T18:31:14.062Z,,0,,,NaN,,,,,,false,,,,237925.80000019073,237925.60000014305,,237925.10000014305,,237936.701,8,400,,,
break_continue,html.Screen,4_54_2,2023-09-11T18:31:14.062Z,,0,,,NaN,,,,,,false,,,,237926.20000004768,237926.10000014305,,237925.90000009537,,237936.701,8,400,,,
sequence,flow.Sequence,4_54,2023-09-11T18:31:14.062Z,,0,,,2839.285000143049,completion,,,,,false,,,,237926.40000009537,237926.10000014305,235070.149,235071.40000009537,235086.815,237936.701,8,400,,,
trial,html.Screen,4_55_0,2023-09-11T18:31:17.025Z,,0,2,,2952.099000190734,response,ISIC_5122042.JPG,7,ISIC_0068239.JPG,ISIC_5122042.JPG,false,1,keypress(m),500,240889.30000019073,240888.80000019073,237920.035,237926.5,237936.701,240903.249,8,400,6,,ISIC_0068239.JPG
break,html.Screen,4_55_1,2023-09-11T18:31:17.026Z,,0,,,NaN,,,,,,false,,,,240890.30000019073,240890.10000014305,,240889.60000014305,,240903.249,8,400,,,
break_continue,html.Screen,4_55_2,2023-09-11T18:31:17.026Z,,0,,,NaN,,,,,,false,,,,240890.70000004768,240890.60000014305,,240890.5,,240903.249,8,400,,,
sequence,flow.Sequence,4_55,2023-09-11T18:31:17.027Z,,0,,,2953.89900014305,completion,,,,,false,,,,240890.90000009537,240890.60000014305,237920.035,237926.40000009537,237936.701,240903.249,8,400,,,
trial,html.Screen,4_56_0,2023-09-11T18:31:19.742Z,,0,2,,2702.6510000953567,response,ISIC_0033104.JPG,9,ISIC_6699854.JPG,ISIC_6699854.JPG,false,0,keypress(z),500,243606.30000019073,243605.90000009537,240886.583,240891,240903.249,243619.807,8,400,7,,ISIC_0033104.JPG
break,html.Screen,4_56_1,2023-09-11T18:31:19.743Z,,0,,,NaN,,,,,,false,,,,243607.20000004768,243607,,243606.5,,243619.807,8,400,,,
break_continue,html.Screen,4_56_2,2023-09-11T18:31:19.743Z,,0,,,NaN,,,,,,false,,,,243607.60000014305,243607.60000014305,,243607.40000009537,,243619.807,8,400,,,
sequence,flow.Sequence,4_56,2023-09-11T18:31:19.744Z,,0,,,2704.3510001430404,completion,,,,,false,,,,243607.80000019073,243607.60000014305,240886.583,240891,240903.249,243619.807,8,400,,,
trial,html.Screen,4_57_0,2023-09-11T18:31:22.658Z,,0,2,,2902.0930000953667,response,ISIC_0028484.JPG,9,ISIC_0024300.JPG,ISIC_0024300.JPG,false,0,keypress(z),500,246522.40000009537,246521.90000009537,243603.141,243608,243619.807,246536.726,8,400,8,,ISIC_0028484.JPG
break,html.Screen,4_57_1,2023-09-11T18:31:22.659Z,,0,,,NaN,,,,,,false,,,,246523.60000014305,246523.30000019073,,246522.80000019073,,246536.726,8,400,,,
break_continue,html.Screen,4_57_2,2023-09-11T18:31:22.660Z,,0,,,NaN,,,,,,false,,,,246524,246523.90000009537,,246523.70000004768,,246536.726,8,400,,,
sequence,flow.Sequence,4_57,2023-09-11T18:31:22.660Z,,0,,,2904.0930000953667,completion,,,,,false,,,,246524.20000004768,246523.90000009537,243603.141,243607.90000009537,243619.807,246536.726,8,400,,,
trial,html.Screen,4_58_0,2023-09-11T18:31:25.930Z,,0,2,,3257.274000000005,response,ISIC_2126084.JPG,7,ISIC_0012288.JPG,ISIC_0012288.JPG,false,0,keypress(z),500,249794.40000009537,249794,246520.06,246524.40000009537,246536.726,249803.262,8,400,9,,ISIC_2126084.JPG
break,html.Screen,4_58_1,2023-09-11T18:31:25.931Z,,0,,,NaN,,,,,,false,,,,249795.40000009537,249795.20000004768,,249794.60000014305,,249803.262,8,400,,,
break_continue,html.Screen,4_58_2,2023-09-11T18:31:25.931Z,,0,,,NaN,,,,,,false,,,,249795.80000019073,249795.70000004768,,249795.5,,249803.262,8,400,,,
sequence,flow.Sequence,4_58,2023-09-11T18:31:25.932Z,,0,,,3258.9740000476886,completion,,,,,false,,,,249795.90000009537,249795.70000004768,246520.06,246524.30000019073,246536.726,249803.262,8,400,,,
trial,html.Screen,4_59_0,2023-09-11T18:31:29.071Z,,0,2,,3131.8380001430633,response,ISIC_0065513.JPG,9,ISIC_0000475.JPG,ISIC_0065513.JPG,false,1,keypress(m),500,252935.5,252935.10000014305,249786.596,249796.10000014305,249803.262,252936.47,8,400,10,,ISIC_0000475.JPG
break,html.Screen,4_59_1,2023-09-11T18:31:29.072Z,,0,,,NaN,,,,,,false,,,,252936.40000009537,252936.20000004768,,252935.80000019073,,252936.47,8,400,,,
break_continue,html.Screen,4_59_2,2023-09-11T18:31:29.073Z,,0,,,NaN,,,,,,false,,,,252936.80000019073,252936.80000019073,,252936.60000014305,,252936.47,8,400,,,
sequence,flow.Sequence,4_59,2023-09-11T18:31:29.073Z,,0,,,3133.538000190747,completion,,,,,false,,,,252937.10000014305,252936.80000019073,249786.596,249796,249803.262,252936.47,8,400,,,
trial,html.Screen,4_60_0,2023-09-11T18:31:32.517Z,,0,2,,3444.029999999999,response,ISIC_3642043.JPG,8,ISIC_7539727.JPG,ISIC_7539727.JPG,false,0,keypress(z),500,256380.90000009537,256380.5,252919.804,252937.30000019073,252936.47,256403.49,8,400,11,,ISIC_3642043.JPG
break,html.Screen,4_60_1,2023-09-11T18:31:32.518Z,,0,,,NaN,,,,,,false,,,,256381.90000009537,256381.70000004768,,256381.20000004768,,256403.49,8,400,,,
break_continue,html.Screen,4_60_2,2023-09-11T18:31:32.518Z,,0,,,NaN,,,,,,false,,,,256382.20000004768,256382.10000014305,,256382,,256403.49,8,400,,,
sequence,flow.Sequence,4_60,2023-09-11T18:31:32.518Z,,0,,,3445.63000014305,completion,,,,,false,,,,256382.40000009537,256382.10000014305,252919.804,252937.20000004768,252936.47,256403.49,8,400,,,
trial,html.Screen,4_61_0,2023-09-11T18:31:35.351Z,,0,2,,2811.210000047693,response,ISIC_7935007.JPG,5,ISIC_3746471.JPG,ISIC_3746471.JPG,false,0,keypress(z),500,259215.20000004768,259214.70000004768,256386.824,256382.60000014305,256403.49,259220.044,8,400,12,,ISIC_7935007.JPG
break,html.Screen,4_61_1,2023-09-11T18:31:35.352Z,,0,,,NaN,,,,,,false,,,,259216.10000014305,259215.90000009537,,259215.40000009537,,259220.044,8,400,,,
break_continue,html.Screen,4_61_2,2023-09-11T18:31:35.352Z,,0,,,NaN,,,,,,false,,,,259216.5,259216.40000009537,,259216.20000004768,,259220.044,8,400,,,
sequence,flow.Sequence,4_61,2023-09-11T18:31:35.352Z,,0,,,2812.9100000953767,completion,,,,,false,,,,259216.70000004768,259216.40000009537,256386.824,256382.5,256403.49,259220.044,8,400,,,
trial,html.Screen,4_62_0,2023-09-11T18:31:38.206Z,,0,2,,2849.4560000000056,response,ISIC_1906141.JPG,8,ISIC_0010750.JPG,ISIC_0010750.JPG,false,0,keypress(z),500,262070,262069.5,259203.378,259216.80000019073,259220.044,262086.596,8,400,13,,ISIC_1906141.JPG
break,html.Screen,4_62_1,2023-09-11T18:31:38.207Z,,0,,,NaN,,,,,,false,,,,262071,262070.70000004768,,262070.30000019073,,262086.596,8,400,,,
break_continue,html.Screen,4_62_2,2023-09-11T18:31:38.207Z,,0,,,NaN,,,,,,false,,,,262071.30000019073,262071.20000004768,,262071,,262086.596,8,400,,,
sequence,flow.Sequence,4_62,2023-09-11T18:31:38.207Z,,0,,,2851.1560000476893,completion,,,,,false,,,,262071.5,262071.20000004768,259203.378,259216.70000004768,259220.044,262086.596,8,400,,,
trial,html.Screen,4_63_0,2023-09-11T18:31:41.941Z,,0,2,,3718.1040000476933,response,ISIC_5718805.JPG,8,ISIC_0061685.JPG,ISIC_0061685.JPG,false,0,keypress(z),500,265805.10000014305,265804.7000000477,262069.93,262071.60000014305,262086.596,265819.78,8,400,14,,ISIC_5718805.JPG
break,html.Screen,4_63_1,2023-09-11T18:31:41.942Z,,0,,,NaN,,,,,,false,,,,265806.2000000477,265805.90000009537,,265805.5,,265819.78,8,400,,,
break_continue,html.Screen,4_63_2,2023-09-11T18:31:41.942Z,,0,,,NaN,,,,,,false,,,,265806.5,265806.40000009537,,265806.30000019073,,265819.78,8,400,,,
sequence,flow.Sequence,4_63,2023-09-11T18:31:41.942Z,,0,,,3719.804000095377,completion,,,,,false,,,,265806.7000000477,265806.40000009537,262069.93,262071.60000014305,262086.596,265819.78,8,400,,,
trial,html.Screen,4_64_0,2023-09-11T18:31:45.335Z,,0,2,,3378.920000047656,response,ISIC_0011702.JPG,8,ISIC_0061334.JPG,ISIC_0061334.JPG,false,0,keypress(z),500,269199.10000014305,269198.7000000477,265803.114,265806.80000019073,265819.78,269220.042,8,400,15,,ISIC_0011702.JPG
break,html.Screen,4_64_1,2023-09-11T18:31:45.336Z,,0,,,NaN,,,,,,false,,,,269200,269199.80000019073,,269199.40000009537,,269220.042,8,400,,,
break_continue,html.Screen,4_64_2,2023-09-11T18:31:45.336Z,,0,,,NaN,,,,,,false,,,,269200.40000009537,269200.30000019073,,269200.10000014305,,269220.042,8,400,,,
sequence,flow.Sequence,4_64,2023-09-11T18:31:45.336Z,,0,,,3380.520000190707,completion,,,,,false,,,,269200.60000014305,269200.30000019073,265803.114,265806.80000019073,265819.78,269220.042,8,400,,,
trial,html.Screen,4_65_0,2023-09-11T18:31:48.122Z,,0,2,,2766.158000047668,response,ISIC_3591332.JPG,8,ISIC_5048124.JPG,ISIC_3591332.JPG,false,1,keypress(m),500,271986.5,271986.2000000477,269203.376,269200.7000000477,269220.042,272003.264,8,400,16,,ISIC_5048124.JPG
break,html.Screen,4_65_1,2023-09-11T18:31:48.123Z,,0,,,NaN,,,,,,false,,,,271987.5,271987.30000019073,,271986.80000019073,,272003.264,8,400,,,
break_continue,html.Screen,4_65_2,2023-09-11T18:31:48.123Z,,0,,,NaN,,,,,,false,,,,271987.80000019073,271987.7000000477,,271987.60000014305,,272003.264,8,400,,,
sequence,flow.Sequence,4_65,2023-09-11T18:31:48.124Z,,0,,,2767.658000047668,completion,,,,,false,,,,271988,271987.7000000477,269203.376,269200.60000014305,269220.042,272003.264,8,400,,,
trial,html.Screen,4_66_0,2023-09-11T18:31:51.088Z,,0,2,,2948.2359999999753,response,ISIC_0032750.JPG,8,ISIC_1035480.JPG,ISIC_1035480.JPG,false,0,keypress(z),500,274952,274951.5,271986.598,271988.10000014305,272003.264,274953.146,8,400,17,,ISIC_0032750.JPG
break,html.Screen,4_66_1,2023-09-11T18:31:51.089Z,,0,,,NaN,,,,,,false,,,,274953.10000014305,274952.80000019073,,274952.40000009537,,274953.146,8,400,,,
break_continue,html.Screen,4_66_2,2023-09-11T18:31:51.089Z,,0,,,NaN,,,,,,false,,,,274953.40000009537,274953.30000019073,,274953.2000000477,,274953.146,8,400,,,
sequence,flow.Sequence,4_66,2023-09-11T18:31:51.089Z,,0,,,2950.03600019071,completion,,,,,false,,,,274953.5,274953.30000019073,271986.598,271988.10000014305,272003.264,274953.146,8,400,,,
trial,html.Screen,4_67_0,2023-09-11T18:31:54.318Z,,0,2,,3229.154000190727,response,ISIC_2879267.JPG,8,ISIC_0010040.JPG,ISIC_0010040.JPG,false,0,keypress(z),500,278182.80000019073,278182.30000019073,274936.48,274953.7000000477,274953.146,278186.757,8,400,18,,ISIC_2879267.JPG
break,html.Screen,4_67_1,2023-09-11T18:31:54.319Z,,0,,,NaN,,,,,,false,,,,278183.80000019073,278183.60000014305,,278183,,278186.757,8,400,,,
break_continue,html.Screen,4_67_2,2023-09-11T18:31:54.320Z,,0,,,NaN,,,,,,false,,,,278184.2000000477,278184,,278183.90000009537,,278186.757,8,400,,,
sequence,flow.Sequence,4_67,2023-09-11T18:31:54.320Z,,0,,,3230.853999999992,completion,,,,,false,,,,278184.30000019073,278184,274936.48,274953.7000000477,274953.146,278186.757,8,400,,,
trial,html.Screen,4_68_0,2023-09-11T18:31:57.172Z,,0,2,,2849.7430000000168,response,ISIC_0014288.JPG,7,ISIC_0001505.JPG,ISIC_0014288.JPG,false,1,keypress(m),500,281036.80000019073,281036.5,278170.091,278184.5,278186.757,281053.309,8,400,19,,ISIC_0001505.JPG
break,html.Screen,4_68_1,2023-09-11T18:31:57.173Z,,0,,,NaN,,,,,,false,,,,281037.5,281037.30000019073,,281037,,281053.309,8,400,,,
break_continue,html.Screen,4_68_2,2023-09-11T18:31:57.173Z,,0,,,NaN,,,,,,false,,,,281037.7000000477,281037.60000014305,,281037.60000014305,,281053.309,8,400,,,
sequence,flow.Sequence,4_68,2023-09-11T18:31:57.173Z,,0,,,2850.843000143068,completion,,,,,false,,,,281037.80000019073,281037.60000014305,278170.091,278184.40000009537,278186.757,281053.309,8,400,,,
trial,html.Screen,4_69_0,2023-09-11T18:32:00.183Z,,0,2,,2994.1909999999916,response,ISIC_9061511.JPG,7,ISIC_1490986.JPG,ISIC_9061511.JPG,false,1,keypress(m),500,284047.90000009537,284047.5,281036.643,281037.80000019073,281053.309,284053.189,8,400,20,,ISIC_1490986.JPG
break,html.Screen,4_69_1,2023-09-11T18:32:00.184Z,,0,,,NaN,,,,,,false,,,,284049,284048.7000000477,,284048.2000000477,,284053.189,8,400,,,
break_continue,html.Screen,4_69_2,2023-09-11T18:32:00.185Z,,0,,,NaN,,,,,,false,,,,284049.40000009537,284049.2000000477,,284049.10000014305,,284053.189,8,400,,,
sequence,flow.Sequence,4_69,2023-09-11T18:32:00.185Z,,0,,,2995.8910000476753,completion,,,,,false,,,,284049.60000014305,284049.2000000477,281036.643,281037.80000019073,281053.309,284053.189,8,400,,,
trial,html.Screen,4_70_0,2023-09-11T18:32:02.967Z,,0,2,,2777.411000143038,response,ISIC_0525687.JPG,8,ISIC_0010752.JPG,ISIC_0010752.JPG,false,0,keypress(z),500,286831,286830.60000014305,284036.523,284049.7000000477,284053.189,286836.411,8,400,21,,ISIC_0525687.JPG
break,html.Screen,4_70_1,2023-09-11T18:32:02.968Z,,0,,,NaN,,,,,,false,,,,286832,286831.90000009537,,286831.30000019073,,286836.411,8,400,,,
break_continue,html.Screen,4_70_2,2023-09-11T18:32:02.968Z,,0,,,NaN,,,,,,false,,,,286832.5,286832.30000019073,,286832.2000000477,,286836.411,8,400,,,
sequence,flow.Sequence,4_70,2023-09-11T18:32:02.968Z,,0,,,2779.111000190722,completion,,,,,false,,,,286832.60000014305,286832.30000019073,284036.523,284049.60000014305,284053.189,286836.411,8,400,,,
trial,html.Screen,4_71_0,2023-09-11T18:32:05.686Z,,0,2,,2713.789000047662,response,ISIC_0066671.JPG,6,ISIC_0015132.JPG,ISIC_0015132.JPG,false,0,keypress(z),500,289550.60000014305,289550.2000000477,286819.745,286832.80000019073,286836.411,289553.384,8,400,22,,ISIC_0066671.JPG
break,html.Screen,4_71_1,2023-09-11T18:32:05.687Z,,0,,,NaN,,,,,,false,,,,289551.60000014305,289551.40000009537,,289551,,289553.384,8,400,,,
break_continue,html.Screen,4_71_2,2023-09-11T18:32:05.687Z,,0,,,NaN,,,,,,false,,,,289552.10000014305,289551.90000009537,,289551.80000019073,,289553.384,8,400,,,
sequence,flow.Sequence,4_71,2023-09-11T18:32:05.688Z,,0,,,2715.4890000953455,completion,,,,,false,,,,289552.2000000477,289551.90000009537,286819.745,286832.7000000477,286836.411,289553.384,8,400,,,
trial,html.Screen,4_72_0,2023-09-11T18:32:08.712Z,,0,2,,3022.3160000476637,response,ISIC_0015166.JPG,6,ISIC_9182285.JPG,ISIC_9182285.JPG,false,0,keypress(z),500,292576.2000000477,292575.7000000477,289536.718,289552.30000019073,289553.384,292586.596,8,400,23,,ISIC_0015166.JPG
break,html.Screen,4_72_1,2023-09-11T18:32:08.713Z,,0,,,NaN,,,,,,false,,,,292577.2000000477,292577,,292576.5,,292586.596,8,400,,,
break_continue,html.Screen,4_72_2,2023-09-11T18:32:08.713Z,,0,,,NaN,,,,,,false,,,,292577.60000014305,292577.5,,292577.40000009537,,292586.596,8,400,,,
sequence,flow.Sequence,4_72,2023-09-11T18:32:08.713Z,,0,,,3024.11599999998,completion,,,,,false,,,,292577.80000019073,292577.5,289536.718,289552.30000019073,289553.384,292586.596,8,400,,,
trial,html.Screen,4_73_0,2023-09-11T18:32:11.797Z,,0,2,,3074.4039999999804,response,ISIC_0813342.JPG,8,ISIC_0001112.JPG,ISIC_0001112.JPG,false,0,keypress(z),500,295661.40000009537,295661,292569.93,292577.90000009537,292586.596,295669.806,8,400,24,,ISIC_0813342.JPG
break,html.Screen,4_73_1,2023-09-11T18:32:11.798Z,,0,,,NaN,,,,,,false,,,,295662.40000009537,295662.2000000477,,295661.80000019073,,295669.806,8,400,,,
break_continue,html.Screen,4_73_2,2023-09-11T18:32:11.798Z,,0,,,NaN,,,,,,false,,,,295662.80000019073,295662.7000000477,,295662.5,,295669.806,8,400,,,
sequence,flow.Sequence,4_73,2023-09-11T18:32:11.798Z,,0,,,3076.104000047664,completion,,,,,false,,,,295663,295662.7000000477,292569.93,292577.90000009537,292586.596,295669.806,8,400,,,
trial,html.Screen,4_74_0,2023-09-11T18:32:14.395Z,,0,2,,2589.4940001907526,response,ISIC_0032672.JPG,7,ISIC_0066588.JPG,ISIC_0032672.JPG,false,1,keypress(m),500,298259.7000000477,298259.30000019073,295653.14,295663.10000014305,295669.806,298270.122,8,400,25,,ISIC_0066588.JPG
break,html.Screen,4_74_1,2023-09-11T18:32:14.396Z,,0,,,NaN,,,,,,false,,,,298260.5,298260.40000009537,,298259.90000009537,,298270.122,8,400,,,
break_continue,html.Screen,4_74_2,2023-09-11T18:32:14.396Z,,0,,,NaN,,,,,,false,,,,298260.7000000477,298260.7000000477,,298260.5,,298270.122,8,400,,,
sequence,flow.Sequence,4_74,2023-09-11T18:32:14.396Z,,0,,,2590.8940000477014,completion,,,,,false,,,,298260.80000019073,298260.7000000477,295653.14,295663.10000014305,295669.806,298270.122,8,400,,,
trial,html.Screen,4_75_0,2023-09-11T18:32:17.029Z,,0,2,,2622.7780000953935,response,ISIC_0030817.JPG,8,ISIC_1351604.JPG,ISIC_0030817.JPG,false,1,keypress(m),500,300893.40000009537,300892.90000009537,298253.456,298261,298270.122,300903.35,8,400,26,,ISIC_1351604.JPG
break,html.Screen,4_75_1,2023-09-11T18:32:17.030Z,,0,,,NaN,,,,,,false,,,,300894.40000009537,300894.2000000477,,300893.7000000477,,300903.35,8,400,,,
break_continue,html.Screen,4_75_2,2023-09-11T18:32:17.030Z,,0,,,NaN,,,,,,false,,,,300894.7000000477,300894.7000000477,,300894.5,,300903.35,8,400,,,
sequence,flow.Sequence,4_75,2023-09-11T18:32:17.030Z,,0,,,2624.57800004771,completion,,,,,false,,,,300895,300894.7000000477,298253.456,298260.90000009537,298270.122,300903.35,8,400,,,
trial,html.Screen,4_76_0,2023-09-11T18:32:19.097Z,,0,2,,2057.5500000953907,response,ISIC_1884256.JPG,5,ISIC_0064694.JPG,ISIC_1884256.JPG,false,1,keypress(m),500,302961.30000019073,302960.90000009537,300886.684,300895.10000014305,300903.35,302969.934,8,400,27,,ISIC_0064694.JPG
break,html.Screen,4_76_1,2023-09-11T18:32:19.097Z,,0,,,NaN,,,,,,false,,,,302962.10000014305,302961.90000009537,,302961.5,,302969.934,8,400,,,
break_continue,html.Screen,4_76_2,2023-09-11T18:32:19.098Z,,0,,,NaN,,,,,,false,,,,302962.30000019073,302962.30000019073,,302962.10000014305,,302969.934,8,400,,,
sequence,flow.Sequence,4_76,2023-09-11T18:32:19.098Z,,0,,,2058.950000190758,completion,,,,,false,,,,302962.40000009537,302962.30000019073,300886.684,300895.10000014305,300903.35,302969.934,8,400,,,
trial,html.Screen,4_77_0,2023-09-11T18:32:21.791Z,,0,2,,2684.966000095359,response,ISIC_0034118.JPG,6,ISIC_0027663.JPG,ISIC_0027663.JPG,false,0,keypress(z),500,305655.30000019073,305654.90000009537,302953.268,302962.5,302969.934,305669.826,8,400,28,,ISIC_0034118.JPG
break,html.Screen,4_77_1,2023-09-11T18:32:21.792Z,,0,,,NaN,,,,,,false,,,,305656.30000019073,305656.2000000477,,305655.60000014305,,305669.826,8,400,,,
break_continue,html.Screen,4_77_2,2023-09-11T18:32:21.792Z,,0,,,NaN,,,,,,false,,,,305656.80000019073,305656.60000014305,,305656.40000009537,,305669.826,8,400,,,
sequence,flow.Sequence,4_77,2023-09-11T18:32:21.792Z,,0,,,2686.6660001430428,completion,,,,,false,,,,305656.90000009537,305656.60000014305,302953.268,302962.5,302969.934,305669.826,8,400,,,
trial,html.Screen,4_78_0,2023-09-11T18:32:24.133Z,,0,2,,2327.374000047683,response,ISIC_7068674.JPG,8,ISIC_0063445.JPG,ISIC_0063445.JPG,false,0,keypress(z),500,307997.60000014305,307997.2000000477,305653.16,305657.10000014305,305669.826,308003.461,8,400,29,,ISIC_7068674.JPG
break,html.Screen,4_78_1,2023-09-11T18:32:24.134Z,,0,,,NaN,,,,,,false,,,,307998.60000014305,307998.40000009537,,307997.90000009537,,308003.461,8,400,,,
break_continue,html.Screen,4_78_2,2023-09-11T18:32:24.134Z,,0,,,NaN,,,,,,false,,,,307999,307998.80000019073,,307998.7000000477,,308003.461,8,400,,,
sequence,flow.Sequence,4_78,2023-09-11T18:32:24.134Z,,0,,,2328.974000190734,completion,,,,,false,,,,307999.10000014305,307998.80000019073,305653.16,305657,305669.826,308003.461,8,400,,,
trial,html.Screen,4_79_0,2023-09-11T18:32:26.763Z,,0,2,,2623.639000143041,response,ISIC_0004789.JPG,8,ISIC_0031883.JPG,ISIC_0004789.JPG,false,1,keypress(m),500,310627.5,310627.10000014305,307986.795,307999.30000019073,308003.461,310636.689,8,400,30,,ISIC_0031883.JPG
break,html.Screen,4_79_1,2023-09-11T18:32:26.764Z,,0,,,NaN,,,,,,false,,,,310628.60000014305,310628.30000019073,,310627.80000019073,,310636.689,8,400,,,
break_continue,html.Screen,4_79_2,2023-09-11T18:32:26.764Z,,0,,,NaN,,,,,,false,,,,310628.90000009537,310628.80000019073,,310628.7000000477,,310636.689,8,400,,,
sequence,flow.Sequence,4_79,2023-09-11T18:32:26.764Z,,0,,,2625.3390001907246,completion,,,,,false,,,,310629.10000014305,310628.80000019073,307986.795,307999.2000000477,308003.461,310636.689,8,400,,,
trial,html.Screen,4_80_0,2023-09-11T18:32:29.329Z,,0,2,,2556.7110000953544,response,ISIC_9605122.JPG,8,ISIC_5315062.JPG,ISIC_5315062.JPG,false,0,keypress(z),500,313193.80000019073,313193.40000009537,310620.023,310629.2000000477,310636.689,313203.253,8,400,31,,ISIC_9605122.JPG
break,html.Screen,4_80_1,2023-09-11T18:32:29.330Z,,0,,,NaN,,,,,,false,,,,313194.90000009537,313194.7000000477,,313194.2000000477,,313203.253,8,400,,,
break_continue,html.Screen,4_80_2,2023-09-11T18:32:29.331Z,,0,,,NaN,,,,,,false,,,,313195.30000019073,313195.2000000477,,313195,,313203.253,8,400,,,
sequence,flow.Sequence,4_80,2023-09-11T18:32:29.331Z,,0,,,2558.5110000476707,completion,,,,,false,,,,313195.40000009537,313195.2000000477,310620.023,310629.2000000477,310636.689,313203.253,8,400,,,
trial,html.Screen,4_81_0,2023-09-11T18:32:32.309Z,,0,2,,2969.746999999974,response,ISIC_0033224.JPG,9,ISIC_8699796.JPG,ISIC_0033224.JPG,false,1,keypress(m),500,316173.40000009537,316173,313186.587,313195.5,313203.253,316186.467,8,400,32,,ISIC_8699796.JPG
break,html.Screen,4_81_1,2023-09-11T18:32:32.310Z,,0,,,NaN,,,,,,false,,,,316174.2000000477,316174.10000014305,,316173.60000014305,,316186.467,8,400,,,
break_continue,html.Screen,4_81_2,2023-09-11T18:32:32.310Z,,0,,,NaN,,,,,,false,,,,316174.60000014305,316174.40000009537,,316174.40000009537,,316186.467,8,400,,,
sequence,flow.Sequence,4_81,2023-09-11T18:32:32.310Z,,0,,,2971.1470000953414,completion,,,,,false,,,,316174.60000014305,316174.40000009537,313186.587,313195.5,313203.253,316186.467,8,400,,,
trial,html.Screen,4_82_0,2023-09-11T18:32:35.094Z,,0,2,,2772.133000143047,response,ISIC_0012758.JPG,7,ISIC_0030974.JPG,ISIC_0012758.JPG,false,1,keypress(m),500,318959.10000014305,318958.60000014305,316169.801,316174.80000019073,316186.467,318970.11,8,400,33,,ISIC_0030974.JPG
break,html.Screen,4_82_1,2023-09-11T18:32:35.095Z,,0,,,NaN,,,,,,false,,,,318960.2000000477,318959.90000009537,,318959.40000009537,,318970.11,8,400,,,
break_continue,html.Screen,4_82_2,2023-09-11T18:32:35.096Z,,0,,,NaN,,,,,,false,,,,318960.5,318960.40000009537,,318960.2000000477,,318970.11,8,400,,,
sequence,flow.Sequence,4_82,2023-09-11T18:32:35.096Z,,0,,,2773.9330000953632,completion,,,,,false,,,,318960.7000000477,318960.40000009537,316169.801,316174.80000019073,316186.467,318970.11,8,400,,,
trial,html.Screen,4_83_0,2023-09-11T18:32:37.998Z,,0,2,,2891.7900000953814,response,ISIC_8629635.JPG,8,ISIC_0066114.JPG,ISIC_8629635.JPG,false,1,keypress(m),500,321862.30000019073,321861.90000009537,318953.444,318960.80000019073,318970.11,321869.994,8,400,34,,ISIC_0066114.JPG
break,html.Screen,4_83_1,2023-09-11T18:32:37.999Z,,0,,,NaN,,,,,,false,,,,321863.40000009537,321863.2000000477,,321862.7000000477,,321869.994,8,400,,,
break_continue,html.Screen,4_83_2,2023-09-11T18:32:37.999Z,,0,,,NaN,,,,,,false,,,,321863.80000019073,321863.60000014305,,321863.5,,321869.994,8,400,,,
sequence,flow.Sequence,4_83,2023-09-11T18:32:37.999Z,,0,,,2893.490000143065,completion,,,,,false,,,,321863.90000009537,321863.60000014305,318953.444,318960.80000019073,318970.11,321869.994,8,400,,,
trial,html.Screen,4_84_0,2023-09-11T18:32:41.029Z,,0,2,,3022.806000190729,response,ISIC_0922552.JPG,8,ISIC_6471212.JPG,ISIC_6471212.JPG,false,0,keypress(z),500,324893.30000019073,324892.80000019073,321853.328,321864,321869.994,324903.206,8,400,35,,ISIC_0922552.JPG
break,html.Screen,4_84_1,2023-09-11T18:32:41.030Z,,0,,,NaN,,,,,,false,,,,324894.40000009537,324894.10000014305,,324893.60000014305,,324903.206,8,400,,,
break_continue,html.Screen,4_84_2,2023-09-11T18:32:41.030Z,,0,,,NaN,,,,,,false,,,,324894.80000019073,324894.60000014305,,324894.5,,324903.206,8,400,,,
sequence,flow.Sequence,4_84,2023-09-11T18:32:41.030Z,,0,,,3024.606000143045,completion,,,,,false,,,,324895,324894.60000014305,321853.328,321864,321869.994,324903.206,8,400,,,
trial,html.Screen,4_85_0,2023-09-11T18:32:44.059Z,,0,2,,3020.3940001430456,response,ISIC_6125652.JPG,8,ISIC_3992223.JPG,ISIC_6125652.JPG,false,1,keypress(m),500,327924,327923.60000014305,324886.54,324895.10000014305,324903.206,327936.824,8,400,36,,ISIC_3992223.JPG
break,html.Screen,4_85_1,2023-09-11T18:32:44.060Z,,0,,,NaN,,,,,,false,,,,327925.10000014305,327924.80000019073,,327924.40000009537,,327936.824,8,400,,,
break_continue,html.Screen,4_85_2,2023-09-11T18:32:44.061Z,,0,,,NaN,,,,,,false,,,,327925.40000009537,327925.30000019073,,327925.2000000477,,327936.824,8,400,,,
sequence,flow.Sequence,4_85,2023-09-11T18:32:44.061Z,,0,,,3022.0940001907293,completion,,,,,false,,,,327925.60000014305,327925.30000019073,324886.54,324895,324903.206,327936.824,8,400,,,
trial,html.Screen,4_86_0,2023-09-11T18:32:47.301Z,,0,2,,3228.3760000476614,response,ISIC_5919355.JPG,9,ISIC_5768749.JPG,ISIC_5768749.JPG,false,0,keypress(z),500,331165.7000000477,331165.2000000477,327920.158,327925.7000000477,327936.824,331170.028,8,400,37,,ISIC_5919355.JPG
break,html.Screen,4_86_1,2023-09-11T18:32:47.302Z,,0,,,NaN,,,,,,false,,,,331166.7000000477,331166.5,,331166,,331170.028,8,400,,,
break_continue,html.Screen,4_86_2,2023-09-11T18:32:47.302Z,,0,,,NaN,,,,,,false,,,,331167.2000000477,331167,,331166.90000009537,,331170.028,8,400,,,
sequence,flow.Sequence,4_86,2023-09-11T18:32:47.303Z,,0,,,3230.1759999999776,completion,,,,,false,,,,331167.30000019073,331167,327920.158,327925.7000000477,327936.824,331170.028,8,400,,,
trial,html.Screen,4_87_0,2023-09-11T18:32:50.298Z,,0,2,,2992.07200014306,response,ISIC_0033886.JPG,8,ISIC_0006118.JPG,ISIC_0006118.JPG,false,0,keypress(z),500,334162.7000000477,334162.10000014305,331153.362,331167.40000009537,331170.028,334169.908,8,400,38,,ISIC_0033886.JPG
break,html.Screen,4_87_1,2023-09-11T18:32:50.299Z,,0,,,NaN,,,,,,false,,,,334163.7000000477,334163.40000009537,,334163,,334169.908,8,400,,,
break_continue,html.Screen,4_87_2,2023-09-11T18:32:50.299Z,,0,,,NaN,,,,,,false,,,,334164,334163.90000009537,,334163.7000000477,,334169.908,8,400,,,
sequence,flow.Sequence,4_87,2023-09-11T18:32:50.299Z,,0,,,2993.8720000953763,completion,,,,,false,,,,334164.2000000477,334163.90000009537,331153.362,331167.40000009537,331170.028,334169.908,8,400,,,
trial,html.Screen,4_88_0,2023-09-11T18:32:53.024Z,,0,2,,2718.892000190739,response,ISIC_0027076.JPG,8,ISIC_2664946.JPG,ISIC_2664946.JPG,false,0,keypress(z),500,336889.2000000477,336888.80000019073,334153.242,334164.30000019073,334169.908,336903.132,8,400,39,,ISIC_0027076.JPG
break,html.Screen,4_88_1,2023-09-11T18:32:53.025Z,,0,,,NaN,,,,,,false,,,,336890.2000000477,336889.90000009537,,336889.5,,336903.132,8,400,,,
break_continue,html.Screen,4_88_2,2023-09-11T18:32:53.026Z,,0,,,NaN,,,,,,false,,,,336890.5,336890.40000009537,,336890.30000019073,,336903.132,8,400,,,
sequence,flow.Sequence,4_88,2023-09-11T18:32:53.026Z,,0,,,2720.4920000953716,completion,,,,,false,,,,336890.7000000477,336890.40000009537,334153.242,334164.2000000477,334169.908,336903.132,8,400,,,
trial,html.Screen,4_89_0,2023-09-11T18:32:56.142Z,,0,2,,3103.6680001907516,response,ISIC_0071196.JPG,5,ISIC_6062657.JPG,ISIC_0071196.JPG,false,1,keypress(m),500,340007.30000019073,340006.80000019073,336886.466,336890.80000019073,336903.132,340020.056,8,400,40,,ISIC_6062657.JPG
break,html.Screen,4_89_1,2023-09-11T18:32:56.143Z,,0,,,NaN,,,,,,false,,,,340008.2000000477,340008,,340007.60000014305,,340020.056,8,400,,,
break_continue,html.Screen,4_89_2,2023-09-11T18:32:56.144Z,,0,,,NaN,,,,,,false,,,,340008.7000000477,340008.5,,340008.40000009537,,340020.056,8,400,,,
sequence,flow.Sequence,4_89,2023-09-11T18:32:56.144Z,,0,,,3105.3680000000168,completion,,,,,false,,,,340008.90000009537,340008.5,336886.466,336890.80000019073,336903.132,340020.056,8,400,,,
trial,html.Screen,4_90_0,2023-09-11T18:32:59.038Z,,0,2,,2882.4440000000177,response,ISIC_5081382.JPG,8,ISIC_0071300.JPG,ISIC_0071300.JPG,false,0,keypress(z),500,342902.90000009537,342902.5,340003.39,340008.90000009537,340020.056,342919.94,8,400,41,,ISIC_5081382.JPG
break,html.Screen,4_90_1,2023-09-11T18:32:59.039Z,,0,,,NaN,,,,,,false,,,,342903.90000009537,342903.7000000477,,342903.30000019073,,342919.94,8,400,,,
break_continue,html.Screen,4_90_2,2023-09-11T18:32:59.039Z,,0,,,NaN,,,,,,false,,,,342904.30000019073,342904.2000000477,,342904,,342919.94,8,400,,,
sequence,flow.Sequence,4_90,2023-09-11T18:32:59.040Z,,0,,,2884.1440000477014,completion,,,,,false,,,,342904.5,342904.2000000477,340003.39,340008.90000009537,340020.056,342919.94,8,400,,,
trial,html.Screen,4_91_0,2023-09-11T18:33:02.083Z,,0,2,,3027.160000143049,response,ISIC_7612992.JPG,8,ISIC_0062997.JPG,ISIC_0062997.JPG,false,0,keypress(z),500,345947.5,345947.10000014305,342903.274,342904.60000014305,342919.94,345953.152,8,400,42,,ISIC_7612992.JPG
break,html.Screen,4_91_1,2023-09-11T18:33:02.084Z,,0,,,NaN,,,,,,false,,,,345948.30000019073,345948.2000000477,,345947.7000000477,,345953.152,8,400,,,
break_continue,html.Screen,4_91_2,2023-09-11T18:33:02.084Z,,0,,,NaN,,,,,,false,,,,345948.7000000477,345948.5,,345948.5,,345953.152,8,400,,,
sequence,flow.Sequence,4_91,2023-09-11T18:33:02.084Z,,0,,,3028.5599999999977,completion,,,,,false,,,,345948.80000019073,345948.5,342903.274,342904.5,342919.94,345953.152,8,400,,,
trial,html.Screen,4_92_0,2023-09-11T18:33:05.325Z,,0,2,,3236.2480000953656,response,ISIC_5415749.JPG,7,ISIC_0027659.JPG,ISIC_5415749.JPG,false,1,keypress(m),500,349189.80000019073,349189.40000009537,345936.486,345948.90000009537,345953.152,349203.445,8,400,43,,ISIC_0027659.JPG
break,html.Screen,4_92_1,2023-09-11T18:33:05.326Z,,0,,,NaN,,,,,,false,,,,349190.7000000477,349190.5,,349190.10000014305,,349203.445,8,400,,,
break_continue,html.Screen,4_92_2,2023-09-11T18:33:05.326Z,,0,,,NaN,,,,,,false,,,,349191,349190.90000009537,,349190.80000019073,,349203.445,8,400,,,
sequence,flow.Sequence,4_92,2023-09-11T18:33:05.326Z,,0,,,3237.7480000953656,completion,,,,,false,,,,349191.10000014305,349190.90000009537,345936.486,345948.90000009537,345953.152,349203.445,8,400,,,
trial,html.Screen,4_93_0,2023-09-11T18:33:08.691Z,,0,2,,3352.155000143044,response,ISIC_0031529.JPG,8,ISIC_0024459.JPG,ISIC_0024459.JPG,false,0,keypress(z),500,352556.10000014305,352555.60000014305,349186.779,349191.2000000477,349203.445,352569.977,8,400,44,,ISIC_0031529.JPG
break,html.Screen,4_93_1,2023-09-11T18:33:08.692Z,,0,,,NaN,,,,,,false,,,,352556.80000019073,352556.7000000477,,352556.2000000477,,352569.977,8,400,,,
break_continue,html.Screen,4_93_2,2023-09-11T18:33:08.692Z,,0,,,NaN,,,,,,false,,,,352557.10000014305,352557,,352556.90000009537,,352569.977,8,400,,,
sequence,flow.Sequence,4_93,2023-09-11T18:33:08.692Z,,0,,,3353.554999999993,completion,,,,,false,,,,352557.2000000477,352557,349186.779,349191.2000000477,349203.445,352569.977,8,400,,,
trial,html.Screen,4_94_0,2023-09-11T18:33:12.265Z,,0,2,,3559.22300004767,response,ISIC_0553565.JPG,8,ISIC_0025589.JPG,ISIC_0553565.JPG,false,1,keypress(m),500,356129.7000000477,356129.2000000477,352553.311,352557.2000000477,352569.977,356136.501,8,400,45,,ISIC_0025589.JPG
break,html.Screen,4_94_1,2023-09-11T18:33:12.266Z,,0,,,NaN,,,,,,false,,,,356130.60000014305,356130.30000019073,,356130,,356136.501,8,400,,,
break_continue,html.Screen,4_94_2,2023-09-11T18:33:12.266Z,,0,,,NaN,,,,,,false,,,,356130.90000009537,356130.80000019073,,356130.7000000477,,356136.501,8,400,,,
sequence,flow.Sequence,4_94,2023-09-11T18:33:12.266Z,,0,,,3560.8230001907214,completion,,,,,false,,,,356130.90000009537,356130.80000019073,352553.311,352557.2000000477,352569.977,356136.501,8,400,,,
trial,html.Screen,4_95_0,2023-09-11T18:33:15.493Z,,0,2,,3220.9990000000107,response,ISIC_7025487.JPG,7,ISIC_0029405.JPG,ISIC_0029405.JPG,false,0,keypress(z),500,359358,359357.5,356119.835,356131.10000014305,356136.501,359370.162,8,400,46,,ISIC_7025487.JPG
break,html.Screen,4_95_1,2023-09-11T18:33:15.494Z,,0,,,NaN,,,,,,false,,,,359359,359358.80000019073,,359358.40000009537,,359370.162,8,400,,,
break_continue,html.Screen,4_95_2,2023-09-11T18:33:15.494Z,,0,,,NaN,,,,,,false,,,,359359.40000009537,359359.30000019073,,359359.2000000477,,359370.162,8,400,,,
sequence,flow.Sequence,4_95,2023-09-11T18:33:15.495Z,,0,,,3222.7990001907456,completion,,,,,false,,,,359359.60000014305,359359.30000019073,356119.835,356131,356136.501,359370.162,8,400,,,
trial,html.Screen,4_96_0,2023-09-11T18:33:18.692Z,,0,2,,3186.6380001907237,response,ISIC_7984569.JPG,7,ISIC_0028181.JPG,ISIC_7984569.JPG,false,1,keypress(m),500,362557.30000019073,362556.80000019073,359353.496,359359.7000000477,359370.162,362570.034,8,400,47,,ISIC_0028181.JPG
break,html.Screen,4_96_1,2023-09-11T18:33:18.693Z,,0,,,NaN,,,,,,false,,,,362558.40000009537,362558.2000000477,,362557.60000014305,,362570.034,8,400,,,
break_continue,html.Screen,4_96_2,2023-09-11T18:33:18.694Z,,0,,,NaN,,,,,,false,,,,362558.7000000477,362558.60000014305,,362558.5,,362570.034,8,400,,,
sequence,flow.Sequence,4_96,2023-09-11T18:33:18.694Z,,0,,,3188.43800014304,completion,,,,,false,,,,362558.90000009537,362558.60000014305,359353.496,359359.60000014305,359370.162,362570.034,8,400,,,
trial,html.Screen,4_97_0,2023-09-11T18:33:22.331Z,,0,2,,3625.6660000476986,response,ISIC_9337570.JPG,8,ISIC_3519679.JPG,ISIC_3519679.JPG,false,0,keypress(z),500,366196.10000014305,366195.7000000477,362553.368,362559.10000014305,362570.034,366203.222,8,400,48,,ISIC_9337570.JPG
break,html.Screen,4_97_1,2023-09-11T18:33:22.332Z,,0,,,NaN,,,,,,false,,,,366197.10000014305,366196.90000009537,,366196.40000009537,,366203.222,8,400,,,
break_continue,html.Screen,4_97_2,2023-09-11T18:33:22.333Z,,0,,,NaN,,,,,,false,,,,366197.40000009537,366197.30000019073,,366197.2000000477,,366203.222,8,400,,,
sequence,flow.Sequence,4_97,2023-09-11T18:33:22.333Z,,0,,,3627.2660001907498,completion,,,,,false,,,,366197.60000014305,366197.30000019073,362553.368,362558.90000009537,362570.034,366203.222,8,400,,,
trial,html.Screen,4_98_0,2023-09-11T18:33:26.549Z,,0,2,,4210.277999999991,response,ISIC_0059181.JPG,8,ISIC_0280912.JPG,ISIC_0059181.JPG,false,1,keypress(m),500,370413.90000009537,370413.5,366186.556,366197.80000019073,366203.222,370420.074,8,400,49,,ISIC_0280912.JPG
break,html.Screen,4_98_1,2023-09-11T18:33:26.550Z,,0,,,NaN,,,,,,false,,,,370415,370414.7000000477,,370414.2000000477,,370420.074,8,400,,,
break_continue,html.Screen,4_98_2,2023-09-11T18:33:26.550Z,,0,,,NaN,,,,,,false,,,,370415.40000009537,370415.2000000477,,370415.10000014305,,370420.074,8,400,,,
sequence,flow.Sequence,4_98,2023-09-11T18:33:26.551Z,,0,,,4211.978000047675,completion,,,,,false,,,,370415.5,370415.2000000477,366186.556,366197.7000000477,366203.222,370420.074,8,400,,,
trial,html.Screen,4_99_0,2023-09-11T18:33:30.283Z,,0,2,,3727.826000095345,response,ISIC_3067885.JPG,6,ISIC_0024263.JPG,ISIC_3067885.JPG,false,1,keypress(m),500,374148.30000019073,374147.90000009537,370403.408,370415.60000014305,370420.074,374153.258,8,400,50,,ISIC_0024263.JPG
break,html.Screen,4_99_1,2023-09-11T18:33:40.705Z,,0,,,21416.62300000002,timeout,,,,,false,,,,384569.60000014305,384569.2000000477,374136.592,374148.60000014305,374153.258,395569.881,8,400,,,
break_continue,html.Screen,4_99_2,2023-09-11T18:33:53.019Z,,0,,,1298.7190001430572,response,,,,,false,continue,keypress(Space),,396884.2000000477,396868.60000014305,384569.2000000477,384569.80000019073,395569.881,396886.495,8,400,,,
sequence,flow.Sequence,4_99,2023-09-11T18:33:53.019Z,,0,,,26448.52600014303,completion,,,,,false,,,,396884.5,396868.60000014305,370403.408,370415.60000014305,370420.074,396886.495,8,400,,,
trial,html.Screen,4_100_0,2023-09-11T18:33:56.996Z,,0,3,,3974.3050001907395,response,ISIC_0011375.JPG,6,ISIC_0070463.JPG,ISIC_0011375.JPG,false,1,keypress(m),500,400861.40000009537,400860.80000019073,396869.829,396884.60000014305,396886.495,400870.162,8,400,1,,ISIC_0070463.JPG
break,html.Screen,4_100_1,2023-09-11T18:33:56.997Z,,0,,,NaN,,,,,,false,,,,400862.40000009537,400862.2000000477,,400861.60000014305,,400870.162,8,400,,,
break_continue,html.Screen,4_100_2,2023-09-11T18:33:56.998Z,,0,,,NaN,,,,,,false,,,,400862.80000019073,400862.7000000477,,400862.60000014305,,400870.162,8,400,,,
sequence,flow.Sequence,4_100,2023-09-11T18:33:56.998Z,,0,,,3976.2050000476884,completion,,,,,false,,,,400863,400862.7000000477,396869.829,396884.5,396886.495,400870.162,8,400,,,
trial,html.Screen,4_101_0,2023-09-11T18:34:00.091Z,,0,3,,3085.337999999989,response,ISIC_7454699.JPG,8,ISIC_0000145.JPG,ISIC_7454699.JPG,false,1,keypress(m),500,403956,403955.5,400853.496,400863.10000014305,400870.162,403970.038,8,400,2,,ISIC_0000145.JPG
break,html.Screen,4_101_1,2023-09-11T18:34:00.092Z,,0,,,NaN,,,,,,false,,,,403957,403956.7000000477,,403956.2000000477,,403970.038,8,400,,,
break_continue,html.Screen,4_101_2,2023-09-11T18:34:00.092Z,,0,,,NaN,,,,,,false,,,,403957.40000009537,403957.2000000477,,403957.10000014305,,403970.038,8,400,,,
sequence,flow.Sequence,4_101,2023-09-11T18:34:00.092Z,,0,,,3087.0380000476725,completion,,,,,false,,,,403957.60000014305,403957.2000000477,400853.496,400863.10000014305,400870.162,403970.038,8,400,,,
trial,html.Screen,4_102_0,2023-09-11T18:34:03.439Z,,0,3,,3333.7620001907344,response,ISIC_0064141.JPG,9,ISIC_0030843.JPG,ISIC_0064141.JPG,false,1,keypress(m),500,407304.30000019073,407303.80000019073,403953.372,403957.7000000477,403970.038,407319.904,8,400,3,,ISIC_0030843.JPG
break,html.Screen,4_102_1,2023-09-11T18:34:03.440Z,,0,,,NaN,,,,,,false,,,,407305.40000009537,407305.10000014305,,407304.7000000477,,407319.904,8,400,,,
break_continue,html.Screen,4_102_2,2023-09-11T18:34:03.441Z,,0,,,NaN,,,,,,false,,,,407305.80000019073,407305.60000014305,,407305.5,,407319.904,8,400,,,
sequence,flow.Sequence,4_102,2023-09-11T18:34:03.441Z,,0,,,3335.5620001430507,completion,,,,,false,,,,407305.90000009537,407305.60000014305,403953.372,403957.60000014305,403970.038,407319.904,8,400,,,
trial,html.Screen,4_103_0,2023-09-11T18:34:06.653Z,,0,3,,3197.996000095387,response,ISIC_8021960.JPG,7,ISIC_3292151.JPG,ISIC_3292151.JPG,false,0,keypress(z),500,410518.40000009537,410517.90000009537,407303.238,407306.10000014305,407319.904,410519.776,8,400,4,,ISIC_8021960.JPG
break,html.Screen,4_103_1,2023-09-11T18:34:06.654Z,,0,,,NaN,,,,,,false,,,,410519.40000009537,410519.10000014305,,410518.60000014305,,410519.776,8,400,,,
break_continue,html.Screen,4_103_2,2023-09-11T18:34:06.655Z,,0,,,NaN,,,,,,false,,,,410519.7000000477,410519.7000000477,,410519.5,,410519.776,8,400,,,
sequence,flow.Sequence,4_103,2023-09-11T18:34:06.655Z,,0,,,3199.7960000477033,completion,,,,,false,,,,410519.90000009537,410519.7000000477,407303.238,407306,407319.904,410519.776,8,400,,,
trial,html.Screen,4_104_0,2023-09-11T18:34:09.647Z,,0,3,,2991.624000095355,response,ISIC_0001142.JPG,8,ISIC_8759207.JPG,ISIC_0001142.JPG,false,1,keypress(m),500,413511.80000019073,413511.40000009537,410503.11,410520.10000014305,410519.776,413520.042,8,400,5,,ISIC_8759207.JPG
break,html.Screen,4_104_1,2023-09-11T18:34:09.648Z,,0,,,NaN,,,,,,false,,,,413512.80000019073,413512.60000014305,,413512.10000014305,,413520.042,8,400,,,
break_continue,html.Screen,4_104_2,2023-09-11T18:34:09.648Z,,0,,,NaN,,,,,,false,,,,413513.2000000477,413513,,413512.90000009537,,413520.042,8,400,,,
sequence,flow.Sequence,4_104,2023-09-11T18:34:09.648Z,,0,,,2993.2239999999874,completion,,,,,false,,,,413513.40000009537,413513,410503.11,410520,410519.776,413520.042,8,400,,,
trial,html.Screen,4_105_0,2023-09-11T18:34:12.934Z,,0,3,,3278.3580000953516,response,ISIC_8578732.JPG,8,ISIC_0024294.JPG,ISIC_0024294.JPG,false,0,keypress(z),500,416798.80000019073,416798.40000009537,413503.376,413513.5,413520.042,416803.244,8,400,6,,ISIC_8578732.JPG
break,html.Screen,4_105_1,2023-09-11T18:34:12.935Z,,0,,,NaN,,,,,,false,,,,416799.80000019073,416799.60000014305,,416799.10000014305,,416803.244,8,400,,,
break_continue,html.Screen,4_105_2,2023-09-11T18:34:12.935Z,,0,,,NaN,,,,,,false,,,,416800.2000000477,416800.10000014305,,416800,,416803.244,8,400,,,
sequence,flow.Sequence,4_105,2023-09-11T18:34:12.935Z,,0,,,3280.0580001430353,completion,,,,,false,,,,416800.30000019073,416800.10000014305,413503.376,413513.40000009537,413520.042,416803.244,8,400,,,
trial,html.Screen,4_106_0,2023-09-11T18:34:16.213Z,,0,3,,3274.755999999994,response,ISIC_8579575.JPG,8,ISIC_0014919.JPG,ISIC_8579575.JPG,false,1,keypress(m),500,420078.40000009537,420078,416786.578,416800.5,416803.244,420086.446,8,400,7,,ISIC_0014919.JPG
break,html.Screen,4_106_1,2023-09-11T18:34:16.214Z,,0,,,NaN,,,,,,false,,,,420079.40000009537,420079.2000000477,,420078.7000000477,,420086.446,8,400,,,
break_continue,html.Screen,4_106_2,2023-09-11T18:34:16.215Z,,0,,,NaN,,,,,,false,,,,420079.80000019073,420079.7000000477,,420079.5,,420086.446,8,400,,,
sequence,flow.Sequence,4_106,2023-09-11T18:34:16.215Z,,0,,,3276.4560000476777,completion,,,,,false,,,,420080,420079.7000000477,416786.578,416800.5,416803.244,420086.446,8,400,,,
trial,html.Screen,4_107_0,2023-09-11T18:34:19.196Z,,0,3,,2974.2540000476874,response,ISIC_0027056.JPG,5,ISIC_0064694.JPG,ISIC_0064694.JPG,false,0,keypress(z),500,423061.2000000477,423060.7000000477,420069.78,420080.10000014305,420086.446,423070.103,8,400,8,,ISIC_0027056.JPG
break,html.Screen,4_107_1,2023-09-11T18:34:19.197Z,,0,,,NaN,,,,,,false,,,,423062.10000014305,423061.90000009537,,423061.40000009537,,423070.103,8,400,,,
break_continue,html.Screen,4_107_2,2023-09-11T18:34:19.197Z,,0,,,NaN,,,,,,false,,,,423062.60000014305,423062.40000009537,,423062.2000000477,,423070.103,8,400,,,
sequence,flow.Sequence,4_107,2023-09-11T18:34:19.197Z,,0,,,2975.954000095371,completion,,,,,false,,,,423062.7000000477,423062.40000009537,420069.78,420080.10000014305,420086.446,423070.103,8,400,,,
trial,html.Screen,4_108_0,2023-09-11T18:34:22.050Z,,0,3,,2845.2970000953646,response,ISIC_0009882.JPG,8,ISIC_0062530.JPG,ISIC_0009882.JPG,false,1,keypress(m),500,425915.80000019073,425915.40000009537,423053.437,423062.90000009537,423070.103,425919.989,8,400,9,,ISIC_0062530.JPG
break,html.Screen,4_108_1,2023-09-11T18:34:22.051Z,,0,,,NaN,,,,,,false,,,,425916.80000019073,425916.5,,425916.10000014305,,425919.989,8,400,,,
break_continue,html.Screen,4_108_2,2023-09-11T18:34:22.052Z,,0,,,NaN,,,,,,false,,,,425917.2000000477,425917.10000014305,,425916.90000009537,,425919.989,8,400,,,
sequence,flow.Sequence,4_108,2023-09-11T18:34:22.052Z,,0,,,2846.9970001430484,completion,,,,,false,,,,425917.30000019073,425917.10000014305,423053.437,423062.80000019073,423070.103,425919.989,8,400,,,
trial,html.Screen,4_109_0,2023-09-11T18:34:24.969Z,,0,3,,2913.411000095366,response,ISIC_3633306.JPG,7,ISIC_4723378.JPG,ISIC_4723378.JPG,false,0,keypress(z),500,428833.80000019073,428833.40000009537,425903.323,425917.5,425919.989,428836.539,8,400,10,,ISIC_3633306.JPG
break,html.Screen,4_109_1,2023-09-11T18:34:24.970Z,,0,,,NaN,,,,,,false,,,,428834.80000019073,428834.60000014305,,428834.10000014305,,428836.539,8,400,,,
break_continue,html.Screen,4_109_2,2023-09-11T18:34:24.970Z,,0,,,NaN,,,,,,false,,,,428835.2000000477,428835,,428834.90000009537,,428836.539,8,400,,,
sequence,flow.Sequence,4_109,2023-09-11T18:34:24.970Z,,0,,,2915.0109999999986,completion,,,,,false,,,,428835.30000019073,428835,425903.323,425917.40000009537,425919.989,428836.539,8,400,,,
trial,html.Screen,4_110_0,2023-09-11T18:34:28.046Z,,0,3,,3074.3610000953777,response,ISIC_0066101.JPG,7,ISIC_2376758.JPG,ISIC_0066101.JPG,false,1,keypress(m),500,431911.2000000477,431910.90000009537,428819.873,428835.5,428836.539,431920.16,8,400,11,,ISIC_2376758.JPG
break,html.Screen,4_110_1,2023-09-11T18:34:28.047Z,,0,,,NaN,,,,,,false,,,,431912.10000014305,431911.90000009537,,431911.5,,431920.16,8,400,,,
break_continue,html.Screen,4_110_2,2023-09-11T18:34:28.047Z,,0,,,NaN,,,,,,false,,,,431912.40000009537,431912.2000000477,,431912.10000014305,,431920.16,8,400,,,
sequence,flow.Sequence,4_110,2023-09-11T18:34:28.047Z,,0,,,3075.661000047694,completion,,,,,false,,,,431912.5,431912.2000000477,428819.873,428835.5,428836.539,431920.16,8,400,,,
trial,html.Screen,4_111_0,2023-09-11T18:34:31.490Z,,0,3,,3434.740000095393,response,ISIC_0058158.JPG,7,ISIC_4966865.JPG,ISIC_0058158.JPG,false,1,keypress(m),500,435355.5,435354.90000009537,431903.494,431912.5,431920.16,435370.022,8,400,12,,ISIC_4966865.JPG
break,html.Screen,4_111_1,2023-09-11T18:34:31.491Z,,0,,,NaN,,,,,,false,,,,435356.5,435356.30000019073,,435355.80000019073,,435370.022,8,400,,,
break_continue,html.Screen,4_111_2,2023-09-11T18:34:31.492Z,,0,,,NaN,,,,,,false,,,,435356.90000009537,435356.7000000477,,435356.60000014305,,435370.022,8,400,,,
sequence,flow.Sequence,4_111,2023-09-11T18:34:31.492Z,,0,,,3436.5400000477093,completion,,,,,false,,,,435357,435356.7000000477,431903.494,431912.5,431920.16,435370.022,8,400,,,
trial,html.Screen,4_112_0,2023-09-11T18:34:35.850Z,,0,3,,4344.578000143054,response,ISIC_0031763.JPG,7,ISIC_2769292.JPG,ISIC_0031763.JPG,false,1,keypress(m),500,439715,439714.60000014305,435353.356,435357.30000019073,435370.022,439719.848,8,400,13,,ISIC_2769292.JPG
break,html.Screen,4_112_1,2023-09-11T18:34:35.851Z,,0,,,NaN,,,,,,false,,,,439716.10000014305,439715.80000019073,,439715.40000009537,,439719.848,8,400,,,
break_continue,html.Screen,4_112_2,2023-09-11T18:34:35.851Z,,0,,,NaN,,,,,,false,,,,439716.5,439716.30000019073,,439716.2000000477,,439719.848,8,400,,,
sequence,flow.Sequence,4_112,2023-09-11T18:34:35.851Z,,0,,,4346.278000190738,completion,,,,,false,,,,439716.60000014305,439716.30000019073,435353.356,435357.10000014305,435370.022,439719.848,8,400,,,
trial,html.Screen,4_113_0,2023-09-11T18:34:39.903Z,,0,3,,4047.752000143053,response,ISIC_5772938.JPG,7,ISIC_0032699.JPG,ISIC_5772938.JPG,false,1,keypress(m),500,443768.10000014305,443767.60000014305,439703.182,439716.80000019073,439719.848,443770.081,8,400,14,,ISIC_0032699.JPG
break,html.Screen,4_113_1,2023-09-11T18:34:39.904Z,,0,,,NaN,,,,,,false,,,,443769.10000014305,443768.80000019073,,443768.40000009537,,443770.081,8,400,,,
break_continue,html.Screen,4_113_2,2023-09-11T18:34:39.904Z,,0,,,NaN,,,,,,false,,,,443769.5,443769.30000019073,,443769.30000019073,,443770.081,8,400,,,
sequence,flow.Sequence,4_113,2023-09-11T18:34:39.904Z,,0,,,4049.4520001907367,completion,,,,,false,,,,443769.60000014305,443769.30000019073,439703.182,439716.7000000477,439719.848,443770.081,8,400,,,
trial,html.Screen,4_114_0,2023-09-11T18:34:42.734Z,,0,3,,2828.9189999999944,response,ISIC_0060050.JPG,5,ISIC_0068727.JPG,ISIC_0068727.JPG,false,0,keypress(z),500,446599.60000014305,446599,443753.415,443769.80000019073,443770.081,446603.301,8,400,15,,ISIC_0060050.JPG
break,html.Screen,4_114_1,2023-09-11T18:34:42.735Z,,0,,,NaN,,,,,,false,,,,446600.80000019073,446600.5,,446600,,446603.301,8,400,,,
break_continue,html.Screen,4_114_2,2023-09-11T18:34:42.736Z,,0,,,NaN,,,,,,false,,,,446601.2000000477,446601,,446600.90000009537,,446603.301,8,400,,,
sequence,flow.Sequence,4_114,2023-09-11T18:34:42.736Z,,0,,,2830.9189999999944,completion,,,,,false,,,,446601.30000019073,446601,443753.415,443769.7000000477,443770.081,446603.301,8,400,,,
trial,html.Screen,4_115_0,2023-09-11T18:34:46.340Z,,0,3,,3601.59900009539,response,ISIC_0057374.JPG,7,ISIC_8530010.JPG,ISIC_8530010.JPG,false,0,keypress(z),500,450205.30000019073,450204.90000009537,446586.635,446601.5,446603.301,450219.823,8,400,16,,ISIC_0057374.JPG
break,html.Screen,4_115_1,2023-09-11T18:34:46.341Z,,0,,,NaN,,,,,,false,,,,450206.10000014305,450206,,450205.5,,450219.823,8,400,,,
break_continue,html.Screen,4_115_2,2023-09-11T18:34:46.341Z,,0,,,NaN,,,,,,false,,,,450206.30000019073,450206.2000000477,,450206.2000000477,,450219.823,8,400,,,
sequence,flow.Sequence,4_115,2023-09-11T18:34:46.341Z,,0,,,3602.899000047706,completion,,,,,false,,,,450206.40000009537,450206.2000000477,446586.635,446601.40000009537,446603.301,450219.823,8,400,,,
trial,html.Screen,4_116_0,2023-09-11T18:34:49.114Z,,0,3,,2759.677000000025,response,ISIC_0032543.JPG,7,ISIC_0029902.JPG,ISIC_0029902.JPG,false,0,keypress(z),500,452979.80000019073,452979.5,450203.157,450206.5,450219.823,452986.799,8,400,17,,ISIC_0032543.JPG
break,html.Screen,4_116_1,2023-09-11T18:34:49.115Z,,0,,,NaN,,,,,,false,,,,452980.5,452980.40000009537,,452980,,452986.799,8,400,,,
break_continue,html.Screen,4_116_2,2023-09-11T18:34:49.115Z,,0,,,NaN,,,,,,false,,,,452980.80000019073,452980.7000000477,,452980.60000014305,,452986.799,8,400,,,
sequence,flow.Sequence,4_116,2023-09-11T18:34:49.115Z,,0,,,2760.877000047709,completion,,,,,false,,,,452980.90000009537,452980.7000000477,450203.157,450206.5,450219.823,452986.799,8,400,,,
trial,html.Screen,4_117_0,2023-09-11T18:34:52.561Z,,0,3,,3438.701000000001,response,ISIC_4097868.JPG,6,ISIC_5476770.JPG,ISIC_5476770.JPG,false,0,keypress(z),500,456426,456425.5,452970.133,452980.90000009537,452986.799,456436.661,8,400,18,,ISIC_4097868.JPG
break,html.Screen,4_117_1,2023-09-11T18:34:52.562Z,,0,,,NaN,,,,,,false,,,,456427,456426.80000019073,,456426.30000019073,,456436.661,8,400,,,
break_continue,html.Screen,4_117_2,2023-09-11T18:34:52.562Z,,0,,,NaN,,,,,,false,,,,456427.40000009537,456427.30000019073,,456427.2000000477,,456436.661,8,400,,,
sequence,flow.Sequence,4_117,2023-09-11T18:34:52.562Z,,0,,,3440.501000190736,completion,,,,,false,,,,456427.60000014305,456427.30000019073,452970.133,452980.90000009537,452986.799,456436.661,8,400,,,
trial,html.Screen,4_118_0,2023-09-11T18:34:55.325Z,,0,3,,2752.838999999978,response,ISIC_7233368.JPG,8,ISIC_0057815.JPG,ISIC_0057815.JPG,false,0,keypress(z),500,459190,459189.5,456419.995,456427.7000000477,456436.661,459203.217,8,400,19,,ISIC_7233368.JPG
break,html.Screen,4_118_1,2023-09-11T18:34:55.326Z,,0,,,NaN,,,,,,false,,,,459191.10000014305,459190.90000009537,,459190.30000019073,,459203.217,8,400,,,
break_continue,html.Screen,4_118_2,2023-09-11T18:34:55.326Z,,0,,,NaN,,,,,,false,,,,459191.40000009537,459191.30000019073,,459191.2000000477,,459203.217,8,400,,,
sequence,flow.Sequence,4_118,2023-09-11T18:34:55.326Z,,0,,,2754.639000190713,completion,,,,,false,,,,459191.60000014305,459191.30000019073,456419.995,456427.7000000477,456436.661,459203.217,8,400,,,
trial,html.Screen,4_119_0,2023-09-11T18:34:58.355Z,,0,3,,3016.9830000476795,response,ISIC_8651765.JPG,8,ISIC_0031877.JPG,ISIC_8651765.JPG,false,1,keypress(m),500,462220.7000000477,462220.2000000477,459186.551,459191.7000000477,459203.217,462236.429,8,400,20,,ISIC_0031877.JPG
break,html.Screen,4_119_1,2023-09-11T18:34:58.356Z,,0,,,NaN,,,,,,false,,,,462221.7000000477,462221.5,,462221,,462236.429,8,400,,,
break_continue,html.Screen,4_119_2,2023-09-11T18:34:58.357Z,,0,,,NaN,,,,,,false,,,,462222.10000014305,462222,,462221.90000009537,,462236.429,8,400,,,
sequence,flow.Sequence,4_119,2023-09-11T18:34:58.357Z,,0,,,3018.782999999996,completion,,,,,false,,,,462222.2000000477,462222,459186.551,459191.60000014305,459203.217,462236.429,8,400,,,
trial,html.Screen,4_120_0,2023-09-11T18:35:01.941Z,,0,3,,3569.4710000953637,response,ISIC_1681964.JPG,6,ISIC_0031214.JPG,ISIC_1681964.JPG,false,1,keypress(m),500,465806.40000009537,465805.90000009537,462219.763,462222.5,462236.429,465820.038,8,400,21,,ISIC_0031214.JPG
break,html.Screen,4_120_1,2023-09-11T18:35:01.942Z,,0,,,NaN,,,,,,false,,,,465807.40000009537,465807.30000019073,,465806.7000000477,,465820.038,8,400,,,
break_continue,html.Screen,4_120_2,2023-09-11T18:35:01.942Z,,0,,,NaN,,,,,,false,,,,465807.90000009537,465807.7000000477,,465807.60000014305,,465820.038,8,400,,,
sequence,flow.Sequence,4_120,2023-09-11T18:35:01.943Z,,0,,,3571.27100004768,completion,,,,,false,,,,465808,465807.7000000477,462219.763,462222.40000009537,462236.429,465820.038,8,400,,,
trial,html.Screen,4_121_0,2023-09-11T18:35:05.532Z,,0,3,,3576.6620000476833,response,ISIC_0013801.JPG,6,ISIC_6722934.JPG,ISIC_0013801.JPG,false,1,keypress(m),500,469397.2000000477,469396.7000000477,465803.372,465808.2000000477,465820.038,469403.228,8,400,22,,ISIC_6722934.JPG
break,html.Screen,4_121_1,2023-09-11T18:35:05.533Z,,0,,,NaN,,,,,,false,,,,469398.2000000477,469398,,469397.40000009537,,469403.228,8,400,,,
break_continue,html.Screen,4_121_2,2023-09-11T18:35:05.533Z,,0,,,NaN,,,,,,false,,,,469398.60000014305,469398.40000009537,,469398.30000019073,,469403.228,8,400,,,
sequence,flow.Sequence,4_121,2023-09-11T18:35:05.533Z,,0,,,3578.362000095367,completion,,,,,false,,,,469398.7000000477,469398.40000009537,465803.372,465808.10000014305,465820.038,469403.228,8,400,,,
trial,html.Screen,4_122_0,2023-09-11T18:35:08.671Z,,0,3,,3133.3720001430484,response,ISIC_9101055.JPG,5,ISIC_0065192.JPG,ISIC_9101055.JPG,false,1,keypress(m),500,472537,472536.60000014305,469386.562,469398.80000019073,469403.228,472553.102,8,400,23,,ISIC_0065192.JPG
break,html.Screen,4_122_1,2023-09-11T18:35:08.672Z,,0,,,NaN,,,,,,false,,,,472538,472537.80000019073,,472537.30000019073,,472553.102,8,400,,,
break_continue,html.Screen,4_122_2,2023-09-11T18:35:08.673Z,,0,,,NaN,,,,,,false,,,,472538.40000009537,472538.30000019073,,472538.2000000477,,472553.102,8,400,,,
sequence,flow.Sequence,4_122,2023-09-11T18:35:08.673Z,,0,,,3135.072000190732,completion,,,,,false,,,,472538.60000014305,472538.30000019073,469386.562,469398.80000019073,469403.228,472553.102,8,400,,,
trial,html.Screen,4_123_0,2023-09-11T18:35:11.764Z,,0,3,,3075.6980001907214,response,ISIC_7582818.JPG,8,ISIC_0065235.JPG,ISIC_7582818.JPG,false,1,keypress(m),500,475629.2000000477,475628.80000019073,472536.436,472538.7000000477,472553.102,475636.724,8,400,24,,ISIC_0065235.JPG
break,html.Screen,4_123_1,2023-09-11T18:35:11.765Z,,0,,,NaN,,,,,,false,,,,475630.30000019073,475630,,475629.5,,475636.724,8,400,,,
break_continue,html.Screen,4_123_2,2023-09-11T18:35:11.765Z,,0,,,NaN,,,,,,false,,,,475630.60000014305,475630.5,,475630.40000009537,,475636.724,8,400,,,
sequence,flow.Sequence,4_123,2023-09-11T18:35:11.765Z,,0,,,3077.3979999999865,completion,,,,,false,,,,475630.90000009537,475630.5,472536.436,472538.7000000477,472553.102,475636.724,8,400,,,
trial,html.Screen,4_124_0,2023-09-11T18:35:14.249Z,,0,3,,2477.4760000476963,response,ISIC_0031863.JPG,8,ISIC_0072837.JPG,ISIC_0072837.JPG,false,0,keypress(z),500,478114.7000000477,478114.2000000477,475620.058,475631,475636.724,478119.958,8,400,25,,ISIC_0031863.JPG
break,html.Screen,4_124_1,2023-09-11T18:35:14.250Z,,0,,,NaN,,,,,,false,,,,478115.60000014305,478115.40000009537,,478114.90000009537,,478119.958,8,400,,,
break_continue,html.Screen,4_124_2,2023-09-11T18:35:14.250Z,,0,,,NaN,,,,,,false,,,,478116,478115.90000009537,,478115.80000019073,,478119.958,8,400,,,
sequence,flow.Sequence,4_124,2023-09-11T18:35:14.251Z,,0,,,2479.17600009538,completion,,,,,false,,,,478116.2000000477,478115.90000009537,475620.058,475630.90000009537,475636.724,478119.958,8,400,,,
trial,html.Screen,4_125_0,2023-09-11T18:35:17.408Z,,0,3,,3153.2420000476995,response,ISIC_5607452.JPG,9,ISIC_0011628.JPG,ISIC_5607452.JPG,false,1,keypress(m),500,481273.60000014305,481273.2000000477,478103.292,478116.30000019073,478119.958,481286.498,8,400,26,,ISIC_0011628.JPG
break,html.Screen,4_125_1,2023-09-11T18:35:17.409Z,,0,,,NaN,,,,,,false,,,,481274.7000000477,481274.5,,481274,,481286.498,8,400,,,
