sender,sender_type,sender_id,timestamp,meta,,blockNo,condition,duration,ended_on,img_left,img_reveal,img_right,loser,practice,response,response_action,selection_duration,time_commit,time_end,time_render,time_run,time_show,time_switch,total_blocks,total_trials,trialNo,url,winner
informed_consent,html.Screen,0,2023-09-16T18:16:44.357Z,"{""labjs_version"":""20.2.4"",""labjs_build"":{""flavor"":""production"",""commit"":""f5b4a49f956347addd546a832a3327688c2c0fef""},""location"":""https://run.pavlovia.org/MurrayBennett/melanoma-2afc/?participant=67631&platform=sona"",""userAgent"":""Mozilla/5.0 (Windows NT 10.0; Win64; x64) AppleWebKit/537.36 (KHTML, like Gecko) Chrome/116.0.0.0 Safari/537.36 Edg/116.0.1938.69"",""platform"":""Win32"",""language"":""en-US"",""locale"":""en-US"",""timeZone"":""America/Chicago"",""timezoneOffset"":300,""screen_width"":1366,""screen_height"":768,""scroll_width"":1318,""scroll_height"":598,""window_innerWidth"":1318,""window_innerHeight"":646,""devicePixelRatio"":1}",,,,14275.698000035762,response,,,,,,consent,click button,,43774.90000003576,43770.40000003576,29478.01,4509.400000035763,29494.702,43864.072,,,,"{""participant"":""67631"",""platform"":""sona""}",
Welcome,html.Screen,1,2023-09-16T18:16:56.576Z,,,,asymmetry,12128.528000023842,response,,,,,,continue,click button,,55994.69999998808,55992.60000002384,43764.186,43775.90000003576,43864.072,56018.776,,,,,
trial,html.Screen,2_0_0,2023-09-16T18:17:03.536Z,,0,0,,6934.824000023844,response,ISIC_6997061.JPG,,ISIC_0069348.JPG,ISIC_0069348.JPG,true,0,keypress(z),500,62954.40000003576,62953.60000002384,55985.459,55995.5,56018.776,62995.279,1,6,1,,ISIC_6997061.JPG
sequence,flow.Sequence,2_0,2023-09-16T18:17:03.537Z,,0,,,6934.824000023844,completion,,,,,true,,,,62955.30000001192,62953.60000002384,55985.459,55995.40000003576,56018.776,62995.279,1,6,,,
trial,html.Screen,2_1_0,2023-09-16T18:17:09.891Z,,0,0,,6313.6210000357605,response,ISIC_0057368.JPG,,ISIC_0009529.JPG,ISIC_0057368.JPG,true,1,keypress(m),500,69309.5,69308.90000003576,62945.459,62955.80000001192,62995.279,69355.801,1,6,2,,ISIC_0009529.JPG
sequence,flow.Sequence,2_1,2023-09-16T18:17:09.892Z,,0,,,6313.6210000357605,completion,,,,,true,,,,69310.40000003576,69308.90000003576,62945.459,62955.69999998808,62995.279,69355.801,1,6,,,
trial,html.Screen,2_2_0,2023-09-16T18:17:13.640Z,,0,0,,3701.6989999999932,response,ISIC_9758671.JPG,,ISIC_0064954.JPG,ISIC_9758671.JPG,true,1,keypress(m),500,73058,73057.5,69306.058,69311.19999998808,69355.801,73102.141,1,6,3,,ISIC_0064954.JPG
sequence,flow.Sequence,2_2,2023-09-16T18:17:13.640Z,,0,,,3701.6989999999932,completion,,,,,true,,,,73058.80000001192,73057.5,69306.058,69310.90000003576,69355.801,73102.141,1,6,,,
trial,html.Screen,2_3_0,2023-09-16T18:17:17.342Z,,0,0,,3657.558999988076,response,ISIC_0005785.JPG,,ISIC_0000080.JPG,ISIC_0005785.JPG,true,1,keypress(m),500,76760.19999998808,76759.69999998808,73052.233,73059.40000003576,73102.141,76798.483,1,6,4,,ISIC_0000080.JPG
sequence,flow.Sequence,2_3,2023-09-16T18:17:17.343Z,,0,,,3657.558999988076,completion,,,,,true,,,,76761.19999998808,76759.69999998808,73052.233,73059.10000002384,73102.141,76798.483,1,6,,,
trial,html.Screen,2_4_0,2023-09-16T18:17:21.328Z,,0,0,,3946.716999988086,response,ISIC_7944028.JPG,,ISIC_5390060.JPG,ISIC_5390060.JPG,true,0,keypress(z),500,80745.80000001192,80745.19999998808,76748.756,76761.80000001192,76798.483,80794.652,1,6,5,,ISIC_7944028.JPG
sequence,flow.Sequence,2_4,2023-09-16T18:17:21.328Z,,0,,,3946.716999988086,completion,,,,,true,,,,80746.60000002384,80745.19999998808,76748.756,76761.5,76798.483,80794.652,1,6,,,
trial,html.Screen,2_5_0,2023-09-16T18:17:25.415Z,,0,0,,4037.547999988077,response,ISIC_0794216.JPG,,ISIC_0010188.JPG,ISIC_0010188.JPG,true,0,keypress(z),500,84832.80000001192,84832.19999998808,80744.767,80747,80794.652,84873.972,1,6,6,,ISIC_0794216.JPG
sequence,flow.Sequence,2_5,2023-09-16T18:17:25.415Z,,0,,,4037.547999988077,completion,,,,,true,,,,84833.60000002384,84832.19999998808,80744.767,80746.90000003576,80794.652,84873.972,1,6,,,
loop,flow.Loop,2,2023-09-16T18:17:25.416Z,,,,,28813.42399998808,completion,,,,,true,,,,84834.30000001192,84832.19999998808,55985.459,55995.19999998808,56018.776,84873.972,1,6,,,
exp_instructions,html.Screen,3,2023-09-16T18:17:28.392Z,,,,,2934.5280000000057,response,,,,,,continue,keypress(Space),,87809.90000003576,87808.5,84824.03,84834.60000002384,84873.972,87854.375,,,,,
trial,html.Screen,4_0_0,2023-09-16T18:17:31.748Z,,0,1,,3296.625,response,ISIC_3886458.JPG,2,ISIC_1034397.JPG,ISIC_3886458.JPG,false,1,keypress(m),500,91151.40000003576,91151,87805.677,87810.5,87854.375,91201.031,8,400,1,,ISIC_1034397.JPG
break,html.Screen,4_0_1,2023-09-16T18:17:31.750Z,,0,,,NaN,,,,,,false,,,,91154.19999998808,91153.5,,91151.90000003576,,91201.031,8,400,,,
break_continue,html.Screen,4_0_2,2023-09-16T18:17:31.752Z,,0,,,NaN,,,,,,false,,,,91155.40000003576,91155,,91154.60000002384,,91201.031,8,400,,,
sequence,flow.Sequence,4_0,2023-09-16T18:17:31.752Z,,0,,,3300.625,completion,,,,,false,,,,91155.90000003576,91155,87805.677,87810.30000001192,87854.375,91201.031,8,400,,,
trial,html.Screen,4_1_0,2023-09-16T18:17:34.818Z,,0,1,,3020.6689999880764,response,ISIC_5581297.JPG,15,ISIC_0014229.JPG,ISIC_5581297.JPG,false,1,keypress(m),500,94222.30000001192,94221.69999998808,91151.29,91156.30000001192,91201.031,94264.634,8,400,2,,ISIC_0014229.JPG
break,html.Screen,4_1_1,2023-09-16T18:17:34.820Z,,0,,,NaN,,,,,,false,,,,94224.10000002384,94223.5,,94222.80000001192,,94264.634,8,400,,,
break_continue,html.Screen,4_1_2,2023-09-16T18:17:34.823Z,,0,,,NaN,,,,,,false,,,,94226.5,94226.10000002384,,94224.40000003576,,94264.634,8,400,,,
sequence,flow.Sequence,4_1,2023-09-16T18:17:34.823Z,,0,,,3025.069000023839,completion,,,,,false,,,,94227,94226.10000002384,91151.29,91156.19999998808,91201.031,94264.634,8,400,,,
trial,html.Screen,4_2_0,2023-09-16T18:17:39.066Z,,0,1,,4205.3659999999945,response,ISIC_8671662.JPG,320,ISIC_2852805.JPG,ISIC_2852805.JPG,false,0,keypress(z),500,98470.19999998808,98470,94214.98,94227.40000003576,94264.634,98510.439,8,400,3,,ISIC_8671662.JPG
break,html.Screen,4_2_1,2023-09-16T18:17:39.067Z,,0,,,NaN,,,,,,false,,,,98471,98470.80000001192,,98470.40000003576,,98510.439,8,400,,,
break_continue,html.Screen,4_2_2,2023-09-16T18:17:39.068Z,,0,,,NaN,,,,,,false,,,,98471.40000003576,98471.30000001192,,98471.19999998808,,98510.439,8,400,,,
sequence,flow.Sequence,4_2,2023-09-16T18:17:39.068Z,,0,,,4206.6660000119155,completion,,,,,false,,,,98471.60000002384,98471.30000001192,94214.98,94227.30000001192,94264.634,98510.439,8,400,,,
trial,html.Screen,4_3_0,2023-09-16T18:17:41.832Z,,0,1,,2724.7609999880806,response,ISIC_0011642.JPG,12,ISIC_0061624.JPG,ISIC_0011642.JPG,false,1,keypress(m),500,101235.69999998808,101235.19999998808,98460.713,98471.69999998808,98510.439,101274.468,8,400,4,,ISIC_0061624.JPG
break,html.Screen,4_3_1,2023-09-16T18:17:41.834Z,,0,,,NaN,,,,,,false,,,,101237.40000003576,101236.90000003576,,101236.19999998808,,101274.468,8,400,,,
break_continue,html.Screen,4_3_2,2023-09-16T18:17:41.835Z,,0,,,NaN,,,,,,false,,,,101238.30000001192,101238,,101237.80000001192,,101274.468,8,400,,,
sequence,flow.Sequence,4_3,2023-09-16T18:17:41.835Z,,0,,,2727.5610000000015,completion,,,,,false,,,,101238.80000001192,101238,98460.713,98471.69999998808,98510.439,101274.468,8,400,,,
trial,html.Screen,4_4_0,2023-09-16T18:17:45.675Z,,0,1,,3803.9320000357693,response,ISIC_0012151.JPG,9,ISIC_2376016.JPG,ISIC_2376016.JPG,false,0,keypress(z),500,105078.80000001192,105078.40000003576,101224.968,101239.19999998808,101274.468,105120.818,8,400,5,,ISIC_0012151.JPG
break,html.Screen,4_4_1,2023-09-16T18:17:45.677Z,,0,,,NaN,,,,,,false,,,,105080.60000002384,105080,,105079.30000001192,,105120.818,8,400,,,
break_continue,html.Screen,4_4_2,2023-09-16T18:17:45.678Z,,0,,,NaN,,,,,,false,,,,105081.5,105081.10000002384,,105080.80000001192,,105120.818,8,400,,,
sequence,flow.Sequence,4_4,2023-09-16T18:17:45.678Z,,0,,,3806.6320000238484,completion,,,,,false,,,,105081.90000003576,105081.10000002384,101224.968,101239.10000002384,101274.468,105120.818,8,400,,,
trial,html.Screen,4_5_0,2023-09-16T18:17:48.705Z,,0,1,,2987.0820000357635,response,ISIC_7489564.JPG,9,ISIC_3281565.JPG,ISIC_7489564.JPG,false,1,keypress(m),500,108108.40000003576,108107.90000003576,105070.865,105082.30000001192,105120.818,108151.093,8,400,6,,ISIC_3281565.JPG
break,html.Screen,4_5_1,2023-09-16T18:17:48.706Z,,0,,,NaN,,,,,,false,,,,108110.19999998808,108109.60000002384,,108108.90000003576,,108151.093,8,400,,,
break_continue,html.Screen,4_5_2,2023-09-16T18:17:48.708Z,,0,,,NaN,,,,,,false,,,,108111.30000001192,108111,,108110.69999998808,,108151.093,8,400,,,
sequence,flow.Sequence,4_5,2023-09-16T18:17:48.708Z,,0,,,2990.1820000000007,completion,,,,,false,,,,108111.90000003576,108111,105070.865,105082.19999998808,105120.818,108151.093,8,400,,,
trial,html.Screen,4_6_0,2023-09-16T18:17:52.250Z,,0,1,,3502.5070000238484,response,ISIC_0034106.JPG,431,ISIC_0015110.JPG,ISIC_0015110.JPG,false,0,keypress(z),500,111654.10000002384,111653.60000002384,108101.321,108112.30000001192,108151.093,111697.721,8,400,7,,ISIC_0034106.JPG
break,html.Screen,4_6_1,2023-09-16T18:17:52.252Z,,0,,,NaN,,,,,,false,,,,111655.69999998808,111655.19999998808,,111654.5,,111697.721,8,400,,,
break_continue,html.Screen,4_6_2,2023-09-16T18:17:52.253Z,,0,,,NaN,,,,,,false,,,,111656.60000002384,111656.40000003576,,111656.10000002384,,111697.721,8,400,,,
sequence,flow.Sequence,4_6,2023-09-16T18:17:52.253Z,,0,,,3505.3070000357693,completion,,,,,false,,,,111657.10000002384,111656.40000003576,108101.321,108112.19999998808,108151.093,111697.721,8,400,,,
trial,html.Screen,4_7_0,2023-09-16T18:17:55.359Z,,0,1,,3064.379000023837,response,ISIC_7693611.JPG,10,ISIC_0062686.JPG,ISIC_0062686.JPG,false,0,keypress(z),500,114762.5,114762.10000002384,111647.799,111657.5,111697.721,114794.676,8,400,8,,ISIC_7693611.JPG
break,html.Screen,4_7_1,2023-09-16T18:17:55.360Z,,0,,,NaN,,,,,,false,,,,114764.19999998808,114763.69999998808,,114762.90000003576,,114794.676,8,400,,,
break_continue,html.Screen,4_7_2,2023-09-16T18:17:55.361Z,,0,,,NaN,,,,,,false,,,,114765.10000002384,114764.80000001192,,114764.5,,114794.676,8,400,,,
sequence,flow.Sequence,4_7,2023-09-16T18:17:55.362Z,,0,,,3067.079000011916,completion,,,,,false,,,,114765.5,114764.80000001192,111647.799,111657.30000001192,111697.721,114794.676,8,400,,,
trial,html.Screen,4_8_0,2023-09-16T18:17:59.889Z,,0,1,,4497.323999999993,response,ISIC_0010514.JPG,776,ISIC_2372468.JPG,ISIC_0010514.JPG,false,1,keypress(m),500,119292.40000003576,119292,114761.298,114765.90000003576,114794.676,119323.588,8,400,9,,ISIC_2372468.JPG
break,html.Screen,4_8_1,2023-09-16T18:17:59.890Z,,0,,,NaN,,,,,,false,,,,119294.19999998808,119293.5,,119292.80000001192,,119323.588,8,400,,,
break_continue,html.Screen,4_8_2,2023-09-16T18:17:59.891Z,,0,,,NaN,,,,,,false,,,,119295.10000002384,119294.80000001192,,119294.40000003576,,119323.588,8,400,,,
sequence,flow.Sequence,4_8,2023-09-16T18:17:59.892Z,,0,,,4500.124000011914,completion,,,,,false,,,,119295.5,119294.80000001192,114761.298,114765.69999998808,114794.676,119323.588,8,400,,,
trial,html.Screen,4_9_0,2023-09-16T18:18:02.903Z,,0,1,,2983.0120000238385,response,ISIC_0616491.JPG,9,ISIC_7898061.JPG,ISIC_7898061.JPG,false,0,keypress(z),500,122307.10000002384,122306.60000002384,119290.285,119295.80000001192,119323.588,122337.501,8,400,10,,ISIC_0616491.JPG
break,html.Screen,4_9_1,2023-09-16T18:18:02.905Z,,0,,,NaN,,,,,,false,,,,122308.80000001192,122308.19999998808,,122307.5,,122337.501,8,400,,,
break_continue,html.Screen,4_9_2,2023-09-16T18:18:02.906Z,,0,,,NaN,,,,,,false,,,,122309.69999998808,122309.40000003576,,122309.10000002384,,122337.501,8,400,,,
sequence,flow.Sequence,4_9,2023-09-16T18:18:02.906Z,,0,,,2985.8120000357594,completion,,,,,false,,,,122310.10000002384,122309.40000003576,119290.285,119295.69999998808,119323.588,122337.501,8,400,,,
trial,html.Screen,4_10_0,2023-09-16T18:18:06.699Z,,0,1,,3764.799000011917,response,ISIC_0031295.JPG,228,ISIC_0028379.JPG,ISIC_0028379.JPG,false,0,keypress(z),500,126102.69999998808,126102.30000001192,122304.137,122310.5,122337.501,126133.617,8,400,11,,ISIC_0031295.JPG
break,html.Screen,4_10_1,2023-09-16T18:18:06.701Z,,0,,,NaN,,,,,,false,,,,126104.5,126103.90000003576,,126103.19999998808,,126133.617,8,400,,,
break_continue,html.Screen,4_10_2,2023-09-16T18:18:06.702Z,,0,,,NaN,,,,,,false,,,,126105.40000003576,126105.10000002384,,126104.80000001192,,126133.617,8,400,,,
sequence,flow.Sequence,4_10,2023-09-16T18:18:06.702Z,,0,,,3767.599000023838,completion,,,,,false,,,,126105.80000001192,126105.10000002384,122304.137,122310.40000003576,122337.501,126133.617,8,400,,,
trial,html.Screen,4_11_0,2023-09-16T18:18:10.029Z,,0,1,,3298.9830000238435,response,ISIC_2969968.JPG,10,ISIC_0000572.JPG,ISIC_2969968.JPG,false,1,keypress(m),500,129433.19999998808,129432.60000002384,126100.211,126106.30000001192,126133.617,129480.263,8,400,12,,ISIC_0000572.JPG
break,html.Screen,4_11_1,2023-09-16T18:18:10.031Z,,0,,,NaN,,,,,,false,,,,129434.80000001192,129434.30000001192,,129433.60000002384,,129480.263,8,400,,,
break_continue,html.Screen,4_11_2,2023-09-16T18:18:10.032Z,,0,,,NaN,,,,,,false,,,,129435.80000001192,129435.40000003576,,129435.10000002384,,129480.263,8,400,,,
sequence,flow.Sequence,4_11,2023-09-16T18:18:10.032Z,,0,,,3301.7830000357644,completion,,,,,false,,,,129436.19999998808,129435.40000003576,126100.211,126106.10000002384,126133.617,129480.263,8,400,,,
trial,html.Screen,4_12_0,2023-09-16T18:18:12.966Z,,0,1,,2888.936999988073,response,ISIC_0027113.JPG,104,ISIC_0059421.JPG,ISIC_0027113.JPG,false,1,keypress(m),500,132369.69999998808,132369.19999998808,129430.407,129436.60000002384,129480.263,132427.451,8,400,13,,ISIC_0059421.JPG
break,html.Screen,4_12_1,2023-09-16T18:18:12.968Z,,0,,,NaN,,,,,,false,,,,132371.40000003576,132370.90000003576,,132370.19999998808,,132427.451,8,400,,,
break_continue,html.Screen,4_12_2,2023-09-16T18:18:12.969Z,,0,,,NaN,,,,,,false,,,,132372.40000003576,132372,,132371.69999998808,,132427.451,8,400,,,
sequence,flow.Sequence,4_12,2023-09-16T18:18:12.969Z,,0,,,2891.7369999999937,completion,,,,,false,,,,132372.80000001192,132372,129430.407,129436.5,129480.263,132427.451,8,400,,,
trial,html.Screen,4_13_0,2023-09-16T18:18:17.637Z,,0,1,,4612.449000035762,response,ISIC_1216201.JPG,10,ISIC_0010164.JPG,ISIC_0010164.JPG,false,0,keypress(z),500,137040.40000003576,137039.90000003576,132394.148,132373.19999998808,132427.451,137089.562,8,400,14,,ISIC_1216201.JPG
break,html.Screen,4_13_1,2023-09-16T18:18:17.638Z,,0,,,NaN,,,,,,false,,,,137042.19999998808,137041.69999998808,,137040.90000003576,,137089.562,8,400,,,
break_continue,html.Screen,4_13_2,2023-09-16T18:18:17.640Z,,0,,,NaN,,,,,,false,,,,137043.30000001192,137043,,137042.60000002384,,137089.562,8,400,,,
sequence,flow.Sequence,4_13,2023-09-16T18:18:17.640Z,,0,,,4615.548999999999,completion,,,,,false,,,,137043.90000003576,137043,132394.148,132373.10000002384,132427.451,137089.562,8,400,,,
trial,html.Screen,4_14_0,2023-09-16T18:18:23.260Z,,0,1,,5573.637999988074,response,ISIC_0011798.JPG,493,ISIC_1497525.JPG,ISIC_1497525.JPG,false,0,keypress(z),500,142663.40000003576,142663.19999998808,137039.92,137044.30000001192,137089.562,142701.427,8,400,15,,ISIC_0011798.JPG
break,html.Screen,4_14_1,2023-09-16T18:18:23.260Z,,0,,,NaN,,,,,,false,,,,142664,142663.80000001192,,142663.60000002384,,142701.427,8,400,,,
break_continue,html.Screen,4_14_2,2023-09-16T18:18:23.261Z,,0,,,NaN,,,,,,false,,,,142664.30000001192,142664.30000001192,,142664.19999998808,,142701.427,8,400,,,
sequence,flow.Sequence,4_14,2023-09-16T18:18:23.261Z,,0,,,5574.738000011916,completion,,,,,false,,,,142664.60000002384,142664.30000001192,137039.92,137044.10000002384,137089.562,142701.427,8,400,,,
trial,html.Screen,4_15_0,2023-09-16T18:18:30.008Z,,0,1,,6709.673000023846,response,ISIC_0026924.JPG,13,ISIC_0056063.JPG,ISIC_0026924.JPG,false,1,keypress(m),500,149411.5,149411.10000002384,142650.781,142664.69999998808,142701.427,149460.786,8,400,16,,ISIC_0056063.JPG
break,html.Screen,4_15_1,2023-09-16T18:18:30.009Z,,0,,,NaN,,,,,,false,,,,149413.30000001192,149412.69999998808,,149412,,149460.786,8,400,,,
break_continue,html.Screen,4_15_2,2023-09-16T18:18:30.010Z,,0,,,NaN,,,,,,false,,,,149414.19999998808,149413.90000003576,,149413.5,,149460.786,8,400,,,
sequence,flow.Sequence,4_15,2023-09-16T18:18:30.011Z,,0,,,6712.473000035767,completion,,,,,false,,,,149414.69999998808,149413.90000003576,142650.781,142664.60000002384,142701.427,149460.786,8,400,,,
trial,html.Screen,4_16_0,2023-09-16T18:18:36.365Z,,0,1,,6307.814000023849,response,ISIC_0009950.JPG,9,ISIC_4011169.JPG,ISIC_4011169.JPG,false,0,keypress(z),500,155769,155768.60000002384,149410.991,149415,149460.786,155795.502,8,400,17,,ISIC_0009950.JPG
break,html.Screen,4_16_1,2023-09-16T18:18:36.367Z,,0,,,NaN,,,,,,false,,,,155770.80000001192,155770.19999998808,,155769.5,,155795.502,8,400,,,
break_continue,html.Screen,4_16_2,2023-09-16T18:18:36.368Z,,0,,,NaN,,,,,,false,,,,155771.69999998808,155771.40000003576,,155771.10000002384,,155795.502,8,400,,,
sequence,flow.Sequence,4_16,2023-09-16T18:18:36.368Z,,0,,,6310.61400003577,completion,,,,,false,,,,155772.19999998808,155771.40000003576,149410.991,149414.90000003576,149460.786,155795.502,8,400,,,
trial,html.Screen,4_17_0,2023-09-16T18:18:41.813Z,,0,1,,5420.598000023834,response,ISIC_1850388.JPG,6,ISIC_3013468.JPG,ISIC_1850388.JPG,false,1,keypress(m),500,161216.60000002384,161216.10000002384,155754.603,155772.5,155795.502,161265.826,8,400,18,,ISIC_3013468.JPG
break,html.Screen,4_17_1,2023-09-16T18:18:41.814Z,,0,,,NaN,,,,,,false,,,,161218.30000001192,161217.69999998808,,161217.10000002384,,161265.826,8,400,,,
break_continue,html.Screen,4_17_2,2023-09-16T18:18:41.815Z,,0,,,NaN,,,,,,false,,,,161219.19999998808,161219,,161218.60000002384,,161265.826,8,400,,,
sequence,flow.Sequence,4_17,2023-09-16T18:18:41.816Z,,0,,,5423.497999999992,completion,,,,,false,,,,161219.69999998808,161219,155754.603,155772.40000003576,155795.502,161265.826,8,400,,,
trial,html.Screen,4_18_0,2023-09-16T18:18:47.280Z,,0,1,,5417.373999988078,response,ISIC_0054048.JPG,9,ISIC_4873045.JPG,ISIC_0054048.JPG,false,1,keypress(m),500,166683.60000002384,166683.19999998808,161215.976,161220.10000002384,161265.826,166727.24,8,400,19,,ISIC_4873045.JPG
break,html.Screen,4_18_1,2023-09-16T18:18:47.281Z,,0,,,NaN,,,,,,false,,,,166685.30000001192,166684.69999998808,,166684.10000002384,,166727.24,8,400,,,
break_continue,html.Screen,4_18_2,2023-09-16T18:18:47.282Z,,0,,,NaN,,,,,,false,,,,166686.19999998808,166685.90000003576,,166685.60000002384,,166727.24,8,400,,,
sequence,flow.Sequence,4_18,2023-09-16T18:18:47.283Z,,0,,,5420.074000035762,completion,,,,,false,,,,166686.60000002384,166685.90000003576,161215.976,161219.90000003576,161265.826,166727.24,8,400,,,
trial,html.Screen,4_19_0,2023-09-16T18:18:49.597Z,,0,1,,2273.860000023851,response,ISIC_0030060.JPG,9,ISIC_0031472.JPG,ISIC_0031472.JPG,false,0,keypress(z),500,169001.30000001192,169001.10000002384,166677.369,166687.10000002384,166727.24,169041.505,8,400,20,,ISIC_0030060.JPG
break,html.Screen,4_19_1,2023-09-16T18:18:49.598Z,,0,,,NaN,,,,,,false,,,,169001.90000003576,169001.80000001192,,169001.40000003576,,169041.505,8,400,,,
break_continue,html.Screen,4_19_2,2023-09-16T18:18:49.598Z,,0,,,NaN,,,,,,false,,,,169002.30000001192,169002.10000002384,,169002,,169041.505,8,400,,,
sequence,flow.Sequence,4_19,2023-09-16T18:18:49.598Z,,0,,,2274.860000023851,completion,,,,,false,,,,169002.40000003576,169002.10000002384,166677.369,166686.90000003576,166727.24,169041.505,8,400,,,
trial,html.Screen,4_20_0,2023-09-16T18:18:56.908Z,,0,1,,7269.694999988074,response,ISIC_6778515.JPG,13,ISIC_2238901.JPG,ISIC_6778515.JPG,false,1,keypress(m),500,176311.80000001192,176311.19999998808,168991.833,169002.5,169041.505,176334.509,8,400,21,,ISIC_2238901.JPG
break,html.Screen,4_20_1,2023-09-16T18:18:56.910Z,,0,,,NaN,,,,,,false,,,,176313.40000003576,176312.90000003576,,176312.19999998808,,176334.509,8,400,,,
break_continue,html.Screen,4_20_2,2023-09-16T18:18:56.910Z,,0,,,NaN,,,,,,false,,,,176314.40000003576,176314.10000002384,,176313.69999998808,,176334.509,8,400,,,
sequence,flow.Sequence,4_20,2023-09-16T18:18:56.911Z,,0,,,7272.595000023837,completion,,,,,false,,,,176314.80000001192,176314.10000002384,168991.833,169002.5,169041.505,176334.509,8,400,,,
trial,html.Screen,4_21_0,2023-09-16T18:19:03.578Z,,0,1,,6646.491000000009,response,ISIC_0067549.JPG,9,ISIC_9050826.JPG,ISIC_9050826.JPG,false,0,keypress(z),500,182981.5,182981,176301.201,176315.19999998808,176334.509,183011.405,8,400,22,,ISIC_0067549.JPG
break,html.Screen,4_21_1,2023-09-16T18:19:03.579Z,,0,,,NaN,,,,,,false,,,,182983.10000002384,182982.60000002384,,182981.90000003576,,183011.405,8,400,,,
break_continue,html.Screen,4_21_2,2023-09-16T18:19:03.580Z,,0,,,NaN,,,,,,false,,,,182984.19999998808,182984,,182983.60000002384,,183011.405,8,400,,,
sequence,flow.Sequence,4_21,2023-09-16T18:19:03.581Z,,0,,,6649.491000000009,completion,,,,,false,,,,182984.90000003576,182984,176301.201,176315.10000002384,176334.509,183011.405,8,400,,,
trial,html.Screen,4_22_0,2023-09-16T18:19:05.748Z,,0,1,,2140.595000000001,response,ISIC_8389839.JPG,9,ISIC_3179296.JPG,ISIC_3179296.JPG,false,0,keypress(z),500,185152.40000003576,185152,182978.026,182985.30000001192,183011.405,185175.959,8,400,23,,ISIC_8389839.JPG
break,html.Screen,4_22_1,2023-09-16T18:19:05.749Z,,0,,,NaN,,,,,,false,,,,185153,185152.80000001192,,185152.5,,185175.959,8,400,,,
break_continue,html.Screen,4_22_2,2023-09-16T18:19:05.749Z,,0,,,NaN,,,,,,false,,,,185153.30000001192,185153.19999998808,,185153.10000002384,,185175.959,8,400,,,
sequence,flow.Sequence,4_22,2023-09-16T18:19:05.750Z,,0,,,2141.7949999880802,completion,,,,,false,,,,185153.40000003576,185153.19999998808,182978.026,182985.19999998808,183011.405,185175.959,8,400,,,
trial,html.Screen,4_23_0,2023-09-16T18:19:11.747Z,,0,1,,5974.2409999880765,response,ISIC_3253098.JPG,13,ISIC_0000030.JPG,ISIC_0000030.JPG,false,0,keypress(z),500,191150.69999998808,191150.19999998808,185142.524,185153.60000002384,185175.959,191177.471,8,400,24,,ISIC_3253098.JPG
break,html.Screen,4_23_1,2023-09-16T18:19:11.749Z,,0,,,NaN,,,,,,false,,,,191152.40000003576,191151.90000003576,,191151.19999998808,,191177.471,8,400,,,
break_continue,html.Screen,4_23_2,2023-09-16T18:19:11.750Z,,0,,,NaN,,,,,,false,,,,191153.60000002384,191153.40000003576,,191152.90000003576,,191177.471,8,400,,,
sequence,flow.Sequence,4_23,2023-09-16T18:19:11.750Z,,0,,,5977.44100003576,completion,,,,,false,,,,191154.19999998808,191153.40000003576,185142.524,185153.60000002384,185175.959,191177.471,8,400,,,
trial,html.Screen,4_24_0,2023-09-16T18:19:18.632Z,,0,1,,6857.728999988089,response,ISIC_3009564.JPG,6,ISIC_0000186.JPG,ISIC_3009564.JPG,false,1,keypress(m),500,198035.69999998808,198035.19999998808,191136.789,191154.60000002384,191177.471,198080.141,8,400,25,,ISIC_0000186.JPG
break,html.Screen,4_24_1,2023-09-16T18:19:18.633Z,,0,,,NaN,,,,,,false,,,,198037.40000003576,198036.80000001192,,198036.10000002384,,198080.141,8,400,,,
break_continue,html.Screen,4_24_2,2023-09-16T18:19:18.634Z,,0,,,NaN,,,,,,false,,,,198038.30000001192,198038,,198037.69999998808,,198080.141,8,400,,,
sequence,flow.Sequence,4_24,2023-09-16T18:19:18.635Z,,0,,,6860.52900000001,completion,,,,,false,,,,198038.80000001192,198038,191136.789,191154.5,191177.471,198080.141,8,400,,,
trial,html.Screen,4_25_0,2023-09-16T18:19:25.396Z,,0,1,,6718.659000011918,response,ISIC_0027956.JPG,9,ISIC_1962845.JPG,ISIC_0027956.JPG,false,1,keypress(m),500,204799.5,204798.80000001192,198030.109,198039.10000002384,198080.141,204823.305,8,400,26,,ISIC_1962845.JPG
break,html.Screen,4_25_1,2023-09-16T18:19:25.397Z,,0,,,NaN,,,,,,false,,,,204801.30000001192,204800.90000003576,,204800.10000002384,,204823.305,8,400,,,
break_continue,html.Screen,4_25_2,2023-09-16T18:19:25.398Z,,0,,,NaN,,,,,,false,,,,204802.30000001192,204802,,204801.69999998808,,204823.305,8,400,,,
sequence,flow.Sequence,4_25,2023-09-16T18:19:25.399Z,,0,,,6721.858999999997,completion,,,,,false,,,,204802.69999998808,204802,198030.109,198039,198080.141,204823.305,8,400,,,
trial,html.Screen,4_26_0,2023-09-16T18:19:31.597Z,,0,1,,6176.495000011928,response,ISIC_0030072.JPG,9,ISIC_0014695.JPG,ISIC_0014695.JPG,false,0,keypress(z),500,211000.60000002384,210999.80000001192,204789.968,204803.10000002384,204823.305,211050.421,8,400,27,,ISIC_0030072.JPG
break,html.Screen,4_26_1,2023-09-16T18:19:31.599Z,,0,,,NaN,,,,,,false,,,,211002.40000003576,211001.90000003576,,211001.19999998808,,211050.421,8,400,,,
break_continue,html.Screen,4_26_2,2023-09-16T18:19:31.600Z,,0,,,NaN,,,,,,false,,,,211003.40000003576,211003.19999998808,,211002.80000001192,,211050.421,8,400,,,
sequence,flow.Sequence,4_26,2023-09-16T18:19:31.600Z,,0,,,6179.894999988086,completion,,,,,false,,,,211004,211003.19999998808,204789.968,204803.10000002384,204823.305,211050.421,8,400,,,
trial,html.Screen,4_27_0,2023-09-16T18:19:38.048Z,,0,1,,6400.578999999998,response,ISIC_4938791.JPG,9,ISIC_0929517.JPG,ISIC_4938791.JPG,false,1,keypress(m),500,217451.5,217451,211000.614,211004.40000003576,211050.421,217494.139,8,400,28,,ISIC_0929517.JPG
break,html.Screen,4_27_1,2023-09-16T18:19:38.049Z,,0,,,NaN,,,,,,false,,,,217453.19999998808,217452.69999998808,,217452,,217494.139,8,400,,,
break_continue,html.Screen,4_27_2,2023-09-16T18:19:38.050Z,,0,,,NaN,,,,,,false,,,,217454.10000002384,217453.90000003576,,217453.60000002384,,217494.139,8,400,,,
sequence,flow.Sequence,4_27,2023-09-16T18:19:38.051Z,,0,,,6403.479000035761,completion,,,,,false,,,,217454.69999998808,217453.90000003576,211000.614,211004.19999998808,211050.421,217494.139,8,400,,,
trial,html.Screen,4_28_0,2023-09-16T18:19:46.405Z,,0,1,,8313.861000000004,response,ISIC_0014103.JPG,9,ISIC_0026398.JPG,ISIC_0014103.JPG,false,1,keypress(m),500,225808.60000002384,225808,217444.417,217455,217494.139,225852.638,8,400,29,,ISIC_0026398.JPG
break,html.Screen,4_28_1,2023-09-16T18:19:46.406Z,,0,,,NaN,,,,,,false,,,,225810.40000003576,225809.80000001192,,225809.10000002384,,225852.638,8,400,,,
break_continue,html.Screen,4_28_2,2023-09-16T18:19:46.408Z,,0,,,NaN,,,,,,false,,,,225811.60000002384,225811.19999998808,,225810.80000001192,,225852.638,8,400,,,
sequence,flow.Sequence,4_28,2023-09-16T18:19:46.408Z,,0,,,8317.060999988083,completion,,,,,false,,,,225812.30000001192,225811.19999998808,217444.417,217454.90000003576,217494.139,225852.638,8,400,,,
trial,html.Screen,4_29_0,2023-09-16T18:19:54.121Z,,0,1,,7672.162000011915,response,ISIC_0026759.JPG,8,ISIC_0231745.JPG,ISIC_0231745.JPG,false,0,keypress(z),500,233525.19999998808,233524.80000001192,225802.913,225812.90000003576,225852.638,233545.215,8,400,30,,ISIC_0026759.JPG
break,html.Screen,4_29_1,2023-09-16T18:19:54.123Z,,0,,,NaN,,,,,,false,,,,233526.90000003576,233526.40000003576,,233525.69999998808,,233545.215,8,400,,,
break_continue,html.Screen,4_29_2,2023-09-16T18:19:54.124Z,,0,,,NaN,,,,,,false,,,,233528,233527.60000002384,,233527.30000001192,,233545.215,8,400,,,
sequence,flow.Sequence,4_29,2023-09-16T18:19:54.125Z,,0,,,7674.962000023836,completion,,,,,false,,,,233528.40000003576,233527.60000002384,225802.913,225812.69999998808,225852.638,233545.215,8,400,,,
trial,html.Screen,4_30_0,2023-09-16T18:20:04.821Z,,0,1,,10679.585000011924,response,ISIC_9792592.JPG,9,ISIC_7167811.JPG,ISIC_7167811.JPG,false,0,keypress(z),500,244225.19999998808,244224.80000001192,233511.899,233528.80000001192,233545.215,244268.052,8,400,31,,ISIC_9792592.JPG
break,html.Screen,4_30_1,2023-09-16T18:20:04.823Z,,0,,,NaN,,,,,,false,,,,244227,244226.5,,244225.69999998808,,244268.052,8,400,,,
break_continue,html.Screen,4_30_2,2023-09-16T18:20:04.824Z,,0,,,NaN,,,,,,false,,,,244227.90000003576,244227.60000002384,,244227.30000001192,,244268.052,8,400,,,
sequence,flow.Sequence,4_30,2023-09-16T18:20:04.825Z,,0,,,10682.385000023845,completion,,,,,false,,,,244228.30000001192,244227.60000002384,233511.899,233528.69999998808,233545.215,244268.052,8,400,,,
trial,html.Screen,4_31_0,2023-09-16T18:20:10.070Z,,0,1,,5205.048000023846,response,ISIC_0015206.JPG,10,ISIC_0014469.JPG,ISIC_0015206.JPG,false,1,keypress(m),500,249473.60000002384,249473.10000002384,244218.207,244228.69999998808,244268.052,249496.383,8,400,32,,ISIC_0014469.JPG
break,html.Screen,4_31_1,2023-09-16T18:20:10.072Z,,0,,,NaN,,,,,,false,,,,249475.5,249474.80000001192,,249474,,249496.383,8,400,,,
break_continue,html.Screen,4_31_2,2023-09-16T18:20:10.073Z,,0,,,NaN,,,,,,false,,,,249476.5,249476.19999998808,,249475.90000003576,,249496.383,8,400,,,
sequence,flow.Sequence,4_31,2023-09-16T18:20:10.073Z,,0,,,5208.147999988083,completion,,,,,false,,,,249477,249476.19999998808,244218.207,244228.69999998808,244268.052,249496.383,8,400,,,
trial,html.Screen,4_32_0,2023-09-16T18:20:17.645Z,,0,1,,7552.417000011919,response,ISIC_6486856.JPG,9,ISIC_9469284.JPG,ISIC_6486856.JPG,false,1,keypress(m),500,257049.30000001192,257048.80000001192,249462.941,249477.5,249496.383,257088.786,8,400,33,,ISIC_9469284.JPG
break,html.Screen,4_32_1,2023-09-16T18:20:17.647Z,,0,,,NaN,,,,,,false,,,,257051.30000001192,257050.60000002384,,257049.90000003576,,257088.786,8,400,,,
break_continue,html.Screen,4_32_2,2023-09-16T18:20:17.649Z,,0,,,NaN,,,,,,false,,,,257052.40000003576,257052.10000002384,,257051.69999998808,,257088.786,8,400,,,
sequence,flow.Sequence,4_32,2023-09-16T18:20:17.649Z,,0,,,7555.71700002384,completion,,,,,false,,,,257052.90000003576,257052.10000002384,249462.941,249477.30000001192,249496.383,257088.786,8,400,,,
trial,html.Screen,4_33_0,2023-09-16T18:20:26.033Z,,0,1,,8348.014000011928,response,ISIC_0029112.JPG,9,ISIC_1964243.JPG,ISIC_0029112.JPG,false,1,keypress(m),500,265437.3000000119,265436.8000000119,257039.136,257053.30000001192,257088.786,265480.645,8,400,34,,ISIC_1964243.JPG
break,html.Screen,4_33_1,2023-09-16T18:20:26.035Z,,0,,,NaN,,,,,,false,,,,265439.10000002384,265438.5,,265437.8000000119,,265480.645,8,400,,,
break_continue,html.Screen,4_33_2,2023-09-16T18:20:26.036Z,,0,,,NaN,,,,,,false,,,,265440.10000002384,265439.6999999881,,265439.40000003576,,265480.645,8,400,,,
sequence,flow.Sequence,4_33,2023-09-16T18:20:26.037Z,,0,,,8350.913999988086,completion,,,,,false,,,,265440.8000000119,265439.6999999881,257039.136,257053.19999998808,257088.786,265480.645,8,400,,,
trial,html.Screen,4_34_0,2023-09-16T18:20:33.687Z,,0,1,,7609.955000023823,response,ISIC_0268701.JPG,9,ISIC_0030653.JPG,ISIC_0268701.JPG,false,1,keypress(m),500,273091.10000002384,273090.60000002384,265430.852,265441.1999999881,265480.645,273139.821,8,400,35,,ISIC_0030653.JPG
break,html.Screen,4_34_1,2023-09-16T18:20:33.689Z,,0,,,NaN,,,,,,false,,,,273092.8000000119,273092.3000000119,,273091.60000002384,,273139.821,8,400,,,
break_continue,html.Screen,4_34_2,2023-09-16T18:20:33.690Z,,0,,,NaN,,,,,,false,,,,273093.8000000119,273093.40000003576,,273093.10000002384,,273139.821,8,400,,,
sequence,flow.Sequence,4_34,2023-09-16T18:20:33.690Z,,0,,,7612.755000035744,completion,,,,,false,,,,273094.1999999881,273093.40000003576,265430.852,265441,265480.645,273139.821,8,400,,,
trial,html.Screen,4_35_0,2023-09-16T18:20:41.232Z,,0,1,,7495.279000023846,response,ISIC_1708591.JPG,10,ISIC_0057997.JPG,ISIC_0057997.JPG,false,0,keypress(z),500,280635.60000002384,280635.10000002384,273090.076,273094.5,273139.821,280682.347,8,400,36,,ISIC_1708591.JPG
break,html.Screen,4_35_1,2023-09-16T18:20:41.234Z,,0,,,NaN,,,,,,false,,,,280637.6999999881,280637.10000002384,,280636.10000002384,,280682.347,8,400,,,
break_continue,html.Screen,4_35_2,2023-09-16T18:20:41.235Z,,0,,,NaN,,,,,,false,,,,280639.1999999881,280638.6999999881,,280638.10000002384,,280682.347,8,400,,,
sequence,flow.Sequence,4_35,2023-09-16T18:20:41.236Z,,0,,,7498.878999988083,completion,,,,,false,,,,280639.6999999881,280638.6999999881,273090.076,273094.40000003576,273139.821,280682.347,8,400,,,
trial,html.Screen,4_36_0,2023-09-16T18:20:50.447Z,,0,1,,9168.453000011912,response,ISIC_5526879.JPG,8,ISIC_2075546.JPG,ISIC_2075546.JPG,false,0,keypress(z),500,289851.3000000119,289850.8000000119,280632.716,280640.10000002384,280682.347,289892.391,8,400,37,,ISIC_5526879.JPG
break,html.Screen,4_36_1,2023-09-16T18:20:50.449Z,,0,,,NaN,,,,,,false,,,,289853,289852.5,,289851.6999999881,,289892.391,8,400,,,
break_continue,html.Screen,4_36_2,2023-09-16T18:20:50.450Z,,0,,,NaN,,,,,,false,,,,289853.90000003576,289853.60000002384,,289853.3000000119,,289892.391,8,400,,,
sequence,flow.Sequence,4_36,2023-09-16T18:20:50.451Z,,0,,,9171.253000023833,completion,,,,,false,,,,289854.5,289853.60000002384,280632.716,280640,280682.347,289892.391,8,400,,,
trial,html.Screen,4_37_0,2023-09-16T18:20:59.866Z,,0,1,,9377.308999988076,response,ISIC_0010289.JPG,10,ISIC_0011862.JPG,ISIC_0010289.JPG,false,1,keypress(m),500,299270.1999999881,299269.6999999881,289840.39,289854.90000003576,289892.391,299314.221,8,400,38,,ISIC_0011862.JPG
break,html.Screen,4_37_1,2023-09-16T18:20:59.868Z,,0,,,NaN,,,,,,false,,,,299272.10000002384,299271.5,,299270.6999999881,,299314.221,8,400,,,
break_continue,html.Screen,4_37_2,2023-09-16T18:20:59.869Z,,0,,,NaN,,,,,,false,,,,299273,299272.8000000119,,299272.40000003576,,299314.221,8,400,,,
sequence,flow.Sequence,4_37,2023-09-16T18:20:59.870Z,,0,,,9380.409000011918,completion,,,,,false,,,,299273.5,299272.8000000119,289840.39,289854.8000000119,289892.391,299314.221,8,400,,,
trial,html.Screen,4_38_0,2023-09-16T18:21:06.740Z,,0,1,,6829.179000035743,response,ISIC_9542544.JPG,9,ISIC_1608727.JPG,ISIC_9542544.JPG,false,1,keypress(m),500,306143.90000003576,306143.40000003576,299264.418,299273.90000003576,299314.221,306190.829,8,400,39,,ISIC_1608727.JPG
break,html.Screen,4_38_1,2023-09-16T18:21:06.742Z,,0,,,NaN,,,,,,false,,,,306145.8000000119,306145.1999999881,,306144.40000003576,,306190.829,8,400,,,
break_continue,html.Screen,4_38_2,2023-09-16T18:21:06.743Z,,0,,,NaN,,,,,,false,,,,306146.90000003576,306146.5,,306146.1999999881,,306190.829,8,400,,,
sequence,flow.Sequence,4_38,2023-09-16T18:21:06.744Z,,0,,,6832.27899999998,completion,,,,,false,,,,306147.5,306146.5,299264.418,299273.8000000119,299314.221,306190.829,8,400,,,
trial,html.Screen,4_39_0,2023-09-16T18:21:12.082Z,,0,1,,5294.571000035736,response,ISIC_0030747.JPG,9,ISIC_0056316.JPG,ISIC_0056316.JPG,false,0,keypress(z),500,311486,311485.40000003576,306141.167,306147.90000003576,306190.829,311535.603,8,400,40,,ISIC_0030747.JPG
break,html.Screen,4_39_1,2023-09-16T18:21:12.084Z,,0,,,NaN,,,,,,false,,,,311487.6999999881,311487.10000002384,,311486.40000003576,,311535.603,8,400,,,
break_continue,html.Screen,4_39_2,2023-09-16T18:21:12.085Z,,0,,,NaN,,,,,,false,,,,311488.60000002384,311488.3000000119,,311488,,311535.603,8,400,,,
sequence,flow.Sequence,4_39,2023-09-16T18:21:12.085Z,,0,,,5297.471000011894,completion,,,,,false,,,,311489.1999999881,311488.3000000119,306141.167,306147.8000000119,306190.829,311535.603,8,400,,,
trial,html.Screen,4_40_0,2023-09-16T18:21:18.127Z,,0,1,,5995.29700003576,response,ISIC_0062740.JPG,10,ISIC_8355446.JPG,ISIC_8355446.JPG,false,0,keypress(z),500,317531.3000000119,317530.90000003576,311485.75,311489.60000002384,311535.603,317563.038,8,400,41,,ISIC_0062740.JPG
break,html.Screen,4_40_1,2023-09-16T18:21:18.130Z,,0,,,NaN,,,,,,false,,,,317534,317533.5,,317532.3000000119,,317563.038,8,400,,,
break_continue,html.Screen,4_40_2,2023-09-16T18:21:18.131Z,,0,,,NaN,,,,,,false,,,,317535.10000002384,317534.8000000119,,317534.3000000119,,317563.038,8,400,,,
sequence,flow.Sequence,4_40,2023-09-16T18:21:18.132Z,,0,,,5999.197000011918,completion,,,,,false,,,,317535.60000002384,317534.8000000119,311485.75,311489.40000003576,311535.603,317563.038,8,400,,,
trial,html.Screen,4_41_0,2023-09-16T18:21:26.141Z,,0,1,,7981.4619999999995,response,ISIC_1988335.JPG,8,ISIC_0013626.JPG,ISIC_0013626.JPG,false,0,keypress(z),500,325545.10000002384,325544.5,317529.703,317536,317563.038,325588.521,8,400,42,,ISIC_1988335.JPG
break,html.Screen,4_41_1,2023-09-16T18:21:26.143Z,,0,,,NaN,,,,,,false,,,,325546.90000003576,325546.1999999881,,325545.5,,325588.521,8,400,,,
break_continue,html.Screen,4_41_2,2023-09-16T18:21:26.144Z,,0,,,NaN,,,,,,false,,,,325547.6999999881,325547.40000003576,,325547.1999999881,,325588.521,8,400,,,
sequence,flow.Sequence,4_41,2023-09-16T18:21:26.144Z,,0,,,7984.362000035762,completion,,,,,false,,,,325548.1999999881,325547.40000003576,317529.703,317535.90000003576,317563.038,325588.521,8,400,,,
trial,html.Screen,4_42_0,2023-09-16T18:21:33.061Z,,0,1,,6875.678999988071,response,ISIC_3384884.JPG,10,ISIC_0034256.JPG,ISIC_0034256.JPG,false,0,keypress(z),500,332464.8000000119,332464.1999999881,325538.588,325548.60000002384,325588.521,332514.984,8,400,43,,ISIC_3384884.JPG
break,html.Screen,4_42_1,2023-09-16T18:21:33.063Z,,0,,,NaN,,,,,,false,,,,332466.5,332465.90000003576,,332465.3000000119,,332514.984,8,400,,,
break_continue,html.Screen,4_42_2,2023-09-16T18:21:33.064Z,,0,,,NaN,,,,,,false,,,,332467.40000003576,332467.10000002384,,332466.8000000119,,332514.984,8,400,,,
sequence,flow.Sequence,4_42,2023-09-16T18:21:33.064Z,,0,,,6878.579000023834,completion,,,,,false,,,,332467.90000003576,332467.10000002384,325538.588,325548.5,325588.521,332514.984,8,400,,,
trial,html.Screen,4_43_0,2023-09-16T18:21:38.958Z,,0,1,,5846.816000011924,response,ISIC_0058224.JPG,13,ISIC_0010476.JPG,ISIC_0058224.JPG,false,1,keypress(m),500,338362.3000000119,338361.8000000119,332465.092,332468.1999999881,332514.984,338392.852,8,400,44,,ISIC_0010476.JPG
break,html.Screen,4_43_1,2023-09-16T18:21:38.960Z,,0,,,NaN,,,,,,false,,,,338364,338363.5,,338362.8000000119,,338392.852,8,400,,,
break_continue,html.Screen,4_43_2,2023-09-16T18:21:38.961Z,,0,,,NaN,,,,,,false,,,,338364.90000003576,338364.60000002384,,338364.3000000119,,338392.852,8,400,,,
sequence,flow.Sequence,4_43,2023-09-16T18:21:38.962Z,,0,,,5849.616000023845,completion,,,,,false,,,,338365.40000003576,338364.60000002384,332465.092,332468.1999999881,332514.984,338392.852,8,400,,,
trial,html.Screen,4_44_0,2023-09-16T18:21:50.642Z,,0,1,,11688.379000000015,timeout,ISIC_1251811.JPG,10,ISIC_0027265.JPG,,false,,,500,350046.3000000119,350045.6999999881,338359.355,338365.6999999881,338392.852,350081.231,8,400,45,,
break,html.Screen,4_44_1,2023-09-16T18:21:50.644Z,,0,,,NaN,,,,,,false,,,,350048.10000002384,350047.5,,350046.6999999881,,350081.231,8,400,,,
break_continue,html.Screen,4_44_2,2023-09-16T18:21:50.645Z,,0,,,NaN,,,,,,false,,,,350049.1999999881,350048.90000003576,,350048.60000002384,,350081.231,8,400,,,
sequence,flow.Sequence,4_44,2023-09-16T18:21:50.646Z,,0,,,11656.04800003575,completion,,,,,false,,,,350049.6999999881,350048.90000003576,338359.355,338365.60000002384,338392.852,350081.231,8,400,,,
trial,html.Screen,4_45_0,2023-09-16T18:21:53.917Z,,0,1,,3239.569000011892,response,ISIC_6247668.JPG,488,ISIC_9263990.JPG,ISIC_9263990.JPG,false,0,keypress(z),500,353321.3000000119,353320.8000000119,350033.825,350050.10000002384,350081.231,353361.279,8,400,46,,ISIC_6247668.JPG
break,html.Screen,4_45_1,2023-09-16T18:21:53.919Z,,0,,,NaN,,,,,,false,,,,353323.10000002384,353322.5,,353321.6999999881,,353361.279,8,400,,,
break_continue,html.Screen,4_45_2,2023-09-16T18:21:53.920Z,,0,,,NaN,,,,,,false,,,,353324,353323.6999999881,,353323.40000003576,,353361.279,8,400,,,
sequence,flow.Sequence,4_45,2023-09-16T18:21:53.921Z,,0,,,3242.46899998805,completion,,,,,false,,,,353324.5,353323.6999999881,350033.825,350049.90000003576,350081.231,353361.279,8,400,,,
trial,html.Screen,4_46_0,2023-09-16T18:21:58.182Z,,0,1,,4223.821000023861,response,ISIC_6180870.JPG,9,ISIC_8759207.JPG,ISIC_6180870.JPG,false,1,keypress(m),500,357585.60000002384,357585.10000002384,353311.424,353325,353361.279,357607.205,8,400,47,,ISIC_8759207.JPG
break,html.Screen,4_46_1,2023-09-16T18:21:58.183Z,,0,,,NaN,,,,,,false,,,,357587.3000000119,357586.6999999881,,357586.10000002384,,357607.205,8,400,,,
break_continue,html.Screen,4_46_2,2023-09-16T18:21:58.184Z,,0,,,NaN,,,,,,false,,,,357588.1999999881,357587.90000003576,,357587.60000002384,,357607.205,8,400,,,
sequence,flow.Sequence,4_46,2023-09-16T18:21:58.185Z,,0,,,4226.621000035782,completion,,,,,false,,,,357588.6999999881,357587.90000003576,353311.424,353324.8000000119,353361.279,357607.205,8,400,,,
trial,html.Screen,4_47_0,2023-09-16T18:22:04.527Z,,0,1,,6323.494999988063,response,ISIC_0046642.JPG,950,ISIC_5194331.JPG,ISIC_0046642.JPG,false,1,keypress(m),500,363931.1999999881,363930.6999999881,357573.832,357589,357607.205,363967.612,8,400,48,,ISIC_5194331.JPG
break,html.Screen,4_47_1,2023-09-16T18:22:04.529Z,,0,,,NaN,,,,,,false,,,,363932.90000003576,363932.40000003576,,363931.6999999881,,363967.612,8,400,,,
break_continue,html.Screen,4_47_2,2023-09-16T18:22:04.530Z,,0,,,NaN,,,,,,false,,,,363933.90000003576,363933.5,,363933.1999999881,,363967.612,8,400,,,
sequence,flow.Sequence,4_47,2023-09-16T18:22:04.531Z,,0,,,6326.294999999984,completion,,,,,false,,,,363934.60000002384,363933.5,357573.832,357588.90000003576,357607.205,363967.612,8,400,,,
trial,html.Screen,4_48_0,2023-09-16T18:22:08.745Z,,0,1,,4180.387999999977,response,ISIC_0029189.JPG,9,ISIC_5960765.JPG,ISIC_5960765.JPG,false,0,keypress(z),500,368148.60000002384,368148,363917.791,363935,363967.612,368196.845,8,400,49,,ISIC_0029189.JPG
break,html.Screen,4_48_1,2023-09-16T18:22:08.747Z,,0,,,NaN,,,,,,false,,,,368150.5,368150,,368149.3000000119,,368196.845,8,400,,,
break_continue,html.Screen,4_48_2,2023-09-16T18:22:08.748Z,,0,,,NaN,,,,,,false,,,,368151.60000002384,368151.3000000119,,368151,,368196.845,8,400,,,
sequence,flow.Sequence,4_48,2023-09-16T18:22:08.748Z,,0,,,4183.688000011898,completion,,,,,false,,,,368152.10000002384,368151.3000000119,363917.791,363934.90000003576,363967.612,368196.845,8,400,,,
trial,html.Screen,4_49_0,2023-09-16T18:22:14.712Z,,0,1,,5918.155000000028,response,ISIC_1974281.JPG,384,ISIC_5415761.JPG,ISIC_5415761.JPG,false,0,keypress(z),500,374115.5,374115,368146.912,368152.5,368196.845,374157.683,8,400,50,,ISIC_1974281.JPG
break,html.Screen,4_49_1,2023-09-16T18:22:24.729Z,,0,,,10006.975999999966,timeout,,,,,false,,,,384132.90000003576,384131.262,374107.737,374116,374157.683,384164.659,8,400,,,
break_continue,html.Screen,4_49_2,2023-09-16T18:22:26.061Z,,0,,,1273.2410000357777,response,,,,,false,continue,keypress(Space),,385465.10000002384,385437.90000003576,384131.262,384133.3000000119,384164.659,385496.935,8,400,,,
sequence,flow.Sequence,4_49,2023-09-16T18:22:26.062Z,,0,,,17241.05500003579,completion,,,,,false,,,,385465.60000002384,385437.90000003576,368146.912,368152.3000000119,368196.845,385496.935,8,400,,,
trial,html.Screen,4_50_0,2023-09-16T18:22:30.519Z,,0,2,,4425.465000035765,response,ISIC_0010034.JPG,2,ISIC_0030760.JPG,ISIC_0030760.JPG,false,0,keypress(z),500,389922.90000003576,389922.40000003576,385463.488,385466.10000002384,385496.935,389958.785,8,400,1,,ISIC_0010034.JPG
break,html.Screen,4_50_1,2023-09-16T18:22:30.521Z,,0,,,NaN,,,,,,false,,,,389924.5,389924.10000002384,,389923.3000000119,,389958.785,8,400,,,
break_continue,html.Screen,4_50_2,2023-09-16T18:22:30.522Z,,0,,,NaN,,,,,,false,,,,389925.5,389925.10000002384,,389924.90000003576,,389958.785,8,400,,,
sequence,flow.Sequence,4_50,2023-09-16T18:22:30.522Z,,0,,,4428.165000023844,completion,,,,,false,,,,389926,389925.10000002384,385463.488,385465.90000003576,385496.935,389958.785,8,400,,,
trial,html.Screen,4_51_0,2023-09-16T18:22:35.227Z,,0,2,,4671.615000035788,response,ISIC_5240648.JPG,619,ISIC_2714907.JPG,ISIC_2714907.JPG,false,0,keypress(z),500,394630.90000003576,394630.40000003576,389908.96,389926.40000003576,389958.785,394671.319,8,400,2,,ISIC_5240648.JPG
break,html.Screen,4_51_1,2023-09-16T18:22:35.229Z,,0,,,NaN,,,,,,false,,,,394632.60000002384,394632.10000002384,,394631.40000003576,,394671.319,8,400,,,
break_continue,html.Screen,4_51_2,2023-09-16T18:22:35.230Z,,0,,,NaN,,,,,,false,,,,394633.5,394633.1999999881,,394632.90000003576,,394671.319,8,400,,,
sequence,flow.Sequence,4_51,2023-09-16T18:22:35.230Z,,0,,,4674.414999988105,completion,,,,,false,,,,394633.90000003576,394633.1999999881,389908.96,389926.1999999881,389958.785,394671.319,8,400,,,
trial,html.Screen,4_52_0,2023-09-16T18:22:39.712Z,,0,2,,4441.981000011903,response,ISIC_1733794.JPG,10,ISIC_0009488.JPG,ISIC_0009488.JPG,false,0,keypress(z),500,399115.6999999881,399113.3000000119,394621.046,394634.3000000119,394671.319,399149.935,8,400,3,,ISIC_1733794.JPG
break,html.Screen,4_52_1,2023-09-16T18:22:39.714Z,,0,,,NaN,,,,,,false,,,,399117.5,399116.90000003576,,399116.1999999881,,399149.935,8,400,,,
break_continue,html.Screen,4_52_2,2023-09-16T18:22:39.715Z,,0,,,NaN,,,,,,false,,,,399118.5,399118.10000002384,,399117.8000000119,,399149.935,8,400,,,
sequence,flow.Sequence,4_52,2023-09-16T18:22:39.715Z,,0,,,4446.781000023824,completion,,,,,false,,,,399119.10000002384,399118.10000002384,394621.046,394634.1999999881,394671.319,399149.935,8,400,,,
trial,html.Screen,4_53_0,2023-09-16T18:22:46.270Z,,0,2,,6523.764999988081,response,ISIC_0064694.JPG,429,ISIC_0014629.JPG,ISIC_0014629.JPG,false,0,keypress(z),500,405674.3000000119,405673.6999999881,399116.615,399119.5,399149.935,405701.018,8,400,4,,ISIC_0064694.JPG
break,html.Screen,4_53_1,2023-09-16T18:22:46.272Z,,0,,,NaN,,,,,,false,,,,405676.10000002384,405675.5,,405674.8000000119,,405701.018,8,400,,,
break_continue,html.Screen,4_53_2,2023-09-16T18:22:46.273Z,,0,,,NaN,,,,,,false,,,,405677.1999999881,405676.8000000119,,405676.40000003576,,405701.018,8,400,,,
sequence,flow.Sequence,4_53,2023-09-16T18:22:46.274Z,,0,,,6526.865000011923,completion,,,,,false,,,,405677.8000000119,405676.8000000119,399116.615,399119.40000003576,399149.935,405701.018,8,400,,,
trial,html.Screen,4_54_0,2023-09-16T18:22:51.656Z,,0,2,,5358.482000000018,response,ISIC_6899527.JPG,6,ISIC_0071707.JPG,ISIC_0071707.JPG,false,0,keypress(z),500,411059.90000003576,411059.5,405660.246,405678.1999999881,405701.018,411088.334,8,400,5,,ISIC_6899527.JPG
break,html.Screen,4_54_1,2023-09-16T18:22:51.658Z,,0,,,NaN,,,,,,false,,,,411061.6999999881,411061.10000002384,,411060.40000003576,,411088.334,8,400,,,
break_continue,html.Screen,4_54_2,2023-09-16T18:22:51.659Z,,0,,,NaN,,,,,,false,,,,411062.60000002384,411062.3000000119,,411062,,411088.334,8,400,,,
sequence,flow.Sequence,4_54,2023-09-16T18:22:51.659Z,,0,,,5361.282000011939,completion,,,,,false,,,,411063,411062.3000000119,405660.246,405678.1999999881,405701.018,411088.334,8,400,,,
trial,html.Screen,4_55_0,2023-09-16T18:22:56.796Z,,0,2,,5110.566000035789,response,ISIC_0000411.JPG,10,ISIC_0033526.JPG,ISIC_0000411.JPG,false,1,keypress(m),500,416199.60000002384,416198.90000003576,411054.952,411063.40000003576,411088.334,416233.255,8,400,6,,ISIC_0033526.JPG
break,html.Screen,4_55_1,2023-09-16T18:22:56.798Z,,0,,,NaN,,,,,,false,,,,416201.5,416201,,416200.3000000119,,416233.255,8,400,,,
break_continue,html.Screen,4_55_2,2023-09-16T18:22:56.799Z,,0,,,NaN,,,,,,false,,,,416202.40000003576,416202.1999999881,,416201.8000000119,,416233.255,8,400,,,
sequence,flow.Sequence,4_55,2023-09-16T18:22:56.799Z,,0,,,5113.865999988106,completion,,,,,false,,,,416202.8000000119,416202.1999999881,411054.952,411063.1999999881,411088.334,416233.255,8,400,,,
trial,html.Screen,4_56_0,2023-09-16T18:23:01.844Z,,0,2,,5014.545000011916,response,ISIC_0070784.JPG,12,ISIC_0057487.JPG,ISIC_0070784.JPG,false,1,keypress(m),500,421248.3000000119,421247.8000000119,416199.863,416203.1999999881,416233.255,421278.374,8,400,7,,ISIC_0057487.JPG
break,html.Screen,4_56_1,2023-09-16T18:23:01.846Z,,0,,,NaN,,,,,,false,,,,421250.1999999881,421249.6999999881,,421249,,421278.374,8,400,,,
break_continue,html.Screen,4_56_2,2023-09-16T18:23:01.847Z,,0,,,NaN,,,,,,false,,,,421251.1999999881,421251,,421250.6999999881,,421278.374,8,400,,,
sequence,flow.Sequence,4_56,2023-09-16T18:23:01.848Z,,0,,,5017.744999999995,completion,,,,,false,,,,421251.6999999881,421251,416199.863,416203.1999999881,416233.255,421278.374,8,400,,,
trial,html.Screen,4_57_0,2023-09-16T18:23:06.874Z,,0,2,,4999.226000023831,response,ISIC_5777181.JPG,9,ISIC_0060696.JPG,ISIC_0060696.JPG,false,0,keypress(z),500,426278,426277.60000002384,421244.963,421252.10000002384,421278.374,426356.634,8,400,8,,ISIC_5777181.JPG
break,html.Screen,4_57_1,2023-09-16T18:23:06.876Z,,0,,,NaN,,,,,,false,,,,426279.60000002384,426279.1999999881,,426278.5,,426356.634,8,400,,,
break_continue,html.Screen,4_57_2,2023-09-16T18:23:06.877Z,,0,,,NaN,,,,,,false,,,,426280.5,426280.1999999881,,426279.90000003576,,426356.634,8,400,,,
sequence,flow.Sequence,4_57,2023-09-16T18:23:06.877Z,,0,,,5001.825999988068,completion,,,,,false,,,,426280.90000003576,426280.1999999881,421244.963,421252,421278.374,426356.634,8,400,,,
trial,html.Screen,4_58_0,2023-09-16T18:23:10.810Z,,0,2,,3857.065999988059,response,ISIC_0066149.JPG,10,ISIC_0027132.JPG,ISIC_0066149.JPG,false,1,keypress(m),500,430214.10000002384,430213.6999999881,426306.683,426281.40000003576,426356.634,430236.17,8,400,9,,ISIC_0027132.JPG
break,html.Screen,4_58_1,2023-09-16T18:23:10.812Z,,0,,,NaN,,,,,,false,,,,430215.8000000119,430215.3000000119,,430214.6999999881,,430236.17,8,400,,,
break_continue,html.Screen,4_58_2,2023-09-16T18:23:10.813Z,,0,,,NaN,,,,,,false,,,,430216.6999999881,430216.40000003576,,430216.1999999881,,430236.17,8,400,,,
sequence,flow.Sequence,4_58,2023-09-16T18:23:10.813Z,,0,,,3859.7660000357428,completion,,,,,false,,,,430217.1999999881,430216.40000003576,426306.683,426281.3000000119,426356.634,430236.17,8,400,,,
trial,html.Screen,4_59_0,2023-09-16T18:23:14.045Z,,0,2,,3211.730000035779,response,ISIC_0072714.JPG,322,ISIC_0031843.JPG,ISIC_0031843.JPG,false,0,keypress(z),500,433448.40000003576,433447.90000003576,430202.86,430217.60000002384,430236.17,433499.643,8,400,10,,ISIC_0072714.JPG
break,html.Screen,4_59_1,2023-09-16T18:23:14.046Z,,0,,,NaN,,,,,,false,,,,433450.1999999881,433449.60000002384,,433449,,433499.643,8,400,,,
break_continue,html.Screen,4_59_2,2023-09-16T18:23:14.047Z,,0,,,NaN,,,,,,false,,,,433451,433450.8000000119,,433450.5,,433499.643,8,400,,,
sequence,flow.Sequence,4_59,2023-09-16T18:23:14.048Z,,0,,,3214.630000011937,completion,,,,,false,,,,433451.6999999881,433450.8000000119,430202.86,430217.40000003576,430236.17,433499.643,8,400,,,
trial,html.Screen,4_60_0,2023-09-16T18:23:19.870Z,,0,2,,5773.857000000018,response,ISIC_6767569.JPG,8,ISIC_0027993.JPG,ISIC_6767569.JPG,false,1,keypress(m),500,439274,439273.5,433449.795,433452.10000002384,433499.643,439310.556,8,400,11,,ISIC_0027993.JPG
break,html.Screen,4_60_1,2023-09-16T18:23:19.872Z,,0,,,NaN,,,,,,false,,,,439275.6999999881,439275.1999999881,,439274.5,,439310.556,8,400,,,
break_continue,html.Screen,4_60_2,2023-09-16T18:23:19.873Z,,0,,,NaN,,,,,,false,,,,439276.6999999881,439276.40000003576,,439276.10000002384,,439310.556,8,400,,,
sequence,flow.Sequence,4_60,2023-09-16T18:23:19.873Z,,0,,,5776.757000035781,completion,,,,,false,,,,439277.1999999881,439276.40000003576,433449.795,433452,433499.643,439310.556,8,400,,,
trial,html.Screen,4_61_0,2023-09-16T18:23:25.166Z,,0,2,,5258.3440000357805,response,ISIC_0070551.JPG,10,ISIC_0058828.JPG,ISIC_0070551.JPG,false,1,keypress(m),500,444569.40000003576,444568.90000003576,439260.693,439277.6999999881,439310.556,444588.8,8,400,12,,ISIC_0058828.JPG
break,html.Screen,4_61_1,2023-09-16T18:23:25.167Z,,0,,,NaN,,,,,,false,,,,444571.10000002384,444570.5,,444569.8000000119,,444588.8,8,400,,,
break_continue,html.Screen,4_61_2,2023-09-16T18:23:25.168Z,,0,,,NaN,,,,,,false,,,,444572,444571.6999999881,,444571.40000003576,,444588.8,8,400,,,
sequence,flow.Sequence,4_61,2023-09-16T18:23:25.169Z,,0,,,5261.143999988097,completion,,,,,false,,,,444572.5,444571.6999999881,439260.693,439277.60000002384,439310.556,444588.8,8,400,,,
trial,html.Screen,4_62_0,2023-09-16T18:23:30.180Z,,0,2,,4994.200000000012,response,ISIC_0026160.JPG,10,ISIC_0061880.JPG,ISIC_0061880.JPG,false,0,keypress(z),500,449583.40000003576,449583,444555.463,444572.8000000119,444588.8,449633.866,8,400,13,,ISIC_0026160.JPG
break,html.Screen,4_62_1,2023-09-16T18:23:30.181Z,,0,,,NaN,,,,,,false,,,,449585.10000002384,449584.60000002384,,449583.90000003576,,449633.866,8,400,,,
break_continue,html.Screen,4_62_2,2023-09-16T18:23:30.182Z,,0,,,NaN,,,,,,false,,,,449586,449585.60000002384,,449585.40000003576,,449633.866,8,400,,,
sequence,flow.Sequence,4_62,2023-09-16T18:23:30.183Z,,0,,,4996.8000000238535,completion,,,,,false,,,,449586.5,449585.60000002384,444555.463,444572.6999999881,444588.8,449633.866,8,400,,,
trial,html.Screen,4_63_0,2023-09-16T18:23:34.314Z,,0,2,,4083.13400000002,response,ISIC_0056063.JPG,19,ISIC_1894133.JPG,ISIC_0056063.JPG,false,1,keypress(m),500,453717.5,453717,449583.91,449587,449633.866,453746.611,8,400,14,,ISIC_1894133.JPG
break,html.Screen,4_63_1,2023-09-16T18:23:34.315Z,,0,,,NaN,,,,,,false,,,,453719.1999999881,453718.6999999881,,453717.90000003576,,453746.611,8,400,,,
break_continue,html.Screen,4_63_2,2023-09-16T18:23:34.316Z,,0,,,NaN,,,,,,false,,,,453720.10000002384,453719.8000000119,,453719.5,,453746.611,8,400,,,
sequence,flow.Sequence,4_63,2023-09-16T18:23:34.317Z,,0,,,4085.934000011941,completion,,,,,false,,,,453720.5,453719.8000000119,449583.91,449586.8000000119,449633.866,453746.611,8,400,,,
trial,html.Screen,4_64_0,2023-09-16T18:23:41.608Z,,0,2,,7265.189000011946,response,ISIC_6553579.JPG,821,ISIC_1020369.JPG,ISIC_1020369.JPG,false,0,keypress(z),500,461012.1999999881,461011.8000000119,453713.228,453720.90000003576,453746.611,461039.377,8,400,15,,ISIC_6553579.JPG
break,html.Screen,4_64_1,2023-09-16T18:23:41.610Z,,0,,,NaN,,,,,,false,,,,461014,461013.5,,461012.8000000119,,461039.377,8,400,,,
break_continue,html.Screen,4_64_2,2023-09-16T18:23:41.611Z,,0,,,NaN,,,,,,false,,,,461015,461014.6999999881,,461014.3000000119,,461039.377,8,400,,,
sequence,flow.Sequence,4_64,2023-09-16T18:23:41.612Z,,0,,,7268.088999988104,completion,,,,,false,,,,461015.40000003576,461014.6999999881,453713.228,453720.8000000119,453746.611,461039.377,8,400,,,
trial,html.Screen,4_65_0,2023-09-16T18:23:46.575Z,,0,2,,4939.3229999881005,response,ISIC_6639094.JPG,9,ISIC_0032797.JPG,ISIC_6639094.JPG,false,1,keypress(m),500,465979.1999999881,465978.6999999881,461006.064,461015.8000000119,461039.377,466018.937,8,400,16,,ISIC_0032797.JPG
break,html.Screen,4_65_1,2023-09-16T18:23:46.577Z,,0,,,NaN,,,,,,false,,,,465981.10000002384,465980.60000002384,,465979.8000000119,,466018.937,8,400,,,
break_continue,html.Screen,4_65_2,2023-09-16T18:23:46.578Z,,0,,,NaN,,,,,,false,,,,465982.1999999881,465981.6999999881,,465981.5,,466018.937,8,400,,,
sequence,flow.Sequence,4_65,2023-09-16T18:23:46.579Z,,0,,,4942.3229999881005,completion,,,,,false,,,,465982.6999999881,465981.6999999881,461006.064,461015.60000002384,461039.377,466018.937,8,400,,,
trial,html.Screen,4_66_0,2023-09-16T18:23:51.183Z,,0,2,,4567.863000011945,response,ISIC_0627979.JPG,9,ISIC_0069558.JPG,ISIC_0627979.JPG,false,1,keypress(m),500,470587.3000000119,470586.8000000119,465967.905,465983.10000002384,466018.937,470613.346,8,400,17,,ISIC_0069558.JPG
break,html.Screen,4_66_1,2023-09-16T18:23:51.185Z,,0,,,NaN,,,,,,false,,,,470588.90000003576,470588.40000003576,,470587.6999999881,,470613.346,8,400,,,
break_continue,html.Screen,4_66_2,2023-09-16T18:23:51.186Z,,0,,,NaN,,,,,,false,,,,470589.90000003576,470589.5,,470589.40000003576,,470613.346,8,400,,,
sequence,flow.Sequence,4_66,2023-09-16T18:23:51.187Z,,0,,,4570.563000000024,completion,,,,,false,,,,470590.60000002384,470589.5,465967.905,465983,466018.937,470613.346,8,400,,,
trial,html.Screen,4_67_0,2023-09-16T18:23:55.120Z,,0,2,,3909.8539999880595,response,ISIC_3401777.JPG,946,ISIC_4026808.JPG,ISIC_4026808.JPG,false,0,keypress(z),500,474523.8000000119,474523.1999999881,470580.033,470591.10000002384,470613.346,474550.332,8,400,18,,ISIC_3401777.JPG
break,html.Screen,4_67_1,2023-09-16T18:23:55.122Z,,0,,,NaN,,,,,,false,,,,474525.40000003576,474524.8000000119,,474524.10000002384,,474550.332,8,400,,,
break_continue,html.Screen,4_67_2,2023-09-16T18:23:55.122Z,,0,,,NaN,,,,,,false,,,,474526.3000000119,474525.90000003576,,474525.6999999881,,474550.332,8,400,,,
sequence,flow.Sequence,4_67,2023-09-16T18:23:55.123Z,,0,,,3912.5540000357432,completion,,,,,false,,,,474526.6999999881,474525.90000003576,470580.033,470590.90000003576,470613.346,474550.332,8,400,,,
trial,html.Screen,4_68_0,2023-09-16T18:23:58.990Z,,0,2,,3843.268000023847,response,ISIC_0839675.JPG,6,ISIC_0072429.JPG,ISIC_0839675.JPG,false,1,keypress(m),500,478394.10000002384,478393.60000002384,474509.497,474527.10000002384,474550.332,478422.483,8,400,19,,ISIC_0072429.JPG
break,html.Screen,4_68_1,2023-09-16T18:23:58.992Z,,0,,,NaN,,,,,,false,,,,478395.6999999881,478395.3000000119,,478394.60000002384,,478422.483,8,400,,,
break_continue,html.Screen,4_68_2,2023-09-16T18:23:58.993Z,,0,,,NaN,,,,,,false,,,,478396.60000002384,478396.3000000119,,478396.10000002384,,478422.483,8,400,,,
sequence,flow.Sequence,4_68,2023-09-16T18:23:58.993Z,,0,,,3845.968000011926,completion,,,,,false,,,,478397.10000002384,478396.3000000119,474509.497,474527,474550.332,478422.483,8,400,,,
trial,html.Screen,4_69_0,2023-09-16T18:24:02.083Z,,0,2,,3063.8170000119135,response,ISIC_0010768.JPG,150,ISIC_8803600.JPG,ISIC_0010768.JPG,false,1,keypress(m),500,481486.8000000119,481486.3000000119,478389.044,478397.5,478422.483,481535.993,8,400,20,,ISIC_8803600.JPG
break,html.Screen,4_69_1,2023-09-16T18:24:02.085Z,,0,,,NaN,,,,,,false,,,,481488.5,481487.90000003576,,481487.1999999881,,481535.993,8,400,,,
break_continue,html.Screen,4_69_2,2023-09-16T18:24:02.086Z,,0,,,NaN,,,,,,false,,,,481489.40000003576,481489.10000002384,,481488.8000000119,,481535.993,8,400,,,
sequence,flow.Sequence,4_69,2023-09-16T18:24:02.086Z,,0,,,3066.6170000238344,completion,,,,,false,,,,481489.90000003576,481489.10000002384,478389.044,478397.40000003576,478422.483,481535.993,8,400,,,
trial,html.Screen,4_70_0,2023-09-16T18:24:06.644Z,,0,2,,4511.407000035746,response,ISIC_7779155.JPG,9,ISIC_0033250.JPG,ISIC_7779155.JPG,false,1,keypress(m),500,486047.8000000119,486047.40000003576,481486.088,481490.1999999881,481535.993,486081.658,8,400,21,,ISIC_0033250.JPG
break,html.Screen,4_70_1,2023-09-16T18:24:06.646Z,,0,,,NaN,,,,,,false,,,,486049.6999999881,486049.10000002384,,486048.3000000119,,486081.658,8,400,,,
break_continue,html.Screen,4_70_2,2023-09-16T18:24:06.647Z,,0,,,NaN,,,,,,false,,,,486050.60000002384,486050.3000000119,,486050,,486081.658,8,400,,,
sequence,flow.Sequence,4_70,2023-09-16T18:24:06.647Z,,0,,,4514.307000011904,completion,,,,,false,,,,486051,486050.3000000119,481486.088,481490.10000002384,481535.993,486081.658,8,400,,,
trial,html.Screen,4_71_0,2023-09-16T18:24:11.424Z,,0,2,,4745.442000023846,response,ISIC_3166535.JPG,494,ISIC_0054851.JPG,ISIC_0054851.JPG,false,0,keypress(z),500,490827.6999999881,490827.10000002384,486048.193,486051.40000003576,486081.658,490876.93,8,400,22,,ISIC_3166535.JPG
break,html.Screen,4_71_1,2023-09-16T18:24:11.425Z,,0,,,NaN,,,,,,false,,,,490829.3000000119,490828.8000000119,,490828.10000002384,,490876.93,8,400,,,
break_continue,html.Screen,4_71_2,2023-09-16T18:24:11.426Z,,0,,,NaN,,,,,,false,,,,490830.3000000119,490829.90000003576,,490829.6999999881,,490876.93,8,400,,,
sequence,flow.Sequence,4_71,2023-09-16T18:24:11.427Z,,0,,,4748.242000035767,completion,,,,,false,,,,490830.60000002384,490829.90000003576,486048.193,486051.3000000119,486081.658,490876.93,8,400,,,
trial,html.Screen,4_72_0,2023-09-16T18:24:16.645Z,,0,2,,5171.170000023849,response,ISIC_0014695.JPG,13,ISIC_9767255.JPG,ISIC_0014695.JPG,false,1,keypress(m),500,496048.8000000119,496048.10000002384,490826.976,490831,490876.93,496088.435,8,400,23,,ISIC_9767255.JPG
break,html.Screen,4_72_1,2023-09-16T18:24:16.647Z,,0,,,NaN,,,,,,false,,,,496050.40000003576,496050,,496049.1999999881,,496088.435,8,400,,,
break_continue,html.Screen,4_72_2,2023-09-16T18:24:16.648Z,,0,,,NaN,,,,,,false,,,,496051.5,496051.10000002384,,496050.8000000119,,496088.435,8,400,,,
sequence,flow.Sequence,4_72,2023-09-16T18:24:16.648Z,,0,,,5174.170000023849,completion,,,,,false,,,,496052.10000002384,496051.10000002384,490826.976,490830.90000003576,490876.93,496088.435,8,400,,,
trial,html.Screen,4_73_0,2023-09-16T18:24:22.002Z,,0,2,,5317.365000011923,response,ISIC_0004667.JPG,493,ISIC_9244393.JPG,ISIC_9244393.JPG,false,0,keypress(z),500,501406.3000000119,501405.8000000119,496038.562,496052.5,496088.435,501449.764,8,400,24,,ISIC_0004667.JPG
break,html.Screen,4_73_1,2023-09-16T18:24:22.004Z,,0,,,NaN,,,,,,false,,,,501408,501407.5,,501406.8000000119,,501449.764,8,400,,,
break_continue,html.Screen,4_73_2,2023-09-16T18:24:22.005Z,,0,,,NaN,,,,,,false,,,,501409,501408.60000002384,,501408.3000000119,,501449.764,8,400,,,
sequence,flow.Sequence,4_73,2023-09-16T18:24:22.006Z,,0,,,5320.165000023844,completion,,,,,false,,,,501409.40000003576,501408.60000002384,496038.562,496052.40000003576,496088.435,501449.764,8,400,,,
trial,html.Screen,4_74_0,2023-09-16T18:24:26.298Z,,0,2,,4251.636000035738,response,ISIC_9175856.JPG,10,ISIC_0696303.JPG,ISIC_9175856.JPG,false,1,keypress(m),500,505701.90000003576,505701.40000003576,501399.92,501409.6999999881,501449.764,505729.001,8,400,25,,ISIC_0696303.JPG
break,html.Screen,4_74_1,2023-09-16T18:24:26.300Z,,0,,,NaN,,,,,,false,,,,505703.60000002384,505703,,505702.40000003576,,505729.001,8,400,,,
break_continue,html.Screen,4_74_2,2023-09-16T18:24:26.301Z,,0,,,NaN,,,,,,false,,,,505704.5,505704.3000000119,,505704,,505729.001,8,400,,,
sequence,flow.Sequence,4_74,2023-09-16T18:24:26.301Z,,0,,,4254.536000011896,completion,,,,,false,,,,505705,505704.3000000119,501399.92,501409.60000002384,501449.764,505729.001,8,400,,,
trial,html.Screen,4_75_0,2023-09-16T18:24:31.547Z,,0,2,,5220.8990000357735,response,ISIC_0069210.JPG,837,ISIC_2379379.JPG,ISIC_0069210.JPG,false,1,keypress(m),500,510950.40000003576,510949.90000003576,505695.689,505705.40000003576,505729.001,510973.872,8,400,26,,ISIC_2379379.JPG
break,html.Screen,4_75_1,2023-09-16T18:24:31.548Z,,0,,,NaN,,,,,,false,,,,510952.10000002384,510951.5,,510950.90000003576,,510973.872,8,400,,,
break_continue,html.Screen,4_75_2,2023-09-16T18:24:31.551Z,,0,,,NaN,,,,,,false,,,,510954.60000002384,510954.1999999881,,510953.90000003576,,510973.872,8,400,,,
sequence,flow.Sequence,4_75,2023-09-16T18:24:31.551Z,,0,,,5225.19899998809,completion,,,,,false,,,,510955,510954.1999999881,505695.689,505705.3000000119,505729.001,510973.872,8,400,,,
trial,html.Screen,4_76_0,2023-09-16T18:24:36.748Z,,0,2,,5177.728000023868,response,ISIC_5501183.JPG,8,ISIC_9745562.JPG,ISIC_5501183.JPG,false,1,keypress(m),500,516152.1999999881,516151.60000002384,510940.535,510955.40000003576,510973.872,516202.092,8,400,27,,ISIC_9745562.JPG
break,html.Screen,4_76_1,2023-09-16T18:24:36.750Z,,0,,,NaN,,,,,,false,,,,516154,516153.40000003576,,516152.60000002384,,516202.092,8,400,,,
break_continue,html.Screen,4_76_2,2023-09-16T18:24:36.751Z,,0,,,NaN,,,,,,false,,,,516154.90000003576,516154.5,,516154.3000000119,,516202.092,8,400,,,
sequence,flow.Sequence,4_76,2023-09-16T18:24:36.751Z,,0,,,5180.628000000026,completion,,,,,false,,,,516155.3000000119,516154.5,510940.535,510955.3000000119,510973.872,516202.092,8,400,,,
trial,html.Screen,4_77_0,2023-09-16T18:24:42.153Z,,0,2,,5354.208000011917,response,ISIC_0000504.JPG,10,ISIC_1226440.JPG,ISIC_0000504.JPG,false,1,keypress(m),500,521556.8000000119,521556.3000000119,516152.134,516155.6999999881,516202.092,521596.788,8,400,28,,ISIC_1226440.JPG
break,html.Screen,4_77_1,2023-09-16T18:24:42.155Z,,0,,,NaN,,,,,,false,,,,521558.5,521558,,521557.1999999881,,521596.788,8,400,,,
break_continue,html.Screen,4_77_2,2023-09-16T18:24:42.156Z,,0,,,NaN,,,,,,false,,,,521559.40000003576,521559.10000002384,,521558.90000003576,,521596.788,8,400,,,
sequence,flow.Sequence,4_77,2023-09-16T18:24:42.156Z,,0,,,5357.008000023838,completion,,,,,false,,,,521559.8000000119,521559.10000002384,516152.134,516155.60000002384,516202.092,521596.788,8,400,,,
trial,html.Screen,4_78_0,2023-09-16T18:24:46.152Z,,0,2,,3958.5120000119205,response,ISIC_0059423.JPG,9,ISIC_0056707.JPG,ISIC_0056707.JPG,false,0,keypress(z),500,525555.8000000119,525555.3000000119,521546.882,521560.1999999881,521596.788,525592.824,8,400,29,,ISIC_0059423.JPG
break,html.Screen,4_78_1,2023-09-16T18:24:46.154Z,,0,,,NaN,,,,,,false,,,,525557.5,525557,,525556.3000000119,,525592.824,8,400,,,
break_continue,html.Screen,4_78_2,2023-09-16T18:24:46.155Z,,0,,,NaN,,,,,,false,,,,525558.4000000358,525558.1000000238,,525557.8000000119,,525592.824,8,400,,,
sequence,flow.Sequence,4_78,2023-09-16T18:24:46.155Z,,0,,,3961.3120000238414,completion,,,,,false,,,,525558.8000000119,525558.1000000238,521546.882,521560.1999999881,521596.788,525592.824,8,400,,,
trial,html.Screen,4_79_0,2023-09-16T18:24:52.114Z,,0,2,,5924.675999999978,response,ISIC_5347727.JPG,978,ISIC_4138377.JPG,ISIC_4138377.JPG,false,0,keypress(z),500,531518,531517.5,525543.043,525559.1999999881,525592.824,531570.488,8,400,30,,ISIC_5347727.JPG
break,html.Screen,4_79_1,2023-09-16T18:24:52.116Z,,0,,,NaN,,,,,,false,,,,531519.6000000238,531519.1999999881,,531518.5,,531570.488,8,400,,,
break_continue,html.Screen,4_79_2,2023-09-16T18:24:52.117Z,,0,,,NaN,,,,,,false,,,,531520.5,531520.1000000238,,531519.8000000119,,531570.488,8,400,,,
sequence,flow.Sequence,4_79,2023-09-16T18:24:52.117Z,,0,,,5927.2760000238195,completion,,,,,false,,,,531520.9000000358,531520.1000000238,525543.043,525559.1000000238,525592.824,531570.488,8,400,,,
trial,html.Screen,4_80_0,2023-09-16T18:24:56.409Z,,0,2,,4242.412000035751,response,ISIC_0064683.JPG,9,ISIC_0033612.JPG,ISIC_0064683.JPG,false,1,keypress(m),500,535813.3000000119,535812.9000000358,531537.087,531521.3000000119,531570.488,535849.461,8,400,31,,ISIC_0033612.JPG
break,html.Screen,4_80_1,2023-09-16T18:24:56.411Z,,0,,,NaN,,,,,,false,,,,535815.1000000238,535814.5,,535813.8000000119,,535849.461,8,400,,,
break_continue,html.Screen,4_80_2,2023-09-16T18:24:56.412Z,,0,,,NaN,,,,,,false,,,,535816.1000000238,535815.6999999881,,535815.4000000358,,535849.461,8,400,,,
sequence,flow.Sequence,4_80,2023-09-16T18:24:56.413Z,,0,,,4245.211999988067,completion,,,,,false,,,,535816.6000000238,535815.6999999881,531537.087,531521.1000000238,531570.488,535849.461,8,400,,,
trial,html.Screen,4_81_0,2023-09-16T18:25:01.599Z,,0,2,,5152.839000011911,response,ISIC_0032269.JPG,731,ISIC_5951430.JPG,ISIC_5951430.JPG,false,0,keypress(z),500,541002.9000000358,541002.3000000119,535799.582,535817,535849.461,541044.457,8,400,32,,ISIC_0032269.JPG
break,html.Screen,4_81_1,2023-09-16T18:25:01.601Z,,0,,,NaN,,,,,,false,,,,541004.6000000238,541004,,541003.3000000119,,541044.457,8,400,,,
break_continue,html.Screen,4_81_2,2023-09-16T18:25:01.602Z,,0,,,NaN,,,,,,false,,,,541005.5,541005.1000000238,,541004.9000000358,,541044.457,8,400,,,
sequence,flow.Sequence,4_81,2023-09-16T18:25:01.602Z,,0,,,5155.639000023832,completion,,,,,false,,,,541005.9000000358,541005.1000000238,535799.582,535816.9000000358,535849.461,541044.457,8,400,,,
trial,html.Screen,4_82_0,2023-09-16T18:25:05.851Z,,0,2,,4209.94300003571,response,ISIC_0011699.JPG,13,ISIC_1957685.JPG,ISIC_0011699.JPG,false,1,keypress(m),500,545255,545254.4000000358,540994.55,541006.3000000119,541044.457,545281.256,8,400,33,,ISIC_1957685.JPG
break,html.Screen,4_82_1,2023-09-16T18:25:05.853Z,,0,,,NaN,,,,,,false,,,,545256.6000000238,545256.1000000238,,545255.5,,545281.256,8,400,,,
break_continue,html.Screen,4_82_2,2023-09-16T18:25:05.854Z,,0,,,NaN,,,,,,false,,,,545257.6999999881,545257.3000000119,,545257.1000000238,,545281.256,8,400,,,
sequence,flow.Sequence,4_82,2023-09-16T18:25:05.854Z,,0,,,4212.843000011868,completion,,,,,false,,,,545258.1000000238,545257.3000000119,540994.55,541006.1000000238,541044.457,545281.256,8,400,,,
trial,html.Screen,4_83_0,2023-09-16T18:25:12.080Z,,0,2,,6201.544000011869,response,ISIC_0057692.JPG,287,ISIC_2222091.JPG,ISIC_0057692.JPG,false,1,keypress(m),500,551483.4000000358,551482.8000000119,545240.321,545258.6000000238,545281.256,551534.197,8,400,34,,ISIC_2222091.JPG
break,html.Screen,4_83_1,2023-09-16T18:25:12.081Z,,0,,,NaN,,,,,,false,,,,551485.1000000238,551484.5,,551483.8000000119,,551534.197,8,400,,,
break_continue,html.Screen,4_83_2,2023-09-16T18:25:12.082Z,,0,,,NaN,,,,,,false,,,,551486,551485.6999999881,,551485.4000000358,,551534.197,8,400,,,
sequence,flow.Sequence,4_83,2023-09-16T18:25:12.083Z,,0,,,6204.443999988027,completion,,,,,false,,,,551486.4000000358,551485.6999999881,545240.321,545258.4000000358,545281.256,551534.197,8,400,,,
trial,html.Screen,4_84_0,2023-09-16T18:25:16.979Z,,0,2,,4848.103000011877,response,ISIC_0064822.JPG,10,ISIC_0789732.JPG,ISIC_0789732.JPG,false,0,keypress(z),500,556382.9000000358,556382.3000000119,551484.306,551486.8000000119,551534.197,556412.86,8,400,35,,ISIC_0064822.JPG
break,html.Screen,4_84_1,2023-09-16T18:25:16.981Z,,0,,,NaN,,,,,,false,,,,556384.5,556383.9000000358,,556383.3000000119,,556412.86,8,400,,,
break_continue,html.Screen,4_84_2,2023-09-16T18:25:16.982Z,,0,,,NaN,,,,,,false,,,,556385.4000000358,556385.1000000238,,556384.8000000119,,556412.86,8,400,,,
sequence,flow.Sequence,4_84,2023-09-16T18:25:16.982Z,,0,,,4850.903000023798,completion,,,,,false,,,,556385.9000000358,556385.1000000238,551484.306,551486.6000000238,551534.197,556412.86,8,400,,,
trial,html.Screen,4_85_0,2023-09-16T18:25:21.212Z,,0,2,,4202.540000035777,response,ISIC_1869829.JPG,9,ISIC_0034263.JPG,ISIC_1869829.JPG,false,1,keypress(m),500,560615.9000000358,560615.4000000358,556379.494,556386.1999999881,556412.86,560658.604,8,400,36,,ISIC_0034263.JPG
break,html.Screen,4_85_1,2023-09-16T18:25:21.214Z,,0,,,NaN,,,,,,false,,,,560617.6000000238,560617,,560616.4000000358,,560658.604,8,400,,,
break_continue,html.Screen,4_85_2,2023-09-16T18:25:21.215Z,,0,,,NaN,,,,,,false,,,,560618.5,560618.1999999881,,560618,,560658.604,8,400,,,
sequence,flow.Sequence,4_85,2023-09-16T18:25:21.215Z,,0,,,4205.339999988093,completion,,,,,false,,,,560619.1000000238,560618.1999999881,556379.494,556386.1000000238,556412.86,560658.604,8,400,,,
trial,html.Screen,4_86_0,2023-09-16T18:25:26.991Z,,0,2,,5736.196000011871,response,ISIC_7462746.JPG,915,ISIC_9058340.JPG,ISIC_9058340.JPG,false,0,keypress(z),500,566395.1999999881,566394.8000000119,560608.677,560619.4000000358,560658.604,566453.038,8,400,37,,ISIC_7462746.JPG
break,html.Screen,4_86_1,2023-09-16T18:25:26.993Z,,0,,,NaN,,,,,,false,,,,566396.8000000119,566396.4000000358,,566395.6999999881,,566453.038,8,400,,,
break_continue,html.Screen,4_86_2,2023-09-16T18:25:26.994Z,,0,,,NaN,,,,,,false,,,,566397.6000000238,566397.4000000358,,566397.1000000238,,566453.038,8,400,,,
sequence,flow.Sequence,4_86,2023-09-16T18:25:26.994Z,,0,,,5738.7960000357125,completion,,,,,false,,,,566398.1000000238,566397.4000000358,560608.677,560619.1999999881,560658.604,566453.038,8,400,,,
trial,html.Screen,4_87_0,2023-09-16T18:25:31.396Z,,0,2,,4346.661999988137,response,ISIC_0067577.JPG,10,ISIC_0029120.JPG,ISIC_0067577.JPG,false,1,keypress(m),500,570800.3000000119,570799.6999999881,566419.641,566398.5,566453.038,570848.538,8,400,38,,ISIC_0029120.JPG
break,html.Screen,4_87_1,2023-09-16T18:25:31.398Z,,0,,,NaN,,,,,,false,,,,570802.1000000238,570801.5,,570800.8000000119,,570848.538,8,400,,,
break_continue,html.Screen,4_87_2,2023-09-16T18:25:31.400Z,,0,,,NaN,,,,,,false,,,,570803.6000000238,570803.1999999881,,570802.8000000119,,570848.538,8,400,,,
sequence,flow.Sequence,4_87,2023-09-16T18:25:31.400Z,,0,,,4350.161999988137,completion,,,,,false,,,,570804.1000000238,570803.1999999881,566419.641,566398.4000000358,566453.038,570848.538,8,400,,,
trial,html.Screen,4_88_0,2023-09-16T18:25:35.833Z,,0,2,,4387.462000000058,response,ISIC_9760652.JPG,742,ISIC_9822801.JPG,ISIC_9760652.JPG,false,1,keypress(m),500,575236.6000000238,575236,570798.711,570804.5,570848.538,575277.551,8,400,39,,ISIC_9822801.JPG
break,html.Screen,4_88_1,2023-09-16T18:25:35.834Z,,0,,,NaN,,,,,,false,,,,575238.4000000358,575237.8000000119,,575237.1000000238,,575277.551,8,400,,,
break_continue,html.Screen,4_88_2,2023-09-16T18:25:35.836Z,,0,,,NaN,,,,,,false,,,,575239.5,575239.1000000238,,575238.6999999881,,575277.551,8,400,,,
sequence,flow.Sequence,4_88,2023-09-16T18:25:35.836Z,,0,,,4390.5620000239,completion,,,,,false,,,,575240.1999999881,575239.1000000238,570798.711,570804.4000000358,570848.538,575277.551,8,400,,,
trial,html.Screen,4_89_0,2023-09-16T18:25:40.144Z,,0,2,,4269.648999988101,response,ISIC_7394897.JPG,9,ISIC_7921023.JPG,ISIC_7394897.JPG,false,1,keypress(m),500,579547.6999999881,579547.1999999881,575227.712,575240.5,575277.551,579590.01,8,400,40,,ISIC_7921023.JPG
break,html.Screen,4_89_1,2023-09-16T18:25:40.146Z,,0,,,NaN,,,,,,false,,,,579549.4000000358,579548.9000000358,,579548.1000000238,,579590.01,8,400,,,
break_continue,html.Screen,4_89_2,2023-09-16T18:25:40.146Z,,0,,,NaN,,,,,,false,,,,579550.3000000119,579550,,579549.6999999881,,579590.01,8,400,,,
sequence,flow.Sequence,4_89,2023-09-16T18:25:40.147Z,,0,,,4272.449000000022,completion,,,,,false,,,,579550.6999999881,579550,575227.712,575240.4000000358,575277.551,579590.01,8,400,,,
trial,html.Screen,4_90_0,2023-09-16T18:25:45.549Z,,0,2,,5361.8900000357535,response,ISIC_0011944.JPG,993,ISIC_7124160.JPG,ISIC_0011944.JPG,false,1,keypress(m),500,584952.4000000358,584951.9000000358,579540.156,579551.1000000238,579590.01,585001.464,8,400,41,,ISIC_7124160.JPG
break,html.Screen,4_90_1,2023-09-16T18:25:45.551Z,,0,,,NaN,,,,,,false,,,,584954.4000000358,584953.6000000238,,584953,,585001.464,8,400,,,
break_continue,html.Screen,4_90_2,2023-09-16T18:25:45.552Z,,0,,,NaN,,,,,,false,,,,584955.5,584955.1000000238,,584954.8000000119,,585001.464,8,400,,,
sequence,flow.Sequence,4_90,2023-09-16T18:25:45.552Z,,0,,,5365.0900000238325,completion,,,,,false,,,,584956.1999999881,584955.1000000238,579540.156,579551,579590.01,585001.464,8,400,,,
trial,html.Screen,4_91_0,2023-09-16T18:25:51.016Z,,0,2,,5417.535999999964,response,ISIC_0011633.JPG,9,ISIC_0015132.JPG,ISIC_0015132.JPG,false,0,keypress(z),500,590419.6000000238,590419,584951.694,584956.6000000238,585001.464,590462.723,8,400,42,,ISIC_0011633.JPG
break,html.Screen,4_91_1,2023-09-16T18:25:51.018Z,,0,,,NaN,,,,,,false,,,,590421.4000000358,590420.8000000119,,590420.1000000238,,590462.723,8,400,,,
break_continue,html.Screen,4_91_2,2023-09-16T18:25:51.018Z,,0,,,NaN,,,,,,false,,,,590422.4000000358,590421.9000000358,,590421.6999999881,,590462.723,8,400,,,
sequence,flow.Sequence,4_91,2023-09-16T18:25:51.019Z,,0,,,5420.4360000357265,completion,,,,,false,,,,590422.6999999881,590421.9000000358,584951.694,584956.4000000358,585001.464,590462.723,8,400,,,
trial,html.Screen,4_92_0,2023-09-16T18:25:55.968Z,,0,2,,4908.077000011923,response,ISIC_7210296.JPG,9,ISIC_2498064.JPG,ISIC_2498064.JPG,false,0,keypress(z),500,595371.4000000358,595370.8000000119,590412.911,590423.1999999881,590462.723,595407.859,8,400,43,,ISIC_7210296.JPG
break,html.Screen,4_92_1,2023-09-16T18:25:55.969Z,,0,,,NaN,,,,,,false,,,,595373.1999999881,595372.6000000238,,595371.8000000119,,595407.859,8,400,,,
break_continue,html.Screen,4_92_2,2023-09-16T18:25:55.970Z,,0,,,NaN,,,,,,false,,,,595374.1000000238,595373.6999999881,,595373.4000000358,,595407.859,8,400,,,
sequence,flow.Sequence,4_92,2023-09-16T18:25:55.971Z,,0,,,4910.976999988081,completion,,,,,false,,,,595374.6000000238,595373.6999999881,590412.911,590423,590462.723,595407.859,8,400,,,
trial,html.Screen,4_93_0,2023-09-16T18:25:59.904Z,,0,2,,3899.441000011866,response,ISIC_8578732.JPG,8,ISIC_9626777.JPG,ISIC_9626777.JPG,false,0,keypress(z),500,599307.8000000119,599307.3000000119,595358.015,595375.1000000238,595407.859,599354.347,8,400,44,,ISIC_8578732.JPG
break,html.Screen,4_93_1,2023-09-16T18:25:59.906Z,,0,,,NaN,,,,,,false,,,,599309.5,599309,,599308.1999999881,,599354.347,8,400,,,
break_continue,html.Screen,4_93_2,2023-09-16T18:25:59.906Z,,0,,,NaN,,,,,,false,,,,599310.3000000119,599310,,599309.8000000119,,599354.347,8,400,,,
sequence,flow.Sequence,4_93,2023-09-16T18:25:59.907Z,,0,,,3902.140999999945,completion,,,,,false,,,,599310.6999999881,599310,595358.015,595374.9000000358,595407.859,599354.347,8,400,,,
trial,html.Screen,4_94_0,2023-09-16T18:26:04.715Z,,0,2,,4764.053000035812,response,ISIC_0033037.JPG,228,ISIC_7284399.JPG,ISIC_0033037.JPG,false,1,keypress(m),500,604118.9000000358,604118.4000000358,599304.863,599311,599354.347,604149.612,8,400,45,,ISIC_7284399.JPG
break,html.Screen,4_94_1,2023-09-16T18:26:04.717Z,,0,,,NaN,,,,,,false,,,,604120.5,604120,,604119.4000000358,,604149.612,8,400,,,
break_continue,html.Screen,4_94_2,2023-09-16T18:26:04.717Z,,0,,,NaN,,,,,,false,,,,604121.4000000358,604121.1000000238,,604120.8000000119,,604149.612,8,400,,,
sequence,flow.Sequence,4_94,2023-09-16T18:26:04.718Z,,0,,,4766.753000023891,completion,,,,,false,,,,604121.8000000119,604121.1000000238,599304.863,599311,599354.347,604149.612,8,400,,,
trial,html.Screen,4_95_0,2023-09-16T18:26:08.198Z,,0,2,,3452.0879999881145,response,ISIC_0059390.JPG,9,ISIC_1763577.JPG,ISIC_1763577.JPG,false,0,keypress(z),500,607602.1999999881,607601.6999999881,604116.067,604122.1000000238,604149.612,607629.431,8,400,46,,ISIC_0059390.JPG
break,html.Screen,4_95_1,2023-09-16T18:26:08.200Z,,0,,,NaN,,,,,,false,,,,607603.6999999881,607603.3000000119,,607602.6000000238,,607629.431,8,400,,,
break_continue,html.Screen,4_95_2,2023-09-16T18:26:08.201Z,,0,,,NaN,,,,,,false,,,,607604.6999999881,607604.3000000119,,607604,,607629.431,8,400,,,
sequence,flow.Sequence,4_95,2023-09-16T18:26:08.201Z,,0,,,3454.6880000119563,completion,,,,,false,,,,607605.1000000238,607604.3000000119,604116.067,604121.9000000358,604149.612,607629.431,8,400,,,
trial,html.Screen,4_96_0,2023-09-16T18:26:14.040Z,,0,2,,5814.069000000018,response,ISIC_3989526.JPG,931,ISIC_6970607.JPG,ISIC_3989526.JPG,false,1,keypress(m),500,613444,613443.5,607596.022,607605.4000000358,607629.431,613473.718,8,400,47,,ISIC_6970607.JPG
break,html.Screen,4_96_1,2023-09-16T18:26:14.042Z,,0,,,NaN,,,,,,false,,,,613445.6999999881,613445.1999999881,,613444.4000000358,,613473.718,8,400,,,
break_continue,html.Screen,4_96_2,2023-09-16T18:26:14.043Z,,0,,,NaN,,,,,,false,,,,613446.5,613446.3000000119,,613445.9000000358,,613473.718,8,400,,,
sequence,flow.Sequence,4_96,2023-09-16T18:26:14.043Z,,0,,,5816.869000011939,completion,,,,,false,,,,613446.9000000358,613446.3000000119,607596.022,607605.3000000119,607629.431,613473.718,8,400,,,
trial,html.Screen,4_97_0,2023-09-16T18:26:17.914Z,,0,2,,3843.8820000238484,response,ISIC_4294705.JPG,10,ISIC_0064879.JPG,ISIC_4294705.JPG,false,1,keypress(m),500,617318.1000000238,617317.6000000238,613440.234,613447.1999999881,613473.718,617353.051,8,400,48,,ISIC_0064879.JPG
break,html.Screen,4_97_1,2023-09-16T18:26:17.916Z,,0,,,NaN,,,,,,false,,,,617320,617319.3000000119,,617318.5,,617353.051,8,400,,,
break_continue,html.Screen,4_97_2,2023-09-16T18:26:17.917Z,,0,,,NaN,,,,,,false,,,,617320.9000000358,617320.6000000238,,617320.1999999881,,617353.051,8,400,,,
sequence,flow.Sequence,4_97,2023-09-16T18:26:17.917Z,,0,,,3846.8820000238484,completion,,,,,false,,,,617321.3000000119,617320.6000000238,613440.234,613447.1999999881,613473.718,617353.051,8,400,,,
trial,html.Screen,4_98_0,2023-09-16T18:26:22.444Z,,0,2,,4494.449000000022,response,ISIC_0025379.JPG,213,ISIC_6406517.JPG,ISIC_6406517.JPG,false,0,keypress(z),500,621848.1000000238,621847.5,617303.253,617321.6000000238,617353.051,621898.712,8,400,49,,ISIC_0025379.JPG
break,html.Screen,4_98_1,2023-09-16T18:26:22.446Z,,0,,,NaN,,,,,,false,,,,621849.6999999881,621849.1999999881,,621848.4000000358,,621898.712,8,400,,,
break_continue,html.Screen,4_98_2,2023-09-16T18:26:22.447Z,,0,,,NaN,,,,,,false,,,,621850.6000000238,621850.3000000119,,621850,,621898.712,8,400,,,
sequence,flow.Sequence,4_98,2023-09-16T18:26:22.447Z,,0,,,4497.249000011943,completion,,,,,false,,,,621851,621850.3000000119,617303.253,617321.5,617353.051,621898.712,8,400,,,
trial,html.Screen,4_99_0,2023-09-16T18:26:26.743Z,,0,2,,4248.088000011863,response,ISIC_0283506.JPG,12,ISIC_0031406.JPG,ISIC_0283506.JPG,false,1,keypress(m),500,626147.3000000119,626146.8000000119,621848.826,621851.4000000358,621898.712,626177.913,8,400,50,,ISIC_0031406.JPG
break,html.Screen,4_99_1,2023-09-16T18:26:36.749Z,,0,,,10006.941000000108,timeout,,,,,false,,,,636153.1000000238,636151.439,626144.532,626147.8000000119,626177.913,636184.854,8,400,,,
break_continue,html.Screen,4_99_2,2023-09-16T18:26:38.006Z,,0,,,1172.3459999880288,response,,,,,false,continue,keypress(Space),,637409.4000000358,637357.1999999881,636151.439,636153.4000000358,636184.854,637433.52,8,400,,,
sequence,flow.Sequence,4_99,2023-09-16T18:26:38.006Z,,0,,,15458.487999988021,completion,,,,,false,,,,637409.9000000358,637357.1999999881,621848.826,621851.3000000119,621898.712,637433.52,8,400,,,
trial,html.Screen,4_100_0,2023-09-16T18:26:41.348Z,,0,3,,3318.0800000238232,response,ISIC_0010785.JPG,12,ISIC_0027576.JPG,ISIC_0010785.JPG,false,1,keypress(m),500,640752.1999999881,640751.6000000238,637400.128,637410.3000000119,637433.52,640780.246,8,400,1,,ISIC_0027576.JPG
break,html.Screen,4_100_1,2023-09-16T18:26:41.350Z,,0,,,NaN,,,,,,false,,,,640753.9000000358,640753.4000000358,,640752.6999999881,,640780.246,8,400,,,
break_continue,html.Screen,4_100_2,2023-09-16T18:26:41.351Z,,0,,,NaN,,,,,,false,,,,640754.8000000119,640754.5,,640754.1999999881,,640780.246,8,400,,,
sequence,flow.Sequence,4_100,2023-09-16T18:26:41.351Z,,0,,,3320.9799999999814,completion,,,,,false,,,,640755.3000000119,640754.5,637400.128,637410.1000000238,637433.52,640780.246,8,400,,,
trial,html.Screen,4_101_0,2023-09-16T18:26:45.160Z,,0,3,,3783.253999999957,response,ISIC_6523459.JPG,10,ISIC_0029013.JPG,ISIC_0029013.JPG,false,0,keypress(z),500,644564,644563.5,640746.903,640755.6000000238,640780.246,644609.832,8,400,2,,ISIC_6523459.JPG
break,html.Screen,4_101_1,2023-09-16T18:26:45.162Z,,0,,,NaN,,,,,,false,,,,644565.8000000119,644565.1999999881,,644564.5,,644609.832,8,400,,,
break_continue,html.Screen,4_101_2,2023-09-16T18:26:45.163Z,,0,,,NaN,,,,,,false,,,,644566.6000000238,644566.3000000119,,644566.1000000238,,644609.832,8,400,,,
sequence,flow.Sequence,4_101,2023-09-16T18:26:45.163Z,,0,,,3786.054000011878,completion,,,,,false,,,,644567.1000000238,644566.3000000119,640746.903,640755.5,640780.246,644609.832,8,400,,,
trial,html.Screen,4_102_0,2023-09-16T18:26:48.347Z,,0,3,,3140.2680000237888,response,ISIC_0054357.JPG,10,ISIC_0028597.JPG,ISIC_0028597.JPG,false,0,keypress(z),500,647750.5,647750.1000000238,644559.977,644567.5,644609.832,647773.402,8,400,3,,ISIC_0054357.JPG
break,html.Screen,4_102_1,2023-09-16T18:26:48.348Z,,0,,,NaN,,,,,,false,,,,647752.1999999881,647751.6999999881,,647751,,647773.402,8,400,,,
break_continue,html.Screen,4_102_2,2023-09-16T18:26:48.349Z,,0,,,NaN,,,,,,false,,,,647753.1999999881,647752.9000000358,,647752.6000000238,,647773.402,8,400,,,
sequence,flow.Sequence,4_102,2023-09-16T18:26:48.350Z,,0,,,3143.0680000357097,completion,,,,,false,,,,647753.6999999881,647752.9000000358,644559.977,644567.3000000119,644609.832,647773.402,8,400,,,
trial,html.Screen,4_103_0,2023-09-16T18:26:53.892Z,,0,3,,5521.69800002384,response,ISIC_4474170.JPG,790,ISIC_6806545.JPG,ISIC_6806545.JPG,false,0,keypress(z),500,653295.6999999881,653295.1000000238,647739.993,647754,647773.402,653317.982,8,400,4,,ISIC_4474170.JPG
break,html.Screen,4_103_1,2023-09-16T18:26:53.894Z,,0,,,NaN,,,,,,false,,,,653297.3000000119,653296.8000000119,,653296.1000000238,,653317.982,8,400,,,
break_continue,html.Screen,4_103_2,2023-09-16T18:26:53.894Z,,0,,,NaN,,,,,,false,,,,653298.3000000119,653298,,653297.6999999881,,653317.982,8,400,,,
sequence,flow.Sequence,4_103,2023-09-16T18:26:53.895Z,,0,,,5524.597999999998,completion,,,,,false,,,,653298.6999999881,653298,647739.993,647753.9000000358,647773.402,653317.982,8,400,,,
trial,html.Screen,4_104_0,2023-09-16T18:26:57.203Z,,0,3,,3288.818000011961,response,ISIC_0845105.JPG,9,ISIC_0026208.JPG,ISIC_0845105.JPG,false,1,keypress(m),500,656607.3000000119,656606.8000000119,653284.635,653299.1000000238,653317.982,656631.404,8,400,5,,ISIC_0026208.JPG
break,html.Screen,4_104_1,2023-09-16T18:26:57.205Z,,0,,,NaN,,,,,,false,,,,656609.1999999881,656608.6999999881,,656607.8000000119,,656631.404,8,400,,,
break_continue,html.Screen,4_104_2,2023-09-16T18:26:57.207Z,,0,,,NaN,,,,,,false,,,,656610.5,656610,,656609.5,,656631.404,8,400,,,
sequence,flow.Sequence,4_104,2023-09-16T18:26:57.207Z,,0,,,3292.01800000004,completion,,,,,false,,,,656611,656610,653284.635,653299,653317.982,656631.404,8,400,,,
trial,html.Screen,4_105_0,2023-09-16T18:27:03.139Z,,0,3,,5911.196000023861,response,ISIC_4613437.JPG,929,ISIC_0028945.JPG,ISIC_0028945.JPG,false,0,keypress(z),500,662543.1000000238,662542.6000000238,656598.094,656611.6000000238,656631.404,662592.246,8,400,6,,ISIC_4613437.JPG
break,html.Screen,4_105_1,2023-09-16T18:27:03.141Z,,0,,,NaN,,,,,,false,,,,662544.8000000119,662544.3000000119,,662543.5,,662592.246,8,400,,,
break_continue,html.Screen,4_105_2,2023-09-16T18:27:03.142Z,,0,,,NaN,,,,,,false,,,,662545.8000000119,662545.4000000358,,662545.1000000238,,662592.246,8,400,,,
sequence,flow.Sequence,4_105,2023-09-16T18:27:03.142Z,,0,,,5913.996000035782,completion,,,,,false,,,,662546.1999999881,662545.4000000358,656598.094,656611.5,656631.404,662592.246,8,400,,,
trial,html.Screen,4_106_0,2023-09-16T18:27:06.935Z,,0,3,,3745.9539999880362,response,ISIC_0054312.JPG,10,ISIC_0000031.JPG,ISIC_0054312.JPG,false,1,keypress(m),500,666338.8000000119,666338.1999999881,662542.331,662546.6000000238,662592.246,666388.475,8,400,7,,ISIC_0000031.JPG
break,html.Screen,4_106_1,2023-09-16T18:27:06.937Z,,0,,,NaN,,,,,,false,,,,666340.5,666339.9000000358,,666339.1999999881,,666388.475,8,400,,,
break_continue,html.Screen,4_106_2,2023-09-16T18:27:06.937Z,,0,,,NaN,,,,,,false,,,,666341.3000000119,666341,,666340.6999999881,,666388.475,8,400,,,
sequence,flow.Sequence,4_106,2023-09-16T18:27:06.938Z,,0,,,3748.753999999957,completion,,,,,false,,,,666341.8000000119,666341,662542.331,662546.5,662592.246,666388.475,8,400,,,
trial,html.Screen,4_107_0,2023-09-16T18:27:11.137Z,,0,3,,4151.525000000023,response,ISIC_0004075.JPG,197,ISIC_6188469.JPG,ISIC_6188469.JPG,false,0,keypress(z),500,670540.5,670540,666338.57,666342.1000000238,666388.475,670567.78,8,400,8,,ISIC_0004075.JPG
break,html.Screen,4_107_1,2023-09-16T18:27:11.138Z,,0,,,NaN,,,,,,false,,,,670542.1999999881,670541.6000000238,,670541,,670567.78,8,400,,,
break_continue,html.Screen,4_107_2,2023-09-16T18:27:11.139Z,,0,,,NaN,,,,,,false,,,,670543.1000000238,670542.8000000119,,670542.6000000238,,670567.78,8,400,,,
sequence,flow.Sequence,4_107,2023-09-16T18:27:11.140Z,,0,,,4154.325000011944,completion,,,,,false,,,,670543.6999999881,670542.8000000119,666338.57,666342,666388.475,670567.78,8,400,,,
trial,html.Screen,4_108_0,2023-09-16T18:27:14.276Z,,0,3,,3111.820000023814,response,ISIC_0013311.JPG,9,ISIC_0033299.JPG,ISIC_0033299.JPG,false,0,keypress(z),500,673680.1999999881,673679.6000000238,670534.471,670544.1000000238,670567.78,673731.348,8,400,9,,ISIC_0013311.JPG
break,html.Screen,4_108_1,2023-09-16T18:27:14.278Z,,0,,,NaN,,,,,,false,,,,673681.8000000119,673681.1999999881,,673680.5,,673731.348,8,400,,,
break_continue,html.Screen,4_108_2,2023-09-16T18:27:14.279Z,,0,,,NaN,,,,,,false,,,,673682.6999999881,673682.4000000358,,673682.1000000238,,673731.348,8,400,,,
sequence,flow.Sequence,4_108,2023-09-16T18:27:14.279Z,,0,,,3114.620000035735,completion,,,,,false,,,,673683.1000000238,673682.4000000358,670534.471,670544,670567.78,673731.348,8,400,,,
trial,html.Screen,4_109_0,2023-09-16T18:27:18.541Z,,0,3,,4212.552000035765,response,ISIC_9738202.JPG,853,ISIC_4412555.JPG,ISIC_4412555.JPG,false,0,keypress(z),500,677944.4000000358,677943.9000000358,673681.39,673683.5,673731.348,677993.751,8,400,10,,ISIC_9738202.JPG
break,html.Screen,4_109_1,2023-09-16T18:27:18.542Z,,0,,,NaN,,,,,,false,,,,677946.1999999881,677945.6000000238,,677944.8000000119,,677993.751,8,400,,,
break_continue,html.Screen,4_109_2,2023-09-16T18:27:18.543Z,,0,,,NaN,,,,,,false,,,,677947.1000000238,677946.8000000119,,677946.5,,677993.751,8,400,,,
sequence,flow.Sequence,4_109,2023-09-16T18:27:18.544Z,,0,,,4215.452000011923,completion,,,,,false,,,,677947.6000000238,677946.8000000119,673681.39,673683.4000000358,673731.348,677993.751,8,400,,,
trial,html.Screen,4_110_0,2023-09-16T18:27:22.602Z,,0,3,,4011.2489999999525,response,ISIC_0011051.JPG,9,ISIC_0070003.JPG,ISIC_0070003.JPG,false,0,keypress(z),500,682005.6000000238,682005,677943.884,677948,677993.751,682056.427,8,400,11,,ISIC_0011051.JPG
break,html.Screen,4_110_1,2023-09-16T18:27:22.603Z,,0,,,NaN,,,,,,false,,,,682007.3000000119,682006.8000000119,,682006,,682056.427,8,400,,,
break_continue,html.Screen,4_110_2,2023-09-16T18:27:22.604Z,,0,,,NaN,,,,,,false,,,,682008.1999999881,682007.9000000358,,682007.6000000238,,682056.427,8,400,,,
sequence,flow.Sequence,4_110,2023-09-16T18:27:22.605Z,,0,,,4014.1490000357153,completion,,,,,false,,,,682008.6000000238,682007.9000000358,677943.884,677947.9000000358,677993.751,682056.427,8,400,,,
trial,html.Screen,4_111_0,2023-09-16T18:27:26.351Z,,0,3,,3697.4730000357376,response,ISIC_0034170.JPG,540,ISIC_0030820.JPG,ISIC_0034170.JPG,false,1,keypress(m),500,685754.4000000358,685753.9000000358,682006.682,682009,682056.427,685786.222,8,400,12,,ISIC_0030820.JPG
break,html.Screen,4_111_1,2023-09-16T18:27:26.352Z,,0,,,NaN,,,,,,false,,,,685756.1999999881,685755.6000000238,,685754.9000000358,,685786.222,8,400,,,
break_continue,html.Screen,4_111_2,2023-09-16T18:27:26.353Z,,0,,,NaN,,,,,,false,,,,685757.1000000238,685756.8000000119,,685756.4000000358,,685786.222,8,400,,,
sequence,flow.Sequence,4_111,2023-09-16T18:27:26.354Z,,0,,,3700.373000011896,completion,,,,,false,,,,685757.6000000238,685756.8000000119,682006.682,682008.9000000358,682056.427,685786.222,8,400,,,
trial,html.Screen,4_112_0,2023-09-16T18:27:30.412Z,,0,3,,4028.878000023891,response,ISIC_0033902.JPG,9,ISIC_0062313.JPG,ISIC_0062313.JPG,false,0,keypress(z),500,689815.6000000238,689815.1000000238,685752.914,685757.9000000358,685786.222,689865.569,8,400,13,,ISIC_0033902.JPG
break,html.Screen,4_112_1,2023-09-16T18:27:30.414Z,,0,,,NaN,,,,,,false,,,,689817.4000000358,689816.8000000119,,689816,,689865.569,8,400,,,
break_continue,html.Screen,4_112_2,2023-09-16T18:27:30.414Z,,0,,,NaN,,,,,,false,,,,689818.3000000119,689818,,689817.6999999881,,689865.569,8,400,,,
sequence,flow.Sequence,4_112,2023-09-16T18:27:30.415Z,,0,,,4031.7780000000494,completion,,,,,false,,,,689818.8000000119,689818,685752.914,685757.8000000119,685786.222,689865.569,8,400,,,
trial,html.Screen,4_113_0,2023-09-16T18:27:35.395Z,,0,3,,4932.531000023824,response,ISIC_0602494.JPG,728,ISIC_4231346.JPG,ISIC_4231346.JPG,false,0,keypress(z),500,694798.6000000238,694798.1000000238,689815.616,689819.1000000238,689865.569,694827.482,8,400,14,,ISIC_0602494.JPG
break,html.Screen,4_113_1,2023-09-16T18:27:35.397Z,,0,,,NaN,,,,,,false,,,,694800.3000000119,694799.8000000119,,694799.1000000238,,694827.482,8,400,,,
break_continue,html.Screen,4_113_2,2023-09-16T18:27:35.397Z,,0,,,NaN,,,,,,false,,,,694801.3000000119,694801,,694800.6000000238,,694827.482,8,400,,,
sequence,flow.Sequence,4_113,2023-09-16T18:27:35.398Z,,0,,,4935.430999999982,completion,,,,,false,,,,694801.6999999881,694801,689815.616,689819,689865.569,694827.482,8,400,,,
trial,html.Screen,4_114_0,2023-09-16T18:27:40.644Z,,0,3,,5219.217999988119,response,ISIC_4672131.JPG,9,ISIC_0030911.JPG,ISIC_0030911.JPG,false,0,keypress(z),500,700047.6000000238,700046.6999999881,694794.072,694802.1000000238,694827.482,700088.825,8,400,15,,ISIC_4672131.JPG
break,html.Screen,4_114_1,2023-09-16T18:27:40.646Z,,0,,,NaN,,,,,,false,,,,700050.1999999881,700049.6999999881,,700048.4000000358,,700088.825,8,400,,,
break_continue,html.Screen,4_114_2,2023-09-16T18:27:40.647Z,,0,,,NaN,,,,,,false,,,,700051.3000000119,700050.9000000358,,700050.6000000238,,700088.825,8,400,,,
sequence,flow.Sequence,4_114,2023-09-16T18:27:40.648Z,,0,,,5223.418000035803,completion,,,,,false,,,,700051.6999999881,700050.9000000358,694794.072,694801.9000000358,694827.482,700088.825,8,400,,,
trial,html.Screen,4_115_0,2023-09-16T18:27:45.298Z,,0,3,,4612.4750000119675,response,ISIC_0024737.JPG,492,ISIC_0443835.JPG,ISIC_0024737.JPG,false,1,keypress(m),500,704701.9000000358,704701.3000000119,700038.918,700052.1999999881,700088.825,704767.765,8,400,16,,ISIC_0443835.JPG
break,html.Screen,4_115_1,2023-09-16T18:27:45.300Z,,0,,,NaN,,,,,,false,,,,704703.6000000238,704703.1999999881,,704702.5,,704767.765,8,400,,,
break_continue,html.Screen,4_115_2,2023-09-16T18:27:45.301Z,,0,,,NaN,,,,,,false,,,,704704.5,704704.1999999881,,704703.9000000358,,704767.765,8,400,,,
sequence,flow.Sequence,4_115,2023-09-16T18:27:45.301Z,,0,,,4615.374999988126,completion,,,,,false,,,,704704.9000000358,704704.1999999881,700038.918,700052.1000000238,700088.825,704767.765,8,400,,,
trial,html.Screen,4_116_0,2023-09-16T18:27:49.515Z,,0,3,,4150.934999988065,response,ISIC_5584185.JPG,9,ISIC_0952221.JPG,ISIC_0952221.JPG,false,0,keypress(z),500,708919.1999999881,708918.6999999881,704734.297,704705.3000000119,704767.765,708946.908,8,400,17,,ISIC_5584185.JPG
break,html.Screen,4_116_1,2023-09-16T18:27:49.517Z,,0,,,NaN,,,,,,false,,,,708920.9000000358,708920.3000000119,,708919.6999999881,,708946.908,8,400,,,
break_continue,html.Screen,4_116_2,2023-09-16T18:27:49.518Z,,0,,,NaN,,,,,,false,,,,708921.9000000358,708921.6000000238,,708921.3000000119,,708946.908,8,400,,,
sequence,flow.Sequence,4_116,2023-09-16T18:27:49.519Z,,0,,,4153.835000023828,completion,,,,,false,,,,708922.5,708921.6000000238,704734.297,704705.1999999881,704767.765,708946.908,8,400,,,
trial,html.Screen,4_117_0,2023-09-16T18:27:54.795Z,,0,3,,5251.392000011867,response,ISIC_6118204.JPG,618,ISIC_2228511.JPG,ISIC_6118204.JPG,false,1,keypress(m),500,714198.8000000119,714198.3000000119,708913.599,708922.6999999881,708946.908,714225.078,8,400,18,,ISIC_2228511.JPG
break,html.Screen,4_117_1,2023-09-16T18:27:54.797Z,,0,,,NaN,,,,,,false,,,,714200.5,714200,,714199.3000000119,,714225.078,8,400,,,
break_continue,html.Screen,4_117_2,2023-09-16T18:27:54.798Z,,0,,,NaN,,,,,,false,,,,714201.4000000358,714201.1000000238,,714200.8000000119,,714225.078,8,400,,,
sequence,flow.Sequence,4_117,2023-09-16T18:27:54.798Z,,0,,,5254.192000023788,completion,,,,,false,,,,714201.9000000358,714201.1000000238,708913.599,708922.6999999881,708946.908,714225.078,8,400,,,
trial,html.Screen,4_118_0,2023-09-16T18:27:58.794Z,,0,3,,3971.9220000000205,response,ISIC_6370597.JPG,9,ISIC_1595325.JPG,ISIC_1595325.JPG,false,0,keypress(z),500,718197.4000000358,718197,714191.769,714202.3000000119,714225.078,718238.051,8,400,19,,ISIC_6370597.JPG
break,html.Screen,4_118_1,2023-09-16T18:27:58.795Z,,0,,,NaN,,,,,,false,,,,718199.1999999881,718198.6000000238,,718198,,718238.051,8,400,,,
break_continue,html.Screen,4_118_2,2023-09-16T18:27:58.796Z,,0,,,NaN,,,,,,false,,,,718200.1999999881,718199.9000000358,,718199.6000000238,,718238.051,8,400,,,
sequence,flow.Sequence,4_118,2023-09-16T18:27:58.797Z,,0,,,3974.8220000357833,completion,,,,,false,,,,718200.6999999881,718199.9000000358,714191.769,714202.1999999881,714225.078,718238.051,8,400,,,
trial,html.Screen,4_119_0,2023-09-16T18:28:03.433Z,,0,3,,4598.249000011943,response,ISIC_7799968.JPG,337,ISIC_0032094.JPG,ISIC_0032094.JPG,false,0,keypress(z),500,722836.8000000119,722836.3000000119,718187.961,718201.1000000238,718238.051,722866.724,8,400,20,,ISIC_7799968.JPG
break,html.Screen,4_119_1,2023-09-16T18:28:03.435Z,,0,,,NaN,,,,,,false,,,,722838.5,722838,,722837.3000000119,,722866.724,8,400,,,
break_continue,html.Screen,4_119_2,2023-09-16T18:28:03.436Z,,0,,,NaN,,,,,,false,,,,722839.4000000358,722839.1000000238,,722838.8000000119,,722866.724,8,400,,,
sequence,flow.Sequence,4_119,2023-09-16T18:28:03.436Z,,0,,,4601.049000023864,completion,,,,,false,,,,722839.9000000358,722839.1000000238,718187.961,718201,718238.051,722866.724,8,400,,,
trial,html.Screen,4_120_0,2023-09-16T18:28:07.307Z,,0,3,,3843.376000023796,response,ISIC_4307626.JPG,9,ISIC_7579316.JPG,ISIC_4307626.JPG,false,1,keypress(m),500,726710.6000000238,726710.1000000238,722833.288,722840.1999999881,722866.724,726737.118,8,400,21,,ISIC_7579316.JPG
break,html.Screen,4_120_1,2023-09-16T18:28:07.308Z,,0,,,NaN,,,,,,false,,,,726712.3000000119,726711.8000000119,,726711,,726737.118,8,400,,,
break_continue,html.Screen,4_120_2,2023-09-16T18:28:07.309Z,,0,,,NaN,,,,,,false,,,,726713.3000000119,726713,,726712.6000000238,,726737.118,8,400,,,
sequence,flow.Sequence,4_120,2023-09-16T18:28:07.310Z,,0,,,3846.2759999999544,completion,,,,,false,,,,726713.6999999881,726713,722833.288,722840.1000000238,722866.724,726737.118,8,400,,,
trial,html.Screen,4_121_0,2023-09-16T18:28:11.693Z,,0,3,,4359.081999988062,response,ISIC_0058063.JPG,834,ISIC_8214287.JPG,ISIC_8214287.JPG,false,0,keypress(z),500,731096.8000000119,731096.1999999881,726696.176,726714.1000000238,726737.118,731125.21,8,400,22,,ISIC_0058063.JPG
break,html.Screen,4_121_1,2023-09-16T18:28:11.695Z,,0,,,NaN,,,,,,false,,,,731098.4000000358,731097.9000000358,,731097.1000000238,,731125.21,8,400,,,
break_continue,html.Screen,4_121_2,2023-09-16T18:28:11.695Z,,0,,,NaN,,,,,,false,,,,731099.3000000119,731099,,731098.8000000119,,731125.21,8,400,,,
sequence,flow.Sequence,4_121,2023-09-16T18:28:11.696Z,,0,,,4361.881999999983,completion,,,,,false,,,,731099.6999999881,731099,726696.176,726713.9000000358,726737.118,731125.21,8,400,,,
trial,html.Screen,4_122_0,2023-09-16T18:28:15.645Z,,0,3,,3922.890000023879,response,ISIC_0033193.JPG,9,ISIC_3471815.JPG,ISIC_0033193.JPG,false,1,keypress(m),500,735048.6000000238,735048.1000000238,731091.867,731100.1000000238,731125.21,735089.173,8,400,23,,ISIC_3471815.JPG
break,html.Screen,4_122_1,2023-09-16T18:28:15.647Z,,0,,,NaN,,,,,,false,,,,735050.4000000358,735049.8000000119,,735049,,735089.173,8,400,,,
break_continue,html.Screen,4_122_2,2023-09-16T18:28:15.648Z,,0,,,NaN,,,,,,false,,,,735051.4000000358,735051.1000000238,,735050.6999999881,,735089.173,8,400,,,
sequence,flow.Sequence,4_122,2023-09-16T18:28:15.648Z,,0,,,3925.890000023879,completion,,,,,false,,,,735052,735051.1000000238,731091.867,731100,731125.21,735089.173,8,400,,,
trial,html.Screen,4_123_0,2023-09-16T18:28:19.940Z,,0,3,,4254.627000011969,response,ISIC_5557806.JPG,493,ISIC_2513933.JPG,ISIC_2513933.JPG,false,0,keypress(z),500,739344.3000000119,739343.8000000119,735038.066,735052.3000000119,735089.173,739383.984,8,400,24,,ISIC_5557806.JPG
break,html.Screen,4_123_1,2023-09-16T18:28:19.942Z,,0,,,NaN,,,,,,false,,,,739346,739345.5,,739344.8000000119,,739383.984,8,400,,,
break_continue,html.Screen,4_123_2,2023-09-16T18:28:19.943Z,,0,,,NaN,,,,,,false,,,,739346.9000000358,739346.5,,739346.3000000119,,739383.984,8,400,,,
sequence,flow.Sequence,4_123,2023-09-16T18:28:19.944Z,,0,,,4257.327000000048,completion,,,,,false,,,,739347.3000000119,739346.5,735038.066,735052.3000000119,735089.173,739383.984,8,400,,,
trial,html.Screen,4_124_0,2023-09-16T18:28:24.392Z,,0,3,,4411.515999999945,response,ISIC_0022661.JPG,10,ISIC_7530414.JPG,ISIC_0022661.JPG,false,1,keypress(m),500,743796.1000000238,743795.5,739333.846,739347.6999999881,739383.984,743846.105,8,400,25,,ISIC_7530414.JPG
break,html.Screen,4_124_1,2023-09-16T18:28:24.394Z,,0,,,NaN,,,,,,false,,,,743797.6999999881,743797.1999999881,,743796.5,,743846.105,8,400,,,
break_continue,html.Screen,4_124_2,2023-09-16T18:28:24.395Z,,0,,,NaN,,,,,,false,,,,743798.8000000119,743798.4000000358,,743798.1999999881,,743846.105,8,400,,,
sequence,flow.Sequence,4_124,2023-09-16T18:28:24.395Z,,0,,,4414.416000035708,completion,,,,,false,,,,743799.1999999881,743798.4000000358,739333.846,739347.6000000238,739383.984,743846.105,8,400,,,
trial,html.Screen,4_125_0,2023-09-16T18:28:30.390Z,,0,3,,5947.4950000238605,response,ISIC_0033925.JPG,744,ISIC_2266715.JPG,ISIC_2266715.JPG,false,0,keypress(z),500,749794,749793.6000000238,743796.196,743799.6999999881,743846.105,749823.688,8,400,26,,ISIC_0033925.JPG
break,html.Screen,4_125_1,2023-09-16T18:28:30.392Z,,0,,,NaN,,,,,,false,,,,749795.6999999881,749795.1999999881,,749794.5,,749823.688,8,400,,,
break_continue,html.Screen,4_125_2,2023-09-16T18:28:30.393Z,,0,,,NaN,,,,,,false,,,,749796.6000000238,749796.3000000119,,749796,,749823.688,8,400,,,
