sender,sender_type,sender_id,timestamp,meta,,blockNo,condition,duration,ended_on,img_left,img_reveal,img_right,loser,practice,response,response_action,selection_duration,time_commit,time_end,time_render,time_run,time_show,time_switch,total_blocks,total_trials,trialNo,url,winner
informed_consent,html.Screen,0,2023-11-03T18:14:44.821Z,"{""labjs_version"":""20.2.4"",""labjs_build"":{""flavor"":""production"",""commit"":""f5b4a49f956347addd546a832a3327688c2c0fef""},""location"":""https://run.pavlovia.org/MurrayBennett/melanoma-2afc/?participant=66051&platform=sona"",""userAgent"":""Mozilla/5.0 (Windows NT 10.0; Win64; x64) AppleWebKit/537.36 (KHTML, like Gecko) Chrome/118.0.0.0 Safari/537.36 Edg/118.0.2088.76"",""platform"":""Win32"",""language"":""en-US"",""locale"":""en-US"",""timeZone"":""America/Chicago"",""timezoneOffset"":300,""screen_width"":1536,""screen_height"":864,""scroll_width"":1482,""scroll_height"":698,""window_innerWidth"":1482,""window_innerHeight"":746,""devicePixelRatio"":1.25}",,,,9440.913000023842,response,,,,,,consent,click button,,12388.600000023842,12387.100000023842,2379.498,2939.4000000059605,2946.187,12396.345,,,,"{""participant"":""66051"",""platform"":""sona""}",
Welcome,html.Screen,1,2023-11-03T18:15:37.573Z,,,,uniform,52740.85500001788,response,,,,,,continue,click button,,65139.20000001788,65137.20000001788,12379.73,12388.800000011921,12396.345,65147.563,,,,,
trial,html.Screen,2_0_0,2023-11-03T18:15:42.874Z,,0,0,,5292.53700002384,response,ISIC_0025593.JPG,,ISIC_0063388.JPG,ISIC_0025593.JPG,true,1,keypress(m),500,70440.5,70440.10000002384,65130.932,65139.5,65147.563,70447.711,1,6,1,,ISIC_0063388.JPG
sequence,flow.Sequence,2_0,2023-11-03T18:15:42.874Z,,0,,,5292.53700002384,completion,,,,,true,,,,70441,70440.10000002384,65130.932,65139.5,65147.563,70447.711,1,6,,,
trial,html.Screen,2_1_0,2023-11-03T18:15:47.792Z,,0,0,,4910.989000017886,response,ISIC_0028178.JPG,,ISIC_1309015.JPG,ISIC_0028178.JPG,true,1,keypress(m),500,75359,75358.70000001788,70431.241,70441.10000002384,70447.711,75364.454,1,6,2,,ISIC_1309015.JPG
sequence,flow.Sequence,2_1,2023-11-03T18:15:47.793Z,,0,,,4910.989000017886,completion,,,,,true,,,,75359.20000001788,75358.70000001788,70431.241,70441,70447.711,75364.454,1,6,,,
trial,html.Screen,2_2_0,2023-11-03T18:15:52.439Z,,0,0,,4641.146000023844,response,ISIC_3314853.JPG,,ISIC_0031128.JPG,ISIC_3314853.JPG,true,1,keypress(m),500,80005.90000000596,80005.60000002384,75348.068,75359.5,75364.454,80014.836,1,6,3,,ISIC_0031128.JPG
sequence,flow.Sequence,2_2,2023-11-03T18:15:52.440Z,,0,,,4641.146000023844,completion,,,,,true,,,,80006.10000002384,80005.60000002384,75348.068,75359.30000001192,75364.454,80014.836,1,6,,,
trial,html.Screen,2_3_0,2023-11-03T18:15:56.865Z,,0,0,,4416.664000000004,response,ISIC_8980141.JPG,,ISIC_0031612.JPG,ISIC_0031612.JPG,true,0,keypress(z),500,84431.80000001192,84431.5,79998.383,80006.30000001192,80014.836,84448.063,1,6,4,,ISIC_8980141.JPG
sequence,flow.Sequence,2_3,2023-11-03T18:15:56.866Z,,0,,,4416.664000000004,completion,,,,,true,,,,84432.10000002384,84431.5,79998.383,80006.30000001192,80014.836,84448.063,1,6,,,
trial,html.Screen,2_4_0,2023-11-03T18:16:00.408Z,,0,0,,3525.837000005966,response,ISIC_1197737.JPG,,ISIC_9721604.JPG,ISIC_1197737.JPG,true,1,keypress(m),500,87974.20000001788,87973.90000000596,84431.704,84432.40000000596,84448.063,87982.08,1,6,5,,ISIC_9721604.JPG
sequence,flow.Sequence,2_4,2023-11-03T18:16:00.408Z,,0,,,3525.837000005966,completion,,,,,true,,,,87974.60000002384,87973.90000000596,84431.704,84432.40000000596,84448.063,87982.08,1,6,,,
trial,html.Screen,2_5_0,2023-11-03T18:16:04.205Z,,0,0,,3788.9199999999983,response,ISIC_0010681.JPG,,ISIC_0025346.JPG,ISIC_0025346.JPG,true,0,keypress(z),500,91771.40000000596,91771,87965.061,87974.80000001192,87982.08,91781.562,1,6,6,,ISIC_0010681.JPG
sequence,flow.Sequence,2_5,2023-11-03T18:16:04.205Z,,0,,,3788.9199999999983,completion,,,,,true,,,,91772.10000002384,91771,87965.061,87974.80000001192,87982.08,91781.562,1,6,,,
loop,flow.Loop,2,2023-11-03T18:16:04.206Z,,,,,26623.436999999998,completion,,,,,true,,,,91772.40000000596,91771,65130.932,65139.5,65147.563,91781.562,1,6,,,
exp_instructions,html.Screen,3,2023-11-03T18:16:34.138Z,,,,,29921.638000017876,response,,,,,,continue,keypress(Space),,121705,121703.20000001788,91764.984,91772.60000002384,91781.562,121715.755,,,,,
trial,html.Screen,4_0_0,2023-11-03T18:16:38.182Z,,0,1,,4032.2449999999953,response,ISIC_5352684.JPG,9,ISIC_0014985.JPG,ISIC_0014985.JPG,false,0,keypress(z),500,125748.20000001788,125748,121697.271,121705.30000001192,121715.755,125765.798,8,400,1,,ISIC_5352684.JPG
break,html.Screen,4_0_1,2023-11-03T18:16:38.183Z,,0,,,NaN,,,,,,false,,,,125749.80000001192,125749.5,,125748.5,,125765.798,8,400,,,
break_continue,html.Screen,4_0_2,2023-11-03T18:16:38.184Z,,0,,,NaN,,,,,,false,,,,125750.30000001192,125750.20000001788,,125750,,125765.798,8,400,,,
sequence,flow.Sequence,4_0,2023-11-03T18:16:38.184Z,,0,,,4034.4450000178767,completion,,,,,false,,,,125750.40000000596,125750.20000001788,121697.271,121705.30000001192,121715.755,125765.798,8,400,,,
trial,html.Screen,4_1_0,2023-11-03T18:16:42.062Z,,0,1,,3862.3020000238466,response,ISIC_0013184.JPG,0,ISIC_4286715.JPG,ISIC_0013184.JPG,false,1,keypress(m),500,129628.40000000596,129628.10000002384,125748.837,125750.70000001788,125765.798,129632.428,8,400,2,,ISIC_4286715.JPG
break,html.Screen,4_1_1,2023-11-03T18:16:42.064Z,,0,,,NaN,,,,,,false,,,,129630.5,129630.20000001788,,129628.5,,129632.428,8,400,,,
break_continue,html.Screen,4_1_2,2023-11-03T18:16:42.064Z,,0,,,NaN,,,,,,false,,,,129630.90000000596,129630.80000001192,,129630.60000002384,,129632.428,8,400,,,
sequence,flow.Sequence,4_1,2023-11-03T18:16:42.064Z,,0,,,3865.0020000119257,completion,,,,,false,,,,129631.10000002384,129630.80000001192,125748.837,125750.60000002384,125765.798,129632.428,8,400,,,
trial,html.Screen,4_2_0,2023-11-03T18:16:45.910Z,,0,1,,3843.872000011921,response,ISIC_0063617.JPG,9,ISIC_8986997.JPG,ISIC_0063617.JPG,false,1,keypress(m),500,133476.60000002384,133476.30000001192,129616.049,129631.20000001788,129632.428,133484.581,8,400,3,,ISIC_8986997.JPG
break,html.Screen,4_2_1,2023-11-03T18:16:45.911Z,,0,,,NaN,,,,,,false,,,,133478,133477.70000001788,,133476.90000000596,,133484.581,8,400,,,
break_continue,html.Screen,4_2_2,2023-11-03T18:16:45.912Z,,0,,,NaN,,,,,,false,,,,133478.40000000596,133478.30000001192,,133478.20000001788,,133484.581,8,400,,,
sequence,flow.Sequence,4_2,2023-11-03T18:16:45.912Z,,0,,,3845.872000011921,completion,,,,,false,,,,133478.70000001788,133478.30000001192,129616.049,129631.20000001788,129632.428,133484.581,8,400,,,
trial,html.Screen,4_3_0,2023-11-03T18:16:49.663Z,,0,1,,3744.9189999999944,response,ISIC_1067985.JPG,8,ISIC_0348633.JPG,ISIC_1067985.JPG,false,1,keypress(m),500,137229.80000001192,137229.5,133466.085,133478.90000000596,133484.581,137232.583,8,400,4,,ISIC_0348633.JPG
break,html.Screen,4_3_1,2023-11-03T18:16:49.665Z,,0,,,NaN,,,,,,false,,,,137231.30000001192,137231,,137230,,137232.583,8,400,,,
break_continue,html.Screen,4_3_2,2023-11-03T18:16:49.665Z,,0,,,NaN,,,,,,false,,,,137231.70000001788,137231.60000002384,,137231.5,,137232.583,8,400,,,
sequence,flow.Sequence,4_3,2023-11-03T18:16:49.665Z,,0,,,3747.0190000238363,completion,,,,,false,,,,137231.80000001192,137231.60000002384,133466.085,133478.80000001192,133484.581,137232.583,8,400,,,
trial,html.Screen,4_4_0,2023-11-03T18:16:53.094Z,,0,1,,3428.317000005947,response,ISIC_0024398.JPG,14,ISIC_0011626.JPG,ISIC_0011626.JPG,false,0,keypress(z),500,140661.10000002384,140660.90000000596,137216.064,137232.10000002384,137232.583,140665.964,8,400,5,,ISIC_0024398.JPG
break,html.Screen,4_4_1,2023-11-03T18:16:53.096Z,,0,,,NaN,,,,,,false,,,,140662.40000000596,140662.20000001788,,140661.30000001192,,140665.964,8,400,,,
break_continue,html.Screen,4_4_2,2023-11-03T18:16:53.096Z,,0,,,NaN,,,,,,false,,,,140662.80000001192,140662.70000001788,,140662.5,,140665.964,8,400,,,
sequence,flow.Sequence,4_4,2023-11-03T18:16:53.096Z,,0,,,3430.117000017868,completion,,,,,false,,,,140662.90000000596,140662.70000001788,137216.064,137232,137232.583,140665.964,8,400,,,
trial,html.Screen,4_5_0,2023-11-03T18:16:56.703Z,,0,1,,3603.9360000059532,response,ISIC_2232883.JPG,33,ISIC_0071875.JPG,ISIC_0071875.JPG,false,0,keypress(z),500,144270.10000002384,144269.90000000596,140649.371,140663.10000002384,140665.964,144282.745,8,400,6,,ISIC_2232883.JPG
break,html.Screen,4_5_1,2023-11-03T18:16:56.704Z,,0,,,NaN,,,,,,false,,,,144271,144270.80000001192,,144270.30000001192,,144282.745,8,400,,,
break_continue,html.Screen,4_5_2,2023-11-03T18:16:56.705Z,,0,,,NaN,,,,,,false,,,,144271.5,144271.40000000596,,144271.30000001192,,144282.745,8,400,,,
sequence,flow.Sequence,4_5,2023-11-03T18:16:56.705Z,,0,,,3605.4360000059532,completion,,,,,false,,,,144271.70000001788,144271.40000000596,140649.371,140663,140665.964,144282.745,8,400,,,
trial,html.Screen,4_6_0,2023-11-03T18:17:00.024Z,,0,1,,3307.955000017886,response,ISIC_0732375.JPG,6,ISIC_0030089.JPG,ISIC_0030089.JPG,false,0,keypress(z),500,147590.90000000596,147590.70000001788,144266.387,144271.90000000596,144282.745,147599.438,8,400,7,,ISIC_0732375.JPG
break,html.Screen,4_6_1,2023-11-03T18:17:00.025Z,,0,,,NaN,,,,,,false,,,,147591.80000001192,147591.5,,147591,,147599.438,8,400,,,
break_continue,html.Screen,4_6_2,2023-11-03T18:17:00.026Z,,0,,,NaN,,,,,,false,,,,147592.20000001788,147592.10000002384,,147591.90000000596,,147599.438,8,400,,,
sequence,flow.Sequence,4_6,2023-11-03T18:17:00.026Z,,0,,,3309.3550000238465,completion,,,,,false,,,,147592.40000000596,147592.10000002384,144266.387,144271.90000000596,144282.745,147599.438,8,400,,,
trial,html.Screen,4_7_0,2023-11-03T18:17:03.758Z,,0,1,,3725.3620000119263,response,ISIC_0059435.JPG,29,ISIC_0010809.JPG,ISIC_0010809.JPG,false,0,keypress(z),500,151325,151324.80000001192,147582.832,147592.5,147599.438,151332.891,8,400,8,,ISIC_0059435.JPG
break,html.Screen,4_7_1,2023-11-03T18:17:03.759Z,,0,,,NaN,,,,,,false,,,,151326,151325.70000001788,,151325.30000001192,,151332.891,8,400,,,
break_continue,html.Screen,4_7_2,2023-11-03T18:17:03.760Z,,0,,,NaN,,,,,,false,,,,151326.40000000596,151326.30000001192,,151326.10000002384,,151332.891,8,400,,,
sequence,flow.Sequence,4_7,2023-11-03T18:17:03.760Z,,0,,,3726.8620000119263,completion,,,,,false,,,,151326.5,151326.30000001192,147582.832,147592.5,147599.438,151332.891,8,400,,,
trial,html.Screen,4_8_0,2023-11-03T18:17:07.889Z,,0,1,,4123.009000005957,response,ISIC_1379601.JPG,7,ISIC_0065823.JPG,ISIC_0065823.JPG,false,0,keypress(z),500,155456.20000001788,155455.90000000596,151316.371,151326.60000002384,151332.891,155466.268,8,400,9,,ISIC_1379601.JPG
break,html.Screen,4_8_1,2023-11-03T18:17:07.890Z,,0,,,NaN,,,,,,false,,,,155457.20000001788,155456.80000001192,,155456.30000001192,,155466.268,8,400,,,
break_continue,html.Screen,4_8_2,2023-11-03T18:17:07.891Z,,0,,,NaN,,,,,,false,,,,155457.5,155457.40000000596,,155457.30000001192,,155466.268,8,400,,,
sequence,flow.Sequence,4_8,2023-11-03T18:17:07.891Z,,0,,,4124.509000005957,completion,,,,,false,,,,155457.70000001788,155457.40000000596,151316.371,151326.5,151332.891,155466.268,8,400,,,
trial,html.Screen,4_9_0,2023-11-03T18:17:14.936Z,,0,1,,7035.6320000059495,response,ISIC_3392433.JPG,26,ISIC_0069743.JPG,ISIC_0069743.JPG,false,0,keypress(z),500,162502.30000001192,162501.90000000596,155449.764,155457.80000001192,155466.268,162517.331,8,400,10,,ISIC_3392433.JPG
break,html.Screen,4_9_1,2023-11-03T18:17:14.937Z,,0,,,NaN,,,,,,false,,,,162504,162503.70000001788,,162502.60000002384,,162517.331,8,400,,,
break_continue,html.Screen,4_9_2,2023-11-03T18:17:14.938Z,,0,,,NaN,,,,,,false,,,,162504.60000002384,162504.5,,162504.20000001788,,162517.331,8,400,,,
sequence,flow.Sequence,4_9,2023-11-03T18:17:14.938Z,,0,,,7038.231999999989,completion,,,,,false,,,,162504.90000000596,162504.5,155449.764,155457.80000001192,155466.268,162517.331,8,400,,,
trial,html.Screen,4_10_0,2023-11-03T18:17:18.692Z,,0,1,,3741.069000005955,response,ISIC_0033454.JPG,8,ISIC_4603706.JPG,ISIC_0033454.JPG,false,1,keypress(m),500,166258.70000001788,166258.40000000596,162499.736,162505,162517.331,166266.527,8,400,11,,ISIC_4603706.JPG
break,html.Screen,4_10_1,2023-11-03T18:17:18.694Z,,0,,,NaN,,,,,,false,,,,166260.30000001192,166260,,166259.10000002384,,166266.527,8,400,,,
break_continue,html.Screen,4_10_2,2023-11-03T18:17:18.694Z,,0,,,NaN,,,,,,false,,,,166260.80000001192,166260.60000002384,,166260.5,,166266.527,8,400,,,
sequence,flow.Sequence,4_10,2023-11-03T18:17:18.694Z,,0,,,3743.2690000238363,completion,,,,,false,,,,166261,166260.60000002384,162499.736,162505,162517.331,166266.527,8,400,,,
trial,html.Screen,4_11_0,2023-11-03T18:17:23.773Z,,0,1,,5073.1730000178795,response,ISIC_6581765.JPG,21,ISIC_0002041.JPG,ISIC_6581765.JPG,false,1,keypress(m),500,171340,171339.70000001788,166244.043,166261.10000002384,166266.527,171350.164,8,400,12,,ISIC_0002041.JPG
break,html.Screen,4_11_1,2023-11-03T18:17:23.775Z,,0,,,NaN,,,,,,false,,,,171341.30000001192,171341.10000002384,,171340.30000001192,,171350.164,8,400,,,
break_continue,html.Screen,4_11_2,2023-11-03T18:17:23.775Z,,0,,,NaN,,,,,,false,,,,171341.70000001788,171341.60000002384,,171341.40000000596,,171350.164,8,400,,,
sequence,flow.Sequence,4_11,2023-11-03T18:17:23.775Z,,0,,,5075.07300002384,completion,,,,,false,,,,171341.80000001192,171341.60000002384,166244.043,166261.10000002384,166266.527,171350.164,8,400,,,
trial,html.Screen,4_12_0,2023-11-03T18:17:29.349Z,,0,1,,5564.736000005971,response,ISIC_9590080.JPG,6,ISIC_3948754.JPG,ISIC_3948754.JPG,false,0,keypress(z),500,176915.20000001788,176914.90000000596,171333.146,171342,171350.164,176939.966,8,400,13,,ISIC_9590080.JPG
break,html.Screen,4_12_1,2023-11-03T18:17:29.350Z,,0,,,NaN,,,,,,false,,,,176916.40000000596,176916.20000001788,,176915.40000000596,,176939.966,8,400,,,
break_continue,html.Screen,4_12_2,2023-11-03T18:17:29.350Z,,0,,,NaN,,,,,,false,,,,176916.80000001192,176916.70000001788,,176916.5,,176939.966,8,400,,,
sequence,flow.Sequence,4_12,2023-11-03T18:17:29.350Z,,0,,,5566.536000017892,completion,,,,,false,,,,176917.10000002384,176916.70000001788,171333.146,171341.90000000596,171350.164,176939.966,8,400,,,
trial,html.Screen,4_13_0,2023-11-03T18:17:32.859Z,,0,1,,3485.634000023856,response,ISIC_0056849.JPG,9,ISIC_0011209.JPG,ISIC_0056849.JPG,false,1,keypress(m),500,180425.90000000596,180425.60000002384,176900.218,176917.30000001192,176939.966,180433.778,8,400,14,,ISIC_0011209.JPG
break,html.Screen,4_13_1,2023-11-03T18:17:32.861Z,,0,,,NaN,,,,,,false,,,,180427.30000001192,180427.10000002384,,180426.20000001788,,180433.778,8,400,,,
break_continue,html.Screen,4_13_2,2023-11-03T18:17:32.861Z,,0,,,NaN,,,,,,false,,,,180427.70000001788,180427.70000001788,,180427.5,,180433.778,8,400,,,
sequence,flow.Sequence,4_13,2023-11-03T18:17:32.861Z,,0,,,3487.7340000178956,completion,,,,,false,,,,180427.90000000596,180427.70000001788,176900.218,176917.30000001192,176939.966,180433.778,8,400,,,
trial,html.Screen,4_14_0,2023-11-03T18:17:35.990Z,,0,1,,3122.9220000178902,response,ISIC_4292879.JPG,17,ISIC_0072612.JPG,ISIC_0072612.JPG,false,0,keypress(z),500,183556.90000000596,183556.70000001788,180417.069,180428,180433.778,183566.911,8,400,15,,ISIC_4292879.JPG
break,html.Screen,4_14_1,2023-11-03T18:17:35.991Z,,0,,,NaN,,,,,,false,,,,183557.40000000596,183557.30000001192,,183557,,183566.911,8,400,,,
break_continue,html.Screen,4_14_2,2023-11-03T18:17:35.991Z,,0,,,NaN,,,,,,false,,,,183557.70000001788,183557.60000002384,,183557.5,,183566.911,8,400,,,
sequence,flow.Sequence,4_14,2023-11-03T18:17:35.991Z,,0,,,3123.8220000238507,completion,,,,,false,,,,183557.80000001192,183557.60000002384,180417.069,180428,180433.778,183566.911,8,400,,,
trial,html.Screen,4_15_0,2023-11-03T18:17:39.881Z,,0,1,,3880.2890000178886,response,ISIC_8796769.JPG,8,ISIC_9000901.JPG,ISIC_9000901.JPG,false,0,keypress(z),500,187447.40000000596,187447.20000001788,183544.878,183557.90000000596,183566.911,187450.473,8,400,16,,ISIC_8796769.JPG
break,html.Screen,4_15_1,2023-11-03T18:17:39.882Z,,0,,,NaN,,,,,,false,,,,187448.70000001788,187448.5,,187447.60000002384,,187450.473,8,400,,,
break_continue,html.Screen,4_15_2,2023-11-03T18:17:39.882Z,,0,,,NaN,,,,,,false,,,,187449,187448.90000000596,,187448.80000001192,,187450.473,8,400,,,
sequence,flow.Sequence,4_15,2023-11-03T18:17:39.884Z,,0,,,3881.9890000059677,completion,,,,,false,,,,187450.40000000596,187448.90000000596,183544.878,183557.90000000596,183566.911,187450.473,8,400,,,
trial,html.Screen,4_16_0,2023-11-03T18:17:42.977Z,,0,1,,3093.027000000002,response,ISIC_0073043.JPG,12,ISIC_9660528.JPG,ISIC_0073043.JPG,false,1,keypress(m),500,190543.90000000596,190543.5,187433.748,187450.60000002384,187450.473,190551.113,8,400,17,,ISIC_9660528.JPG
break,html.Screen,4_16_1,2023-11-03T18:17:42.979Z,,0,,,NaN,,,,,,false,,,,190545.5,190545.20000001788,,190544.10000002384,,190551.113,8,400,,,
break_continue,html.Screen,4_16_2,2023-11-03T18:17:42.979Z,,0,,,NaN,,,,,,false,,,,190545.90000000596,190545.80000001192,,190545.60000002384,,190551.113,8,400,,,
sequence,flow.Sequence,4_16,2023-11-03T18:17:42.979Z,,0,,,3095.327000011923,completion,,,,,false,,,,190546.10000002384,190545.80000001192,187433.748,187450.5,187450.473,190551.113,8,400,,,
trial,html.Screen,4_17_0,2023-11-03T18:17:46.630Z,,0,1,,3644.9870000238298,response,ISIC_0009911.JPG,9,ISIC_4678416.JPG,ISIC_0009911.JPG,false,1,keypress(m),500,194196.20000001788,194196.10000002384,190534.073,190546.20000001788,190551.113,194200.696,8,400,18,,ISIC_4678416.JPG
break,html.Screen,4_17_1,2023-11-03T18:17:46.630Z,,0,,,NaN,,,,,,false,,,,194197,194196.80000001192,,194196.30000001192,,194200.696,8,400,,,
break_continue,html.Screen,4_17_2,2023-11-03T18:17:46.631Z,,0,,,NaN,,,,,,false,,,,194197.10000002384,194197.10000002384,,194197,,194200.696,8,400,,,
sequence,flow.Sequence,4_17,2023-11-03T18:17:46.631Z,,0,,,3645.9870000238298,completion,,,,,false,,,,194197.30000001192,194197.10000002384,190534.073,190546.20000001788,190551.113,194200.696,8,400,,,
trial,html.Screen,4_18_0,2023-11-03T18:17:51.000Z,,0,1,,4365.804000000004,response,ISIC_6635590.JPG,15,ISIC_3597812.JPG,ISIC_3597812.JPG,false,0,keypress(z),500,198566.80000001192,198566.5,194183.824,194197.30000001192,194200.696,198584.138,8,400,19,,ISIC_6635590.JPG
break,html.Screen,4_18_1,2023-11-03T18:17:51.001Z,,0,,,NaN,,,,,,false,,,,198568.10000002384,198567.90000000596,,198567,,198584.138,8,400,,,
break_continue,html.Screen,4_18_2,2023-11-03T18:17:51.002Z,,0,,,NaN,,,,,,false,,,,198568.40000000596,198568.40000000596,,198568.20000001788,,198584.138,8,400,,,
sequence,flow.Sequence,4_18,2023-11-03T18:17:51.002Z,,0,,,4367.704000005964,completion,,,,,false,,,,198568.60000002384,198568.40000000596,194183.824,194197.30000001192,194200.696,198584.138,8,400,,,
trial,html.Screen,4_19_0,2023-11-03T18:17:54.748Z,,0,1,,3730.062000017875,response,ISIC_0014922.JPG,5,ISIC_0005681.JPG,ISIC_0014922.JPG,false,1,keypress(m),500,202314.40000000596,202314.20000001788,198561.605,198568.70000001788,198584.138,202317.312,8,400,20,,ISIC_0005681.JPG
break,html.Screen,4_19_1,2023-11-03T18:17:54.749Z,,0,,,NaN,,,,,,false,,,,202315.5,202315.30000001192,,202314.5,,202317.312,8,400,,,
break_continue,html.Screen,4_19_2,2023-11-03T18:17:54.749Z,,0,,,NaN,,,,,,false,,,,202315.90000000596,202315.80000001192,,202315.70000001788,,202317.312,8,400,,,
sequence,flow.Sequence,4_19,2023-11-03T18:17:54.749Z,,0,,,3731.6620000119146,completion,,,,,false,,,,202316,202315.80000001192,198561.605,198568.70000001788,198584.138,202317.312,8,400,,,
trial,html.Screen,4_20_0,2023-11-03T18:17:57.856Z,,0,1,,3104.888000017876,response,ISIC_0000401.JPG,27,ISIC_7349440.JPG,ISIC_0000401.JPG,false,1,keypress(m),500,205422.60000002384,205422.20000001788,202300.723,202316.10000002384,202317.312,205434.199,8,400,21,,ISIC_7349440.JPG
break,html.Screen,4_20_1,2023-11-03T18:17:57.857Z,,0,,,NaN,,,,,,false,,,,205423.40000000596,205423.20000001788,,205422.80000001192,,205434.199,8,400,,,
break_continue,html.Screen,4_20_2,2023-11-03T18:17:57.858Z,,0,,,NaN,,,,,,false,,,,205424.10000002384,205424,,205423.70000001788,,205434.199,8,400,,,
sequence,flow.Sequence,4_20,2023-11-03T18:17:57.858Z,,0,,,3106.6879999999946,completion,,,,,false,,,,205424.40000000596,205424,202300.723,202316.10000002384,202317.312,205434.199,8,400,,,
trial,html.Screen,4_21_0,2023-11-03T18:18:01.747Z,,0,1,,3879.6010000119277,response,ISIC_7867077.JPG,9,ISIC_0645116.JPG,ISIC_7867077.JPG,false,1,keypress(m),500,209314.10000002384,209313.80000001192,205417.779,205424.60000002384,205434.199,209319.092,8,400,22,,ISIC_0645116.JPG
break,html.Screen,4_21_1,2023-11-03T18:18:01.749Z,,0,,,NaN,,,,,,false,,,,209315.40000000596,209315.20000001788,,209314.30000001192,,209319.092,8,400,,,
break_continue,html.Screen,4_21_2,2023-11-03T18:18:01.749Z,,0,,,NaN,,,,,,false,,,,209315.70000001788,209315.70000001788,,209315.5,,209319.092,8,400,,,
sequence,flow.Sequence,4_21,2023-11-03T18:18:01.749Z,,0,,,3881.501000017888,completion,,,,,false,,,,209316,209315.70000001788,205417.779,205424.5,205434.199,209319.092,8,400,,,
trial,html.Screen,4_22_0,2023-11-03T18:18:05.743Z,,0,1,,3990.108000017877,response,ISIC_5820693.JPG,16,ISIC_6778515.JPG,ISIC_5820693.JPG,false,1,keypress(m),500,213309.40000000596,213309.20000001788,209301.084,209316.20000001788,209319.092,213318.157,8,400,23,,ISIC_6778515.JPG
break,html.Screen,4_22_1,2023-11-03T18:18:05.744Z,,0,,,NaN,,,,,,false,,,,213310.60000002384,213310.40000000596,,213309.60000002384,,213318.157,8,400,,,
break_continue,html.Screen,4_22_2,2023-11-03T18:18:05.744Z,,0,,,NaN,,,,,,false,,,,213310.90000000596,213310.90000000596,,213310.70000001788,,213318.157,8,400,,,
sequence,flow.Sequence,4_22,2023-11-03T18:18:05.745Z,,0,,,3991.8080000059563,completion,,,,,false,,,,213311.10000002384,213310.90000000596,209301.084,209316.10000002384,209319.092,213318.157,8,400,,,
trial,html.Screen,4_23_0,2023-11-03T18:18:12.137Z,,0,1,,6384.043000017875,response,ISIC_8194835.JPG,5,ISIC_2690597.JPG,ISIC_2690597.JPG,false,0,keypress(z),500,219704,219702.20000001788,213300.947,213311.30000001192,213318.157,219717.747,8,400,24,,ISIC_8194835.JPG
break,html.Screen,4_23_1,2023-11-03T18:18:12.140Z,,0,,,NaN,,,,,,false,,,,219706.60000002384,219705.80000001192,,219704.20000001788,,219717.747,8,400,,,
break_continue,html.Screen,4_23_2,2023-11-03T18:18:12.141Z,,0,,,NaN,,,,,,false,,,,219707.5,219707.30000001192,,219707.10000002384,,219717.747,8,400,,,
sequence,flow.Sequence,4_23,2023-11-03T18:18:12.141Z,,0,,,6389.143000011914,completion,,,,,false,,,,219707.60000002384,219707.30000001192,213300.947,213311.20000001788,213318.157,219717.747,8,400,,,
trial,html.Screen,4_24_0,2023-11-03T18:18:15.495Z,,0,1,,3343.553000011918,response,ISIC_0010797.JPG,10,ISIC_8516223.JPG,ISIC_0010797.JPG,false,1,keypress(m),500,223061.60000002384,223061.30000001192,219701.395,219707.80000001192,219717.747,223067.998,8,400,25,,ISIC_8516223.JPG
break,html.Screen,4_24_1,2023-11-03T18:18:15.496Z,,0,,,NaN,,,,,,false,,,,223062.80000001192,223062.60000002384,,223061.70000001788,,223067.998,8,400,,,
break_continue,html.Screen,4_24_2,2023-11-03T18:18:15.497Z,,0,,,NaN,,,,,,false,,,,223063.20000001788,223063,,223062.90000000596,,223067.998,8,400,,,
sequence,flow.Sequence,4_24,2023-11-03T18:18:15.497Z,,0,,,3345.252999999997,completion,,,,,false,,,,223063.30000001192,223063,219701.395,219707.60000002384,219717.747,223067.998,8,400,,,
trial,html.Screen,4_25_0,2023-11-03T18:18:18.972Z,,0,1,,3469.8020000119286,response,ISIC_9261199.JPG,8,ISIC_7759376.JPG,ISIC_7759376.JPG,false,0,keypress(z),500,226538.20000001788,226537.80000001192,223051.406,223063.40000000596,223067.998,226551.262,8,400,26,,ISIC_9261199.JPG
break,html.Screen,4_25_1,2023-11-03T18:18:18.973Z,,0,,,NaN,,,,,,false,,,,226539.5,226539.30000001192,,226538.60000002384,,226551.262,8,400,,,
break_continue,html.Screen,4_25_2,2023-11-03T18:18:18.973Z,,0,,,NaN,,,,,,false,,,,226540,226539.90000000596,,226539.80000001192,,226551.262,8,400,,,
sequence,flow.Sequence,4_25,2023-11-03T18:18:18.974Z,,0,,,3471.902000005968,completion,,,,,false,,,,226540.30000001192,226539.90000000596,223051.406,223063.40000000596,223067.998,226551.262,8,400,,,
trial,html.Screen,4_26_0,2023-11-03T18:18:22.883Z,,0,1,,3898.238000000012,response,ISIC_0963531.JPG,8,ISIC_0011802.JPG,ISIC_0011802.JPG,false,0,keypress(z),500,230449.90000000596,230449.5,226535.084,226540.40000000596,226551.262,230474.108,8,400,27,,ISIC_0963531.JPG
break,html.Screen,4_26_1,2023-11-03T18:18:22.884Z,,0,,,NaN,,,,,,false,,,,230451.10000002384,230450.90000000596,,230450,,230474.108,8,400,,,
break_continue,html.Screen,4_26_2,2023-11-03T18:18:22.885Z,,0,,,NaN,,,,,,false,,,,230451.70000001788,230451.5,,230451.40000000596,,230474.108,8,400,,,
sequence,flow.Sequence,4_26,2023-11-03T18:18:22.885Z,,0,,,3900.238000000012,completion,,,,,false,,,,230451.80000001192,230451.5,226535.084,226540.40000000596,226551.262,230474.108,8,400,,,
trial,html.Screen,4_27_0,2023-11-03T18:18:26.348Z,,0,1,,3440.4920000238344,response,ISIC_2741857.JPG,28,ISIC_0068628.JPG,ISIC_0068628.JPG,false,0,keypress(z),500,233914.80000001192,233914.60000002384,230434.888,230451.90000000596,230474.108,233918.048,8,400,28,,ISIC_2741857.JPG
break,html.Screen,4_27_1,2023-11-03T18:18:26.349Z,,0,,,NaN,,,,,,false,,,,233916.10000002384,233915.80000001192,,233915,,233918.048,8,400,,,
break_continue,html.Screen,4_27_2,2023-11-03T18:18:26.350Z,,0,,,NaN,,,,,,false,,,,233916.5,233916.40000000596,,233916.20000001788,,233918.048,8,400,,,
sequence,flow.Sequence,4_27,2023-11-03T18:18:26.350Z,,0,,,3442.292000005953,completion,,,,,false,,,,233916.60000002384,233916.40000000596,230434.888,230451.80000001192,230474.108,233918.048,8,400,,,
trial,html.Screen,4_28_0,2023-11-03T18:18:31.479Z,,0,1,,5127.45199999999,response,ISIC_0047031.JPG,9,ISIC_0033444.JPG,ISIC_0047031.JPG,false,1,keypress(m),500,239045.70000001788,239045.5,233901.593,233916.70000001788,233918.048,239051.514,8,400,29,,ISIC_0033444.JPG
break,html.Screen,4_28_1,2023-11-03T18:18:31.481Z,,0,,,NaN,,,,,,false,,,,239047.30000001192,239047,,239046.10000002384,,239051.514,8,400,,,
break_continue,html.Screen,4_28_2,2023-11-03T18:18:31.481Z,,0,,,NaN,,,,,,false,,,,239047.70000001788,239047.60000002384,,239047.40000000596,,239051.514,8,400,,,
sequence,flow.Sequence,4_28,2023-11-03T18:18:31.481Z,,0,,,5129.552000023832,completion,,,,,false,,,,239048,239047.60000002384,233901.593,233916.70000001788,233918.048,239051.514,8,400,,,
trial,html.Screen,4_29_0,2023-11-03T18:18:35.484Z,,0,1,,3998.5860000238463,response,ISIC_8617277.JPG,6,ISIC_0004986.JPG,ISIC_8617277.JPG,false,1,keypress(m),500,243050.5,243050.10000002384,239034.859,239048.20000001788,239051.514,243068.322,8,400,30,,ISIC_0004986.JPG
break,html.Screen,4_29_1,2023-11-03T18:18:35.485Z,,0,,,NaN,,,,,,false,,,,243051.80000001192,243051.60000002384,,243050.70000001788,,243068.322,8,400,,,
break_continue,html.Screen,4_29_2,2023-11-03T18:18:35.486Z,,0,,,NaN,,,,,,false,,,,243052.10000002384,243052.10000002384,,243051.90000000596,,243068.322,8,400,,,
sequence,flow.Sequence,4_29,2023-11-03T18:18:35.486Z,,0,,,4000.5860000238463,completion,,,,,false,,,,243052.30000001192,243052.10000002384,239034.859,239048.10000002384,239051.514,243068.322,8,400,,,
trial,html.Screen,4_30_0,2023-11-03T18:18:38.791Z,,0,1,,3288.578000005975,response,ISIC_0071457.JPG,1,ISIC_4369035.JPG,ISIC_4369035.JPG,false,0,keypress(z),500,246357.20000001788,246356.90000000596,243035.216,243052.5,243068.322,246368.433,8,400,31,,ISIC_0071457.JPG
break,html.Screen,4_30_1,2023-11-03T18:18:38.792Z,,0,,,NaN,,,,,,false,,,,246358.40000000596,246358.10000002384,,246357.40000000596,,246368.433,8,400,,,
break_continue,html.Screen,4_30_2,2023-11-03T18:18:38.792Z,,0,,,NaN,,,,,,false,,,,246358.80000001192,246358.70000001788,,246358.5,,246368.433,8,400,,,
sequence,flow.Sequence,4_30,2023-11-03T18:18:38.792Z,,0,,,3290.378000017896,completion,,,,,false,,,,246358.80000001192,246358.70000001788,243035.216,243052.40000000596,243068.322,246368.433,8,400,,,
trial,html.Screen,4_31_0,2023-11-03T18:18:45.921Z,,0,1,,7119.167000023852,response,ISIC_8956001.JPG,12,ISIC_0028788.JPG,ISIC_0028788.JPG,false,0,keypress(z),500,253487.80000001192,253487.60000002384,246351.955,246359,246368.433,253501.861,8,400,32,,ISIC_8956001.JPG
break,html.Screen,4_31_1,2023-11-03T18:18:45.923Z,,0,,,NaN,,,,,,false,,,,253489.20000001788,253488.80000001192,,253488,,253501.861,8,400,,,
break_continue,html.Screen,4_31_2,2023-11-03T18:18:45.923Z,,0,,,NaN,,,,,,false,,,,253489.60000002384,253489.40000000596,,253489.30000001192,,253501.861,8,400,,,
sequence,flow.Sequence,4_31,2023-11-03T18:18:45.923Z,,0,,,7120.9670000059705,completion,,,,,false,,,,253489.70000001788,253489.40000000596,246351.955,246359,246368.433,253501.861,8,400,,,
trial,html.Screen,4_32_0,2023-11-03T18:18:53.654Z,,0,1,,7718.539000005956,response,ISIC_0033393.JPG,5,ISIC_3817292.JPG,ISIC_3817292.JPG,false,0,keypress(z),500,261220.70000001788,261220.40000000596,253485.391,253489.80000001192,253501.861,261235.538,8,400,33,,ISIC_0033393.JPG
break,html.Screen,4_32_1,2023-11-03T18:18:53.655Z,,0,,,NaN,,,,,,false,,,,261221.60000002384,261221.40000000596,,261220.90000000596,,261235.538,8,400,,,
break_continue,html.Screen,4_32_2,2023-11-03T18:18:53.656Z,,0,,,NaN,,,,,,false,,,,261222.10000002384,261222,,261221.90000000596,,261235.538,8,400,,,
sequence,flow.Sequence,4_32,2023-11-03T18:18:53.656Z,,0,,,7720.138999999996,completion,,,,,false,,,,261222.40000000596,261222,253485.391,253489.80000001192,253501.861,261235.538,8,400,,,
trial,html.Screen,4_33_0,2023-11-03T18:18:58.437Z,,0,1,,4768.162000017881,response,ISIC_6443700.JPG,11,ISIC_0428383.JPG,ISIC_0428383.JPG,false,0,keypress(z),500,266003.90000000596,266003.7000000179,261218.837,261222.40000000596,261235.538,266018.824,8,400,34,,ISIC_6443700.JPG
break,html.Screen,4_33_1,2023-11-03T18:18:58.439Z,,0,,,NaN,,,,,,false,,,,266005.2000000179,266004.90000000596,,266004.10000002384,,266018.824,8,400,,,
break_continue,html.Screen,4_33_2,2023-11-03T18:18:58.439Z,,0,,,NaN,,,,,,false,,,,266005.60000002384,266005.5,,266005.40000000596,,266018.824,8,400,,,
sequence,flow.Sequence,4_33,2023-11-03T18:18:58.439Z,,0,,,4769.9619999999995,completion,,,,,false,,,,266005.8000000119,266005.5,261218.837,261222.40000000596,261235.538,266018.824,8,400,,,
trial,html.Screen,4_34_0,2023-11-03T18:19:05.514Z,,0,1,,7061.876000017859,response,ISIC_0013775.JPG,24,ISIC_1619470.JPG,ISIC_0013775.JPG,false,1,keypress(m),500,273080.90000000596,273080.7000000179,266002.502,266005.90000000596,266018.824,273085.627,8,400,35,,ISIC_1619470.JPG
break,html.Screen,4_34_1,2023-11-03T18:19:05.516Z,,0,,,NaN,,,,,,false,,,,273082.10000002384,273081.90000000596,,273081.10000002384,,273085.627,8,400,,,
break_continue,html.Screen,4_34_2,2023-11-03T18:19:05.516Z,,0,,,NaN,,,,,,false,,,,273082.5,273082.40000000596,,273082.2000000179,,273085.627,8,400,,,
sequence,flow.Sequence,4_34,2023-11-03T18:19:05.516Z,,0,,,7063.576000005938,completion,,,,,false,,,,273082.7000000179,273082.40000000596,266002.502,266005.8000000119,266018.824,273085.627,8,400,,,
trial,html.Screen,4_35_0,2023-11-03T18:19:09.971Z,,0,1,,4451.873000000021,response,ISIC_0053541.JPG,12,ISIC_0063191.JPG,ISIC_0053541.JPG,false,1,keypress(m),500,277537.8000000119,277537.5,273069.208,273082.7000000179,273085.627,277552.346,8,400,36,,ISIC_0063191.JPG
break,html.Screen,4_35_1,2023-11-03T18:19:09.973Z,,0,,,NaN,,,,,,false,,,,277539.10000002384,277538.8000000119,,277538,,277552.346,8,400,,,
break_continue,html.Screen,4_35_2,2023-11-03T18:19:09.973Z,,0,,,NaN,,,,,,false,,,,277539.7000000179,277539.40000000596,,277539.3000000119,,277552.346,8,400,,,
sequence,flow.Sequence,4_35,2023-11-03T18:19:09.973Z,,0,,,4453.773000005982,completion,,,,,false,,,,277539.90000000596,277539.40000000596,273069.208,273082.7000000179,273085.627,277552.346,8,400,,,
trial,html.Screen,4_36_0,2023-11-03T18:19:15.687Z,,0,1,,5701.354000017862,response,ISIC_5874357.JPG,9,ISIC_6553579.JPG,ISIC_6553579.JPG,false,0,keypress(z),500,283254,283253.7000000179,277528.569,277540.10000002384,277552.346,283269.269,8,400,37,,ISIC_5874357.JPG
break,html.Screen,4_36_1,2023-11-03T18:19:15.689Z,,0,,,NaN,,,,,,false,,,,283255.3000000119,283255,,283254.10000002384,,283269.269,8,400,,,
break_continue,html.Screen,4_36_2,2023-11-03T18:19:15.689Z,,0,,,NaN,,,,,,false,,,,283255.7000000179,283255.60000002384,,283255.5,,283269.269,8,400,,,
sequence,flow.Sequence,4_36,2023-11-03T18:19:15.689Z,,0,,,5703.254000023822,completion,,,,,false,,,,283255.8000000119,283255.60000002384,277528.569,277540.10000002384,277552.346,283269.269,8,400,,,
trial,html.Screen,4_37_0,2023-11-03T18:19:18.578Z,,0,1,,2875.3310000238707,response,ISIC_0063447.JPG,6,ISIC_0069056.JPG,ISIC_0063447.JPG,false,1,keypress(m),500,286144.8000000119,286144.60000002384,283252.544,283256,283269.269,286152.624,8,400,38,,ISIC_0069056.JPG
break,html.Screen,4_37_1,2023-11-03T18:19:18.579Z,,0,,,NaN,,,,,,false,,,,286146,286145.8000000119,,286145,,286152.624,8,400,,,
break_continue,html.Screen,4_37_2,2023-11-03T18:19:18.580Z,,0,,,NaN,,,,,,false,,,,286146.40000000596,286146.3000000119,,286146.2000000179,,286152.624,8,400,,,
sequence,flow.Sequence,4_37,2023-11-03T18:19:18.580Z,,0,,,2877.03100001195,completion,,,,,false,,,,286146.5,286146.3000000119,283252.544,283255.90000000596,283269.269,286152.624,8,400,,,
trial,html.Screen,4_38_0,2023-11-03T18:19:22.248Z,,0,1,,3661.976000023831,response,ISIC_0030957.JPG,13,ISIC_3914140.JPG,ISIC_0030957.JPG,false,1,keypress(m),500,289814.90000000596,289814.60000002384,286135.967,286146.7000000179,286152.624,289819.305,8,400,39,,ISIC_3914140.JPG
break,html.Screen,4_38_1,2023-11-03T18:19:22.249Z,,0,,,NaN,,,,,,false,,,,289815.8000000119,289815.7000000179,,289815.2000000179,,289819.305,8,400,,,
break_continue,html.Screen,4_38_2,2023-11-03T18:19:22.250Z,,0,,,NaN,,,,,,false,,,,289816.5,289816.3000000119,,289816.2000000179,,289819.305,8,400,,,
sequence,flow.Sequence,4_38,2023-11-03T18:19:22.250Z,,0,,,3663.67600001191,completion,,,,,false,,,,289816.7000000179,289816.3000000119,286135.967,286146.7000000179,286152.624,289819.305,8,400,,,
trial,html.Screen,4_39_0,2023-11-03T18:19:27.629Z,,0,1,,5376.295000023849,response,ISIC_0024661.JPG,9,ISIC_8513112.JPG,ISIC_8513112.JPG,false,0,keypress(z),500,295195.90000000596,295195.60000002384,289802.614,289816.90000000596,289819.305,295202.951,8,400,40,,ISIC_0024661.JPG
break,html.Screen,4_39_1,2023-11-03T18:19:27.630Z,,0,,,NaN,,,,,,false,,,,295196.90000000596,295196.8000000119,,295196.10000002384,,295202.951,8,400,,,
break_continue,html.Screen,4_39_2,2023-11-03T18:19:27.631Z,,0,,,NaN,,,,,,false,,,,295197.3000000119,295197.3000000119,,295197.10000002384,,295202.951,8,400,,,
sequence,flow.Sequence,4_39,2023-11-03T18:19:27.631Z,,0,,,5377.995000011928,completion,,,,,false,,,,295197.60000002384,295197.3000000119,289802.614,289816.90000000596,289819.305,295202.951,8,400,,,
trial,html.Screen,4_40_0,2023-11-03T18:19:33.097Z,,0,1,,5460.34900001192,response,ISIC_0026302.JPG,13,ISIC_0010878.JPG,ISIC_0026302.JPG,false,1,keypress(m),500,300663.7000000179,300663.3000000119,295196.005,295197.8000000119,295202.951,300670.207,8,400,41,,ISIC_0010878.JPG
break,html.Screen,4_40_1,2023-11-03T18:19:33.099Z,,0,,,NaN,,,,,,false,,,,300665.3000000119,300665,,300664.10000002384,,300670.207,8,400,,,
break_continue,html.Screen,4_40_2,2023-11-03T18:19:33.099Z,,0,,,NaN,,,,,,false,,,,300665.7000000179,300665.60000002384,,300665.40000000596,,300670.207,8,400,,,
sequence,flow.Sequence,4_40,2023-11-03T18:19:33.099Z,,0,,,5462.649000023841,completion,,,,,false,,,,300665.90000000596,300665.60000002384,295196.005,295197.7000000179,295202.951,300670.207,8,400,,,
trial,html.Screen,4_41_0,2023-11-03T18:19:36.560Z,,0,1,,3456.093000011926,response,ISIC_1684829.JPG,12,ISIC_0034104.JPG,ISIC_0034104.JPG,false,0,keypress(z),500,304126.5,304126.3000000119,300653.066,300665.90000000596,300670.207,304136.274,8,400,42,,ISIC_1684829.JPG
break,html.Screen,4_41_1,2023-11-03T18:19:36.561Z,,0,,,NaN,,,,,,false,,,,304127.8000000119,304127.5,,304126.7000000179,,304136.274,8,400,,,
break_continue,html.Screen,4_41_2,2023-11-03T18:19:36.561Z,,0,,,NaN,,,,,,false,,,,304128.10000002384,304128,,304127.90000000596,,304136.274,8,400,,,
sequence,flow.Sequence,4_41,2023-11-03T18:19:36.562Z,,0,,,3457.793000000005,completion,,,,,false,,,,304128.3000000119,304128,300653.066,300665.90000000596,300670.207,304136.274,8,400,,,
trial,html.Screen,4_42_0,2023-11-03T18:19:40.199Z,,0,1,,3629.226000000024,response,ISIC_0030641.JPG,6,ISIC_3509838.JPG,ISIC_3509838.JPG,false,0,keypress(z),500,307765.8000000119,307765.5,304119.804,304128.40000000596,304136.274,307769.733,8,400,43,,ISIC_0030641.JPG
break,html.Screen,4_42_1,2023-11-03T18:19:40.200Z,,0,,,NaN,,,,,,false,,,,307767.10000002384,307766.8000000119,,307766,,307769.733,8,400,,,
break_continue,html.Screen,4_42_2,2023-11-03T18:19:40.201Z,,0,,,NaN,,,,,,false,,,,307767.40000000596,307767.3000000119,,307767.2000000179,,307769.733,8,400,,,
sequence,flow.Sequence,4_42,2023-11-03T18:19:40.201Z,,0,,,3631.026000011945,completion,,,,,false,,,,307767.60000002384,307767.3000000119,304119.804,304128.40000000596,304136.274,307769.733,8,400,,,
trial,html.Screen,4_43_0,2023-11-03T18:19:44.319Z,,0,1,,4115.367000023834,response,ISIC_0055169.JPG,5,ISIC_0054073.JPG,ISIC_0055169.JPG,false,1,keypress(m),500,311885.2000000179,311885.10000002384,307753.187,307767.7000000179,307769.733,311903.205,8,400,44,,ISIC_0054073.JPG
break,html.Screen,4_43_1,2023-11-03T18:19:44.320Z,,0,,,NaN,,,,,,false,,,,311886.60000002384,311886.2000000179,,311885.5,,311903.205,8,400,,,
break_continue,html.Screen,4_43_2,2023-11-03T18:19:44.320Z,,0,,,NaN,,,,,,false,,,,311886.90000000596,311886.8000000119,,311886.7000000179,,311903.205,8,400,,,
sequence,flow.Sequence,4_43,2023-11-03T18:19:44.320Z,,0,,,4117.0670000119135,completion,,,,,false,,,,311887,311886.8000000119,307753.187,307767.7000000179,307769.733,311903.205,8,400,,,
trial,html.Screen,4_44_0,2023-11-03T18:19:49.603Z,,0,1,,5266.395000023826,response,ISIC_7186677.JPG,14,ISIC_7180418.JPG,ISIC_7180418.JPG,false,0,keypress(z),500,317170,317169.60000002384,311879.385,311887.2000000179,311903.205,317186.597,8,400,45,,ISIC_7186677.JPG
break,html.Screen,4_44_1,2023-11-03T18:19:49.605Z,,0,,,NaN,,,,,,false,,,,317171.3000000119,317171,,317170.3000000119,,317186.597,8,400,,,
break_continue,html.Screen,4_44_2,2023-11-03T18:19:49.605Z,,0,,,NaN,,,,,,false,,,,317171.7000000179,317171.60000002384,,317171.40000000596,,317186.597,8,400,,,
sequence,flow.Sequence,4_44,2023-11-03T18:19:49.605Z,,0,,,5268.395000023826,completion,,,,,false,,,,317171.8000000119,317171.60000002384,311879.385,311887.2000000179,311903.205,317186.597,8,400,,,
trial,html.Screen,4_45_0,2023-11-03T18:19:53.384Z,,0,1,,3764.003000023833,response,ISIC_0000135.JPG,9,ISIC_4249893.JPG,ISIC_0000135.JPG,false,1,keypress(m),500,320950.8000000119,320950.60000002384,317170.109,317172,317186.597,320953.572,8,400,46,,ISIC_4249893.JPG
break,html.Screen,4_45_1,2023-11-03T18:19:53.385Z,,0,,,NaN,,,,,,false,,,,320952,320951.8000000119,,320951,,320953.572,8,400,,,
break_continue,html.Screen,4_45_2,2023-11-03T18:19:53.386Z,,0,,,NaN,,,,,,false,,,,320952.40000000596,320952.3000000119,,320952.2000000179,,320953.572,8,400,,,
sequence,flow.Sequence,4_45,2023-11-03T18:19:53.386Z,,0,,,3765.703000011912,completion,,,,,false,,,,320952.60000002384,320952.3000000119,317170.109,317171.90000000596,317186.597,320953.572,8,400,,,
trial,html.Screen,4_46_0,2023-11-03T18:19:59.635Z,,0,1,,6247.928000000014,response,ISIC_4425604.JPG,7,ISIC_6722934.JPG,ISIC_6722934.JPG,false,0,keypress(z),500,327201.8000000119,327201.5,320937.068,320952.7000000179,320953.572,327203.514,8,400,47,,ISIC_4425604.JPG
break,html.Screen,4_46_1,2023-11-03T18:19:59.636Z,,0,,,NaN,,,,,,false,,,,327202.7000000179,327202.60000002384,,327202,,327203.514,8,400,,,
break_continue,html.Screen,4_46_2,2023-11-03T18:19:59.636Z,,0,,,NaN,,,,,,false,,,,327203.10000002384,327203,,327202.90000000596,,327203.514,8,400,,,
sequence,flow.Sequence,4_46,2023-11-03T18:19:59.637Z,,0,,,6249.428000000014,completion,,,,,false,,,,327203.2000000179,327203,320937.068,320952.60000002384,320953.572,327203.514,8,400,,,
trial,html.Screen,4_47_0,2023-11-03T18:20:04.439Z,,0,1,,4801.985999999975,response,ISIC_1334438.JPG,5,ISIC_0001128.JPG,ISIC_1334438.JPG,false,1,keypress(m),500,332005.7000000179,332005.5,327186.846,327203.40000000596,327203.514,332020.246,8,400,48,,ISIC_0001128.JPG
break,html.Screen,4_47_1,2023-11-03T18:20:04.440Z,,0,,,NaN,,,,,,false,,,,332006.90000000596,332006.7000000179,,332005.90000000596,,332020.246,8,400,,,
break_continue,html.Screen,4_47_2,2023-11-03T18:20:04.441Z,,0,,,NaN,,,,,,false,,,,332007.40000000596,332007.3000000119,,332007.2000000179,,332020.246,8,400,,,
sequence,flow.Sequence,4_47,2023-11-03T18:20:04.441Z,,0,,,4803.786000011896,completion,,,,,false,,,,332007.5,332007.3000000119,327186.846,327203.3000000119,327203.514,332020.246,8,400,,,
trial,html.Screen,4_48_0,2023-11-03T18:20:08.684Z,,0,1,,4230.354000023857,response,ISIC_5298216.JPG,22,ISIC_9159730.JPG,ISIC_5298216.JPG,false,1,keypress(m),500,336250.90000000596,336250.60000002384,332003.701,332007.60000002384,332020.246,336253.692,8,400,49,,ISIC_9159730.JPG
break,html.Screen,4_48_1,2023-11-03T18:20:08.686Z,,0,,,NaN,,,,,,false,,,,336252.2000000179,336252,,336251.2000000179,,336253.692,8,400,,,
break_continue,html.Screen,4_48_2,2023-11-03T18:20:08.686Z,,0,,,NaN,,,,,,false,,,,336252.60000002384,336252.5,,336252.3000000119,,336253.692,8,400,,,
sequence,flow.Sequence,4_48,2023-11-03T18:20:08.686Z,,0,,,4232.254000000015,completion,,,,,false,,,,336252.7000000179,336252.5,332003.701,332007.60000002384,332020.246,336253.692,8,400,,,
trial,html.Screen,4_49_0,2023-11-03T18:20:12.135Z,,0,1,,3447.808000000019,response,ISIC_0057963.JPG,10,ISIC_0064125.JPG,ISIC_0057963.JPG,false,1,keypress(m),500,339701.8000000119,339701.5,336237.197,336252.8000000119,336253.692,339726.372,8,400,50,,ISIC_0064125.JPG
break,html.Screen,4_49_1,2023-11-03T18:20:22.139Z,,0,,,9994.323000000033,timeout,,,,,false,,,,349705.2000000179,349704.145,339687.141,339702.10000002384,339726.372,349720.695,8,400,,,
break_continue,html.Screen,4_49_2,2023-11-03T18:20:26.834Z,,0,,,4655.005000017874,response,,,,,false,continue,keypress(Space),,354401,354375.7000000179,349704.145,349705.40000000596,349720.695,354404.102,8,400,,,
sequence,flow.Sequence,4_49,2023-11-03T18:20:26.835Z,,0,,,18122.0080000179,completion,,,,,false,,,,354401.2000000179,354375.7000000179,336237.197,336252.8000000119,336253.692,354404.102,8,400,,,
trial,html.Screen,4_50_0,2023-11-03T18:20:31.125Z,,0,2,,4287.498000023828,response,ISIC_2436560.JPG,9,ISIC_7180096.JPG,ISIC_7180096.JPG,false,0,keypress(z),500,358692,358691.60000002384,354387.453,354401.3000000119,354404.102,358704.248,8,400,1,,ISIC_2436560.JPG
break,html.Screen,4_50_1,2023-11-03T18:20:31.127Z,,0,,,NaN,,,,,,false,,,,358693.3000000119,358693,,358692.2000000179,,358704.248,8,400,,,
break_continue,html.Screen,4_50_2,2023-11-03T18:20:31.127Z,,0,,,NaN,,,,,,false,,,,358693.5,358693.40000000596,,358693.40000000596,,358704.248,8,400,,,
sequence,flow.Sequence,4_50,2023-11-03T18:20:31.127Z,,0,,,4289.298000005947,completion,,,,,false,,,,358693.8000000119,358693.40000000596,354387.453,354401.2000000179,354404.102,358704.248,8,400,,,
trial,html.Screen,4_51_0,2023-11-03T18:20:35.056Z,,0,2,,3917.95200001786,response,ISIC_4482610.JPG,3,ISIC_0011238.JPG,ISIC_0011238.JPG,false,0,keypress(z),500,362622.40000000596,362622.2000000179,358687.696,358693.8000000119,358704.248,362637.925,8,400,2,,ISIC_4482610.JPG
break,html.Screen,4_51_1,2023-11-03T18:20:35.057Z,,0,,,NaN,,,,,,false,,,,362623.60000002384,362623.40000000596,,362622.60000002384,,362637.925,8,400,,,
break_continue,html.Screen,4_51_2,2023-11-03T18:20:35.057Z,,0,,,NaN,,,,,,false,,,,362624,362623.90000000596,,362623.8000000119,,362637.925,8,400,,,
sequence,flow.Sequence,4_51,2023-11-03T18:20:35.058Z,,0,,,3919.652000005939,completion,,,,,false,,,,362624.10000002384,362623.90000000596,358687.696,358693.8000000119,358704.248,362637.925,8,400,,,
trial,html.Screen,4_52_0,2023-11-03T18:20:38.724Z,,0,2,,3652.3750000119326,response,ISIC_5386244.JPG,11,ISIC_8711854.JPG,ISIC_8711854.JPG,false,0,keypress(z),500,366290.60000002384,366290.3000000119,362621.191,362624.3000000119,362637.925,366304.579,8,400,3,,ISIC_5386244.JPG
break,html.Screen,4_52_1,2023-11-03T18:20:38.725Z,,0,,,NaN,,,,,,false,,,,366291.8000000119,366291.60000002384,,366290.8000000119,,366304.579,8,400,,,
break_continue,html.Screen,4_52_2,2023-11-03T18:20:38.726Z,,0,,,NaN,,,,,,false,,,,366292.2000000179,366292.10000002384,,366292,,366304.579,8,400,,,
sequence,flow.Sequence,4_52,2023-11-03T18:20:38.726Z,,0,,,3654.1750000238535,completion,,,,,false,,,,366292.40000000596,366292.10000002384,362621.191,362624.3000000119,362637.925,366304.579,8,400,,,
trial,html.Screen,4_53_0,2023-11-03T18:20:43.149Z,,0,2,,4410.621000017854,response,ISIC_4553633.JPG,32,ISIC_0012081.JPG,ISIC_0012081.JPG,false,0,keypress(z),500,370715.60000002384,370715.2000000179,366287.93,366292.5,366304.579,370721.127,8,400,4,,ISIC_4553633.JPG
break,html.Screen,4_53_1,2023-11-03T18:20:43.151Z,,0,,,NaN,,,,,,false,,,,370717.10000002384,370716.8000000119,,370715.90000000596,,370721.127,8,400,,,
break_continue,html.Screen,4_53_2,2023-11-03T18:20:43.151Z,,0,,,NaN,,,,,,false,,,,370717.7000000179,370717.5,,370717.3000000119,,370721.127,8,400,,,
sequence,flow.Sequence,4_53,2023-11-03T18:20:43.151Z,,0,,,4412.920999999973,completion,,,,,false,,,,370717.8000000119,370717.5,366287.93,366292.40000000596,366304.579,370721.127,8,400,,,
trial,html.Screen,4_54_0,2023-11-03T18:20:46.756Z,,0,2,,3600.773000005982,response,ISIC_0002258.JPG,10,ISIC_5960641.JPG,ISIC_5960641.JPG,false,0,keypress(z),500,374322.2000000179,374321.90000000596,370704.532,370718.10000002384,370721.127,374338.299,8,400,5,,ISIC_0002258.JPG
break,html.Screen,4_54_1,2023-11-03T18:20:46.757Z,,0,,,NaN,,,,,,false,,,,374323.5,374323.3000000119,,374322.5,,374338.299,8,400,,,
break_continue,html.Screen,4_54_2,2023-11-03T18:20:46.757Z,,0,,,NaN,,,,,,false,,,,374323.90000000596,374323.7000000179,,374323.7000000179,,374338.299,8,400,,,
sequence,flow.Sequence,4_54,2023-11-03T18:20:46.757Z,,0,,,3602.573000017903,completion,,,,,false,,,,374324,374323.7000000179,370704.532,370717.90000000596,370721.127,374338.299,8,400,,,
trial,html.Screen,4_55_0,2023-11-03T18:20:52.075Z,,0,2,,5302.601000005961,response,ISIC_0025891.JPG,10,ISIC_0033985.JPG,ISIC_0033985.JPG,false,0,keypress(z),500,379641.2000000179,379640.90000000596,374321.565,374324.2000000179,374338.299,379654.698,8,400,6,,ISIC_0025891.JPG
break,html.Screen,4_55_1,2023-11-03T18:20:52.076Z,,0,,,NaN,,,,,,false,,,,379642.7000000179,379642.40000000596,,379641.5,,379654.698,8,400,,,
break_continue,html.Screen,4_55_2,2023-11-03T18:20:52.076Z,,0,,,NaN,,,,,,false,,,,379643.10000002384,379643,,379642.8000000119,,379654.698,8,400,,,
sequence,flow.Sequence,4_55,2023-11-03T18:20:52.077Z,,0,,,5304.701000000001,completion,,,,,false,,,,379643.3000000119,379643,374321.565,374324.10000002384,374338.299,379654.698,8,400,,,
trial,html.Screen,4_56_0,2023-11-03T18:20:57.009Z,,0,2,,4920.5020000179065,response,ISIC_3222447.JPG,8,ISIC_1067985.JPG,ISIC_1067985.JPG,false,0,keypress(z),500,384575.3000000119,384575.2000000179,379638.203,379643.40000000596,379654.698,384588.319,8,400,7,,ISIC_3222447.JPG
break,html.Screen,4_56_1,2023-11-03T18:20:57.010Z,,0,,,NaN,,,,,,false,,,,384576.60000002384,384576.40000000596,,384575.5,,384588.319,8,400,,,
break_continue,html.Screen,4_56_2,2023-11-03T18:20:57.010Z,,0,,,NaN,,,,,,false,,,,384576.90000000596,384576.90000000596,,384576.7000000179,,384588.319,8,400,,,
sequence,flow.Sequence,4_56,2023-11-03T18:20:57.010Z,,0,,,4922.202000005986,completion,,,,,false,,,,384577.10000002384,384576.90000000596,379638.203,379643.40000000596,379654.698,384588.319,8,400,,,
trial,html.Screen,4_57_0,2023-11-03T18:21:04.522Z,,0,2,,7499.680999999982,response,ISIC_0028087.JPG,5,ISIC_0055624.JPG,ISIC_0028087.JPG,false,1,keypress(m),500,392088.5,392088,384571.779,384577.2000000179,384588.319,392105.021,8,400,8,,ISIC_0055624.JPG
break,html.Screen,4_57_1,2023-11-03T18:21:04.523Z,,0,,,NaN,,,,,,false,,,,392089.8000000119,392089.40000000596,,392088.60000002384,,392105.021,8,400,,,
break_continue,html.Screen,4_57_2,2023-11-03T18:21:04.524Z,,0,,,NaN,,,,,,false,,,,392090.10000002384,392090,,392089.90000000596,,392105.021,8,400,,,
sequence,flow.Sequence,4_57,2023-11-03T18:21:04.524Z,,0,,,7501.680999999982,completion,,,,,false,,,,392090.2000000179,392090,384571.779,384577.2000000179,384588.319,392105.021,8,400,,,
trial,html.Screen,4_58_0,2023-11-03T18:21:08.773Z,,0,2,,4234.6790000178735,response,ISIC_7351939.JPG,10,ISIC_2152875.JPG,ISIC_2152875.JPG,false,0,keypress(z),500,396340.10000002384,396339.7000000179,392088.41,392091.7000000179,392105.021,396355.482,8,400,9,,ISIC_7351939.JPG
break,html.Screen,4_58_1,2023-11-03T18:21:08.775Z,,0,,,NaN,,,,,,false,,,,396341.40000000596,396341.10000002384,,396340.3000000119,,396355.482,8,400,,,
break_continue,html.Screen,4_58_2,2023-11-03T18:21:08.775Z,,0,,,NaN,,,,,,false,,,,396341.7000000179,396341.60000002384,,396341.5,,396355.482,8,400,,,
sequence,flow.Sequence,4_58,2023-11-03T18:21:08.775Z,,0,,,4236.579000023834,completion,,,,,false,,,,396341.8000000119,396341.60000002384,392088.41,392091.5,392105.021,396355.482,8,400,,,
trial,html.Screen,4_59_0,2023-11-03T18:21:13.950Z,,0,2,,5160.818000011903,response,ISIC_9574101.JPG,8,ISIC_0011398.JPG,ISIC_0011398.JPG,false,0,keypress(z),500,401516.7000000179,401516.3000000119,396338.58,396342,396355.482,401522.675,8,400,10,,ISIC_9574101.JPG
break,html.Screen,4_59_1,2023-11-03T18:21:13.951Z,,0,,,NaN,,,,,,false,,,,401517.7000000179,401517.60000002384,,401516.90000000596,,401522.675,8,400,,,
break_continue,html.Screen,4_59_2,2023-11-03T18:21:13.952Z,,0,,,NaN,,,,,,false,,,,401518.10000002384,401518,,401517.90000000596,,401522.675,8,400,,,
sequence,flow.Sequence,4_59,2023-11-03T18:21:13.952Z,,0,,,5162.517999999982,completion,,,,,false,,,,401518.40000000596,401518,396338.58,396342,396355.482,401522.675,8,400,,,
trial,html.Screen,4_60_0,2023-11-03T18:21:17.364Z,,0,2,,3407.025000017893,response,ISIC_0553932.JPG,11,ISIC_0034194.JPG,ISIC_0553932.JPG,false,1,keypress(m),500,404930.10000002384,404929.7000000179,401505.445,401518.7000000179,401522.675,404940.891,8,400,11,,ISIC_0034194.JPG
break,html.Screen,4_60_1,2023-11-03T18:21:17.365Z,,0,,,NaN,,,,,,false,,,,404931.40000000596,404931.10000002384,,404930.3000000119,,404940.891,8,400,,,
break_continue,html.Screen,4_60_2,2023-11-03T18:21:17.365Z,,0,,,NaN,,,,,,false,,,,404931.8000000119,404931.7000000179,,404931.60000002384,,404940.891,8,400,,,
sequence,flow.Sequence,4_60,2023-11-03T18:21:17.365Z,,0,,,3409.025000017893,completion,,,,,false,,,,404931.90000000596,404931.7000000179,401505.445,401518.7000000179,401522.675,404940.891,8,400,,,
trial,html.Screen,4_61_0,2023-11-03T18:21:21.871Z,,0,2,,4495.909000011918,response,ISIC_9412963.JPG,3,ISIC_0011091.JPG,ISIC_0011091.JPG,false,0,keypress(z),500,409437.2000000179,409436.8000000119,404922.175,404932.10000002384,404940.891,409461.711,8,400,12,,ISIC_9412963.JPG
break,html.Screen,4_61_1,2023-11-03T18:21:21.872Z,,0,,,NaN,,,,,,false,,,,409438.60000002384,409438.3000000119,,409437.40000000596,,409461.711,8,400,,,
break_continue,html.Screen,4_61_2,2023-11-03T18:21:21.872Z,,0,,,NaN,,,,,,false,,,,409439,409439,,409438.8000000119,,409461.711,8,400,,,
sequence,flow.Sequence,4_61,2023-11-03T18:21:21.873Z,,0,,,4498.108999999997,completion,,,,,false,,,,409439.2000000179,409439,404922.175,404932.10000002384,404940.891,409461.711,8,400,,,
trial,html.Screen,4_62_0,2023-11-03T18:21:27.044Z,,0,2,,5148.28899999999,response,ISIC_0055911.JPG,12,ISIC_1795529.JPG,ISIC_0055911.JPG,false,1,keypress(m),500,414610.3000000119,414610,409422.19,409439.40000000596,409461.711,414622.191,8,400,13,,ISIC_1795529.JPG
break,html.Screen,4_62_1,2023-11-03T18:21:27.045Z,,0,,,NaN,,,,,,false,,,,414611.7000000179,414611.3000000119,,414610.90000000596,,414622.191,8,400,,,
break_continue,html.Screen,4_62_2,2023-11-03T18:21:27.047Z,,0,,,NaN,,,,,,false,,,,414613.3000000119,414613.2000000179,,414613,,414622.191,8,400,,,
sequence,flow.Sequence,4_62,2023-11-03T18:21:27.047Z,,0,,,5151.489000017871,completion,,,,,false,,,,414613.5,414613.2000000179,409422.19,409439.3000000119,409461.711,414622.191,8,400,,,
trial,html.Screen,4_63_0,2023-11-03T18:21:31.768Z,,0,2,,4712.209000005969,response,ISIC_4459125.JPG,11,ISIC_5769654.JPG,ISIC_4459125.JPG,false,1,keypress(m),500,419334.8000000119,419334.40000000596,414605.749,414613.60000002384,414622.191,419355.621,8,400,14,,ISIC_5769654.JPG
break,html.Screen,4_63_1,2023-11-03T18:21:31.769Z,,0,,,NaN,,,,,,false,,,,419335.90000000596,419335.7000000179,,419335.10000002384,,419355.621,8,400,,,
break_continue,html.Screen,4_63_2,2023-11-03T18:21:31.770Z,,0,,,NaN,,,,,,false,,,,419336.3000000119,419336.2000000179,,419336,,419355.621,8,400,,,
sequence,flow.Sequence,4_63,2023-11-03T18:21:31.770Z,,0,,,4714.00900001789,completion,,,,,false,,,,419336.60000002384,419336.2000000179,414605.749,414613.60000002384,414622.191,419355.621,8,400,,,
trial,html.Screen,4_64_0,2023-11-03T18:21:35.236Z,,0,2,,3446.479000023857,response,ISIC_0046741.JPG,28,ISIC_5367118.JPG,ISIC_5367118.JPG,false,0,keypress(z),500,422802.3000000119,422802.10000002384,419340.536,419336.7000000179,419355.621,422805.642,8,400,15,,ISIC_0046741.JPG
break,html.Screen,4_64_1,2023-11-03T18:21:35.237Z,,0,,,NaN,,,,,,false,,,,422803.40000000596,422803.2000000179,,422802.5,,422805.642,8,400,,,
break_continue,html.Screen,4_64_2,2023-11-03T18:21:35.237Z,,0,,,NaN,,,,,,false,,,,422803.7000000179,422803.7000000179,,422803.60000002384,,422805.642,8,400,,,
sequence,flow.Sequence,4_64,2023-11-03T18:21:35.237Z,,0,,,3448.0790000178968,completion,,,,,false,,,,422803.90000000596,422803.7000000179,419340.536,419336.60000002384,419355.621,422805.642,8,400,,,
trial,html.Screen,4_65_0,2023-11-03T18:21:38.285Z,,0,2,,3045.8580000000075,response,ISIC_0053916.JPG,9,ISIC_0610477.JPG,ISIC_0053916.JPG,false,1,keypress(m),500,425851.7000000179,425851.5,422789.155,422804,422805.642,425855.752,8,400,16,,ISIC_0610477.JPG
break,html.Screen,4_65_1,2023-11-03T18:21:38.286Z,,0,,,NaN,,,,,,false,,,,425852.8000000119,425852.7000000179,,425851.90000000596,,425855.752,8,400,,,
break_continue,html.Screen,4_65_2,2023-11-03T18:21:38.287Z,,0,,,NaN,,,,,,false,,,,425853.2000000179,425853.10000002384,,425853.10000002384,,425855.752,8,400,,,
sequence,flow.Sequence,4_65,2023-11-03T18:21:38.287Z,,0,,,3047.4580000238493,completion,,,,,false,,,,425853.40000000596,425853.10000002384,422789.155,422804,422805.642,425855.752,8,400,,,
trial,html.Screen,4_66_0,2023-11-03T18:21:41.445Z,,0,2,,3155.3480000238633,response,ISIC_9694867.JPG,18,ISIC_0010411.JPG,ISIC_0010411.JPG,false,0,keypress(z),500,429011.40000000596,429011.10000002384,425839.132,425853.5,425855.752,429023.326,8,400,17,,ISIC_9694867.JPG
break,html.Screen,4_66_1,2023-11-03T18:21:41.446Z,,0,,,NaN,,,,,,false,,,,429012.7000000179,429012.40000000596,,429011.5,,429023.326,8,400,,,
break_continue,html.Screen,4_66_2,2023-11-03T18:21:41.446Z,,0,,,NaN,,,,,,false,,,,429013,429012.8000000119,,429012.7000000179,,429023.326,8,400,,,
sequence,flow.Sequence,4_66,2023-11-03T18:21:41.447Z,,0,,,3157.0480000119423,completion,,,,,false,,,,429013.2000000179,429012.8000000119,425839.132,425853.5,425855.752,429023.326,8,400,,,
trial,html.Screen,4_67_0,2023-11-03T18:21:44.656Z,,0,2,,3198.8740000178805,response,ISIC_0862350.JPG,8,ISIC_0024268.JPG,ISIC_0862350.JPG,false,1,keypress(m),500,432222.5,432222.2000000179,429005.938,429013.2000000179,429023.326,432239.239,8,400,18,,ISIC_0024268.JPG
break,html.Screen,4_67_1,2023-11-03T18:21:44.657Z,,0,,,NaN,,,,,,false,,,,432223.7000000179,432223.3000000119,,432222.60000002384,,432239.239,8,400,,,
break_continue,html.Screen,4_67_2,2023-11-03T18:21:44.658Z,,0,,,NaN,,,,,,false,,,,432224.3000000119,432224,,432223.90000000596,,432239.239,8,400,,,
sequence,flow.Sequence,4_67,2023-11-03T18:21:44.658Z,,0,,,3200.673999999999,completion,,,,,false,,,,432224.40000000596,432224,429005.938,429013.2000000179,429023.326,432239.239,8,400,,,
trial,html.Screen,4_68_0,2023-11-03T18:21:47.861Z,,0,2,,3188.161000005959,response,ISIC_0063425.JPG,9,ISIC_0011040.JPG,ISIC_0011040.JPG,false,0,keypress(z),500,435427.7000000179,435427.40000000596,432222.737,432224.5,432239.239,435439.352,8,400,19,,ISIC_0063425.JPG
break,html.Screen,4_68_1,2023-11-03T18:21:47.862Z,,0,,,NaN,,,,,,false,,,,435429.10000002384,435428.7000000179,,435428,,435439.352,8,400,,,
break_continue,html.Screen,4_68_2,2023-11-03T18:21:47.863Z,,0,,,NaN,,,,,,false,,,,435429.60000002384,435429.5,,435429.3000000119,,435439.352,8,400,,,
sequence,flow.Sequence,4_68,2023-11-03T18:21:47.863Z,,0,,,3190.2609999999986,completion,,,,,false,,,,435429.7000000179,435429.5,432222.737,432224.5,432239.239,435439.352,8,400,,,
trial,html.Screen,4_69_0,2023-11-03T18:21:51.229Z,,0,2,,3355.7480000238284,response,ISIC_2843983.JPG,5,ISIC_0029150.JPG,ISIC_2843983.JPG,false,1,keypress(m),500,438795.3000000119,438795.10000002384,435422.755,435429.8000000119,435439.352,438806.087,8,400,20,,ISIC_0029150.JPG
break,html.Screen,4_69_1,2023-11-03T18:21:51.230Z,,0,,,NaN,,,,,,false,,,,438796.5,438796.2000000179,,438795.5,,438806.087,8,400,,,
break_continue,html.Screen,4_69_2,2023-11-03T18:21:51.230Z,,0,,,NaN,,,,,,false,,,,438797,438796.8000000119,,438796.7000000179,,438806.087,8,400,,,
sequence,flow.Sequence,4_69,2023-11-03T18:21:51.231Z,,0,,,3357.4480000119074,completion,,,,,false,,,,438797.2000000179,438796.8000000119,435422.755,435429.8000000119,435439.352,438806.087,8,400,,,
trial,html.Screen,4_70_0,2023-11-03T18:21:55.847Z,,0,2,,4607.313000005961,response,ISIC_0030563.JPG,1,ISIC_0961235.JPG,ISIC_0961235.JPG,false,0,keypress(z),500,443413.7000000179,443413.40000000596,438789.46,438797.5,438806.087,443423.95,8,400,21,,ISIC_0030563.JPG
break,html.Screen,4_70_1,2023-11-03T18:21:55.848Z,,0,,,NaN,,,,,,false,,,,443414.8000000119,443414.60000002384,,443413.8000000119,,443423.95,8,400,,,
break_continue,html.Screen,4_70_2,2023-11-03T18:21:55.849Z,,0,,,NaN,,,,,,false,,,,443415.10000002384,443415.10000002384,,443415,,443423.95,8,400,,,
sequence,flow.Sequence,4_70,2023-11-03T18:21:55.849Z,,0,,,4609.013000023842,completion,,,,,false,,,,443415.3000000119,443415.10000002384,438789.46,438797.40000000596,438806.087,443423.95,8,400,,,
trial,html.Screen,4_71_0,2023-11-03T18:21:59.263Z,,0,2,,3405.5499999999884,response,ISIC_1110583.JPG,10,ISIC_2974214.JPG,ISIC_2974214.JPG,false,0,keypress(z),500,446829.8000000119,446829.5,443406.345,443415.40000000596,443423.95,446839.554,8,400,22,,ISIC_1110583.JPG
break,html.Screen,4_71_1,2023-11-03T18:21:59.265Z,,0,,,NaN,,,,,,false,,,,446831.2000000179,446831,,446830.10000002384,,446839.554,8,400,,,
break_continue,html.Screen,4_71_2,2023-11-03T18:21:59.265Z,,0,,,NaN,,,,,,false,,,,446831.5,446831.5,,446831.3000000119,,446839.554,8,400,,,
sequence,flow.Sequence,4_71,2023-11-03T18:21:59.265Z,,0,,,3407.5499999999884,completion,,,,,false,,,,446831.60000002384,446831.5,443406.345,443415.3000000119,443423.95,446839.554,8,400,,,
trial,html.Screen,4_72_0,2023-11-03T18:22:02.851Z,,0,2,,3577.546000023838,response,ISIC_0030563.JPG,12,ISIC_0028061.JPG,ISIC_0028061.JPG,false,0,keypress(z),500,450417.40000000596,450417.10000002384,446822.993,446831.8000000119,446839.554,450423.001,8,400,23,,ISIC_0030563.JPG
break,html.Screen,4_72_1,2023-11-03T18:22:02.852Z,,0,,,NaN,,,,,,false,,,,450418.7000000179,450418.40000000596,,450417.60000002384,,450423.001,8,400,,,
break_continue,html.Screen,4_72_2,2023-11-03T18:22:02.852Z,,0,,,NaN,,,,,,false,,,,450419,450418.90000000596,,450418.8000000119,,450423.001,8,400,,,
sequence,flow.Sequence,4_72,2023-11-03T18:22:02.853Z,,0,,,3579.3460000059567,completion,,,,,false,,,,450419.10000002384,450418.90000000596,446822.993,446831.8000000119,446839.554,450423.001,8,400,,,
trial,html.Screen,4_73_0,2023-11-03T18:22:07.677Z,,0,2,,4820.299000011932,response,ISIC_0072576.JPG,5,ISIC_7394897.JPG,ISIC_0072576.JPG,false,1,keypress(m),500,455243.7000000179,455243.3000000119,450406.56,450419.3000000119,450423.001,455256.426,8,400,24,,ISIC_7394897.JPG
break,html.Screen,4_73_1,2023-11-03T18:22:07.679Z,,0,,,NaN,,,,,,false,,,,455245.40000000596,455245,,455244,,455256.426,8,400,,,
break_continue,html.Screen,4_73_2,2023-11-03T18:22:07.679Z,,0,,,NaN,,,,,,false,,,,455245.90000000596,455245.7000000179,,455245.5,,455256.426,8,400,,,
sequence,flow.Sequence,4_73,2023-11-03T18:22:07.680Z,,0,,,4822.699000017892,completion,,,,,false,,,,455246.10000002384,455245.7000000179,450406.56,450419.3000000119,450423.001,455256.426,8,400,,,
trial,html.Screen,4_74_0,2023-11-03T18:22:11.367Z,,0,2,,3676.5740000000224,response,ISIC_0032089.JPG,24,ISIC_8252406.JPG,ISIC_0032089.JPG,false,1,keypress(m),500,458933.40000000596,458933,455239.917,455246.2000000179,455256.426,458939.958,8,400,25,,ISIC_8252406.JPG
break,html.Screen,4_74_1,2023-11-03T18:22:11.368Z,,0,,,NaN,,,,,,false,,,,458934.8000000119,458934.5,,458933.7000000179,,458939.958,8,400,,,
break_continue,html.Screen,4_74_2,2023-11-03T18:22:11.369Z,,0,,,NaN,,,,,,false,,,,458935.3000000119,458935.10000002384,,458935,,458939.958,8,400,,,
sequence,flow.Sequence,4_74,2023-11-03T18:22:11.369Z,,0,,,3678.674000023864,completion,,,,,false,,,,458935.40000000596,458935.10000002384,455239.917,455246.2000000179,455256.426,458939.958,8,400,,,
trial,html.Screen,4_75_0,2023-11-03T18:22:15.522Z,,0,2,,4148.142000023858,response,ISIC_0033534.JPG,5,ISIC_5629390.JPG,ISIC_0033534.JPG,false,1,keypress(m),500,463088.40000000596,463088.10000002384,458923.225,458935.60000002384,458939.958,463106.576,8,400,26,,ISIC_5629390.JPG
break,html.Screen,4_75_1,2023-11-03T18:22:15.523Z,,0,,,NaN,,,,,,false,,,,463089.90000000596,463089.5,,463088.7000000179,,463106.576,8,400,,,
break_continue,html.Screen,4_75_2,2023-11-03T18:22:15.524Z,,0,,,NaN,,,,,,false,,,,463090.3000000119,463090.2000000179,,463090.10000002384,,463106.576,8,400,,,
sequence,flow.Sequence,4_75,2023-11-03T18:22:15.524Z,,0,,,4150.242000017897,completion,,,,,false,,,,463090.5,463090.2000000179,458923.225,458935.40000000596,458939.958,463106.576,8,400,,,
trial,html.Screen,4_76_0,2023-11-03T18:22:19.022Z,,0,2,,3482.024000023841,response,ISIC_0027087.JPG,14,ISIC_0032550.JPG,ISIC_0032550.JPG,false,0,keypress(z),500,466588.90000000596,466588.60000002384,463073.589,463090.60000002384,463106.576,466606.721,8,400,27,,ISIC_0027087.JPG
break,html.Screen,4_76_1,2023-11-03T18:22:19.024Z,,0,,,NaN,,,,,,false,,,,466590.10000002384,466589.90000000596,,466589.10000002384,,466606.721,8,400,,,
break_continue,html.Screen,4_76_2,2023-11-03T18:22:19.024Z,,0,,,NaN,,,,,,false,,,,466590.5,466590.40000000596,,466590.2000000179,,466606.721,8,400,,,
sequence,flow.Sequence,4_76,2023-11-03T18:22:19.024Z,,0,,,3483.8240000059595,completion,,,,,false,,,,466590.7000000179,466590.40000000596,463073.589,463090.60000002384,463106.576,466606.721,8,400,,,
trial,html.Screen,4_77_0,2023-11-03T18:22:22.552Z,,0,2,,3511.7789999999804,response,ISIC_5671175.JPG,10,ISIC_4071825.JPG,ISIC_4071825.JPG,false,0,keypress(z),500,470118.8000000119,470118.5,466573.466,466590.8000000119,466606.721,470123.412,8,400,28,,ISIC_5671175.JPG
break,html.Screen,4_77_1,2023-11-03T18:22:22.553Z,,0,,,NaN,,,,,,false,,,,470120,470119.8000000119,,470118.90000000596,,470123.412,8,400,,,
break_continue,html.Screen,4_77_2,2023-11-03T18:22:22.554Z,,0,,,NaN,,,,,,false,,,,470120.3000000119,470120.3000000119,,470120.10000002384,,470123.412,8,400,,,
sequence,flow.Sequence,4_77,2023-11-03T18:22:22.554Z,,0,,,3513.5790000119014,completion,,,,,false,,,,470120.5,470120.3000000119,466573.466,466590.7000000179,466606.721,470123.412,8,400,,,
trial,html.Screen,4_78_0,2023-11-03T18:22:29.981Z,,0,2,,7424.38800001191,response,ISIC_6625102.JPG,2,ISIC_0021442.JPG,ISIC_6625102.JPG,false,1,keypress(m),500,477548.10000002384,477547.8000000119,470106.975,470120.7000000179,470123.412,477557.058,8,400,29,,ISIC_0021442.JPG
break,html.Screen,4_78_1,2023-11-03T18:22:29.982Z,,0,,,NaN,,,,,,false,,,,477549.10000002384,477548.8000000119,,477548.3000000119,,477557.058,8,400,,,
break_continue,html.Screen,4_78_2,2023-11-03T18:22:29.983Z,,0,,,NaN,,,,,,false,,,,477549.7000000179,477549.5,,477549.40000000596,,477557.058,8,400,,,
sequence,flow.Sequence,4_78,2023-11-03T18:22:29.983Z,,0,,,7426.087999999989,completion,,,,,false,,,,477549.90000000596,477549.5,470106.975,470120.60000002384,470123.412,477557.058,8,400,,,
trial,html.Screen,4_79_0,2023-11-03T18:22:33.798Z,,0,2,,3807.742000011902,response,ISIC_0014903.JPG,11,ISIC_2647453.JPG,ISIC_0014903.JPG,false,1,keypress(m),500,481365.10000002384,481364.8000000119,477540.372,477550,477557.058,481374.095,8,400,30,,ISIC_2647453.JPG
break,html.Screen,4_79_1,2023-11-03T18:22:33.800Z,,0,,,NaN,,,,,,false,,,,481366.60000002384,481366.3000000119,,481365.3000000119,,481374.095,8,400,,,
break_continue,html.Screen,4_79_2,2023-11-03T18:22:33.800Z,,0,,,NaN,,,,,,false,,,,481367.10000002384,481367,,481366.8000000119,,481374.095,8,400,,,
sequence,flow.Sequence,4_79,2023-11-03T18:22:33.801Z,,0,,,3809.941999999981,completion,,,,,false,,,,481367.40000000596,481367,477540.372,477550,477557.058,481374.095,8,400,,,
trial,html.Screen,4_80_0,2023-11-03T18:22:37.965Z,,0,2,,4157.105000017909,response,ISIC_1497525.JPG,0,ISIC_2545299.JPG,ISIC_2545299.JPG,false,0,keypress(z),500,485531.60000002384,485531.2000000179,481357.277,481367.5,481374.095,485540.408,8,400,31,,ISIC_1497525.JPG
break,html.Screen,4_80_1,2023-11-03T18:22:37.966Z,,0,,,NaN,,,,,,false,,,,485532.90000000596,485532.60000002384,,485531.8000000119,,485540.408,8,400,,,
break_continue,html.Screen,4_80_2,2023-11-03T18:22:37.967Z,,0,,,NaN,,,,,,false,,,,485533.3000000119,485533.3000000119,,485533.10000002384,,485540.408,8,400,,,
sequence,flow.Sequence,4_80,2023-11-03T18:22:37.967Z,,0,,,4159.205000011949,completion,,,,,false,,,,485533.5,485533.3000000119,481357.277,481367.5,481374.095,485540.408,8,400,,,
trial,html.Screen,4_81_0,2023-11-03T18:22:41.349Z,,0,2,,3374.692000023846,response,ISIC_8592235.JPG,5,ISIC_6809586.JPG,ISIC_6809586.JPG,false,0,keypress(z),500,488915.3000000119,488915.10000002384,485523.677,485533.60000002384,485540.408,488923.813,8,400,32,,ISIC_8592235.JPG
break,html.Screen,4_81_1,2023-11-03T18:22:41.350Z,,0,,,NaN,,,,,,false,,,,488916.5,488916.3000000119,,488915.5,,488923.813,8,400,,,
break_continue,html.Screen,4_81_2,2023-11-03T18:22:41.350Z,,0,,,NaN,,,,,,false,,,,488916.90000000596,488916.8000000119,,488916.7000000179,,488923.813,8,400,,,
sequence,flow.Sequence,4_81,2023-11-03T18:22:41.351Z,,0,,,3376.392000011925,completion,,,,,false,,,,488917,488916.8000000119,485523.677,485533.60000002384,485540.408,488923.813,8,400,,,
trial,html.Screen,4_82_0,2023-11-03T18:22:45.037Z,,0,2,,3679.6869999999763,response,ISIC_3963183.JPG,11,ISIC_6171084.JPG,ISIC_3963183.JPG,false,1,keypress(m),500,492603.8000000119,492603.5,488907.248,488917.10000002384,488923.813,492607.316,8,400,33,,ISIC_6171084.JPG
break,html.Screen,4_82_1,2023-11-03T18:22:45.039Z,,0,,,NaN,,,,,,false,,,,492605,492604.7000000179,,492604.10000002384,,492607.316,8,400,,,
break_continue,html.Screen,4_82_2,2023-11-03T18:22:45.039Z,,0,,,NaN,,,,,,false,,,,492605.7000000179,492605.7000000179,,492605.40000000596,,492607.316,8,400,,,
sequence,flow.Sequence,4_82,2023-11-03T18:22:45.039Z,,0,,,3681.8870000178576,completion,,,,,false,,,,492605.90000000596,492605.7000000179,488907.248,488917.10000002384,488923.813,492607.316,8,400,,,
trial,html.Screen,4_83_0,2023-11-03T18:22:48.039Z,,0,2,,2997.7840000238502,response,ISIC_0072382.JPG,8,ISIC_2200924.JPG,ISIC_0072382.JPG,false,1,keypress(m),500,495605.40000000596,495605.10000002384,492590.853,492606.10000002384,492607.316,495629.884,8,400,34,,ISIC_2200924.JPG
break,html.Screen,4_83_1,2023-11-03T18:22:48.040Z,,0,,,NaN,,,,,,false,,,,495606.8000000119,495606.60000002384,,495605.60000002384,,495629.884,8,400,,,
break_continue,html.Screen,4_83_2,2023-11-03T18:22:48.041Z,,0,,,NaN,,,,,,false,,,,495607.2000000179,495607.10000002384,,495606.90000000596,,495629.884,8,400,,,
sequence,flow.Sequence,4_83,2023-11-03T18:22:48.041Z,,0,,,2999.7840000238502,completion,,,,,false,,,,495607.40000000596,495607.10000002384,492590.853,492606.10000002384,492607.316,495629.884,8,400,,,
trial,html.Screen,4_84_0,2023-11-03T18:22:51.599Z,,0,2,,3535.716000023822,response,ISIC_2935987.JPG,13,ISIC_3737487.JPG,ISIC_2935987.JPG,false,1,keypress(m),500,499165.8000000119,499165.60000002384,495590.787,495607.5,495629.884,499174.244,8,400,35,,ISIC_3737487.JPG
break,html.Screen,4_84_1,2023-11-03T18:22:51.601Z,,0,,,NaN,,,,,,false,,,,499167.10000002384,499166.8000000119,,499166,,499174.244,8,400,,,
break_continue,html.Screen,4_84_2,2023-11-03T18:22:51.601Z,,0,,,NaN,,,,,,false,,,,499167.40000000596,499167.40000000596,,499167.3000000119,,499174.244,8,400,,,
sequence,flow.Sequence,4_84,2023-11-03T18:22:51.601Z,,0,,,3537.5160000059404,completion,,,,,false,,,,499167.5,499167.40000000596,495590.787,495607.5,495629.884,499174.244,8,400,,,
trial,html.Screen,4_85_0,2023-11-03T18:22:54.759Z,,0,2,,3151.4560000178753,response,ISIC_0055022.JPG,5,ISIC_0028477.JPG,ISIC_0055022.JPG,false,1,keypress(m),500,502325.90000000596,502325.7000000179,499157.49,499167.7000000179,499174.244,502340.933,8,400,36,,ISIC_0028477.JPG
break,html.Screen,4_85_1,2023-11-03T18:22:54.761Z,,0,,,NaN,,,,,,false,,,,502327.2000000179,502326.90000000596,,502326.10000002384,,502340.933,8,400,,,
break_continue,html.Screen,4_85_2,2023-11-03T18:22:54.761Z,,0,,,NaN,,,,,,false,,,,502327.60000002384,502327.40000000596,,502327.3000000119,,502340.933,8,400,,,
sequence,flow.Sequence,4_85,2023-11-03T18:22:54.761Z,,0,,,3153.1560000059544,completion,,,,,false,,,,502327.7000000179,502327.40000000596,499157.49,499167.60000002384,499174.244,502340.933,8,400,,,
trial,html.Screen,4_86_0,2023-11-03T18:22:59.856Z,,0,2,,5080.967000005941,response,ISIC_2299749.JPG,17,ISIC_6515546.JPG,ISIC_2299749.JPG,false,1,keypress(m),500,507422.2000000179,507421.90000000596,502324.267,502327.8000000119,502340.933,507446.797,8,400,37,,ISIC_6515546.JPG
break,html.Screen,4_86_1,2023-11-03T18:22:59.857Z,,0,,,NaN,,,,,,false,,,,507423.7000000179,507423.3000000119,,507422.5,,507446.797,8,400,,,
break_continue,html.Screen,4_86_2,2023-11-03T18:22:59.858Z,,0,,,NaN,,,,,,false,,,,507424.3000000119,507424,,507423.90000000596,,507446.797,8,400,,,
sequence,flow.Sequence,4_86,2023-11-03T18:22:59.858Z,,0,,,5083.066999999981,completion,,,,,false,,,,507424.60000002384,507424,502324.267,502327.8000000119,502340.933,507446.797,8,400,,,
trial,html.Screen,4_87_0,2023-11-03T18:23:03.636Z,,0,2,,3755.60300000594,response,ISIC_7895093.JPG,9,ISIC_0026683.JPG,ISIC_7895093.JPG,false,1,keypress(m),500,511202.7000000179,511202.40000000596,507407.725,507424.8000000119,507446.797,511207.63,8,400,38,,ISIC_0026683.JPG
break,html.Screen,4_87_1,2023-11-03T18:23:03.638Z,,0,,,NaN,,,,,,false,,,,511204,511203.8000000119,,511202.90000000596,,511207.63,8,400,,,
break_continue,html.Screen,4_87_2,2023-11-03T18:23:03.638Z,,0,,,NaN,,,,,,false,,,,511204.5,511204.3000000119,,511204.2000000179,,511207.63,8,400,,,
sequence,flow.Sequence,4_87,2023-11-03T18:23:03.638Z,,0,,,3757.5030000119004,completion,,,,,false,,,,511204.60000002384,511204.3000000119,507407.725,507424.7000000179,507446.797,511207.63,8,400,,,
trial,html.Screen,4_88_0,2023-11-03T18:23:07.803Z,,0,2,,4161.770000005956,response,ISIC_0031575.JPG,15,ISIC_6208708.JPG,ISIC_0031575.JPG,false,1,keypress(m),500,515369.7000000179,515369.40000000596,511192.048,511204.7000000179,511207.63,515374.423,8,400,39,,ISIC_6208708.JPG
break,html.Screen,4_88_1,2023-11-03T18:23:07.804Z,,0,,,NaN,,,,,,false,,,,515370.8000000119,515370.7000000179,,515369.90000000596,,515374.423,8,400,,,
break_continue,html.Screen,4_88_2,2023-11-03T18:23:07.805Z,,0,,,NaN,,,,,,false,,,,515371.3000000119,515371.10000002384,,515371,,515374.423,8,400,,,
sequence,flow.Sequence,4_88,2023-11-03T18:23:07.805Z,,0,,,4163.470000023837,completion,,,,,false,,,,515371.3000000119,515371.10000002384,511192.048,511204.7000000179,511207.63,515374.423,8,400,,,
trial,html.Screen,4_89_0,2023-11-03T18:23:11.395Z,,0,2,,3586.57699999999,response,ISIC_0063961.JPG,9,ISIC_9740245.JPG,ISIC_0063961.JPG,false,1,keypress(m),500,518961.2000000179,518961,515357.874,515371.5,515374.423,518974.525,8,400,40,,ISIC_9740245.JPG
break,html.Screen,4_89_1,2023-11-03T18:23:11.396Z,,0,,,NaN,,,,,,false,,,,518962.5,518962.2000000179,,518961.40000000596,,518974.525,8,400,,,
break_continue,html.Screen,4_89_2,2023-11-03T18:23:11.396Z,,0,,,NaN,,,,,,false,,,,518962.8000000119,518962.7000000179,,518962.60000002384,,518974.525,8,400,,,
sequence,flow.Sequence,4_89,2023-11-03T18:23:11.396Z,,0,,,3588.2770000178716,completion,,,,,false,,,,518963,518962.7000000179,515357.874,515371.5,515374.423,518974.525,8,400,,,
trial,html.Screen,4_90_0,2023-11-03T18:23:20.668Z,,0,2,,9259.974999999977,response,ISIC_0781380.JPG,32,ISIC_4721599.JPG,ISIC_0781380.JPG,false,1,keypress(m),500,528234.7000000179,528234.5,518958.581,518963.10000002384,518974.525,528241.387,8,400,41,,ISIC_4721599.JPG
break,html.Screen,4_90_1,2023-11-03T18:23:20.669Z,,0,,,NaN,,,,,,false,,,,528235.900000006,528235.7000000179,,528234.900000006,,528241.387,8,400,,,
break_continue,html.Screen,4_90_2,2023-11-03T18:23:20.670Z,,0,,,NaN,,,,,,false,,,,528236.3000000119,528236.2000000179,,528236,,528241.387,8,400,,,
sequence,flow.Sequence,4_90,2023-11-03T18:23:20.670Z,,0,,,9261.675000017858,completion,,,,,false,,,,528236.5,528236.2000000179,518958.581,518963,518974.525,528241.387,8,400,,,
trial,html.Screen,4_91_0,2023-11-03T18:23:25.586Z,,0,2,,4911.3130000178935,response,ISIC_0067326.JPG,5,ISIC_6398283.JPG,ISIC_0067326.JPG,false,1,keypress(m),500,533153,533152.7000000179,528224.889,528236.6000000238,528241.387,533158.247,8,400,42,,ISIC_6398283.JPG
break,html.Screen,4_91_1,2023-11-03T18:23:25.587Z,,0,,,NaN,,,,,,false,,,,533153.900000006,533153.6000000238,,533153.2000000179,,533158.247,8,400,,,
break_continue,html.Screen,4_91_2,2023-11-03T18:23:25.588Z,,0,,,NaN,,,,,,false,,,,533154.3000000119,533154.2000000179,,533154,,533158.247,8,400,,,
sequence,flow.Sequence,4_91,2023-11-03T18:23:25.588Z,,0,,,4912.8130000178935,completion,,,,,false,,,,533154.400000006,533154.2000000179,528224.889,528236.6000000238,528241.387,533158.247,8,400,,,
trial,html.Screen,4_92_0,2023-11-03T18:23:29.294Z,,0,2,,3700.253000000026,response,ISIC_0026293.JPG,7,ISIC_0006754.JPG,ISIC_0026293.JPG,false,1,keypress(m),500,536860.400000006,536858.5,533142.436,533154.6000000238,533158.247,536875.174,8,400,43,,ISIC_0006754.JPG
break,html.Screen,4_92_1,2023-11-03T18:23:29.296Z,,0,,,NaN,,,,,,false,,,,536862.7000000179,536862.400000006,,536860.6000000238,,536875.174,8,400,,,
break_continue,html.Screen,4_92_2,2023-11-03T18:23:29.297Z,,0,,,NaN,,,,,,false,,,,536863.3000000119,536863.1000000238,,536862.900000006,,536875.174,8,400,,,
sequence,flow.Sequence,4_92,2023-11-03T18:23:29.297Z,,0,,,3704.853000023868,completion,,,,,false,,,,536863.6000000238,536863.1000000238,533142.436,533154.5,533158.247,536875.174,8,400,,,
trial,html.Screen,4_93_0,2023-11-03T18:23:33.447Z,,0,2,,4137.726000005961,response,ISIC_0029660.JPG,6,ISIC_8671702.JPG,ISIC_0029660.JPG,false,1,keypress(m),500,541013.2000000179,541012.900000006,536858.755,536863.7000000179,536875.174,541025.056,8,400,44,,ISIC_8671702.JPG
break,html.Screen,4_93_1,2023-11-03T18:23:33.447Z,,0,,,NaN,,,,,,false,,,,541013.5,541013.5,,541013.3000000119,,541025.056,8,400,,,
break_continue,html.Screen,4_93_2,2023-11-03T18:23:33.447Z,,0,,,NaN,,,,,,false,,,,541013.7000000179,541013.6000000238,,541013.6000000238,,541025.056,8,400,,,
sequence,flow.Sequence,4_93,2023-11-03T18:23:33.447Z,,0,,,4138.426000023843,completion,,,,,false,,,,541013.7000000179,541013.6000000238,536858.755,536863.7000000179,536875.174,541025.056,8,400,,,
trial,html.Screen,4_94_0,2023-11-03T18:23:37.337Z,,0,2,,3878.144000017899,response,ISIC_8766254.JPG,8,ISIC_9745562.JPG,ISIC_8766254.JPG,false,1,keypress(m),500,544903.5,544903.2000000179,541008.379,541013.8000000119,541025.056,544908.879,8,400,45,,ISIC_9745562.JPG
break,html.Screen,4_94_1,2023-11-03T18:23:37.338Z,,0,,,NaN,,,,,,false,,,,544904.7000000179,544904.400000006,,544903.7000000179,,544908.879,8,400,,,
break_continue,html.Screen,4_94_2,2023-11-03T18:23:37.338Z,,0,,,NaN,,,,,,false,,,,544905.1000000238,544905,,544904.900000006,,544908.879,8,400,,,
sequence,flow.Sequence,4_94,2023-11-03T18:23:37.339Z,,0,,,3879.9440000000177,completion,,,,,false,,,,544905.2000000179,544905,541008.379,541013.7000000179,541025.056,544908.879,8,400,,,
trial,html.Screen,4_95_0,2023-11-03T18:23:42.417Z,,0,2,,5074.821000017924,response,ISIC_8493108.JPG,7,ISIC_0640806.JPG,ISIC_0640806.JPG,false,0,keypress(z),500,549983.900000006,549983.7000000179,544892.12,544905.400000006,544908.879,549991.955,8,400,46,,ISIC_8493108.JPG
break,html.Screen,4_95_1,2023-11-03T18:23:42.418Z,,0,,,NaN,,,,,,false,,,,549984.7000000179,549984.5,,549984.1000000238,,549991.955,8,400,,,
break_continue,html.Screen,4_95_2,2023-11-03T18:23:42.419Z,,0,,,NaN,,,,,,false,,,,549985.3000000119,549985.2000000179,,549985,,549991.955,8,400,,,
sequence,flow.Sequence,4_95,2023-11-03T18:23:42.419Z,,0,,,5076.321000017924,completion,,,,,false,,,,549985.5,549985.2000000179,544892.12,544905.400000006,544908.879,549991.955,8,400,,,
trial,html.Screen,4_96_0,2023-11-03T18:23:51.469Z,,0,2,,9043.045000000042,response,ISIC_0031101.JPG,12,ISIC_0011778.JPG,ISIC_0011778.JPG,false,0,keypress(z),500,559035.400000006,559035,549975.617,549985.6000000238,549991.955,559042.117,8,400,47,,ISIC_0031101.JPG
break,html.Screen,4_96_1,2023-11-03T18:23:51.470Z,,0,,,NaN,,,,,,false,,,,559036.900000006,559036.6000000238,,559035.7000000179,,559042.117,8,400,,,
break_continue,html.Screen,4_96_2,2023-11-03T18:23:51.471Z,,0,,,NaN,,,,,,false,,,,559037.400000006,559037.2000000179,,559037.1000000238,,559042.117,8,400,,,
sequence,flow.Sequence,4_96,2023-11-03T18:23:51.471Z,,0,,,9045.245000017923,completion,,,,,false,,,,559037.6000000238,559037.2000000179,549975.617,549985.6000000238,549991.955,559042.117,8,400,,,
trial,html.Screen,4_97_0,2023-11-03T18:23:55.061Z,,0,2,,3584.6830000119517,response,ISIC_0034100.JPG,12,ISIC_0604532.JPG,ISIC_0034100.JPG,false,1,keypress(m),500,562627.2000000179,562626.8000000119,559026.154,559037.8000000119,559042.117,562642.116,8,400,48,,ISIC_0604532.JPG
break,html.Screen,4_97_1,2023-11-03T18:23:55.062Z,,0,,,NaN,,,,,,false,,,,562628.5,562628.3000000119,,562627.400000006,,562642.116,8,400,,,
break_continue,html.Screen,4_97_2,2023-11-03T18:23:55.062Z,,0,,,NaN,,,,,,false,,,,562629.1000000238,562628.900000006,,562628.8000000119,,562642.116,8,400,,,
sequence,flow.Sequence,4_97,2023-11-03T18:23:55.063Z,,0,,,3586.783000005991,completion,,,,,false,,,,562629.2000000179,562628.900000006,559026.154,559037.7000000179,559042.117,562642.116,8,400,,,
trial,html.Screen,4_98_0,2023-11-03T18:23:58.192Z,,0,2,,3116.383999999962,response,ISIC_1211506.JPG,9,ISIC_0011032.JPG,ISIC_0011032.JPG,false,0,keypress(z),500,565758.7000000179,565758.5,562625.806,562629.400000006,562642.116,565775.97,8,400,49,,ISIC_1211506.JPG
break,html.Screen,4_98_1,2023-11-03T18:23:58.193Z,,0,,,NaN,,,,,,false,,,,565760.1000000238,565759.900000006,,565759,,565775.97,8,400,,,
break_continue,html.Screen,4_98_2,2023-11-03T18:23:58.194Z,,0,,,NaN,,,,,,false,,,,565760.7000000179,565760.5,,565760.2000000179,,565775.97,8,400,,,
sequence,flow.Sequence,4_98,2023-11-03T18:23:58.194Z,,0,,,3118.383999999962,completion,,,,,false,,,,565760.900000006,565760.5,562625.806,562629.3000000119,562642.116,565775.97,8,400,,,
trial,html.Screen,4_99_0,2023-11-03T18:24:01.451Z,,0,2,,3241.4300000059884,response,ISIC_0062382.JPG,9,ISIC_1497800.JPG,ISIC_0062382.JPG,false,1,keypress(m),500,569017.7000000179,569017.400000006,565759.247,565761.1000000238,565775.97,569042.312,8,400,50,,ISIC_1497800.JPG
break,html.Screen,4_99_1,2023-11-03T18:24:11.461Z,,0,,,10000.34899999993,timeout,,,,,false,,,,579027.3000000119,579026.174,569025.724,569017.900000006,569042.312,579042.661,8,400,,,
break_continue,html.Screen,4_99_2,2023-11-03T18:24:55.521Z,,0,,,44010.839000000036,response,,,,,false,continue,keypress(Space),,623087.3000000119,623053.5,579026.174,579027.400000006,579042.661,623093.522,8,400,,,
sequence,flow.Sequence,4_99,2023-11-03T18:24:55.521Z,,0,,,57277.53000000003,completion,,,,,false,,,,623087.6000000238,623053.5,565759.247,565761,565775.97,623093.522,8,400,,,
trial,html.Screen,4_100_0,2023-11-03T18:25:01.339Z,,0,3,,5811.978000000003,response,ISIC_0015245.JPG,6,ISIC_0064342.JPG,ISIC_0064342.JPG,false,0,keypress(z),500,628905.8000000119,628905.5,623076.898,623087.7000000179,623093.522,628910.327,8,400,1,,ISIC_0015245.JPG
break,html.Screen,4_100_1,2023-11-03T18:25:01.341Z,,0,,,NaN,,,,,,false,,,,628907.2000000179,628906.900000006,,628906,,628910.327,8,400,,,
break_continue,html.Screen,4_100_2,2023-11-03T18:25:01.341Z,,0,,,NaN,,,,,,false,,,,628907.5,628907.400000006,,628907.3000000119,,628910.327,8,400,,,
sequence,flow.Sequence,4_100,2023-11-03T18:25:01.341Z,,0,,,5813.878000005963,completion,,,,,false,,,,628907.6000000238,628907.400000006,623076.898,623087.6000000238,623093.522,628910.327,8,400,,,
trial,html.Screen,4_101_0,2023-11-03T18:25:04.496Z,,0,3,,3151.373000017833,response,ISIC_4296456.JPG,10,ISIC_0667763.JPG,ISIC_0667763.JPG,false,0,keypress(z),500,632062.1000000238,632061.7000000179,628893.772,628907.7000000179,628910.327,632077.224,8,400,2,,ISIC_4296456.JPG
break,html.Screen,4_101_1,2023-11-03T18:25:04.497Z,,0,,,NaN,,,,,,false,,,,632063.400000006,632063.1000000238,,632062.3000000119,,632077.224,8,400,,,
break_continue,html.Screen,4_101_2,2023-11-03T18:25:04.497Z,,0,,,NaN,,,,,,false,,,,632063.7000000179,632063.6000000238,,632063.5,,632077.224,8,400,,,
sequence,flow.Sequence,4_101,2023-11-03T18:25:04.497Z,,0,,,3153.2730000237934,completion,,,,,false,,,,632063.8000000119,632063.6000000238,628893.772,628907.7000000179,628910.327,632077.224,8,400,,,
trial,html.Screen,4_102_0,2023-11-03T18:25:08.121Z,,0,3,,3609.876000023796,response,ISIC_7319686.JPG,25,ISIC_0032598.JPG,ISIC_0032598.JPG,false,0,keypress(z),500,635687.5,635687.1000000238,632060.433,632063.900000006,632077.224,635693.886,8,400,3,,ISIC_7319686.JPG
break,html.Screen,4_102_1,2023-11-03T18:25:08.122Z,,0,,,NaN,,,,,,false,,,,635688.8000000119,635688.6000000238,,635687.8000000119,,635693.886,8,400,,,
break_continue,html.Screen,4_102_2,2023-11-03T18:25:08.123Z,,0,,,NaN,,,,,,false,,,,635689.3000000119,635689.1000000238,,635688.900000006,,635693.886,8,400,,,
sequence,flow.Sequence,4_102,2023-11-03T18:25:08.123Z,,0,,,3611.876000023796,completion,,,,,false,,,,635689.400000006,635689.1000000238,632060.433,632063.900000006,632077.224,635693.886,8,400,,,
trial,html.Screen,4_103_0,2023-11-03T18:25:12.774Z,,0,3,,4645.814000017825,response,ISIC_1080647.JPG,9,ISIC_9486313.JPG,ISIC_1080647.JPG,false,1,keypress(m),500,640340,640339.7000000179,635677.45,635689.400000006,635693.886,640343.871,8,400,4,,ISIC_9486313.JPG
break,html.Screen,4_103_1,2023-11-03T18:25:12.775Z,,0,,,NaN,,,,,,false,,,,640341.6000000238,640341.2000000179,,640340.400000006,,640343.871,8,400,,,
break_continue,html.Screen,4_103_2,2023-11-03T18:25:12.777Z,,0,,,NaN,,,,,,false,,,,640343.400000006,640341.900000006,,640341.7000000179,,640343.871,8,400,,,
sequence,flow.Sequence,4_103,2023-11-03T18:25:12.777Z,,0,,,4648.014000005904,completion,,,,,false,,,,640343.7000000179,640341.900000006,635677.45,635689.400000006,635693.886,640343.871,8,400,,,
trial,html.Screen,4_104_0,2023-11-03T18:25:17.324Z,,0,3,,4545.929000011878,response,ISIC_0011039.JPG,0,ISIC_5425721.JPG,ISIC_0011039.JPG,false,1,keypress(m),500,644890.1000000238,644889.8000000119,640327.323,640343.8000000119,640343.871,644894.014,8,400,5,,ISIC_5425721.JPG
break,html.Screen,4_104_1,2023-11-03T18:25:17.325Z,,0,,,NaN,,,,,,false,,,,644891.3000000119,644891,,644890.2000000179,,644894.014,8,400,,,
break_continue,html.Screen,4_104_2,2023-11-03T18:25:17.325Z,,0,,,NaN,,,,,,false,,,,644891.7000000179,644891.6000000238,,644891.5,,644894.014,8,400,,,
sequence,flow.Sequence,4_104,2023-11-03T18:25:17.325Z,,0,,,4547.729000023799,completion,,,,,false,,,,644891.8000000119,644891.6000000238,640327.323,640343.7000000179,640343.871,644894.014,8,400,,,
trial,html.Screen,4_105_0,2023-11-03T18:25:22.196Z,,0,3,,4867.9860000000335,response,ISIC_5982769.JPG,8,ISIC_4924690.JPG,ISIC_5982769.JPG,false,1,keypress(m),500,649762.400000006,649762,644877.493,644892,644894.014,649777.417,8,400,6,,ISIC_4924690.JPG
break,html.Screen,4_105_1,2023-11-03T18:25:22.197Z,,0,,,NaN,,,,,,false,,,,649763.7000000179,649763.400000006,,649762.6000000238,,649777.417,8,400,,,
break_continue,html.Screen,4_105_2,2023-11-03T18:25:22.198Z,,0,,,NaN,,,,,,false,,,,649764.3000000119,649764.1000000238,,649764,,649777.417,8,400,,,
sequence,flow.Sequence,4_105,2023-11-03T18:25:22.198Z,,0,,,4870.086000023875,completion,,,,,false,,,,649764.5,649764.1000000238,644877.493,644891.900000006,644894.014,649777.417,8,400,,,
trial,html.Screen,4_106_0,2023-11-03T18:25:27.064Z,,0,3,,4852.783000017866,response,ISIC_5101111.JPG,25,ISIC_0033444.JPG,ISIC_5101111.JPG,false,1,keypress(m),500,654630.5,654630.2000000179,649761.05,649764.7000000179,649777.417,654644.294,8,400,7,,ISIC_0033444.JPG
break,html.Screen,4_106_1,2023-11-03T18:25:27.065Z,,0,,,NaN,,,,,,false,,,,654631.8000000119,654631.6000000238,,654630.7000000179,,654644.294,8,400,,,
break_continue,html.Screen,4_106_2,2023-11-03T18:25:27.066Z,,0,,,NaN,,,,,,false,,,,654632.1000000238,654632,,654631.900000006,,654644.294,8,400,,,
sequence,flow.Sequence,4_106,2023-11-03T18:25:27.066Z,,0,,,4854.582999999984,completion,,,,,false,,,,654632.3000000119,654632,649761.05,649764.7000000179,649777.417,654644.294,8,400,,,
trial,html.Screen,4_107_0,2023-11-03T18:25:33.105Z,,0,3,,6026.806000023847,response,ISIC_0067467.JPG,6,ISIC_9571842.JPG,ISIC_9571842.JPG,false,0,keypress(z),500,660671.400000006,660671.1000000238,654627.732,654632.400000006,654644.294,660677.722,8,400,8,,ISIC_0067467.JPG
break,html.Screen,4_107_1,2023-11-03T18:25:33.106Z,,0,,,NaN,,,,,,false,,,,660672.7000000179,660672.400000006,,660671.7000000179,,660677.722,8,400,,,
break_continue,html.Screen,4_107_2,2023-11-03T18:25:33.107Z,,0,,,NaN,,,,,,false,,,,660673,660672.900000006,,660672.7000000179,,660677.722,8,400,,,
sequence,flow.Sequence,4_107,2023-11-03T18:25:33.107Z,,0,,,6028.606000005966,completion,,,,,false,,,,660673.2000000179,660672.900000006,654627.732,654632.3000000119,654644.294,660677.722,8,400,,,
trial,html.Screen,4_108_0,2023-11-03T18:25:36.871Z,,0,3,,3759.17800000601,response,ISIC_6571597.JPG,10,ISIC_5298608.JPG,ISIC_5298608.JPG,false,0,keypress(z),500,664437.3000000119,664436.900000006,660661.053,660673.3000000119,660677.722,664444.455,8,400,9,,ISIC_6571597.JPG
break,html.Screen,4_108_1,2023-11-03T18:25:36.871Z,,0,,,NaN,,,,,,false,,,,664438.1000000238,664438,,664437.5,,664444.455,8,400,,,
break_continue,html.Screen,4_108_2,2023-11-03T18:25:36.872Z,,0,,,NaN,,,,,,false,,,,664438.7000000179,664438.6000000238,,664438.3000000119,,664444.455,8,400,,,
sequence,flow.Sequence,4_108,2023-11-03T18:25:36.872Z,,0,,,3760.878000023891,completion,,,,,false,,,,664438.900000006,664438.6000000238,660661.053,660673.3000000119,660677.722,664444.455,8,400,,,
trial,html.Screen,4_109_0,2023-11-03T18:25:40.252Z,,0,3,,3373.6450000238838,response,ISIC_4474352.JPG,24,ISIC_0011446.JPG,ISIC_0011446.JPG,false,0,keypress(z),500,667818.5,667818.1000000238,664427.812,664439,664444.455,667827.816,8,400,10,,ISIC_4474352.JPG
break,html.Screen,4_109_1,2023-11-03T18:25:40.253Z,,0,,,NaN,,,,,,false,,,,667820,667819.7000000179,,667818.8000000119,,667827.816,8,400,,,
break_continue,html.Screen,4_109_2,2023-11-03T18:25:40.254Z,,0,,,NaN,,,,,,false,,,,667820.400000006,667820.3000000119,,667820.2000000179,,667827.816,8,400,,,
sequence,flow.Sequence,4_109,2023-11-03T18:25:40.254Z,,0,,,3375.845000011963,completion,,,,,false,,,,667820.5,667820.3000000119,664427.812,664439,664444.455,667827.816,8,400,,,
trial,html.Screen,4_110_0,2023-11-03T18:25:44.069Z,,0,3,,3807.1840000000084,response,ISIC_2603420.JPG,10,ISIC_0071906.JPG,ISIC_0071906.JPG,false,0,keypress(z),500,671635.3000000119,671635,667811.508,667820.7000000179,667827.816,671644.59,8,400,11,,ISIC_2603420.JPG
break,html.Screen,4_110_1,2023-11-03T18:25:44.070Z,,0,,,NaN,,,,,,false,,,,671636.5,671636.3000000119,,671635.5,,671644.59,8,400,,,
break_continue,html.Screen,4_110_2,2023-11-03T18:25:44.070Z,,0,,,NaN,,,,,,false,,,,671636.900000006,671636.8000000119,,671636.7000000179,,671644.59,8,400,,,
sequence,flow.Sequence,4_110,2023-11-03T18:25:44.070Z,,0,,,3808.9840000119293,completion,,,,,false,,,,671637.1000000238,671636.8000000119,667811.508,667820.7000000179,667827.816,671644.59,8,400,,,
trial,html.Screen,4_111_0,2023-11-03T18:25:47.728Z,,0,3,,3649.810000005993,response,ISIC_4023381.JPG,27,ISIC_9155855.JPG,ISIC_9155855.JPG,false,0,keypress(z),500,675294.7000000179,675294.400000006,671628.073,671637.1000000238,671644.59,675311.602,8,400,12,,ISIC_4023381.JPG
break,html.Screen,4_111_1,2023-11-03T18:25:47.729Z,,0,,,NaN,,,,,,false,,,,675295.8000000119,675295.7000000179,,675294.900000006,,675311.602,8,400,,,
break_continue,html.Screen,4_111_2,2023-11-03T18:25:47.730Z,,0,,,NaN,,,,,,false,,,,675296.3000000119,675296.1000000238,,675296,,675311.602,8,400,,,
sequence,flow.Sequence,4_111,2023-11-03T18:25:47.730Z,,0,,,3651.5100000238745,completion,,,,,false,,,,675296.400000006,675296.1000000238,671628.073,671637.1000000238,671644.59,675311.602,8,400,,,
trial,html.Screen,4_112_0,2023-11-03T18:25:51.449Z,,0,3,,3703.8980000000447,response,ISIC_8765068.JPG,8,ISIC_4918571.JPG,ISIC_4918571.JPG,false,0,keypress(z),500,679015.8000000119,679015.5,675294.53,675296.5,675311.602,679028.243,8,400,13,,ISIC_8765068.JPG
break,html.Screen,4_112_1,2023-11-03T18:25:51.450Z,,0,,,NaN,,,,,,false,,,,679017,679016.8000000119,,679016,,679028.243,8,400,,,
break_continue,html.Screen,4_112_2,2023-11-03T18:25:51.451Z,,0,,,NaN,,,,,,false,,,,679017.400000006,679017.3000000119,,679017.1000000238,,679028.243,8,400,,,
sequence,flow.Sequence,4_112,2023-11-03T18:25:51.451Z,,0,,,3705.6980000119656,completion,,,,,false,,,,679017.5,679017.3000000119,675294.53,675296.5,675311.602,679028.243,8,400,,,
trial,html.Screen,4_113_0,2023-11-03T18:25:54.629Z,,0,3,,3166.857000023825,response,ISIC_8324870.JPG,26,ISIC_0064342.JPG,ISIC_0064342.JPG,false,0,keypress(z),500,682195.2000000179,682195.1000000238,679011.534,679017.7000000179,679028.243,682211.577,8,400,14,,ISIC_8324870.JPG
break,html.Screen,4_113_1,2023-11-03T18:25:54.630Z,,0,,,NaN,,,,,,false,,,,682196.5,682196.2000000179,,682195.400000006,,682211.577,8,400,,,
break_continue,html.Screen,4_113_2,2023-11-03T18:25:54.630Z,,0,,,NaN,,,,,,false,,,,682196.8000000119,682196.7000000179,,682196.6000000238,,682211.577,8,400,,,
sequence,flow.Sequence,4_113,2023-11-03T18:25:54.630Z,,0,,,3168.4570000178646,completion,,,,,false,,,,682197,682196.7000000179,679011.534,679017.6000000238,679028.243,682211.577,8,400,,,
trial,html.Screen,4_114_0,2023-11-03T18:25:57.755Z,,0,3,,3110.2230000118725,response,ISIC_0011496.JPG,10,ISIC_7268123.JPG,ISIC_0011496.JPG,false,1,keypress(m),500,685322.1000000238,685321.8000000119,682195.035,682197,682211.577,685328.253,8,400,15,,ISIC_7268123.JPG
break,html.Screen,4_114_1,2023-11-03T18:25:57.756Z,,0,,,NaN,,,,,,false,,,,685323,685322.8000000119,,685322.400000006,,685328.253,8,400,,,
break_continue,html.Screen,4_114_2,2023-11-03T18:25:57.757Z,,0,,,NaN,,,,,,false,,,,685323.3000000119,685323.2000000179,,685323.1000000238,,685328.253,8,400,,,
sequence,flow.Sequence,4_114,2023-11-03T18:25:57.757Z,,0,,,3111.623000017833,completion,,,,,false,,,,685323.400000006,685323.2000000179,682195.035,682197,682211.577,685328.253,8,400,,,
trial,html.Screen,4_115_0,2023-11-03T18:26:01.776Z,,0,3,,4013.746999999974,response,ISIC_0182020.JPG,19,ISIC_0068447.JPG,ISIC_0182020.JPG,false,1,keypress(m),500,689342.400000006,689342,685311.864,685323.6000000238,685328.253,689345.007,8,400,16,,ISIC_0068447.JPG
break,html.Screen,4_115_1,2023-11-03T18:26:01.777Z,,0,,,NaN,,,,,,false,,,,689343.8000000119,689343.5,,689342.6000000238,,689345.007,8,400,,,
break_continue,html.Screen,4_115_2,2023-11-03T18:26:01.777Z,,0,,,NaN,,,,,,false,,,,689344.1000000238,689344,,689343.900000006,,689345.007,8,400,,,
sequence,flow.Sequence,4_115,2023-11-03T18:26:01.778Z,,0,,,4015.746999999974,completion,,,,,false,,,,689344.3000000119,689344,685311.864,685323.5,685328.253,689345.007,8,400,,,
trial,html.Screen,4_116_0,2023-11-03T18:26:04.453Z,,0,3,,2674.5930000238586,response,ISIC_8175453.JPG,5,ISIC_7035368.JPG,ISIC_8175453.JPG,false,1,keypress(m),500,692019.8000000119,692019.6000000238,689328.596,689344.400000006,689345.007,692028.353,8,400,17,,ISIC_7035368.JPG
break,html.Screen,4_116_1,2023-11-03T18:26:04.454Z,,0,,,NaN,,,,,,false,,,,692021,692020.8000000119,,692020,,692028.353,8,400,,,
break_continue,html.Screen,4_116_2,2023-11-03T18:26:04.455Z,,0,,,NaN,,,,,,false,,,,692021.3000000119,692021.2000000179,,692021.1000000238,,692028.353,8,400,,,
sequence,flow.Sequence,4_116,2023-11-03T18:26:04.455Z,,0,,,2676.193000017898,completion,,,,,false,,,,692021.400000006,692021.2000000179,689328.596,689344.3000000119,689345.007,692028.353,8,400,,,
trial,html.Screen,4_117_0,2023-11-03T18:26:10.255Z,,0,3,,5792.947000011918,response,ISIC_0033279.JPG,5,ISIC_5559165.JPG,ISIC_5559165.JPG,false,0,keypress(z),500,697821.7000000179,697821.3000000119,692011.94,692021.5,692028.353,697829.047,8,400,18,,ISIC_0033279.JPG
break,html.Screen,4_117_1,2023-11-03T18:26:10.256Z,,0,,,NaN,,,,,,false,,,,697822.900000006,697822.6000000238,,697821.900000006,,697829.047,8,400,,,
break_continue,html.Screen,4_117_2,2023-11-03T18:26:10.257Z,,0,,,NaN,,,,,,false,,,,697823.2000000179,697823.2000000179,,697823,,697829.047,8,400,,,
sequence,flow.Sequence,4_117,2023-11-03T18:26:10.257Z,,0,,,5794.847000017879,completion,,,,,false,,,,697823.400000006,697823.2000000179,692011.94,692021.5,692028.353,697829.047,8,400,,,
trial,html.Screen,4_118_0,2023-11-03T18:26:14.403Z,,0,3,,4140.4529999999795,response,ISIC_0033568.JPG,9,ISIC_0065313.JPG,ISIC_0065313.JPG,false,0,keypress(z),500,701969.8000000119,701969.5,697812.239,697823.5,697829.047,701995.771,8,400,19,,ISIC_0033568.JPG
break,html.Screen,4_118_1,2023-11-03T18:26:14.404Z,,0,,,NaN,,,,,,false,,,,701970.7000000179,701970.5,,701970,,701995.771,8,400,,,
break_continue,html.Screen,4_118_2,2023-11-03T18:26:14.404Z,,0,,,NaN,,,,,,false,,,,701971,701970.900000006,,701970.7000000179,,701995.771,8,400,,,
sequence,flow.Sequence,4_118,2023-11-03T18:26:14.405Z,,0,,,4141.85300000594,completion,,,,,false,,,,701971.2000000179,701970.900000006,697812.239,697823.5,697829.047,701995.771,8,400,,,
trial,html.Screen,4_119_0,2023-11-03T18:26:17.854Z,,0,3,,3424.7290000000503,response,ISIC_0056749.JPG,19,ISIC_4536407.JPG,ISIC_0056749.JPG,false,1,keypress(m),500,705420.8000000119,705420.5,701978.609,701971.3000000119,701995.771,705428.87,8,400,20,,ISIC_4536407.JPG
break,html.Screen,4_119_1,2023-11-03T18:26:17.855Z,,0,,,NaN,,,,,,false,,,,705421.900000006,705421.7000000179,,705421,,705428.87,8,400,,,
break_continue,html.Screen,4_119_2,2023-11-03T18:26:17.856Z,,0,,,NaN,,,,,,false,,,,705422.3000000119,705422.2000000179,,705422.1000000238,,705428.87,8,400,,,
sequence,flow.Sequence,4_119,2023-11-03T18:26:17.856Z,,0,,,3426.4290000179317,completion,,,,,false,,,,705422.400000006,705422.2000000179,701978.609,701971.3000000119,701995.771,705428.87,8,400,,,
trial,html.Screen,4_120_0,2023-11-03T18:26:21.573Z,,0,3,,3710.1300000000047,response,ISIC_0026909.JPG,12,ISIC_1590725.JPG,ISIC_0026909.JPG,false,1,keypress(m),500,709139.3000000119,709139,705412.174,705422.6000000238,705428.87,709146.129,8,400,21,,ISIC_1590725.JPG
break,html.Screen,4_120_1,2023-11-03T18:26:21.574Z,,0,,,NaN,,,,,,false,,,,709140.7000000179,709140.5,,709139.6000000238,,709146.129,8,400,,,
break_continue,html.Screen,4_120_2,2023-11-03T18:26:21.574Z,,0,,,NaN,,,,,,false,,,,709141.1000000238,709141,,709140.900000006,,709146.129,8,400,,,
sequence,flow.Sequence,4_120,2023-11-03T18:26:21.575Z,,0,,,3712.1300000000047,completion,,,,,false,,,,709141.3000000119,709141,705412.174,705422.5,705428.87,709146.129,8,400,,,
trial,html.Screen,4_121_0,2023-11-03T18:26:25.871Z,,0,3,,4290.871000000043,response,ISIC_9294799.JPG,18,ISIC_0033807.JPG,ISIC_0033807.JPG,false,0,keypress(z),500,713437.2000000179,713437,709129.133,709141.5,709146.129,713445.572,8,400,22,,ISIC_9294799.JPG
break,html.Screen,4_121_1,2023-11-03T18:26:25.872Z,,0,,,NaN,,,,,,false,,,,713438.400000006,713438.2000000179,,713437.400000006,,713445.572,8,400,,,
break_continue,html.Screen,4_121_2,2023-11-03T18:26:25.872Z,,0,,,NaN,,,,,,false,,,,713438.8000000119,713438.7000000179,,713438.6000000238,,713445.572,8,400,,,
sequence,flow.Sequence,4_121,2023-11-03T18:26:25.872Z,,0,,,4292.571000017924,completion,,,,,false,,,,713439,713438.7000000179,709129.133,709141.400000006,709146.129,713445.572,8,400,,,
trial,html.Screen,4_122_0,2023-11-03T18:26:30.533Z,,0,3,,4653.927999999956,response,ISIC_7349772.JPG,10,ISIC_3529778.JPG,ISIC_3529778.JPG,false,0,keypress(z),500,718099.900000006,718099.5,713429.264,713439,713445.572,718112.471,8,400,23,,ISIC_7349772.JPG
break,html.Screen,4_122_1,2023-11-03T18:26:30.535Z,,0,,,NaN,,,,,,false,,,,718101.400000006,718101.1000000238,,718100.3000000119,,718112.471,8,400,,,
break_continue,html.Screen,4_122_2,2023-11-03T18:26:30.535Z,,0,,,NaN,,,,,,false,,,,718102.1000000238,718101.900000006,,718101.6000000238,,718112.471,8,400,,,
sequence,flow.Sequence,4_122,2023-11-03T18:26:30.536Z,,0,,,4656.328000005917,completion,,,,,false,,,,718102.400000006,718101.900000006,713429.264,713439,713445.572,718112.471,8,400,,,
trial,html.Screen,4_123_0,2023-11-03T18:26:34.060Z,,0,3,,3513.929000005941,response,ISIC_0028573.JPG,31,ISIC_4288845.JPG,ISIC_0028573.JPG,false,1,keypress(m),500,721626.7000000179,721626.400000006,718095.837,718102.6000000238,718112.471,721629.066,8,400,24,,ISIC_4288845.JPG
break,html.Screen,4_123_1,2023-11-03T18:26:34.061Z,,0,,,NaN,,,,,,false,,,,721627.900000006,721627.6000000238,,721626.8000000119,,721629.066,8,400,,,
break_continue,html.Screen,4_123_2,2023-11-03T18:26:34.062Z,,0,,,NaN,,,,,,false,,,,721628.3000000119,721628.2000000179,,721628,,721629.066,8,400,,,
sequence,flow.Sequence,4_123,2023-11-03T18:26:34.062Z,,0,,,3515.729000017862,completion,,,,,false,,,,721628.6000000238,721628.2000000179,718095.837,718102.6000000238,718112.471,721629.066,8,400,,,
trial,html.Screen,4_124_0,2023-11-03T18:26:37.922Z,,0,3,,3859.13400001789,response,ISIC_6829008.JPG,11,ISIC_3730327.JPG,ISIC_6829008.JPG,false,1,keypress(m),500,725488.400000006,725488.2000000179,721612.576,721628.900000006,721629.066,725496.318,8,400,25,,ISIC_3730327.JPG
break,html.Screen,4_124_1,2023-11-03T18:26:37.923Z,,0,,,NaN,,,,,,false,,,,725489.400000006,725489.1000000238,,725488.6000000238,,725496.318,8,400,,,
break_continue,html.Screen,4_124_2,2023-11-03T18:26:37.923Z,,0,,,NaN,,,,,,false,,,,725490,725489.8000000119,,725489.6000000238,,725496.318,8,400,,,
sequence,flow.Sequence,4_124,2023-11-03T18:26:37.924Z,,0,,,3860.7340000119293,completion,,,,,false,,,,725490.2000000179,725489.8000000119,721612.576,721628.7000000179,721629.066,725496.318,8,400,,,
trial,html.Screen,4_125_0,2023-11-03T18:26:42.013Z,,0,3,,4082.9820000119507,response,ISIC_7976724.JPG,19,ISIC_1097830.JPG,ISIC_7976724.JPG,false,1,keypress(m),500,729579.6000000238,729579.3000000119,725479.388,725490.3000000119,725496.318,729596.036,8,400,26,,ISIC_1097830.JPG
break,html.Screen,4_125_1,2023-11-03T18:26:42.014Z,,0,,,NaN,,,,,,false,,,,729580.8000000119,729580.5,,729579.8000000119,,729596.036,8,400,,,
break_continue,html.Screen,4_125_2,2023-11-03T18:26:42.015Z,,0,,,NaN,,,,,,false,,,,729581.1000000238,729581,,729580.900000006,,729596.036,8,400,,,
sequence,flow.Sequence,4_125,2023-11-03T18:26:42.015Z,,0,,,4084.68200000003,completion,,,,,false,,,,729581.5,729581,725479.388,725490.2000000179,725496.318,729596.036,8,400,,,
