sender,sender_type,sender_id,timestamp,meta,,blockNo,condition,duration,ended_on,img_left,img_reveal,img_right,loser,practice,response,response_action,selection_duration,time_commit,time_end,time_render,time_run,time_show,time_switch,total_blocks,total_trials,trialNo,url,winner
informed_consent,html.Screen,0,2023-10-31T16:56:45.194Z,"{""labjs_version"":""20.2.4"",""labjs_build"":{""flavor"":""production"",""commit"":""f5b4a49f956347addd546a832a3327688c2c0fef""},""location"":""https://run.pavlovia.org/MurrayBennett/melanoma-2afc/?participant=65650&platform=sona"",""userAgent"":""Mozilla/5.0 (Windows NT 10.0; Win64; x64) AppleWebKit/537.36 (KHTML, like Gecko) Chrome/118.0.0.0 Safari/537.36"",""platform"":""Win32"",""language"":""en-US"",""locale"":""en-US"",""timeZone"":""America/Chicago"",""timezoneOffset"":300,""screen_width"":1366,""screen_height"":768,""scroll_width"":1366,""scroll_height"":595,""window_innerWidth"":1366,""window_innerHeight"":643,""devicePixelRatio"":1}",,,,26881.754999809265,response,,,,,,consent,click button,,29740.199999809265,29737.199999809265,2356.125,2844.5999999046326,2855.445,29762.665,,,,"{""participant"":""65650"",""platform"":""sona""}",
Welcome,html.Screen,1,2023-10-31T16:57:51.807Z,,,,symmetry,66593.63500019073,response,,,,,,continue,click button,,96357.80000019073,96356.30000019073,29729.347,29740.599999904633,29762.665,96364.697,,,,,
trial,html.Screen,2_0_0,2023-10-31T16:57:57.926Z,,0,0,,6112.002999809265,response,ISIC_6997061.JPG,,ISIC_0069348.JPG,ISIC_0069348.JPG,true,0,keypress(z),500,102477.09999990463,102476.69999980927,96347.976,96358.19999980927,96364.697,102492.523,1,6,1,,ISIC_6997061.JPG
sequence,flow.Sequence,2_0,2023-10-31T16:57:57.927Z,,0,,,6112.002999809265,completion,,,,,true,,,,102477.69999980927,102476.69999980927,96347.976,96358.09999990463,96364.697,102492.523,1,6,,,
trial,html.Screen,2_1_0,2023-10-31T16:58:00.876Z,,0,0,,2933.8770000953664,response,ISIC_0057368.JPG,,ISIC_0009529.JPG,ISIC_0057368.JPG,true,1,keypress(m),500,105426.69999980927,105426.40000009537,102475.477,102477.90000009537,102492.523,105439.678,1,6,2,,ISIC_0009529.JPG
sequence,flow.Sequence,2_1,2023-10-31T16:58:00.876Z,,0,,,2933.8770000953664,completion,,,,,true,,,,105427.09999990463,105426.40000009537,102475.477,102477.80000019073,102492.523,105439.678,1,6,,,
trial,html.Screen,2_2_0,2023-10-31T16:58:03.758Z,,0,0,,2869.122000190735,response,ISIC_0064954.JPG,,ISIC_9758671.JPG,ISIC_9758671.JPG,true,0,keypress(z),500,108309.19999980927,108308.80000019073,105422.583,105427.30000019073,105439.678,108319.773,1,6,3,,ISIC_0064954.JPG
sequence,flow.Sequence,2_2,2023-10-31T16:58:03.758Z,,0,,,2869.122000190735,completion,,,,,true,,,,108309.5,108308.80000019073,105422.583,105427.19999980927,105439.678,108319.773,1,6,,,
trial,html.Screen,2_3_0,2023-10-31T16:58:06.929Z,,0,0,,3160.3269999046315,response,ISIC_0000080.JPG,,ISIC_0005785.JPG,ISIC_0005785.JPG,true,0,keypress(z),500,111480.59999990463,111480.09999990463,108303.419,108309.80000019073,108319.773,111483.315,1,6,4,,ISIC_0000080.JPG
sequence,flow.Sequence,2_3,2023-10-31T16:58:06.930Z,,0,,,3160.3269999046315,completion,,,,,true,,,,111481.09999990463,111480.09999990463,108303.419,108309.80000019073,108319.773,111483.315,1,6,,,
trial,html.Screen,2_4_0,2023-10-31T16:58:09.930Z,,0,0,,2997.7849999046302,response,ISIC_7944028.JPG,,ISIC_5390060.JPG,ISIC_5390060.JPG,true,0,keypress(z),500,114481.5,114481.09999990463,111466.753,111481.40000009537,111483.315,114497.155,1,6,5,,ISIC_7944028.JPG
sequence,flow.Sequence,2_4,2023-10-31T16:58:09.931Z,,0,,,2997.7849999046302,completion,,,,,true,,,,114481.90000009537,114481.09999990463,111466.753,111481.30000019073,111483.315,114497.155,1,6,,,
trial,html.Screen,2_5_0,2023-10-31T16:58:12.675Z,,0,0,,2729.0449998092663,response,ISIC_0010188.JPG,,ISIC_0794216.JPG,ISIC_0010188.JPG,true,1,keypress(m),500,117226.40000009537,117226.19999980927,114480.624,114482.09999990463,114497.155,117250.245,1,6,6,,ISIC_0794216.JPG
sequence,flow.Sequence,2_5,2023-10-31T16:58:12.676Z,,0,,,2729.0449998092663,completion,,,,,true,,,,117226.69999980927,117226.19999980927,114480.624,114482.09999990463,114497.155,117250.245,1,6,,,
loop,flow.Loop,2,2023-10-31T16:58:12.676Z,,,,,20861.502999809265,completion,,,,,true,,,,117226.80000019073,117226.19999980927,96347.976,96358,96364.697,117250.245,1,6,,,
exp_instructions,html.Screen,3,2023-10-31T16:58:30.312Z,,,,,17609.854999904637,response,,,,,,continue,keypress(Space),,134861.09999990463,134860.09999990463,117211.212,117227,117250.245,134877.305,,,,,
trial,html.Screen,4_0_0,2023-10-31T16:58:35.908Z,,0,1,,5579.995000190742,response,ISIC_0011196.JPG,12,ISIC_2936321.JPG,ISIC_0011196.JPG,false,1,keypress(m),500,140457.69999980927,140457.30000019073,134860.739,134861.40000009537,134877.305,140471.803,8,400,1,,ISIC_2936321.JPG
break,html.Screen,4_0_1,2023-10-31T16:58:35.910Z,,0,,,NaN,,,,,,false,,,,140459.09999990463,140458.80000019073,,140457.90000009537,,140471.803,8,400,,,
break_continue,html.Screen,4_0_2,2023-10-31T16:58:35.910Z,,0,,,NaN,,,,,,false,,,,140459.69999980927,140459.5,,140459.30000019073,,140471.803,8,400,,,
sequence,flow.Sequence,4_0,2023-10-31T16:58:35.910Z,,0,,,5582.195000000007,completion,,,,,false,,,,140459.80000019073,140459.5,134860.739,134861.40000009537,134877.305,140471.803,8,400,,,
trial,html.Screen,4_1_0,2023-10-31T16:58:39.007Z,,0,1,,3083.8969998092507,response,ISIC_0027541.JPG,8,ISIC_2854303.JPG,ISIC_2854303.JPG,false,0,keypress(z),500,143556.09999990463,143555.69999980927,140455.376,140459.90000009537,140471.803,143568.923,8,400,2,,ISIC_0027541.JPG
break,html.Screen,4_1_1,2023-10-31T16:58:39.008Z,,0,,,NaN,,,,,,false,,,,143557.30000019073,143556.90000009537,,143556.19999980927,,143568.923,8,400,,,
break_continue,html.Screen,4_1_2,2023-10-31T16:58:39.009Z,,0,,,NaN,,,,,,false,,,,143558.59999990463,143558.40000009537,,143558.30000019073,,143568.923,8,400,,,
sequence,flow.Sequence,4_1,2023-10-31T16:58:39.009Z,,0,,,3086.597000095353,completion,,,,,false,,,,143558.80000019073,143558.40000009537,140455.376,140459.90000009537,140471.803,143568.923,8,400,,,
trial,html.Screen,4_2_0,2023-10-31T16:58:41.721Z,,0,1,,2700.9770000953577,response,ISIC_8626909.JPG,9,ISIC_7475827.JPG,ISIC_8626909.JPG,false,1,keypress(m),500,146270.19999980927,146269.90000009537,143552.719,143558.90000009537,143568.923,146283.313,8,400,3,,ISIC_7475827.JPG
break,html.Screen,4_2_1,2023-10-31T16:58:41.722Z,,0,,,NaN,,,,,,false,,,,146271.5,146271.19999980927,,146270.5,,146283.313,8,400,,,
break_continue,html.Screen,4_2_2,2023-10-31T16:58:41.722Z,,0,,,NaN,,,,,,false,,,,146271.80000019073,146271.80000019073,,146271.59999990463,,146283.313,8,400,,,
sequence,flow.Sequence,4_2,2023-10-31T16:58:41.723Z,,0,,,2702.877000190725,completion,,,,,false,,,,146272,146271.80000019073,143552.719,143558.90000009537,143568.923,146283.313,8,400,,,
trial,html.Screen,4_3_0,2023-10-31T16:58:45.409Z,,0,1,,3674.786999904638,response,ISIC_9169586.JPG,10,ISIC_0061705.JPG,ISIC_9169586.JPG,false,1,keypress(m),500,149958.40000009537,149958.09999990463,146266.832,146272.19999980927,146283.313,149962.64,8,400,4,,ISIC_0061705.JPG
break,html.Screen,4_3_1,2023-10-31T16:58:45.410Z,,0,,,NaN,,,,,,false,,,,149959.40000009537,149959.09999990463,,149958.59999990463,,149962.64,8,400,,,
break_continue,html.Screen,4_3_2,2023-10-31T16:58:45.410Z,,0,,,NaN,,,,,,false,,,,149959.69999980927,149959.59999990463,,149959.5,,149962.64,8,400,,,
sequence,flow.Sequence,4_3,2023-10-31T16:58:45.410Z,,0,,,3676.286999904638,completion,,,,,false,,,,149959.80000019073,149959.59999990463,146266.832,146272.09999990463,146283.313,149962.64,8,400,,,
trial,html.Screen,4_4_0,2023-10-31T16:58:48.106Z,,0,1,,2692.660000190721,response,ISIC_0027951.JPG,12,ISIC_2598575.JPG,ISIC_2598575.JPG,false,0,keypress(z),500,152655.59999990463,152655.30000019073,149946.213,149959.90000009537,149962.64,152659.956,8,400,5,,ISIC_0027951.JPG
break,html.Screen,4_4_1,2023-10-31T16:58:48.107Z,,0,,,NaN,,,,,,false,,,,152656.59999990463,152656.40000009537,,152655.90000009537,,152659.956,8,400,,,
break_continue,html.Screen,4_4_2,2023-10-31T16:58:48.108Z,,0,,,NaN,,,,,,false,,,,152657,152656.90000009537,,152656.80000019073,,152659.956,8,400,,,
sequence,flow.Sequence,4_4,2023-10-31T16:58:48.108Z,,0,,,2694.2600000953535,completion,,,,,false,,,,152657.19999980927,152656.90000009537,149946.213,149959.90000009537,149962.64,152659.956,8,400,,,
trial,html.Screen,4_5_0,2023-10-31T16:58:52.483Z,,0,1,,4372.444000095362,response,ISIC_0056930.JPG,11,ISIC_0032133.JPG,ISIC_0032133.JPG,false,0,keypress(z),500,157032.69999980927,157032.40000009537,152643.407,152657.30000019073,152659.956,157039.032,8,400,6,,ISIC_0056930.JPG
break,html.Screen,4_5_1,2023-10-31T16:58:52.485Z,,0,,,NaN,,,,,,false,,,,157033.90000009537,157033.69999980927,,157033,,157039.032,8,400,,,
break_continue,html.Screen,4_5_2,2023-10-31T16:58:52.485Z,,0,,,NaN,,,,,,false,,,,157034.30000019073,157034.19999980927,,157034.09999990463,,157039.032,8,400,,,
sequence,flow.Sequence,4_5,2023-10-31T16:58:52.485Z,,0,,,4374.24399980926,completion,,,,,false,,,,157034.5,157034.19999980927,152643.407,152657.30000019073,152659.956,157039.032,8,400,,,
trial,html.Screen,4_6_0,2023-10-31T16:58:55.707Z,,0,1,,3216.9679999999935,response,ISIC_0073075.JPG,11,ISIC_0014079.JPG,ISIC_0014079.JPG,false,0,keypress(z),500,160256.19999980927,160256,157022.656,157034.59999990463,157039.032,160269.755,8,400,7,,ISIC_0073075.JPG
break,html.Screen,4_6_1,2023-10-31T16:58:55.708Z,,0,,,NaN,,,,,,false,,,,160257.5,160257,,160256.5,,160269.755,8,400,,,
break_continue,html.Screen,4_6_2,2023-10-31T16:58:55.708Z,,0,,,NaN,,,,,,false,,,,160257.90000009537,160257.69999980927,,160257.69999980927,,160269.755,8,400,,,
sequence,flow.Sequence,4_6,2023-10-31T16:58:55.709Z,,0,,,3218.6679998092586,completion,,,,,false,,,,160258,160257.69999980927,157022.656,157034.59999990463,157039.032,160269.755,8,400,,,
trial,html.Screen,4_7_0,2023-10-31T16:58:58.928Z,,0,1,,3206.9449998092605,response,ISIC_7860137.JPG,12,ISIC_5358548.JPG,ISIC_5358548.JPG,false,0,keypress(z),500,163477,163476.69999980927,160253.267,160258.19999980927,160269.755,163482.805,8,400,8,,ISIC_7860137.JPG
break,html.Screen,4_7_1,2023-10-31T16:58:58.929Z,,0,,,NaN,,,,,,false,,,,163478.09999990463,163477.69999980927,,163477.19999980927,,163482.805,8,400,,,
break_continue,html.Screen,4_7_2,2023-10-31T16:58:58.929Z,,0,,,NaN,,,,,,false,,,,163478.5,163478.40000009537,,163478.19999980927,,163482.805,8,400,,,
sequence,flow.Sequence,4_7,2023-10-31T16:58:58.929Z,,0,,,3208.645000095363,completion,,,,,false,,,,163478.59999990463,163478.40000009537,160253.267,160258.19999980927,160269.755,163482.805,8,400,,,
trial,html.Screen,4_8_0,2023-10-31T16:59:01.604Z,,0,1,,2670.394999809272,response,ISIC_0011031.JPG,5,ISIC_1438269.JPG,ISIC_0011031.JPG,false,1,keypress(m),500,166153.59999990463,166153.19999980927,163466.676,163478.80000019073,163482.805,166163.524,8,400,9,,ISIC_1438269.JPG
break,html.Screen,4_8_1,2023-10-31T16:59:01.605Z,,0,,,NaN,,,,,,false,,,,166154.80000019073,166154.30000019073,,166153.80000019073,,166163.524,8,400,,,
break_continue,html.Screen,4_8_2,2023-10-31T16:59:01.606Z,,0,,,NaN,,,,,,false,,,,166155.19999980927,166155,,166154.90000009537,,166163.524,8,400,,,
sequence,flow.Sequence,4_8,2023-10-31T16:59:01.606Z,,0,,,2672.195000000007,completion,,,,,false,,,,166155.40000009537,166155,163466.676,163478.80000019073,163482.805,166163.524,8,400,,,
trial,html.Screen,4_9_0,2023-10-31T16:59:05.707Z,,0,1,,4093.0759999046277,response,ISIC_3094758.JPG,11,ISIC_7580408.JPG,ISIC_3094758.JPG,false,1,keypress(m),500,170256.80000019073,170256.59999990463,166147.22,166155.40000009537,166163.524,170276.549,8,400,10,,ISIC_7580408.JPG
break,html.Screen,4_9_1,2023-10-31T16:59:05.708Z,,0,,,NaN,,,,,,false,,,,170257.69999980927,170257.5,,170257,,170276.549,8,400,,,
break_continue,html.Screen,4_9_2,2023-10-31T16:59:05.709Z,,0,,,NaN,,,,,,false,,,,170258,170258,,170257.80000019073,,170276.549,8,400,,,
sequence,flow.Sequence,4_9,2023-10-31T16:59:05.709Z,,0,,,4094.475999999995,completion,,,,,false,,,,170258.09999990463,170258,166147.22,166155.40000009537,166163.524,170276.549,8,400,,,
trial,html.Screen,4_10_0,2023-10-31T16:59:11.055Z,,0,1,,5327.251000190736,response,ISIC_3190566.JPG,7,ISIC_2212473.JPG,ISIC_2212473.JPG,false,0,keypress(z),500,175604.19999980927,175603.80000019073,170259.607,170258.19999980927,170276.549,175621.267,8,400,11,,ISIC_3190566.JPG
break,html.Screen,4_10_1,2023-10-31T16:59:11.056Z,,0,,,NaN,,,,,,false,,,,175605.40000009537,175605.09999990463,,175604.40000009537,,175621.267,8,400,,,
break_continue,html.Screen,4_10_2,2023-10-31T16:59:11.056Z,,0,,,NaN,,,,,,false,,,,175605.80000019073,175605.69999980927,,175605.59999990463,,175621.267,8,400,,,
sequence,flow.Sequence,4_10,2023-10-31T16:59:11.057Z,,0,,,5329.150999809266,completion,,,,,false,,,,175606,175605.69999980927,170259.607,170258.19999980927,170276.549,175621.267,8,400,,,
trial,html.Screen,4_11_0,2023-10-31T16:59:16.970Z,,0,1,,5897.733000000007,response,ISIC_6443984.JPG,6,ISIC_7134821.JPG,ISIC_6443984.JPG,false,1,keypress(m),500,181519.30000019073,181519,175604.253,175606,175621.267,181531.947,8,400,12,,ISIC_7134821.JPG
break,html.Screen,4_11_1,2023-10-31T16:59:16.971Z,,0,,,NaN,,,,,,false,,,,181520.40000009537,181520.09999990463,,181519.5,,181531.947,8,400,,,
break_continue,html.Screen,4_11_2,2023-10-31T16:59:16.971Z,,0,,,NaN,,,,,,false,,,,181520.80000019073,181520.69999980927,,181520.59999990463,,181531.947,8,400,,,
sequence,flow.Sequence,4_11,2023-10-31T16:59:16.972Z,,0,,,5899.432999809273,completion,,,,,false,,,,181520.90000009537,181520.69999980927,175604.253,175606,175621.267,181531.947,8,400,,,
trial,html.Screen,4_12_0,2023-10-31T16:59:22.162Z,,0,1,,5179.25299980928,response,ISIC_0000473.JPG,8,ISIC_0069411.JPG,ISIC_0069411.JPG,false,0,keypress(z),500,186711.59999990463,186711.19999980927,181515.796,181521.09999990463,181531.947,186726.997,8,400,13,,ISIC_0000473.JPG
break,html.Screen,4_12_1,2023-10-31T16:59:22.163Z,,0,,,NaN,,,,,,false,,,,186712.69999980927,186712.30000019073,,186711.80000019073,,186726.997,8,400,,,
break_continue,html.Screen,4_12_2,2023-10-31T16:59:22.164Z,,0,,,NaN,,,,,,false,,,,186713.19999980927,186713.09999990463,,186712.90000009537,,186726.997,8,400,,,
sequence,flow.Sequence,4_12,2023-10-31T16:59:22.164Z,,0,,,5181.152999904647,completion,,,,,false,,,,186713.40000009537,186713.09999990463,181515.796,181521.09999990463,181531.947,186726.997,8,400,,,
trial,html.Screen,4_13_0,2023-10-31T16:59:27.147Z,,0,1,,4969.1029999046295,response,ISIC_7928137.JPG,4,ISIC_0430837.JPG,ISIC_7928137.JPG,false,1,keypress(m),500,191696.40000009537,191696.09999990463,186710.813,186713.5,186726.997,191705.392,8,400,14,,ISIC_0430837.JPG
break,html.Screen,4_13_1,2023-10-31T16:59:27.148Z,,0,,,NaN,,,,,,false,,,,191697.59999990463,191697.19999980927,,191696.59999990463,,191705.392,8,400,,,
break_continue,html.Screen,4_13_2,2023-10-31T16:59:27.149Z,,0,,,NaN,,,,,,false,,,,191698,191697.90000009537,,191697.80000019073,,191705.392,8,400,,,
sequence,flow.Sequence,4_13,2023-10-31T16:59:27.149Z,,0,,,4970.903000095364,completion,,,,,false,,,,191698.09999990463,191697.90000009537,186710.813,186713.5,186726.997,191705.392,8,400,,,
trial,html.Screen,4_14_0,2023-10-31T16:59:32.149Z,,0,1,,4987.408000190742,response,ISIC_0056771.JPG,9,ISIC_0033584.JPG,ISIC_0033584.JPG,false,0,keypress(z),500,196693.09999990463,196692.80000019073,191689.081,191698.30000019073,191705.392,196717.309,8,400,15,,ISIC_0056771.JPG
break,html.Screen,4_14_1,2023-10-31T16:59:32.150Z,,0,,,NaN,,,,,,false,,,,196694,196693.80000019073,,196693.40000009537,,196717.309,8,400,,,
break_continue,html.Screen,4_14_2,2023-10-31T16:59:32.150Z,,0,,,NaN,,,,,,false,,,,196694.40000009537,196694.19999980927,,196694.09999990463,,196717.309,8,400,,,
sequence,flow.Sequence,4_14,2023-10-31T16:59:32.150Z,,0,,,4988.807999809273,completion,,,,,false,,,,196694.5,196694.19999980927,191689.081,191698.30000019073,191705.392,196717.309,8,400,,,
trial,html.Screen,4_15_0,2023-10-31T16:59:36.445Z,,0,1,,4271.290999904624,response,ISIC_0030760.JPG,6,ISIC_5798331.JPG,ISIC_0030760.JPG,false,1,keypress(m),500,200989,200988.59999990463,196700.816,196694.59999990463,196717.309,200996.342,8,400,16,,ISIC_5798331.JPG
break,html.Screen,4_15_1,2023-10-31T16:59:36.446Z,,0,,,NaN,,,,,,false,,,,200990.09999990463,200989.69999980927,,200989.19999980927,,200996.342,8,400,,,
break_continue,html.Screen,4_15_2,2023-10-31T16:59:36.446Z,,0,,,NaN,,,,,,false,,,,200990.5,200990.40000009537,,200990.19999980927,,200996.342,8,400,,,
sequence,flow.Sequence,4_15,2023-10-31T16:59:36.447Z,,0,,,4273.091000095359,completion,,,,,false,,,,200990.69999980927,200990.40000009537,196700.816,196694.59999990463,196717.309,200996.342,8,400,,,
trial,html.Screen,4_16_0,2023-10-31T16:59:40.247Z,,0,1,,3794.0580000953632,response,ISIC_0068544.JPG,5,ISIC_0014222.JPG,ISIC_0014222.JPG,false,0,keypress(z),500,204790.69999980927,204790.40000009537,200980.266,200990.80000019073,200996.342,204792.686,8,400,17,,ISIC_0068544.JPG
break,html.Screen,4_16_1,2023-10-31T16:59:40.248Z,,0,,,NaN,,,,,,false,,,,204791.69999980927,204791.40000009537,,204790.90000009537,,204792.686,8,400,,,
break_continue,html.Screen,4_16_2,2023-10-31T16:59:40.248Z,,0,,,NaN,,,,,,false,,,,204792.09999990463,204791.90000009537,,204791.80000019073,,204792.686,8,400,,,
sequence,flow.Sequence,4_16,2023-10-31T16:59:40.248Z,,0,,,3795.5580000953632,completion,,,,,false,,,,204792.19999980927,204791.90000009537,200980.266,200990.80000019073,200996.342,204792.686,8,400,,,
trial,html.Screen,4_17_0,2023-10-31T16:59:43.168Z,,0,1,,2918.814000000013,response,ISIC_3623368.JPG,11,ISIC_5591622.JPG,ISIC_3623368.JPG,false,1,keypress(m),500,207711.90000009537,207711.5,204776.679,204792.30000019073,204792.686,207723.378,8,400,18,,ISIC_5591622.JPG
break,html.Screen,4_17_1,2023-10-31T16:59:43.169Z,,0,,,NaN,,,,,,false,,,,207712.90000009537,207712.59999990463,,207712.09999990463,,207723.378,8,400,,,
break_continue,html.Screen,4_17_2,2023-10-31T16:59:43.169Z,,0,,,NaN,,,,,,false,,,,207713.40000009537,207713.30000019073,,207713.09999990463,,207723.378,8,400,,,
sequence,flow.Sequence,4_17,2023-10-31T16:59:43.169Z,,0,,,2920.614000190748,completion,,,,,false,,,,207713.59999990463,207713.30000019073,204776.679,204792.30000019073,204792.686,207723.378,8,400,,,
trial,html.Screen,4_18_0,2023-10-31T16:59:46.422Z,,0,1,,3242.321999809268,response,ISIC_3544821.JPG,11,ISIC_0070747.JPG,ISIC_0070747.JPG,false,0,keypress(z),500,210966,210965.69999980927,207706.593,207713.69999980927,207723.378,210987.234,8,400,19,,ISIC_3544821.JPG
break,html.Screen,4_18_1,2023-10-31T16:59:46.423Z,,0,,,NaN,,,,,,false,,,,210966.80000019073,210966.59999990463,,210966.19999980927,,210987.234,8,400,,,
break_continue,html.Screen,4_18_2,2023-10-31T16:59:46.423Z,,0,,,NaN,,,,,,false,,,,210967.09999990463,210967.09999990463,,210966.90000009537,,210987.234,8,400,,,
sequence,flow.Sequence,4_18,2023-10-31T16:59:46.423Z,,0,,,3243.7219999046356,completion,,,,,false,,,,210967.30000019073,210967.09999990463,207706.593,207713.69999980927,207723.378,210987.234,8,400,,,
trial,html.Screen,4_19_0,2023-10-31T16:59:49.260Z,,0,1,,2816.1660000953707,response,ISIC_0071303.JPG,11,ISIC_0027087.JPG,ISIC_0071303.JPG,false,1,keypress(m),500,213803.80000019073,213803.40000009537,210970.233,210967.40000009537,210987.234,213817.772,8,400,20,,ISIC_0027087.JPG
break,html.Screen,4_19_1,2023-10-31T16:59:49.261Z,,0,,,NaN,,,,,,false,,,,213805.19999980927,213804.90000009537,,213804.30000019073,,213817.772,8,400,,,
break_continue,html.Screen,4_19_2,2023-10-31T16:59:49.262Z,,0,,,NaN,,,,,,false,,,,213805.69999980927,213805.5,,213805.40000009537,,213817.772,8,400,,,
sequence,flow.Sequence,4_19,2023-10-31T16:59:49.262Z,,0,,,2818.2660000000033,completion,,,,,false,,,,213805.80000019073,213805.5,210970.233,210967.40000009537,210987.234,213817.772,8,400,,,
trial,html.Screen,4_20_0,2023-10-31T16:59:54.145Z,,0,1,,4871.228000000003,response,ISIC_0301568.JPG,13,ISIC_0027694.JPG,ISIC_0301568.JPG,false,1,keypress(m),500,218689.30000019073,218689,213801.175,213806,213817.772,218695.841,8,400,21,,ISIC_0027694.JPG
break,html.Screen,4_20_1,2023-10-31T16:59:54.146Z,,0,,,NaN,,,,,,false,,,,218690.30000019073,218690,,218689.5,,218695.841,8,400,,,
break_continue,html.Screen,4_20_2,2023-10-31T16:59:54.147Z,,0,,,NaN,,,,,,false,,,,218690.69999980927,218690.59999990463,,218690.5,,218695.841,8,400,,,
sequence,flow.Sequence,4_20,2023-10-31T16:59:54.147Z,,0,,,4872.827999904635,completion,,,,,false,,,,218690.80000019073,218690.59999990463,213801.175,213805.90000009537,213817.772,218695.841,8,400,,,
trial,html.Screen,4_21_0,2023-10-31T16:59:57.149Z,,0,1,,2997.0590000953816,response,ISIC_0032192.JPG,11,ISIC_0054280.JPG,ISIC_0032192.JPG,false,1,keypress(m),500,221693.19999980927,221692.90000009537,218679.759,218691,218695.841,221709.727,8,400,22,,ISIC_0054280.JPG
break,html.Screen,4_21_1,2023-10-31T16:59:57.150Z,,0,,,NaN,,,,,,false,,,,221694.19999980927,221693.90000009537,,221693.40000009537,,221709.727,8,400,,,
break_continue,html.Screen,4_21_2,2023-10-31T16:59:57.151Z,,0,,,NaN,,,,,,false,,,,221694.69999980927,221694.5,,221694.40000009537,,221709.727,8,400,,,
sequence,flow.Sequence,4_21,2023-10-31T16:59:57.151Z,,0,,,2998.659000000014,completion,,,,,false,,,,221694.90000009537,221694.5,218679.759,218690.90000009537,218695.841,221709.727,8,400,,,
trial,html.Screen,4_22_0,2023-10-31T17:00:00.039Z,,0,1,,2872.0730001907214,response,ISIC_5330187.JPG,5,ISIC_0031018.JPG,ISIC_5330187.JPG,false,1,keypress(m),500,224582.90000009537,224581.80000019073,221693.052,221695.09999990463,221709.727,224590.283,8,400,23,,ISIC_0031018.JPG
break,html.Screen,4_22_1,2023-10-31T17:00:00.042Z,,0,,,NaN,,,,,,false,,,,224585.90000009537,224585.5,,224583.69999980927,,224590.283,8,400,,,
break_continue,html.Screen,4_22_2,2023-10-31T17:00:00.042Z,,0,,,NaN,,,,,,false,,,,224586.59999990463,224586.40000009537,,224586.19999980927,,224590.283,8,400,,,
sequence,flow.Sequence,4_22,2023-10-31T17:00:00.043Z,,0,,,2876.673000095354,completion,,,,,false,,,,224586.90000009537,224586.40000009537,221693.052,221695.09999990463,221709.727,224590.283,8,400,,,
trial,html.Screen,4_23_0,2023-10-31T17:00:02.894Z,,0,1,,2847.8169999046368,response,ISIC_0033412.JPG,11,ISIC_0069952.JPG,ISIC_0033412.JPG,false,1,keypress(m),500,227438.40000009537,227438.09999990463,224573.341,224587.09999990463,224590.283,227454.065,8,400,24,,ISIC_0069952.JPG
break,html.Screen,4_23_1,2023-10-31T17:00:02.895Z,,0,,,NaN,,,,,,false,,,,227439.40000009537,227439.19999980927,,227438.59999990463,,227454.065,8,400,,,
break_continue,html.Screen,4_23_2,2023-10-31T17:00:02.896Z,,0,,,NaN,,,,,,false,,,,227439.90000009537,227439.69999980927,,227439.69999980927,,227454.065,8,400,,,
sequence,flow.Sequence,4_23,2023-10-31T17:00:02.896Z,,0,,,2849.4169998092693,completion,,,,,false,,,,227440,227439.69999980927,224573.341,224587,224590.283,227454.065,8,400,,,
trial,html.Screen,4_24_0,2023-10-31T17:00:06.025Z,,0,1,,3114.4349999999977,response,ISIC_0033174.JPG,8,ISIC_0013525.JPG,ISIC_0013525.JPG,false,0,keypress(z),500,230568.80000019073,230568.5,227437.775,227440.19999980927,227454.065,230584.826,8,400,25,,ISIC_0033174.JPG
break,html.Screen,4_24_1,2023-10-31T17:00:06.026Z,,0,,,NaN,,,,,,false,,,,230569.90000009537,230569.69999980927,,230569,,230584.826,8,400,,,
break_continue,html.Screen,4_24_2,2023-10-31T17:00:06.026Z,,0,,,NaN,,,,,,false,,,,230570.40000009537,230570.30000019073,,230570.09999990463,,230584.826,8,400,,,
sequence,flow.Sequence,4_24,2023-10-31T17:00:06.026Z,,0,,,3116.2350001907325,completion,,,,,false,,,,230570.5,230570.30000019073,227437.775,227440.19999980927,227454.065,230584.826,8,400,,,
trial,html.Screen,4_25_0,2023-10-31T17:00:08.658Z,,0,1,,2617.173999999999,response,ISIC_7364041.JPG,6,ISIC_0033044.JPG,ISIC_7364041.JPG,false,1,keypress(m),500,233202.30000019073,233202,230568.111,230570.59999990463,230584.826,233215.411,8,400,26,,ISIC_0033044.JPG
break,html.Screen,4_25_1,2023-10-31T17:00:08.659Z,,0,,,NaN,,,,,,false,,,,233203.30000019073,233203,,233202.40000009537,,233215.411,8,400,,,
break_continue,html.Screen,4_25_2,2023-10-31T17:00:08.660Z,,0,,,NaN,,,,,,false,,,,233203.69999980927,233203.69999980927,,233203.5,,233215.411,8,400,,,
sequence,flow.Sequence,4_25,2023-10-31T17:00:08.660Z,,0,,,2618.873999809264,completion,,,,,false,,,,233203.90000009537,233203.69999980927,230568.111,230570.59999990463,230584.826,233215.411,8,400,,,
trial,html.Screen,4_26_0,2023-10-31T17:00:12.523Z,,0,1,,3851.4890000953746,response,ISIC_7575246.JPG,11,ISIC_0065883.JPG,ISIC_0065883.JPG,false,0,keypress(z),500,237067.09999990463,237066.90000009537,233198.513,233204,233215.411,237078.033,8,400,27,,ISIC_7575246.JPG
break,html.Screen,4_26_1,2023-10-31T17:00:12.524Z,,0,,,NaN,,,,,,false,,,,237068.19999980927,237067.90000009537,,237067.40000009537,,237078.033,8,400,,,
break_continue,html.Screen,4_26_2,2023-10-31T17:00:12.525Z,,0,,,NaN,,,,,,false,,,,237068.59999990463,237068.59999990463,,237068.40000009537,,237078.033,8,400,,,
sequence,flow.Sequence,4_26,2023-10-31T17:00:12.525Z,,0,,,3853.18899990464,completion,,,,,false,,,,237068.80000019073,237068.59999990463,233198.513,233204,233215.411,237078.033,8,400,,,
trial,html.Screen,4_27_0,2023-10-31T17:00:15.314Z,,0,1,,2779.767000190739,response,ISIC_8433608.JPG,11,ISIC_5049365.JPG,ISIC_8433608.JPG,false,1,keypress(m),500,239858,239857.80000019073,237061.768,237068.90000009537,237078.033,239875.676,8,400,28,,ISIC_5049365.JPG
break,html.Screen,4_27_1,2023-10-31T17:00:15.315Z,,0,,,NaN,,,,,,false,,,,239859.19999980927,239858.90000009537,,239858.40000009537,,239875.676,8,400,,,
break_continue,html.Screen,4_27_2,2023-10-31T17:00:15.315Z,,0,,,NaN,,,,,,false,,,,239859.59999990463,239859.40000009537,,239859.40000009537,,239875.676,8,400,,,
sequence,flow.Sequence,4_27,2023-10-31T17:00:15.316Z,,0,,,2781.3670000953716,completion,,,,,false,,,,239859.80000019073,239859.40000009537,237061.768,237068.90000009537,237078.033,239875.676,8,400,,,
trial,html.Screen,4_28_0,2023-10-31T17:00:18.629Z,,0,1,,3297.423999904626,response,ISIC_0062537.JPG,8,ISIC_7724764.JPG,ISIC_0062537.JPG,false,1,keypress(m),500,243173.40000009537,243173.09999990463,239842.468,239859.90000009537,239875.676,243189.213,8,400,29,,ISIC_7724764.JPG
break,html.Screen,4_28_1,2023-10-31T17:00:18.630Z,,0,,,NaN,,,,,,false,,,,243174.19999980927,243174.09999990463,,243173.59999990463,,243189.213,8,400,,,
break_continue,html.Screen,4_28_2,2023-10-31T17:00:18.630Z,,0,,,NaN,,,,,,false,,,,243174.59999990463,243174.5,,243174.40000009537,,243189.213,8,400,,,
sequence,flow.Sequence,4_28,2023-10-31T17:00:18.631Z,,0,,,3298.8239999999932,completion,,,,,false,,,,243174.80000019073,243174.5,239842.468,239859.80000019073,239875.676,243189.213,8,400,,,
trial,html.Screen,4_29_0,2023-10-31T17:00:23.723Z,,0,1,,5077.587000190746,response,ISIC_5992826.JPG,12,ISIC_8503961.JPG,ISIC_8503961.JPG,false,0,keypress(z),500,248267.19999980927,248266.80000019073,243172.556,243174.90000009537,243189.213,248283.898,8,400,30,,ISIC_5992826.JPG
break,html.Screen,4_29_1,2023-10-31T17:00:23.724Z,,0,,,NaN,,,,,,false,,,,248268.19999980927,248267.80000019073,,248267.40000009537,,248283.898,8,400,,,
break_continue,html.Screen,4_29_2,2023-10-31T17:00:23.724Z,,0,,,NaN,,,,,,false,,,,248268.59999990463,248268.5,,248268.30000019073,,248283.898,8,400,,,
sequence,flow.Sequence,4_29,2023-10-31T17:00:23.725Z,,0,,,5079.287000000011,completion,,,,,false,,,,248268.80000019073,248268.5,243172.556,243174.80000019073,243189.213,248283.898,8,400,,,
trial,html.Screen,4_30_0,2023-10-31T17:00:26.353Z,,0,1,,2612.8019998092786,response,ISIC_8150108.JPG,8,ISIC_3566243.JPG,ISIC_8150108.JPG,false,1,keypress(m),500,250896.90000009537,250896.69999980927,248267.308,248268.90000009537,248283.898,250915.063,8,400,31,,ISIC_3566243.JPG
break,html.Screen,4_30_1,2023-10-31T17:00:26.354Z,,0,,,NaN,,,,,,false,,,,250898,250897.69999980927,,250897.09999990463,,250915.063,8,400,,,
break_continue,html.Screen,4_30_2,2023-10-31T17:00:26.354Z,,0,,,NaN,,,,,,false,,,,250898.40000009537,250898.30000019073,,250898.19999980927,,250915.063,8,400,,,
sequence,flow.Sequence,4_30,2023-10-31T17:00:26.354Z,,0,,,2614.4020001907484,completion,,,,,false,,,,250898.59999990463,250898.30000019073,248267.308,248268.90000009537,248283.898,250915.063,8,400,,,
trial,html.Screen,4_31_0,2023-10-31T17:00:29.239Z,,0,1,,2867.4370000000054,response,ISIC_7416587.JPG,12,ISIC_5992826.JPG,ISIC_7416587.JPG,false,1,keypress(m),500,253782.80000019073,253782.5,250881.747,250898.69999980927,250915.063,253795.595,8,400,32,,ISIC_5992826.JPG
break,html.Screen,4_31_1,2023-10-31T17:00:29.240Z,,0,,,NaN,,,,,,false,,,,253783.90000009537,253783.5,,253783,,253795.595,8,400,,,
break_continue,html.Screen,4_31_2,2023-10-31T17:00:29.240Z,,0,,,NaN,,,,,,false,,,,253784.19999980927,253784.19999980927,,253784.09999990463,,253795.595,8,400,,,
sequence,flow.Sequence,4_31,2023-10-31T17:00:29.240Z,,0,,,2869.1369998092705,completion,,,,,false,,,,253784.40000009537,253784.19999980927,250881.747,250898.69999980927,250915.063,253795.595,8,400,,,
trial,html.Screen,4_32_0,2023-10-31T17:00:32.348Z,,0,1,,3095.8050000953663,response,ISIC_0061751.JPG,11,ISIC_1344537.JPG,ISIC_0061751.JPG,false,1,keypress(m),500,256891.90000009537,256891.40000009537,253778.973,253784.59999990463,253795.595,256909.084,8,400,33,,ISIC_1344537.JPG
break,html.Screen,4_32_1,2023-10-31T17:00:32.349Z,,0,,,NaN,,,,,,false,,,,256892.90000009537,256892.5,,256892.09999990463,,256909.084,8,400,,,
break_continue,html.Screen,4_32_2,2023-10-31T17:00:32.349Z,,0,,,NaN,,,,,,false,,,,256893.40000009537,256893.19999980927,,256893.09999990463,,256909.084,8,400,,,
sequence,flow.Sequence,4_32,2023-10-31T17:00:32.349Z,,0,,,3097.604999809264,completion,,,,,false,,,,256893.5,256893.19999980927,253778.973,253784.5,253795.595,256909.084,8,400,,,
trial,html.Screen,4_33_0,2023-10-31T17:00:35.216Z,,0,1,,2851.1159998092626,response,ISIC_0032190.JPG,5,ISIC_0034118.JPG,ISIC_0032190.JPG,false,1,keypress(m),500,259760.40000009537,259760.19999980927,256892.602,256893.59999990463,256909.084,259772.85,8,400,34,,ISIC_0034118.JPG
break,html.Screen,4_33_1,2023-10-31T17:00:35.217Z,,0,,,NaN,,,,,,false,,,,259761.59999990463,259761.19999980927,,259760.69999980927,,259772.85,8,400,,,
break_continue,html.Screen,4_33_2,2023-10-31T17:00:35.218Z,,0,,,NaN,,,,,,false,,,,259762,259761.90000009537,,259761.69999980927,,259772.85,8,400,,,
sequence,flow.Sequence,4_33,2023-10-31T17:00:35.218Z,,0,,,2852.816000095365,completion,,,,,false,,,,259762.19999980927,259761.90000009537,256892.602,256893.59999990463,256909.084,259772.85,8,400,,,
trial,html.Screen,4_34_0,2023-10-31T17:00:38.235Z,,0,1,,3006.5500000953616,response,ISIC_1223648.JPG,12,ISIC_0014542.JPG,ISIC_0014542.JPG,false,0,keypress(z),500,262779.69999980927,262779.40000009537,259756.232,259762.30000019073,259772.85,262786.357,8,400,35,,ISIC_1223648.JPG
break,html.Screen,4_34_1,2023-10-31T17:00:38.237Z,,0,,,NaN,,,,,,false,,,,262780.69999980927,262780.30000019073,,262779.90000009537,,262786.357,8,400,,,
break_continue,html.Screen,4_34_2,2023-10-31T17:00:38.237Z,,0,,,NaN,,,,,,false,,,,262781.19999980927,262781,,262780.90000009537,,262786.357,8,400,,,
sequence,flow.Sequence,4_34,2023-10-31T17:00:38.237Z,,0,,,3008.149999999994,completion,,,,,false,,,,262781.30000019073,262781,259756.232,259762.19999980927,259772.85,262786.357,8,400,,,
trial,html.Screen,4_35_0,2023-10-31T17:00:44.032Z,,0,1,,5789.642999999982,response,ISIC_0031629.JPG,7,ISIC_0071647.JPG,ISIC_0031629.JPG,false,1,keypress(m),500,268576.30000019073,268576,262770.134,262781.5,262786.357,268580.767,8,400,36,,ISIC_0071647.JPG
break,html.Screen,4_35_1,2023-10-31T17:00:44.033Z,,0,,,NaN,,,,,,false,,,,268577.30000019073,268577,,268576.5,,268580.767,8,400,,,
break_continue,html.Screen,4_35_2,2023-10-31T17:00:44.034Z,,0,,,NaN,,,,,,false,,,,268577.80000019073,268577.59999990463,,268577.5,,268580.767,8,400,,,
sequence,flow.Sequence,4_35,2023-10-31T17:00:44.034Z,,0,,,5791.242999904614,completion,,,,,false,,,,268577.90000009537,268577.59999990463,262770.134,262781.40000009537,262786.357,268580.767,8,400,,,
trial,html.Screen,4_36_0,2023-10-31T17:00:48.149Z,,0,1,,4111.932999809273,response,ISIC_0032462.JPG,6,ISIC_0026167.JPG,ISIC_0026167.JPG,false,0,keypress(z),500,272693,272692.69999980927,268564.637,268578.09999990463,268580.767,272710.548,8,400,37,,ISIC_0032462.JPG
break,html.Screen,4_36_1,2023-10-31T17:00:48.150Z,,0,,,NaN,,,,,,false,,,,272694.19999980927,272694,,272693.30000019073,,272710.548,8,400,,,
break_continue,html.Screen,4_36_2,2023-10-31T17:00:48.150Z,,0,,,NaN,,,,,,false,,,,272694.59999990463,272694.40000009537,,272694.30000019073,,272710.548,8,400,,,
sequence,flow.Sequence,4_36,2023-10-31T17:00:48.150Z,,0,,,4113.633000095375,completion,,,,,false,,,,272694.69999980927,272694.40000009537,268564.637,268578,268580.767,272710.548,8,400,,,
trial,html.Screen,4_37_0,2023-10-31T17:00:51.983Z,,0,1,,3816.752000190725,response,ISIC_2152875.JPG,7,ISIC_3856662.JPG,ISIC_2152875.JPG,false,1,keypress(m),500,276527.59999990463,276527.30000019073,272693.464,272694.80000019073,272710.548,276539.652,8,400,38,,ISIC_3856662.JPG
break,html.Screen,4_37_1,2023-10-31T17:00:51.984Z,,0,,,NaN,,,,,,false,,,,276528.59999990463,276528.30000019073,,276527.80000019073,,276539.652,8,400,,,
break_continue,html.Screen,4_37_2,2023-10-31T17:00:51.985Z,,0,,,NaN,,,,,,false,,,,276528.90000009537,276528.90000009537,,276528.69999980927,,276539.652,8,400,,,
sequence,flow.Sequence,4_37,2023-10-31T17:00:51.985Z,,0,,,3818.3520000953577,completion,,,,,false,,,,276529.19999980927,276528.90000009537,272693.464,272694.80000019073,272710.548,276539.652,8,400,,,
trial,html.Screen,4_38_0,2023-10-31T17:00:56.838Z,,0,1,,4842.447999904631,response,ISIC_8255784.JPG,8,ISIC_3084213.JPG,ISIC_8255784.JPG,false,1,keypress(m),500,281382.40000009537,281382.09999990463,276523.517,276529.19999980927,276539.652,281384.989,8,400,39,,ISIC_3084213.JPG
break,html.Screen,4_38_1,2023-10-31T17:00:56.839Z,,0,,,NaN,,,,,,false,,,,281383.59999990463,281383.09999990463,,281382.69999980927,,281384.989,8,400,,,
break_continue,html.Screen,4_38_2,2023-10-31T17:00:56.840Z,,0,,,NaN,,,,,,false,,,,281384,281383.80000019073,,281383.80000019073,,281384.989,8,400,,,
sequence,flow.Sequence,4_38,2023-10-31T17:00:56.840Z,,0,,,4844.148000190733,completion,,,,,false,,,,281384.19999980927,281383.80000019073,276523.517,276529.19999980927,276539.652,281384.989,8,400,,,
trial,html.Screen,4_39_0,2023-10-31T17:01:01.854Z,,0,1,,5013.210999809264,response,ISIC_4672131.JPG,11,ISIC_8029613.JPG,ISIC_8029613.JPG,false,0,keypress(z),500,286398.40000009537,286398.19999980927,281368.721,281384.40000009537,281384.989,286430.436,8,400,40,,ISIC_4672131.JPG
break,html.Screen,4_39_1,2023-10-31T17:01:01.855Z,,0,,,NaN,,,,,,false,,,,286399.19999980927,286399,,286398.69999980927,,286430.436,8,400,,,
break_continue,html.Screen,4_39_2,2023-10-31T17:01:01.855Z,,0,,,NaN,,,,,,false,,,,286399.5,286399.40000009537,,286399.40000009537,,286430.436,8,400,,,
sequence,flow.Sequence,4_39,2023-10-31T17:01:01.856Z,,0,,,5014.411000095366,completion,,,,,false,,,,286399.80000019073,286399.40000009537,281368.721,281384.30000019073,281384.989,286430.436,8,400,,,
trial,html.Screen,4_40_0,2023-10-31T17:01:04.953Z,,0,1,,3066.4640000953805,response,ISIC_1550721.JPG,12,ISIC_0008774.JPG,ISIC_0008774.JPG,false,0,keypress(z),500,289497.09999990463,289496.90000009537,286413.772,286399.90000009537,286430.436,289510.925,8,400,41,,ISIC_1550721.JPG
break,html.Screen,4_40_1,2023-10-31T17:01:04.954Z,,0,,,NaN,,,,,,false,,,,289498.30000019073,289498.09999990463,,289497.30000019073,,289510.925,8,400,,,
break_continue,html.Screen,4_40_2,2023-10-31T17:01:04.954Z,,0,,,NaN,,,,,,false,,,,289498.69999980927,289498.59999990463,,289498.5,,289510.925,8,400,,,
sequence,flow.Sequence,4_40,2023-10-31T17:01:04.955Z,,0,,,3068.1639999046456,completion,,,,,false,,,,289498.80000019073,289498.59999990463,286413.772,286399.90000009537,286430.436,289510.925,8,400,,,
trial,html.Screen,4_41_0,2023-10-31T17:01:07.601Z,,0,1,,2634.3750001907465,response,ISIC_0028352.JPG,10,ISIC_0033546.JPG,ISIC_0028352.JPG,false,1,keypress(m),500,292145.5,292145.30000019073,289494.3,289499,289510.925,292157.834,8,400,42,,ISIC_0033546.JPG
break,html.Screen,4_41_1,2023-10-31T17:01:07.602Z,,0,,,NaN,,,,,,false,,,,292146.19999980927,292146,,292145.69999980927,,292157.834,8,400,,,
break_continue,html.Screen,4_41_2,2023-10-31T17:01:07.602Z,,0,,,NaN,,,,,,false,,,,292146.40000009537,292146.40000009537,,292146.30000019073,,292157.834,8,400,,,
sequence,flow.Sequence,4_41,2023-10-31T17:01:07.602Z,,0,,,2635.475000095379,completion,,,,,false,,,,292146.59999990463,292146.40000009537,289494.3,289499,289510.925,292157.834,8,400,,,
trial,html.Screen,4_42_0,2023-10-31T17:01:11.209Z,,0,1,,3594.6660000000265,response,ISIC_5810196.JPG,5,ISIC_9559922.JPG,ISIC_5810196.JPG,false,1,keypress(m),500,295752.80000019073,295752.5,292141.621,292146.69999980927,292157.834,295776.951,8,400,43,,ISIC_9559922.JPG
break,html.Screen,4_42_1,2023-10-31T17:01:11.210Z,,0,,,NaN,,,,,,false,,,,295754,295753.59999990463,,295753.09999990463,,295776.951,8,400,,,
break_continue,html.Screen,4_42_2,2023-10-31T17:01:11.210Z,,0,,,NaN,,,,,,false,,,,295754.59999990463,295754.40000009537,,295754.30000019073,,295776.951,8,400,,,
sequence,flow.Sequence,4_42,2023-10-31T17:01:11.210Z,,0,,,3596.566000095394,completion,,,,,false,,,,295754.80000019073,295754.40000009537,292141.621,292146.59999990463,292157.834,295776.951,8,400,,,
trial,html.Screen,4_43_0,2023-10-31T17:01:14.529Z,,0,1,,3296.048999999999,response,ISIC_0032204.JPG,10,ISIC_3613012.JPG,ISIC_3613012.JPG,false,0,keypress(z),500,299073.40000009537,299073,295738.256,295754.80000019073,295776.951,299084.669,8,400,44,,ISIC_0032204.JPG
break,html.Screen,4_43_1,2023-10-31T17:01:14.530Z,,0,,,NaN,,,,,,false,,,,299074.69999980927,299074.30000019073,,299073.59999990463,,299084.669,8,400,,,
break_continue,html.Screen,4_43_2,2023-10-31T17:01:14.531Z,,0,,,NaN,,,,,,false,,,,299075,299074.90000009537,,299074.80000019073,,299084.669,8,400,,,
sequence,flow.Sequence,4_43,2023-10-31T17:01:14.531Z,,0,,,3297.9490000953665,completion,,,,,false,,,,299075.30000019073,299074.90000009537,295738.256,295754.80000019073,295776.951,299084.669,8,400,,,
trial,html.Screen,4_44_0,2023-10-31T17:01:17.878Z,,0,1,,3337.231000095373,response,ISIC_2967024.JPG,10,ISIC_0025683.JPG,ISIC_0025683.JPG,false,0,keypress(z),500,302422.19999980927,302421.90000009537,299067.951,299075.30000019073,299084.669,302431.217,8,400,45,,ISIC_2967024.JPG
break,html.Screen,4_44_1,2023-10-31T17:01:17.879Z,,0,,,NaN,,,,,,false,,,,302423.40000009537,302422.90000009537,,302422.5,,302431.217,8,400,,,
break_continue,html.Screen,4_44_2,2023-10-31T17:01:17.880Z,,0,,,NaN,,,,,,false,,,,302423.90000009537,302423.80000019073,,302423.59999990463,,302431.217,8,400,,,
sequence,flow.Sequence,4_44,2023-10-31T17:01:17.880Z,,0,,,3339.1310001907405,completion,,,,,false,,,,302424,302423.80000019073,299067.951,299075.30000019073,299084.669,302431.217,8,400,,,
trial,html.Screen,4_45_0,2023-10-31T17:01:20.990Z,,0,1,,3102.482999809261,response,ISIC_0029481.JPG,12,ISIC_5908780.JPG,ISIC_5908780.JPG,false,0,keypress(z),500,305533.90000009537,305533.69999980927,302415.109,302424.09999990463,302431.217,305545.107,8,400,46,,ISIC_0029481.JPG
break,html.Screen,4_45_1,2023-10-31T17:01:20.991Z,,0,,,NaN,,,,,,false,,,,305535.09999990463,305534.69999980927,,305534.30000019073,,305545.107,8,400,,,
break_continue,html.Screen,4_45_2,2023-10-31T17:01:20.991Z,,0,,,NaN,,,,,,false,,,,305535.5,305535.40000009537,,305535.30000019073,,305545.107,8,400,,,
sequence,flow.Sequence,4_45,2023-10-31T17:01:20.991Z,,0,,,3104.1830000953632,completion,,,,,false,,,,305535.69999980927,305535.40000009537,302415.109,302424.09999990463,302431.217,305545.107,8,400,,,
trial,html.Screen,4_46_0,2023-10-31T17:01:24.262Z,,0,1,,3260.6930001907167,response,ISIC_3591332.JPG,7,ISIC_8451869.JPG,ISIC_8451869.JPG,false,0,keypress(z),500,308806.09999990463,308805.80000019073,305528.939,305535.80000019073,305545.107,308808.358,8,400,47,,ISIC_3591332.JPG
break,html.Screen,4_46_1,2023-10-31T17:01:24.263Z,,0,,,NaN,,,,,,false,,,,308807.19999980927,308806.80000019073,,308806.30000019073,,308808.358,8,400,,,
break_continue,html.Screen,4_46_2,2023-10-31T17:01:24.263Z,,0,,,NaN,,,,,,false,,,,308807.59999990463,308807.5,,308807.40000009537,,308808.358,8,400,,,
sequence,flow.Sequence,4_46,2023-10-31T17:01:24.264Z,,0,,,3262.392999999982,completion,,,,,false,,,,308807.80000019073,308807.5,305528.939,305535.80000019073,305545.107,308808.358,8,400,,,
trial,html.Screen,4_47_0,2023-10-31T17:01:28.448Z,,0,1,,4184.04200009536,response,ISIC_2196127.JPG,11,ISIC_9019691.JPG,ISIC_2196127.JPG,false,1,keypress(m),500,312992.59999990463,312992.40000009537,308792.238,308808,308808.358,313004.488,8,400,48,,ISIC_9019691.JPG
break,html.Screen,4_47_1,2023-10-31T17:01:28.450Z,,0,,,NaN,,,,,,false,,,,312993.80000019073,312993.40000009537,,312992.90000009537,,313004.488,8,400,,,
break_continue,html.Screen,4_47_2,2023-10-31T17:01:28.450Z,,0,,,NaN,,,,,,false,,,,312994.09999990463,312994,,312993.90000009537,,313004.488,8,400,,,
sequence,flow.Sequence,4_47,2023-10-31T17:01:28.450Z,,0,,,4185.641999999993,completion,,,,,false,,,,312994.19999980927,312994,308792.238,308807.90000009537,308808.358,313004.488,8,400,,,
trial,html.Screen,4_48_0,2023-10-31T17:01:31.643Z,,0,1,,3182.711999809253,response,ISIC_1023354.JPG,4,ISIC_0000150.JPG,ISIC_0000150.JPG,false,0,keypress(z),500,316187.5,316187.19999980927,312987.881,312994.40000009537,313004.488,316201.659,8,400,49,,ISIC_1023354.JPG
break,html.Screen,4_48_1,2023-10-31T17:01:31.644Z,,0,,,NaN,,,,,,false,,,,316188.69999980927,316188.19999980927,,316187.69999980927,,316201.659,8,400,,,
break_continue,html.Screen,4_48_2,2023-10-31T17:01:31.645Z,,0,,,NaN,,,,,,false,,,,316189.09999990463,316189,,316188.80000019073,,316201.659,8,400,,,
sequence,flow.Sequence,4_48,2023-10-31T17:01:31.645Z,,0,,,3184.511999999988,completion,,,,,false,,,,316189.19999980927,316189,312987.881,312994.30000019073,313004.488,316201.659,8,400,,,
trial,html.Screen,4_49_0,2023-10-31T17:01:37.503Z,,0,1,,5845.14100019075,response,ISIC_3684488.JPG,9,ISIC_0064997.JPG,ISIC_0064997.JPG,false,0,keypress(z),500,322047.19999980927,322046.80000019073,316185.013,316189.40000009537,316201.659,322095.57,8,400,50,,ISIC_3684488.JPG
break,html.Screen,4_49_1,2023-10-31T17:01:47.543Z,,0,,,10040.361999999965,timeout,,,,,false,,,,332087.09999990463,332086.098,322046.083,322047.30000019073,322095.57,332135.932,8,400,,,
break_continue,html.Screen,4_49_2,2023-10-31T17:01:54.954Z,,0,,,7347.968000095396,response,,,,,false,continue,keypress(Space),,339497.90000009537,339483.90000009537,332086.098,332087.30000019073,332135.932,339511.99,8,400,,,
sequence,flow.Sequence,4_49,2023-10-31T17:01:54.954Z,,0,,,23282.241000095382,completion,,,,,false,,,,339498.09999990463,339483.90000009537,316185.013,316189.30000019073,316201.659,339511.99,8,400,,,
trial,html.Screen,4_50_0,2023-10-31T17:01:57.805Z,,0,2,,2836.7099998092744,response,ISIC_3151260.JPG,7,ISIC_8036175.JPG,ISIC_8036175.JPG,false,0,keypress(z),500,342348.90000009537,342348.69999980927,339494.919,339498.19999980927,339511.99,342359.059,8,400,1,,ISIC_3151260.JPG
break,html.Screen,4_50_1,2023-10-31T17:01:57.806Z,,0,,,NaN,,,,,,false,,,,342350,342349.69999980927,,342349.19999980927,,342359.059,8,400,,,
break_continue,html.Screen,4_50_2,2023-10-31T17:01:57.806Z,,0,,,NaN,,,,,,false,,,,342350.40000009537,342350.30000019073,,342350.09999990463,,342359.059,8,400,,,
sequence,flow.Sequence,4_50,2023-10-31T17:01:57.806Z,,0,,,2838.310000190744,completion,,,,,false,,,,342350.59999990463,342350.30000019073,339494.919,339498.19999980927,339511.99,342359.059,8,400,,,
trial,html.Screen,4_51_0,2023-10-31T17:02:01.335Z,,0,2,,3519.540999904624,response,ISIC_5721110.JPG,7,ISIC_0024675.JPG,ISIC_5721110.JPG,false,1,keypress(m),500,345878.90000009537,345878.59999990463,342342.544,342350.69999980927,342359.059,345889.158,8,400,2,,ISIC_0024675.JPG
break,html.Screen,4_51_1,2023-10-31T17:02:01.336Z,,0,,,NaN,,,,,,false,,,,345880.09999990463,345879.69999980927,,345879.09999990463,,345889.158,8,400,,,
break_continue,html.Screen,4_51_2,2023-10-31T17:02:01.336Z,,0,,,NaN,,,,,,false,,,,345880.5,345880.40000009537,,345880.19999980927,,345889.158,8,400,,,
sequence,flow.Sequence,4_51,2023-10-31T17:02:01.336Z,,0,,,3521.341000095359,completion,,,,,false,,,,345880.69999980927,345880.40000009537,342342.544,342350.69999980927,342359.059,345889.158,8,400,,,
trial,html.Screen,4_52_0,2023-10-31T17:02:04.804Z,,0,2,,3458.342000000004,response,ISIC_7630208.JPG,5,ISIC_0000410.JPG,ISIC_0000410.JPG,false,0,keypress(z),500,349347.80000019073,349347.5,345872.782,345880.80000019073,345889.158,349352.331,8,400,3,,ISIC_7630208.JPG
break,html.Screen,4_52_1,2023-10-31T17:02:04.805Z,,0,,,NaN,,,,,,false,,,,349349,349348.69999980927,,349348,,349352.331,8,400,,,
break_continue,html.Screen,4_52_2,2023-10-31T17:02:04.805Z,,0,,,NaN,,,,,,false,,,,349349.30000019073,349349.19999980927,,349349.09999990463,,349352.331,8,400,,,
sequence,flow.Sequence,4_52,2023-10-31T17:02:04.805Z,,0,,,3460.0419998092693,completion,,,,,false,,,,349349.5,349349.19999980927,345872.782,345880.80000019073,345889.158,349352.331,8,400,,,
trial,html.Screen,4_53_0,2023-10-31T17:02:08.153Z,,0,2,,3344.4690001907293,response,ISIC_9788545.JPG,11,ISIC_0070351.JPG,ISIC_9788545.JPG,false,1,keypress(m),500,352697.09999990463,352696.80000019073,349335.723,349349.59999990463,349352.331,352699.08,8,400,4,,ISIC_0070351.JPG
break,html.Screen,4_53_1,2023-10-31T17:02:08.154Z,,0,,,NaN,,,,,,false,,,,352698.30000019073,352697.80000019073,,352697.30000019073,,352699.08,8,400,,,
break_continue,html.Screen,4_53_2,2023-10-31T17:02:08.154Z,,0,,,NaN,,,,,,false,,,,352698.69999980927,352698.59999990463,,352698.5,,352699.08,8,400,,,
sequence,flow.Sequence,4_53,2023-10-31T17:02:08.155Z,,0,,,3346.268999904627,completion,,,,,false,,,,352698.90000009537,352698.59999990463,349335.723,349349.59999990463,349352.331,352699.08,8,400,,,
trial,html.Screen,4_54_0,2023-10-31T17:02:13.326Z,,0,2,,5170.519999904616,response,ISIC_0068727.JPG,10,ISIC_0056796.JPG,ISIC_0056796.JPG,false,0,keypress(z),500,357869.90000009537,357869.59999990463,352682.548,352699.09999990463,352699.08,357877.339,8,400,5,,ISIC_0068727.JPG
break,html.Screen,4_54_1,2023-10-31T17:02:13.327Z,,0,,,NaN,,,,,,false,,,,357871.09999990463,357870.80000019073,,357870.09999990463,,357877.339,8,400,,,
break_continue,html.Screen,4_54_2,2023-10-31T17:02:13.327Z,,0,,,NaN,,,,,,false,,,,357871.40000009537,357871.40000009537,,357871.19999980927,,357877.339,8,400,,,
sequence,flow.Sequence,4_54,2023-10-31T17:02:13.327Z,,0,,,5172.320000095351,completion,,,,,false,,,,357871.59999990463,357871.40000009537,352682.548,352699,352699.08,357877.339,8,400,,,
trial,html.Screen,4_55_0,2023-10-31T17:02:17.155Z,,0,2,,3821.9610001907567,response,ISIC_0061029.JPG,6,ISIC_0068407.JPG,ISIC_0068407.JPG,false,0,keypress(z),500,361699.59999990463,361699.30000019073,357861.151,357871.69999980927,357877.339,361707.011,8,400,6,,ISIC_0061029.JPG
break,html.Screen,4_55_1,2023-10-31T17:02:17.156Z,,0,,,NaN,,,,,,false,,,,361700.80000019073,361700.40000009537,,361699.90000009537,,361707.011,8,400,,,
break_continue,html.Screen,4_55_2,2023-10-31T17:02:17.157Z,,0,,,NaN,,,,,,false,,,,361701.09999990463,361701,,361700.90000009537,,361707.011,8,400,,,
sequence,flow.Sequence,4_55,2023-10-31T17:02:17.157Z,,0,,,3823.661000000022,completion,,,,,false,,,,361701.30000019073,361701,357861.151,357871.69999980927,357877.339,361707.011,8,400,,,
trial,html.Screen,4_56_0,2023-10-31T17:02:20.333Z,,0,2,,3169.588999904634,response,ISIC_5813642.JPG,6,ISIC_0059440.JPG,ISIC_0059440.JPG,false,0,keypress(z),500,364877,364876.59999990463,361690.767,361701.40000009537,361707.011,364887.176,8,400,7,,ISIC_5813642.JPG
break,html.Screen,4_56_1,2023-10-31T17:02:20.334Z,,0,,,NaN,,,,,,false,,,,364878.40000009537,364878,,364877.19999980927,,364887.176,8,400,,,
break_continue,html.Screen,4_56_2,2023-10-31T17:02:20.335Z,,0,,,NaN,,,,,,false,,,,364879,364878.80000019073,,364878.69999980927,,364887.176,8,400,,,
sequence,flow.Sequence,4_56,2023-10-31T17:02:20.335Z,,0,,,3171.7890001907363,completion,,,,,false,,,,364879.09999990463,364878.80000019073,361690.767,361701.40000009537,361707.011,364887.176,8,400,,,
trial,html.Screen,4_57_0,2023-10-31T17:02:23.398Z,,0,2,,3055.0239998092875,response,ISIC_2279679.JPG,12,ISIC_0030751.JPG,ISIC_0030751.JPG,false,0,keypress(z),500,367942.5,367942.19999980927,364870.809,364879.30000019073,364887.176,367951.11,8,400,8,,ISIC_2279679.JPG
break,html.Screen,4_57_1,2023-10-31T17:02:23.399Z,,0,,,NaN,,,,,,false,,,,367943.59999990463,367943.30000019073,,367942.69999980927,,367951.11,8,400,,,
break_continue,html.Screen,4_57_2,2023-10-31T17:02:23.400Z,,0,,,NaN,,,,,,false,,,,367944,367943.90000009537,,367943.80000019073,,367951.11,8,400,,,
sequence,flow.Sequence,4_57,2023-10-31T17:02:23.400Z,,0,,,3056.72400009539,completion,,,,,false,,,,367944.19999980927,367943.90000009537,364870.809,364879.30000019073,364887.176,367951.11,8,400,,,
trial,html.Screen,4_58_0,2023-10-31T17:02:26.465Z,,0,2,,3057.890000000014,response,ISIC_0440582.JPG,10,ISIC_0064979.JPG,ISIC_0440582.JPG,false,1,keypress(m),500,371009.30000019073,371009,367934.514,367944.40000009537,367951.11,371014.58,8,400,9,,ISIC_0064979.JPG
break,html.Screen,4_58_1,2023-10-31T17:02:26.466Z,,0,,,NaN,,,,,,false,,,,371010.40000009537,371010,,371009.5,,371014.58,8,400,,,
break_continue,html.Screen,4_58_2,2023-10-31T17:02:26.467Z,,0,,,NaN,,,,,,false,,,,371010.90000009537,371010.80000019073,,371010.59999990463,,371014.58,8,400,,,
sequence,flow.Sequence,4_58,2023-10-31T17:02:26.467Z,,0,,,3059.690000190749,completion,,,,,false,,,,371011.09999990463,371010.80000019073,367934.514,367944.30000019073,367951.11,371014.58,8,400,,,
trial,html.Screen,4_59_0,2023-10-31T17:02:29.110Z,,0,2,,2639.619999809249,response,ISIC_8651053.JPG,8,ISIC_0034022.JPG,ISIC_0034022.JPG,false,0,keypress(z),500,373654.5,373654.19999980927,370998.45,371011.19999980927,371014.58,373661.997,8,400,10,,ISIC_8651053.JPG
break,html.Screen,4_59_1,2023-10-31T17:02:29.111Z,,0,,,NaN,,,,,,false,,,,373655.69999980927,373655.30000019073,,373654.69999980927,,373661.997,8,400,,,
break_continue,html.Screen,4_59_2,2023-10-31T17:02:29.112Z,,0,,,NaN,,,,,,false,,,,373656.30000019073,373656.19999980927,,373655.90000009537,,373661.997,8,400,,,
sequence,flow.Sequence,4_59,2023-10-31T17:02:29.112Z,,0,,,2641.619999809249,completion,,,,,false,,,,373656.5,373656.19999980927,370998.45,371011.19999980927,371014.58,373661.997,8,400,,,
trial,html.Screen,4_60_0,2023-10-31T17:02:32.225Z,,0,2,,3107.1029999046586,response,ISIC_0056793.JPG,9,ISIC_0011780.JPG,ISIC_0011780.JPG,false,0,keypress(z),500,376769.30000019073,376769.09999990463,373645.646,373656.59999990463,373661.997,376775.809,8,400,11,,ISIC_0056793.JPG
break,html.Screen,4_60_1,2023-10-31T17:02:32.226Z,,0,,,NaN,,,,,,false,,,,376770.40000009537,376770.09999990463,,376769.5,,376775.809,8,400,,,
break_continue,html.Screen,4_60_2,2023-10-31T17:02:32.227Z,,0,,,NaN,,,,,,false,,,,376770.80000019073,376770.59999990463,,376770.5,,376775.809,8,400,,,
sequence,flow.Sequence,4_60,2023-10-31T17:02:32.227Z,,0,,,3108.6029999046586,completion,,,,,false,,,,376771,376770.59999990463,373645.646,373656.59999990463,373661.997,376775.809,8,400,,,
trial,html.Screen,4_61_0,2023-10-31T17:02:35.417Z,,0,2,,3185.1909999999916,response,ISIC_2884038.JPG,11,ISIC_5747486.JPG,ISIC_5747486.JPG,false,0,keypress(z),500,379961.40000009537,379961,376759.002,376771,376775.809,379972.875,8,400,12,,ISIC_2884038.JPG
break,html.Screen,4_61_1,2023-10-31T17:02:35.418Z,,0,,,NaN,,,,,,false,,,,379962.5,379962.09999990463,,379961.59999990463,,379972.875,8,400,,,
break_continue,html.Screen,4_61_2,2023-10-31T17:02:35.419Z,,0,,,NaN,,,,,,false,,,,379962.90000009537,379962.69999980927,,379962.59999990463,,379972.875,8,400,,,
sequence,flow.Sequence,4_61,2023-10-31T17:02:35.419Z,,0,,,3186.8909998092568,completion,,,,,false,,,,379963.09999990463,379962.69999980927,376759.002,376771,376775.809,379972.875,8,400,,,
trial,html.Screen,4_62_0,2023-10-31T17:02:37.999Z,,0,2,,2570.0250000953674,response,ISIC_6915759.JPG,11,ISIC_3028754.JPG,ISIC_6915759.JPG,false,1,keypress(m),500,382543.19999980927,382542.90000009537,379956.028,379963.19999980927,379972.875,382553.41,8,400,13,,ISIC_3028754.JPG
break,html.Screen,4_62_1,2023-10-31T17:02:38.000Z,,0,,,NaN,,,,,,false,,,,382544.40000009537,382544.19999980927,,382543.5,,382553.41,8,400,,,
break_continue,html.Screen,4_62_2,2023-10-31T17:02:38.001Z,,0,,,NaN,,,,,,false,,,,382544.69999980927,382544.69999980927,,382544.59999990463,,382553.41,8,400,,,
sequence,flow.Sequence,4_62,2023-10-31T17:02:38.001Z,,0,,,2571.824999809265,completion,,,,,false,,,,382544.90000009537,382544.69999980927,379956.028,379963.19999980927,379972.875,382553.41,8,400,,,
trial,html.Screen,4_63_0,2023-10-31T17:02:40.715Z,,0,2,,2704.990000095393,response,ISIC_7648726.JPG,13,ISIC_3716504.JPG,ISIC_3716504.JPG,false,0,keypress(z),500,385258.69999980927,385258.40000009537,382537.142,382545,382553.41,385267.426,8,400,14,,ISIC_7648726.JPG
break,html.Screen,4_63_1,2023-10-31T17:02:40.716Z,,0,,,NaN,,,,,,false,,,,385259.80000019073,385259.30000019073,,385258.90000009537,,385267.426,8,400,,,
break_continue,html.Screen,4_63_2,2023-10-31T17:02:40.716Z,,0,,,NaN,,,,,,false,,,,385260.30000019073,385260.19999980927,,385260.09999990463,,385267.426,8,400,,,
sequence,flow.Sequence,4_63,2023-10-31T17:02:40.716Z,,0,,,2706.7899998092907,completion,,,,,false,,,,385260.40000009537,385260.19999980927,382537.142,382544.90000009537,382553.41,385267.426,8,400,,,
trial,html.Screen,4_64_0,2023-10-31T17:02:44.500Z,,0,2,,3775.874000190757,response,ISIC_4867043.JPG,9,ISIC_0067972.JPG,ISIC_0067972.JPG,false,0,keypress(z),500,389043.80000019073,389043.30000019073,385250.856,385260.59999990463,385267.426,389047.098,8,400,15,,ISIC_4867043.JPG
break,html.Screen,4_64_1,2023-10-31T17:02:44.501Z,,0,,,NaN,,,,,,false,,,,389044.69999980927,389044.5,,389043.90000009537,,389047.098,8,400,,,
break_continue,html.Screen,4_64_2,2023-10-31T17:02:44.501Z,,0,,,NaN,,,,,,false,,,,389045.09999990463,389045,,389044.90000009537,,389047.098,8,400,,,
sequence,flow.Sequence,4_64,2023-10-31T17:02:44.501Z,,0,,,3777.5740000000224,completion,,,,,false,,,,389045.30000019073,389045,385250.856,385260.59999990463,385267.426,389047.098,8,400,,,
trial,html.Screen,4_65_0,2023-10-31T17:02:47.405Z,,0,2,,2902.0019999046344,response,ISIC_0232101.JPG,10,ISIC_7519627.JPG,ISIC_7519627.JPG,false,0,keypress(z),500,391949.40000009537,391949.09999990463,389030.447,389045.40000009537,389047.098,391961.046,8,400,16,,ISIC_0232101.JPG
break,html.Screen,4_65_1,2023-10-31T17:02:47.406Z,,0,,,NaN,,,,,,false,,,,391950.5,391950.19999980927,,391949.69999980927,,391961.046,8,400,,,
break_continue,html.Screen,4_65_2,2023-10-31T17:02:47.407Z,,0,,,NaN,,,,,,false,,,,391950.80000019073,391950.69999980927,,391950.59999990463,,391961.046,8,400,,,
sequence,flow.Sequence,4_65,2023-10-31T17:02:47.407Z,,0,,,2903.601999809267,completion,,,,,false,,,,391951,391950.69999980927,389030.447,389045.30000019073,389047.098,391961.046,8,400,,,
trial,html.Screen,4_66_0,2023-10-31T17:02:50.197Z,,0,2,,2779.5539999046596,response,ISIC_7172145.JPG,9,ISIC_5559730.JPG,ISIC_7172145.JPG,false,1,keypress(m),500,394740.80000019073,394740.59999990463,391944.385,391951.09999990463,391961.046,394758.209,8,400,17,,ISIC_5559730.JPG
break,html.Screen,4_66_1,2023-10-31T17:02:50.198Z,,0,,,NaN,,,,,,false,,,,394741.80000019073,394741.5,,394741,,394758.209,8,400,,,
break_continue,html.Screen,4_66_2,2023-10-31T17:02:50.198Z,,0,,,NaN,,,,,,false,,,,394742.09999990463,394742,,394741.90000009537,,394758.209,8,400,,,
sequence,flow.Sequence,4_66,2023-10-31T17:02:50.198Z,,0,,,2780.954000000027,completion,,,,,false,,,,394742.30000019073,394742,391944.385,391951.09999990463,391961.046,394758.209,8,400,,,
trial,html.Screen,4_67_0,2023-10-31T17:02:53.259Z,,0,2,,3044.9909998092917,response,ISIC_4529092.JPG,8,ISIC_7651944.JPG,ISIC_4529092.JPG,false,1,keypress(m),500,397803.5,397803.19999980927,394725.237,394742.30000019073,394758.209,397827.523,8,400,18,,ISIC_7651944.JPG
break,html.Screen,4_67_1,2023-10-31T17:02:53.261Z,,0,,,NaN,,,,,,false,,,,397804.80000019073,397804.40000009537,,397803.69999980927,,397827.523,8,400,,,
break_continue,html.Screen,4_67_2,2023-10-31T17:02:53.261Z,,0,,,NaN,,,,,,false,,,,397805.40000009537,397805.19999980927,,397804.90000009537,,397827.523,8,400,,,
sequence,flow.Sequence,4_67,2023-10-31T17:02:53.261Z,,0,,,3046.9909998092917,completion,,,,,false,,,,397805.5,397805.19999980927,394725.237,394742.30000019073,394758.209,397827.523,8,400,,,
trial,html.Screen,4_68_0,2023-10-31T17:02:56.067Z,,0,2,,2783.576999904646,response,ISIC_0010358.JPG,10,ISIC_0073044.JPG,ISIC_0073044.JPG,false,0,keypress(z),500,400611.40000009537,400611.09999990463,397789,397805.69999980927,397827.523,400619.17,8,400,19,,ISIC_0010358.JPG
break,html.Screen,4_68_1,2023-10-31T17:02:56.068Z,,0,,,NaN,,,,,,false,,,,400612.59999990463,400612.19999980927,,400611.69999980927,,400619.17,8,400,,,
break_continue,html.Screen,4_68_2,2023-10-31T17:02:56.069Z,,0,,,NaN,,,,,,false,,,,400612.90000009537,400612.80000019073,,400612.69999980927,,400619.17,8,400,,,
sequence,flow.Sequence,4_68,2023-10-31T17:02:56.069Z,,0,,,2785.2770001907484,completion,,,,,false,,,,400613.09999990463,400612.80000019073,397789,397805.69999980927,397827.523,400619.17,8,400,,,
trial,html.Screen,4_69_0,2023-10-31T17:02:59.449Z,,0,2,,3373.2300000953837,response,ISIC_7809510.JPG,12,ISIC_0009871.JPG,ISIC_7809510.JPG,false,1,keypress(m),500,403992.59999990463,403992.40000009537,400603.055,400613.19999980927,400619.17,403999.307,8,400,20,,ISIC_0009871.JPG
break,html.Screen,4_69_1,2023-10-31T17:02:59.450Z,,0,,,NaN,,,,,,false,,,,403993.59999990463,403993.30000019073,,403992.90000009537,,403999.307,8,400,,,
break_continue,html.Screen,4_69_2,2023-10-31T17:02:59.450Z,,0,,,NaN,,,,,,false,,,,403994,403993.90000009537,,403993.80000019073,,403999.307,8,400,,,
sequence,flow.Sequence,4_69,2023-10-31T17:02:59.450Z,,0,,,3374.7300000953837,completion,,,,,false,,,,403994.19999980927,403993.90000009537,400603.055,400613.09999990463,400619.17,403999.307,8,400,,,
trial,html.Screen,4_70_0,2023-10-31T17:03:02.509Z,,0,2,,3053.792999904661,response,ISIC_5386244.JPG,8,ISIC_0066935.JPG,ISIC_0066935.JPG,false,0,keypress(z),500,407053.5,407053.09999990463,403982.868,403994.30000019073,403999.307,407062.901,8,400,21,,ISIC_5386244.JPG
break,html.Screen,4_70_1,2023-10-31T17:03:02.511Z,,0,,,NaN,,,,,,false,,,,407054.69999980927,407054.30000019073,,407053.69999980927,,407062.901,8,400,,,
break_continue,html.Screen,4_70_2,2023-10-31T17:03:02.511Z,,0,,,NaN,,,,,,false,,,,407055.09999990463,407055,,407054.80000019073,,407062.901,8,400,,,
sequence,flow.Sequence,4_70,2023-10-31T17:03:02.511Z,,0,,,3055.6930000000284,completion,,,,,false,,,,407055.19999980927,407055,403982.868,403994.30000019073,403999.307,407062.901,8,400,,,
trial,html.Screen,4_71_0,2023-10-31T17:03:05.142Z,,0,2,,2623.19899990462,response,ISIC_0025153.JPG,12,ISIC_0001149.JPG,ISIC_0001149.JPG,false,0,keypress(z),500,409686.30000019073,409686.09999990463,407046.817,407055.40000009537,407062.901,409693.69,8,400,22,,ISIC_0025153.JPG
break,html.Screen,4_71_1,2023-10-31T17:03:05.143Z,,0,,,NaN,,,,,,false,,,,409687.5,409687.19999980927,,409686.59999990463,,409693.69,8,400,,,
break_continue,html.Screen,4_71_2,2023-10-31T17:03:05.144Z,,0,,,NaN,,,,,,false,,,,409688,409687.90000009537,,409687.69999980927,,409693.69,8,400,,,
sequence,flow.Sequence,4_71,2023-10-31T17:03:05.144Z,,0,,,2624.999000095355,completion,,,,,false,,,,409688.09999990463,409687.90000009537,407046.817,407055.30000019073,407062.901,409693.69,8,400,,,
trial,html.Screen,4_72_0,2023-10-31T17:03:09.775Z,,0,2,,4625.6100001907325,response,ISIC_0072041.JPG,7,ISIC_0010240.JPG,ISIC_0072041.JPG,false,1,keypress(m),500,414319.69999980927,414319.30000019073,409677.035,409688.19999980927,409693.69,414322.552,8,400,23,,ISIC_0010240.JPG
break,html.Screen,4_72_1,2023-10-31T17:03:09.777Z,,0,,,NaN,,,,,,false,,,,414320.90000009537,414320.40000009537,,414319.90000009537,,414322.552,8,400,,,
break_continue,html.Screen,4_72_2,2023-10-31T17:03:09.777Z,,0,,,NaN,,,,,,false,,,,414321.30000019073,414321.19999980927,,414321.09999990463,,414322.552,8,400,,,
sequence,flow.Sequence,4_72,2023-10-31T17:03:09.777Z,,0,,,4627.509999809263,completion,,,,,false,,,,414321.5,414321.19999980927,409677.035,409688.19999980927,409693.69,414322.552,8,400,,,
trial,html.Screen,4_73_0,2023-10-31T17:03:12.922Z,,0,2,,3143.64799980924,response,ISIC_4033676.JPG,6,ISIC_0028949.JPG,ISIC_4033676.JPG,false,1,keypress(m),500,417466.40000009537,417466.19999980927,414306.387,414321.59999990463,414322.552,417469.491,8,400,24,,ISIC_0028949.JPG
break,html.Screen,4_73_1,2023-10-31T17:03:12.923Z,,0,,,NaN,,,,,,false,,,,417467.5,417467.19999980927,,417466.69999980927,,417469.491,8,400,,,
break_continue,html.Screen,4_73_2,2023-10-31T17:03:12.924Z,,0,,,NaN,,,,,,false,,,,417467.90000009537,417467.80000019073,,417467.69999980927,,417469.491,8,400,,,
sequence,flow.Sequence,4_73,2023-10-31T17:03:12.924Z,,0,,,3145.2480001907097,completion,,,,,false,,,,417468.09999990463,417467.80000019073,414306.387,414321.59999990463,414322.552,417469.491,8,400,,,
trial,html.Screen,4_74_0,2023-10-31T17:03:15.892Z,,0,2,,2966.809000190755,response,ISIC_5358548.JPG,9,ISIC_3475142.JPG,ISIC_3475142.JPG,false,0,keypress(z),500,420436.59999990463,420436.30000019073,417453.244,417468.19999980927,417469.491,420450.401,8,400,25,,ISIC_5358548.JPG
break,html.Screen,4_74_1,2023-10-31T17:03:15.894Z,,0,,,NaN,,,,,,false,,,,420437.80000019073,420437.5,,420436.80000019073,,420450.401,8,400,,,
break_continue,html.Screen,4_74_2,2023-10-31T17:03:15.894Z,,0,,,NaN,,,,,,false,,,,420438.19999980927,420438.09999990463,,420437.90000009537,,420450.401,8,400,,,
sequence,flow.Sequence,4_74,2023-10-31T17:03:15.894Z,,0,,,2968.6089999046526,completion,,,,,false,,,,420438.40000009537,420438.09999990463,417453.244,417468.19999980927,417469.491,420450.401,8,400,,,
trial,html.Screen,4_75_0,2023-10-31T17:03:19.544Z,,0,2,,3637.8990001907223,response,ISIC_7415335.JPG,9,ISIC_0071972.JPG,ISIC_0071972.JPG,false,0,keypress(z),500,424088.5,424088.30000019073,420433.517,420438.5,420450.401,424096.432,8,400,26,,ISIC_7415335.JPG
break,html.Screen,4_75_1,2023-10-31T17:03:19.546Z,,0,,,NaN,,,,,,false,,,,424089.69999980927,424089.30000019073,,424088.69999980927,,424096.432,8,400,,,
break_continue,html.Screen,4_75_2,2023-10-31T17:03:19.546Z,,0,,,NaN,,,,,,false,,,,424090.09999990463,424090,,424089.80000019073,,424096.432,8,400,,,
sequence,flow.Sequence,4_75,2023-10-31T17:03:19.546Z,,0,,,3639.5989999999874,completion,,,,,false,,,,424090.30000019073,424090,420433.517,420438.5,420450.401,424096.432,8,400,,,
trial,html.Screen,4_76_0,2023-10-31T17:03:22.307Z,,0,2,,2754.0680000000284,response,ISIC_9330527.JPG,11,ISIC_1686556.JPG,ISIC_1686556.JPG,false,0,keypress(z),500,426850.80000019073,426850.5,424079.798,424090.40000009537,424096.432,426860.376,8,400,27,,ISIC_9330527.JPG
break,html.Screen,4_76_1,2023-10-31T17:03:22.308Z,,0,,,NaN,,,,,,false,,,,426851.80000019073,426851.5,,426851.09999990463,,426860.376,8,400,,,
break_continue,html.Screen,4_76_2,2023-10-31T17:03:22.308Z,,0,,,NaN,,,,,,false,,,,426852.30000019073,426852.19999980927,,426852.09999990463,,426860.376,8,400,,,
sequence,flow.Sequence,4_76,2023-10-31T17:03:22.308Z,,0,,,2755.7679998092935,completion,,,,,false,,,,426852.5,426852.19999980927,424079.798,424090.30000019073,424096.432,426860.376,8,400,,,
trial,html.Screen,4_77_0,2023-10-31T17:03:25.483Z,,0,2,,3166.7239999046433,response,ISIC_0032360.JPG,9,ISIC_0066399.JPG,ISIC_0066399.JPG,false,0,keypress(z),500,430027.40000009537,430027.09999990463,426844.124,426852.5,426860.376,430040.564,8,400,28,,ISIC_0032360.JPG
break,html.Screen,4_77_1,2023-10-31T17:03:25.484Z,,0,,,NaN,,,,,,false,,,,430028.30000019073,430028.09999990463,,430027.40000009537,,430040.564,8,400,,,
break_continue,html.Screen,4_77_2,2023-10-31T17:03:25.485Z,,0,,,NaN,,,,,,false,,,,430028.69999980927,430028.5,,430028.40000009537,,430040.564,8,400,,,
sequence,flow.Sequence,4_77,2023-10-31T17:03:25.485Z,,0,,,3168.1240000000107,completion,,,,,false,,,,430028.80000019073,430028.5,426844.124,426852.5,426860.376,430040.564,8,400,,,
trial,html.Screen,4_78_0,2023-10-31T17:03:28.227Z,,0,2,,2730.635999809252,response,ISIC_5833015.JPG,10,ISIC_0000121.JPG,ISIC_5833015.JPG,false,1,keypress(m),500,432771.5,432771.19999980927,430024.321,430029,430040.564,432788.043,8,400,29,,ISIC_0000121.JPG
break,html.Screen,4_78_1,2023-10-31T17:03:28.228Z,,0,,,NaN,,,,,,false,,,,432772.59999990463,432772.30000019073,,432771.69999980927,,432788.043,8,400,,,
break_continue,html.Screen,4_78_2,2023-10-31T17:03:28.229Z,,0,,,NaN,,,,,,false,,,,432773,432772.90000009537,,432772.69999980927,,432788.043,8,400,,,
sequence,flow.Sequence,4_78,2023-10-31T17:03:28.229Z,,0,,,2732.3360000953544,completion,,,,,false,,,,432773.19999980927,432772.90000009537,430024.321,430028.90000009537,430040.564,432788.043,8,400,,,
trial,html.Screen,4_79_0,2023-10-31T17:03:31.815Z,,0,2,,3571.0569999046274,response,ISIC_0374029.JPG,5,ISIC_3763984.JPG,ISIC_3763984.JPG,false,0,keypress(z),500,436359.30000019073,436359.09999990463,432771.68,432773.30000019073,432788.043,436367.93,8,400,30,,ISIC_0374029.JPG
break,html.Screen,4_79_1,2023-10-31T17:03:31.816Z,,0,,,NaN,,,,,,false,,,,436360.5,436360.09999990463,,436359.5,,436367.93,8,400,,,
break_continue,html.Screen,4_79_2,2023-10-31T17:03:31.817Z,,0,,,NaN,,,,,,false,,,,436360.90000009537,436360.80000019073,,436360.69999980927,,436367.93,8,400,,,
sequence,flow.Sequence,4_79,2023-10-31T17:03:31.817Z,,0,,,3572.7570001907297,completion,,,,,false,,,,436361,436360.80000019073,432771.68,432773.30000019073,432788.043,436367.93,8,400,,,
trial,html.Screen,4_80_0,2023-10-31T17:03:35.775Z,,0,2,,3950.9700000953744,response,ISIC_6828587.JPG,5,ISIC_9694867.JPG,ISIC_9694867.JPG,false,0,keypress(z),500,440319.09999990463,440318.90000009537,436351.659,436361.19999980927,436367.93,440330.748,8,400,31,,ISIC_6828587.JPG
break,html.Screen,4_80_1,2023-10-31T17:03:35.776Z,,0,,,NaN,,,,,,false,,,,440320.19999980927,440319.90000009537,,440319.30000019073,,440330.748,8,400,,,
break_continue,html.Screen,4_80_2,2023-10-31T17:03:35.776Z,,0,,,NaN,,,,,,false,,,,440320.59999990463,440320.5,,440320.40000009537,,440330.748,8,400,,,
sequence,flow.Sequence,4_80,2023-10-31T17:03:35.777Z,,0,,,3952.570000000007,completion,,,,,false,,,,440320.69999980927,440320.5,436351.659,436361.19999980927,436367.93,440330.748,8,400,,,
trial,html.Screen,4_81_0,2023-10-31T17:03:39.191Z,,0,2,,3403.9519998092437,response,ISIC_3993510.JPG,11,ISIC_7566505.JPG,ISIC_3993510.JPG,false,1,keypress(m),500,443735.09999990463,443734.69999980927,440314.351,440320.80000019073,440330.748,443743.945,8,400,32,,ISIC_7566505.JPG
break,html.Screen,4_81_1,2023-10-31T17:03:39.192Z,,0,,,NaN,,,,,,false,,,,443736.19999980927,443735.80000019073,,443735.19999980927,,443743.945,8,400,,,
break_continue,html.Screen,4_81_2,2023-10-31T17:03:39.193Z,,0,,,NaN,,,,,,false,,,,443736.59999990463,443736.5,,443736.40000009537,,443743.945,8,400,,,
sequence,flow.Sequence,4_81,2023-10-31T17:03:39.193Z,,0,,,3405.7519999999786,completion,,,,,false,,,,443736.80000019073,443736.5,440314.351,440320.80000019073,440330.748,443743.945,8,400,,,
trial,html.Screen,4_82_0,2023-10-31T17:03:41.886Z,,0,2,,2685.6549999046256,response,ISIC_0026086.JPG,11,ISIC_0013639.JPG,ISIC_0026086.JPG,false,1,keypress(m),500,446429.90000009537,446429.59999990463,443727.563,443736.90000009537,443743.945,446441.653,8,400,33,,ISIC_0013639.JPG
break,html.Screen,4_82_1,2023-10-31T17:03:41.887Z,,0,,,NaN,,,,,,false,,,,446431.09999990463,446430.69999980927,,446430.09999990463,,446441.653,8,400,,,
break_continue,html.Screen,4_82_2,2023-10-31T17:03:41.887Z,,0,,,NaN,,,,,,false,,,,446431.5,446431.40000009537,,446431.19999980927,,446441.653,8,400,,,
sequence,flow.Sequence,4_82,2023-10-31T17:03:41.888Z,,0,,,2687.4550000953604,completion,,,,,false,,,,446431.69999980927,446431.40000009537,443727.563,443736.90000009537,443743.945,446441.653,8,400,,,
trial,html.Screen,4_83_0,2023-10-31T17:03:45.286Z,,0,2,,3388.2470000953763,response,ISIC_2904067.JPG,9,ISIC_0013457.JPG,ISIC_2904067.JPG,false,1,keypress(m),500,449830.19999980927,449829.90000009537,446425.079,446431.80000019073,446441.653,449838.016,8,400,34,,ISIC_0013457.JPG
break,html.Screen,4_83_1,2023-10-31T17:03:45.287Z,,0,,,NaN,,,,,,false,,,,449831.30000019073,449831,,449830.40000009537,,449838.016,8,400,,,
break_continue,html.Screen,4_83_2,2023-10-31T17:03:45.288Z,,0,,,NaN,,,,,,false,,,,449831.69999980927,449831.59999990463,,449831.40000009537,,449838.016,8,400,,,
sequence,flow.Sequence,4_83,2023-10-31T17:03:45.288Z,,0,,,3389.9469999046414,completion,,,,,false,,,,449831.90000009537,449831.59999990463,446425.079,446431.80000019073,446441.653,449838.016,8,400,,,
trial,html.Screen,4_84_0,2023-10-31T17:03:48.641Z,,0,2,,3346.9839999999967,response,ISIC_0231745.JPG,10,ISIC_8007849.JPG,ISIC_8007849.JPG,false,0,keypress(z),500,453185.40000009537,453185,449821.548,449832,449838.016,453201.601,8,400,35,,ISIC_0231745.JPG
break,html.Screen,4_84_1,2023-10-31T17:03:48.643Z,,0,,,NaN,,,,,,false,,,,453186.59999990463,453186.19999980927,,453185.59999990463,,453201.601,8,400,,,
break_continue,html.Screen,4_84_2,2023-10-31T17:03:48.643Z,,0,,,NaN,,,,,,false,,,,453187,453186.80000019073,,453186.80000019073,,453201.601,8,400,,,
sequence,flow.Sequence,4_84,2023-10-31T17:03:48.643Z,,0,,,3348.7840001907316,completion,,,,,false,,,,453187.09999990463,453186.80000019073,449821.548,449832,449838.016,453201.601,8,400,,,
trial,html.Screen,4_85_0,2023-10-31T17:03:51.895Z,,0,2,,3236.9989999046084,response,ISIC_4252268.JPG,11,ISIC_4044751.JPG,ISIC_4044751.JPG,false,0,keypress(z),500,456438.90000009537,456438.59999990463,453184.869,453187.19999980927,453201.601,456465.084,8,400,36,,ISIC_4252268.JPG
break,html.Screen,4_85_1,2023-10-31T17:03:51.896Z,,0,,,NaN,,,,,,false,,,,456440,456439.69999980927,,456439.19999980927,,456465.084,8,400,,,
break_continue,html.Screen,4_85_2,2023-10-31T17:03:51.896Z,,0,,,NaN,,,,,,false,,,,456440.5,456440.40000009537,,456440.09999990463,,456465.084,8,400,,,
sequence,flow.Sequence,4_85,2023-10-31T17:03:51.898Z,,0,,,3238.799000095343,completion,,,,,false,,,,456441.69999980927,456440.40000009537,453184.869,453187.19999980927,453201.601,456465.084,8,400,,,
trial,html.Screen,4_86_0,2023-10-31T17:03:54.656Z,,0,2,,2734.2160001907614,response,ISIC_5248948.JPG,5,ISIC_6577632.JPG,ISIC_6577632.JPG,false,0,keypress(z),500,459199.69999980927,459199.30000019073,456448.385,456441.80000019073,456465.084,459212.771,8,400,37,,ISIC_5248948.JPG
break,html.Screen,4_86_1,2023-10-31T17:03:54.657Z,,0,,,NaN,,,,,,false,,,,459200.80000019073,459200.40000009537,,459199.90000009537,,459212.771,8,400,,,
break_continue,html.Screen,4_86_2,2023-10-31T17:03:54.657Z,,0,,,NaN,,,,,,false,,,,459201.30000019073,459201.19999980927,,459201,,459212.771,8,400,,,
sequence,flow.Sequence,4_86,2023-10-31T17:03:54.657Z,,0,,,2736.1159998092917,completion,,,,,false,,,,459201.5,459201.19999980927,456448.385,456441.69999980927,456465.084,459212.771,8,400,,,
trial,html.Screen,4_87_0,2023-10-31T17:03:57.303Z,,0,2,,2634.029000190727,response,ISIC_0011209.JPG,5,ISIC_3351880.JPG,ISIC_0011209.JPG,false,1,keypress(m),500,461847.09999990463,461846.80000019073,459196.039,459201.59999990463,459212.771,461860.183,8,400,38,,ISIC_3351880.JPG
break,html.Screen,4_87_1,2023-10-31T17:03:57.304Z,,0,,,NaN,,,,,,false,,,,461848.30000019073,461847.90000009537,,461847.40000009537,,461860.183,8,400,,,
break_continue,html.Screen,4_87_2,2023-10-31T17:03:57.305Z,,0,,,NaN,,,,,,false,,,,461848.80000019073,461848.59999990463,,461848.5,,461860.183,8,400,,,
sequence,flow.Sequence,4_87,2023-10-31T17:03:57.305Z,,0,,,2635.8289999046247,completion,,,,,false,,,,461848.90000009537,461848.59999990463,459196.039,459201.59999990463,459212.771,461860.183,8,400,,,
trial,html.Screen,4_88_0,2023-10-31T17:03:59.999Z,,0,2,,2682.816999999981,response,ISIC_0027402.JPG,9,ISIC_0070137.JPG,ISIC_0070137.JPG,false,0,keypress(z),500,464543.30000019073,464543,461843.607,461849.09999990463,461860.183,464557.587,8,400,39,,ISIC_0027402.JPG
break,html.Screen,4_88_1,2023-10-31T17:04:00.000Z,,0,,,NaN,,,,,,false,,,,464544.40000009537,464544.09999990463,,464543.59999990463,,464557.587,8,400,,,
break_continue,html.Screen,4_88_2,2023-10-31T17:04:00.001Z,,0,,,NaN,,,,,,false,,,,464544.80000019073,464544.80000019073,,464544.5,,464557.587,8,400,,,
sequence,flow.Sequence,4_88,2023-10-31T17:04:00.001Z,,0,,,2684.6170001907158,completion,,,,,false,,,,464545,464544.80000019073,461843.607,461849.09999990463,461860.183,464557.587,8,400,,,
trial,html.Screen,4_89_0,2023-10-31T17:04:02.643Z,,0,2,,2629.512999904633,response,ISIC_4548632.JPG,6,ISIC_1608524.JPG,ISIC_1608524.JPG,false,0,keypress(z),500,467187.40000009537,467187.09999990463,464540.672,464545.09999990463,464557.587,467204.997,8,400,40,,ISIC_4548632.JPG
break,html.Screen,4_89_1,2023-10-31T17:04:02.644Z,,0,,,NaN,,,,,,false,,,,467188.59999990463,467188.09999990463,,467187.69999980927,,467204.997,8,400,,,
break_continue,html.Screen,4_89_2,2023-10-31T17:04:02.645Z,,0,,,NaN,,,,,,false,,,,467189,467188.80000019073,,467188.69999980927,,467204.997,8,400,,,
sequence,flow.Sequence,4_89,2023-10-31T17:04:02.645Z,,0,,,2631.2130001907353,completion,,,,,false,,,,467189.09999990463,467188.80000019073,464540.672,464545.09999990463,464557.587,467204.997,8,400,,,
trial,html.Screen,4_90_0,2023-10-31T17:04:05.518Z,,0,2,,2857.1029999046586,response,ISIC_6701139.JPG,4,ISIC_4288307.JPG,ISIC_4288307.JPG,false,0,keypress(z),500,470062.40000009537,470062.09999990463,467187.816,467189.19999980927,467204.997,470068.393,8,400,41,,ISIC_6701139.JPG
break,html.Screen,4_90_1,2023-10-31T17:04:05.519Z,,0,,,NaN,,,,,,false,,,,470063.5,470063.09999990463,,470062.59999990463,,470068.393,8,400,,,
break_continue,html.Screen,4_90_2,2023-10-31T17:04:05.520Z,,0,,,NaN,,,,,,false,,,,470063.90000009537,470063.80000019073,,470063.59999990463,,470068.393,8,400,,,
sequence,flow.Sequence,4_90,2023-10-31T17:04:05.520Z,,0,,,2858.803000190761,completion,,,,,false,,,,470064.09999990463,470063.80000019073,467187.816,467189.19999980927,467204.997,470068.393,8,400,,,
trial,html.Screen,4_91_0,2023-10-31T17:04:09.145Z,,0,2,,3620.8069998092833,response,ISIC_3152541.JPG,6,ISIC_6533176.JPG,ISIC_3152541.JPG,false,1,keypress(m),500,473689.5,473689.19999980927,470052.108,470064.19999980927,470068.393,473698.216,8,400,42,,ISIC_6533176.JPG
break,html.Screen,4_91_1,2023-10-31T17:04:09.146Z,,0,,,NaN,,,,,,false,,,,473690.40000009537,473690.19999980927,,473689.69999980927,,473698.216,8,400,,,
break_continue,html.Screen,4_91_2,2023-10-31T17:04:09.147Z,,0,,,NaN,,,,,,false,,,,473690.80000019073,473690.69999980927,,473690.59999990463,,473698.216,8,400,,,
sequence,flow.Sequence,4_91,2023-10-31T17:04:09.147Z,,0,,,3622.3069998092833,completion,,,,,false,,,,473691,473690.69999980927,470052.108,470064.19999980927,470068.393,473698.216,8,400,,,
trial,html.Screen,4_92_0,2023-10-31T17:04:14.461Z,,0,2,,5306.48399980925,response,ISIC_7210296.JPG,8,ISIC_0054744.JPG,ISIC_0054744.JPG,false,0,keypress(z),500,479005,479004.69999980927,473681.829,473691.09999990463,473698.216,479009.753,8,400,43,,ISIC_7210296.JPG
break,html.Screen,4_92_1,2023-10-31T17:04:14.462Z,,0,,,NaN,,,,,,false,,,,479006.19999980927,479005.80000019073,,479005.30000019073,,479009.753,8,400,,,
break_continue,html.Screen,4_92_2,2023-10-31T17:04:14.462Z,,0,,,NaN,,,,,,false,,,,479006.5,479006.40000009537,,479006.30000019073,,479009.753,8,400,,,
sequence,flow.Sequence,4_92,2023-10-31T17:04:14.463Z,,0,,,5308.1840000953525,completion,,,,,false,,,,479006.69999980927,479006.40000009537,473681.829,473691.09999990463,473698.216,479009.753,8,400,,,
trial,html.Screen,4_93_0,2023-10-31T17:04:17.250Z,,0,2,,2784.047000190709,response,ISIC_0033574.JPG,8,ISIC_0056790.JPG,ISIC_0033574.JPG,false,1,keypress(m),500,481794.09999990463,481793.80000019073,478993.573,479006.80000019073,479009.753,481807.48,8,400,44,,ISIC_0056790.JPG
break,html.Screen,4_93_1,2023-10-31T17:04:17.251Z,,0,,,NaN,,,,,,false,,,,481795.30000019073,481794.80000019073,,481794.40000009537,,481807.48,8,400,,,
break_continue,html.Screen,4_93_2,2023-10-31T17:04:17.252Z,,0,,,NaN,,,,,,false,,,,481795.69999980927,481795.59999990463,,481795.40000009537,,481807.48,8,400,,,
sequence,flow.Sequence,4_93,2023-10-31T17:04:17.252Z,,0,,,2785.8469999046065,completion,,,,,false,,,,481795.80000019073,481795.59999990463,478993.573,479006.80000019073,479009.753,481807.48,8,400,,,
trial,html.Screen,4_94_0,2023-10-31T17:04:20.219Z,,0,2,,2955.5200000000186,response,ISIC_7327423.JPG,10,ISIC_3585381.JPG,ISIC_3585381.JPG,false,0,keypress(z),500,484763.30000019073,484763,481790.531,481796,481807.48,484770.774,8,400,45,,ISIC_7327423.JPG
break,html.Screen,4_94_1,2023-10-31T17:04:20.220Z,,0,,,NaN,,,,,,false,,,,484764.40000009537,484764.09999990463,,484763.59999990463,,484770.774,8,400,,,
break_continue,html.Screen,4_94_2,2023-10-31T17:04:20.221Z,,0,,,NaN,,,,,,false,,,,484764.80000019073,484764.69999980927,,484764.69999980927,,484770.774,8,400,,,
sequence,flow.Sequence,4_94,2023-10-31T17:04:20.221Z,,0,,,2957.2199998092838,completion,,,,,false,,,,484765,484764.69999980927,481790.531,481795.90000009537,481807.48,484770.774,8,400,,,
trial,html.Screen,4_95_0,2023-10-31T17:04:23.025Z,,0,2,,2797.9259998092894,response,ISIC_0031589.JPG,10,ISIC_1254469.JPG,ISIC_0031589.JPG,false,1,keypress(m),500,487569,487568.69999980927,484754.488,484765.19999980927,484770.774,487585.222,8,400,46,,ISIC_1254469.JPG
break,html.Screen,4_95_1,2023-10-31T17:04:23.026Z,,0,,,NaN,,,,,,false,,,,487570.09999990463,487569.80000019073,,487569.30000019073,,487585.222,8,400,,,
break_continue,html.Screen,4_95_2,2023-10-31T17:04:23.027Z,,0,,,NaN,,,,,,false,,,,487570.69999980927,487570.5,,487570.30000019073,,487585.222,8,400,,,
sequence,flow.Sequence,4_95,2023-10-31T17:04:23.027Z,,0,,,2799.726000000024,completion,,,,,false,,,,487570.80000019073,487570.5,484754.488,484765.09999990463,484770.774,487585.222,8,400,,,
trial,html.Screen,4_96_0,2023-10-31T17:04:26.102Z,,0,2,,3060.9779998092563,response,ISIC_4148086.JPG,10,ISIC_2833213.JPG,ISIC_2833213.JPG,false,0,keypress(z),500,490646.5,490646.19999980927,487568.426,487570.90000009537,487585.222,490648.427,8,400,47,,ISIC_4148086.JPG
break,html.Screen,4_96_1,2023-10-31T17:04:26.104Z,,0,,,NaN,,,,,,false,,,,490647.69999980927,490647.30000019073,,490646.69999980927,,490648.427,8,400,,,
break_continue,html.Screen,4_96_2,2023-10-31T17:04:26.104Z,,0,,,NaN,,,,,,false,,,,490648.09999990463,490648,,490647.80000019073,,490648.427,8,400,,,
sequence,flow.Sequence,4_96,2023-10-31T17:04:26.104Z,,0,,,3062.777999999991,completion,,,,,false,,,,490648.30000019073,490648,487568.426,487570.90000009537,487585.222,490648.427,8,400,,,
trial,html.Screen,4_97_0,2023-10-31T17:04:29.165Z,,0,2,,3060.572999999975,response,ISIC_0030660.JPG,11,ISIC_5948805.JPG,ISIC_0030660.JPG,false,1,keypress(m),500,493709.40000009537,493709,490632.084,490648.5,490648.427,493712.093,8,400,48,,ISIC_5948805.JPG
break,html.Screen,4_97_1,2023-10-31T17:04:29.167Z,,0,,,NaN,,,,,,false,,,,493710.80000019073,493710.5,,493709.80000019073,,493712.093,8,400,,,
break_continue,html.Screen,4_97_2,2023-10-31T17:04:29.167Z,,0,,,NaN,,,,,,false,,,,493711.19999980927,493711.09999990463,,493710.90000009537,,493712.093,8,400,,,
sequence,flow.Sequence,4_97,2023-10-31T17:04:29.167Z,,0,,,3062.6729999046074,completion,,,,,false,,,,493711.40000009537,493711.09999990463,490632.084,490648.40000009537,490648.427,493712.093,8,400,,,
trial,html.Screen,4_98_0,2023-10-31T17:04:33.907Z,,0,2,,4738.307000095374,response,ISIC_0066798.JPG,11,ISIC_4856536.JPG,ISIC_0066798.JPG,false,1,keypress(m),500,498450.69999980927,498450.40000009537,493695.618,493711.5,493712.093,498457.543,8,400,49,,ISIC_4856536.JPG
break,html.Screen,4_98_1,2023-10-31T17:04:33.908Z,,0,,,NaN,,,,,,false,,,,498451.90000009537,498451.5,,498451.09999990463,,498457.543,8,400,,,
break_continue,html.Screen,4_98_2,2023-10-31T17:04:33.908Z,,0,,,NaN,,,,,,false,,,,498452.40000009537,498452.19999980927,,498452.09999990463,,498457.543,8,400,,,
sequence,flow.Sequence,4_98,2023-10-31T17:04:33.908Z,,0,,,4740.106999809272,completion,,,,,false,,,,498452.59999990463,498452.19999980927,493695.618,493711.40000009537,493712.093,498457.543,8,400,,,
trial,html.Screen,4_99_0,2023-10-31T17:04:45.404Z,,0,2,,11522.53899999999,timeout,ISIC_1714941.JPG,6,ISIC_6520237.JPG,,false,,,500,509948,509947.5,498440.953,498452.69999980927,498457.543,509980.082,8,400,50,,
break,html.Screen,4_99_1,2023-10-31T17:04:55.428Z,,0,,,10006.695000000007,timeout,,,,,false,,,,519971.90000009537,519970.416,509963.513,509948.19999980927,509980.082,519986.777,8,400,,,
break_continue,html.Screen,4_99_2,2023-10-31T17:04:56.818Z,,0,,,1350.8229999046307,response,,,,,false,continue,keypress(Space),,521361.80000019073,521337.59999990463,519970.416,519972.19999980927,519986.777,521368.775,8,400,,,
sequence,flow.Sequence,4_99,2023-10-31T17:04:56.818Z,,0,,,22880.056999904627,completion,,,,,false,,,,521362,521337.59999990463,498440.953,498452.59999990463,498457.543,521368.775,8,400,,,
trial,html.Screen,4_100_0,2023-10-31T17:05:01.174Z,,0,3,,4349.025000190712,response,ISIC_5923430.JPG,6,ISIC_0013059.JPG,ISIC_5923430.JPG,false,1,keypress(m),500,525718.0999999046,525717.8000001907,521352.248,521362.09999990463,521368.775,525731.124,8,400,1,,ISIC_0013059.JPG
break,html.Screen,4_100_1,2023-10-31T17:05:01.175Z,,0,,,NaN,,,,,,false,,,,525719.1999998093,525718.8000001907,,525718.3000001907,,525731.124,8,400,,,
break_continue,html.Screen,4_100_2,2023-10-31T17:05:01.175Z,,0,,,NaN,,,,,,false,,,,525719.5999999046,525719.4000000954,,525719.3000001907,,525731.124,8,400,,,
sequence,flow.Sequence,4_100,2023-10-31T17:05:01.176Z,,0,,,4350.625000095344,completion,,,,,false,,,,525719.6999998093,525719.4000000954,521352.248,521362,521368.775,525731.124,8,400,,,
trial,html.Screen,4_101_0,2023-10-31T17:05:04.239Z,,0,3,,3052.0759998093126,response,ISIC_0011506.JPG,10,ISIC_0066321.JPG,ISIC_0011506.JPG,false,1,keypress(m),500,528783.4000000954,528783.1999998093,525714.453,525719.9000000954,525731.124,528794.938,8,400,2,,ISIC_0066321.JPG
break,html.Screen,4_101_1,2023-10-31T17:05:04.240Z,,0,,,NaN,,,,,,false,,,,528784.5,528784.0999999046,,528783.5999999046,,528794.938,8,400,,,
break_continue,html.Screen,4_101_2,2023-10-31T17:05:04.241Z,,0,,,NaN,,,,,,false,,,,528784.8000001907,528784.6999998093,,528784.5999999046,,528794.938,8,400,,,
sequence,flow.Sequence,4_101,2023-10-31T17:05:04.241Z,,0,,,3053.5759998093126,completion,,,,,false,,,,528784.9000000954,528784.6999998093,525714.453,525719.9000000954,525731.124,528794.938,8,400,,,
trial,html.Screen,4_102_0,2023-10-31T17:05:06.855Z,,0,3,,2604.3620001907693,response,ISIC_4293419.JPG,5,ISIC_3971712.JPG,ISIC_4293419.JPG,false,1,keypress(m),500,531399.5999999046,531399.3000001907,528778.416,528785.0999999046,528794.938,531408.804,8,400,3,,ISIC_3971712.JPG
break,html.Screen,4_102_1,2023-10-31T17:05:06.857Z,,0,,,NaN,,,,,,false,,,,531400.6999998093,531400.5,,531399.8000001907,,531408.804,8,400,,,
break_continue,html.Screen,4_102_2,2023-10-31T17:05:06.857Z,,0,,,NaN,,,,,,false,,,,531401.0999999046,531401,,531400.9000000954,,531408.804,8,400,,,
sequence,flow.Sequence,4_102,2023-10-31T17:05:06.857Z,,0,,,2606.0620000000345,completion,,,,,false,,,,531401.3000001907,531401,528778.416,528785.0999999046,528794.938,531408.804,8,400,,,
trial,html.Screen,4_103_0,2023-10-31T17:05:10.125Z,,0,3,,3260.496000190731,response,ISIC_0027636.JPG,5,ISIC_7336383.JPG,ISIC_7336383.JPG,false,0,keypress(z),500,534669.5,534669.3000001907,531392.713,531401.4000000954,531408.804,534672.354,8,400,4,,ISIC_0027636.JPG
break,html.Screen,4_103_1,2023-10-31T17:05:10.126Z,,0,,,NaN,,,,,,false,,,,534670.5999999046,534670.3000001907,,534669.6999998093,,534672.354,8,400,,,
break_continue,html.Screen,4_103_2,2023-10-31T17:05:10.127Z,,0,,,NaN,,,,,,false,,,,534671.0999999046,534670.9000000954,,534670.9000000954,,534672.354,8,400,,,
sequence,flow.Sequence,4_103,2023-10-31T17:05:10.127Z,,0,,,3262.0960000953637,completion,,,,,false,,,,534671.1999998093,534670.9000000954,531392.713,531401.4000000954,531408.804,534672.354,8,400,,,
trial,html.Screen,4_104_0,2023-10-31T17:05:12.902Z,,0,3,,2774.046000095317,response,ISIC_0301568.JPG,7,ISIC_0014912.JPG,ISIC_0014912.JPG,false,0,keypress(z),500,537446.5999999046,537446.4000000954,534656.05,534671.3000001907,534672.354,537452.947,8,400,5,,ISIC_0301568.JPG
break,html.Screen,4_104_1,2023-10-31T17:05:12.904Z,,0,,,NaN,,,,,,false,,,,537447.9000000954,537447.5,,537446.9000000954,,537452.947,8,400,,,
break_continue,html.Screen,4_104_2,2023-10-31T17:05:12.904Z,,0,,,NaN,,,,,,false,,,,537448.3000001907,537448.1999998093,,537448.0999999046,,537452.947,8,400,,,
sequence,flow.Sequence,4_104,2023-10-31T17:05:12.904Z,,0,,,2775.845999809215,completion,,,,,false,,,,537448.5999999046,537448.1999998093,534656.05,534671.3000001907,534672.354,537452.947,8,400,,,
trial,html.Screen,4_105_0,2023-10-31T17:05:17.458Z,,0,3,,4549.152999904589,response,ISIC_0029993.JPG,10,ISIC_0029571.JPG,ISIC_0029571.JPG,false,0,keypress(z),500,542002.4000000954,542002.0999999046,537436.854,537448.6999998093,537452.947,542015.611,8,400,6,,ISIC_0029993.JPG
break,html.Screen,4_105_1,2023-10-31T17:05:17.459Z,,0,,,NaN,,,,,,false,,,,542003.5,542003.1999998093,,542002.5999999046,,542015.611,8,400,,,
break_continue,html.Screen,4_105_2,2023-10-31T17:05:17.460Z,,0,,,NaN,,,,,,false,,,,542003.9000000954,542003.8000001907,,542003.5999999046,,542015.611,8,400,,,
sequence,flow.Sequence,4_105,2023-10-31T17:05:17.460Z,,0,,,4550.853000190691,completion,,,,,false,,,,542004.0999999046,542003.8000001907,537436.854,537448.6999998093,537452.947,542015.611,8,400,,,
trial,html.Screen,4_106_0,2023-10-31T17:05:21.673Z,,0,3,,4201.189000190701,response,ISIC_5071555.JPG,12,ISIC_0046351.JPG,ISIC_5071555.JPG,false,1,keypress(m),500,546217.1999998093,546216.8000001907,541999.157,542004.1999998093,542015.611,546227.749,8,400,7,,ISIC_0046351.JPG
break,html.Screen,4_106_1,2023-10-31T17:05:21.676Z,,0,,,NaN,,,,,,false,,,,546219.8000001907,546219.3000001907,,546217.5,,546227.749,8,400,,,
break_continue,html.Screen,4_106_2,2023-10-31T17:05:21.676Z,,0,,,NaN,,,,,,false,,,,546220.1999998093,546220.0999999046,,546219.9000000954,,546227.749,8,400,,,
sequence,flow.Sequence,4_106,2023-10-31T17:05:21.676Z,,0,,,4204.488999904599,completion,,,,,false,,,,546220.4000000954,546220.0999999046,541999.157,542004.1999998093,542015.611,546227.749,8,400,,,
trial,html.Screen,4_107_0,2023-10-31T17:05:24.515Z,,0,3,,2831.35099990468,response,ISIC_0072714.JPG,6,ISIC_0000176.JPG,ISIC_0072714.JPG,false,1,keypress(m),500,549059.4000000954,549059.0999999046,546211.455,546220.5,546227.749,549075.505,8,400,8,,ISIC_0000176.JPG
break,html.Screen,4_107_1,2023-10-31T17:05:24.516Z,,0,,,NaN,,,,,,false,,,,549060.5,549060.0999999046,,549059.5999999046,,549075.505,8,400,,,
break_continue,html.Screen,4_107_2,2023-10-31T17:05:24.517Z,,0,,,NaN,,,,,,false,,,,549060.8000001907,549060.6999998093,,549060.5999999046,,549075.505,8,400,,,
sequence,flow.Sequence,4_107,2023-10-31T17:05:24.517Z,,0,,,2832.9509998093126,completion,,,,,false,,,,549061,549060.6999998093,546211.455,546220.5,546227.749,549075.505,8,400,,,
trial,html.Screen,4_108_0,2023-10-31T17:05:27.415Z,,0,3,,2883.594999904628,response,ISIC_2252958.JPG,8,ISIC_0055367.JPG,ISIC_0055367.JPG,false,0,keypress(z),500,551959.5,551959.0999999046,549058.791,549061.0999999046,549075.505,551989.064,8,400,9,,ISIC_2252958.JPG
break,html.Screen,4_108_1,2023-10-31T17:05:27.416Z,,0,,,NaN,,,,,,false,,,,551960.3000001907,551960.0999999046,,551959.6999998093,,551989.064,8,400,,,
break_continue,html.Screen,4_108_2,2023-10-31T17:05:27.417Z,,0,,,NaN,,,,,,false,,,,551960.6999998093,551960.5999999046,,551960.5,,551989.064,8,400,,,
sequence,flow.Sequence,4_108,2023-10-31T17:05:27.417Z,,0,,,2885.094999904628,completion,,,,,false,,,,551960.9000000954,551960.5999999046,549058.791,549061.0999999046,549075.505,551989.064,8,400,,,
trial,html.Screen,4_109_0,2023-10-31T17:05:30.955Z,,0,3,,3510.0359999046195,response,ISIC_0063601.JPG,9,ISIC_7980387.JPG,ISIC_0063601.JPG,false,1,keypress(m),500,555499.4000000954,555499.0999999046,551972.676,551960.9000000954,551989.064,555502.136,8,400,10,,ISIC_7980387.JPG
break,html.Screen,4_109_1,2023-10-31T17:05:30.956Z,,0,,,NaN,,,,,,false,,,,555500.5999999046,555500.1999998093,,555499.6999998093,,555502.136,8,400,,,
break_continue,html.Screen,4_109_2,2023-10-31T17:05:30.957Z,,0,,,NaN,,,,,,false,,,,555500.9000000954,555500.9000000954,,555500.6999998093,,555502.136,8,400,,,
sequence,flow.Sequence,4_109,2023-10-31T17:05:30.957Z,,0,,,3511.8360000953544,completion,,,,,false,,,,555501.1999998093,555500.9000000954,551972.676,551960.9000000954,551989.064,555502.136,8,400,,,
trial,html.Screen,4_110_0,2023-10-31T17:05:33.942Z,,0,3,,2984.2640000953106,response,ISIC_4521222.JPG,7,ISIC_2598575.JPG,ISIC_4521222.JPG,false,1,keypress(m),500,558486.6999998093,558486.4000000954,555485.995,555501.1999998093,555502.136,558499.727,8,400,11,,ISIC_2598575.JPG
break,html.Screen,4_110_1,2023-10-31T17:05:33.944Z,,0,,,NaN,,,,,,false,,,,558487.9000000954,558487.5999999046,,558486.9000000954,,558499.727,8,400,,,
break_continue,html.Screen,4_110_2,2023-10-31T17:05:33.944Z,,0,,,NaN,,,,,,false,,,,558488.3000001907,558488.1999998093,,558488.0999999046,,558499.727,8,400,,,
sequence,flow.Sequence,4_110,2023-10-31T17:05:33.944Z,,0,,,2986.0639998092083,completion,,,,,false,,,,558488.5,558488.1999998093,555485.995,555501.1999998093,555502.136,558499.727,8,400,,,
trial,html.Screen,4_111_0,2023-10-31T17:05:38.172Z,,0,3,,4215.57300019078,response,ISIC_0029970.JPG,6,ISIC_1925590.JPG,ISIC_1925590.JPG,false,0,keypress(z),500,562715.6999998093,562715.3000001907,558483.059,558488.5999999046,558499.727,562728.492,8,400,12,,ISIC_0029970.JPG
break,html.Screen,4_111_1,2023-10-31T17:05:38.173Z,,0,,,NaN,,,,,,false,,,,562716.8000001907,562716.5,,562716,,562728.492,8,400,,,
break_continue,html.Screen,4_111_2,2023-10-31T17:05:38.173Z,,0,,,NaN,,,,,,false,,,,562717.1999998093,562717.0999999046,,562717,,562728.492,8,400,,,
sequence,flow.Sequence,4_111,2023-10-31T17:05:38.173Z,,0,,,4217.372999904677,completion,,,,,false,,,,562717.4000000954,562717.0999999046,558483.059,558488.5999999046,558499.727,562728.492,8,400,,,
trial,html.Screen,4_112_0,2023-10-31T17:05:40.916Z,,0,3,,2731.6079999046633,response,ISIC_0013762.JPG,5,ISIC_5140952.JPG,ISIC_0013762.JPG,false,1,keypress(m),500,565460.4000000954,565460.0999999046,562712.294,562717.5,562728.492,565476.205,8,400,13,,ISIC_5140952.JPG
break,html.Screen,4_112_1,2023-10-31T17:05:40.917Z,,0,,,NaN,,,,,,false,,,,565461.1999998093,565461,,565460.6999998093,,565476.205,8,400,,,
break_continue,html.Screen,4_112_2,2023-10-31T17:05:40.917Z,,0,,,NaN,,,,,,false,,,,565461.5999999046,565461.5,,565461.4000000954,,565476.205,8,400,,,
sequence,flow.Sequence,4_112,2023-10-31T17:05:40.918Z,,0,,,2733.0080000000307,completion,,,,,false,,,,565461.8000001907,565461.5,562712.294,562717.4000000954,562728.492,565476.205,8,400,,,
trial,html.Screen,4_113_0,2023-10-31T17:05:44.093Z,,0,3,,3161.095000190777,response,ISIC_1389563.JPG,5,ISIC_2661598.JPG,ISIC_2661598.JPG,false,0,keypress(z),500,568637.5999999046,568637.3000001907,565459.619,565461.9000000954,565476.205,568661.555,8,400,14,,ISIC_1389563.JPG
break,html.Screen,4_113_1,2023-10-31T17:05:44.095Z,,0,,,NaN,,,,,,false,,,,568638.6999998093,568638.3000001907,,568637.8000001907,,568661.555,8,400,,,
break_continue,html.Screen,4_113_2,2023-10-31T17:05:44.095Z,,0,,,NaN,,,,,,false,,,,568639.0999999046,568638.9000000954,,568638.8000001907,,568661.555,8,400,,,
sequence,flow.Sequence,4_113,2023-10-31T17:05:44.095Z,,0,,,3162.6950000954093,completion,,,,,false,,,,568639.1999998093,568638.9000000954,565459.619,565461.9000000954,565476.205,568661.555,8,400,,,
trial,html.Screen,4_114_0,2023-10-31T17:05:48.051Z,,0,3,,3933.0449999045813,response,ISIC_9153619.JPG,5,ISIC_9912475.JPG,ISIC_9153619.JPG,false,1,keypress(m),500,572595,572594.5999999046,568622.962,568639.1999998093,568661.555,572618.941,8,400,15,,ISIC_9912475.JPG
break,html.Screen,4_114_1,2023-10-31T17:05:48.052Z,,0,,,NaN,,,,,,false,,,,572595.9000000954,572595.6999998093,,572595.3000001907,,572618.941,8,400,,,
break_continue,html.Screen,4_114_2,2023-10-31T17:05:48.052Z,,0,,,NaN,,,,,,false,,,,572596.3000001907,572596.1999998093,,572596,,572618.941,8,400,,,
sequence,flow.Sequence,4_114,2023-10-31T17:05:48.052Z,,0,,,3934.644999809214,completion,,,,,false,,,,572596.4000000954,572596.1999998093,568622.962,568639.1999998093,568661.555,572618.941,8,400,,,
trial,html.Screen,4_115_0,2023-10-31T17:05:51.373Z,,0,3,,3298.3590001907432,response,ISIC_7509837.JPG,9,ISIC_4961708.JPG,ISIC_4961708.JPG,false,0,keypress(z),500,575917.5,575917.3000001907,572602.359,572596.5,572618.941,575932.767,8,400,16,,ISIC_7509837.JPG
break,html.Screen,4_115_1,2023-10-31T17:05:51.375Z,,0,,,NaN,,,,,,false,,,,575918.6999998093,575918.3000001907,,575917.6999998093,,575932.767,8,400,,,
break_continue,html.Screen,4_115_2,2023-10-31T17:05:51.375Z,,0,,,NaN,,,,,,false,,,,575919.0999999046,575919,,575918.9000000954,,575932.767,8,400,,,
sequence,flow.Sequence,4_115,2023-10-31T17:05:51.375Z,,0,,,3300.0590000000084,completion,,,,,false,,,,575919.3000001907,575919,572602.359,572596.5,572618.941,575932.767,8,400,,,
trial,html.Screen,4_116_0,2023-10-31T17:05:54.293Z,,0,3,,2904.2330000000075,response,ISIC_0029815.JPG,6,ISIC_0011463.JPG,ISIC_0011463.JPG,false,0,keypress(z),500,578837.3000001907,578837,575916.08,575919.4000000954,575932.767,578846.096,8,400,17,,ISIC_0029815.JPG
break,html.Screen,4_116_1,2023-10-31T17:05:54.294Z,,0,,,NaN,,,,,,false,,,,578838.4000000954,578838,,578837.5,,578846.096,8,400,,,
break_continue,html.Screen,4_116_2,2023-10-31T17:05:54.295Z,,0,,,NaN,,,,,,false,,,,578838.9000000954,578838.6999998093,,578838.5,,578846.096,8,400,,,
sequence,flow.Sequence,4_116,2023-10-31T17:05:54.295Z,,0,,,2905.9329998092726,completion,,,,,false,,,,578839,578838.6999998093,575916.08,575919.3000001907,575932.767,578846.096,8,400,,,
trial,html.Screen,4_117_0,2023-10-31T17:05:57.819Z,,0,3,,3516.9039999999804,response,ISIC_0030653.JPG,9,ISIC_6478506.JPG,ISIC_6478506.JPG,false,0,keypress(z),500,582363.3000001907,582363,578829.818,578839.0999999046,578846.096,582376.5,8,400,18,,ISIC_0030653.JPG
break,html.Screen,4_117_1,2023-10-31T17:05:57.820Z,,0,,,NaN,,,,,,false,,,,582364.5,582364.0999999046,,582363.5999999046,,582376.5,8,400,,,
break_continue,html.Screen,4_117_2,2023-10-31T17:05:57.821Z,,0,,,NaN,,,,,,false,,,,582365,582364.8000001907,,582364.6999998093,,582376.5,8,400,,,
sequence,flow.Sequence,4_117,2023-10-31T17:05:57.821Z,,0,,,3518.7040001907153,completion,,,,,false,,,,582365.0999999046,582364.8000001907,578829.818,578839.0999999046,578846.096,582376.5,8,400,,,
trial,html.Screen,4_118_0,2023-10-31T17:06:01.938Z,,0,3,,4105.400000095367,response,ISIC_8539990.JPG,5,ISIC_0033729.JPG,ISIC_8539990.JPG,false,1,keypress(m),500,586482.0999999046,586481.9000000954,582359.825,582365.3000001907,582376.5,586488.679,8,400,19,,ISIC_0033729.JPG
break,html.Screen,4_118_1,2023-10-31T17:06:01.939Z,,0,,,NaN,,,,,,false,,,,586483.1999998093,586482.9000000954,,586482.3000001907,,586488.679,8,400,,,
break_continue,html.Screen,4_118_2,2023-10-31T17:06:01.939Z,,0,,,NaN,,,,,,false,,,,586483.5999999046,586483.5,,586483.4000000954,,586488.679,8,400,,,
sequence,flow.Sequence,4_118,2023-10-31T17:06:01.940Z,,0,,,4107,completion,,,,,false,,,,586483.8000001907,586483.5,582359.825,582365.1999998093,582376.5,586488.679,8,400,,,
trial,html.Screen,4_119_0,2023-10-31T17:06:05.158Z,,0,3,,3213.2210000953637,response,ISIC_7797655.JPG,7,ISIC_0033171.JPG,ISIC_7797655.JPG,false,1,keypress(m),500,589702.0999999046,589701.9000000954,586472.185,586483.9000000954,586488.679,589719.007,8,400,20,,ISIC_0033171.JPG
break,html.Screen,4_119_1,2023-10-31T17:06:05.159Z,,0,,,NaN,,,,,,false,,,,589703.3000001907,589702.8000001907,,589702.4000000954,,589719.007,8,400,,,
break_continue,html.Screen,4_119_2,2023-10-31T17:06:05.159Z,,0,,,NaN,,,,,,false,,,,589703.6999998093,589703.5999999046,,589703.4000000954,,589719.007,8,400,,,
sequence,flow.Sequence,4_119,2023-10-31T17:06:05.160Z,,0,,,3214.920999904629,completion,,,,,false,,,,589703.8000001907,589703.5999999046,586472.185,586483.8000001907,586488.679,589719.007,8,400,,,
trial,html.Screen,4_120_0,2023-10-31T17:06:10.047Z,,0,3,,4872.192999809282,response,ISIC_8013225.JPG,12,ISIC_0061643.JPG,ISIC_0061643.JPG,false,0,keypress(z),500,594591.5,594591.1999998093,589702.89,589704,589719.007,594597.468,8,400,21,,ISIC_8013225.JPG
break,html.Screen,4_120_1,2023-10-31T17:06:10.049Z,,0,,,NaN,,,,,,false,,,,594592.6999998093,594592.3000001907,,594591.6999998093,,594597.468,8,400,,,
break_continue,html.Screen,4_120_2,2023-10-31T17:06:10.049Z,,0,,,NaN,,,,,,false,,,,594593.1999998093,594593,,594592.8000001907,,594597.468,8,400,,,
sequence,flow.Sequence,4_120,2023-10-31T17:06:10.049Z,,0,,,4873.993000000017,completion,,,,,false,,,,594593.3000001907,594593,589702.89,589703.9000000954,589719.007,594597.468,8,400,,,
trial,html.Screen,4_121_0,2023-10-31T17:06:13.274Z,,0,3,,3220.131999904639,response,ISIC_1426331.JPG,8,ISIC_7373074.JPG,ISIC_1426331.JPG,false,1,keypress(m),500,597817.9000000954,597817.5999999046,594581.28,594593.5,594597.468,597827.86,8,400,22,,ISIC_7373074.JPG
break,html.Screen,4_121_1,2023-10-31T17:06:13.275Z,,0,,,NaN,,,,,,false,,,,597819,597818.6999998093,,597818.0999999046,,597827.86,8,400,,,
break_continue,html.Screen,4_121_2,2023-10-31T17:06:13.275Z,,0,,,NaN,,,,,,false,,,,597819.3000001907,597819.1999998093,,597819.0999999046,,597827.86,8,400,,,
sequence,flow.Sequence,4_121,2023-10-31T17:06:13.275Z,,0,,,3221.7319998092717,completion,,,,,false,,,,597819.5,597819.1999998093,594581.28,594593.5,594597.468,597827.86,8,400,,,
trial,html.Screen,4_122_0,2023-10-31T17:06:17.390Z,,0,3,,4105.839999809279,response,ISIC_0060937.JPG,8,ISIC_9910791.JPG,ISIC_9910791.JPG,false,0,keypress(z),500,601934.0999999046,601933.6999998093,597811.419,597819.5999999046,597827.86,601940.328,8,400,23,,ISIC_0060937.JPG
break,html.Screen,4_122_1,2023-10-31T17:06:17.391Z,,0,,,NaN,,,,,,false,,,,601935.4000000954,601935,,601934.4000000954,,601940.328,8,400,,,
break_continue,html.Screen,4_122_2,2023-10-31T17:06:17.392Z,,0,,,NaN,,,,,,false,,,,601935.9000000954,601935.8000001907,,601935.5999999046,,601940.328,8,400,,,
sequence,flow.Sequence,4_122,2023-10-31T17:06:17.392Z,,0,,,4107.940000190749,completion,,,,,false,,,,601936.1999998093,601935.8000001907,597811.419,597819.5,597827.86,601940.328,8,400,,,
trial,html.Screen,4_123_0,2023-10-31T17:06:20.418Z,,0,3,,3021.771999904653,response,ISIC_5938680.JPG,7,ISIC_3389695.JPG,ISIC_5938680.JPG,false,1,keypress(m),500,604962.4000000954,604962.0999999046,601924.107,601936.3000001907,601940.328,604970.763,8,400,24,,ISIC_3389695.JPG
break,html.Screen,4_123_1,2023-10-31T17:06:20.419Z,,0,,,NaN,,,,,,false,,,,604963.5999999046,604963.1999998093,,604962.6999998093,,604970.763,8,400,,,
break_continue,html.Screen,4_123_2,2023-10-31T17:06:20.420Z,,0,,,NaN,,,,,,false,,,,604964,604963.9000000954,,604963.8000001907,,604970.763,8,400,,,
sequence,flow.Sequence,4_123,2023-10-31T17:06:20.420Z,,0,,,3023.572000095388,completion,,,,,false,,,,604964.4000000954,604963.9000000954,601924.107,601936.3000001907,601940.328,604970.763,8,400,,,
trial,html.Screen,4_124_0,2023-10-31T17:06:24.825Z,,0,3,,4398.137000095332,response,ISIC_3552245.JPG,6,ISIC_4771769.JPG,ISIC_4771769.JPG,false,0,keypress(z),500,609369.3000001907,609368.9000000954,604954.474,604964.5,604970.763,609383.578,8,400,25,,ISIC_3552245.JPG
break,html.Screen,4_124_1,2023-10-31T17:06:24.826Z,,0,,,NaN,,,,,,false,,,,609370.5,609370.0999999046,,609369.6999998093,,609383.578,8,400,,,
