sender,sender_type,sender_id,timestamp,meta,,blockNo,condition,duration,ended_on,img_left,img_reveal,img_right,loser,practice,response,response_action,selection_duration,time_commit,time_end,time_render,time_run,time_show,time_switch,total_blocks,total_trials,trialNo,url,winner
informed_consent,html.Screen,0,2023-11-06T15:12:30.262Z,"{""labjs_version"":""20.2.4"",""labjs_build"":{""flavor"":""production"",""commit"":""f5b4a49f956347addd546a832a3327688c2c0fef""},""location"":""https://run.pavlovia.org/MurrayBennett/melanoma-2afc/?participant=65618&platform=sona"",""userAgent"":""Mozilla/5.0 (Macintosh; Intel Mac OS X 10_15_7) AppleWebKit/537.36 (KHTML, like Gecko) Chrome/116.0.0.0 Safari/537.36"",""platform"":""MacIntel"",""language"":""en-US"",""locale"":""en-US"",""timeZone"":""America/Chicago"",""timezoneOffset"":360,""screen_width"":1440,""screen_height"":900,""scroll_width"":1440,""scroll_height"":735,""window_innerWidth"":1440,""window_innerHeight"":783,""devicePixelRatio"":1}",,,,10005.33599999702,response,,,,,,consent,click button,,12616.29999999702,12611.29999999702,2589.297,2595.8999999910593,2605.964,12639.995,,,,"{""participant"":""65618"",""platform"":""sona""}",
Welcome,html.Screen,1,2023-11-06T15:12:43.282Z,,,,regular,12991.904999991059,response,,,,,,continue,click button,,25635.69999998808,25631.89999999106,12606.661,12616.59999999404,12639.995,25640.947,,,,,
trial,html.Screen,2_0_0,2023-11-06T15:12:49.659Z,,0,0,,6371.452999991059,response,ISIC_4679428.JPG,,ISIC_0061792.JPG,ISIC_0061792.JPG,true,0,keypress(z),500,32012.69999998808,32012.39999999106,25624.28,25636,25640.947,32024.408,1,6,1,,ISIC_4679428.JPG
sequence,flow.Sequence,2_0,2023-11-06T15:12:49.660Z,,0,,,6371.452999991059,completion,,,,,true,,,,32013.39999999106,32012.39999999106,25624.28,25635.89999999106,25640.947,32024.408,1,6,,,
trial,html.Screen,2_1_0,2023-11-06T15:12:54.414Z,,0,0,,4743.29199998808,response,ISIC_5199497.JPG,,ISIC_0776486.JPG,ISIC_0776486.JPG,true,0,keypress(z),500,36768.09999999404,36767.69999998808,32007.741,32013.69999998808,32024.408,36774.983,1,6,2,,ISIC_5199497.JPG
sequence,flow.Sequence,2_1,2023-11-06T15:12:54.415Z,,0,,,4743.29199998808,completion,,,,,true,,,,36768.5,36767.69999998808,32007.741,32013.59999999404,32024.408,36774.983,1,6,,,
trial,html.Screen,2_2_0,2023-11-06T15:12:59.043Z,,0,0,,4621.216999988079,response,ISIC_8575776.JPG,,ISIC_2556187.JPG,ISIC_2556187.JPG,true,0,keypress(z),500,41396.39999999106,41396.19999998808,36758.316,36768.79999999702,36774.983,41408.409,1,6,3,,ISIC_8575776.JPG
sequence,flow.Sequence,2_2,2023-11-06T15:12:59.043Z,,0,,,4621.216999988079,completion,,,,,true,,,,41396.69999998808,41396.19999998808,36758.316,36768.69999998808,36774.983,41408.409,1,6,,,
trial,html.Screen,2_3_0,2023-11-06T15:13:04.155Z,,0,0,,5099.49099999106,response,ISIC_9238366.JPG,,ISIC_8141769.JPG,ISIC_8141769.JPG,true,0,keypress(z),500,46508.19999998808,46507.89999999106,41391.742,41397,41408.409,46525.887,1,6,4,,ISIC_9238366.JPG
sequence,flow.Sequence,2_3,2023-11-06T15:13:04.155Z,,0,,,5099.49099999106,completion,,,,,true,,,,46508.69999998808,46507.89999999106,41391.742,41396.89999999106,41408.409,46525.887,1,6,,,
trial,html.Screen,2_4_0,2023-11-06T15:13:08.595Z,,0,0,,4422.612999999998,response,ISIC_8949026.JPG,,ISIC_9959593.JPG,ISIC_9959593.JPG,true,0,keypress(z),500,50948.79999999702,50948.5,46509.22,46508.89999999106,46525.887,50959.309,1,6,5,,ISIC_8949026.JPG
sequence,flow.Sequence,2_4,2023-11-06T15:13:08.596Z,,0,,,4422.612999999998,completion,,,,,true,,,,50949.09999999404,50948.5,46509.22,46508.79999999702,46525.887,50959.309,1,6,,,
trial,html.Screen,2_5_0,2023-11-06T15:13:12.699Z,,0,0,,4092.890999988078,response,ISIC_0460240.JPG,,ISIC_0010479.JPG,ISIC_0010479.JPG,true,0,keypress(z),500,55052.5,55052.19999998808,50942.642,50949.29999999702,50959.309,55059.391,1,6,6,,ISIC_0460240.JPG
sequence,flow.Sequence,2_5,2023-11-06T15:13:12.700Z,,0,,,4092.890999988078,completion,,,,,true,,,,55052.89999999106,55052.19999998808,50942.642,50949.29999999702,50959.309,55059.391,1,6,,,
loop,flow.Loop,2,2023-11-06T15:13:12.700Z,,,,,29411.25299998808,completion,,,,,true,,,,55053.19999998808,55052.19999998808,25624.28,25635.89999999106,25640.947,55059.391,1,6,,,
exp_instructions,html.Screen,3,2023-11-06T15:13:15.584Z,,,,,2871.4089999970165,response,,,,,,continue,keypress(Space),,57936.89999999106,57930.79999999702,55042.724,55053.29999999702,55059.391,57942.782,,,,,
trial,html.Screen,4_0_0,2023-11-06T15:13:20.583Z,,0,1,,4992.81799999404,response,ISIC_3124612.JPG,9,ISIC_0013136.JPG,ISIC_3124612.JPG,false,1,keypress(m),500,62935.79999999702,62935.59999999404,57926.115,57937.09999999404,57942.782,62943.397,8,400,1,,ISIC_0013136.JPG
break,html.Screen,4_0_1,2023-11-06T15:13:20.584Z,,0,,,NaN,,,,,,false,,,,62937.19999998808,62936.89999999106,,62936,,62943.397,8,400,,,
break_continue,html.Screen,4_0_2,2023-11-06T15:13:20.585Z,,0,,,NaN,,,,,,false,,,,62937.79999999702,62937.69999998808,,62937.39999999106,,62943.397,8,400,,,
sequence,flow.Sequence,4_0,2023-11-06T15:13:20.585Z,,0,,,4994.91799998808,completion,,,,,false,,,,62938.09999999404,62937.69999998808,57926.115,57937.09999999404,57942.782,62943.397,8,400,,,
trial,html.Screen,4_1_0,2023-11-06T15:13:29.124Z,,0,1,,8533.603000000003,response,ISIC_6523459.JPG,8,ISIC_0031543.JPG,ISIC_0031543.JPG,false,0,keypress(z),500,71477.19999998808,71477,62926.73,62938.29999999702,62943.397,71494.21,8,400,2,,ISIC_6523459.JPG
break,html.Screen,4_1_1,2023-11-06T15:13:29.125Z,,0,,,NaN,,,,,,false,,,,71478.39999999106,71478.09999999404,,71477.5,,71494.21,8,400,,,
break_continue,html.Screen,4_1_2,2023-11-06T15:13:29.126Z,,0,,,NaN,,,,,,false,,,,71479,71478.79999999702,,71478.5,,71494.21,8,400,,,
sequence,flow.Sequence,4_1,2023-11-06T15:13:29.126Z,,0,,,8535.402999997023,completion,,,,,false,,,,71479.19999998808,71478.79999999702,62926.73,62938.19999998808,62943.397,71494.21,8,400,,,
trial,html.Screen,4_2_0,2023-11-06T15:13:34.789Z,,0,1,,5647.689999991053,response,ISIC_5363229.JPG,6,ISIC_0268187.JPG,ISIC_0268187.JPG,false,0,keypress(z),500,77142.19999998808,77141.89999999106,71477.543,71479.29999999702,71494.21,77144.323,8,400,3,,ISIC_5363229.JPG
break,html.Screen,4_2_1,2023-11-06T15:13:34.790Z,,0,,,NaN,,,,,,false,,,,77143.19999998808,77142.89999999106,,77142.39999999106,,77144.323,8,400,,,
break_continue,html.Screen,4_2_2,2023-11-06T15:13:34.791Z,,0,,,NaN,,,,,,false,,,,77143.79999999702,77143.69999998808,,77143.39999999106,,77144.323,8,400,,,
sequence,flow.Sequence,4_2,2023-11-06T15:13:34.791Z,,0,,,5649.489999988073,completion,,,,,false,,,,77144,77143.69999998808,71477.543,71479.29999999702,71494.21,77144.323,8,400,,,
trial,html.Screen,4_3_0,2023-11-06T15:13:40.181Z,,0,1,,5389.276999994036,response,ISIC_0000462.JPG,8,ISIC_0012425.JPG,ISIC_0000462.JPG,false,1,keypress(m),500,82533.79999999702,82533.59999999404,77127.656,77144.19999998808,77144.323,82544.891,8,400,4,,ISIC_0012425.JPG
break,html.Screen,4_3_1,2023-11-06T15:13:40.182Z,,0,,,NaN,,,,,,false,,,,82534.79999999702,82534.5,,82533.89999999106,,82544.891,8,400,,,
break_continue,html.Screen,4_3_2,2023-11-06T15:13:40.182Z,,0,,,NaN,,,,,,false,,,,82535.29999999702,82535.19999998808,,82535,,82544.891,8,400,,,
sequence,flow.Sequence,4_3,2023-11-06T15:13:40.183Z,,0,,,5390.876999988075,completion,,,,,false,,,,82535.59999999404,82535.19999998808,77127.656,77144.19999998808,77144.323,82544.891,8,400,,,
trial,html.Screen,4_4_0,2023-11-06T15:13:43.577Z,,0,1,,3384.6089999999967,response,ISIC_0283957.JPG,7,ISIC_0033916.JPG,ISIC_0283957.JPG,false,1,keypress(m),500,85929.79999999702,85929.5,82528.224,82535.69999998808,82544.891,85944.959,8,400,5,,ISIC_0033916.JPG
break,html.Screen,4_4_1,2023-11-06T15:13:43.578Z,,0,,,NaN,,,,,,false,,,,85930.89999999106,85930.59999999404,,85929.89999999106,,85944.959,8,400,,,
break_continue,html.Screen,4_4_2,2023-11-06T15:13:43.579Z,,0,,,NaN,,,,,,false,,,,85931.5,85931.29999999702,,85931.09999999404,,85944.959,8,400,,,
sequence,flow.Sequence,4_4,2023-11-06T15:13:43.579Z,,0,,,3386.4089999970165,completion,,,,,false,,,,85931.79999999702,85931.29999999702,82528.224,82535.69999998808,82544.891,85944.959,8,400,,,
trial,html.Screen,4_5_0,2023-11-06T15:13:47.039Z,,0,1,,3446.840999997017,response,ISIC_6455702.JPG,7,ISIC_9680433.JPG,ISIC_9680433.JPG,false,0,keypress(z),500,89392,89391.79999999702,85928.292,85932,85944.959,89395.028,8,400,6,,ISIC_6455702.JPG
break,html.Screen,4_5_1,2023-11-06T15:13:47.041Z,,0,,,NaN,,,,,,false,,,,89393.19999998808,89392.79999999702,,89392.29999999702,,89395.028,8,400,,,
break_continue,html.Screen,4_5_2,2023-11-06T15:13:47.041Z,,0,,,NaN,,,,,,false,,,,89393.69999998808,89393.59999999404,,89393.39999999106,,89395.028,8,400,,,
sequence,flow.Sequence,4_5,2023-11-06T15:13:47.041Z,,0,,,3448.640999994037,completion,,,,,false,,,,89393.89999999106,89393.59999999404,85928.292,85931.89999999106,85944.959,89395.028,8,400,,,
trial,html.Screen,4_6_0,2023-11-06T15:13:51.412Z,,0,1,,4369.471999999994,response,ISIC_7802213.JPG,6,ISIC_9972518.JPG,ISIC_7802213.JPG,false,1,keypress(m),500,93764.69999998808,93764.5,89378.361,89394.19999998808,89395.028,93779.048,8,400,7,,ISIC_9972518.JPG
break,html.Screen,4_6_1,2023-11-06T15:13:51.413Z,,0,,,NaN,,,,,,false,,,,93765.69999998808,93765.39999999106,,93764.79999999702,,93779.048,8,400,,,
break_continue,html.Screen,4_6_2,2023-11-06T15:13:51.413Z,,0,,,NaN,,,,,,false,,,,93766.19999998808,93766,,93765.79999999702,,93779.048,8,400,,,
sequence,flow.Sequence,4_6,2023-11-06T15:13:51.414Z,,0,,,4370.971999999994,completion,,,,,false,,,,93766.39999999106,93766,89378.361,89394.09999999404,89395.028,93779.048,8,400,,,
trial,html.Screen,4_7_0,2023-11-06T15:13:55.963Z,,0,1,,4536.651999988084,response,ISIC_1983754.JPG,5,ISIC_6184891.JPG,ISIC_1983754.JPG,false,1,keypress(m),500,98316,98315.69999998808,93762.381,93766.5,93779.048,98329.139,8,400,8,,ISIC_6184891.JPG
break,html.Screen,4_7_1,2023-11-06T15:13:55.964Z,,0,,,NaN,,,,,,false,,,,98317,98316.79999999702,,98316.19999998808,,98329.139,8,400,,,
break_continue,html.Screen,4_7_2,2023-11-06T15:13:55.965Z,,0,,,NaN,,,,,,false,,,,98317.39999999106,98317.39999999106,,98317.19999998808,,98329.139,8,400,,,
sequence,flow.Sequence,4_7,2023-11-06T15:13:55.965Z,,0,,,4538.351999991064,completion,,,,,false,,,,98317.59999999404,98317.39999999106,93762.381,93766.5,93779.048,98329.139,8,400,,,
trial,html.Screen,4_8_0,2023-11-06T15:14:00.336Z,,0,1,,4358.861000000004,response,ISIC_0025580.JPG,7,ISIC_0063642.JPG,ISIC_0025580.JPG,false,1,keypress(m),500,102688.19999998808,102688,98312.472,98317.79999999702,98329.139,102695.893,8,400,9,,ISIC_0063642.JPG
break,html.Screen,4_8_1,2023-11-06T15:14:00.337Z,,0,,,NaN,,,,,,false,,,,102689.19999998808,102688.89999999106,,102688.39999999106,,102695.893,8,400,,,
break_continue,html.Screen,4_8_2,2023-11-06T15:14:00.337Z,,0,,,NaN,,,,,,false,,,,102689.69999998808,102689.5,,102689.29999999702,,102695.893,8,400,,,
sequence,flow.Sequence,4_8,2023-11-06T15:14:00.337Z,,0,,,4360.361000000004,completion,,,,,false,,,,102689.89999999106,102689.5,98312.472,98317.79999999702,98329.139,102695.893,8,400,,,
trial,html.Screen,4_9_0,2023-11-06T15:14:03.589Z,,0,1,,3245.206999994043,response,ISIC_8435105.JPG,8,ISIC_4363603.JPG,ISIC_4363603.JPG,false,0,keypress(z),500,105941.29999999702,105941.09999999404,102679.226,102690,102695.893,105946.445,8,400,10,,ISIC_8435105.JPG
break,html.Screen,4_9_1,2023-11-06T15:14:03.590Z,,0,,,NaN,,,,,,false,,,,105942.39999999106,105942.09999999404,,105941.5,,105946.445,8,400,,,
break_continue,html.Screen,4_9_2,2023-11-06T15:14:03.590Z,,0,,,NaN,,,,,,false,,,,105942.89999999106,105942.69999998808,,105942.5,,105946.445,8,400,,,
sequence,flow.Sequence,4_9,2023-11-06T15:14:03.591Z,,0,,,3246.8069999880827,completion,,,,,false,,,,105943.09999999404,105942.69999998808,102679.226,102690,102695.893,105946.445,8,400,,,
trial,html.Screen,4_10_0,2023-11-06T15:14:07.961Z,,0,1,,4366.954999991052,response,ISIC_9929097.JPG,8,ISIC_5174685.JPG,ISIC_9929097.JPG,false,1,keypress(m),500,110313.59999999404,110313.39999999106,105929.778,105943.19999998808,105946.445,110329.866,8,400,11,,ISIC_5174685.JPG
break,html.Screen,4_10_1,2023-11-06T15:14:07.962Z,,0,,,NaN,,,,,,false,,,,110314.59999999404,110314.29999999702,,110313.79999999702,,110329.866,8,400,,,
break_continue,html.Screen,4_10_2,2023-11-06T15:14:07.963Z,,0,,,NaN,,,,,,false,,,,110315.19999998808,110315.09999999404,,110314.79999999702,,110329.866,8,400,,,
sequence,flow.Sequence,4_10,2023-11-06T15:14:07.963Z,,0,,,4368.654999994033,completion,,,,,false,,,,110315.39999999106,110315.09999999404,105929.778,105943.19999998808,105946.445,110329.866,8,400,,,
trial,html.Screen,4_11_0,2023-11-06T15:14:11.665Z,,0,1,,3686.8339999880845,response,ISIC_8626787.JPG,6,ISIC_1507583.JPG,ISIC_1507583.JPG,false,0,keypress(z),500,114016.89999999106,114016.69999998808,110313.199,110315.59999999404,110329.866,114030.49,8,400,12,,ISIC_8626787.JPG
break,html.Screen,4_11_1,2023-11-06T15:14:11.666Z,,0,,,NaN,,,,,,false,,,,114018,114017.69999998808,,114017.09999999404,,114030.49,8,400,,,
break_continue,html.Screen,4_11_2,2023-11-06T15:14:11.666Z,,0,,,NaN,,,,,,false,,,,114018.59999999404,114018.39999999106,,114018.19999998808,,114030.49,8,400,,,
sequence,flow.Sequence,4_11,2023-11-06T15:14:11.666Z,,0,,,3688.533999991065,completion,,,,,false,,,,114018.79999999702,114018.39999999106,110313.199,110315.59999999404,110329.866,114030.49,8,400,,,
trial,html.Screen,4_12_0,2023-11-06T15:14:14.933Z,,0,1,,3254.5099999999948,response,ISIC_0069492.JPG,7,ISIC_1793821.JPG,ISIC_1793821.JPG,false,0,keypress(z),500,117285.09999999404,117285,114013.823,114018.89999999106,114030.49,117297.222,8,400,13,,ISIC_0069492.JPG
break,html.Screen,4_12_1,2023-11-06T15:14:14.934Z,,0,,,NaN,,,,,,false,,,,117286.29999999702,117286.09999999404,,117285.39999999106,,117297.222,8,400,,,
break_continue,html.Screen,4_12_2,2023-11-06T15:14:14.935Z,,0,,,NaN,,,,,,false,,,,117286.89999999106,117286.79999999702,,117286.5,,117297.222,8,400,,,
sequence,flow.Sequence,4_12,2023-11-06T15:14:14.935Z,,0,,,3256.3099999970145,completion,,,,,false,,,,117287.09999999404,117286.79999999702,114013.823,114018.89999999106,114030.49,117297.222,8,400,,,
trial,html.Screen,4_13_0,2023-11-06T15:14:20.503Z,,0,1,,5557.877999994045,response,ISIC_4443373.JPG,6,ISIC_0005291.JPG,ISIC_4443373.JPG,false,1,keypress(m),500,122855.39999999106,122855.09999999404,117280.555,117287.29999999702,117297.222,122864,8,400,14,,ISIC_0005291.JPG
break,html.Screen,4_13_1,2023-11-06T15:14:20.506Z,,0,,,NaN,,,,,,false,,,,122857.59999999404,122857.19999998808,,122855.5,,122864,8,400,,,
break_continue,html.Screen,4_13_2,2023-11-06T15:14:20.506Z,,0,,,NaN,,,,,,false,,,,122858.19999998808,122858,,122857.79999999702,,122864,8,400,,,
sequence,flow.Sequence,4_13,2023-11-06T15:14:20.506Z,,0,,,5560.778000000006,completion,,,,,false,,,,122858.5,122858,117280.555,117287.19999998808,117297.222,122864,8,400,,,
trial,html.Screen,4_14_0,2023-11-06T15:14:23.878Z,,0,1,,3365.3999999910593,response,ISIC_0033229.JPG,5,ISIC_8663136.JPG,ISIC_8663136.JPG,false,0,keypress(z),500,126229.69999998808,126229.39999999106,122847.333,122858.59999999404,122864,126231.222,8,400,15,,ISIC_0033229.JPG
break,html.Screen,4_14_1,2023-11-06T15:14:23.879Z,,0,,,NaN,,,,,,false,,,,126230.79999999702,126230.5,,126229.89999999106,,126231.222,8,400,,,
break_continue,html.Screen,4_14_2,2023-11-06T15:14:23.879Z,,0,,,NaN,,,,,,false,,,,126231.29999999702,126231.19999998808,,126230.89999999106,,126231.222,8,400,,,
sequence,flow.Sequence,4_14,2023-11-06T15:14:23.879Z,,0,,,3367.199999988079,completion,,,,,false,,,,126231.5,126231.19999998808,122847.333,122858.5,122864,126231.222,8,400,,,
trial,html.Screen,4_15_0,2023-11-06T15:14:29.642Z,,0,1,,5762.877999994045,response,ISIC_6707990.JPG,8,ISIC_0061562.JPG,ISIC_6707990.JPG,false,1,keypress(m),500,131994.29999999702,131994.09999999404,126214.555,126231.59999999404,126231.222,131998.004,8,400,16,,ISIC_0061562.JPG
break,html.Screen,4_15_1,2023-11-06T15:14:29.643Z,,0,,,NaN,,,,,,false,,,,131995.39999999106,131995.19999998808,,131994.5,,131998.004,8,400,,,
break_continue,html.Screen,4_15_2,2023-11-06T15:14:29.644Z,,0,,,NaN,,,,,,false,,,,131995.89999999106,131995.69999998808,,131995.59999999404,,131998.004,8,400,,,
sequence,flow.Sequence,4_15,2023-11-06T15:14:29.644Z,,0,,,5764.477999988085,completion,,,,,false,,,,131996.09999999404,131995.69999998808,126214.555,126231.5,126231.222,131998.004,8,400,,,
trial,html.Screen,4_16_0,2023-11-06T15:14:32.557Z,,0,1,,2910.7959999970335,response,ISIC_0887792.JPG,7,ISIC_0845105.JPG,ISIC_0845105.JPG,false,0,keypress(z),500,134909,134908.79999999702,131981.337,131996.29999999702,131998.004,134915.198,8,400,17,,ISIC_0887792.JPG
break,html.Screen,4_16_1,2023-11-06T15:14:32.558Z,,0,,,NaN,,,,,,false,,,,134910.09999999404,134909.79999999702,,134909.19999998808,,134915.198,8,400,,,
break_continue,html.Screen,4_16_2,2023-11-06T15:14:32.559Z,,0,,,NaN,,,,,,false,,,,134910.69999998808,134910.5,,134910.19999998808,,134915.198,8,400,,,
sequence,flow.Sequence,4_16,2023-11-06T15:14:32.559Z,,0,,,2912.4960000000137,completion,,,,,false,,,,134910.79999999702,134910.5,131981.337,131996.19999998808,131998.004,134915.198,8,400,,,
trial,html.Screen,4_17_0,2023-11-06T15:14:35.860Z,,0,1,,3296.601999997016,response,ISIC_8355446.JPG,6,ISIC_6634951.JPG,ISIC_6634951.JPG,false,0,keypress(z),500,138212,138211.79999999702,134898.531,134911,134915.198,138215.264,8,400,18,,ISIC_8355446.JPG
break,html.Screen,4_17_1,2023-11-06T15:14:35.861Z,,0,,,NaN,,,,,,false,,,,138213.09999999404,138212.79999999702,,138212.19999998808,,138215.264,8,400,,,
break_continue,html.Screen,4_17_2,2023-11-06T15:14:35.862Z,,0,,,NaN,,,,,,false,,,,138213.59999999404,138213.39999999106,,138213.19999998808,,138215.264,8,400,,,
sequence,flow.Sequence,4_17,2023-11-06T15:14:35.862Z,,0,,,3298.2019999910553,completion,,,,,false,,,,138214.09999999404,138213.39999999106,134898.531,134911,134915.198,138215.264,8,400,,,
trial,html.Screen,4_18_0,2023-11-06T15:14:39.225Z,,0,1,,3361.535999997024,response,ISIC_0008251.JPG,6,ISIC_0011365.JPG,ISIC_0011365.JPG,false,0,keypress(z),500,141577,141576.79999999702,138198.597,138214.19999998808,138215.264,141581.998,8,400,19,,ISIC_0008251.JPG
break,html.Screen,4_18_1,2023-11-06T15:14:39.226Z,,0,,,NaN,,,,,,false,,,,141578,141577.69999998808,,141577.29999999702,,141581.998,8,400,,,
break_continue,html.Screen,4_18_2,2023-11-06T15:14:39.227Z,,0,,,NaN,,,,,,false,,,,141578.5,141578.39999999106,,141578.19999998808,,141581.998,8,400,,,
sequence,flow.Sequence,4_18,2023-11-06T15:14:39.227Z,,0,,,3363.1359999910637,completion,,,,,false,,,,141578.79999999702,141578.39999999106,138198.597,138214.19999998808,138215.264,141581.998,8,400,,,
trial,html.Screen,4_19_0,2023-11-06T15:14:43.632Z,,0,1,,4401.901999991067,response,ISIC_0065378.JPG,8,ISIC_8159779.JPG,ISIC_0065378.JPG,false,1,keypress(m),500,145984.19999998808,145983.89999999106,141565.331,141578.89999999106,141581.998,145999.377,8,400,20,,ISIC_8159779.JPG
break,html.Screen,4_19_1,2023-11-06T15:14:43.634Z,,0,,,NaN,,,,,,false,,,,145985.29999999702,145985,,145984.29999999702,,145999.377,8,400,,,
break_continue,html.Screen,4_19_2,2023-11-06T15:14:43.634Z,,0,,,NaN,,,,,,false,,,,145985.79999999702,145985.59999999404,,145985.39999999106,,145999.377,8,400,,,
sequence,flow.Sequence,4_19,2023-11-06T15:14:43.634Z,,0,,,4403.601999994047,completion,,,,,false,,,,145986,145985.59999999404,141565.331,141578.89999999106,141581.998,145999.377,8,400,,,
trial,html.Screen,4_20_0,2023-11-06T15:14:47.174Z,,0,1,,3526.422999997012,response,ISIC_8993666.JPG,7,ISIC_9940466.JPG,ISIC_9940466.JPG,false,0,keypress(z),500,149526.09999999404,149525.79999999702,145982.71,145986.19999998808,145999.377,149532.781,8,400,21,,ISIC_8993666.JPG
break,html.Screen,4_20_1,2023-11-06T15:14:47.175Z,,0,,,NaN,,,,,,false,,,,149527.09999999404,149526.79999999702,,149526.29999999702,,149532.781,8,400,,,
break_continue,html.Screen,4_20_2,2023-11-06T15:14:47.176Z,,0,,,NaN,,,,,,false,,,,149527.79999999702,149527.59999999404,,149527.29999999702,,149532.781,8,400,,,
sequence,flow.Sequence,4_20,2023-11-06T15:14:47.176Z,,0,,,3528.222999994032,completion,,,,,false,,,,149528,149527.59999999404,145982.71,145986.09999999404,145999.377,149532.781,8,400,,,
trial,html.Screen,4_21_0,2023-11-06T15:14:50.446Z,,0,1,,3264.5189999970316,response,ISIC_0032840.JPG,7,ISIC_0061627.JPG,ISIC_0032840.JPG,false,1,keypress(m),500,152797.5,152797.29999999702,149516.114,149528.09999999404,149532.781,152799.513,8,400,22,,ISIC_0061627.JPG
break,html.Screen,4_21_1,2023-11-06T15:14:50.447Z,,0,,,NaN,,,,,,false,,,,152798.59999999404,152798.29999999702,,152797.59999999404,,152799.513,8,400,,,
break_continue,html.Screen,4_21_2,2023-11-06T15:14:50.448Z,,0,,,NaN,,,,,,false,,,,152799.09999999404,152799,,152798.69999998808,,152799.513,8,400,,,
sequence,flow.Sequence,4_21,2023-11-06T15:14:50.448Z,,0,,,3266.219000000012,completion,,,,,false,,,,152799.29999999702,152799,149516.114,149528.09999999404,149532.781,152799.513,8,400,,,
trial,html.Screen,4_22_0,2023-11-06T15:14:53.407Z,,0,1,,2958.9869999999937,response,ISIC_8048162.JPG,8,ISIC_0030818.JPG,ISIC_8048162.JPG,false,1,keypress(m),500,155758.69999998808,155758.5,152782.846,152799.39999999106,152799.513,155766.634,8,400,23,,ISIC_0030818.JPG
break,html.Screen,4_22_1,2023-11-06T15:14:53.408Z,,0,,,NaN,,,,,,false,,,,155759.79999999702,155759.59999999404,,155758.89999999106,,155766.634,8,400,,,
break_continue,html.Screen,4_22_2,2023-11-06T15:14:53.409Z,,0,,,NaN,,,,,,false,,,,155760.39999999106,155760.19999998808,,155760,,155766.634,8,400,,,
sequence,flow.Sequence,4_22,2023-11-06T15:14:53.409Z,,0,,,2960.686999988073,completion,,,,,false,,,,155760.59999999404,155760.19999998808,152782.846,152799.39999999106,152799.513,155766.634,8,400,,,
trial,html.Screen,4_23_0,2023-11-06T15:14:57.582Z,,0,1,,4167.065999988088,response,ISIC_0013839.JPG,8,ISIC_0058198.JPG,ISIC_0013839.JPG,false,1,keypress(m),500,159933.79999999702,159933.69999998808,155749.967,155760.79999999702,155766.634,159950.051,8,400,24,,ISIC_0058198.JPG
break,html.Screen,4_23_1,2023-11-06T15:14:57.583Z,,0,,,NaN,,,,,,false,,,,159934.5,159934.29999999702,,159934,,159950.051,8,400,,,
break_continue,html.Screen,4_23_2,2023-11-06T15:14:57.583Z,,0,,,NaN,,,,,,false,,,,159934.89999999106,159934.69999998808,,159934.5,,159950.051,8,400,,,
sequence,flow.Sequence,4_23,2023-11-06T15:14:57.584Z,,0,,,4168.065999988088,completion,,,,,false,,,,159935,159934.69999998808,155749.967,155760.69999998808,155766.634,159950.051,8,400,,,
trial,html.Screen,4_24_0,2023-11-06T15:15:00.770Z,,0,1,,3171.048999994033,response,ISIC_5910975.JPG,7,ISIC_0026756.JPG,ISIC_5910975.JPG,false,1,keypress(m),500,163121.39999999106,163121.09999999404,159933.384,159935.09999999404,159950.051,163133.448,8,400,25,,ISIC_0026756.JPG
break,html.Screen,4_24_1,2023-11-06T15:15:00.771Z,,0,,,NaN,,,,,,false,,,,163122.5,163122.09999999404,,163121.59999999404,,163133.448,8,400,,,
break_continue,html.Screen,4_24_2,2023-11-06T15:15:00.772Z,,0,,,NaN,,,,,,false,,,,163123,163122.79999999702,,163122.59999999404,,163133.448,8,400,,,
sequence,flow.Sequence,4_24,2023-11-06T15:15:00.772Z,,0,,,3172.748999997013,completion,,,,,false,,,,163123.19999998808,163122.79999999702,159933.384,159935,159950.051,163133.448,8,400,,,
trial,html.Screen,4_25_0,2023-11-06T15:15:04.617Z,,0,1,,3834.251999988075,response,ISIC_2283628.JPG,6,ISIC_2519121.JPG,ISIC_2283628.JPG,false,1,keypress(m),500,166968,166967.69999998808,163116.781,163123.39999999106,163133.448,166984.079,8,400,26,,ISIC_2519121.JPG
break,html.Screen,4_25_1,2023-11-06T15:15:04.618Z,,0,,,NaN,,,,,,false,,,,166969.09999999404,166968.79999999702,,166968.19999998808,,166984.079,8,400,,,
break_continue,html.Screen,4_25_2,2023-11-06T15:15:04.618Z,,0,,,NaN,,,,,,false,,,,166969.59999999404,166969.5,,166969.19999998808,,166984.079,8,400,,,
sequence,flow.Sequence,4_25,2023-11-06T15:15:04.619Z,,0,,,3836.051999999996,completion,,,,,false,,,,166969.79999999702,166969.5,163116.781,163123.39999999106,163133.448,166984.079,8,400,,,
trial,html.Screen,4_26_0,2023-11-06T15:15:07.454Z,,0,1,,2821.0209999940416,response,ISIC_0030910.JPG,9,ISIC_0028126.JPG,ISIC_0030910.JPG,false,1,keypress(m),500,169805.29999999702,169805.09999999404,166967.412,166970,166984.079,169817.469,8,400,27,,ISIC_0028126.JPG
break,html.Screen,4_26_1,2023-11-06T15:15:07.455Z,,0,,,NaN,,,,,,false,,,,169805.89999999106,169805.69999998808,,169805.29999999702,,169817.469,8,400,,,
break_continue,html.Screen,4_26_2,2023-11-06T15:15:07.455Z,,0,,,NaN,,,,,,false,,,,169806.09999999404,169806,,169806,,169817.469,8,400,,,
sequence,flow.Sequence,4_26,2023-11-06T15:15:07.455Z,,0,,,2821.921000000002,completion,,,,,false,,,,169806.19999998808,169806,166967.412,166969.89999999106,166984.079,169817.469,8,400,,,
trial,html.Screen,4_27_0,2023-11-06T15:15:10.593Z,,0,1,,3126.530999999988,response,ISIC_8873236.JPG,6,ISIC_6640227.JPG,ISIC_8873236.JPG,false,1,keypress(m),500,172944.19999998808,172944,169800.802,169806.19999998808,169817.469,172950.865,8,400,28,,ISIC_6640227.JPG
break,html.Screen,4_27_1,2023-11-06T15:15:10.594Z,,0,,,NaN,,,,,,false,,,,172945.29999999702,172945,,172944.39999999106,,172950.865,8,400,,,
break_continue,html.Screen,4_27_2,2023-11-06T15:15:10.595Z,,0,,,NaN,,,,,,false,,,,172945.89999999106,172945.69999998808,,172945.39999999106,,172950.865,8,400,,,
sequence,flow.Sequence,4_27,2023-11-06T15:15:10.595Z,,0,,,3128.230999988067,completion,,,,,false,,,,172946,172945.69999998808,169800.802,169806.19999998808,169817.469,172950.865,8,400,,,
trial,html.Screen,4_28_0,2023-11-06T15:15:14.638Z,,0,1,,4037.5349999910686,response,ISIC_6785680.JPG,5,ISIC_4026019.JPG,ISIC_4026019.JPG,false,0,keypress(z),500,176988.59999999404,176988.39999999106,172934.198,172946.19999998808,172950.865,177001.544,8,400,29,,ISIC_6785680.JPG
break,html.Screen,4_28_1,2023-11-06T15:15:14.639Z,,0,,,NaN,,,,,,false,,,,176989.79999999702,176989.5,,176988.79999999702,,177001.544,8,400,,,
break_continue,html.Screen,4_28_2,2023-11-06T15:15:14.639Z,,0,,,NaN,,,,,,false,,,,176990.5,176990.39999999106,,176990,,177001.544,8,400,,,
sequence,flow.Sequence,4_28,2023-11-06T15:15:14.640Z,,0,,,4039.5349999910686,completion,,,,,false,,,,176990.69999998808,176990.39999999106,172934.198,172946.19999998808,172950.865,177001.544,8,400,,,
trial,html.Screen,4_29_0,2023-11-06T15:15:18.371Z,,0,1,,3720.2559999970254,response,ISIC_4780727.JPG,6,ISIC_0065421.JPG,ISIC_0065421.JPG,false,0,keypress(z),500,180722.09999999404,180721.79999999702,176984.877,176990.89999999106,177001.544,180734.952,8,400,30,,ISIC_4780727.JPG
break,html.Screen,4_29_1,2023-11-06T15:15:18.372Z,,0,,,NaN,,,,,,false,,,,180723.19999998808,180722.89999999106,,180722.29999999702,,180734.952,8,400,,,
break_continue,html.Screen,4_29_2,2023-11-06T15:15:18.373Z,,0,,,NaN,,,,,,false,,,,180723.89999999106,180723.69999998808,,180723.29999999702,,180734.952,8,400,,,
sequence,flow.Sequence,4_29,2023-11-06T15:15:18.373Z,,0,,,3722.1559999880847,completion,,,,,false,,,,180724,180723.69999998808,176984.877,176990.79999999702,177001.544,180734.952,8,400,,,
trial,html.Screen,4_30_0,2023-11-06T15:15:21.784Z,,0,1,,3400.247999988089,response,ISIC_2769292.JPG,6,ISIC_5754070.JPG,ISIC_5754070.JPG,false,0,keypress(z),500,184135.39999999106,184135.19999998808,180718.285,180724.19999998808,180734.952,184151.687,8,400,31,,ISIC_2769292.JPG
break,html.Screen,4_30_1,2023-11-06T15:15:21.786Z,,0,,,NaN,,,,,,false,,,,184136.59999999404,184136.19999998808,,184135.59999999404,,184151.687,8,400,,,
break_continue,html.Screen,4_30_2,2023-11-06T15:15:21.786Z,,0,,,NaN,,,,,,false,,,,184137.09999999404,184136.89999999106,,184136.69999998808,,184151.687,8,400,,,
sequence,flow.Sequence,4_30,2023-11-06T15:15:21.786Z,,0,,,3401.947999991069,completion,,,,,false,,,,184137.29999999702,184136.89999999106,180718.285,180724.09999999404,180734.952,184151.687,8,400,,,
trial,html.Screen,4_31_0,2023-11-06T15:15:24.896Z,,0,1,,3094.912999994034,response,ISIC_0062713.JPG,6,ISIC_0030981.JPG,ISIC_0030981.JPG,false,0,keypress(z),500,187246.89999999106,187246.59999999404,184135.02,184137.39999999106,184151.687,187252.233,8,400,32,,ISIC_0062713.JPG
break,html.Screen,4_31_1,2023-11-06T15:15:24.897Z,,0,,,NaN,,,,,,false,,,,187248,187247.69999998808,,187247.09999999404,,187252.233,8,400,,,
break_continue,html.Screen,4_31_2,2023-11-06T15:15:24.898Z,,0,,,NaN,,,,,,false,,,,187248.5,187248.29999999702,,187248.09999999404,,187252.233,8,400,,,
sequence,flow.Sequence,4_31,2023-11-06T15:15:24.898Z,,0,,,3096.6129999970144,completion,,,,,false,,,,187248.69999998808,187248.29999999702,184135.02,184137.39999999106,184151.687,187252.233,8,400,,,
trial,html.Screen,4_32_0,2023-11-06T15:15:27.680Z,,0,1,,2778.2669999999925,response,ISIC_0011615.JPG,6,ISIC_2918128.JPG,ISIC_2918128.JPG,false,0,keypress(z),500,190030.69999998808,190030.5,187235.566,187248.89999999106,187252.233,190035.622,8,400,33,,ISIC_0011615.JPG
break,html.Screen,4_32_1,2023-11-06T15:15:27.680Z,,0,,,NaN,,,,,,false,,,,190031.29999999702,190031.19999998808,,190030.79999999702,,190035.622,8,400,,,
break_continue,html.Screen,4_32_2,2023-11-06T15:15:27.681Z,,0,,,NaN,,,,,,false,,,,190031.59999999404,190031.5,,190031.39999999106,,190035.622,8,400,,,
sequence,flow.Sequence,4_32,2023-11-06T15:15:27.681Z,,0,,,2779.2669999999925,completion,,,,,false,,,,190031.69999998808,190031.5,187235.566,187248.79999999702,187252.233,190035.622,8,400,,,
trial,html.Screen,4_33_0,2023-11-06T15:15:31.878Z,,0,1,,4192.877999999997,response,ISIC_1384527.JPG,8,ISIC_5706192.JPG,ISIC_1384527.JPG,false,1,keypress(m),500,194228.69999998808,194228.5,190018.955,190031.79999999702,190035.622,194235.706,8,400,34,,ISIC_5706192.JPG
break,html.Screen,4_33_1,2023-11-06T15:15:31.879Z,,0,,,NaN,,,,,,false,,,,194229.79999999702,194229.5,,194228.89999999106,,194235.706,8,400,,,
break_continue,html.Screen,4_33_2,2023-11-06T15:15:31.880Z,,0,,,NaN,,,,,,false,,,,194230.39999999106,194230.19999998808,,194230,,194235.706,8,400,,,
sequence,flow.Sequence,4_33,2023-11-06T15:15:31.880Z,,0,,,4194.577999988076,completion,,,,,false,,,,194230.59999999404,194230.19999998808,190018.955,190031.79999999702,190035.622,194235.706,8,400,,,
trial,html.Screen,4_34_0,2023-11-06T15:15:35.130Z,,0,1,,3244.9939999880735,response,ISIC_4428769.JPG,7,ISIC_1831600.JPG,ISIC_4428769.JPG,false,1,keypress(m),500,197480.89999999106,197480.69999998808,194219.039,194230.69999998808,194235.706,197486.278,8,400,35,,ISIC_1831600.JPG
break,html.Screen,4_34_1,2023-11-06T15:15:35.131Z,,0,,,NaN,,,,,,false,,,,197482,197481.69999998808,,197481.09999999404,,197486.278,8,400,,,
break_continue,html.Screen,4_34_2,2023-11-06T15:15:35.132Z,,0,,,NaN,,,,,,false,,,,197482.39999999106,197482.29999999702,,197482.09999999404,,197486.278,8,400,,,
sequence,flow.Sequence,4_34,2023-11-06T15:15:35.132Z,,0,,,3246.593999997014,completion,,,,,false,,,,197482.69999998808,197482.29999999702,194219.039,194230.69999998808,194235.706,197486.278,8,400,,,
trial,html.Screen,4_35_0,2023-11-06T15:15:38.695Z,,0,1,,3558.621999991068,response,ISIC_2804864.JPG,6,ISIC_0028410.JPG,ISIC_0028410.JPG,false,0,keypress(z),500,201045.19999998808,201044.89999999106,197469.611,197482.79999999702,197486.278,201053.016,8,400,36,,ISIC_2804864.JPG
break,html.Screen,4_35_1,2023-11-06T15:15:38.696Z,,0,,,NaN,,,,,,false,,,,201046.39999999106,201046.19999998808,,201045.5,,201053.016,8,400,,,
break_continue,html.Screen,4_35_2,2023-11-06T15:15:38.696Z,,0,,,NaN,,,,,,false,,,,201046.89999999106,201046.69999998808,,201046.5,,201053.016,8,400,,,
sequence,flow.Sequence,4_35,2023-11-06T15:15:38.696Z,,0,,,3560.421999988088,completion,,,,,false,,,,201047.19999998808,201046.69999998808,197469.611,197482.79999999702,197486.278,201053.016,8,400,,,
trial,html.Screen,4_36_0,2023-11-06T15:15:42.526Z,,0,1,,3823.383999991056,response,ISIC_3521671.JPG,6,ISIC_3786075.JPG,ISIC_3786075.JPG,false,0,keypress(z),500,204876.59999999404,204876.39999999106,201036.349,201047.29999999702,201053.016,204886.426,8,400,37,,ISIC_3521671.JPG
break,html.Screen,4_36_1,2023-11-06T15:15:42.527Z,,0,,,NaN,,,,,,false,,,,204877.69999998808,204877.5,,204876.79999999702,,204886.426,8,400,,,
break_continue,html.Screen,4_36_2,2023-11-06T15:15:42.528Z,,0,,,NaN,,,,,,false,,,,204878.29999999702,204878.09999999404,,204877.89999999106,,204886.426,8,400,,,
sequence,flow.Sequence,4_36,2023-11-06T15:15:42.528Z,,0,,,3825.0839999940363,completion,,,,,false,,,,204878.39999999106,204878.09999999404,201036.349,201047.19999998808,201053.016,204886.426,8,400,,,
trial,html.Screen,4_37_0,2023-11-06T15:15:45.310Z,,0,1,,2773.9739999910526,response,ISIC_4074537.JPG,6,ISIC_1919324.JPG,ISIC_1919324.JPG,false,0,keypress(z),500,207660.59999999404,207660.39999999106,204869.759,204878.59999999404,204886.426,207670.3,8,400,38,,ISIC_4074537.JPG
break,html.Screen,4_37_1,2023-11-06T15:15:45.311Z,,0,,,NaN,,,,,,false,,,,207661.69999998808,207661.5,,207660.79999999702,,207670.3,8,400,,,
break_continue,html.Screen,4_37_2,2023-11-06T15:15:45.312Z,,0,,,NaN,,,,,,false,,,,207662.19999998808,207662,,207661.89999999106,,207670.3,8,400,,,
sequence,flow.Sequence,4_37,2023-11-06T15:15:45.312Z,,0,,,2775.5739999999932,completion,,,,,false,,,,207662.59999999404,207662,204869.759,204878.5,204886.426,207670.3,8,400,,,
trial,html.Screen,4_38_0,2023-11-06T15:15:48.707Z,,0,1,,3387.299999994051,response,ISIC_2819798.JPG,9,ISIC_0057009.JPG,ISIC_0057009.JPG,false,0,keypress(z),500,211057.79999999702,211057.59999999404,207653.633,207662.69999998808,207670.3,211070.368,8,400,39,,ISIC_2819798.JPG
break,html.Screen,4_38_1,2023-11-06T15:15:48.708Z,,0,,,NaN,,,,,,false,,,,211058.89999999106,211058.59999999404,,211058,,211070.368,8,400,,,
break_continue,html.Screen,4_38_2,2023-11-06T15:15:48.709Z,,0,,,NaN,,,,,,false,,,,211059.39999999106,211059.29999999702,,211059,,211070.368,8,400,,,
sequence,flow.Sequence,4_38,2023-11-06T15:15:48.709Z,,0,,,3388.9999999970314,completion,,,,,false,,,,211059.59999999404,211059.29999999702,207653.633,207662.69999998808,207670.3,211070.368,8,400,,,
trial,html.Screen,4_39_0,2023-11-06T15:15:52.122Z,,0,1,,3401.431999997032,response,ISIC_4780727.JPG,6,ISIC_0028567.JPG,ISIC_0028567.JPG,false,0,keypress(z),500,214472,214471.79999999702,211053.701,211059.69999998808,211070.368,214487.103,8,400,40,,ISIC_4780727.JPG
break,html.Screen,4_39_1,2023-11-06T15:15:52.123Z,,0,,,NaN,,,,,,false,,,,214473.09999999404,214472.89999999106,,214472.29999999702,,214487.103,8,400,,,
break_continue,html.Screen,4_39_2,2023-11-06T15:15:52.123Z,,0,,,NaN,,,,,,false,,,,214473.69999998808,214473.5,,214473.29999999702,,214487.103,8,400,,,
sequence,flow.Sequence,4_39,2023-11-06T15:15:52.123Z,,0,,,3403.1320000000123,completion,,,,,false,,,,214473.79999999702,214473.5,211053.701,211059.59999999404,211070.368,214487.103,8,400,,,
trial,html.Screen,4_40_0,2023-11-06T15:15:55.615Z,,0,1,,3478.2969999910565,response,ISIC_3378691.JPG,6,ISIC_0029508.JPG,ISIC_0029508.JPG,false,0,keypress(z),500,217965.69999998808,217965.39999999106,214470.436,214474,214487.103,217971.029,8,400,41,,ISIC_3378691.JPG
break,html.Screen,4_40_1,2023-11-06T15:15:55.616Z,,0,,,NaN,,,,,,false,,,,217966.69999998808,217966.39999999106,,217965.79999999702,,217971.029,8,400,,,
break_continue,html.Screen,4_40_2,2023-11-06T15:15:55.617Z,,0,,,NaN,,,,,,false,,,,217967.19999998808,217967.19999998808,,217966.89999999106,,217971.029,8,400,,,
sequence,flow.Sequence,4_40,2023-11-06T15:15:55.617Z,,0,,,3480.0969999880763,completion,,,,,false,,,,217967.5,217967.19999998808,214470.436,214474,214487.103,217971.029,8,400,,,
trial,html.Screen,4_41_0,2023-11-06T15:15:58.687Z,,0,1,,3066.3709999910498,response,ISIC_0031625.JPG,7,ISIC_9598638.JPG,ISIC_0031625.JPG,false,1,keypress(m),500,221037.59999999404,221037.39999999106,217954.362,217967.59999999404,217971.029,221054.424,8,400,42,,ISIC_9598638.JPG
break,html.Screen,4_41_1,2023-11-06T15:15:58.689Z,,0,,,NaN,,,,,,false,,,,221038.79999999702,221038.39999999106,,221037.89999999106,,221054.424,8,400,,,
break_continue,html.Screen,4_41_2,2023-11-06T15:15:58.689Z,,0,,,NaN,,,,,,false,,,,221039.29999999702,221039.19999998808,,221038.89999999106,,221054.424,8,400,,,
sequence,flow.Sequence,4_41,2023-11-06T15:15:58.689Z,,0,,,3068.1709999880695,completion,,,,,false,,,,221039.5,221039.19999998808,217954.362,217967.59999999404,217971.029,221054.424,8,400,,,
trial,html.Screen,4_42_0,2023-11-06T15:16:01.495Z,,0,1,,2790.77599998808,response,ISIC_0033605.JPG,8,ISIC_8036544.JPG,ISIC_0033605.JPG,false,1,keypress(m),500,223845.5,223845.19999998808,221037.757,221039.69999998808,221054.424,223854.48,8,400,43,,ISIC_8036544.JPG
break,html.Screen,4_42_1,2023-11-06T15:16:01.496Z,,0,,,NaN,,,,,,false,,,,223846.59999999404,223846.29999999702,,223845.69999998808,,223854.48,8,400,,,
break_continue,html.Screen,4_42_2,2023-11-06T15:16:01.497Z,,0,,,NaN,,,,,,false,,,,223847.19999998808,223847,,223846.69999998808,,223854.48,8,400,,,
sequence,flow.Sequence,4_42,2023-11-06T15:16:01.497Z,,0,,,2792.576000000001,completion,,,,,false,,,,223847.39999999106,223847,221037.757,221039.69999998808,221054.424,223854.48,8,400,,,
trial,html.Screen,4_43_0,2023-11-06T15:16:04.524Z,,0,1,,3019.2199999880686,response,ISIC_0002566.JPG,8,ISIC_3296136.JPG,ISIC_3296136.JPG,false,0,keypress(z),500,226873.89999999106,226873.69999998808,223837.813,223847.5,223854.48,226887.874,8,400,44,,ISIC_0002566.JPG
break,html.Screen,4_43_1,2023-11-06T15:16:04.525Z,,0,,,NaN,,,,,,false,,,,226875,226874.69999998808,,226874.09999999404,,226887.874,8,400,,,
break_continue,html.Screen,4_43_2,2023-11-06T15:16:04.525Z,,0,,,NaN,,,,,,false,,,,226875.5,226875.39999999106,,226875.09999999404,,226887.874,8,400,,,
sequence,flow.Sequence,4_43,2023-11-06T15:16:04.526Z,,0,,,3020.919999991049,completion,,,,,false,,,,226875.69999998808,226875.39999999106,223837.813,223847.5,223854.48,226887.874,8,400,,,
trial,html.Screen,4_44_0,2023-11-06T15:16:07.543Z,,0,1,,3004.6259999999893,response,ISIC_0028910.JPG,9,ISIC_0001102.JPG,ISIC_0001102.JPG,false,0,keypress(z),500,229892.79999999702,229892.5,226871.207,226875.89999999106,226887.874,229905.052,8,400,45,,ISIC_0028910.JPG
break,html.Screen,4_44_1,2023-11-06T15:16:07.544Z,,0,,,NaN,,,,,,false,,,,229893.89999999106,229893.5,,229893,,229905.052,8,400,,,
break_continue,html.Screen,4_44_2,2023-11-06T15:16:07.544Z,,0,,,NaN,,,,,,false,,,,229894.39999999106,229894.19999998808,,229894,,229905.052,8,400,,,
sequence,flow.Sequence,4_44,2023-11-06T15:16:07.545Z,,0,,,3006.3259999880684,completion,,,,,false,,,,229894.69999998808,229894.19999998808,226871.207,226875.79999999702,226887.874,229905.052,8,400,,,
trial,html.Screen,4_45_0,2023-11-06T15:16:10.348Z,,0,1,,2792.2479999970237,response,ISIC_0010225.JPG,7,ISIC_0011988.JPG,ISIC_0011988.JPG,false,0,keypress(z),500,232697.69999998808,232697.29999999702,229888.385,229894.89999999106,229905.052,232705.108,8,400,46,,ISIC_0010225.JPG
break,html.Screen,4_45_1,2023-11-06T15:16:10.349Z,,0,,,NaN,,,,,,false,,,,232698.89999999106,232698.59999999404,,232697.89999999106,,232705.108,8,400,,,
break_continue,html.Screen,4_45_2,2023-11-06T15:16:10.349Z,,0,,,NaN,,,,,,false,,,,232699.5,232699.29999999702,,232699.09999999404,,232705.108,8,400,,,
sequence,flow.Sequence,4_45,2023-11-06T15:16:10.350Z,,0,,,2794.2479999970237,completion,,,,,false,,,,232699.69999998808,232699.29999999702,229888.385,229894.79999999702,229905.052,232705.108,8,400,,,
trial,html.Screen,4_46_0,2023-11-06T15:16:13.920Z,,0,1,,3564.5919999880716,response,ISIC_2064934.JPG,8,ISIC_0034233.JPG,ISIC_0034233.JPG,false,0,keypress(z),500,236269.89999999106,236269.69999998808,232688.441,232699.79999999702,232705.108,236271.846,8,400,47,,ISIC_2064934.JPG
break,html.Screen,4_46_1,2023-11-06T15:16:13.921Z,,0,,,NaN,,,,,,false,,,,236270.89999999106,236270.69999998808,,236270.09999999404,,236271.846,8,400,,,
break_continue,html.Screen,4_46_2,2023-11-06T15:16:13.921Z,,0,,,NaN,,,,,,false,,,,236271.39999999106,236271.39999999106,,236271.09999999404,,236271.846,8,400,,,
sequence,flow.Sequence,4_46,2023-11-06T15:16:13.922Z,,0,,,3566.291999991052,completion,,,,,false,,,,236271.69999998808,236271.39999999106,232688.441,232699.79999999702,232705.108,236271.846,8,400,,,
trial,html.Screen,4_47_0,2023-11-06T15:16:17.542Z,,0,1,,3620.053999991069,response,ISIC_5065245.JPG,5,ISIC_0026438.JPG,ISIC_0026438.JPG,false,0,keypress(z),500,239892.09999999404,239891.89999999106,236255.179,236271.79999999702,236271.846,239905.776,8,400,48,,ISIC_5065245.JPG
break,html.Screen,4_47_1,2023-11-06T15:16:17.543Z,,0,,,NaN,,,,,,false,,,,239893.19999998808,239893,,239892.29999999702,,239905.776,8,400,,,
break_continue,html.Screen,4_47_2,2023-11-06T15:16:17.544Z,,0,,,NaN,,,,,,false,,,,239893.79999999702,239893.59999999404,,239893.5,,239905.776,8,400,,,
sequence,flow.Sequence,4_47,2023-11-06T15:16:17.544Z,,0,,,3621.753999994049,completion,,,,,false,,,,239894,239893.59999999404,236255.179,236271.79999999702,236271.846,239905.776,8,400,,,
trial,html.Screen,4_48_0,2023-11-06T15:16:24.397Z,,0,1,,6841.023999997007,response,ISIC_0031213.JPG,6,ISIC_1937955.JPG,ISIC_1937955.JPG,false,0,keypress(z),500,246747,246746.79999999702,239889.109,239894.19999998808,239905.776,246755.913,8,400,49,,ISIC_0031213.JPG
break,html.Screen,4_48_1,2023-11-06T15:16:24.398Z,,0,,,NaN,,,,,,false,,,,246748,246747.69999998808,,246747.19999998808,,246755.913,8,400,,,
break_continue,html.Screen,4_48_2,2023-11-06T15:16:24.399Z,,0,,,NaN,,,,,,false,,,,246748.5,246748.29999999702,,246748.19999998808,,246755.913,8,400,,,
sequence,flow.Sequence,4_48,2023-11-06T15:16:24.399Z,,0,,,6842.523999997007,completion,,,,,false,,,,246748.69999998808,246748.29999999702,239889.109,239894.19999998808,239905.776,246755.913,8,400,,,
trial,html.Screen,4_49_0,2023-11-06T15:16:27.746Z,,0,1,,3339.186999994039,response,ISIC_2000959.JPG,7,ISIC_4220010.JPG,ISIC_4220010.JPG,false,0,keypress(z),500,250095.39999999106,250095.09999999404,246739.246,246748.79999999702,246755.913,250106.558,8,400,50,,ISIC_2000959.JPG
break,html.Screen,4_49_1,2023-11-06T15:16:37.744Z,,0,,,10000.686000000016,timeout,,,,,false,,,,260093.5,260090.577,250089.891,250095.59999999404,250106.558,260107.244,8,400,,,
break_continue,html.Screen,4_49_2,2023-11-06T15:16:39.002Z,,0,,,1228.255999999994,response,,,,,false,continue,keypress(Space),,261351.89999999106,261335.5,260090.577,260093.69999998808,260107.244,261357.269,8,400,,,
sequence,flow.Sequence,4_49,2023-11-06T15:16:39.003Z,,0,,,14579.587,completion,,,,,false,,,,261352.09999999404,261335.5,246739.246,246748.79999999702,246755.913,261357.269,8,400,,,
trial,html.Screen,4_50_0,2023-11-06T15:16:42.925Z,,0,2,,3916.7309999999998,response,ISIC_5413788.JPG,6,ISIC_3305055.JPG,ISIC_3305055.JPG,false,0,keypress(z),500,265274.1999999881,265274,261340.602,261352.29999999702,261357.269,265290.681,8,400,1,,ISIC_5413788.JPG
break,html.Screen,4_50_1,2023-11-06T15:16:42.926Z,,0,,,NaN,,,,,,false,,,,265275.299999997,265275,,265274.39999999106,,265290.681,8,400,,,
break_continue,html.Screen,4_50_2,2023-11-06T15:16:42.926Z,,0,,,NaN,,,,,,false,,,,265275.89999999106,265275.6999999881,,265275.5,,265290.681,8,400,,,
sequence,flow.Sequence,4_50,2023-11-06T15:16:42.927Z,,0,,,3918.430999988079,completion,,,,,false,,,,265276.09999999404,265275.6999999881,261340.602,261352.19999998808,261357.269,265290.681,8,400,,,
trial,html.Screen,4_51_0,2023-11-06T15:16:45.731Z,,0,2,,2789.6189999970375,response,ISIC_0069996.JPG,8,ISIC_0218575.JPG,ISIC_0069996.JPG,false,1,keypress(m),500,268080.59999999404,268080.299999997,265274.014,265276.1999999881,265290.681,268090.737,8,400,2,,ISIC_0218575.JPG
break,html.Screen,4_51_1,2023-11-06T15:16:45.732Z,,0,,,NaN,,,,,,false,,,,268081.59999999404,268081.299999997,,268080.799999997,,268090.737,8,400,,,
break_continue,html.Screen,4_51_2,2023-11-06T15:16:45.733Z,,0,,,NaN,,,,,,false,,,,268082.09999999404,268081.89999999106,,268081.6999999881,,268090.737,8,400,,,
sequence,flow.Sequence,4_51,2023-11-06T15:16:45.733Z,,0,,,2791.218999991077,completion,,,,,false,,,,268082.299999997,268081.89999999106,265274.014,265276.1999999881,265290.681,268090.737,8,400,,,
trial,html.Screen,4_52_0,2023-11-06T15:16:49.064Z,,0,2,,3322.3629999940167,response,ISIC_0032540.JPG,7,ISIC_0055024.JPG,ISIC_0055024.JPG,false,0,keypress(z),500,271413.1999999881,271413.09999999404,268074.07,268082.5,268090.737,271424.714,8,400,3,,ISIC_0032540.JPG
break,html.Screen,4_52_1,2023-11-06T15:16:49.065Z,,0,,,NaN,,,,,,false,,,,271414.299999997,271414,,271413.5,,271424.714,8,400,,,
break_continue,html.Screen,4_52_2,2023-11-06T15:16:49.065Z,,0,,,NaN,,,,,,false,,,,271414.799999997,271414.59999999404,,271414.39999999106,,271424.714,8,400,,,
sequence,flow.Sequence,4_52,2023-11-06T15:16:49.066Z,,0,,,3323.8629999940167,completion,,,,,false,,,,271414.89999999106,271414.59999999404,268074.07,268082.39999999106,268090.737,271424.714,8,400,,,
trial,html.Screen,4_53_0,2023-11-06T15:16:52.157Z,,0,2,,3081.685999991081,response,ISIC_1124434.JPG,6,ISIC_3677945.JPG,ISIC_3677945.JPG,false,0,keypress(z),500,274506.59999999404,274506.39999999106,271408.047,271415.09999999404,271424.714,274508.109,8,400,4,,ISIC_1124434.JPG
break,html.Screen,4_53_1,2023-11-06T15:16:52.158Z,,0,,,NaN,,,,,,false,,,,274507.59999999404,274507.39999999106,,274506.799999997,,274508.109,8,400,,,
break_continue,html.Screen,4_53_2,2023-11-06T15:16:52.159Z,,0,,,NaN,,,,,,false,,,,274508.09999999404,274508,,274507.6999999881,,274508.109,8,400,,,
sequence,flow.Sequence,4_53,2023-11-06T15:16:52.159Z,,0,,,3083.286000000022,completion,,,,,false,,,,274508.39999999106,274508,271408.047,271415.09999999404,271424.714,274508.109,8,400,,,
trial,html.Screen,4_54_0,2023-11-06T15:16:54.919Z,,0,2,,2760.190999997023,response,ISIC_0011957.JPG,5,ISIC_1532403.JPG,ISIC_0011957.JPG,false,1,keypress(m),500,277268.59999999404,277268.299999997,274491.442,274508.59999999404,274508.109,277274.831,8,400,5,,ISIC_1532403.JPG
break,html.Screen,4_54_1,2023-11-06T15:16:54.920Z,,0,,,NaN,,,,,,false,,,,277269.6999999881,277269.299999997,,277268.799999997,,277274.831,8,400,,,
break_continue,html.Screen,4_54_2,2023-11-06T15:16:54.921Z,,0,,,NaN,,,,,,false,,,,277270.1999999881,277270.09999999404,,277269.799999997,,277274.831,8,400,,,
sequence,flow.Sequence,4_54,2023-11-06T15:16:54.921Z,,0,,,2761.990999994043,completion,,,,,false,,,,277270.39999999106,277270.09999999404,274491.442,274508.59999999404,274508.109,277274.831,8,400,,,
trial,html.Screen,4_55_0,2023-11-06T15:16:57.803Z,,0,2,,2877.5689999910537,response,ISIC_0015206.JPG,7,ISIC_4378189.JPG,ISIC_4378189.JPG,false,0,keypress(z),500,280152.6999999881,280152.39999999106,277258.164,277270.59999999404,277274.831,280158.222,8,400,6,,ISIC_0015206.JPG
break,html.Screen,4_55_1,2023-11-06T15:16:57.804Z,,0,,,NaN,,,,,,false,,,,280153.6999999881,280153.299999997,,280152.799999997,,280158.222,8,400,,,
break_continue,html.Screen,4_55_2,2023-11-06T15:16:57.805Z,,0,,,NaN,,,,,,false,,,,280154.1999999881,280154,,280153.6999999881,,280158.222,8,400,,,
sequence,flow.Sequence,4_55,2023-11-06T15:16:57.805Z,,0,,,2879.1689999999944,completion,,,,,false,,,,280154.39999999106,280154,277258.164,277270.59999999404,277274.831,280158.222,8,400,,,
trial,html.Screen,4_56_0,2023-11-06T15:17:00.535Z,,0,2,,2725.6779999910505,response,ISIC_5202231.JPG,6,ISIC_2558816.JPG,ISIC_2558816.JPG,false,0,keypress(z),500,282884.09999999404,282883.89999999106,280141.555,280154.5,280158.222,282892.105,8,400,7,,ISIC_5202231.JPG
break,html.Screen,4_56_1,2023-11-06T15:17:00.536Z,,0,,,NaN,,,,,,false,,,,282885.09999999404,282884.89999999106,,282884.299999997,,282892.105,8,400,,,
break_continue,html.Screen,4_56_2,2023-11-06T15:17:00.537Z,,0,,,NaN,,,,,,false,,,,282885.59999999404,282885.5,,282885.299999997,,282892.105,8,400,,,
sequence,flow.Sequence,4_56,2023-11-06T15:17:00.537Z,,0,,,2727.277999999991,completion,,,,,false,,,,282885.89999999106,282885.5,280141.555,280154.5,280158.222,282892.105,8,400,,,
trial,html.Screen,4_57_0,2023-11-06T15:17:03.726Z,,0,2,,3182.294999991078,response,ISIC_0034086.JPG,6,ISIC_0004691.JPG,ISIC_0034086.JPG,false,1,keypress(m),500,286074.6999999881,286074.39999999106,282875.438,282885.89999999106,282892.105,286092.169,8,400,8,,ISIC_0004691.JPG
break,html.Screen,4_57_1,2023-11-06T15:17:03.727Z,,0,,,NaN,,,,,,false,,,,286075.6999999881,286075.39999999106,,286074.89999999106,,286092.169,8,400,,,
break_continue,html.Screen,4_57_2,2023-11-06T15:17:03.727Z,,0,,,NaN,,,,,,false,,,,286076.299999997,286076.09999999404,,286075.89999999106,,286092.169,8,400,,,
sequence,flow.Sequence,4_57,2023-11-06T15:17:03.727Z,,0,,,3183.994999994058,completion,,,,,false,,,,286076.5,286076.09999999404,282875.438,282885.89999999106,282892.105,286092.169,8,400,,,
trial,html.Screen,4_58_0,2023-11-06T15:17:07.074Z,,0,2,,3330.6309999970254,response,ISIC_0937261.JPG,9,ISIC_0024280.JPG,ISIC_0024280.JPG,false,0,keypress(z),500,289423.09999999404,289422.799999997,286075.502,286076.59999999404,286092.169,289425.569,8,400,9,,ISIC_0937261.JPG
break,html.Screen,4_58_1,2023-11-06T15:17:07.075Z,,0,,,NaN,,,,,,false,,,,289424.299999997,289423.89999999106,,289423.299999997,,289425.569,8,400,,,
break_continue,html.Screen,4_58_2,2023-11-06T15:17:07.076Z,,0,,,NaN,,,,,,false,,,,289424.799999997,289424.59999999404,,289424.39999999106,,289425.569,8,400,,,
sequence,flow.Sequence,4_58,2023-11-06T15:17:07.076Z,,0,,,3332.430999994045,completion,,,,,false,,,,289425.09999999404,289424.59999999404,286075.502,286076.59999999404,286092.169,289425.569,8,400,,,
trial,html.Screen,4_59_0,2023-11-06T15:17:10.954Z,,0,2,,3876.6309999880614,response,ISIC_0013341.JPG,8,ISIC_0066109.JPG,ISIC_0013341.JPG,false,1,keypress(m),500,293302.5,293302.1999999881,289408.902,289425.1999999881,289425.569,293309.484,8,400,10,,ISIC_0066109.JPG
break,html.Screen,4_59_1,2023-11-06T15:17:10.955Z,,0,,,NaN,,,,,,false,,,,293303.59999999404,293303.299999997,,293302.59999999404,,293309.484,8,400,,,
break_continue,html.Screen,4_59_2,2023-11-06T15:17:10.955Z,,0,,,NaN,,,,,,false,,,,293304.1999999881,293304,,293303.799999997,,293309.484,8,400,,,
sequence,flow.Sequence,4_59,2023-11-06T15:17:10.955Z,,0,,,3878.4309999999823,completion,,,,,false,,,,293304.299999997,293304,289408.902,289425.1999999881,289425.569,293309.484,8,400,,,
trial,html.Screen,4_60_0,2023-11-06T15:17:17.357Z,,0,2,,6396.516000000003,response,ISIC_0063258.JPG,8,ISIC_0000297.JPG,ISIC_0063258.JPG,false,1,keypress(m),500,299706.299999997,299706,293292.817,293304.5,293309.484,299709.612,8,400,11,,ISIC_0000297.JPG
break,html.Screen,4_60_1,2023-11-06T15:17:17.358Z,,0,,,NaN,,,,,,false,,,,299707.1999999881,299707,,299706.39999999106,,299709.612,8,400,,,
break_continue,html.Screen,4_60_2,2023-11-06T15:17:17.359Z,,0,,,NaN,,,,,,false,,,,299707.799999997,299707.6999999881,,299707.39999999106,,299709.612,8,400,,,
sequence,flow.Sequence,4_60,2023-11-06T15:17:17.359Z,,0,,,6398.215999988082,completion,,,,,false,,,,299708,299707.6999999881,293292.817,293304.39999999106,293309.484,299709.612,8,400,,,
trial,html.Screen,4_61_0,2023-11-06T15:17:20.696Z,,0,2,,3334.9879999940167,response,ISIC_1034397.JPG,7,ISIC_0060050.JPG,ISIC_1034397.JPG,false,1,keypress(m),500,303044.799999997,303044.59999999404,299692.945,299708.09999999404,299709.612,303059.679,8,400,12,,ISIC_0060050.JPG
break,html.Screen,4_61_1,2023-11-06T15:17:20.697Z,,0,,,NaN,,,,,,false,,,,303045.89999999106,303045.59999999404,,303045,,303059.679,8,400,,,
break_continue,html.Screen,4_61_2,2023-11-06T15:17:20.698Z,,0,,,NaN,,,,,,false,,,,303046.39999999106,303046.1999999881,,303046,,303059.679,8,400,,,
sequence,flow.Sequence,4_61,2023-11-06T15:17:20.698Z,,0,,,3336.5879999880563,completion,,,,,false,,,,303046.5,303046.1999999881,299692.945,299708.09999999404,299709.612,303059.679,8,400,,,
trial,html.Screen,4_62_0,2023-11-06T15:17:27.453Z,,0,2,,6741.420999994036,response,ISIC_6571597.JPG,7,ISIC_8787152.JPG,ISIC_6571597.JPG,false,1,keypress(m),500,309801.1999999881,309801.09999999404,303043.012,303046.6999999881,303059.679,309810.344,8,400,13,,ISIC_8787152.JPG
break,html.Screen,4_62_1,2023-11-06T15:17:27.454Z,,0,,,NaN,,,,,,false,,,,309802.5,309802.09999999404,,309801.5,,309810.344,8,400,,,
break_continue,html.Screen,4_62_2,2023-11-06T15:17:27.456Z,,0,,,NaN,,,,,,false,,,,309804.299999997,309804,,309802.59999999404,,309810.344,8,400,,,
sequence,flow.Sequence,4_62,2023-11-06T15:17:27.456Z,,0,,,6744.320999999996,completion,,,,,false,,,,309804.5,309804,303043.012,303046.59999999404,303059.679,309810.344,8,400,,,
trial,html.Screen,4_63_0,2023-11-06T15:17:30.313Z,,0,2,,2850.6560000000172,response,ISIC_1831600.JPG,5,ISIC_0610477.JPG,ISIC_1831600.JPG,false,1,keypress(m),500,312661.1999999881,312661,309793.677,309804.59999999404,309810.344,312677.068,8,400,14,,ISIC_0610477.JPG
break,html.Screen,4_63_1,2023-11-06T15:17:30.314Z,,0,,,NaN,,,,,,false,,,,312662.39999999106,312662,,312661.5,,312677.068,8,400,,,
break_continue,html.Screen,4_63_2,2023-11-06T15:17:30.314Z,,0,,,NaN,,,,,,false,,,,312662.89999999106,312662.799999997,,312662.59999999404,,312677.068,8,400,,,
sequence,flow.Sequence,4_63,2023-11-06T15:17:30.315Z,,0,,,2852.455999997037,completion,,,,,false,,,,312663.09999999404,312662.799999997,309793.677,309804.59999999404,309810.344,312677.068,8,400,,,
trial,html.Screen,4_64_0,2023-11-06T15:17:34.441Z,,0,2,,4112.031999994011,response,ISIC_3356355.JPG,8,ISIC_0054318.JPG,ISIC_3356355.JPG,false,1,keypress(m),500,316789.5,316789.09999999404,312660.401,312663.299999997,312677.068,316794.399,8,400,15,,ISIC_0054318.JPG
break,html.Screen,4_64_1,2023-11-06T15:17:34.442Z,,0,,,NaN,,,,,,false,,,,316790.59999999404,316790.299999997,,316789.6999999881,,316794.399,8,400,,,
break_continue,html.Screen,4_64_2,2023-11-06T15:17:34.443Z,,0,,,NaN,,,,,,false,,,,316791,316790.89999999106,,316790.6999999881,,316794.399,8,400,,,
sequence,flow.Sequence,4_64,2023-11-06T15:17:34.443Z,,0,,,4113.831999991031,completion,,,,,false,,,,316791.299999997,316790.89999999106,312660.401,312663.1999999881,312677.068,316794.399,8,400,,,
trial,html.Screen,4_65_0,2023-11-06T15:17:37.262Z,,0,2,,2815.601000000024,response,ISIC_4713698.JPG,7,ISIC_0054963.JPG,ISIC_0054963.JPG,false,0,keypress(z),500,319610.1999999881,319610,316777.732,316791.299999997,316794.399,319627.789,8,400,16,,ISIC_4713698.JPG
break,html.Screen,4_65_1,2023-11-06T15:17:37.263Z,,0,,,NaN,,,,,,false,,,,319611.1999999881,319611,,319610.39999999106,,319627.789,8,400,,,
break_continue,html.Screen,4_65_2,2023-11-06T15:17:37.263Z,,0,,,NaN,,,,,,false,,,,319611.799999997,319611.6999999881,,319611.39999999106,,319627.789,8,400,,,
sequence,flow.Sequence,4_65,2023-11-06T15:17:37.264Z,,0,,,2817.3009999881033,completion,,,,,false,,,,319612.09999999404,319611.6999999881,316777.732,316791.299999997,316794.399,319627.789,8,400,,,
trial,html.Screen,4_66_0,2023-11-06T15:17:40.745Z,,0,2,,3465.7110000000102,response,ISIC_2178689.JPG,9,ISIC_0011933.JPG,ISIC_0011933.JPG,false,0,keypress(z),500,323093.799999997,323093.5,319611.122,319612.1999999881,319627.789,323111.192,8,400,17,,ISIC_2178689.JPG
break,html.Screen,4_66_1,2023-11-06T15:17:40.747Z,,0,,,NaN,,,,,,false,,,,323094.89999999106,323094.59999999404,,323094,,323111.192,8,400,,,
break_continue,html.Screen,4_66_2,2023-11-06T15:17:40.747Z,,0,,,NaN,,,,,,false,,,,323095.5,323095.299999997,,323095,,323111.192,8,400,,,
sequence,flow.Sequence,4_66,2023-11-06T15:17:40.747Z,,0,,,3467.51099999703,completion,,,,,false,,,,323095.59999999404,323095.299999997,319611.122,319612.09999999404,319627.789,323111.192,8,400,,,
trial,html.Screen,4_67_0,2023-11-06T15:17:43.455Z,,0,2,,2691.4079999940586,response,ISIC_1630301.JPG,5,ISIC_3564136.JPG,ISIC_1630301.JPG,false,1,keypress(m),500,325802.799999997,325802.59999999404,323094.525,323095.799999997,323111.192,325811.69,8,400,18,,ISIC_3564136.JPG
break,html.Screen,4_67_1,2023-11-06T15:17:43.456Z,,0,,,NaN,,,,,,false,,,,325803.799999997,325803.59999999404,,325803,,325811.69,8,400,,,
break_continue,html.Screen,4_67_2,2023-11-06T15:17:43.456Z,,0,,,NaN,,,,,,false,,,,325804.39999999106,325804.299999997,,325804,,325811.69,8,400,,,
sequence,flow.Sequence,4_67,2023-11-06T15:17:43.456Z,,0,,,2693.107999997039,completion,,,,,false,,,,325804.59999999404,325804.299999997,323094.525,323095.6999999881,323111.192,325811.69,8,400,,,
trial,html.Screen,4_68_0,2023-11-06T15:17:46.772Z,,0,2,,3308.709999991057,response,ISIC_0010278.JPG,8,ISIC_9927486.JPG,ISIC_0010278.JPG,false,1,keypress(m),500,329120.59999999404,329120.39999999106,325795.023,325804.6999999881,325811.69,329128.423,8,400,19,,ISIC_9927486.JPG
break,html.Screen,4_68_1,2023-11-06T15:17:46.773Z,,0,,,NaN,,,,,,false,,,,329121.6999999881,329121.5,,329120.89999999106,,329128.423,8,400,,,
break_continue,html.Screen,4_68_2,2023-11-06T15:17:46.774Z,,0,,,NaN,,,,,,false,,,,329122.299999997,329122.09999999404,,329121.89999999106,,329128.423,8,400,,,
sequence,flow.Sequence,4_68,2023-11-06T15:17:46.774Z,,0,,,3310.409999994037,completion,,,,,false,,,,329122.5,329122.09999999404,325795.023,325804.59999999404,325811.69,329128.423,8,400,,,
trial,html.Screen,4_69_0,2023-11-06T15:17:49.985Z,,0,2,,3204.9769999910495,response,ISIC_4938994.JPG,7,ISIC_4718237.JPG,ISIC_4938994.JPG,false,1,keypress(m),500,332333.59999999404,332333.39999999106,329111.756,329122.59999999404,329128.423,332345.154,8,400,20,,ISIC_4718237.JPG
break,html.Screen,4_69_1,2023-11-06T15:17:49.986Z,,0,,,NaN,,,,,,false,,,,332334.59999999404,332334.39999999106,,332333.89999999106,,332345.154,8,400,,,
break_continue,html.Screen,4_69_2,2023-11-06T15:17:49.987Z,,0,,,NaN,,,,,,false,,,,332335.1999999881,332335,,332334.799999997,,332345.154,8,400,,,
sequence,flow.Sequence,4_69,2023-11-06T15:17:49.987Z,,0,,,3206.57699999999,completion,,,,,false,,,,332335.39999999106,332335,329111.756,329122.59999999404,329128.423,332345.154,8,400,,,
trial,html.Screen,4_70_0,2023-11-06T15:17:57.392Z,,0,2,,7395.145999997039,response,ISIC_0013977.JPG,9,ISIC_0024227.JPG,ISIC_0024227.JPG,false,0,keypress(z),500,339740.5,339740.299999997,332328.487,332335.5,332345.154,339745.817,8,400,21,,ISIC_0013977.JPG
break,html.Screen,4_70_1,2023-11-06T15:17:57.393Z,,0,,,NaN,,,,,,false,,,,339741.5,339741.299999997,,339740.6999999881,,339745.817,8,400,,,
break_continue,html.Screen,4_70_2,2023-11-06T15:17:57.394Z,,0,,,NaN,,,,,,false,,,,339742,339741.89999999106,,339741.6999999881,,339745.817,8,400,,,
sequence,flow.Sequence,4_70,2023-11-06T15:17:57.394Z,,0,,,7396.745999991079,completion,,,,,false,,,,339742.1999999881,339741.89999999106,332328.487,332335.5,332345.154,339745.817,8,400,,,
trial,html.Screen,4_71_0,2023-11-06T15:18:00.293Z,,0,2,,2894.5829999910784,response,ISIC_0034062.JPG,8,ISIC_0057787.JPG,ISIC_0057787.JPG,false,0,keypress(z),500,342640.59999999404,342640.39999999106,339729.15,339742.299999997,339745.817,342645.875,8,400,22,,ISIC_0034062.JPG
break,html.Screen,4_71_1,2023-11-06T15:18:00.294Z,,0,,,NaN,,,,,,false,,,,342641.59999999404,342641.39999999106,,342640.6999999881,,342645.875,8,400,,,
break_continue,html.Screen,4_71_2,2023-11-06T15:18:00.294Z,,0,,,NaN,,,,,,false,,,,342642.09999999404,342642,,342641.799999997,,342645.875,8,400,,,
sequence,flow.Sequence,4_71,2023-11-06T15:18:00.294Z,,0,,,2896.183000000019,completion,,,,,false,,,,342642.39999999106,342642,339729.15,339742.299999997,339745.817,342645.875,8,400,,,
trial,html.Screen,4_72_0,2023-11-06T15:18:03.026Z,,0,2,,2728.2249999940395,response,ISIC_0000539.JPG,7,ISIC_5434055.JPG,ISIC_0000539.JPG,false,1,keypress(m),500,345374.299999997,345374.09999999404,342629.208,342642.39999999106,342645.875,345379.263,8,400,23,,ISIC_5434055.JPG
break,html.Screen,4_72_1,2023-11-06T15:18:03.027Z,,0,,,NaN,,,,,,false,,,,345375.299999997,345375.09999999404,,345374.5,,345379.263,8,400,,,
break_continue,html.Screen,4_72_2,2023-11-06T15:18:03.028Z,,0,,,NaN,,,,,,false,,,,345375.89999999106,345375.6999999881,,345375.5,,345379.263,8,400,,,
sequence,flow.Sequence,4_72,2023-11-06T15:18:03.028Z,,0,,,2729.824999988079,completion,,,,,false,,,,345376,345375.6999999881,342629.208,342642.39999999106,342645.875,345379.263,8,400,,,
trial,html.Screen,4_73_0,2023-11-06T15:18:06.322Z,,0,2,,3289.936999988102,response,ISIC_0024244.JPG,7,ISIC_6366417.JPG,ISIC_0024244.JPG,false,1,keypress(m),500,348669.39999999106,348669.1999999881,345362.596,345376.1999999881,345379.263,348679.855,8,400,24,,ISIC_6366417.JPG
break,html.Screen,4_73_1,2023-11-06T15:18:06.323Z,,0,,,NaN,,,,,,false,,,,348670.39999999106,348670.1999999881,,348669.59999999404,,348679.855,8,400,,,
break_continue,html.Screen,4_73_2,2023-11-06T15:18:06.323Z,,0,,,NaN,,,,,,false,,,,348670.89999999106,348670.6999999881,,348670.59999999404,,348679.855,8,400,,,
sequence,flow.Sequence,4_73,2023-11-06T15:18:06.323Z,,0,,,3291.436999988102,completion,,,,,false,,,,348671.09999999404,348670.6999999881,345362.596,345376.1999999881,345379.263,348679.855,8,400,,,
trial,html.Screen,4_74_0,2023-11-06T15:18:09.161Z,,0,2,,2828.544999991078,response,ISIC_4369035.JPG,9,ISIC_2757355.JPG,ISIC_2757355.JPG,false,0,keypress(z),500,351508.59999999404,351508.39999999106,348663.188,348671.299999997,348679.855,351513.245,8,400,25,,ISIC_4369035.JPG
break,html.Screen,4_74_1,2023-11-06T15:18:09.162Z,,0,,,NaN,,,,,,false,,,,351509.799999997,351509.5,,351508.89999999106,,351513.245,8,400,,,
break_continue,html.Screen,4_74_2,2023-11-06T15:18:09.162Z,,0,,,NaN,,,,,,false,,,,351510.299999997,351510.1999999881,,351509.89999999106,,351513.245,8,400,,,
sequence,flow.Sequence,4_74,2023-11-06T15:18:09.163Z,,0,,,2830.3449999880977,completion,,,,,false,,,,351510.5,351510.1999999881,348663.188,348671.299999997,348679.855,351513.245,8,400,,,
trial,html.Screen,4_75_0,2023-11-06T15:18:12.216Z,,0,2,,3050.4549999880837,response,ISIC_0061184.JPG,8,ISIC_9012513.JPG,ISIC_0061184.JPG,false,1,keypress(m),500,354563.89999999106,354563.6999999881,351496.578,351510.6999999881,351513.245,354579.973,8,400,26,,ISIC_9012513.JPG
break,html.Screen,4_75_1,2023-11-06T15:18:12.217Z,,0,,,NaN,,,,,,false,,,,354565,354564.6999999881,,354564.09999999404,,354579.973,8,400,,,
break_continue,html.Screen,4_75_2,2023-11-06T15:18:12.218Z,,0,,,NaN,,,,,,false,,,,354565.5,354565.299999997,,354565.09999999404,,354579.973,8,400,,,
sequence,flow.Sequence,4_75,2023-11-06T15:18:12.218Z,,0,,,3052.0549999970244,completion,,,,,false,,,,354565.59999999404,354565.299999997,351496.578,351510.6999999881,351513.245,354579.973,8,400,,,
trial,html.Screen,4_76_0,2023-11-06T15:18:16.172Z,,0,2,,3939.926999991061,response,ISIC_0068152.JPG,6,ISIC_0070387.JPG,ISIC_0068152.JPG,false,1,keypress(m),500,358520.09999999404,358519.89999999106,354563.306,354565.799999997,354579.973,358547.433,8,400,27,,ISIC_0070387.JPG
break,html.Screen,4_76_1,2023-11-06T15:18:16.173Z,,0,,,NaN,,,,,,false,,,,358521,358520.799999997,,358520.299999997,,358547.433,8,400,,,
break_continue,html.Screen,4_76_2,2023-11-06T15:18:16.174Z,,0,,,NaN,,,,,,false,,,,358521.5,358521.299999997,,358521.09999999404,,358547.433,8,400,,,
sequence,flow.Sequence,4_76,2023-11-06T15:18:16.174Z,,0,,,3941.3269999970216,completion,,,,,false,,,,358521.59999999404,358521.299999997,354563.306,354565.6999999881,354579.973,358547.433,8,400,,,
trial,html.Screen,4_77_0,2023-11-06T15:18:19.008Z,,0,2,,2808.26699998806,response,ISIC_0029581.JPG,8,ISIC_9934037.JPG,ISIC_0029581.JPG,false,1,keypress(m),500,361355.799999997,361355.6999999881,358530.766,358521.6999999881,358547.433,361380.823,8,400,28,,ISIC_9934037.JPG
break,html.Screen,4_77_1,2023-11-06T15:18:19.009Z,,0,,,NaN,,,,,,false,,,,361356.799999997,361356.5,,361356.09999999404,,361380.823,8,400,,,
break_continue,html.Screen,4_77_2,2023-11-06T15:18:19.010Z,,0,,,NaN,,,,,,false,,,,361357.1999999881,361357,,361356.89999999106,,361380.823,8,400,,,
sequence,flow.Sequence,4_77,2023-11-06T15:18:19.010Z,,0,,,2809.566999999981,completion,,,,,false,,,,361357.39999999106,361357,358530.766,358521.6999999881,358547.433,361380.823,8,400,,,
trial,html.Screen,4_78_0,2023-11-06T15:18:22.263Z,,0,2,,3229.2769999940647,response,ISIC_1881133.JPG,7,ISIC_2312766.JPG,ISIC_1881133.JPG,false,1,keypress(m),500,364610.299999997,364610.09999999404,361364.156,361357.5,361380.823,364630.888,8,400,29,,ISIC_2312766.JPG
break,html.Screen,4_78_1,2023-11-06T15:18:22.264Z,,0,,,NaN,,,,,,false,,,,364611.1999999881,364611,,364610.5,,364630.888,8,400,,,
break_continue,html.Screen,4_78_2,2023-11-06T15:18:22.264Z,,0,,,NaN,,,,,,false,,,,364611.6999999881,364611.5,,364611.299999997,,364630.888,8,400,,,
sequence,flow.Sequence,4_78,2023-11-06T15:18:22.264Z,,0,,,3230.677000000025,completion,,,,,false,,,,364611.799999997,364611.5,361364.156,361357.39999999106,361380.823,364630.888,8,400,,,
trial,html.Screen,4_79_0,2023-11-06T15:18:25.437Z,,0,2,,3152.811999988102,response,ISIC_0015046.JPG,8,ISIC_0065918.JPG,ISIC_0015046.JPG,false,1,keypress(m),500,367784.09999999404,367783.6999999881,364614.221,364612,364630.888,367797.618,8,400,30,,ISIC_0065918.JPG
break,html.Screen,4_79_1,2023-11-06T15:18:25.437Z,,0,,,NaN,,,,,,false,,,,367785,367784.799999997,,367784.299999997,,367797.618,8,400,,,
break_continue,html.Screen,4_79_2,2023-11-06T15:18:25.438Z,,0,,,NaN,,,,,,false,,,,367785.59999999404,367785.5,,367785.1999999881,,367797.618,8,400,,,
sequence,flow.Sequence,4_79,2023-11-06T15:18:25.438Z,,0,,,3154.612000000023,completion,,,,,false,,,,367785.799999997,367785.5,364614.221,364612,364630.888,367797.618,8,400,,,
trial,html.Screen,4_80_0,2023-11-06T15:18:28.258Z,,0,2,,2807.2819999910425,response,ISIC_4414811.JPG,8,ISIC_2805634.JPG,ISIC_2805634.JPG,false,0,keypress(z),500,370605.09999999404,370604.89999999106,367780.951,367786,367797.618,370614.785,8,400,31,,ISIC_4414811.JPG
break,html.Screen,4_80_1,2023-11-06T15:18:28.259Z,,0,,,NaN,,,,,,false,,,,370606.09999999404,370605.89999999106,,370605.299999997,,370614.785,8,400,,,
break_continue,html.Screen,4_80_2,2023-11-06T15:18:28.259Z,,0,,,NaN,,,,,,false,,,,370606.6999999881,370606.5,,370606.299999997,,370614.785,8,400,,,
sequence,flow.Sequence,4_80,2023-11-06T15:18:28.259Z,,0,,,2808.8819999999832,completion,,,,,false,,,,370606.799999997,370606.5,367780.951,367785.89999999106,367797.618,370614.785,8,400,,,
trial,html.Screen,4_81_0,2023-11-06T15:18:31.104Z,,0,2,,2836.9149999881047,response,ISIC_2547431.JPG,5,ISIC_0061870.JPG,ISIC_0061870.JPG,false,0,keypress(z),500,373451.89999999106,373451.6999999881,370598.118,370606.89999999106,370614.785,373464.842,8,400,32,,ISIC_2547431.JPG
break,html.Screen,4_81_1,2023-11-06T15:18:31.106Z,,0,,,NaN,,,,,,false,,,,373453,373452.799999997,,373452.09999999404,,373464.842,8,400,,,
break_continue,html.Screen,4_81_2,2023-11-06T15:18:31.106Z,,0,,,NaN,,,,,,false,,,,373453.5,373453.39999999106,,373453.09999999404,,373464.842,8,400,,,
sequence,flow.Sequence,4_81,2023-11-06T15:18:31.106Z,,0,,,2838.614999991085,completion,,,,,false,,,,373453.6999999881,373453.39999999106,370598.118,370606.89999999106,370614.785,373464.842,8,400,,,
trial,html.Screen,4_82_0,2023-11-06T15:18:34.804Z,,0,2,,3686.057999991055,response,ISIC_6792899.JPG,6,ISIC_1663144.JPG,ISIC_6792899.JPG,false,1,keypress(m),500,377151,377150.89999999106,373448.175,373453.89999999106,373464.842,377164.916,8,400,33,,ISIC_1663144.JPG
break,html.Screen,4_82_1,2023-11-06T15:18:34.805Z,,0,,,NaN,,,,,,false,,,,377152.09999999404,377151.89999999106,,377151.299999997,,377164.916,8,400,,,
break_continue,html.Screen,4_82_2,2023-11-06T15:18:34.805Z,,0,,,NaN,,,,,,false,,,,377152.59999999404,377152.5,,377152.299999997,,377164.916,8,400,,,
sequence,flow.Sequence,4_82,2023-11-06T15:18:34.805Z,,0,,,3687.657999999996,completion,,,,,false,,,,377152.799999997,377152.5,373448.175,373453.799999997,373464.842,377164.916,8,400,,,
trial,html.Screen,4_83_0,2023-11-06T15:18:38.136Z,,0,2,,3318.183999994013,response,ISIC_8651053.JPG,6,ISIC_9008095.JPG,ISIC_9008095.JPG,false,0,keypress(z),500,380483.39999999106,380483.09999999404,377148.249,377152.89999999106,377164.916,380498.842,8,400,34,,ISIC_8651053.JPG
break,html.Screen,4_83_1,2023-11-06T15:18:38.137Z,,0,,,NaN,,,,,,false,,,,380484.39999999106,380484.09999999404,,380483.59999999404,,380498.842,8,400,,,
break_continue,html.Screen,4_83_2,2023-11-06T15:18:38.138Z,,0,,,NaN,,,,,,false,,,,380485,380484.799999997,,380484.59999999404,,380498.842,8,400,,,
sequence,flow.Sequence,4_83,2023-11-06T15:18:38.138Z,,0,,,3319.883999996993,completion,,,,,false,,,,380485.1999999881,380484.799999997,377148.249,377152.89999999106,377164.916,380498.842,8,400,,,
trial,html.Screen,4_84_0,2023-11-06T15:18:40.955Z,,0,2,,2803.4579999970156,response,ISIC_0030106.JPG,6,ISIC_0005769.JPG,ISIC_0030106.JPG,false,1,keypress(m),500,383302.5,383302.299999997,380482.175,380485.299999997,380498.842,383315.565,8,400,35,,ISIC_0005769.JPG
break,html.Screen,4_84_1,2023-11-06T15:18:40.956Z,,0,,,NaN,,,,,,false,,,,383303.39999999106,383303.1999999881,,383302.6999999881,,383315.565,8,400,,,
break_continue,html.Screen,4_84_2,2023-11-06T15:18:40.957Z,,0,,,NaN,,,,,,false,,,,383303.89999999106,383303.799999997,,383303.59999999404,,383315.565,8,400,,,
sequence,flow.Sequence,4_84,2023-11-06T15:18:40.957Z,,0,,,2804.9579999970156,completion,,,,,false,,,,383304.09999999404,383303.799999997,380482.175,380485.299999997,380498.842,383315.565,8,400,,,
trial,html.Screen,4_85_0,2023-11-06T15:18:43.552Z,,0,2,,2583.534999994037,response,ISIC_4912684.JPG,8,ISIC_0014217.JPG,ISIC_0014217.JPG,false,0,keypress(z),500,385899.39999999106,385899.09999999404,383298.898,383304.299999997,383315.565,385915.617,8,400,36,,ISIC_4912684.JPG
break,html.Screen,4_85_1,2023-11-06T15:18:43.553Z,,0,,,NaN,,,,,,false,,,,385900.5,385900.1999999881,,385899.59999999404,,385915.617,8,400,,,
break_continue,html.Screen,4_85_2,2023-11-06T15:18:43.554Z,,0,,,NaN,,,,,,false,,,,385901,385900.799999997,,385900.6999999881,,385915.617,8,400,,,
sequence,flow.Sequence,4_85,2023-11-06T15:18:43.554Z,,0,,,2585.2349999970174,completion,,,,,false,,,,385901.1999999881,385900.799999997,383298.898,383304.299999997,383315.565,385915.617,8,400,,,
trial,html.Screen,4_86_0,2023-11-06T15:18:46.919Z,,0,2,,3350.282999991032,response,ISIC_3161477.JPG,6,ISIC_0010094.JPG,ISIC_0010094.JPG,false,0,keypress(z),500,389266.09999999404,389265.89999999106,385898.95,385901.299999997,385915.617,389282.849,8,400,37,,ISIC_3161477.JPG
break,html.Screen,4_86_1,2023-11-06T15:18:46.920Z,,0,,,NaN,,,,,,false,,,,389267.1999999881,389266.89999999106,,389266.39999999106,,389282.849,8,400,,,
break_continue,html.Screen,4_86_2,2023-11-06T15:18:46.921Z,,0,,,NaN,,,,,,false,,,,389267.6999999881,389267.5,,389267.39999999106,,389282.849,8,400,,,
sequence,flow.Sequence,4_86,2023-11-06T15:18:46.921Z,,0,,,3351.8829999999725,completion,,,,,false,,,,389268,389267.5,385898.95,385901.1999999881,385915.617,389282.849,8,400,,,
trial,html.Screen,4_87_0,2023-11-06T15:18:49.762Z,,0,2,,2825.6510000000126,response,ISIC_0010746.JPG,6,ISIC_4569077.JPG,ISIC_0010746.JPG,false,1,keypress(m),500,392108.59999999404,392108.5,389266.182,389268.09999999404,389282.849,392116.239,8,400,38,,ISIC_4569077.JPG
break,html.Screen,4_87_1,2023-11-06T15:18:49.762Z,,0,,,NaN,,,,,,false,,,,392109.299999997,392109.09999999404,,392108.6999999881,,392116.239,8,400,,,
break_continue,html.Screen,4_87_2,2023-11-06T15:18:49.762Z,,0,,,NaN,,,,,,false,,,,392109.59999999404,392109.5,,392109.39999999106,,392116.239,8,400,,,
sequence,flow.Sequence,4_87,2023-11-06T15:18:49.763Z,,0,,,2826.6510000000126,completion,,,,,false,,,,392109.59999999404,392109.5,389266.182,389268,389282.849,392116.239,8,400,,,
trial,html.Screen,4_88_0,2023-11-06T15:18:53.206Z,,0,2,,3436.660999991058,response,ISIC_0392105.JPG,4,ISIC_6448312.JPG,ISIC_0392105.JPG,false,1,keypress(m),500,395553.09999999404,395552.89999999106,392099.572,392109.6999999881,392116.239,395566.308,8,400,39,,ISIC_6448312.JPG
break,html.Screen,4_88_1,2023-11-06T15:18:53.207Z,,0,,,NaN,,,,,,false,,,,395554.09999999404,395553.799999997,,395553.299999997,,395566.308,8,400,,,
break_continue,html.Screen,4_88_2,2023-11-06T15:18:53.208Z,,0,,,NaN,,,,,,false,,,,395554.59999999404,395554.5,,395554.299999997,,395566.308,8,400,,,
sequence,flow.Sequence,4_88,2023-11-06T15:18:53.208Z,,0,,,3438.2609999999986,completion,,,,,false,,,,395554.799999997,395554.5,392099.572,392109.6999999881,392116.239,395566.308,8,400,,,
trial,html.Screen,4_89_0,2023-11-06T15:18:56.019Z,,0,2,,2798.9919999970007,response,ISIC_0067549.JPG,6,ISIC_7509837.JPG,ISIC_0067549.JPG,false,1,keypress(m),500,398365.5,398365.299999997,395549.641,395555,395566.308,398383.031,8,400,40,,ISIC_7509837.JPG
break,html.Screen,4_89_1,2023-11-06T15:18:56.020Z,,0,,,NaN,,,,,,false,,,,398366.59999999404,398366.299999997,,398365.799999997,,398383.031,8,400,,,
break_continue,html.Screen,4_89_2,2023-11-06T15:18:56.020Z,,0,,,NaN,,,,,,false,,,,398367.1999999881,398367,,398366.6999999881,,398383.031,8,400,,,
sequence,flow.Sequence,4_89,2023-11-06T15:18:56.020Z,,0,,,2800.691999999981,completion,,,,,false,,,,398367.299999997,398367,395549.641,395555,395566.308,398383.031,8,400,,,
trial,html.Screen,4_90_0,2023-11-06T15:19:07.526Z,,0,2,,11517.825000000012,timeout,ISIC_3148533.JPG,8,ISIC_5441247.JPG,,false,,,500,409872.89999999106,409872.59999999404,398366.364,398367.59999999404,398383.031,409900.856,8,400,41,,
break,html.Screen,4_90_1,2023-11-06T15:19:07.527Z,,0,,,NaN,,,,,,false,,,,409873.799999997,409873.5,,409873.09999999404,,409900.856,8,400,,,
break_continue,html.Screen,4_90_2,2023-11-06T15:19:07.528Z,,0,,,NaN,,,,,,false,,,,409874.299999997,409874.1999999881,,409874,,409900.856,8,400,,,
sequence,flow.Sequence,4_90,2023-11-06T15:19:07.528Z,,0,,,11491.168999988062,completion,,,,,false,,,,409874.59999999404,409874.1999999881,398366.364,398367.5,398383.031,409900.856,8,400,,,
trial,html.Screen,4_91_0,2023-11-06T15:19:11.874Z,,0,2,,4319.643999999971,response,ISIC_0054914.JPG,6,ISIC_5190484.JPG,ISIC_0054914.JPG,false,1,keypress(m),500,414220.799999997,414220.5,409884.189,409874.6999999881,409900.856,414234.276,8,400,42,,ISIC_5190484.JPG
break,html.Screen,4_91_1,2023-11-06T15:19:11.875Z,,0,,,NaN,,,,,,false,,,,414222,414221.6999999881,,414221.09999999404,,414234.276,8,400,,,
break_continue,html.Screen,4_91_2,2023-11-06T15:19:11.876Z,,0,,,NaN,,,,,,false,,,,414222.5,414222.39999999106,,414222.09999999404,,414234.276,8,400,,,
sequence,flow.Sequence,4_91,2023-11-06T15:19:11.876Z,,0,,,4321.54399999103,completion,,,,,false,,,,414222.6999999881,414222.39999999106,409884.189,409874.6999999881,409900.856,414234.276,8,400,,,
trial,html.Screen,4_92_0,2023-11-06T15:19:18.473Z,,0,2,,6585.223999999987,response,ISIC_7875959.JPG,7,ISIC_3777798.JPG,ISIC_3777798.JPG,false,0,keypress(z),500,420819.6999999881,420819.5,414217.609,414222.799999997,414234.276,420834.995,8,400,43,,ISIC_7875959.JPG
break,html.Screen,4_92_1,2023-11-06T15:19:18.474Z,,0,,,NaN,,,,,,false,,,,420820.6999999881,420820.5,,420819.89999999106,,420834.995,8,400,,,
break_continue,html.Screen,4_92_2,2023-11-06T15:19:18.475Z,,0,,,NaN,,,,,,false,,,,420821.09999999404,420821.09999999404,,420820.89999999106,,420834.995,8,400,,,
sequence,flow.Sequence,4_92,2023-11-06T15:19:18.475Z,,0,,,6586.823999994027,completion,,,,,false,,,,420821.299999997,420821.09999999404,414217.609,414222.799999997,414234.276,420834.995,8,400,,,
trial,html.Screen,4_93_0,2023-11-06T15:19:21.760Z,,0,2,,3271.104999994044,response,ISIC_0072393.JPG,9,ISIC_0026302.JPG,ISIC_0072393.JPG,false,1,keypress(m),500,424106.299999997,424106.09999999404,420818.328,420821.39999999106,420834.995,424118.394,8,400,44,,ISIC_0026302.JPG
break,html.Screen,4_93_1,2023-11-06T15:19:21.761Z,,0,,,NaN,,,,,,false,,,,424107.39999999106,424107.09999999404,,424106.5,,424118.394,8,400,,,
break_continue,html.Screen,4_93_2,2023-11-06T15:19:21.761Z,,0,,,NaN,,,,,,false,,,,424107.89999999106,424107.799999997,,424107.5,,424118.394,8,400,,,
sequence,flow.Sequence,4_93,2023-11-06T15:19:21.762Z,,0,,,3272.8049999970244,completion,,,,,false,,,,424108.09999999404,424107.799999997,420818.328,420821.299999997,420834.995,424118.394,8,400,,,
trial,html.Screen,4_94_0,2023-11-06T15:19:29.639Z,,0,2,,7866.405999997049,response,ISIC_2051278.JPG,7,ISIC_0010754.JPG,ISIC_0010754.JPG,false,0,keypress(z),500,431985,431984.799999997,424101.727,424108.299999997,424118.394,432002.365,8,400,45,,ISIC_2051278.JPG
break,html.Screen,4_94_1,2023-11-06T15:19:29.640Z,,0,,,NaN,,,,,,false,,,,431986.09999999404,431985.89999999106,,431985.1999999881,,432002.365,8,400,,,
break_continue,html.Screen,4_94_2,2023-11-06T15:19:29.640Z,,0,,,NaN,,,,,,false,,,,431986.6999999881,431986.5,,431986.299999997,,432002.365,8,400,,,
sequence,flow.Sequence,4_94,2023-11-06T15:19:29.640Z,,0,,,7868.106000000029,completion,,,,,false,,,,431986.799999997,431986.5,424101.727,424108.1999999881,424118.394,432002.365,8,400,,,
trial,html.Screen,4_95_0,2023-11-06T15:19:33.470Z,,0,2,,3813.934999997029,response,ISIC_6471212.JPG,7,ISIC_9226193.JPG,ISIC_6471212.JPG,false,1,keypress(m),500,435816.5,435816.299999997,431985.698,431987,432002.365,435819.108,8,400,46,,ISIC_9226193.JPG
break,html.Screen,4_95_1,2023-11-06T15:19:33.471Z,,0,,,NaN,,,,,,false,,,,435817.59999999404,435817.299999997,,435816.6999999881,,435819.108,8,400,,,
break_continue,html.Screen,4_95_2,2023-11-06T15:19:33.473Z,,0,,,NaN,,,,,,false,,,,435819.39999999106,435819.299999997,,435819,,435819.108,8,400,,,
sequence,flow.Sequence,4_95,2023-11-06T15:19:33.473Z,,0,,,3816.934999997029,completion,,,,,false,,,,435819.6999999881,435819.299999997,431985.698,431986.89999999106,432002.365,435819.108,8,400,,,
trial,html.Screen,4_96_0,2023-11-06T15:19:37.066Z,,0,2,,3592.6919999970123,response,ISIC_0010775.JPG,8,ISIC_0054229.JPG,ISIC_0054229.JPG,false,0,keypress(z),500,439412.09999999404,439411.799999997,435802.441,435819.799999997,435819.108,439419.18,8,400,47,,ISIC_0010775.JPG
break,html.Screen,4_96_1,2023-11-06T15:19:37.067Z,,0,,,NaN,,,,,,false,,,,439413.09999999404,439412.89999999106,,439412.299999997,,439419.18,8,400,,,
break_continue,html.Screen,4_96_2,2023-11-06T15:19:37.068Z,,0,,,NaN,,,,,,false,,,,439413.6999999881,439413.59999999404,,439413.299999997,,439419.18,8,400,,,
sequence,flow.Sequence,4_96,2023-11-06T15:19:37.068Z,,0,,,3594.491999994032,completion,,,,,false,,,,439413.89999999106,439413.59999999404,435802.441,435819.799999997,435819.108,439419.18,8,400,,,
trial,html.Screen,4_97_0,2023-11-06T15:19:40.307Z,,0,2,,3233.820000000007,response,ISIC_4691689.JPG,8,ISIC_1473522.JPG,ISIC_1473522.JPG,false,0,keypress(z),500,442653.1999999881,442653,439402.513,439414.09999999404,439419.18,442669.753,8,400,48,,ISIC_4691689.JPG
break,html.Screen,4_97_1,2023-11-06T15:19:40.308Z,,0,,,NaN,,,,,,false,,,,442653.799999997,442653.59999999404,,442653.1999999881,,442669.753,8,400,,,
break_continue,html.Screen,4_97_2,2023-11-06T15:19:40.308Z,,0,,,NaN,,,,,,false,,,,442654.09999999404,442654,,442653.89999999106,,442669.753,8,400,,,
sequence,flow.Sequence,4_97,2023-11-06T15:19:40.308Z,,0,,,3234.820000000007,completion,,,,,false,,,,442654.299999997,442654,439402.513,439414,439419.18,442669.753,8,400,,,
trial,html.Screen,4_98_0,2023-11-06T15:19:44.372Z,,0,2,,4048.146999991033,response,ISIC_2844085.JPG,8,ISIC_0011365.JPG,ISIC_0011365.JPG,false,0,keypress(z),500,446718.09999999404,446717.89999999106,442653.086,442654.299999997,442669.753,446719.834,8,400,49,,ISIC_2844085.JPG
break,html.Screen,4_98_1,2023-11-06T15:19:44.373Z,,0,,,NaN,,,,,,false,,,,446719.09999999404,446718.799999997,,446718.299999997,,446719.834,8,400,,,
break_continue,html.Screen,4_98_2,2023-11-06T15:19:44.374Z,,0,,,NaN,,,,,,false,,,,446719.59999999404,446719.39999999106,,446719.299999997,,446719.834,8,400,,,
sequence,flow.Sequence,4_98,2023-11-06T15:19:44.374Z,,0,,,4049.646999991033,completion,,,,,false,,,,446719.799999997,446719.39999999106,442653.086,442654.299999997,442669.753,446719.834,8,400,,,
trial,html.Screen,4_99_0,2023-11-06T15:19:47.268Z,,0,2,,2893.6660000000265,response,ISIC_0013204.JPG,6,ISIC_0033213.JPG,ISIC_0013204.JPG,false,1,keypress(m),500,449613.799999997,449613.5,446703.167,446719.89999999106,446719.834,449619.892,8,400,50,,ISIC_0033213.JPG
break,html.Screen,4_99_1,2023-11-06T15:19:57.261Z,,0,,,10000.753000000026,timeout,,,,,false,,,,459607.09999999404,459603.978,449603.225,449613.89999999106,449619.892,459620.645,8,400,,,
break_continue,html.Screen,4_99_2,2023-11-06T15:19:59.424Z,,0,,,2129.3549999999814,response,,,,,false,continue,keypress(Space),,461769.6999999881,461750,459603.978,459607.1999999881,459620.645,461770.688,8,400,,,
sequence,flow.Sequence,4_99,2023-11-06T15:19:59.424Z,,0,,,15030.166000000027,completion,,,,,false,,,,461769.799999997,461750,446703.167,446719.89999999106,446719.834,461770.688,8,400,,,
trial,html.Screen,4_100_0,2023-11-06T15:20:02.355Z,,0,3,,2929.8119999999763,response,ISIC_0015208.JPG,8,ISIC_2800198.JPG,ISIC_0015208.JPG,false,1,keypress(m),500,464700.6999999881,464700.5,461754.021,461769.89999999106,461770.688,464704.583,8,400,1,,ISIC_2800198.JPG
break,html.Screen,4_100_1,2023-11-06T15:20:02.356Z,,0,,,NaN,,,,,,false,,,,464701.799999997,464701.5,,464700.89999999106,,464704.583,8,400,,,
break_continue,html.Screen,4_100_2,2023-11-06T15:20:02.357Z,,0,,,NaN,,,,,,false,,,,464702.299999997,464702.1999999881,,464701.89999999106,,464704.583,8,400,,,
sequence,flow.Sequence,4_100,2023-11-06T15:20:02.357Z,,0,,,2931.5119999880553,completion,,,,,false,,,,464702.5,464702.1999999881,461754.021,461769.799999997,461770.688,464704.583,8,400,,,
trial,html.Screen,4_101_0,2023-11-06T15:20:05.127Z,,0,3,,2767.417000000016,response,ISIC_0015411.JPG,7,ISIC_1431777.JPG,ISIC_1431777.JPG,false,0,keypress(z),500,467472.299999997,467472,464687.916,464702.59999999404,464704.583,467487.972,8,400,2,,ISIC_0015411.JPG
break,html.Screen,4_101_1,2023-11-06T15:20:05.128Z,,0,,,NaN,,,,,,false,,,,467473.39999999106,467473.09999999404,,467472.5,,467487.972,8,400,,,
break_continue,html.Screen,4_101_2,2023-11-06T15:20:05.128Z,,0,,,NaN,,,,,,false,,,,467473.89999999106,467473.6999999881,,467473.5,,467487.972,8,400,,,
sequence,flow.Sequence,4_101,2023-11-06T15:20:05.128Z,,0,,,2769.116999988095,completion,,,,,false,,,,467474.09999999404,467473.6999999881,464687.916,464702.59999999404,464704.583,467487.972,8,400,,,
trial,html.Screen,4_102_0,2023-11-06T15:20:07.979Z,,0,3,,2835.9279999910505,response,ISIC_6604862.JPG,5,ISIC_2445765.JPG,ISIC_2445765.JPG,false,0,keypress(z),500,470324.09999999404,470323.89999999106,467471.305,467474.1999999881,467487.972,470338.029,8,400,3,,ISIC_6604862.JPG
break,html.Screen,4_102_1,2023-11-06T15:20:07.980Z,,0,,,NaN,,,,,,false,,,,470325.1999999881,470325,,470324.299999997,,470338.029,8,400,,,
break_continue,html.Screen,4_102_2,2023-11-06T15:20:07.980Z,,0,,,NaN,,,,,,false,,,,470325.799999997,470325.59999999404,,470325.39999999106,,470338.029,8,400,,,
sequence,flow.Sequence,4_102,2023-11-06T15:20:07.980Z,,0,,,2837.6279999940307,completion,,,,,false,,,,470325.89999999106,470325.59999999404,467471.305,467474.1999999881,467487.972,470338.029,8,400,,,
trial,html.Screen,4_103_0,2023-11-06T15:20:11.091Z,,0,3,,3098.370999991079,response,ISIC_0005248.JPG,9,ISIC_3663705.JPG,ISIC_3663705.JPG,false,0,keypress(z),500,473436.6999999881,473436.39999999106,470321.362,470326.09999999404,470338.029,473438.564,8,400,4,,ISIC_0005248.JPG
break,html.Screen,4_103_1,2023-11-06T15:20:11.092Z,,0,,,NaN,,,,,,false,,,,473437.6999999881,473437.5,,473436.799999997,,473438.564,8,400,,,
break_continue,html.Screen,4_103_2,2023-11-06T15:20:11.093Z,,0,,,NaN,,,,,,false,,,,473438.39999999106,473438.1999999881,,473438,,473438.564,8,400,,,
sequence,flow.Sequence,4_103,2023-11-06T15:20:11.093Z,,0,,,3100.1709999880986,completion,,,,,false,,,,473438.59999999404,473438.1999999881,470321.362,470326,470338.029,473438.564,8,400,,,
trial,html.Screen,4_104_0,2023-11-06T15:20:13.733Z,,0,3,,2639.8359999910463,response,ISIC_0060341.JPG,8,ISIC_5778927.JPG,ISIC_0060341.JPG,false,1,keypress(m),500,476078.5,476078.39999999106,473421.897,473438.799999997,473438.564,476088.617,8,400,5,,ISIC_5778927.JPG
break,html.Screen,4_104_1,2023-11-06T15:20:13.734Z,,0,,,NaN,,,,,,false,,,,476079.5,476079.299999997,,476078.6999999881,,476088.617,8,400,,,
break_continue,html.Screen,4_104_2,2023-11-06T15:20:13.735Z,,0,,,NaN,,,,,,false,,,,476080.09999999404,476079.89999999106,,476079.6999999881,,476088.617,8,400,,,
sequence,flow.Sequence,4_104,2023-11-06T15:20:13.735Z,,0,,,2641.3359999910463,completion,,,,,false,,,,476080.299999997,476079.89999999106,473421.897,473438.6999999881,473438.564,476088.617,8,400,,,
trial,html.Screen,4_105_0,2023-11-06T15:20:16.357Z,,0,3,,2613.3829999999725,response,ISIC_0071133.JPG,7,ISIC_8159779.JPG,ISIC_0071133.JPG,false,1,keypress(m),500,478702.1999999881,478702,476071.95,476080.39999999106,476088.617,478705.336,8,400,6,,ISIC_8159779.JPG
break,html.Screen,4_105_1,2023-11-06T15:20:16.358Z,,0,,,NaN,,,,,,false,,,,478703.1999999881,478703,,478702.39999999106,,478705.336,8,400,,,
break_continue,html.Screen,4_105_2,2023-11-06T15:20:16.358Z,,0,,,NaN,,,,,,false,,,,478703.799999997,478703.59999999404,,478703.39999999106,,478705.336,8,400,,,
sequence,flow.Sequence,4_105,2023-11-06T15:20:16.359Z,,0,,,2614.982999994012,completion,,,,,false,,,,478704,478703.59999999404,476071.95,476080.299999997,476088.617,478705.336,8,400,,,
trial,html.Screen,4_106_0,2023-11-06T15:20:19.499Z,,0,3,,3138.7639999940293,response,ISIC_0060978.JPG,6,ISIC_3009493.JPG,ISIC_3009493.JPG,false,0,keypress(z),500,481844.299999997,481844.09999999404,478688.669,478704.1999999881,478705.336,481855.399,8,400,7,,ISIC_0060978.JPG
break,html.Screen,4_106_1,2023-11-06T15:20:19.500Z,,0,,,NaN,,,,,,false,,,,481845.299999997,481845,,481844.39999999106,,481855.399,8,400,,,
break_continue,html.Screen,4_106_2,2023-11-06T15:20:19.500Z,,0,,,NaN,,,,,,false,,,,481845.799999997,481845.59999999404,,481845.299999997,,481855.399,8,400,,,
sequence,flow.Sequence,4_106,2023-11-06T15:20:19.501Z,,0,,,3140.2639999940293,completion,,,,,false,,,,481846,481845.59999999404,478688.669,478704.09999999404,478705.336,481855.399,8,400,,,
trial,html.Screen,4_107_0,2023-11-06T15:20:22.655Z,,0,3,,3144.601000000024,response,ISIC_0003767.JPG,7,ISIC_0064072.JPG,ISIC_0064072.JPG,false,0,keypress(z),500,485000.1999999881,485000,481838.732,481846.09999999404,481855.399,485005.971,8,400,8,,ISIC_0003767.JPG
break,html.Screen,4_107_1,2023-11-06T15:20:22.656Z,,0,,,NaN,,,,,,false,,,,485001.299999997,485001,,485000.39999999106,,485005.971,8,400,,,
break_continue,html.Screen,4_107_2,2023-11-06T15:20:22.656Z,,0,,,NaN,,,,,,false,,,,485001.799999997,485001.59999999404,,485001.5,,485005.971,8,400,,,
sequence,flow.Sequence,4_107,2023-11-06T15:20:22.657Z,,0,,,3146.2009999940637,completion,,,,,false,,,,485002,485001.59999999404,481838.732,481846.09999999404,481855.399,485005.971,8,400,,,
trial,html.Screen,4_108_0,2023-11-06T15:20:25.174Z,,0,3,,2513.2289999880595,response,ISIC_0032828.JPG,6,ISIC_1569775.JPG,ISIC_0032828.JPG,false,1,keypress(m),500,487519.39999999106,487519.1999999881,484989.304,485002.1999999881,485005.971,487522.688,8,400,9,,ISIC_1569775.JPG
break,html.Screen,4_108_1,2023-11-06T15:20:25.175Z,,0,,,NaN,,,,,,false,,,,487520.39999999106,487520.1999999881,,487519.59999999404,,487522.688,8,400,,,
break_continue,html.Screen,4_108_2,2023-11-06T15:20:25.176Z,,0,,,NaN,,,,,,false,,,,487520.89999999106,487520.6999999881,,487520.5,,487522.688,8,400,,,
sequence,flow.Sequence,4_108,2023-11-06T15:20:25.176Z,,0,,,2514.7289999880595,completion,,,,,false,,,,487521.1999999881,487520.6999999881,484989.304,485002.1999999881,485005.971,487522.688,8,400,,,
trial,html.Screen,4_109_0,2023-11-06T15:20:27.885Z,,0,3,,2707.911999994016,response,ISIC_2487188.JPG,8,ISIC_6948604.JPG,ISIC_6948604.JPG,false,0,keypress(z),500,490230.6999999881,490230.59999999404,487506.021,487521.299999997,487522.688,490239.409,8,400,10,,ISIC_2487188.JPG
break,html.Screen,4_109_1,2023-11-06T15:20:27.886Z,,0,,,NaN,,,,,,false,,,,490231.6999999881,490231.5,,490230.89999999106,,490239.409,8,400,,,
break_continue,html.Screen,4_109_2,2023-11-06T15:20:27.887Z,,0,,,NaN,,,,,,false,,,,490232.1999999881,490232.09999999404,,490231.89999999106,,490239.409,8,400,,,
sequence,flow.Sequence,4_109,2023-11-06T15:20:27.887Z,,0,,,2709.411999994016,completion,,,,,false,,,,490232.39999999106,490232.09999999404,487506.021,487521.1999999881,487522.688,490239.409,8,400,,,
trial,html.Screen,4_110_0,2023-11-06T15:20:32.821Z,,0,3,,4926.190999994054,response,ISIC_0060955.JPG,9,ISIC_2489504.JPG,ISIC_0060955.JPG,false,1,keypress(m),500,495165.799999997,495165.59999999404,490222.742,490232.59999999404,490239.409,495173.486,8,400,11,,ISIC_2489504.JPG
break,html.Screen,4_110_1,2023-11-06T15:20:32.822Z,,0,,,NaN,,,,,,false,,,,495166.799999997,495166.59999999404,,495166,,495173.486,8,400,,,
break_continue,html.Screen,4_110_2,2023-11-06T15:20:32.822Z,,0,,,NaN,,,,,,false,,,,495167.299999997,495167.09999999404,,495166.89999999106,,495173.486,8,400,,,
sequence,flow.Sequence,4_110,2023-11-06T15:20:32.822Z,,0,,,4927.690999994054,completion,,,,,false,,,,495167.5,495167.09999999404,490222.742,490232.59999999404,490239.409,495173.486,8,400,,,
trial,html.Screen,4_111_0,2023-11-06T15:20:35.596Z,,0,3,,2766.913999991084,response,ISIC_9090822.JPG,8,ISIC_0014994.JPG,ISIC_9090822.JPG,false,1,keypress(m),500,497940.59999999404,497940.39999999106,495156.819,495167.59999999404,495173.486,497956.875,8,400,12,,ISIC_0014994.JPG
break,html.Screen,4_111_1,2023-11-06T15:20:35.597Z,,0,,,NaN,,,,,,false,,,,497941.799999997,497941.5,,497940.799999997,,497956.875,8,400,,,
break_continue,html.Screen,4_111_2,2023-11-06T15:20:35.597Z,,0,,,NaN,,,,,,false,,,,497942.299999997,497942.1999999881,,497941.89999999106,,497956.875,8,400,,,
sequence,flow.Sequence,4_111,2023-11-06T15:20:35.597Z,,0,,,2768.7139999881038,completion,,,,,false,,,,497942.5,497942.1999999881,495156.819,495167.59999999404,495173.486,497956.875,8,400,,,
trial,html.Screen,4_112_0,2023-11-06T15:20:38.748Z,,0,3,,3136.324999988079,response,ISIC_0001140.JPG,7,ISIC_2768150.JPG,ISIC_2768150.JPG,false,0,keypress(z),500,501093.39999999106,501093.1999999881,497940.208,497942.59999999404,497956.875,501106.938,8,400,13,,ISIC_0001140.JPG
break,html.Screen,4_112_1,2023-11-06T15:20:38.749Z,,0,,,NaN,,,,,,false,,,,501094.39999999106,501094.1999999881,,501093.59999999404,,501106.938,8,400,,,
break_continue,html.Screen,4_112_2,2023-11-06T15:20:38.750Z,,0,,,NaN,,,,,,false,,,,501094.89999999106,501094.6999999881,,501094.5,,501106.938,8,400,,,
sequence,flow.Sequence,4_112,2023-11-06T15:20:38.750Z,,0,,,3137.824999988079,completion,,,,,false,,,,501095.09999999404,501094.6999999881,497940.208,497942.59999999404,497956.875,501106.938,8,400,,,
trial,html.Screen,4_113_0,2023-11-06T15:20:41.425Z,,0,3,,2662.4619999910356,response,ISIC_9779803.JPG,6,ISIC_7888517.JPG,ISIC_9779803.JPG,false,1,keypress(m),500,503769.59999999404,503769.39999999106,501090.271,501095.1999999881,501106.938,503773.658,8,400,14,,ISIC_7888517.JPG
break,html.Screen,4_113_1,2023-11-06T15:20:41.426Z,,0,,,NaN,,,,,,false,,,,503770.59999999404,503770.299999997,,503769.6999999881,,503773.658,8,400,,,
break_continue,html.Screen,4_113_2,2023-11-06T15:20:41.426Z,,0,,,NaN,,,,,,false,,,,503771.09999999404,503770.89999999106,,503770.799999997,,503773.658,8,400,,,
sequence,flow.Sequence,4_113,2023-11-06T15:20:41.426Z,,0,,,2663.9619999910356,completion,,,,,false,,,,503771.299999997,503770.89999999106,501090.271,501095.1999999881,501106.938,503773.658,8,400,,,
trial,html.Screen,4_114_0,2023-11-06T15:20:44.124Z,,0,3,,2694.9419999940437,response,ISIC_5831880.JPG,7,ISIC_0033268.JPG,ISIC_0033268.JPG,false,0,keypress(z),500,506468.89999999106,506468.59999999404,503756.991,503771.39999999106,503773.658,506474.208,8,400,15,,ISIC_5831880.JPG
break,html.Screen,4_114_1,2023-11-06T15:20:44.125Z,,0,,,NaN,,,,,,false,,,,506469.799999997,506469.59999999404,,506469,,506474.208,8,400,,,
break_continue,html.Screen,4_114_2,2023-11-06T15:20:44.125Z,,0,,,NaN,,,,,,false,,,,506470.39999999106,506470.1999999881,,506470,,506474.208,8,400,,,
sequence,flow.Sequence,4_114,2023-11-06T15:20:44.126Z,,0,,,2696.5419999880833,completion,,,,,false,,,,506470.59999999404,506470.1999999881,503756.991,503771.39999999106,503773.658,506474.208,8,400,,,
trial,html.Screen,4_115_0,2023-11-06T15:20:47.346Z,,0,3,,3216.191999991075,response,ISIC_6284312.JPG,7,ISIC_0057669.JPG,ISIC_6284312.JPG,false,1,keypress(m),500,509690.6999999881,509690.39999999106,506457.541,506470.6999999881,506474.208,509707.606,8,400,16,,ISIC_0057669.JPG
break,html.Screen,4_115_1,2023-11-06T15:20:47.347Z,,0,,,NaN,,,,,,false,,,,509691.6999999881,509691.39999999106,,509690.799999997,,509707.606,8,400,,,
break_continue,html.Screen,4_115_2,2023-11-06T15:20:47.347Z,,0,,,NaN,,,,,,false,,,,509692.1999999881,509692.09999999404,,509691.799999997,,509707.606,8,400,,,
sequence,flow.Sequence,4_115,2023-11-06T15:20:47.348Z,,0,,,3217.8919999940554,completion,,,,,false,,,,509692.39999999106,509692.09999999404,506457.541,506470.59999999404,506474.208,509707.606,8,400,,,
trial,html.Screen,4_116_0,2023-11-06T15:20:53.380Z,,0,3,,6016.493999994011,response,ISIC_0070948.JPG,7,ISIC_0060032.JPG,ISIC_0060032.JPG,false,0,keypress(z),500,515724.299999997,515724.09999999404,509690.939,509692.59999999404,509707.606,515741.559,8,400,17,,ISIC_0070948.JPG
break,html.Screen,4_116_1,2023-11-06T15:20:53.381Z,,0,,,NaN,,,,,,false,,,,515725.39999999106,515725,,515724.5,,515741.559,8,400,,,
break_continue,html.Screen,4_116_2,2023-11-06T15:20:53.381Z,,0,,,NaN,,,,,,false,,,,515725.89999999106,515725.6999999881,,515725.5,,515741.559,8,400,,,
sequence,flow.Sequence,4_116,2023-11-06T15:20:53.381Z,,0,,,6018.09399998805,completion,,,,,false,,,,515726.09999999404,515725.6999999881,509690.939,509692.5,509707.606,515741.559,8,400,,,
trial,html.Screen,4_117_0,2023-11-06T15:20:56.403Z,,0,3,,3005.9409999999916,response,ISIC_0069351.JPG,8,ISIC_0060700.JPG,ISIC_0069351.JPG,false,1,keypress(m),500,518747.6999999881,518747.5,515724.892,515726.1999999881,515741.559,518758.286,8,400,18,,ISIC_0060700.JPG
break,html.Screen,4_117_1,2023-11-06T15:20:56.404Z,,0,,,NaN,,,,,,false,,,,518748.6999999881,518748.5,,518747.89999999106,,518758.286,8,400,,,
break_continue,html.Screen,4_117_2,2023-11-06T15:20:56.404Z,,0,,,NaN,,,,,,false,,,,518749.1999999881,518749,,518748.89999999106,,518758.286,8,400,,,
sequence,flow.Sequence,4_117,2023-11-06T15:20:56.405Z,,0,,,3007.4409999999916,completion,,,,,false,,,,518749.39999999106,518749,515724.892,515726.09999999404,515741.559,518758.286,8,400,,,
trial,html.Screen,4_118_0,2023-11-06T15:20:59.740Z,,0,3,,3325.713999999978,response,ISIC_7320371.JPG,5,ISIC_0033278.JPG,ISIC_7320371.JPG,false,1,keypress(m),500,522084.1999999881,522084,518741.619,518749.5,518758.286,522091.686,8,400,19,,ISIC_0033278.JPG
break,html.Screen,4_118_1,2023-11-06T15:20:59.741Z,,0,,,NaN,,,,,,false,,,,522085.1999999881,522084.89999999106,,522084.39999999106,,522091.686,8,400,,,
break_continue,html.Screen,4_118_2,2023-11-06T15:20:59.741Z,,0,,,NaN,,,,,,false,,,,522085.6999999881,522085.59999999404,,522085.39999999106,,522091.686,8,400,,,
sequence,flow.Sequence,4_118,2023-11-06T15:20:59.741Z,,0,,,3327.3139999940176,completion,,,,,false,,,,522086,522085.59999999404,518741.619,518749.5,518758.286,522091.686,8,400,,,
trial,html.Screen,4_119_0,2023-11-06T15:21:02.613Z,,0,3,,2865.4139999940526,response,ISIC_2868199.JPG,6,ISIC_6970607.JPG,ISIC_2868199.JPG,false,1,keypress(m),500,524957.3999999911,524957.099999994,522075.019,522086.09999999404,522091.686,524958.41,8,400,20,,ISIC_6970607.JPG
break,html.Screen,4_119_1,2023-11-06T15:21:02.614Z,,0,,,NaN,,,,,,false,,,,524958.5,524958.099999994,,524957.5,,524958.41,8,400,,,
break_continue,html.Screen,4_119_2,2023-11-06T15:21:02.614Z,,0,,,NaN,,,,,,false,,,,524958.8999999911,524958.799999997,,524958.5,,524958.41,8,400,,,
sequence,flow.Sequence,4_119,2023-11-06T15:21:02.614Z,,0,,,2867.113999997033,completion,,,,,false,,,,524959.099999994,524958.799999997,522075.019,522086,522091.686,524958.41,8,400,,,
trial,html.Screen,4_120_0,2023-11-06T15:21:05.846Z,,0,3,,3231.9899999910267,response,ISIC_6292348.JPG,9,ISIC_0014694.JPG,ISIC_6292348.JPG,false,1,keypress(m),500,528190.599999994,528190.3999999911,524941.743,524959.1999999881,524958.41,528192.339,8,400,21,,ISIC_0014694.JPG
break,html.Screen,4_120_1,2023-11-06T15:21:05.847Z,,0,,,NaN,,,,,,false,,,,528191.599999994,528191.299999997,,528190.799999997,,528192.339,8,400,,,
break_continue,html.Screen,4_120_2,2023-11-06T15:21:05.848Z,,0,,,NaN,,,,,,false,,,,528192.099999994,528192,,528191.6999999881,,528192.339,8,400,,,
sequence,flow.Sequence,4_120,2023-11-06T15:21:05.848Z,,0,,,3233.5899999999674,completion,,,,,false,,,,528192.299999997,528192,524941.743,524959.1999999881,524958.41,528192.339,8,400,,,
trial,html.Screen,4_121_0,2023-11-06T15:21:08.557Z,,0,3,,2708.9609999969834,response,ISIC_3009877.JPG,6,ISIC_0025219.JPG,ISIC_3009877.JPG,false,1,keypress(m),500,530901.5,530901.299999997,528175.672,528194,528192.339,530909.06,8,400,22,,ISIC_0025219.JPG
break,html.Screen,4_121_1,2023-11-06T15:21:08.558Z,,0,,,NaN,,,,,,false,,,,530902.599999994,530902.299999997,,530901.6999999881,,530909.06,8,400,,,
break_continue,html.Screen,4_121_2,2023-11-06T15:21:08.559Z,,0,,,NaN,,,,,,false,,,,530903.1999999881,530902.8999999911,,530902.6999999881,,530909.06,8,400,,,
sequence,flow.Sequence,4_121,2023-11-06T15:21:08.559Z,,0,,,2710.560999991023,completion,,,,,false,,,,530903.299999997,530902.8999999911,528175.672,528193.799999997,528192.339,530909.06,8,400,,,
trial,html.Screen,4_122_0,2023-11-06T15:21:15.358Z,,0,3,,6792.739999996964,response,ISIC_0066626.JPG,7,ISIC_5127759.JPG,ISIC_5127759.JPG,false,0,keypress(z),500,537702.099999994,537701.799999997,530892.393,530903.5,530909.06,537709.741,8,400,23,,ISIC_0066626.JPG
break,html.Screen,4_122_1,2023-11-06T15:21:15.359Z,,0,,,NaN,,,,,,false,,,,537703,537702.799999997,,537702.1999999881,,537709.741,8,400,,,
break_continue,html.Screen,4_122_2,2023-11-06T15:21:15.359Z,,0,,,NaN,,,,,,false,,,,537703.5,537703.3999999911,,537703.1999999881,,537709.741,8,400,,,
sequence,flow.Sequence,4_122,2023-11-06T15:21:15.359Z,,0,,,6794.339999991003,completion,,,,,false,,,,537703.799999997,537703.3999999911,530892.393,530903.3999999911,530909.06,537709.741,8,400,,,
trial,html.Screen,4_123_0,2023-11-06T15:21:22.165Z,,0,3,,6799.058999996982,response,ISIC_0058125.JPG,9,ISIC_3376976.JPG,ISIC_0058125.JPG,false,1,keypress(m),500,544509.099999994,544508.799999997,537693.074,537703.8999999911,537709.741,544526.544,8,400,24,,ISIC_3376976.JPG
break,html.Screen,4_123_1,2023-11-06T15:21:22.166Z,,0,,,NaN,,,,,,false,,,,544510.099999994,544509.799999997,,544509.299999997,,544526.544,8,400,,,
break_continue,html.Screen,4_123_2,2023-11-06T15:21:22.166Z,,0,,,NaN,,,,,,false,,,,544510.6999999881,544510.5,,544510.1999999881,,544526.544,8,400,,,
sequence,flow.Sequence,4_123,2023-11-06T15:21:22.167Z,,0,,,6800.758999999962,completion,,,,,false,,,,544510.799999997,544510.5,537693.074,537703.8999999911,537709.741,544526.544,8,400,,,
trial,html.Screen,4_124_0,2023-11-06T15:21:25.497Z,,0,3,,3314.2559999970254,response,ISIC_0029933.JPG,7,ISIC_8510848.JPG,ISIC_8510848.JPG,false,0,keypress(z),500,547841,547840.799999997,544509.877,544510.8999999911,544526.544,547843.776,8,400,25,,ISIC_0029933.JPG
break,html.Screen,4_124_1,2023-11-06T15:21:25.498Z,,0,,,NaN,,,,,,false,,,,547842,547841.799999997,,547841.1999999881,,547843.776,8,400,,,
break_continue,html.Screen,4_124_2,2023-11-06T15:21:25.498Z,,0,,,NaN,,,,,,false,,,,547842.5,547842.299999997,,547842.1999999881,,547843.776,8,400,,,
sequence,flow.Sequence,4_124,2023-11-06T15:21:25.498Z,,0,,,3315.7559999970254,completion,,,,,false,,,,547842.599999994,547842.299999997,544509.877,544510.8999999911,544526.544,547843.776,8,400,,,
trial,html.Screen,4_125_0,2023-11-06T15:21:28.719Z,,0,3,,3218.823999994085,response,ISIC_2620357.JPG,7,ISIC_4701063.JPG,ISIC_4701063.JPG,false,0,keypress(z),500,551062.799999997,551062.599999994,547827.109,547842.799999997,547843.776,551077.174,8,400,26,,ISIC_2620357.JPG
break,html.Screen,4_125_1,2023-11-06T15:21:28.720Z,,0,,,NaN,,,,,,false,,,,551063.6999999881,551063.5,,551063,,551077.174,8,400,,,
break_continue,html.Screen,4_125_2,2023-11-06T15:21:28.720Z,,0,,,NaN,,,,,,false,,,,551064.1999999881,551064.099999994,,551063.8999999911,,551077.174,8,400,,,
sequence,flow.Sequence,4_125,2023-11-06T15:21:28.720Z,,0,,,3220.323999994085,completion,,,,,false,,,,551064.3999999911,551064.099999994,547827.109,547842.6999999881,547843.776,551077.174,8,400,,,
