sender,sender_type,sender_id,timestamp,meta,,blockNo,condition,duration,ended_on,img_left,img_reveal,img_right,loser,practice,response,response_action,selection_duration,time_commit,time_end,time_render,time_run,time_show,time_switch,total_blocks,total_trials,trialNo,url,winner
informed_consent,html.Screen,0,2023-10-30T21:28:26.699Z,"{""labjs_version"":""20.2.4"",""labjs_build"":{""flavor"":""production"",""commit"":""f5b4a49f956347addd546a832a3327688c2c0fef""},""location"":""https://run.pavlovia.org/MurrayBennett/melanoma-2afc/?participant=65642&platform=sona"",""userAgent"":""Mozilla/5.0 (Macintosh; Intel Mac OS X 10_15_7) AppleWebKit/537.36 (KHTML, like Gecko) Chrome/118.0.0.0 Safari/537.36"",""platform"":""MacIntel"",""language"":""en-US"",""locale"":""en-US"",""timeZone"":""America/Chicago"",""timezoneOffset"":300,""screen_width"":1280,""screen_height"":800,""scroll_width"":1280,""scroll_height"":667,""window_innerWidth"":1280,""window_innerHeight"":715,""devicePixelRatio"":2}",,,,12728.22999999404,response,,,,,,consent,click button,,15383.90000000596,15373.09999999404,1811.17,2636.4000000059605,2644.87,15384.146,,,,"{""participant"":""65642"",""platform"":""sona""}",
Welcome,html.Screen,1,2023-10-30T21:28:42.802Z,,,,colourful,16087.953999994039,response,,,,,,continue,click button,,31486,31472.09999999404,15367.472,15384.09999999404,15384.146,31491.974,,,,,
trial,html.Screen,2_0_0,2023-10-30T21:28:52.550Z,,0,0,,9742.125999994041,response,ISIC_0025593.JPG,,ISIC_0063388.JPG,ISIC_0063388.JPG,true,0,keypress(z),500,41234.59999999404,41234.09999999404,31475.3,31486.20000001788,31491.974,41246.603,1,6,1,,ISIC_0025593.JPG
sequence,flow.Sequence,2_0,2023-10-30T21:28:52.551Z,,0,,,9742.125999994041,completion,,,,,true,,,,41235,41234.09999999404,31475.3,31486.09999999404,31491.974,41246.603,1,6,,,
trial,html.Screen,2_1_0,2023-10-30T21:29:00.813Z,,0,0,,8249.697000011918,response,ISIC_0028178.JPG,,ISIC_1309015.JPG,ISIC_1309015.JPG,true,0,keypress(z),500,49496.70000001788,49496.30000001192,41229.929,41235.09999999404,41246.603,49500.233,1,6,2,,ISIC_0028178.JPG
sequence,flow.Sequence,2_1,2023-10-30T21:29:00.813Z,,0,,,8249.697000011918,completion,,,,,true,,,,49496.90000000596,49496.30000001192,41229.929,41235.09999999404,41246.603,49500.233,1,6,,,
trial,html.Screen,2_2_0,2023-10-30T21:29:06.002Z,,0,0,,5185.567000011921,response,ISIC_0031128.JPG,,ISIC_3314853.JPG,ISIC_3314853.JPG,true,0,keypress(z),500,54686.09999999404,54685.80000001192,49483.559,49497.09999999404,49500.233,54702.867,1,6,3,,ISIC_0031128.JPG
sequence,flow.Sequence,2_2,2023-10-30T21:29:06.003Z,,0,,,5185.567000011921,completion,,,,,true,,,,54686.40000000596,54685.80000001192,49483.559,49497,49500.233,54702.867,1,6,,,
trial,html.Screen,2_3_0,2023-10-30T21:29:10.391Z,,0,0,,4371.633000000002,response,ISIC_0031612.JPG,,ISIC_8980141.JPG,ISIC_8980141.JPG,true,0,keypress(z),500,59074.80000001192,59074.5,54686.193,54686.59999999404,54702.867,59088.129,1,6,4,,ISIC_0031612.JPG
sequence,flow.Sequence,2_3,2023-10-30T21:29:10.392Z,,0,,,4371.633000000002,completion,,,,,true,,,,59075.20000001788,59074.5,54686.193,54686.59999999404,54702.867,59088.129,1,6,,,
trial,html.Screen,2_4_0,2023-10-30T21:29:13.650Z,,0,0,,3244.9709999940387,response,ISIC_1197737.JPG,,ISIC_9721604.JPG,ISIC_9721604.JPG,true,0,keypress(z),500,62333.40000000596,62333.09999999404,59071.455,59075.5,59088.129,62339.924,1,6,5,,ISIC_1197737.JPG
sequence,flow.Sequence,2_4,2023-10-30T21:29:13.650Z,,0,,,3244.9709999940387,completion,,,,,true,,,,62333.80000001192,62333.09999999404,59071.455,59075.40000000596,59088.129,62339.924,1,6,,,
trial,html.Screen,2_5_0,2023-10-30T21:29:19.079Z,,0,0,,5421.776000017882,response,ISIC_0025346.JPG,,ISIC_0010681.JPG,ISIC_0010681.JPG,true,0,keypress(z),500,67761.90000000596,67761.70000001788,62323.25,62333.90000000596,62339.924,67775.648,1,6,6,,ISIC_0025346.JPG
sequence,flow.Sequence,2_5,2023-10-30T21:29:19.079Z,,0,,,5421.776000017882,completion,,,,,true,,,,67762.30000001192,67761.70000001788,62323.25,62333.90000000596,62339.924,67775.648,1,6,,,
loop,flow.Loop,2,2023-10-30T21:29:19.079Z,,,,,36269.72600001788,completion,,,,,true,,,,67762.5,67761.70000001788,31475.3,31486.09999999404,31491.974,67775.648,1,6,,,
exp_instructions,html.Screen,3,2023-10-30T21:29:22.166Z,,,,,3068.0520000178803,response,,,,,,continue,keypress(Space),,70849,70843.70000001788,67758.974,67762.70000001788,67775.648,70860.338,,,,,
trial,html.Screen,4_0_0,2023-10-30T21:29:26.074Z,,0,1,,3896.862000017878,response,ISIC_3789239.JPG,5,ISIC_0026394.JPG,ISIC_3789239.JPG,false,1,keypress(m),500,74757.5,74757.20000001788,70843.664,70849.20000001788,70860.338,74762.392,8,400,1,,ISIC_0026394.JPG
break,html.Screen,4_0_1,2023-10-30T21:29:26.075Z,,0,,,NaN,,,,,,false,,,,74758.5,74758.20000001788,,74757.59999999404,,74762.392,8,400,,,
break_continue,html.Screen,4_0_2,2023-10-30T21:29:26.076Z,,0,,,NaN,,,,,,false,,,,74758.90000000596,74758.70000001788,,74758.59999999404,,74762.392,8,400,,,
sequence,flow.Sequence,4_0,2023-10-30T21:29:26.076Z,,0,,,3898.362000017878,completion,,,,,false,,,,74759.09999999404,74758.70000001788,70843.664,70849.20000001788,70860.338,74762.392,8,400,,,
trial,html.Screen,4_1_0,2023-10-30T21:29:37.571Z,,0,1,,11522.162999999986,timeout,ISIC_3653492.JPG,8,ISIC_0027266.JPG,,false,,,500,86254,86253.80000001192,74745.718,74759.09999999404,74762.392,86284.555,8,400,2,,
break,html.Screen,4_1_1,2023-10-30T21:29:37.572Z,,0,,,NaN,,,,,,false,,,,86254.70000001788,86254.5,,86254.20000001788,,86284.555,8,400,,,
break_continue,html.Screen,4_1_2,2023-10-30T21:29:37.572Z,,0,,,NaN,,,,,,false,,,,86255,86254.90000000596,,86254.80000001192,,86284.555,8,400,,,
sequence,flow.Sequence,4_1,2023-10-30T21:29:37.572Z,,0,,,11492.508000005953,completion,,,,,false,,,,86255.20000001788,86254.90000000596,74745.718,74759.09999999404,74762.392,86284.555,8,400,,,
trial,html.Screen,4_2_0,2023-10-30T21:29:41.355Z,,0,1,,3753.0449999940465,response,ISIC_7800706.JPG,7,ISIC_7565128.JPG,ISIC_7565128.JPG,false,0,keypress(z),500,90037.80000001192,90037.59999999404,86267.881,86255.30000001192,86284.555,90052.879,8,400,3,,ISIC_7800706.JPG
break,html.Screen,4_2_1,2023-10-30T21:29:41.356Z,,0,,,NaN,,,,,,false,,,,90038.70000001788,90038.40000000596,,90038.09999999404,,90052.879,8,400,,,
break_continue,html.Screen,4_2_2,2023-10-30T21:29:41.356Z,,0,,,NaN,,,,,,false,,,,90039,90038.90000000596,,90038.80000001192,,90052.879,8,400,,,
sequence,flow.Sequence,4_2,2023-10-30T21:29:41.356Z,,0,,,3754.3450000059674,completion,,,,,false,,,,90039.20000001788,90038.90000000596,86267.881,86255.30000001192,86284.555,90052.879,8,400,,,
trial,html.Screen,4_3_0,2023-10-30T21:29:48.993Z,,0,1,,7622.720999994039,response,ISIC_9217340.JPG,9,ISIC_0031960.JPG,ISIC_0031960.JPG,false,0,keypress(z),500,97675.90000000596,97675.59999999404,90036.205,90039.20000001788,90052.879,97689.959,8,400,4,,ISIC_9217340.JPG
break,html.Screen,4_3_1,2023-10-30T21:29:48.994Z,,0,,,NaN,,,,,,false,,,,97676.70000001788,97676.59999999404,,97676.09999999404,,97689.959,8,400,,,
break_continue,html.Screen,4_3_2,2023-10-30T21:29:48.995Z,,0,,,NaN,,,,,,false,,,,97677,97677,,97676.80000001192,,97689.959,8,400,,,
sequence,flow.Sequence,4_3,2023-10-30T21:29:48.995Z,,0,,,7624.120999999999,completion,,,,,false,,,,97677.20000001788,97677,90036.205,90039.20000001788,90052.879,97689.959,8,400,,,
trial,html.Screen,4_4_0,2023-10-30T21:29:52.442Z,,0,1,,3433.941000005958,response,ISIC_6919856.JPG,8,ISIC_0000031.JPG,ISIC_6919856.JPG,false,1,keypress(m),500,101124.20000001788,101123.90000000596,97673.285,97677.30000001192,97689.959,101141.477,8,400,5,,ISIC_0000031.JPG
break,html.Screen,4_4_1,2023-10-30T21:29:52.443Z,,0,,,NaN,,,,,,false,,,,101124.90000000596,101124.80000001192,,101124.30000001192,,101141.477,8,400,,,
break_continue,html.Screen,4_4_2,2023-10-30T21:29:52.443Z,,0,,,NaN,,,,,,false,,,,101125.20000001788,101125.20000001788,,101125.09999999404,,101141.477,8,400,,,
sequence,flow.Sequence,4_4,2023-10-30T21:29:52.443Z,,0,,,3435.241000017879,completion,,,,,false,,,,101125.40000000596,101125.20000001788,97673.285,97677.20000001788,97689.959,101141.477,8,400,,,
trial,html.Screen,4_5_0,2023-10-30T21:29:57.566Z,,0,1,,5106.823000011922,response,ISIC_8064866.JPG,8,ISIC_3649766.JPG,ISIC_8064866.JPG,false,1,keypress(m),500,106248.59999999404,106248.30000001192,101124.803,101125.5,101141.477,106260.395,8,400,6,,ISIC_3649766.JPG
break,html.Screen,4_5_1,2023-10-30T21:29:57.567Z,,0,,,NaN,,,,,,false,,,,106249.30000001192,106249.20000001788,,106248.80000001192,,106260.395,8,400,,,
break_continue,html.Screen,4_5_2,2023-10-30T21:29:57.567Z,,0,,,NaN,,,,,,false,,,,106249.70000001788,106249.59999999404,,106249.5,,106260.395,8,400,,,
sequence,flow.Sequence,4_5,2023-10-30T21:29:57.568Z,,0,,,5108.122999994041,completion,,,,,false,,,,106249.80000001192,106249.59999999404,101124.803,101125.5,101141.477,106260.395,8,400,,,
trial,html.Screen,4_6_0,2023-10-30T21:30:05.459Z,,0,1,,7880.104999999996,response,ISIC_0001875.JPG,5,ISIC_7903838.JPG,ISIC_7903838.JPG,false,0,keypress(z),500,114140.80000001192,114140.5,106243.721,106249.90000000596,106260.395,114147.539,8,400,7,,ISIC_0001875.JPG
break,html.Screen,4_6_1,2023-10-30T21:30:05.459Z,,0,,,NaN,,,,,,false,,,,114141.5,114141.30000001192,,114140.90000000596,,114147.539,8,400,,,
break_continue,html.Screen,4_6_2,2023-10-30T21:30:05.460Z,,0,,,NaN,,,,,,false,,,,114141.80000001192,114141.59999999404,,114141.5,,114147.539,8,400,,,
sequence,flow.Sequence,4_6,2023-10-30T21:30:05.460Z,,0,,,7881.2049999940355,completion,,,,,false,,,,114141.90000000596,114141.59999999404,106243.721,106249.90000000596,106260.395,114147.539,8,400,,,
trial,html.Screen,4_7_0,2023-10-30T21:30:08.890Z,,0,1,,3424.4609999999957,response,ISIC_0029863.JPG,7,ISIC_0009940.JPG,ISIC_0029863.JPG,false,1,keypress(m),500,117572.20000001788,117572,114130.865,114142.09999999404,114147.539,117582.721,8,400,8,,ISIC_0009940.JPG
break,html.Screen,4_7_1,2023-10-30T21:30:08.891Z,,0,,,NaN,,,,,,false,,,,117573,117572.80000001192,,117572.30000001192,,117582.721,8,400,,,
break_continue,html.Screen,4_7_2,2023-10-30T21:30:08.891Z,,0,,,NaN,,,,,,false,,,,117573.30000001192,117573.20000001788,,117573.09999999404,,117582.721,8,400,,,
sequence,flow.Sequence,4_7,2023-10-30T21:30:08.892Z,,0,,,3425.661000017877,completion,,,,,false,,,,117573.40000000596,117573.20000001788,114130.865,114142,114147.539,117582.721,8,400,,,
trial,html.Screen,4_8_0,2023-10-30T21:30:12.995Z,,0,1,,4093.579000011916,response,ISIC_0068168.JPG,6,ISIC_0031517.JPG,ISIC_0068168.JPG,false,1,keypress(m),500,121676.5,121676.30000001192,117566.047,117573.5,117582.721,121684.525,8,400,9,,ISIC_0031517.JPG
break,html.Screen,4_8_1,2023-10-30T21:30:12.995Z,,0,,,NaN,,,,,,false,,,,121677.20000001788,121677.09999999404,,121676.70000001788,,121684.525,8,400,,,
break_continue,html.Screen,4_8_2,2023-10-30T21:30:12.996Z,,0,,,NaN,,,,,,false,,,,121677.59999999404,121677.5,,121677.30000001192,,121684.525,8,400,,,
sequence,flow.Sequence,4_8,2023-10-30T21:30:12.996Z,,0,,,4094.778999999995,completion,,,,,false,,,,121677.59999999404,121677.5,117566.047,117573.5,117582.721,121684.525,8,400,,,
trial,html.Screen,4_9_0,2023-10-30T21:30:16.444Z,,0,1,,3440.475000000006,response,ISIC_9047184.JPG,8,ISIC_0063899.JPG,ISIC_9047184.JPG,false,1,keypress(m),500,125125.30000001192,125125,121667.851,121677.80000001192,121684.525,125136.043,8,400,10,,ISIC_0063899.JPG
break,html.Screen,4_9_1,2023-10-30T21:30:16.444Z,,0,,,NaN,,,,,,false,,,,125126.09999999404,125125.90000000596,,125125.5,,125136.043,8,400,,,
break_continue,html.Screen,4_9_2,2023-10-30T21:30:16.445Z,,0,,,NaN,,,,,,false,,,,125126.40000000596,125126.30000001192,,125126.20000001788,,125136.043,8,400,,,
sequence,flow.Sequence,4_9,2023-10-30T21:30:16.445Z,,0,,,3441.7750000119267,completion,,,,,false,,,,125126.59999999404,125126.30000001192,121667.851,121677.70000001788,121684.525,125136.043,8,400,,,
trial,html.Screen,4_10_0,2023-10-30T21:30:20.115Z,,0,1,,3660.0569999940344,response,ISIC_0011509.JPG,5,ISIC_4728589.JPG,ISIC_4728589.JPG,false,0,keypress(z),500,128796.30000001192,128796.09999999404,125119.369,125126.59999999404,125136.043,128804.672,8,400,11,,ISIC_0011509.JPG
break,html.Screen,4_10_1,2023-10-30T21:30:20.116Z,,0,,,NaN,,,,,,false,,,,128797.09999999404,128797,,128796.5,,128804.672,8,400,,,
break_continue,html.Screen,4_10_2,2023-10-30T21:30:20.116Z,,0,,,NaN,,,,,,false,,,,128797.40000000596,128797.30000001192,,128797.20000001788,,128804.672,8,400,,,
sequence,flow.Sequence,4_10,2023-10-30T21:30:20.116Z,,0,,,3661.257000011916,completion,,,,,false,,,,128797.59999999404,128797.30000001192,125119.369,125126.59999999404,125136.043,128804.672,8,400,,,
trial,html.Screen,4_11_0,2023-10-30T21:30:25.417Z,,0,1,,5293.427999994034,response,ISIC_6990973.JPG,8,ISIC_3289574.JPG,ISIC_3289574.JPG,false,0,keypress(z),500,134098.30000001192,134098.09999999404,128787.998,128797.70000001788,128804.672,134107.004,8,400,12,,ISIC_6990973.JPG
break,html.Screen,4_11_1,2023-10-30T21:30:25.418Z,,0,,,NaN,,,,,,false,,,,134099.09999999404,134098.90000000596,,134098.5,,134107.004,8,400,,,
break_continue,html.Screen,4_11_2,2023-10-30T21:30:25.418Z,,0,,,NaN,,,,,,false,,,,134099.40000000596,134099.30000001192,,134099.20000001788,,134107.004,8,400,,,
sequence,flow.Sequence,4_11,2023-10-30T21:30:25.418Z,,0,,,5294.628000011915,completion,,,,,false,,,,134099.5,134099.30000001192,128787.998,128797.70000001788,128804.672,134107.004,8,400,,,
trial,html.Screen,4_12_0,2023-10-30T21:30:28.801Z,,0,1,,3375.396000005974,response,ISIC_0025409.JPG,6,ISIC_5309572.JPG,ISIC_5309572.JPG,false,0,keypress(z),500,137482.59999999404,137482.40000000596,134090.33,134099.70000001788,134107.004,137492.175,8,400,13,,ISIC_0025409.JPG
break,html.Screen,4_12_1,2023-10-30T21:30:28.802Z,,0,,,NaN,,,,,,false,,,,137483.30000001192,137483.20000001788,,137482.80000001192,,137492.175,8,400,,,
break_continue,html.Screen,4_12_2,2023-10-30T21:30:28.802Z,,0,,,NaN,,,,,,false,,,,137483.70000001788,137483.59999999404,,137483.5,,137492.175,8,400,,,
sequence,flow.Sequence,4_12,2023-10-30T21:30:28.803Z,,0,,,3376.5959999940533,completion,,,,,false,,,,137483.90000000596,137483.59999999404,134090.33,134099.70000001788,134107.004,137492.175,8,400,,,
trial,html.Screen,4_13_0,2023-10-30T21:30:32.573Z,,0,1,,3761.525000017893,response,ISIC_0011917.JPG,7,ISIC_0033374.JPG,ISIC_0011917.JPG,false,1,keypress(m),500,141254,141253.70000001788,137475.501,137484,137492.175,141260.499,8,400,14,,ISIC_0033374.JPG
break,html.Screen,4_13_1,2023-10-30T21:30:32.574Z,,0,,,NaN,,,,,,false,,,,141254.80000001192,141254.59999999404,,141254.30000001192,,141260.499,8,400,,,
break_continue,html.Screen,4_13_2,2023-10-30T21:30:32.574Z,,0,,,NaN,,,,,,false,,,,141255.09999999404,141255.09999999404,,141255,,141260.499,8,400,,,
sequence,flow.Sequence,4_13,2023-10-30T21:30:32.574Z,,0,,,3762.924999994051,completion,,,,,false,,,,141255.30000001192,141255.09999999404,137475.501,137483.90000000596,137492.175,141260.499,8,400,,,
trial,html.Screen,4_14_0,2023-10-30T21:30:37.557Z,,0,1,,4977.80100001191,response,ISIC_0013258.JPG,8,ISIC_3171104.JPG,ISIC_3171104.JPG,false,0,keypress(z),500,146238.5,146238.30000001192,141243.825,141255.40000000596,141260.499,146246.025,8,400,15,,ISIC_0013258.JPG
break,html.Screen,4_14_1,2023-10-30T21:30:37.558Z,,0,,,NaN,,,,,,false,,,,146239.20000001788,146239,,146238.70000001788,,146246.025,8,400,,,
break_continue,html.Screen,4_14_2,2023-10-30T21:30:37.559Z,,0,,,NaN,,,,,,false,,,,146239.5,146239.5,,146239.30000001192,,146246.025,8,400,,,
sequence,flow.Sequence,4_14,2023-10-30T21:30:37.559Z,,0,,,4979.000999999989,completion,,,,,false,,,,146239.70000001788,146239.5,141243.825,141255.40000000596,141260.499,146246.025,8,400,,,
trial,html.Screen,4_15_0,2023-10-30T21:30:42.155Z,,0,1,,4590.074999994045,response,ISIC_9023152.JPG,8,ISIC_0072773.JPG,ISIC_0072773.JPG,false,0,keypress(z),500,150836.40000000596,150836.09999999404,146229.351,146239.80000001192,146246.025,150848.395,8,400,16,,ISIC_9023152.JPG
break,html.Screen,4_15_1,2023-10-30T21:30:42.156Z,,0,,,NaN,,,,,,false,,,,150837.09999999404,150836.90000000596,,150836.5,,150848.395,8,400,,,
break_continue,html.Screen,4_15_2,2023-10-30T21:30:42.157Z,,0,,,NaN,,,,,,false,,,,150837.40000000596,150837.30000001192,,150837.20000001788,,150848.395,8,400,,,
sequence,flow.Sequence,4_15,2023-10-30T21:30:42.157Z,,0,,,4591.275000011927,completion,,,,,false,,,,150837.59999999404,150837.30000001192,146229.351,146239.80000001192,146246.025,150848.395,8,400,,,
trial,html.Screen,4_16_0,2023-10-30T21:30:45.366Z,,0,1,,3198.6050000000105,response,ISIC_0061067.JPG,7,ISIC_2772616.JPG,ISIC_2772616.JPG,false,0,keypress(z),500,154047.20000001788,154047,150831.721,150837.59999999404,150848.395,154049.803,8,400,17,,ISIC_0061067.JPG
break,html.Screen,4_16_1,2023-10-30T21:30:45.367Z,,0,,,NaN,,,,,,false,,,,154048,154047.90000000596,,154047.40000000596,,154049.803,8,400,,,
break_continue,html.Screen,4_16_2,2023-10-30T21:30:45.368Z,,0,,,NaN,,,,,,false,,,,154048.40000000596,154048.20000001788,,154048.09999999404,,154049.803,8,400,,,
sequence,flow.Sequence,4_16,2023-10-30T21:30:45.368Z,,0,,,3199.805000017892,completion,,,,,false,,,,154048.5,154048.20000001788,150831.721,150837.59999999404,150848.395,154049.803,8,400,,,
trial,html.Screen,4_17_0,2023-10-30T21:30:49.964Z,,0,1,,4594.397000017867,response,ISIC_0068776.JPG,8,ISIC_1366765.JPG,ISIC_1366765.JPG,false,0,keypress(z),500,158644.30000001192,158644.20000001788,154033.129,154048.59999999404,154049.803,158652.194,8,400,18,,ISIC_0068776.JPG
break,html.Screen,4_17_1,2023-10-30T21:30:49.964Z,,0,,,NaN,,,,,,false,,,,158645,158644.90000000596,,158644.5,,158652.194,8,400,,,
break_continue,html.Screen,4_17_2,2023-10-30T21:30:49.965Z,,0,,,NaN,,,,,,false,,,,158645.30000001192,158645.30000001192,,158645.09999999404,,158652.194,8,400,,,
sequence,flow.Sequence,4_17,2023-10-30T21:30:49.965Z,,0,,,4595.4970000119065,completion,,,,,false,,,,158645.5,158645.30000001192,154033.129,154048.5,154049.803,158652.194,8,400,,,
trial,html.Screen,4_18_0,2023-10-30T21:30:53.072Z,,0,1,,3099.706000005972,response,ISIC_1323048.JPG,7,ISIC_0024702.JPG,ISIC_1323048.JPG,false,1,keypress(m),500,161752.20000001788,161751.90000000596,158635.52,158645.59999999404,158652.194,161753.558,8,400,19,,ISIC_0024702.JPG
break,html.Screen,4_18_1,2023-10-30T21:30:53.072Z,,0,,,NaN,,,,,,false,,,,161753,161752.80000001192,,161752.40000000596,,161753.558,8,400,,,
break_continue,html.Screen,4_18_2,2023-10-30T21:30:53.073Z,,0,,,NaN,,,,,,false,,,,161753.30000001192,161753.20000001788,,161753.09999999404,,161753.558,8,400,,,
sequence,flow.Sequence,4_18,2023-10-30T21:30:53.073Z,,0,,,3101.006000017893,completion,,,,,false,,,,161753.40000000596,161753.20000001788,158635.52,158645.59999999404,158652.194,161753.558,8,400,,,
trial,html.Screen,4_19_0,2023-10-30T21:30:55.972Z,,0,1,,2898.742000011931,response,ISIC_9921747.JPG,7,ISIC_0029120.JPG,ISIC_9921747.JPG,false,1,keypress(m),500,164652.5,164652.30000001192,161736.884,161753.59999999404,161753.558,164654.834,8,400,20,,ISIC_0029120.JPG
break,html.Screen,4_19_1,2023-10-30T21:30:55.973Z,,0,,,NaN,,,,,,false,,,,164653.20000001788,164653.09999999404,,164652.70000001788,,164654.834,8,400,,,
break_continue,html.Screen,4_19_2,2023-10-30T21:30:55.973Z,,0,,,NaN,,,,,,false,,,,164653.59999999404,164653.5,,164653.40000000596,,164654.834,8,400,,,
sequence,flow.Sequence,4_19,2023-10-30T21:30:55.973Z,,0,,,2899.94200000001,completion,,,,,false,,,,164653.70000001788,164653.5,161736.884,161753.5,161753.558,164654.834,8,400,,,
trial,html.Screen,4_20_0,2023-10-30T21:31:01.113Z,,0,1,,5138.165999999997,response,ISIC_5149162.JPG,5,ISIC_8796456.JPG,ISIC_8796456.JPG,false,0,keypress(z),500,169793.20000001788,169793,164638.16,164653.90000000596,164654.834,169807.448,8,400,21,,ISIC_5149162.JPG
break,html.Screen,4_20_1,2023-10-30T21:31:01.114Z,,0,,,NaN,,,,,,false,,,,169794,169793.80000001192,,169793.40000000596,,169807.448,8,400,,,
break_continue,html.Screen,4_20_2,2023-10-30T21:31:01.114Z,,0,,,NaN,,,,,,false,,,,169794.40000000596,169794.20000001788,,169794.09999999404,,169807.448,8,400,,,
sequence,flow.Sequence,4_20,2023-10-30T21:31:01.114Z,,0,,,5139.366000017879,completion,,,,,false,,,,169794.5,169794.20000001788,164638.16,164653.80000001192,164654.834,169807.448,8,400,,,
trial,html.Screen,4_21_0,2023-10-30T21:31:05.869Z,,0,1,,4741.252000017877,response,ISIC_0033619.JPG,7,ISIC_0032565.JPG,ISIC_0032565.JPG,false,0,keypress(z),500,174548.90000000596,174548.70000001788,169790.774,169794.59999999404,169807.448,174576.212,8,400,22,,ISIC_0033619.JPG
break,html.Screen,4_21_1,2023-10-30T21:31:05.869Z,,0,,,NaN,,,,,,false,,,,174549.59999999404,174549.5,,174549.09999999404,,174576.212,8,400,,,
break_continue,html.Screen,4_21_2,2023-10-30T21:31:05.870Z,,0,,,NaN,,,,,,false,,,,174549.90000000596,174549.80000001192,,174549.70000001788,,174576.212,8,400,,,
sequence,flow.Sequence,4_21,2023-10-30T21:31:05.870Z,,0,,,4742.352000011917,completion,,,,,false,,,,174550.09999999404,174549.80000001192,169790.774,169794.59999999404,169807.448,174576.212,8,400,,,
trial,html.Screen,4_22_0,2023-10-30T21:31:09.973Z,,0,1,,4077.0880000119214,response,ISIC_0064936.JPG,5,ISIC_4530249.JPG,ISIC_4530249.JPG,false,0,keypress(z),500,178653.5,178653.30000001192,174559.538,174550.30000001192,174576.212,178661.342,8,400,23,,ISIC_0064936.JPG
break,html.Screen,4_22_1,2023-10-30T21:31:09.974Z,,0,,,NaN,,,,,,false,,,,178654.30000001192,178654.09999999404,,178653.80000001192,,178661.342,8,400,,,
break_continue,html.Screen,4_22_2,2023-10-30T21:31:09.975Z,,0,,,NaN,,,,,,false,,,,178654.59999999404,178654.5,,178654.30000001192,,178661.342,8,400,,,
sequence,flow.Sequence,4_22,2023-10-30T21:31:09.975Z,,0,,,4078.2880000000005,completion,,,,,false,,,,178654.70000001788,178654.5,174559.538,174550.20000001788,174576.212,178661.342,8,400,,,
trial,html.Screen,4_23_0,2023-10-30T21:31:15.024Z,,0,1,,5042.257999994035,response,ISIC_5005961.JPG,6,ISIC_8873236.JPG,ISIC_8873236.JPG,false,0,keypress(z),500,183703.90000000596,183703.59999999404,178644.668,178654.80000001192,178661.342,183713.907,8,400,24,,ISIC_5005961.JPG
break,html.Screen,4_23_1,2023-10-30T21:31:15.025Z,,0,,,NaN,,,,,,false,,,,183704.70000001788,183704.59999999404,,183704.09999999404,,183713.907,8,400,,,
break_continue,html.Screen,4_23_2,2023-10-30T21:31:15.025Z,,0,,,NaN,,,,,,false,,,,183705,183704.90000000596,,183704.80000001192,,183713.907,8,400,,,
sequence,flow.Sequence,4_23,2023-10-30T21:31:15.025Z,,0,,,5043.558000005956,completion,,,,,false,,,,183705.09999999404,183704.90000000596,178644.668,178654.80000001192,178661.342,183713.907,8,400,,,
trial,html.Screen,4_24_0,2023-10-30T21:31:18.215Z,,0,1,,3180.5929999999935,response,ISIC_0056784.JPG,4,ISIC_7702857.JPG,ISIC_7702857.JPG,false,0,keypress(z),500,186894.70000001788,186894.5,183697.233,183705.20000001788,183713.907,186898.641,8,400,25,,ISIC_0056784.JPG
break,html.Screen,4_24_1,2023-10-30T21:31:18.216Z,,0,,,NaN,,,,,,false,,,,186895.40000000596,186895.20000001788,,186894.90000000596,,186898.641,8,400,,,
break_continue,html.Screen,4_24_2,2023-10-30T21:31:18.216Z,,0,,,NaN,,,,,,false,,,,186895.70000001788,186895.59999999404,,186895.5,,186898.641,8,400,,,
sequence,flow.Sequence,4_24,2023-10-30T21:31:18.216Z,,0,,,3181.692999994033,completion,,,,,false,,,,186895.90000000596,186895.59999999404,183697.233,183705.20000001788,183713.907,186898.641,8,400,,,
trial,html.Screen,4_25_0,2023-10-30T21:31:23.293Z,,0,1,,5074.259000005957,response,ISIC_6785041.JPG,7,ISIC_2458253.JPG,ISIC_6785041.JPG,false,1,keypress(m),500,191973.09999999404,191972.90000000596,186881.967,186896,186898.641,191984.643,8,400,26,,ISIC_2458253.JPG
break,html.Screen,4_25_1,2023-10-30T21:31:23.294Z,,0,,,NaN,,,,,,false,,,,191973.80000001192,191973.70000001788,,191973.30000001192,,191984.643,8,400,,,
break_continue,html.Screen,4_25_2,2023-10-30T21:31:23.295Z,,0,,,NaN,,,,,,false,,,,191974.20000001788,191974,,191973.90000000596,,191984.643,8,400,,,
sequence,flow.Sequence,4_25,2023-10-30T21:31:23.295Z,,0,,,5075.358999999997,completion,,,,,false,,,,191974.40000000596,191974,186881.967,186896,186898.641,191984.643,8,400,,,
trial,html.Screen,4_26_0,2023-10-30T21:31:27.207Z,,0,1,,3901.15700001191,response,ISIC_1628539.JPG,9,ISIC_0054988.JPG,ISIC_1628539.JPG,false,1,keypress(m),500,195886,195885.80000001192,191967.969,191974.40000000596,191984.643,195903.033,8,400,27,,ISIC_0054988.JPG
break,html.Screen,4_26_1,2023-10-30T21:31:27.207Z,,0,,,NaN,,,,,,false,,,,195886.70000001788,195886.59999999404,,195886.20000001788,,195903.033,8,400,,,
break_continue,html.Screen,4_26_2,2023-10-30T21:31:27.208Z,,0,,,NaN,,,,,,false,,,,195887.09999999404,195887,,195886.90000000596,,195903.033,8,400,,,
sequence,flow.Sequence,4_26,2023-10-30T21:31:27.208Z,,0,,,3902.356999999989,completion,,,,,false,,,,195887.20000001788,195887,191967.969,191974.40000000596,191984.643,195903.033,8,400,,,
trial,html.Screen,4_27_0,2023-10-30T21:31:32.171Z,,0,1,,4946.566999994044,response,ISIC_2597678.JPG,8,ISIC_0006158.JPG,ISIC_0006158.JPG,false,0,keypress(z),500,200849.90000000596,200849.59999999404,195886.359,195887.30000001192,195903.033,200855.211,8,400,28,,ISIC_2597678.JPG
break,html.Screen,4_27_1,2023-10-30T21:31:32.171Z,,0,,,NaN,,,,,,false,,,,200850.59999999404,200850.40000000596,,200850.09999999404,,200855.211,8,400,,,
break_continue,html.Screen,4_27_2,2023-10-30T21:31:32.172Z,,0,,,NaN,,,,,,false,,,,200851,200850.90000000596,,200850.70000001788,,200855.211,8,400,,,
sequence,flow.Sequence,4_27,2023-10-30T21:31:32.172Z,,0,,,4947.867000005965,completion,,,,,false,,,,200851.09999999404,200850.90000000596,195886.359,195887.30000001192,195903.033,200855.211,8,400,,,
trial,html.Screen,4_28_0,2023-10-30T21:31:35.827Z,,0,1,,3650.8889999940293,response,ISIC_0000054.JPG,8,ISIC_0004564.JPG,ISIC_0004564.JPG,false,0,keypress(z),500,204506.40000000596,204506.09999999404,200838.537,200851.20000001788,200855.211,204507.166,8,400,29,,ISIC_0000054.JPG
break,html.Screen,4_28_1,2023-10-30T21:31:35.828Z,,0,,,NaN,,,,,,false,,,,204507.20000001788,204507,,204506.59999999404,,204507.166,8,400,,,
break_continue,html.Screen,4_28_2,2023-10-30T21:31:35.829Z,,0,,,NaN,,,,,,false,,,,204508.30000001192,204508.20000001788,,204508,,204507.166,8,400,,,
sequence,flow.Sequence,4_28,2023-10-30T21:31:35.829Z,,0,,,3652.989000017871,completion,,,,,false,,,,204508.5,204508.20000001788,200838.537,200851.20000001788,200855.211,204507.166,8,400,,,
trial,html.Screen,4_29_0,2023-10-30T21:31:39.914Z,,0,1,,4085.6340000119235,response,ISIC_0202167.JPG,7,ISIC_0012048.JPG,ISIC_0202167.JPG,false,1,keypress(m),500,208593,208592.80000001192,204490.492,204508.70000001788,204507.166,208608.97,8,400,30,,ISIC_0012048.JPG
break,html.Screen,4_29_1,2023-10-30T21:31:39.915Z,,0,,,NaN,,,,,,false,,,,208593.80000001192,208593.59999999404,,208593.20000001788,,208608.97,8,400,,,
break_continue,html.Screen,4_29_2,2023-10-30T21:31:39.915Z,,0,,,NaN,,,,,,false,,,,208594.09999999404,208594,,208593.90000000596,,208608.97,8,400,,,
sequence,flow.Sequence,4_29,2023-10-30T21:31:39.915Z,,0,,,4086.8340000000026,completion,,,,,false,,,,208594.30000001192,208594,204490.492,204508.59999999404,204507.166,208608.97,8,400,,,
trial,html.Screen,4_30_0,2023-10-30T21:31:43.104Z,,0,1,,3174.2300000178802,response,ISIC_0397464.JPG,8,ISIC_3401631.JPG,ISIC_0397464.JPG,false,1,keypress(m),500,211783.40000000596,211783.20000001788,208592.296,208594.40000000596,208608.97,211793.704,8,400,31,,ISIC_3401631.JPG
break,html.Screen,4_30_1,2023-10-30T21:31:43.105Z,,0,,,NaN,,,,,,false,,,,211784.09999999404,211784,,211783.59999999404,,211793.704,8,400,,,
break_continue,html.Screen,4_30_2,2023-10-30T21:31:43.105Z,,0,,,NaN,,,,,,false,,,,211784.5,211784.40000000596,,211784.30000001192,,211793.704,8,400,,,
sequence,flow.Sequence,4_30,2023-10-30T21:31:43.106Z,,0,,,3175.4300000059593,completion,,,,,false,,,,211784.59999999404,211784.40000000596,208592.296,208594.40000000596,208608.97,211793.704,8,400,,,
trial,html.Screen,4_31_0,2023-10-30T21:31:47.942Z,,0,1,,4826.9960000178835,response,ISIC_0067653.JPG,5,ISIC_5498651.JPG,ISIC_5498651.JPG,false,0,keypress(z),500,216620.90000000596,216620.70000001788,211777.03,211784.70000001788,211793.704,216629.505,8,400,32,,ISIC_0067653.JPG
break,html.Screen,4_31_1,2023-10-30T21:31:47.943Z,,0,,,NaN,,,,,,false,,,,216621.59999999404,216621.40000000596,,216621.09999999404,,216629.505,8,400,,,
break_continue,html.Screen,4_31_2,2023-10-30T21:31:47.943Z,,0,,,NaN,,,,,,false,,,,216621.90000000596,216621.80000001192,,216621.70000001788,,216629.505,8,400,,,
sequence,flow.Sequence,4_31,2023-10-30T21:31:47.943Z,,0,,,4828.096000011923,completion,,,,,false,,,,216622.09999999404,216621.80000001192,211777.03,211784.59999999404,211793.704,216629.505,8,400,,,
trial,html.Screen,4_32_0,2023-10-30T21:31:53.393Z,,0,1,,5442.295000011916,response,ISIC_0098784.JPG,8,ISIC_1977315.JPG,ISIC_1977315.JPG,false,0,keypress(z),500,222072,222071.80000001192,216612.831,216622.20000001788,216629.505,222081.903,8,400,33,,ISIC_0098784.JPG
break,html.Screen,4_32_1,2023-10-30T21:31:53.394Z,,0,,,NaN,,,,,,false,,,,222072.80000001192,222072.70000001788,,222072.30000001192,,222081.903,8,400,,,
break_continue,html.Screen,4_32_2,2023-10-30T21:31:53.394Z,,0,,,NaN,,,,,,false,,,,222073.20000001788,222073,,222072.90000000596,,222081.903,8,400,,,
sequence,flow.Sequence,4_32,2023-10-30T21:31:53.395Z,,0,,,5443.494999999995,completion,,,,,false,,,,222073.20000001788,222073,216612.831,216622.09999999404,216629.505,222081.903,8,400,,,
trial,html.Screen,4_33_0,2023-10-30T21:31:56.390Z,,0,1,,2986.097000000009,response,ISIC_0028472.JPG,7,ISIC_0006302.JPG,ISIC_0006302.JPG,false,0,keypress(z),500,225068.30000001192,225068,222065.229,222073.40000000596,222081.903,225083.564,8,400,34,,ISIC_0028472.JPG
break,html.Screen,4_33_1,2023-10-30T21:31:56.390Z,,0,,,NaN,,,,,,false,,,,225069.09999999404,225068.80000001192,,225068.40000000596,,225083.564,8,400,,,
break_continue,html.Screen,4_33_2,2023-10-30T21:31:56.391Z,,0,,,NaN,,,,,,false,,,,225069.30000001192,225069.20000001788,,225069.09999999404,,225083.564,8,400,,,
sequence,flow.Sequence,4_33,2023-10-30T21:31:56.391Z,,0,,,2987.2970000178902,completion,,,,,false,,,,225069.40000000596,225069.20000001788,222065.229,222073.40000000596,222081.903,225083.564,8,400,,,
trial,html.Screen,4_34_0,2023-10-30T21:31:59.503Z,,0,1,,3097.736000011908,response,ISIC_1532684.JPG,6,ISIC_0059411.JPG,ISIC_1532684.JPG,false,1,keypress(m),500,228181.59999999404,228181.30000001192,225066.89,225069.5,225083.564,228184.928,8,400,35,,ISIC_0059411.JPG
break,html.Screen,4_34_1,2023-10-30T21:31:59.504Z,,0,,,NaN,,,,,,false,,,,228182.30000001192,228182.20000001788,,228181.80000001192,,228184.928,8,400,,,
break_continue,html.Screen,4_34_2,2023-10-30T21:31:59.504Z,,0,,,NaN,,,,,,false,,,,228182.70000001788,228182.59999999404,,228182.40000000596,,228184.928,8,400,,,
sequence,flow.Sequence,4_34,2023-10-30T21:31:59.504Z,,0,,,3099.0359999940265,completion,,,,,false,,,,228182.90000000596,228182.59999999404,225066.89,225069.5,225083.564,228184.928,8,400,,,
trial,html.Screen,4_35_0,2023-10-30T21:32:02.355Z,,0,1,,2848.5719999999856,response,ISIC_0032922.JPG,5,ISIC_0072412.JPG,ISIC_0072412.JPG,false,0,keypress(z),500,231033.80000001192,231033.5,228168.254,228182.90000000596,228184.928,231036.182,8,400,36,,ISIC_0032922.JPG
break,html.Screen,4_35_1,2023-10-30T21:32:02.356Z,,0,,,NaN,,,,,,false,,,,231034.59999999404,231034.40000000596,,231034,,231036.182,8,400,,,
break_continue,html.Screen,4_35_2,2023-10-30T21:32:02.356Z,,0,,,NaN,,,,,,false,,,,231034.90000000596,231034.80000001192,,231034.59999999404,,231036.182,8,400,,,
sequence,flow.Sequence,4_35,2023-10-30T21:32:02.357Z,,0,,,2849.8720000119065,completion,,,,,false,,,,231035,231034.80000001192,228168.254,228182.90000000596,228184.928,231036.182,8,400,,,
trial,html.Screen,4_36_0,2023-10-30T21:32:05.225Z,,0,1,,2866.5180000178807,response,ISIC_0027193.JPG,8,ISIC_0053542.JPG,ISIC_0027193.JPG,false,1,keypress(m),500,233903,233902.70000001788,231019.508,231035.20000001788,231036.182,233904.448,8,400,37,,ISIC_0053542.JPG
break,html.Screen,4_36_1,2023-10-30T21:32:05.225Z,,0,,,NaN,,,,,,false,,,,233903.80000001192,233903.59999999404,,233903.20000001788,,233904.448,8,400,,,
break_continue,html.Screen,4_36_2,2023-10-30T21:32:05.226Z,,0,,,NaN,,,,,,false,,,,233904.09999999404,233904,,233903.90000000596,,233904.448,8,400,,,
sequence,flow.Sequence,4_36,2023-10-30T21:32:05.226Z,,0,,,2867.8179999999993,completion,,,,,false,,,,233904.20000001788,233904,231019.508,231035.20000001788,231036.182,233904.448,8,400,,,
trial,html.Screen,4_37_0,2023-10-30T21:32:08.030Z,,0,1,,2803.6519999940356,response,ISIC_8909545.JPG,8,ISIC_0033025.JPG,ISIC_8909545.JPG,false,1,keypress(m),500,236708.30000001192,236708.09999999404,233887.774,233904.30000001192,233904.448,236722.354,8,400,38,,ISIC_0033025.JPG
break,html.Screen,4_37_1,2023-10-30T21:32:08.031Z,,0,,,NaN,,,,,,false,,,,236709.09999999404,236708.90000000596,,236708.5,,236722.354,8,400,,,
break_continue,html.Screen,4_37_2,2023-10-30T21:32:08.031Z,,0,,,NaN,,,,,,false,,,,236709.40000000596,236709.30000001192,,236709.20000001788,,236722.354,8,400,,,
sequence,flow.Sequence,4_37,2023-10-30T21:32:08.031Z,,0,,,2804.852000011917,completion,,,,,false,,,,236709.70000001788,236709.30000001192,233887.774,233904.30000001192,233904.448,236722.354,8,400,,,
trial,html.Screen,4_38_0,2023-10-30T21:32:13.253Z,,0,1,,5208.446000011929,response,ISIC_6162545.JPG,6,ISIC_7284399.JPG,ISIC_7284399.JPG,false,0,keypress(z),500,241931,241930.80000001192,236705.68,236709.80000001192,236722.354,241941.316,8,400,39,,ISIC_6162545.JPG
break,html.Screen,4_38_1,2023-10-30T21:32:13.254Z,,0,,,NaN,,,,,,false,,,,241931.80000001192,241931.59999999404,,241931.30000001192,,241941.316,8,400,,,
break_continue,html.Screen,4_38_2,2023-10-30T21:32:13.254Z,,0,,,NaN,,,,,,false,,,,241932.20000001788,241932,,241931.90000000596,,241941.316,8,400,,,
sequence,flow.Sequence,4_38,2023-10-30T21:32:13.254Z,,0,,,5209.646000000008,completion,,,,,false,,,,241932.30000001192,241932,236705.68,236709.70000001788,236722.354,241941.316,8,400,,,
trial,html.Screen,4_39_0,2023-10-30T21:32:16.878Z,,0,1,,3614.9840000119293,response,ISIC_6265473.JPG,6,ISIC_9983696.JPG,ISIC_6265473.JPG,false,1,keypress(m),500,245556.40000000596,245556.30000001192,241924.642,241932.40000000596,241941.316,245559.94,8,400,40,,ISIC_9983696.JPG
break,html.Screen,4_39_1,2023-10-30T21:32:16.879Z,,0,,,NaN,,,,,,false,,,,245557.30000001192,245557.20000001788,,245556.80000001192,,245559.94,8,400,,,
break_continue,html.Screen,4_39_2,2023-10-30T21:32:16.880Z,,0,,,NaN,,,,,,false,,,,245557.70000001788,245557.70000001788,,245557.5,,245559.94,8,400,,,
sequence,flow.Sequence,4_39,2023-10-30T21:32:16.880Z,,0,,,3616.38400001789,completion,,,,,false,,,,245557.90000000596,245557.70000001788,241924.642,241932.30000001192,241941.316,245559.94,8,400,,,
trial,html.Screen,4_40_0,2023-10-30T21:32:20.201Z,,0,1,,3318.3600000119186,response,ISIC_0058138.JPG,5,ISIC_6553579.JPG,ISIC_6553579.JPG,false,0,keypress(z),500,248878.5,248878.30000001192,245543.266,245558.09999999404,245559.94,248894.74,8,400,41,,ISIC_0058138.JPG
break,html.Screen,4_40_1,2023-10-30T21:32:20.201Z,,0,,,NaN,,,,,,false,,,,248879.30000001192,248879.09999999404,,248878.80000001192,,248894.74,8,400,,,
break_continue,html.Screen,4_40_2,2023-10-30T21:32:20.202Z,,0,,,NaN,,,,,,false,,,,248879.59999999404,248879.5,,248879.40000000596,,248894.74,8,400,,,
sequence,flow.Sequence,4_40,2023-10-30T21:32:20.202Z,,0,,,3319.5599999999977,completion,,,,,false,,,,248879.70000001788,248879.5,245543.266,245558,245559.94,248894.74,8,400,,,
trial,html.Screen,4_41_0,2023-10-30T21:32:23.326Z,,0,1,,3108.4600000178907,response,ISIC_2876105.JPG,9,ISIC_0028239.JPG,ISIC_2876105.JPG,false,1,keypress(m),500,252003.5,252003.20000001788,248878.066,248879.90000000596,248894.74,252012.778,8,400,42,,ISIC_0028239.JPG
break,html.Screen,4_41_1,2023-10-30T21:32:23.326Z,,0,,,NaN,,,,,,false,,,,252004.20000001788,252004.09999999404,,252003.70000001788,,252012.778,8,400,,,
break_continue,html.Screen,4_41_2,2023-10-30T21:32:23.327Z,,0,,,NaN,,,,,,false,,,,252004.59999999404,252004.5,,252004.30000001192,,252012.778,8,400,,,
sequence,flow.Sequence,4_41,2023-10-30T21:32:23.327Z,,0,,,3109.7600000000093,completion,,,,,false,,,,252004.80000001192,252004.5,248878.066,248879.90000000596,248894.74,252012.778,8,400,,,
trial,html.Screen,4_42_0,2023-10-30T21:32:26.548Z,,0,1,,3212.222000000009,response,ISIC_5239856.JPG,7,ISIC_0207349.JPG,ISIC_0207349.JPG,false,0,keypress(z),500,255225.30000001192,255225,251996.104,252004.80000001192,252012.778,255231.199,8,400,43,,ISIC_5239856.JPG
break,html.Screen,4_42_1,2023-10-30T21:32:26.548Z,,0,,,NaN,,,,,,false,,,,255226,255225.80000001192,,255225.5,,255231.199,8,400,,,
break_continue,html.Screen,4_42_2,2023-10-30T21:32:26.549Z,,0,,,NaN,,,,,,false,,,,255226.30000001192,255226.30000001192,,255226.20000001788,,255231.199,8,400,,,
sequence,flow.Sequence,4_42,2023-10-30T21:32:26.549Z,,0,,,3213.52200001193,completion,,,,,false,,,,255226.59999999404,255226.30000001192,251996.104,252004.80000001192,252012.778,255231.199,8,400,,,
trial,html.Screen,4_43_0,2023-10-30T21:32:29.528Z,,0,1,,2974.701000005967,response,ISIC_0028173.JPG,5,ISIC_0068544.JPG,ISIC_0068544.JPG,false,0,keypress(z),500,258206.09999999404,258205.90000000596,255214.525,255226.70000001788,255231.199,258215.845,8,400,44,,ISIC_0028173.JPG
break,html.Screen,4_43_1,2023-10-30T21:32:29.529Z,,0,,,NaN,,,,,,false,,,,258206.80000001192,258206.70000001788,,258206.30000001192,,258215.845,8,400,,,
break_continue,html.Screen,4_43_2,2023-10-30T21:32:29.530Z,,0,,,NaN,,,,,,false,,,,258207.20000001788,258207.09999999404,,258206.90000000596,,258215.845,8,400,,,
sequence,flow.Sequence,4_43,2023-10-30T21:32:29.530Z,,0,,,2975.9009999940463,completion,,,,,false,,,,258207.30000001192,258207.09999999404,255214.525,255226.59999999404,255231.199,258215.845,8,400,,,
trial,html.Screen,4_44_0,2023-10-30T21:32:32.302Z,,0,1,,2763.8550000178802,response,ISIC_0034076.JPG,7,ISIC_0030898.JPG,ISIC_0030898.JPG,false,0,keypress(z),500,260980,260979.70000001788,258199.171,258207.40000000596,258215.845,260983.729,8,400,45,,ISIC_0034076.JPG
break,html.Screen,4_44_1,2023-10-30T21:32:32.303Z,,0,,,NaN,,,,,,false,,,,260980.80000001192,260980.59999999404,,260980.20000001788,,260983.729,8,400,,,
break_continue,html.Screen,4_44_2,2023-10-30T21:32:32.304Z,,0,,,NaN,,,,,,false,,,,260981.09999999404,260981,,260980.90000000596,,260983.729,8,400,,,
sequence,flow.Sequence,4_44,2023-10-30T21:32:32.304Z,,0,,,2765.154999999999,completion,,,,,false,,,,260981.30000001192,260981,258199.171,258207.40000000596,258215.845,260983.729,8,400,,,
trial,html.Screen,4_45_0,2023-10-30T21:32:35.426Z,,0,1,,3119.9710000178893,response,ISIC_4680417.JPG,5,ISIC_0026509.JPG,ISIC_4680417.JPG,false,1,keypress(m),500,264104,264103.7000000179,260967.055,260981.30000001192,260983.729,264118.798,8,400,46,,ISIC_0026509.JPG
break,html.Screen,4_45_1,2023-10-30T21:32:35.427Z,,0,,,NaN,,,,,,false,,,,264104.59999999404,264104.59999999404,,264104.2000000179,,264118.798,8,400,,,
break_continue,html.Screen,4_45_2,2023-10-30T21:32:35.428Z,,0,,,NaN,,,,,,false,,,,264105.09999999404,264104.90000000596,,264104.8000000119,,264118.798,8,400,,,
sequence,flow.Sequence,4_45,2023-10-30T21:32:35.428Z,,0,,,3121.1710000059684,completion,,,,,false,,,,264105.2000000179,264104.90000000596,260967.055,260981.30000001192,260983.729,264118.798,8,400,,,
trial,html.Screen,4_46_0,2023-10-30T21:32:39.081Z,,0,1,,3639.1020000059507,response,ISIC_1473511.JPG,9,ISIC_0029343.JPG,ISIC_1473511.JPG,false,1,keypress(m),500,267758.09999999404,267757.90000000596,264102.124,264105.2000000179,264118.798,267770.404,8,400,47,,ISIC_0029343.JPG
break,html.Screen,4_46_1,2023-10-30T21:32:39.082Z,,0,,,NaN,,,,,,false,,,,267758.90000000596,267758.8000000119,,267758.40000000596,,267770.404,8,400,,,
break_continue,html.Screen,4_46_2,2023-10-30T21:32:39.082Z,,0,,,NaN,,,,,,false,,,,267759.3000000119,267759.09999999404,,267759,,267770.404,8,400,,,
sequence,flow.Sequence,4_46,2023-10-30T21:32:39.082Z,,0,,,3640.3019999940298,completion,,,,,false,,,,267759.40000000596,267759.09999999404,264102.124,264105.2000000179,264118.798,267770.404,8,400,,,
trial,html.Screen,4_47_0,2023-10-30T21:32:42.721Z,,0,1,,3626.3960000119405,response,ISIC_9512048.JPG,7,ISIC_0067873.JPG,ISIC_9512048.JPG,false,1,keypress(m),500,271397.8000000119,271396.8000000119,267753.73,267759.40000000596,267770.404,271405.336,8,400,48,,ISIC_0067873.JPG
break,html.Screen,4_47_1,2023-10-30T21:32:42.721Z,,0,,,NaN,,,,,,false,,,,271398.59999999404,271398.40000000596,,271398,,271405.336,8,400,,,
break_continue,html.Screen,4_47_2,2023-10-30T21:32:42.722Z,,0,,,NaN,,,,,,false,,,,271398.90000000596,271398.8000000119,,271398.7000000179,,271405.336,8,400,,,
sequence,flow.Sequence,4_47,2023-10-30T21:32:42.722Z,,0,,,3628.3960000119405,completion,,,,,false,,,,271399,271398.8000000119,267753.73,267759.40000000596,267770.404,271405.336,8,400,,,
trial,html.Screen,4_48_0,2023-10-30T21:32:46.453Z,,0,1,,3724.6639999999898,response,ISIC_0060700.JPG,8,ISIC_0027604.JPG,ISIC_0060700.JPG,false,1,keypress(m),500,275130.09999999404,275130,271388.662,271399.2000000179,271405.336,275140.661,8,400,49,,ISIC_0027604.JPG
break,html.Screen,4_48_1,2023-10-30T21:32:46.454Z,,0,,,NaN,,,,,,false,,,,275130.90000000596,275130.7000000179,,275130.3000000119,,275140.661,8,400,,,
break_continue,html.Screen,4_48_2,2023-10-30T21:32:46.454Z,,0,,,NaN,,,,,,false,,,,275131.2000000179,275131.09999999404,,275130.90000000596,,275140.661,8,400,,,
sequence,flow.Sequence,4_48,2023-10-30T21:32:46.454Z,,0,,,3725.7639999940293,completion,,,,,false,,,,275131.3000000119,275131.09999999404,271388.662,271399.2000000179,271405.336,275140.661,8,400,,,
trial,html.Screen,4_49_0,2023-10-30T21:32:49.227Z,,0,1,,2763.5390000178595,response,ISIC_0026545.JPG,7,ISIC_9900191.JPG,ISIC_9900191.JPG,false,0,keypress(z),500,277904.40000000596,277904.2000000179,275123.987,275131.40000000596,275140.661,277908.545,8,400,50,,ISIC_0026545.JPG
break,html.Screen,4_49_1,2023-10-30T21:32:59.223Z,,0,,,10004.738000000012,timeout,,,,,false,,,,287899.3000000119,287896.609,277891.871,277904.5,277908.545,287913.283,8,400,,,
break_continue,html.Screen,4_49_2,2023-10-30T21:33:00.852Z,,0,,,1598.9170000178856,response,,,,,false,continue,keypress(Space),,289528.40000000596,289512.2000000179,287896.609,287899.40000000596,287913.283,289530.661,8,400,,,
sequence,flow.Sequence,4_49,2023-10-30T21:33:00.852Z,,0,,,14371.53900001786,completion,,,,,false,,,,289528.5,289512.2000000179,275123.987,275131.3000000119,275140.661,289530.661,8,400,,,
trial,html.Screen,4_50_0,2023-10-30T21:33:05.480Z,,0,2,,4626.139000011899,response,ISIC_5623844.JPG,6,ISIC_0012904.JPG,ISIC_5623844.JPG,false,1,keypress(m),500,294157.09999999404,294156.8000000119,289513.987,289528.7000000179,289530.661,294166.033,8,400,1,,ISIC_0012904.JPG
break,html.Screen,4_50_1,2023-10-30T21:33:05.481Z,,0,,,NaN,,,,,,false,,,,294157.8000000119,294157.7000000179,,294157.3000000119,,294166.033,8,400,,,
break_continue,html.Screen,4_50_2,2023-10-30T21:33:05.482Z,,0,,,NaN,,,,,,false,,,,294158.09999999404,294158,,294157.90000000596,,294166.033,8,400,,,
sequence,flow.Sequence,4_50,2023-10-30T21:33:05.482Z,,0,,,4627.338999999978,completion,,,,,false,,,,294158.3000000119,294158,289513.987,289528.59999999404,289530.661,294166.033,8,400,,,
trial,html.Screen,4_51_0,2023-10-30T21:33:08.476Z,,0,2,,2986.1670000178856,response,ISIC_0055404.JPG,8,ISIC_0064656.JPG,ISIC_0064656.JPG,false,0,keypress(z),500,297152.5,297152.2000000179,294149.359,294158.40000000596,294166.033,297167.696,8,400,2,,ISIC_0055404.JPG
break,html.Screen,4_51_1,2023-10-30T21:33:08.477Z,,0,,,NaN,,,,,,false,,,,297153.3000000119,297153.09999999404,,297152.7000000179,,297167.696,8,400,,,
break_continue,html.Screen,4_51_2,2023-10-30T21:33:08.477Z,,0,,,NaN,,,,,,false,,,,297153.5,297153.40000000596,,297153.3000000119,,297167.696,8,400,,,
sequence,flow.Sequence,4_51,2023-10-30T21:33:08.477Z,,0,,,2987.3670000059647,completion,,,,,false,,,,297153.7000000179,297153.40000000596,294149.359,294158.3000000119,294166.033,297167.696,8,400,,,
trial,html.Screen,4_52_0,2023-10-30T21:33:11.346Z,,0,2,,2854.4039999940433,response,ISIC_0003550.JPG,6,ISIC_0069193.JPG,ISIC_0003550.JPG,false,1,keypress(m),500,300022.3000000119,300022.09999999404,297151.022,297153.90000000596,297167.696,300035.624,8,400,3,,ISIC_0069193.JPG
break,html.Screen,4_52_1,2023-10-30T21:33:11.347Z,,0,,,NaN,,,,,,false,,,,300023.09999999404,300022.90000000596,,300022.5,,300035.624,8,400,,,
break_continue,html.Screen,4_52_2,2023-10-30T21:33:11.347Z,,0,,,NaN,,,,,,false,,,,300023.3000000119,300023.2000000179,,300023.09999999404,,300035.624,8,400,,,
sequence,flow.Sequence,4_52,2023-10-30T21:33:11.347Z,,0,,,2855.504000017885,completion,,,,,false,,,,300023.5,300023.2000000179,297151.022,297153.8000000119,297167.696,300035.624,8,400,,,
trial,html.Screen,4_53_0,2023-10-30T21:33:14.409Z,,0,2,,3049.8759999999893,response,ISIC_0056572.JPG,7,ISIC_0032046.JPG,ISIC_0032046.JPG,false,0,keypress(z),500,303085.8000000119,303085.5,300018.95,300023.59999999404,300035.624,303086.966,8,400,4,,ISIC_0056572.JPG
break,html.Screen,4_53_1,2023-10-30T21:33:14.410Z,,0,,,NaN,,,,,,false,,,,303086.5,303086.3000000119,,303086,,303086.966,8,400,,,
break_continue,html.Screen,4_53_2,2023-10-30T21:33:14.411Z,,0,,,NaN,,,,,,false,,,,303086.8000000119,303086.7000000179,,303086.59999999404,,303086.966,8,400,,,
sequence,flow.Sequence,4_53,2023-10-30T21:33:14.411Z,,0,,,3051.0760000178707,completion,,,,,false,,,,303087,303086.7000000179,300018.95,300023.59999999404,300035.624,303086.966,8,400,,,
trial,html.Screen,4_54_0,2023-10-30T21:33:17.631Z,,0,2,,3220.2340000178665,response,ISIC_0000572.JPG,8,ISIC_7550510.JPG,ISIC_0000572.JPG,false,1,keypress(m),500,306307.5,306307.2000000179,303070.292,303087.09999999404,303086.966,306322.074,8,400,5,,ISIC_7550510.JPG
break,html.Screen,4_54_1,2023-10-30T21:33:17.632Z,,0,,,NaN,,,,,,false,,,,306308.2000000179,306308.09999999404,,306307.7000000179,,306322.074,8,400,,,
break_continue,html.Screen,4_54_2,2023-10-30T21:33:17.632Z,,0,,,NaN,,,,,,false,,,,306308.5,306308.40000000596,,306308.40000000596,,306322.074,8,400,,,
sequence,flow.Sequence,4_54,2023-10-30T21:33:17.632Z,,0,,,3221.4340000059456,completion,,,,,false,,,,306308.7000000179,306308.40000000596,303070.292,303087.09999999404,303086.966,306322.074,8,400,,,
trial,html.Screen,4_55_0,2023-10-30T21:33:21.829Z,,0,2,,4183.025999994017,response,ISIC_6260969.JPG,8,ISIC_6489993.JPG,ISIC_6489993.JPG,false,0,keypress(z),500,310505.40000000596,310505.09999999404,306305.4,306308.8000000119,306322.074,310507.248,8,400,6,,ISIC_6260969.JPG
break,html.Screen,4_55_1,2023-10-30T21:33:21.830Z,,0,,,NaN,,,,,,false,,,,310506.09999999404,310506,,310505.59999999404,,310507.248,8,400,,,
break_continue,html.Screen,4_55_2,2023-10-30T21:33:21.830Z,,0,,,NaN,,,,,,false,,,,310506.5,310506.40000000596,,310506.3000000119,,310507.248,8,400,,,
sequence,flow.Sequence,4_55,2023-10-30T21:33:21.831Z,,0,,,4184.326000005938,completion,,,,,false,,,,310506.7000000179,310506.40000000596,306305.4,306308.8000000119,306322.074,310507.248,8,400,,,
trial,html.Screen,4_56_0,2023-10-30T21:33:24.779Z,,0,2,,2947.5520000118995,response,ISIC_0013736.JPG,8,ISIC_0014428.JPG,ISIC_0014428.JPG,false,0,keypress(z),500,313455.09999999404,313454.8000000119,310490.574,310506.7000000179,310507.248,313458.546,8,400,7,,ISIC_0013736.JPG
break,html.Screen,4_56_1,2023-10-30T21:33:24.780Z,,0,,,NaN,,,,,,false,,,,313455.8000000119,313455.59999999404,,313455.3000000119,,313458.546,8,400,,,
break_continue,html.Screen,4_56_2,2023-10-30T21:33:24.780Z,,0,,,NaN,,,,,,false,,,,313456.2000000179,313456,,313455.90000000596,,313458.546,8,400,,,
sequence,flow.Sequence,4_56,2023-10-30T21:33:24.780Z,,0,,,2948.7519999999786,completion,,,,,false,,,,313456.2000000179,313456,310490.574,310506.7000000179,310507.248,313458.546,8,400,,,
trial,html.Screen,4_57_0,2023-10-30T21:33:28.339Z,,0,2,,3556.1540000179084,response,ISIC_4960784.JPG,7,ISIC_2400177.JPG,ISIC_4960784.JPG,false,1,keypress(m),500,317015,317014.7000000179,313441.872,313456.40000000596,313458.546,317027.131,8,400,8,,ISIC_2400177.JPG
break,html.Screen,4_57_1,2023-10-30T21:33:28.340Z,,0,,,NaN,,,,,,false,,,,317015.7000000179,317015.59999999404,,317015.2000000179,,317027.131,8,400,,,
break_continue,html.Screen,4_57_2,2023-10-30T21:33:28.340Z,,0,,,NaN,,,,,,false,,,,317016.09999999404,317015.90000000596,,317015.90000000596,,317027.131,8,400,,,
sequence,flow.Sequence,4_57,2023-10-30T21:33:28.340Z,,0,,,3557.3540000059875,completion,,,,,false,,,,317016.2000000179,317015.90000000596,313441.872,313456.3000000119,313458.546,317027.131,8,400,,,
trial,html.Screen,4_58_0,2023-10-30T21:33:31.225Z,,0,2,,2873.169000011927,response,ISIC_0033966.JPG,6,ISIC_9742891.JPG,ISIC_9742891.JPG,false,0,keypress(z),500,319900.5,319900.3000000119,317010.457,317016.40000000596,317027.131,319911.733,8,400,9,,ISIC_0033966.JPG
break,html.Screen,4_58_1,2023-10-30T21:33:31.225Z,,0,,,NaN,,,,,,false,,,,319901.2000000179,319901.09999999404,,319900.59999999404,,319911.733,8,400,,,
break_continue,html.Screen,4_58_2,2023-10-30T21:33:31.226Z,,0,,,NaN,,,,,,false,,,,319901.5,319901.40000000596,,319901.3000000119,,319911.733,8,400,,,
sequence,flow.Sequence,4_58,2023-10-30T21:33:31.226Z,,0,,,2874.2690000059665,completion,,,,,false,,,,319901.7000000179,319901.40000000596,317010.457,317016.3000000119,317027.131,319911.733,8,400,,,
trial,html.Screen,4_59_0,2023-10-30T21:33:34.336Z,,0,2,,3099.467000017874,response,ISIC_0067597.JPG,6,ISIC_7768567.JPG,ISIC_7768567.JPG,false,0,keypress(z),500,323011.5,323011.2000000179,319895.059,319901.8000000119,319911.733,323013.097,8,400,10,,ISIC_0067597.JPG
break,html.Screen,4_59_1,2023-10-30T21:33:34.337Z,,0,,,NaN,,,,,,false,,,,323012.40000000596,323012.2000000179,,323011.8000000119,,323013.097,8,400,,,
break_continue,html.Screen,4_59_2,2023-10-30T21:33:34.337Z,,0,,,NaN,,,,,,false,,,,323012.7000000179,323012.5,,323012.40000000596,,323013.097,8,400,,,
sequence,flow.Sequence,4_59,2023-10-30T21:33:34.337Z,,0,,,3100.7669999999925,completion,,,,,false,,,,323012.8000000119,323012.5,319895.059,319901.8000000119,319911.733,323013.097,8,400,,,
trial,html.Screen,4_60_0,2023-10-30T21:33:37.399Z,,0,2,,3060.8030000059516,response,ISIC_0033119.JPG,5,ISIC_6352565.JPG,ISIC_6352565.JPG,false,0,keypress(z),500,326074.2000000179,326073.90000000596,322996.423,323013,323013.097,326081.471,8,400,11,,ISIC_0033119.JPG
break,html.Screen,4_60_1,2023-10-30T21:33:37.399Z,,0,,,NaN,,,,,,false,,,,326074.90000000596,326074.7000000179,,326074.40000000596,,326081.471,8,400,,,
break_continue,html.Screen,4_60_2,2023-10-30T21:33:37.400Z,,0,,,NaN,,,,,,false,,,,326075.2000000179,326075.09999999404,,326075.09999999404,,326081.471,8,400,,,
sequence,flow.Sequence,4_60,2023-10-30T21:33:37.400Z,,0,,,3062.0029999940307,completion,,,,,false,,,,326075.40000000596,326075.09999999404,322996.423,323013,323013.097,326081.471,8,400,,,
trial,html.Screen,4_61_0,2023-10-30T21:33:40.492Z,,0,2,,3085.729000017862,response,ISIC_7766007.JPG,9,ISIC_0066106.JPG,ISIC_7766007.JPG,false,1,keypress(m),500,329167.40000000596,329167.2000000179,326064.797,326075.5,326081.471,329182.835,8,400,12,,ISIC_0066106.JPG
break,html.Screen,4_61_1,2023-10-30T21:33:40.493Z,,0,,,NaN,,,,,,false,,,,329168.09999999404,329167.90000000596,,329167.5,,329182.835,8,400,,,
break_continue,html.Screen,4_61_2,2023-10-30T21:33:40.493Z,,0,,,NaN,,,,,,false,,,,329168.40000000596,329168.3000000119,,329168.2000000179,,329182.835,8,400,,,
sequence,flow.Sequence,4_61,2023-10-30T21:33:40.493Z,,0,,,3086.8290000119014,completion,,,,,false,,,,329168.59999999404,329168.3000000119,326064.797,326075.5,326081.471,329182.835,8,400,,,
trial,html.Screen,4_62_0,2023-10-30T21:33:43.762Z,,0,2,,3254.2649999940186,response,ISIC_0056635.JPG,8,ISIC_6973257.JPG,ISIC_0056635.JPG,false,1,keypress(m),500,332437.40000000596,332437.09999999404,329166.161,329168.7000000179,329182.835,332450.939,8,400,13,,ISIC_6973257.JPG
break,html.Screen,4_62_1,2023-10-30T21:33:43.763Z,,0,,,NaN,,,,,,false,,,,332438.09999999404,332438,,332437.5,,332450.939,8,400,,,
break_continue,html.Screen,4_62_2,2023-10-30T21:33:43.763Z,,0,,,NaN,,,,,,false,,,,332438.40000000596,332438.2000000179,,332438.2000000179,,332450.939,8,400,,,
sequence,flow.Sequence,4_62,2023-10-30T21:33:43.763Z,,0,,,3255.3650000178604,completion,,,,,false,,,,332438.5,332438.2000000179,329166.161,329168.7000000179,329182.835,332450.939,8,400,,,
trial,html.Screen,4_63_0,2023-10-30T21:33:48.920Z,,0,2,,5144.361000011908,response,ISIC_7846309.JPG,7,ISIC_0418738.JPG,ISIC_7846309.JPG,false,1,keypress(m),500,337595.59999999404,337595.3000000119,332434.265,332438.7000000179,332450.939,337603.553,8,400,14,,ISIC_0418738.JPG
break,html.Screen,4_63_1,2023-10-30T21:33:48.921Z,,0,,,NaN,,,,,,false,,,,337596.40000000596,337596.2000000179,,337595.8000000119,,337603.553,8,400,,,
break_continue,html.Screen,4_63_2,2023-10-30T21:33:48.921Z,,0,,,NaN,,,,,,false,,,,337596.59999999404,337596.5,,337596.5,,337603.553,8,400,,,
sequence,flow.Sequence,4_63,2023-10-30T21:33:48.922Z,,0,,,5145.560999999987,completion,,,,,false,,,,337596.8000000119,337596.5,332434.265,332438.59999999404,332450.939,337603.553,8,400,,,
trial,html.Screen,4_64_0,2023-10-30T21:33:51.647Z,,0,2,,2718.347000005946,response,ISIC_0030404.JPG,8,ISIC_0067338.JPG,ISIC_0067338.JPG,false,0,keypress(z),500,340322.09999999404,340321.90000000596,337586.879,337596.90000000596,337603.553,340338.089,8,400,15,,ISIC_0030404.JPG
break,html.Screen,4_64_1,2023-10-30T21:33:51.648Z,,0,,,NaN,,,,,,false,,,,340322.90000000596,340322.8000000119,,340322.40000000596,,340338.089,8,400,,,
break_continue,html.Screen,4_64_2,2023-10-30T21:33:51.648Z,,0,,,NaN,,,,,,false,,,,340323.2000000179,340323.09999999404,,340323,,340338.089,8,400,,,
sequence,flow.Sequence,4_64,2023-10-30T21:33:51.648Z,,0,,,2719.546999994025,completion,,,,,false,,,,340323.3000000119,340323.09999999404,337586.879,337596.90000000596,337603.553,340338.089,8,400,,,
trial,html.Screen,4_65_0,2023-10-30T21:33:55.000Z,,0,2,,3337.0109999940614,response,ISIC_7575246.JPG,5,ISIC_0101540.JPG,ISIC_0101540.JPG,false,0,keypress(z),500,343675.40000000596,343675.09999999404,340321.415,340323.5,340338.089,343689.563,8,400,16,,ISIC_7575246.JPG
break,html.Screen,4_65_1,2023-10-30T21:33:55.001Z,,0,,,NaN,,,,,,false,,,,343676.09999999404,343676,,343675.59999999404,,343689.563,8,400,,,
break_continue,html.Screen,4_65_2,2023-10-30T21:33:55.001Z,,0,,,NaN,,,,,,false,,,,343676.5,343676.3000000119,,343676.2000000179,,343689.563,8,400,,,
sequence,flow.Sequence,4_65,2023-10-30T21:33:55.001Z,,0,,,3338.211000011943,completion,,,,,false,,,,343676.5,343676.3000000119,340321.415,340323.5,340338.089,343689.563,8,400,,,
trial,html.Screen,4_66_0,2023-10-30T21:33:57.697Z,,0,2,,2681.8370000059367,response,ISIC_0033278.JPG,7,ISIC_1470934.JPG,ISIC_1470934.JPG,false,0,keypress(z),500,346371.59999999404,346371.40000000596,343672.889,343676.59999999404,343689.563,346374.077,8,400,17,,ISIC_0033278.JPG
break,html.Screen,4_66_1,2023-10-30T21:33:57.697Z,,0,,,NaN,,,,,,false,,,,346372.3000000119,346372.2000000179,,346371.8000000119,,346374.077,8,400,,,
break_continue,html.Screen,4_66_2,2023-10-30T21:33:57.698Z,,0,,,NaN,,,,,,false,,,,346372.7000000179,346372.5,,346372.5,,346374.077,8,400,,,
sequence,flow.Sequence,4_66,2023-10-30T21:33:57.698Z,,0,,,2682.9369999999763,completion,,,,,false,,,,346372.8000000119,346372.5,343672.889,343676.59999999404,343689.563,346374.077,8,400,,,
trial,html.Screen,4_67_0,2023-10-30T21:34:00.820Z,,0,2,,3121.0229999940493,response,ISIC_0068153.JPG,5,ISIC_6210962.JPG,ISIC_6210962.JPG,false,0,keypress(z),500,349495.40000000596,349495.09999999404,346357.403,346372.90000000596,346374.077,349509.142,8,400,18,,ISIC_0068153.JPG
break,html.Screen,4_67_1,2023-10-30T21:34:00.821Z,,0,,,NaN,,,,,,false,,,,349496.2000000179,349496,,349495.7000000179,,349509.142,8,400,,,
break_continue,html.Screen,4_67_2,2023-10-30T21:34:00.822Z,,0,,,NaN,,,,,,false,,,,349496.5,349496.40000000596,,349496.3000000119,,349509.142,8,400,,,
sequence,flow.Sequence,4_67,2023-10-30T21:34:00.822Z,,0,,,3122.3230000059702,completion,,,,,false,,,,349496.59999999404,349496.40000000596,346357.403,346372.8000000119,346374.077,349509.142,8,400,,,
trial,html.Screen,4_68_0,2023-10-30T21:34:04.682Z,,0,2,,3847.1580000119284,response,ISIC_0029495.JPG,5,ISIC_0072371.JPG,ISIC_0072371.JPG,false,0,keypress(z),500,353356.59999999404,353356.3000000119,349492.468,349496.8000000119,349509.142,353360.836,8,400,19,,ISIC_0029495.JPG
break,html.Screen,4_68_1,2023-10-30T21:34:04.683Z,,0,,,NaN,,,,,,false,,,,353357.40000000596,353357.2000000179,,353356.8000000119,,353360.836,8,400,,,
break_continue,html.Screen,4_68_2,2023-10-30T21:34:04.683Z,,0,,,NaN,,,,,,false,,,,353357.8000000119,353357.7000000179,,353357.5,,353360.836,8,400,,,
sequence,flow.Sequence,4_68,2023-10-30T21:34:04.683Z,,0,,,3848.558000017889,completion,,,,,false,,,,353357.90000000596,353357.7000000179,349492.468,349496.8000000119,349509.142,353360.836,8,400,,,
trial,html.Screen,4_69_0,2023-10-30T21:34:08.047Z,,0,2,,3360.56400000595,response,ISIC_2614347.JPG,7,ISIC_9364740.JPG,ISIC_9364740.JPG,false,0,keypress(z),500,356721.59999999404,356721.40000000596,353344.162,353358.09999999404,353360.836,356728.984,8,400,20,,ISIC_2614347.JPG
break,html.Screen,4_69_1,2023-10-30T21:34:08.048Z,,0,,,NaN,,,,,,false,,,,356722.40000000596,356722.3000000119,,356721.90000000596,,356728.984,8,400,,,
break_continue,html.Screen,4_69_2,2023-10-30T21:34:08.048Z,,0,,,NaN,,,,,,false,,,,356722.7000000179,356722.59999999404,,356722.5,,356728.984,8,400,,,
sequence,flow.Sequence,4_69,2023-10-30T21:34:08.048Z,,0,,,3361.7639999940293,completion,,,,,false,,,,356722.90000000596,356722.59999999404,353344.162,353358.09999999404,353360.836,356728.984,8,400,,,
trial,html.Screen,4_70_0,2023-10-30T21:34:11.064Z,,0,2,,3008.9160000059637,response,ISIC_0070352.JPG,8,ISIC_0062005.JPG,ISIC_0070352.JPG,false,1,keypress(m),500,359738.09999999404,359737.90000000596,356712.31,356723,356728.984,359747.327,8,400,21,,ISIC_0062005.JPG
break,html.Screen,4_70_1,2023-10-30T21:34:11.064Z,,0,,,NaN,,,,,,false,,,,359738.8000000119,359738.59999999404,,359738.3000000119,,359747.327,8,400,,,
break_continue,html.Screen,4_70_2,2023-10-30T21:34:11.064Z,,0,,,NaN,,,,,,false,,,,359739.09999999404,359739,,359738.8000000119,,359747.327,8,400,,,
sequence,flow.Sequence,4_70,2023-10-30T21:34:11.065Z,,0,,,3010.0160000000033,completion,,,,,false,,,,359739.3000000119,359739,356712.31,356723,356728.984,359747.327,8,400,,,
trial,html.Screen,4_71_0,2023-10-30T21:34:15.021Z,,0,2,,3947.9730000119307,response,ISIC_4641968.JPG,8,ISIC_2196127.JPG,ISIC_2196127.JPG,false,0,keypress(z),500,363695.40000000596,363695.3000000119,359730.653,359739.3000000119,359747.327,363699.065,8,400,22,,ISIC_4641968.JPG
break,html.Screen,4_71_1,2023-10-30T21:34:15.022Z,,0,,,NaN,,,,,,false,,,,363696.09999999404,363695.90000000596,,363695.59999999404,,363699.065,8,400,,,
break_continue,html.Screen,4_71_2,2023-10-30T21:34:15.022Z,,0,,,NaN,,,,,,false,,,,363696.40000000596,363696.3000000119,,363696.2000000179,,363699.065,8,400,,,
sequence,flow.Sequence,4_71,2023-10-30T21:34:15.022Z,,0,,,3948.9730000119307,completion,,,,,false,,,,363696.5,363696.3000000119,359730.653,359739.3000000119,359747.327,363699.065,8,400,,,
trial,html.Screen,4_72_0,2023-10-30T21:34:17.924Z,,0,2,,2898.635000017879,response,ISIC_0061580.JPG,8,ISIC_0034313.JPG,ISIC_0061580.JPG,false,1,keypress(m),500,366598,366597.7000000179,363682.391,363696.7000000179,363699.065,366617.015,8,400,23,,ISIC_0034313.JPG
break,html.Screen,4_72_1,2023-10-30T21:34:17.924Z,,0,,,NaN,,,,,,false,,,,366598.7000000179,366598.59999999404,,366598.09999999404,,366617.015,8,400,,,
break_continue,html.Screen,4_72_2,2023-10-30T21:34:17.925Z,,0,,,NaN,,,,,,false,,,,366598.90000000596,366598.90000000596,,366598.8000000119,,366617.015,8,400,,,
sequence,flow.Sequence,4_72,2023-10-30T21:34:17.925Z,,0,,,2899.835000005958,completion,,,,,false,,,,366599.09999999404,366598.90000000596,363682.391,363696.7000000179,363699.065,366617.015,8,400,,,
trial,html.Screen,4_73_0,2023-10-30T21:34:20.856Z,,0,2,,2913.3850000059465,response,ISIC_2634356.JPG,9,ISIC_0029761.JPG,ISIC_2634356.JPG,false,1,keypress(m),500,369530.7000000179,369530.40000000596,366600.341,366599.2000000179,366617.015,369535.303,8,400,24,,ISIC_0029761.JPG
break,html.Screen,4_73_1,2023-10-30T21:34:20.857Z,,0,,,NaN,,,,,,false,,,,369531.5,369531.40000000596,,369531,,369535.303,8,400,,,
break_continue,html.Screen,4_73_2,2023-10-30T21:34:20.858Z,,0,,,NaN,,,,,,false,,,,369531.90000000596,369531.8000000119,,369531.7000000179,,369535.303,8,400,,,
sequence,flow.Sequence,4_73,2023-10-30T21:34:20.858Z,,0,,,2914.785000011907,completion,,,,,false,,,,369532,369531.8000000119,366600.341,366599.2000000179,366617.015,369535.303,8,400,,,
trial,html.Screen,4_74_0,2023-10-30T21:34:24.781Z,,0,2,,3919.097000005946,response,ISIC_9929097.JPG,7,ISIC_3012778.JPG,ISIC_9929097.JPG,false,1,keypress(m),500,373454.8000000119,373454.40000000596,369518.629,369532.09999999404,369535.303,373470.367,8,400,25,,ISIC_3012778.JPG
break,html.Screen,4_74_1,2023-10-30T21:34:24.781Z,,0,,,NaN,,,,,,false,,,,373455.59999999404,373455.40000000596,,373455,,373470.367,8,400,,,
break_continue,html.Screen,4_74_2,2023-10-30T21:34:24.782Z,,0,,,NaN,,,,,,false,,,,373455.8000000119,373455.7000000179,,373455.59999999404,,373470.367,8,400,,,
sequence,flow.Sequence,4_74,2023-10-30T21:34:24.782Z,,0,,,3920.397000017867,completion,,,,,false,,,,373456,373455.7000000179,369518.629,369532.09999999404,369535.303,373470.367,8,400,,,
trial,html.Screen,4_75_0,2023-10-30T21:34:27.559Z,,0,2,,2762.833000017854,response,ISIC_0058676.JPG,7,ISIC_2513933.JPG,ISIC_2513933.JPG,false,0,keypress(z),500,376233.5,376233.2000000179,373453.693,373456.09999999404,373470.367,376238.251,8,400,26,,ISIC_0058676.JPG
break,html.Screen,4_75_1,2023-10-30T21:34:27.560Z,,0,,,NaN,,,,,,false,,,,376234.2000000179,376234.09999999404,,376233.7000000179,,376238.251,8,400,,,
break_continue,html.Screen,4_75_2,2023-10-30T21:34:27.560Z,,0,,,NaN,,,,,,false,,,,376234.59999999404,376234.5,,376234.3000000119,,376238.251,8,400,,,
sequence,flow.Sequence,4_75,2023-10-30T21:34:27.561Z,,0,,,2764.1329999999725,completion,,,,,false,,,,376234.7000000179,376234.5,373453.693,373456.09999999404,373470.367,376238.251,8,400,,,
trial,html.Screen,4_76_0,2023-10-30T21:34:32.077Z,,0,2,,4512.449000017892,response,ISIC_0027480.JPG,5,ISIC_0072286.JPG,ISIC_0072286.JPG,false,0,keypress(z),500,380751,380750.7000000179,376221.577,376234.8000000119,376238.251,380757.258,8,400,27,,ISIC_0027480.JPG
break,html.Screen,4_76_1,2023-10-30T21:34:32.078Z,,0,,,NaN,,,,,,false,,,,380751.8000000119,380751.59999999404,,380751.2000000179,,380757.258,8,400,,,
break_continue,html.Screen,4_76_2,2023-10-30T21:34:32.078Z,,0,,,NaN,,,,,,false,,,,380752.09999999404,380751.90000000596,,380751.90000000596,,380757.258,8,400,,,
sequence,flow.Sequence,4_76,2023-10-30T21:34:32.078Z,,0,,,4513.649000005971,completion,,,,,false,,,,380752.3000000119,380751.90000000596,376221.577,376234.8000000119,376238.251,380757.258,8,400,,,
trial,html.Screen,4_77_0,2023-10-30T21:34:36.980Z,,0,2,,4896.442000017909,response,ISIC_5849178.JPG,8,ISIC_4123109.JPG,ISIC_4123109.JPG,false,0,keypress(z),500,385653.90000000596,385653.7000000179,380740.584,380752.3000000119,380757.258,385659.414,8,400,28,,ISIC_5849178.JPG
break,html.Screen,4_77_1,2023-10-30T21:34:36.981Z,,0,,,NaN,,,,,,false,,,,385654.7000000179,385654.5,,385654.2000000179,,385659.414,8,400,,,
break_continue,html.Screen,4_77_2,2023-10-30T21:34:36.981Z,,0,,,NaN,,,,,,false,,,,385655,385655,,385654.8000000119,,385659.414,8,400,,,
sequence,flow.Sequence,4_77,2023-10-30T21:34:36.981Z,,0,,,4897.7420000000275,completion,,,,,false,,,,385655.2000000179,385655,380740.584,380752.3000000119,380757.258,385659.414,8,400,,,
trial,html.Screen,4_78_0,2023-10-30T21:34:40.142Z,,0,2,,3155.5860000000102,response,ISIC_0031900.JPG,5,ISIC_0032272.JPG,ISIC_0032272.JPG,false,0,keypress(z),500,388815.3000000119,388815,385642.74,385655.2000000179,385659.414,388827.848,8,400,29,,ISIC_0031900.JPG
break,html.Screen,4_78_1,2023-10-30T21:34:40.142Z,,0,,,NaN,,,,,,false,,,,388816,388815.90000000596,,388815.5,,388827.848,8,400,,,
break_continue,html.Screen,4_78_2,2023-10-30T21:34:40.143Z,,0,,,NaN,,,,,,false,,,,388816.40000000596,388816.3000000119,,388816.09999999404,,388827.848,8,400,,,
sequence,flow.Sequence,4_78,2023-10-30T21:34:40.143Z,,0,,,3156.886000011931,completion,,,,,false,,,,388816.5,388816.3000000119,385642.74,385655.2000000179,385659.414,388827.848,8,400,,,
trial,html.Screen,4_79_0,2023-10-30T21:34:43.282Z,,0,2,,3127.7519999940414,response,ISIC_0025512.JPG,8,ISIC_0032635.JPG,ISIC_0032635.JPG,false,0,keypress(z),500,391955.90000000596,391955.59999999404,388811.174,388816.59999999404,388827.848,391962.56,8,400,30,,ISIC_0025512.JPG
break,html.Screen,4_79_1,2023-10-30T21:34:43.283Z,,0,,,NaN,,,,,,false,,,,391956.59999999404,391956.5,,391956.09999999404,,391962.56,8,400,,,
break_continue,html.Screen,4_79_2,2023-10-30T21:34:43.283Z,,0,,,NaN,,,,,,false,,,,391957,391956.90000000596,,391956.7000000179,,391962.56,8,400,,,
sequence,flow.Sequence,4_79,2023-10-30T21:34:43.283Z,,0,,,3129.0520000059623,completion,,,,,false,,,,391957.09999999404,391956.90000000596,388811.174,388816.59999999404,388827.848,391962.56,8,400,,,
trial,html.Screen,4_80_0,2023-10-30T21:34:46.427Z,,0,2,,3138.2400000119233,response,ISIC_1353668.JPG,7,ISIC_0034050.JPG,ISIC_1353668.JPG,false,1,keypress(m),500,395101.09999999404,395100.8000000119,391945.886,391957.2000000179,391962.56,395113.946,8,400,31,,ISIC_0034050.JPG
break,html.Screen,4_80_1,2023-10-30T21:34:46.428Z,,0,,,NaN,,,,,,false,,,,395101.8000000119,395101.7000000179,,395101.2000000179,,395113.946,8,400,,,
break_continue,html.Screen,4_80_2,2023-10-30T21:34:46.429Z,,0,,,NaN,,,,,,false,,,,395102.09999999404,395102,,395101.90000000596,,395113.946,8,400,,,
sequence,flow.Sequence,4_80,2023-10-30T21:34:46.429Z,,0,,,3139.4400000000023,completion,,,,,false,,,,395102.2000000179,395102,391945.886,391957.2000000179,391962.56,395113.946,8,400,,,
trial,html.Screen,4_81_0,2023-10-30T21:34:49.394Z,,0,2,,2952.8540000119247,response,ISIC_0014912.JPG,8,ISIC_4271108.JPG,ISIC_4271108.JPG,false,0,keypress(z),500,398067.09999999404,398066.8000000119,395097.272,395102.40000000596,395113.946,398081.918,8,400,32,,ISIC_0014912.JPG
break,html.Screen,4_81_1,2023-10-30T21:34:49.394Z,,0,,,NaN,,,,,,false,,,,398067.90000000596,398067.7000000179,,398067.40000000596,,398081.918,8,400,,,
break_continue,html.Screen,4_81_2,2023-10-30T21:34:49.395Z,,0,,,NaN,,,,,,false,,,,398068.3000000119,398068.2000000179,,398068.09999999404,,398081.918,8,400,,,
sequence,flow.Sequence,4_81,2023-10-30T21:34:49.395Z,,0,,,2954.254000017885,completion,,,,,false,,,,398068.40000000596,398068.2000000179,395097.272,395102.40000000596,395113.946,398081.918,8,400,,,
trial,html.Screen,4_82_0,2023-10-30T21:34:52.427Z,,0,2,,3018.4820000059553,response,ISIC_3916064.JPG,8,ISIC_0026868.JPG,ISIC_3916064.JPG,false,1,keypress(m),500,401100.59999999404,401100.40000000596,398065.244,398068.59999999404,398081.918,401116.933,8,400,33,,ISIC_0026868.JPG
break,html.Screen,4_82_1,2023-10-30T21:34:52.428Z,,0,,,NaN,,,,,,false,,,,401101.5,401101.3000000119,,401100.90000000596,,401116.933,8,400,,,
break_continue,html.Screen,4_82_2,2023-10-30T21:34:52.428Z,,0,,,NaN,,,,,,false,,,,401101.8000000119,401101.7000000179,,401101.59999999404,,401116.933,8,400,,,
sequence,flow.Sequence,4_82,2023-10-30T21:34:52.429Z,,0,,,3019.7820000178763,completion,,,,,false,,,,401102,401101.7000000179,398065.244,398068.5,398081.918,401116.933,8,400,,,
trial,html.Screen,4_83_0,2023-10-30T21:34:55.792Z,,0,2,,3348.4670000059414,response,ISIC_9927221.JPG,7,ISIC_0012137.JPG,ISIC_9927221.JPG,false,1,keypress(m),500,404465.7000000179,404465.40000000596,401100.259,401102.2000000179,401116.933,404468.407,8,400,34,,ISIC_0012137.JPG
break,html.Screen,4_83_1,2023-10-30T21:34:55.793Z,,0,,,NaN,,,,,,false,,,,404466.40000000596,404466.3000000119,,404465.90000000596,,404468.407,8,400,,,
break_continue,html.Screen,4_83_2,2023-10-30T21:34:55.793Z,,0,,,NaN,,,,,,false,,,,404466.8000000119,404466.59999999404,,404466.5,,404468.407,8,400,,,
sequence,flow.Sequence,4_83,2023-10-30T21:34:55.794Z,,0,,,3349.6669999940204,completion,,,,,false,,,,404466.90000000596,404466.59999999404,401100.259,401102.2000000179,401116.933,404468.407,8,400,,,
trial,html.Screen,4_84_0,2023-10-30T21:35:00.152Z,,0,2,,4356.692999994033,response,ISIC_8483382.JPG,7,ISIC_0067097.JPG,ISIC_8483382.JPG,false,1,keypress(m),500,408825.3000000119,408825.09999999404,404451.733,404467,404468.407,408836.995,8,400,35,,ISIC_0067097.JPG
break,html.Screen,4_84_1,2023-10-30T21:35:00.153Z,,0,,,NaN,,,,,,false,,,,408825.90000000596,408825.8000000119,,408825.40000000596,,408836.995,8,400,,,
break_continue,html.Screen,4_84_2,2023-10-30T21:35:00.153Z,,0,,,NaN,,,,,,false,,,,408826.40000000596,408826.2000000179,,408826.09999999404,,408836.995,8,400,,,
sequence,flow.Sequence,4_84,2023-10-30T21:35:00.153Z,,0,,,4357.793000017875,completion,,,,,false,,,,408826.5,408826.2000000179,404451.733,404467,404468.407,408836.995,8,400,,,
trial,html.Screen,4_85_0,2023-10-30T21:35:03.869Z,,0,2,,3704.705000017886,response,ISIC_0029693.JPG,7,ISIC_0025708.JPG,ISIC_0025708.JPG,false,0,keypress(z),500,412541.90000000596,412541.7000000179,408820.321,408826.8000000119,408836.995,412555.641,8,400,36,,ISIC_0029693.JPG
break,html.Screen,4_85_1,2023-10-30T21:35:03.870Z,,0,,,NaN,,,,,,false,,,,412542.59999999404,412542.5,,412542.09999999404,,412555.641,8,400,,,
break_continue,html.Screen,4_85_2,2023-10-30T21:35:03.870Z,,0,,,NaN,,,,,,false,,,,412543,412542.90000000596,,412542.7000000179,,412555.641,8,400,,,
sequence,flow.Sequence,4_85,2023-10-30T21:35:03.870Z,,0,,,3705.905000005965,completion,,,,,false,,,,412543.2000000179,412542.90000000596,408820.321,408826.59999999404,408836.995,412555.641,8,400,,,
trial,html.Screen,4_86_0,2023-10-30T21:35:07.089Z,,0,2,,3205.8589999999967,response,ISIC_6628544.JPG,6,ISIC_0055474.JPG,ISIC_6628544.JPG,false,1,keypress(m),500,415761.90000000596,415761.5,412538.967,412543.2000000179,412555.641,415773.723,8,400,37,,ISIC_0055474.JPG
break,html.Screen,4_86_1,2023-10-30T21:35:07.090Z,,0,,,NaN,,,,,,false,,,,415762.59999999404,415762.40000000596,,415762.09999999404,,415773.723,8,400,,,
break_continue,html.Screen,4_86_2,2023-10-30T21:35:07.090Z,,0,,,NaN,,,,,,false,,,,415762.90000000596,415762.8000000119,,415762.7000000179,,415773.723,8,400,,,
sequence,flow.Sequence,4_86,2023-10-30T21:35:07.090Z,,0,,,3207.1590000119177,completion,,,,,false,,,,415763.09999999404,415762.8000000119,412538.967,412543.2000000179,412555.641,415773.723,8,400,,,
trial,html.Screen,4_87_0,2023-10-30T21:35:11.669Z,,0,2,,4568.376999994041,response,ISIC_7354733.JPG,7,ISIC_0428257.JPG,ISIC_0428257.JPG,false,0,keypress(z),500,420342.3000000119,420342.09999999404,415757.049,415763.2000000179,415773.723,420359.444,8,400,38,,ISIC_7354733.JPG
break,html.Screen,4_87_1,2023-10-30T21:35:11.670Z,,0,,,NaN,,,,,,false,,,,420343.09999999404,420342.90000000596,,420342.5,,420359.444,8,400,,,
break_continue,html.Screen,4_87_2,2023-10-30T21:35:11.671Z,,0,,,NaN,,,,,,false,,,,420343.40000000596,420343.2000000179,,420343.09999999404,,420359.444,8,400,,,
sequence,flow.Sequence,4_87,2023-10-30T21:35:11.671Z,,0,,,4569.477000017883,completion,,,,,false,,,,420343.5,420343.2000000179,415757.049,415763.2000000179,415773.723,420359.444,8,400,,,
trial,html.Screen,4_88_0,2023-10-30T21:35:14.779Z,,0,2,,3092.3560000119032,response,ISIC_6168754.JPG,8,ISIC_0000142.JPG,ISIC_6168754.JPG,false,1,keypress(m),500,423452,423451.8000000119,420342.77,420343.59999999404,420359.444,423460.808,8,400,39,,ISIC_0000142.JPG
break,html.Screen,4_88_1,2023-10-30T21:35:14.780Z,,0,,,NaN,,,,,,false,,,,423452.8000000119,423452.7000000179,,423452.40000000596,,423460.808,8,400,,,
break_continue,html.Screen,4_88_2,2023-10-30T21:35:14.781Z,,0,,,NaN,,,,,,false,,,,423453.3000000119,423453.2000000179,,423453,,423460.808,8,400,,,
sequence,flow.Sequence,4_88,2023-10-30T21:35:14.781Z,,0,,,3093.7560000178637,completion,,,,,false,,,,423453.40000000596,423453.2000000179,420342.77,420343.59999999404,420359.444,423460.808,8,400,,,
trial,html.Screen,4_89_0,2023-10-30T21:35:18.432Z,,0,2,,3643.2919999940204,response,ISIC_0420249.JPG,8,ISIC_0031389.JPG,ISIC_0031389.JPG,false,0,keypress(z),500,427104.40000000596,427104.09999999404,423444.134,423453.5,423460.808,427112.414,8,400,40,,ISIC_0420249.JPG
break,html.Screen,4_89_1,2023-10-30T21:35:18.433Z,,0,,,NaN,,,,,,false,,,,427105.2000000179,427105,,427104.59999999404,,427112.414,8,400,,,
break_continue,html.Screen,4_89_2,2023-10-30T21:35:18.433Z,,0,,,NaN,,,,,,false,,,,427105.5,427105.40000000596,,427105.2000000179,,427112.414,8,400,,,
sequence,flow.Sequence,4_89,2023-10-30T21:35:18.433Z,,0,,,3644.5920000059414,completion,,,,,false,,,,427105.7000000179,427105.40000000596,423444.134,423453.5,423460.808,427112.414,8,400,,,
trial,html.Screen,4_90_0,2023-10-30T21:35:21.347Z,,0,2,,2906.68599999405,response,ISIC_0012334.JPG,7,ISIC_0067412.JPG,ISIC_0012334.JPG,false,1,keypress(m),500,430019.40000000596,430019.09999999404,427095.74,427105.8000000119,427112.414,430030.364,8,400,41,,ISIC_0067412.JPG
break,html.Screen,4_90_1,2023-10-30T21:35:21.348Z,,0,,,NaN,,,,,,false,,,,430020.2000000179,430020,,430019.59999999404,,430030.364,8,400,,,
break_continue,html.Screen,4_90_2,2023-10-30T21:35:21.348Z,,0,,,NaN,,,,,,false,,,,430020.5,430020.40000000596,,430020.2000000179,,430030.364,8,400,,,
sequence,flow.Sequence,4_90,2023-10-30T21:35:21.348Z,,0,,,2907.9860000059707,completion,,,,,false,,,,430020.59999999404,430020.40000000596,427095.74,427105.7000000179,427112.414,430030.364,8,400,,,
trial,html.Screen,4_91_0,2023-10-30T21:35:24.140Z,,0,2,,2781.536000005959,response,ISIC_7803163.JPG,7,ISIC_0065883.JPG,ISIC_7803163.JPG,false,1,keypress(m),500,432812.2000000179,432811.90000000596,430013.69,430020.8000000119,430030.364,432815.265,8,400,42,,ISIC_0065883.JPG
break,html.Screen,4_91_1,2023-10-30T21:35:24.141Z,,0,,,NaN,,,,,,false,,,,432812.90000000596,432812.8000000119,,432812.40000000596,,432815.265,8,400,,,
break_continue,html.Screen,4_91_2,2023-10-30T21:35:24.141Z,,0,,,NaN,,,,,,false,,,,432813.3000000119,432813.09999999404,,432813.09999999404,,432815.265,8,400,,,
sequence,flow.Sequence,4_91,2023-10-30T21:35:24.141Z,,0,,,2782.735999994038,completion,,,,,false,,,,432813.40000000596,432813.09999999404,430013.69,430020.8000000119,430030.364,432815.265,8,400,,,
trial,html.Screen,4_92_0,2023-10-30T21:35:27.379Z,,0,2,,3236.035000011907,response,ISIC_0014936.JPG,5,ISIC_0004558.JPG,ISIC_0004558.JPG,false,0,keypress(z),500,436051.59999999404,436051.3000000119,432798.591,432813.5,432815.265,436066.695,8,400,43,,ISIC_0014936.JPG
break,html.Screen,4_92_1,2023-10-30T21:35:27.380Z,,0,,,NaN,,,,,,false,,,,436052.3000000119,436052.2000000179,,436051.8000000119,,436066.695,8,400,,,
break_continue,html.Screen,4_92_2,2023-10-30T21:35:27.380Z,,0,,,NaN,,,,,,false,,,,436052.59999999404,436052.5,,436052.40000000596,,436066.695,8,400,,,
sequence,flow.Sequence,4_92,2023-10-30T21:35:27.380Z,,0,,,3237.234999999986,completion,,,,,false,,,,436052.8000000119,436052.5,432798.591,432813.40000000596,432815.265,436066.695,8,400,,,
trial,html.Screen,4_93_0,2023-10-30T21:35:31.192Z,,0,2,,3797.2050000059535,response,ISIC_0064669.JPG,6,ISIC_9626241.JPG,ISIC_0064669.JPG,false,1,keypress(m),500,439864.2000000179,439863.90000000596,436050.021,436052.8000000119,436066.695,439868.367,8,400,44,,ISIC_9626241.JPG
break,html.Screen,4_93_1,2023-10-30T21:35:31.193Z,,0,,,NaN,,,,,,false,,,,439864.90000000596,439864.7000000179,,439864.40000000596,,439868.367,8,400,,,
break_continue,html.Screen,4_93_2,2023-10-30T21:35:31.193Z,,0,,,NaN,,,,,,false,,,,439865.09999999404,439865,,439864.90000000596,,439868.367,8,400,,,
sequence,flow.Sequence,4_93,2023-10-30T21:35:31.193Z,,0,,,3798.304999999993,completion,,,,,false,,,,439865.2000000179,439865,436050.021,436052.8000000119,436066.695,439868.367,8,400,,,
trial,html.Screen,4_94_0,2023-10-30T21:35:34.222Z,,0,2,,3025.1329999999725,response,ISIC_0011434.JPG,7,ISIC_9052500.JPG,ISIC_9052500.JPG,false,0,keypress(z),500,442893.8000000119,442893.5,439851.693,439865.3000000119,439868.367,442903.401,8,400,45,,ISIC_0011434.JPG
break,html.Screen,4_94_1,2023-10-30T21:35:34.222Z,,0,,,NaN,,,,,,false,,,,442894.5,442894.40000000596,,442894,,442903.401,8,400,,,
break_continue,html.Screen,4_94_2,2023-10-30T21:35:34.223Z,,0,,,NaN,,,,,,false,,,,442894.90000000596,442894.7000000179,,442894.7000000179,,442903.401,8,400,,,
sequence,flow.Sequence,4_94,2023-10-30T21:35:34.223Z,,0,,,3026.333000017854,completion,,,,,false,,,,442895,442894.7000000179,439851.693,439865.3000000119,439868.367,442903.401,8,400,,,
trial,html.Screen,4_95_0,2023-10-30T21:35:36.995Z,,0,2,,2763.698999994027,response,ISIC_2106823.JPG,9,ISIC_0005655.JPG,ISIC_0005655.JPG,false,0,keypress(z),500,445667.3000000119,445667.09999999404,442886.727,442895.09999999404,442903.401,445671.285,8,400,46,,ISIC_2106823.JPG
break,html.Screen,4_95_1,2023-10-30T21:35:36.996Z,,0,,,NaN,,,,,,false,,,,445668.09999999404,445667.90000000596,,445667.5,,445671.285,8,400,,,
break_continue,html.Screen,4_95_2,2023-10-30T21:35:36.996Z,,0,,,NaN,,,,,,false,,,,445668.5,445668.40000000596,,445668.3000000119,,445671.285,8,400,,,
sequence,flow.Sequence,4_95,2023-10-30T21:35:36.997Z,,0,,,2764.999000005948,completion,,,,,false,,,,445668.59999999404,445668.40000000596,442886.727,442895.09999999404,442903.401,445671.285,8,400,,,
trial,html.Screen,4_96_0,2023-10-30T21:35:40.023Z,,0,2,,3023.814999994065,response,ISIC_4894929.JPG,9,ISIC_0011862.JPG,ISIC_4894929.JPG,false,1,keypress(m),500,448695.5,448695.09999999404,445654.611,445668.7000000179,445671.285,448705.953,8,400,47,,ISIC_0011862.JPG
break,html.Screen,4_96_1,2023-10-30T21:35:40.024Z,,0,,,NaN,,,,,,false,,,,448696.09999999404,448696,,448695.5,,448705.953,8,400,,,
break_continue,html.Screen,4_96_2,2023-10-30T21:35:40.024Z,,0,,,NaN,,,,,,false,,,,448696.3000000119,448696.3000000119,,448696.2000000179,,448705.953,8,400,,,
sequence,flow.Sequence,4_96,2023-10-30T21:35:40.025Z,,0,,,3025.0150000119465,completion,,,,,false,,,,448696.5,448696.3000000119,445654.611,445668.59999999404,445671.285,448705.953,8,400,,,
trial,html.Screen,4_97_0,2023-10-30T21:35:45.166Z,,0,2,,5131.14699999406,response,ISIC_7604870.JPG,6,ISIC_0014171.JPG,ISIC_7604870.JPG,false,1,keypress(m),500,453837.3000000119,453837.09999999404,448689.279,448696.59999999404,448705.953,453841.945,8,400,48,,ISIC_0014171.JPG
break,html.Screen,4_97_1,2023-10-30T21:35:45.166Z,,0,,,NaN,,,,,,false,,,,453838,453837.90000000596,,453837.5,,453841.945,8,400,,,
break_continue,html.Screen,4_97_2,2023-10-30T21:35:45.167Z,,0,,,NaN,,,,,,false,,,,453838.3000000119,453838.2000000179,,453838.09999999404,,453841.945,8,400,,,
sequence,flow.Sequence,4_97,2023-10-30T21:35:45.167Z,,0,,,5132.247000017902,completion,,,,,false,,,,453838.40000000596,453838.2000000179,448689.279,448696.59999999404,448705.953,453841.945,8,400,,,
trial,html.Screen,4_98_0,2023-10-30T21:35:48.020Z,,0,2,,2849.554999999993,response,ISIC_3767325.JPG,6,ISIC_0057048.JPG,ISIC_3767325.JPG,false,1,keypress(m),500,456691.7000000179,456691.5,453825.271,453838.59999999404,453841.945,456693.199,8,400,49,,ISIC_0057048.JPG
break,html.Screen,4_98_1,2023-10-30T21:35:48.021Z,,0,,,NaN,,,,,,false,,,,456692.40000000596,456692.3000000119,,456692,,456693.199,8,400,,,
break_continue,html.Screen,4_98_2,2023-10-30T21:35:48.021Z,,0,,,NaN,,,,,,false,,,,456692.8000000119,456692.7000000179,,456692.59999999404,,456693.199,8,400,,,
sequence,flow.Sequence,4_98,2023-10-30T21:35:48.021Z,,0,,,2850.7550000178744,completion,,,,,false,,,,456693,456692.7000000179,453825.271,453838.5,453841.945,456693.199,8,400,,,
trial,html.Screen,4_99_0,2023-10-30T21:35:52.428Z,,0,2,,4406.501000017859,response,ISIC_3452564.JPG,8,ISIC_6416533.JPG,ISIC_3452564.JPG,false,1,keypress(m),500,461099.90000000596,461099.7000000179,456676.525,456693.09999999404,456693.199,461111.809,8,400,50,,ISIC_6416533.JPG
break,html.Screen,4_99_1,2023-10-30T21:36:02.433Z,,0,,,10004.738000000012,timeout,,,,,false,,,,471104.59999999404,471099.873,461095.135,461100.09999999404,461111.809,471116.547,8,400,,,
break_continue,html.Screen,4_99_2,2023-10-30T21:36:12.993Z,,0,,,10525.15300001786,response,,,,,false,continue,keypress(Space),,481664.2000000179,481641.7000000179,471099.873,471104.8000000119,471116.547,481671.189,8,400,,,
sequence,flow.Sequence,4_99,2023-10-30T21:36:12.993Z,,0,,,24948.50100001786,completion,,,,,false,,,,481664.40000000596,481641.7000000179,456676.525,456693,456693.199,481671.189,8,400,,,
trial,html.Screen,4_100_0,2023-10-30T21:36:15.925Z,,0,3,,2924.611000011908,response,ISIC_4097868.JPG,7,ISIC_3898738.JPG,ISIC_4097868.JPG,false,1,keypress(m),500,484596.09999999404,484595.8000000119,481654.515,481664.40000000596,481671.189,484606.45,8,400,1,,ISIC_3898738.JPG
break,html.Screen,4_100_1,2023-10-30T21:36:15.926Z,,0,,,NaN,,,,,,false,,,,484597,484596.7000000179,,484596.3000000119,,484606.45,8,400,,,
break_continue,html.Screen,4_100_2,2023-10-30T21:36:15.926Z,,0,,,NaN,,,,,,false,,,,484597.3000000119,484597.2000000179,,484597,,484606.45,8,400,,,
sequence,flow.Sequence,4_100,2023-10-30T21:36:15.927Z,,0,,,2926.0110000178684,completion,,,,,false,,,,484597.5,484597.2000000179,481654.515,481664.40000000596,481671.189,484606.45,8,400,,,
trial,html.Screen,4_101_0,2023-10-30T21:36:19.147Z,,0,3,,3210.8500000119093,response,ISIC_9788545.JPG,8,ISIC_0055287.JPG,ISIC_0055287.JPG,false,0,keypress(z),500,487817.7000000179,487817.3000000119,484589.776,484597.5,484606.45,487824.532,8,400,2,,ISIC_9788545.JPG
break,html.Screen,4_101_1,2023-10-30T21:36:19.148Z,,0,,,NaN,,,,,,false,,,,487818.3000000119,487818.2000000179,,487817.8000000119,,487824.532,8,400,,,
break_continue,html.Screen,4_101_2,2023-10-30T21:36:19.148Z,,0,,,NaN,,,,,,false,,,,487818.59999999404,487818.59999999404,,487818.40000000596,,487824.532,8,400,,,
sequence,flow.Sequence,4_101,2023-10-30T21:36:19.148Z,,0,,,3212.149999994028,completion,,,,,false,,,,487818.8000000119,487818.59999999404,484589.776,484597.5,484606.45,487824.532,8,400,,,
trial,html.Screen,4_102_0,2023-10-30T21:36:22.239Z,,0,3,,3084.868000005954,response,ISIC_7482149.JPG,8,ISIC_0030447.JPG,ISIC_7482149.JPG,false,1,keypress(m),500,490909.59999999404,490909.40000000596,487807.858,487818.90000000596,487824.532,490925.896,8,400,3,,ISIC_0030447.JPG
break,html.Screen,4_102_1,2023-10-30T21:36:22.240Z,,0,,,NaN,,,,,,false,,,,490910.40000000596,490910.2000000179,,490909.90000000596,,490925.896,8,400,,,
break_continue,html.Screen,4_102_2,2023-10-30T21:36:22.240Z,,0,,,NaN,,,,,,false,,,,490910.7000000179,490910.59999999404,,490910.5,,490925.896,8,400,,,
sequence,flow.Sequence,4_102,2023-10-30T21:36:22.240Z,,0,,,3086.067999994033,completion,,,,,false,,,,490910.8000000119,490910.59999999404,487807.858,487818.90000000596,487824.532,490925.896,8,400,,,
trial,html.Screen,4_103_0,2023-10-30T21:36:25.285Z,,0,3,,3029.3040000178735,response,ISIC_0013969.JPG,8,ISIC_8368872.JPG,ISIC_8368872.JPG,false,0,keypress(z),500,493955.40000000596,493955.2000000179,490909.222,490911,490925.896,493960.909,8,400,4,,ISIC_0013969.JPG
break,html.Screen,4_103_1,2023-10-30T21:36:25.286Z,,0,,,NaN,,,,,,false,,,,493956.09999999404,493956,,493955.59999999404,,493960.909,8,400,,,
break_continue,html.Screen,4_103_2,2023-10-30T21:36:25.286Z,,0,,,NaN,,,,,,false,,,,493956.40000000596,493956.40000000596,,493956.3000000119,,493960.909,8,400,,,
sequence,flow.Sequence,4_103,2023-10-30T21:36:25.286Z,,0,,,3030.5040000059525,completion,,,,,false,,,,493956.59999999404,493956.40000000596,490909.222,490911,490925.896,493960.909,8,400,,,
trial,html.Screen,4_104_0,2023-10-30T21:36:28.271Z,,0,3,,2979.891000011936,response,ISIC_6260086.JPG,7,ISIC_0033485.JPG,ISIC_6260086.JPG,false,1,keypress(m),500,496941,496940.8000000119,493944.235,493956.7000000179,493960.909,496945.555,8,400,5,,ISIC_0033485.JPG
break,html.Screen,4_104_1,2023-10-30T21:36:28.271Z,,0,,,NaN,,,,,,false,,,,496941.7000000179,496941.59999999404,,496941.2000000179,,496945.555,8,400,,,
break_continue,html.Screen,4_104_2,2023-10-30T21:36:28.272Z,,0,,,NaN,,,,,,false,,,,496942,496941.90000000596,,496941.8000000119,,496945.555,8,400,,,
sequence,flow.Sequence,4_104,2023-10-30T21:36:28.272Z,,0,,,2980.9910000059754,completion,,,,,false,,,,496942.09999999404,496941.90000000596,493944.235,493956.7000000179,493960.909,496945.555,8,400,,,
trial,html.Screen,4_105_0,2023-10-30T21:36:31.009Z,,0,3,,2733.6450000178884,response,ISIC_1014075.JPG,6,ISIC_0032718.JPG,ISIC_1014075.JPG,false,1,keypress(m),500,499679.40000000596,499679.2000000179,496928.881,496942.3000000119,496945.555,499680.091,8,400,6,,ISIC_0032718.JPG
break,html.Screen,4_105_1,2023-10-30T21:36:31.010Z,,0,,,NaN,,,,,,false,,,,499680.2000000179,499680,,499679.59999999404,,499680.091,8,400,,,
break_continue,html.Screen,4_105_2,2023-10-30T21:36:31.010Z,,0,,,NaN,,,,,,false,,,,499680.5,499680.3000000119,,499680.3000000119,,499680.091,8,400,,,
sequence,flow.Sequence,4_105,2023-10-30T21:36:31.010Z,,0,,,2734.745000011928,completion,,,,,false,,,,499680.59999999404,499680.3000000119,496928.881,496942.2000000179,496945.555,499680.091,8,400,,,
trial,html.Screen,4_106_0,2023-10-30T21:36:34.231Z,,0,3,,3220.709000011906,response,ISIC_3328295.JPG,7,ISIC_1788979.JPG,ISIC_3328295.JPG,false,1,keypress(m),500,502901.09999999404,502900.8000000119,499663.417,499680.8000000119,499680.091,502915.2,8,400,7,,ISIC_1788979.JPG
break,html.Screen,4_106_1,2023-10-30T21:36:34.231Z,,0,,,NaN,,,,,,false,,,,502901.8000000119,502901.59999999404,,502901.3000000119,,502915.2,8,400,,,
break_continue,html.Screen,4_106_2,2023-10-30T21:36:34.232Z,,0,,,NaN,,,,,,false,,,,502902.09999999404,502902,,502902,,502915.2,8,400,,,
sequence,flow.Sequence,4_106,2023-10-30T21:36:34.232Z,,0,,,3221.908999999985,completion,,,,,false,,,,502902.3000000119,502902,499663.417,499680.8000000119,499680.091,502915.2,8,400,,,
trial,html.Screen,4_107_0,2023-10-30T21:36:36.988Z,,0,3,,2742.7999999999884,response,ISIC_8513112.JPG,6,ISIC_0027306.JPG,ISIC_8513112.JPG,false,1,keypress(m),500,505658.2000000179,505658,502898.526,502902.40000000596,502915.2,505666.41,8,400,8,,ISIC_0027306.JPG
break,html.Screen,4_107_1,2023-10-30T21:36:36.989Z,,0,,,NaN,,,,,,false,,,,505658.90000000596,505658.7000000179,,505658.40000000596,,505666.41,8,400,,,
break_continue,html.Screen,4_107_2,2023-10-30T21:36:36.989Z,,0,,,NaN,,,,,,false,,,,505659.3000000119,505659.2000000179,,505659.09999999404,,505666.41,8,400,,,
sequence,flow.Sequence,4_107,2023-10-30T21:36:36.989Z,,0,,,2744.0000000178698,completion,,,,,false,,,,505659.40000000596,505659.2000000179,502898.526,502902.3000000119,502915.2,505666.41,8,400,,,
trial,html.Screen,4_108_0,2023-10-30T21:36:39.796Z,,0,3,,2799.490000005986,response,ISIC_0033500.JPG,7,ISIC_0071430.JPG,ISIC_0071430.JPG,false,0,keypress(z),500,508466.2000000179,508465.90000000596,505649.736,505659.5,505666.41,508467.642,8,400,9,,ISIC_0033500.JPG
break,html.Screen,4_108_1,2023-10-30T21:36:39.797Z,,0,,,NaN,,,,,,false,,,,508467,508466.8000000119,,508466.40000000596,,508467.642,8,400,,,
break_continue,html.Screen,4_108_2,2023-10-30T21:36:39.797Z,,0,,,NaN,,,,,,false,,,,508467.2000000179,508467.2000000179,,508467.09999999404,,508467.642,8,400,,,
sequence,flow.Sequence,4_108,2023-10-30T21:36:39.797Z,,0,,,2800.790000017907,completion,,,,,false,,,,508467.40000000596,508467.2000000179,505649.736,505659.5,505666.41,508467.642,8,400,,,
trial,html.Screen,4_109_0,2023-10-30T21:36:42.955Z,,0,3,,3156.957999994047,response,ISIC_0061972.JPG,8,ISIC_0031005.JPG,ISIC_0061972.JPG,false,1,keypress(m),500,511624.90000000596,511624.59999999404,508450.968,508467.5,508467.642,511635.702,8,400,10,,ISIC_0031005.JPG
break,html.Screen,4_109_1,2023-10-30T21:36:42.956Z,,0,,,NaN,,,,,,false,,,,511625.59999999404,511625.40000000596,,511625.09999999404,,511635.702,8,400,,,
break_continue,html.Screen,4_109_2,2023-10-30T21:36:42.956Z,,0,,,NaN,,,,,,false,,,,511625.90000000596,511625.8000000119,,511625.7000000179,,511635.702,8,400,,,
sequence,flow.Sequence,4_109,2023-10-30T21:36:42.956Z,,0,,,3158.1580000119284,completion,,,,,false,,,,511626,511625.8000000119,508450.968,508467.5,508467.642,511635.702,8,400,,,
trial,html.Screen,4_110_0,2023-10-30T21:36:45.794Z,,0,3,,2827.498000017891,response,ISIC_6002694.JPG,7,ISIC_0030833.JPG,ISIC_6002694.JPG,false,1,keypress(m),500,514463.5,514463.2000000179,511619.028,511626.2000000179,511635.702,514470.627,8,400,11,,ISIC_0030833.JPG
break,html.Screen,4_110_1,2023-10-30T21:36:45.794Z,,0,,,NaN,,,,,,false,,,,514464.3000000119,514464.09999999404,,514463.59999999404,,514470.627,8,400,,,
break_continue,html.Screen,4_110_2,2023-10-30T21:36:45.795Z,,0,,,NaN,,,,,,false,,,,514464.5,514464.40000000596,,514464.3000000119,,514470.627,8,400,,,
sequence,flow.Sequence,4_110,2023-10-30T21:36:45.795Z,,0,,,2828.6980000059702,completion,,,,,false,,,,514464.7000000179,514464.40000000596,511619.028,511626.2000000179,511635.702,514470.627,8,400,,,
trial,html.Screen,4_111_0,2023-10-30T21:36:50.070Z,,0,3,,4268.472999994061,response,ISIC_4945233.JPG,8,ISIC_0025702.JPG,ISIC_4945233.JPG,false,1,keypress(m),500,518739.40000000596,518739.09999999404,514453.953,514464.8000000119,514470.627,518755.845,8,400,12,,ISIC_0025702.JPG
break,html.Screen,4_111_1,2023-10-30T21:36:50.070Z,,0,,,NaN,,,,,,false,,,,518740.09999999404,518740,,518739.59999999404,,518755.845,8,400,,,
break_continue,html.Screen,4_111_2,2023-10-30T21:36:50.071Z,,0,,,NaN,,,,,,false,,,,518740.5,518740.3000000119,,518740.2000000179,,518755.845,8,400,,,
sequence,flow.Sequence,4_111,2023-10-30T21:36:50.071Z,,0,,,4269.673000011942,completion,,,,,false,,,,518740.59999999404,518740.3000000119,514453.953,514464.7000000179,514470.627,518755.845,8,400,,,
trial,html.Screen,4_112_0,2023-10-30T21:36:53.870Z,,0,3,,3783.7549999940675,response,ISIC_0072030.JPG,5,ISIC_0065351.JPG,ISIC_0065351.JPG,false,0,keypress(z),500,522539.8000000119,522539.59999999404,518739.171,518740.8000000119,518755.845,522540.843,8,400,13,,ISIC_0072030.JPG
break,html.Screen,4_112_1,2023-10-30T21:36:53.871Z,,0,,,NaN,,,,,,false,,,,522540.7000000179,522540.5,,522540.09999999404,,522540.843,8,400,,,
break_continue,html.Screen,4_112_2,2023-10-30T21:36:53.871Z,,0,,,NaN,,,,,,false,,,,522540.90000000596,522540.8000000119,,522540.8000000119,,522540.843,8,400,,,
sequence,flow.Sequence,4_112,2023-10-30T21:36:53.871Z,,0,,,3784.955000011949,completion,,,,,false,,,,522541.09999999404,522540.8000000119,518739.171,518740.7000000179,518755.845,522540.843,8,400,,,
trial,html.Screen,4_113_0,2023-10-30T21:36:56.916Z,,0,3,,3044.1570000000065,response,ISIC_0063871.JPG,7,ISIC_0014973.JPG,ISIC_0014973.JPG,false,0,keypress(z),500,525585.2000000179,525585,522524.169,522541.2000000179,522540.843,525592.525,8,400,14,,ISIC_0063871.JPG
break,html.Screen,4_113_1,2023-10-30T21:36:56.916Z,,0,,,NaN,,,,,,false,,,,525585.900000006,525585.7000000179,,525585.400000006,,525592.525,8,400,,,
break_continue,html.Screen,4_113_2,2023-10-30T21:36:56.917Z,,0,,,NaN,,,,,,false,,,,525586.3000000119,525586.099999994,,525586,,525592.525,8,400,,,
sequence,flow.Sequence,4_113,2023-10-30T21:36:56.917Z,,0,,,3045.256999994046,completion,,,,,false,,,,525586.400000006,525586.099999994,522524.169,522541.2000000179,522540.843,525592.525,8,400,,,
trial,html.Screen,4_114_0,2023-10-30T21:36:59.672Z,,0,3,,2748.5749999940163,response,ISIC_0001102.JPG,9,ISIC_4507700.JPG,ISIC_4507700.JPG,false,0,keypress(z),500,528341.3000000119,528341.099999994,525575.851,525586.5,525592.525,528343.735,8,400,15,,ISIC_0001102.JPG
break,html.Screen,4_114_1,2023-10-30T21:36:59.673Z,,0,,,NaN,,,,,,false,,,,528342.099999994,528341.900000006,,528341.599999994,,528343.735,8,400,,,
break_continue,html.Screen,4_114_2,2023-10-30T21:36:59.673Z,,0,,,NaN,,,,,,false,,,,528342.3000000119,528342.2000000179,,528342.2000000179,,528343.735,8,400,,,
sequence,flow.Sequence,4_114,2023-10-30T21:36:59.673Z,,0,,,2749.675000017858,completion,,,,,false,,,,528342.599999994,528342.2000000179,525575.851,525586.5,525592.525,528343.735,8,400,,,
trial,html.Screen,4_115_0,2023-10-30T21:37:02.508Z,,0,3,,2833.065000011935,response,ISIC_0014013.JPG,9,ISIC_9092298.JPG,ISIC_9092298.JPG,false,0,keypress(z),500,531177,531176.8000000119,528327.061,528342.7000000179,528343.735,531178.315,8,400,16,,ISIC_0014013.JPG
break,html.Screen,4_115_1,2023-10-30T21:37:02.508Z,,0,,,NaN,,,,,,false,,,,531177.7000000179,531177.5,,531177.2000000179,,531178.315,8,400,,,
break_continue,html.Screen,4_115_2,2023-10-30T21:37:02.509Z,,0,,,NaN,,,,,,false,,,,531178.099999994,531178,,531177.900000006,,531178.315,8,400,,,
sequence,flow.Sequence,4_115,2023-10-30T21:37:02.509Z,,0,,,2834.265000000014,completion,,,,,false,,,,531178.099999994,531178,528327.061,528342.599999994,528343.735,531178.315,8,400,,,
trial,html.Screen,4_116_0,2023-10-30T21:37:05.344Z,,0,3,,2834.485000011977,response,ISIC_6324832.JPG,7,ISIC_5547318.JPG,ISIC_6324832.JPG,false,1,keypress(m),500,534013.099999994,534012.8000000119,531161.641,531178.3000000119,531178.315,534029.933,8,400,17,,ISIC_5547318.JPG
break,html.Screen,4_116_1,2023-10-30T21:37:05.344Z,,0,,,NaN,,,,,,false,,,,534013.7000000179,534013.599999994,,534013.2000000179,,534029.933,8,400,,,
break_continue,html.Screen,4_116_2,2023-10-30T21:37:05.345Z,,0,,,NaN,,,,,,false,,,,534014.099999994,534014,,534013.900000006,,534029.933,8,400,,,
sequence,flow.Sequence,4_116,2023-10-30T21:37:05.345Z,,0,,,2835.685000000056,completion,,,,,false,,,,534014.2000000179,534014,531161.641,531178.2000000179,531178.315,534029.933,8,400,,,
trial,html.Screen,4_117_0,2023-10-30T21:37:08.500Z,,0,3,,3138.86700001196,response,ISIC_1120654.JPG,5,ISIC_3222447.JPG,ISIC_3222447.JPG,false,0,keypress(z),500,537169.099999994,537168.8000000119,534013.259,534014.3000000119,534029.933,537181.319,8,400,18,,ISIC_1120654.JPG
break,html.Screen,4_117_1,2023-10-30T21:37:08.501Z,,0,,,NaN,,,,,,false,,,,537169.8000000119,537169.7000000179,,537169.3000000119,,537181.319,8,400,,,
break_continue,html.Screen,4_117_2,2023-10-30T21:37:08.501Z,,0,,,NaN,,,,,,false,,,,537170.2000000179,537170,,537170,,537181.319,8,400,,,
sequence,flow.Sequence,4_117,2023-10-30T21:37:08.501Z,,0,,,3140.067000000039,completion,,,,,false,,,,537170.3000000119,537170,534013.259,534014.3000000119,534029.933,537181.319,8,400,,,
trial,html.Screen,4_118_0,2023-10-30T21:37:11.499Z,,0,3,,2986.8810000178637,response,ISIC_0064014.JPG,7,ISIC_0413563.JPG,ISIC_0413563.JPG,false,0,keypress(z),500,540168.400000006,540168.2000000179,537164.645,537170.400000006,537181.319,540182.639,8,400,19,,ISIC_0064014.JPG
break,html.Screen,4_118_1,2023-10-30T21:37:11.500Z,,0,,,NaN,,,,,,false,,,,540169.2000000179,540169,,540168.599999994,,540182.639,8,400,,,
break_continue,html.Screen,4_118_2,2023-10-30T21:37:11.500Z,,0,,,NaN,,,,,,false,,,,540169.5,540169.3000000119,,540169.3000000119,,540182.639,8,400,,,
sequence,flow.Sequence,4_118,2023-10-30T21:37:11.500Z,,0,,,2987.9810000119032,completion,,,,,false,,,,540169.599999994,540169.3000000119,537164.645,537170.400000006,537181.319,540182.639,8,400,,,
trial,html.Screen,4_119_0,2023-10-30T21:37:14.609Z,,0,3,,3094.8610000000335,response,ISIC_0033213.JPG,8,ISIC_4643298.JPG,ISIC_0033213.JPG,false,1,keypress(m),500,543277.7000000179,543277.5,540165.965,540169.7000000179,540182.639,543284.003,8,400,20,,ISIC_4643298.JPG
break,html.Screen,4_119_1,2023-10-30T21:37:14.609Z,,0,,,NaN,,,,,,false,,,,543278.599999994,543278.400000006,,543278,,543284.003,8,400,,,
break_continue,html.Screen,4_119_2,2023-10-30T21:37:14.610Z,,0,,,NaN,,,,,,false,,,,543278.8000000119,543278.7000000179,,543278.7000000179,,543284.003,8,400,,,
sequence,flow.Sequence,4_119,2023-10-30T21:37:14.610Z,,0,,,3096.061000017915,completion,,,,,false,,,,543279,543278.7000000179,540165.965,540169.7000000179,540182.639,543284.003,8,400,,,
trial,html.Screen,4_120_0,2023-10-30T21:37:18.004Z,,0,3,,3388.297000011895,response,ISIC_0025751.JPG,6,ISIC_0026475.JPG,ISIC_0026475.JPG,false,0,keypress(z),500,546672.5,546672.3000000119,543267.329,543279.099999994,543284.003,546685.848,8,400,21,,ISIC_0025751.JPG
break,html.Screen,4_120_1,2023-10-30T21:37:18.004Z,,0,,,NaN,,,,,,false,,,,546673.3000000119,546673.2000000179,,546672.8000000119,,546685.848,8,400,,,
break_continue,html.Screen,4_120_2,2023-10-30T21:37:18.005Z,,0,,,NaN,,,,,,false,,,,546673.7000000179,546673.5,,546673.5,,546685.848,8,400,,,
sequence,flow.Sequence,4_120,2023-10-30T21:37:18.005Z,,0,,,3389.496999999974,completion,,,,,false,,,,546673.900000006,546673.5,543267.329,543279,543284.003,546685.848,8,400,,,
trial,html.Screen,4_121_0,2023-10-30T21:37:21.112Z,,0,3,,3095.0520000059623,response,ISIC_3501997.JPG,4,ISIC_6178099.JPG,ISIC_3501997.JPG,false,1,keypress(m),500,549781.2000000179,549780.900000006,546669.174,546674,546685.848,549787.212,8,400,22,,ISIC_6178099.JPG
break,html.Screen,4_121_1,2023-10-30T21:37:21.113Z,,0,,,NaN,,,,,,false,,,,549782,549781.7000000179,,549781.400000006,,549787.212,8,400,,,
break_continue,html.Screen,4_121_2,2023-10-30T21:37:21.113Z,,0,,,NaN,,,,,,false,,,,549782.2000000179,549782.099999994,,549782,,549787.212,8,400,,,
sequence,flow.Sequence,4_121,2023-10-30T21:37:21.113Z,,0,,,3096.2519999940414,completion,,,,,false,,,,549782.400000006,549782.099999994,546669.174,546673.900000006,546685.848,549787.212,8,400,,,
trial,html.Screen,4_122_0,2023-10-30T21:37:23.884Z,,0,3,,2764.9880000178237,response,ISIC_8694181.JPG,6,ISIC_0027411.JPG,ISIC_8694181.JPG,false,1,keypress(m),500,552552.5,552552.2000000179,549770.538,549782.5,549787.212,552555.096,8,400,23,,ISIC_0027411.JPG
break,html.Screen,4_122_1,2023-10-30T21:37:23.885Z,,0,,,NaN,,,,,,false,,,,552553.400000006,552553.099999994,,552552.8000000119,,552555.096,8,400,,,
break_continue,html.Screen,4_122_2,2023-10-30T21:37:23.885Z,,0,,,NaN,,,,,,false,,,,552553.7000000179,552553.599999994,,552553.400000006,,552555.096,8,400,,,
sequence,flow.Sequence,4_122,2023-10-30T21:37:23.885Z,,0,,,2766.387999993982,completion,,,,,false,,,,552553.900000006,552553.599999994,549770.538,549782.5,549787.212,552555.096,8,400,,,
trial,html.Screen,4_123_0,2023-10-30T21:37:26.628Z,,0,3,,2741.7040000119014,response,ISIC_0029339.JPG,5,ISIC_4695396.JPG,ISIC_4695396.JPG,false,0,keypress(z),500,555297,555296.8000000119,552538.422,552554,552555.096,555306.65,8,400,24,,ISIC_0029339.JPG
break,html.Screen,4_123_1,2023-10-30T21:37:26.629Z,,0,,,NaN,,,,,,false,,,,555297.8000000119,555297.599999994,,555297.2000000179,,555306.65,8,400,,,
break_continue,html.Screen,4_123_2,2023-10-30T21:37:26.629Z,,0,,,NaN,,,,,,false,,,,555298.2000000179,555298.099999994,,555297.900000006,,555306.65,8,400,,,
sequence,flow.Sequence,4_123,2023-10-30T21:37:26.630Z,,0,,,2743.00399999402,completion,,,,,false,,,,555298.400000006,555298.099999994,552538.422,552554,552555.096,555306.65,8,400,,,
trial,html.Screen,4_124_0,2023-10-30T21:37:29.978Z,,0,3,,3339.250000005937,response,ISIC_2246150.JPG,7,ISIC_8127323.JPG,ISIC_8127323.JPG,false,0,keypress(z),500,558646.2000000179,558645.900000006,555289.976,555298.599999994,555306.65,558658.124,8,400,25,,ISIC_2246150.JPG
break,html.Screen,4_124_1,2023-10-30T21:37:29.978Z,,0,,,NaN,,,,,,false,,,,558646.8000000119,558646.8000000119,,558646.400000006,,558658.124,8,400,,,
break_continue,html.Screen,4_124_2,2023-10-30T21:37:29.979Z,,0,,,NaN,,,,,,false,,,,558647.3000000119,558647.099999994,,558647,,558658.124,8,400,,,
sequence,flow.Sequence,4_124,2023-10-30T21:37:29.979Z,,0,,,3340.4499999940163,completion,,,,,false,,,,558647.5,558647.099999994,555289.976,555298.599999994,555306.65,558658.124,8,400,,,
trial,html.Screen,4_125_0,2023-10-30T21:37:32.752Z,,0,3,,2762.576000017929,response,ISIC_1166740.JPG,6,ISIC_0015298.JPG,ISIC_0015298.JPG,false,0,keypress(z),500,561421,561420.7000000179,558641.45,558647.599999994,558658.124,561426.008,8,400,26,,ISIC_1166740.JPG
break,html.Screen,4_125_1,2023-10-30T21:37:32.753Z,,0,,,NaN,,,,,,false,,,,561421.7000000179,561421.5,,561421.2000000179,,561426.008,8,400,,,
