sender,sender_type,sender_id,timestamp,meta,,blockNo,condition,duration,ended_on,img_left,img_reveal,img_right,loser,practice,response,response_action,selection_duration,time_commit,time_end,time_render,time_run,time_show,time_switch,total_blocks,total_trials,trialNo,url,winner
informed_consent,html.Screen,0,2023-09-12T19:55:58.939Z,"{""labjs_version"":""20.2.4"",""labjs_build"":{""flavor"":""production"",""commit"":""f5b4a49f956347addd546a832a3327688c2c0fef""},""location"":""https://run.pavlovia.org/MurrayBennett/melanoma-2afc/?participant=66215&platform=sona"",""userAgent"":""Mozilla/5.0 (Macintosh; Intel Mac OS X 10_15_7) AppleWebKit/537.36 (KHTML, like Gecko) Chrome/116.0.0.0 Safari/537.36"",""platform"":""MacIntel"",""language"":""en-US"",""locale"":""en-US"",""timeZone"":""America/Chicago"",""timezoneOffset"":300,""screen_width"":1440,""screen_height"":900,""scroll_width"":1440,""scroll_height"":767,""window_innerWidth"":1440,""window_innerHeight"":815,""devicePixelRatio"":2}",,,,2714.276999976158,response,,,,,,consent,click button,,3043.599999964237,3040.899999976158,309.957,302.19999998807907,326.623,3043.181,,,,"{""participant"":""66215"",""platform"":""sona""}",
Welcome,html.Screen,1,2023-09-12T19:56:01.703Z,,,,uniform,2761.918999964237,response,,,,,,continue,click button,,5807.599999964237,5805.099999964237,3026.515,3043.800000011921,3043.181,5809.737,,,,,
trial,html.Screen,2_0_0,2023-09-12T19:56:06.662Z,,0,0,,4956.063000011921,response,ISIC_0063388.JPG,,ISIC_0025593.JPG,ISIC_0025593.JPG,true,0,keypress(z),500,10766.399999976158,10765.800000011921,5793.071,5807.800000011921,5809.737,10776.692,1,6,1,,ISIC_0063388.JPG
sequence,flow.Sequence,2_0,2023-09-12T19:56:06.663Z,,0,,,4956.063000011921,completion,,,,,true,,,,10767,10765.800000011921,5793.071,5807.800000011921,5809.737,10776.692,1,6,,,
trial,html.Screen,2_1_0,2023-09-12T19:56:10.422Z,,0,0,,3749.407999964238,response,ISIC_1309015.JPG,,ISIC_0028178.JPG,ISIC_1309015.JPG,true,1,keypress(m),500,14526.599999964237,14526.099999964237,10760.026,10767.199999988079,10776.692,14543.208,1,6,2,,ISIC_0028178.JPG
sequence,flow.Sequence,2_1,2023-09-12T19:56:10.423Z,,0,,,3749.407999964238,completion,,,,,true,,,,14526.899999976158,14526.099999964237,10760.026,10767.099999964237,10776.692,14543.208,1,6,,,
trial,html.Screen,2_2_0,2023-09-12T19:56:16.054Z,,0,0,,5614.09200001192,response,ISIC_0031128.JPG,,ISIC_3314853.JPG,ISIC_0031128.JPG,true,1,keypress(m),500,20157.69999998808,20157.30000001192,14526.542,14527.199999988079,14543.208,20159.65,1,6,3,,ISIC_3314853.JPG
sequence,flow.Sequence,2_2,2023-09-12T19:56:16.054Z,,0,,,5614.09200001192,completion,,,,,true,,,,20158,20157.30000001192,14526.542,14527.099999964237,14543.208,20159.65,1,6,,,
trial,html.Screen,2_3_0,2023-09-12T19:56:19.209Z,,0,0,,3152.8499999999985,response,ISIC_0031612.JPG,,ISIC_8980141.JPG,ISIC_0031612.JPG,true,1,keypress(m),500,23313.099999964237,23312.5,20142.984,20158.19999998808,20159.65,23326.688,1,6,4,,ISIC_8980141.JPG
sequence,flow.Sequence,2_3,2023-09-12T19:56:19.209Z,,0,,,3152.8499999999985,completion,,,,,true,,,,23313.599999964237,23312.5,20142.984,20158.099999964237,20159.65,23326.688,1,6,,,
trial,html.Screen,2_4_0,2023-09-12T19:56:22.943Z,,0,0,,3719.911999964239,response,ISIC_9721604.JPG,,ISIC_1197737.JPG,ISIC_9721604.JPG,true,1,keypress(m),500,27047.19999998808,27046.599999964237,23310.022,23313.80000001192,23326.688,27059.872,1,6,5,,ISIC_1197737.JPG
sequence,flow.Sequence,2_4,2023-09-12T19:56:22.943Z,,0,,,3719.911999964239,completion,,,,,true,,,,27047.599999964237,27046.599999964237,23310.022,23313.69999998808,23326.688,27059.872,1,6,,,
trial,html.Screen,2_5_0,2023-09-12T19:56:25.989Z,,0,0,,3032.727999964238,response,ISIC_0025346.JPG,,ISIC_0010681.JPG,ISIC_0025346.JPG,true,1,keypress(m),500,30093,30092.599999964237,27043.206,27047.80000001192,27059.872,30109.75,1,6,6,,ISIC_0010681.JPG
sequence,flow.Sequence,2_5,2023-09-12T19:56:25.989Z,,0,,,3032.727999964238,completion,,,,,true,,,,30093.19999998808,30092.599999964237,27043.206,27047.80000001192,27059.872,30109.75,1,6,,,
loop,flow.Loop,2,2023-09-12T19:56:25.989Z,,,,,24282.862999964236,completion,,,,,true,,,,30093.399999976158,30092.599999964237,5793.071,5807.800000011921,5809.737,30109.75,1,6,,,
exp_instructions,html.Screen,3,2023-09-12T19:56:28.454Z,,,,,2444.349999964237,response,,,,,,continue,keypress(Space),,32558.5,32554.099999964237,30093.084,30093.599999964237,30109.75,32559.652,,,,,
trial,html.Screen,4_0_0,2023-09-12T19:56:33.673Z,,0,1,,5217.148000011923,response,ISIC_2868199.JPG,8,ISIC_0056017.JPG,ISIC_2868199.JPG,false,1,keypress(m),500,37777.39999997616,37776.80000001192,32542.986,32558.599999964237,32559.652,37793.184,8,400,1,,ISIC_0056017.JPG
break,html.Screen,4_0_1,2023-09-12T19:56:33.674Z,,0,,,NaN,,,,,,false,,,,37778.69999998808,37778.30000001192,,37777.59999996424,,37793.184,8,400,,,
break_continue,html.Screen,4_0_2,2023-09-12T19:56:33.675Z,,0,,,NaN,,,,,,false,,,,37779.19999998808,37779,,37778.89999997616,,37793.184,8,400,,,
sequence,flow.Sequence,4_0,2023-09-12T19:56:33.675Z,,0,,,5219.348000000002,completion,,,,,false,,,,37779.39999997616,37779,32542.986,32558.599999964237,32559.652,37793.184,8,400,,,
trial,html.Screen,4_1_0,2023-09-12T19:56:36.369Z,,0,1,,2679.61600001192,response,ISIC_9864402.JPG,9,ISIC_3291765.JPG,ISIC_9864402.JPG,false,1,keypress(m),500,40473.09999996424,40472.80000001192,37776.518,37779.5,37793.184,40476.41,8,400,2,,ISIC_3291765.JPG
break,html.Screen,4_1_1,2023-09-12T19:56:36.370Z,,0,,,NaN,,,,,,false,,,,40474.19999998808,40473.89999997616,,40473.5,,40476.41,8,400,,,
break_continue,html.Screen,4_1_2,2023-09-12T19:56:36.370Z,,0,,,NaN,,,,,,false,,,,40474.59999996424,40474.39999997616,,40474.30000001192,,40476.41,8,400,,,
sequence,flow.Sequence,4_1,2023-09-12T19:56:36.370Z,,0,,,2681.215999976157,completion,,,,,false,,,,40474.69999998808,40474.39999997616,37776.518,37779.39999997616,37793.184,40476.41,8,400,,,
trial,html.Screen,4_2_0,2023-09-12T19:56:39.656Z,,0,1,,3283.1899999642337,response,ISIC_4013189.JPG,6,ISIC_0067395.JPG,ISIC_4013189.JPG,false,1,keypress(m),500,43760,43759.59999996424,40459.744,40474.80000001192,40476.41,43776.813,8,400,3,,ISIC_0067395.JPG
break,html.Screen,4_2_1,2023-09-12T19:56:39.657Z,,0,,,NaN,,,,,,false,,,,43761,43760.80000001192,,43760.30000001192,,43776.813,8,400,,,
break_continue,html.Screen,4_2_2,2023-09-12T19:56:39.657Z,,0,,,NaN,,,,,,false,,,,43761.39999997616,43761.30000001192,,43761.09999996424,,43776.813,8,400,,,
sequence,flow.Sequence,4_2,2023-09-12T19:56:39.657Z,,0,,,3284.8900000119174,completion,,,,,false,,,,43761.59999996424,43761.30000001192,40459.744,40474.80000001192,40476.41,43776.813,8,400,,,
trial,html.Screen,4_3_0,2023-09-12T19:56:42.405Z,,0,1,,2732.2869999642353,response,ISIC_0032861.JPG,9,ISIC_5673994.JPG,ISIC_0032861.JPG,false,1,keypress(m),500,46509.5,46509.09999996424,43760.147,43761.69999998808,43776.813,46526.703,8,400,4,,ISIC_5673994.JPG
break,html.Screen,4_3_1,2023-09-12T19:56:42.406Z,,0,,,NaN,,,,,,false,,,,46510.59999996424,46510.19999998808,,46509.80000001192,,46526.703,8,400,,,
break_continue,html.Screen,4_3_2,2023-09-12T19:56:42.407Z,,0,,,NaN,,,,,,false,,,,46511.09999996424,46510.89999997616,,46510.80000001192,,46526.703,8,400,,,
sequence,flow.Sequence,4_3,2023-09-12T19:56:42.407Z,,0,,,2734.086999976156,completion,,,,,false,,,,46511.30000001192,46510.89999997616,43760.147,43761.69999998808,43776.813,46526.703,8,400,,,
trial,html.Screen,4_4_0,2023-09-12T19:56:46.637Z,,0,1,,4213.796999999999,response,ISIC_0058926.JPG,4,ISIC_0065133.JPG,ISIC_0065133.JPG,false,0,keypress(z),500,50740.80000001192,50740.5,46510.037,46511.39999997616,46526.703,50743.201,8,400,5,,ISIC_0058926.JPG
break,html.Screen,4_4_1,2023-09-12T19:56:46.638Z,,0,,,NaN,,,,,,false,,,,50741.89999997616,50741.69999998808,,50741.09999996424,,50743.201,8,400,,,
break_continue,html.Screen,4_4_2,2023-09-12T19:56:46.638Z,,0,,,NaN,,,,,,false,,,,50742.30000001192,50742.19999998808,,50742,,50743.201,8,400,,,
sequence,flow.Sequence,4_4,2023-09-12T19:56:46.638Z,,0,,,4215.496999988078,completion,,,,,false,,,,50742.5,50742.19999998808,46510.037,46511.39999997616,46526.703,50743.201,8,400,,,
trial,html.Screen,4_5_0,2023-09-12T19:56:50.109Z,,0,1,,3469.59900001192,response,ISIC_9939653.JPG,7,ISIC_4187485.JPG,ISIC_4187485.JPG,false,0,keypress(z),500,54213.19999998808,54212.80000001192,50726.535,50742.69999998808,50743.201,54226.858,8,400,6,,ISIC_9939653.JPG
break,html.Screen,4_5_1,2023-09-12T19:56:50.110Z,,0,,,NaN,,,,,,false,,,,54214.30000001192,54214,,54213.59999996424,,54226.858,8,400,,,
break_continue,html.Screen,4_5_2,2023-09-12T19:56:50.111Z,,0,,,NaN,,,,,,false,,,,54214.69999998808,54214.59999996424,,54214.39999997616,,54226.858,8,400,,,
sequence,flow.Sequence,4_5,2023-09-12T19:56:50.111Z,,0,,,3471.3989999642363,completion,,,,,false,,,,54214.89999997616,54214.59999996424,50726.535,50742.59999996424,50743.201,54226.858,8,400,,,
trial,html.Screen,4_6_0,2023-09-12T19:56:53.236Z,,0,1,,3112.642,response,ISIC_0067905.JPG,8,ISIC_8127394.JPG,ISIC_8127394.JPG,false,0,keypress(z),500,57339.89999997616,57339.5,54210.192,54215,54226.858,57343.4,8,400,7,,ISIC_0067905.JPG
break,html.Screen,4_6_1,2023-09-12T19:56:53.237Z,,0,,,NaN,,,,,,false,,,,57340.89999997616,57340.80000001192,,57340.19999998808,,57343.4,8,400,,,
break_continue,html.Screen,4_6_2,2023-09-12T19:56:53.238Z,,0,,,NaN,,,,,,false,,,,57341.89999997616,57341.69999998808,,57341.5,,57343.4,8,400,,,
sequence,flow.Sequence,4_6,2023-09-12T19:56:53.238Z,,0,,,3114.841999988079,completion,,,,,false,,,,57342,57341.69999998808,54210.192,54215,54226.858,57343.4,8,400,,,
trial,html.Screen,4_7_0,2023-09-12T19:56:57.147Z,,0,1,,3907.5999999999985,response,ISIC_0003851.JPG,6,ISIC_0010140.JPG,ISIC_0010140.JPG,false,0,keypress(z),500,61251.5,61251,57326.734,57342.19999998808,57343.4,61259.91,8,400,8,,ISIC_0003851.JPG
break,html.Screen,4_7_1,2023-09-12T19:56:57.148Z,,0,,,NaN,,,,,,false,,,,61252.5,61252.30000001192,,61251.69999998808,,61259.91,8,400,,,
break_continue,html.Screen,4_7_2,2023-09-12T19:56:57.149Z,,0,,,NaN,,,,,,false,,,,61252.89999997616,61252.69999998808,,61252.59999996424,,61259.91,8,400,,,
sequence,flow.Sequence,4_7,2023-09-12T19:56:57.149Z,,0,,,3909.2999999880776,completion,,,,,false,,,,61253,61252.69999998808,57326.734,57342.09999996424,57343.4,61259.91,8,400,,,
trial,html.Screen,4_8_0,2023-09-12T19:57:00.385Z,,0,1,,3228.9899999761546,response,ISIC_0028655.JPG,8,ISIC_1877535.JPG,ISIC_0028655.JPG,false,1,keypress(m),500,64489.30000001192,64488.89999997616,61243.244,61253.19999998808,61259.91,64493.588,8,400,9,,ISIC_1877535.JPG
break,html.Screen,4_8_1,2023-09-12T19:57:00.386Z,,0,,,NaN,,,,,,false,,,,64490.39999997616,64490.09999996424,,64489.5,,64493.588,8,400,,,
break_continue,html.Screen,4_8_2,2023-09-12T19:57:00.387Z,,0,,,NaN,,,,,,false,,,,64490.80000001192,64490.59999996424,,64490.5,,64493.588,8,400,,,
sequence,flow.Sequence,4_8,2023-09-12T19:57:00.387Z,,0,,,3230.6899999642337,completion,,,,,false,,,,64490.89999997616,64490.59999996424,61243.244,61253.09999996424,61259.91,64493.588,8,400,,,
trial,html.Screen,4_9_0,2023-09-12T19:57:03.878Z,,0,1,,3487.8119999761548,response,ISIC_0057692.JPG,8,ISIC_2027392.JPG,ISIC_0057692.JPG,false,1,keypress(m),500,67981.89999997616,67981.39999997616,64476.922,64491.09999996424,64493.588,67993.448,8,400,10,,ISIC_2027392.JPG
break,html.Screen,4_9_1,2023-09-12T19:57:03.879Z,,0,,,NaN,,,,,,false,,,,67982.89999997616,67982.69999998808,,67982.09999996424,,67993.448,8,400,,,
break_continue,html.Screen,4_9_2,2023-09-12T19:57:03.879Z,,0,,,NaN,,,,,,false,,,,67983.30000001192,67983.19999998808,,67983,,67993.448,8,400,,,
sequence,flow.Sequence,4_9,2023-09-12T19:57:03.880Z,,0,,,3489.6119999880757,completion,,,,,false,,,,67984.59999996424,67983.19999998808,64476.922,64491.09999996424,64493.588,67993.448,8,400,,,
trial,html.Screen,4_10_0,2023-09-12T19:57:07.284Z,,0,1,,3394.751999988075,response,ISIC_0013639.JPG,8,ISIC_0024739.JPG,ISIC_0024739.JPG,false,0,keypress(z),500,71388.5,71388.19999998808,67976.782,67984.69999998808,67993.448,71393.312,8,400,11,,ISIC_0013639.JPG
break,html.Screen,4_10_1,2023-09-12T19:57:07.285Z,,0,,,NaN,,,,,,false,,,,71389.19999998808,71389.09999996424,,71388.80000001192,,71393.312,8,400,,,
break_continue,html.Screen,4_10_2,2023-09-12T19:57:07.285Z,,0,,,NaN,,,,,,false,,,,71389.39999997616,71389.39999997616,,71389.30000001192,,71393.312,8,400,,,
sequence,flow.Sequence,4_10,2023-09-12T19:57:07.285Z,,0,,,3395.951999976154,completion,,,,,false,,,,71389.5,71389.39999997616,67976.782,67984.59999996424,67993.448,71393.312,8,400,,,
trial,html.Screen,4_11_0,2023-09-12T19:57:10.570Z,,0,1,,3280.087999976153,response,ISIC_0013232.JPG,7,ISIC_2804864.JPG,ISIC_0013232.JPG,false,1,keypress(m),500,74673.89999997616,74673.39999997616,71376.646,71389.59999996424,71393.312,74677.028,8,400,12,,ISIC_2804864.JPG
break,html.Screen,4_11_1,2023-09-12T19:57:10.571Z,,0,,,NaN,,,,,,false,,,,74675.09999996424,74674.80000001192,,74674.19999998808,,74677.028,8,400,,,
break_continue,html.Screen,4_11_2,2023-09-12T19:57:10.572Z,,0,,,NaN,,,,,,false,,,,74675.80000001192,74675.69999998808,,74675.30000001192,,74677.028,8,400,,,
sequence,flow.Sequence,4_11,2023-09-12T19:57:10.572Z,,0,,,3282.3879999880737,completion,,,,,false,,,,74675.89999997616,74675.69999998808,71376.646,71389.59999996424,71393.312,74677.028,8,400,,,
trial,html.Screen,4_12_0,2023-09-12T19:57:14.466Z,,0,1,,3892.772000011915,response,ISIC_0046316.JPG,8,ISIC_9989936.JPG,ISIC_9989936.JPG,false,0,keypress(z),500,78570.09999996424,78569.80000001192,74660.362,74676.09999996424,74677.028,78576.872,8,400,13,,ISIC_0046316.JPG
break,html.Screen,4_12_1,2023-09-12T19:57:14.467Z,,0,,,NaN,,,,,,false,,,,78571.19999998808,78571,,78570.39999997616,,78576.872,8,400,,,
break_continue,html.Screen,4_12_2,2023-09-12T19:57:14.467Z,,0,,,NaN,,,,,,false,,,,78571.59999996424,78571.5,,78571.39999997616,,78576.872,8,400,,,
sequence,flow.Sequence,4_12,2023-09-12T19:57:14.468Z,,0,,,3894.4719999999943,completion,,,,,false,,,,78571.69999998808,78571.5,74660.362,74676.09999996424,74677.028,78576.872,8,400,,,
trial,html.Screen,4_13_0,2023-09-12T19:57:17.256Z,,0,1,,2783.027999976155,response,ISIC_0032622.JPG,7,ISIC_7785723.JPG,ISIC_7785723.JPG,false,0,keypress(z),500,81360.30000001192,81359.89999997616,78560.206,78571.89999997616,78576.872,81376.76,8,400,14,,ISIC_0032622.JPG
break,html.Screen,4_13_1,2023-09-12T19:57:17.257Z,,0,,,NaN,,,,,,false,,,,81361.30000001192,81361.09999996424,,81360.59999996424,,81376.76,8,400,,,
break_continue,html.Screen,4_13_2,2023-09-12T19:57:17.257Z,,0,,,NaN,,,,,,false,,,,81361.59999996424,81361.59999996424,,81361.39999997616,,81376.76,8,400,,,
sequence,flow.Sequence,4_13,2023-09-12T19:57:17.258Z,,0,,,2784.727999964234,completion,,,,,false,,,,81361.80000001192,81361.59999996424,78560.206,78571.89999997616,78576.872,81376.76,8,400,,,
trial,html.Screen,4_14_0,2023-09-12T19:57:19.948Z,,0,1,,2675.1399999761634,response,ISIC_4442490.JPG,8,ISIC_1888865.JPG,ISIC_4442490.JPG,false,1,keypress(m),500,84052.19999998808,84051.89999997616,81360.094,81361.89999997616,81376.76,84059.986,8,400,15,,ISIC_1888865.JPG
break,html.Screen,4_14_1,2023-09-12T19:57:19.949Z,,0,,,NaN,,,,,,false,,,,84053.30000001192,84053.09999996424,,84052.5,,84059.986,8,400,,,
break_continue,html.Screen,4_14_2,2023-09-12T19:57:19.950Z,,0,,,NaN,,,,,,false,,,,84053.69999998808,84053.5,,84053.5,,84059.986,8,400,,,
sequence,flow.Sequence,4_14,2023-09-12T19:57:19.950Z,,0,,,2676.7400000000052,completion,,,,,false,,,,84053.89999997616,84053.5,81360.094,81361.89999997616,81376.76,84059.986,8,400,,,
trial,html.Screen,4_15_0,2023-09-12T19:57:22.736Z,,0,1,,2780.0139999999956,response,ISIC_5049165.JPG,7,ISIC_8822738.JPG,ISIC_8822738.JPG,false,0,keypress(z),500,86840.39999997616,86840,84043.32,84054,84059.986,86843.654,8,400,16,,ISIC_5049165.JPG
break,html.Screen,4_15_1,2023-09-12T19:57:22.737Z,,0,,,NaN,,,,,,false,,,,86841.39999997616,86841.19999998808,,86840.59999996424,,86843.654,8,400,,,
break_continue,html.Screen,4_15_2,2023-09-12T19:57:22.738Z,,0,,,NaN,,,,,,false,,,,86841.80000001192,86841.69999998808,,86841.59999996424,,86843.654,8,400,,,
sequence,flow.Sequence,4_15,2023-09-12T19:57:22.738Z,,0,,,2781.7139999880746,completion,,,,,false,,,,86842,86841.69999998808,84043.32,84054,84059.986,86843.654,8,400,,,
trial,html.Screen,4_16_0,2023-09-12T19:57:25.479Z,,0,1,,2739.045999988084,response,ISIC_0263478.JPG,8,ISIC_4350093.JPG,ISIC_0263478.JPG,false,1,keypress(m),500,89582.89999997616,89582.69999998808,86826.988,86842.09999996424,86843.654,89593.544,8,400,17,,ISIC_4350093.JPG
break,html.Screen,4_16_1,2023-09-12T19:57:25.480Z,,0,,,NaN,,,,,,false,,,,89583.69999998808,89583.5,,89583.09999996424,,89593.544,8,400,,,
break_continue,html.Screen,4_16_2,2023-09-12T19:57:25.480Z,,0,,,NaN,,,,,,false,,,,89583.89999997616,89583.80000001192,,89583.69999998808,,89593.544,8,400,,,
sequence,flow.Sequence,4_16,2023-09-12T19:57:25.480Z,,0,,,2740.146000011926,completion,,,,,false,,,,89584,89583.80000001192,86826.988,86842,86843.654,89593.544,8,400,,,
trial,html.Screen,4_17_0,2023-09-12T19:57:29.469Z,,0,1,,3978.8559999761637,response,ISIC_0014559.JPG,8,ISIC_0046394.JPG,ISIC_0014559.JPG,false,1,keypress(m),500,93572.69999998808,93572.39999997616,89576.878,89584.09999996424,89593.544,93576.718,8,400,18,,ISIC_0046394.JPG
break,html.Screen,4_17_1,2023-09-12T19:57:29.470Z,,0,,,NaN,,,,,,false,,,,93573.69999998808,93573.5,,93573,,93576.718,8,400,,,
break_continue,html.Screen,4_17_2,2023-09-12T19:57:29.470Z,,0,,,NaN,,,,,,false,,,,93574.09999996424,93574,,93573.80000001192,,93576.718,8,400,,,
sequence,flow.Sequence,4_17,2023-09-12T19:57:29.470Z,,0,,,3980.4560000000056,completion,,,,,false,,,,93574.30000001192,93574,89576.878,89584.09999996424,89593.544,93576.718,8,400,,,
trial,html.Screen,4_18_0,2023-09-12T19:57:32.332Z,,0,1,,2858.5820000119274,response,ISIC_0026966.JPG,8,ISIC_3617159.JPG,ISIC_0026966.JPG,false,1,keypress(m),500,96435.59999996424,96435.30000001192,93560.052,93574.39999997616,93576.718,96443.744,8,400,19,,ISIC_3617159.JPG
break,html.Screen,4_18_1,2023-09-12T19:57:32.332Z,,0,,,NaN,,,,,,false,,,,96436.59999996424,96436.39999997616,,96435.89999997616,,96443.744,8,400,,,
break_continue,html.Screen,4_18_2,2023-09-12T19:57:32.333Z,,0,,,NaN,,,,,,false,,,,96437,96436.89999997616,,96436.80000001192,,96443.744,8,400,,,
sequence,flow.Sequence,4_18,2023-09-12T19:57:32.333Z,,0,,,2860.1819999761647,completion,,,,,false,,,,96437.19999998808,96436.89999997616,93560.052,93574.39999997616,93576.718,96443.744,8,400,,,
trial,html.Screen,4_19_0,2023-09-12T19:57:34.974Z,,0,1,,2634.455999988073,response,ISIC_3737487.JPG,8,ISIC_0011163.JPG,ISIC_0011163.JPG,false,0,keypress(z),500,99078.59999996424,99078.19999998808,96427.078,96437.30000001192,96443.744,99093.638,8,400,20,,ISIC_3737487.JPG
break,html.Screen,4_19_1,2023-09-12T19:57:34.975Z,,0,,,NaN,,,,,,false,,,,99079.59999996424,99079.39999997616,,99078.89999997616,,99093.638,8,400,,,
break_continue,html.Screen,4_19_2,2023-09-12T19:57:34.976Z,,0,,,NaN,,,,,,false,,,,99080,99079.80000001192,,99079.69999998808,,99093.638,8,400,,,
sequence,flow.Sequence,4_19,2023-09-12T19:57:34.976Z,,0,,,2636.056000011915,completion,,,,,false,,,,99080.09999996424,99079.80000001192,96427.078,96437.30000001192,96443.744,99093.638,8,400,,,
trial,html.Screen,4_20_0,2023-09-12T19:57:37.844Z,,0,1,,2853.761999976152,response,ISIC_0010629.JPG,6,ISIC_0024333.JPG,ISIC_0010629.JPG,false,1,keypress(m),500,101947.69999998808,101947.39999997616,99076.972,99080.30000001192,99093.638,101960.19,8,400,21,,ISIC_0024333.JPG
break,html.Screen,4_20_1,2023-09-12T19:57:37.845Z,,0,,,NaN,,,,,,false,,,,101948.80000001192,101948.5,,101948,,101960.19,8,400,,,
break_continue,html.Screen,4_20_2,2023-09-12T19:57:37.845Z,,0,,,NaN,,,,,,false,,,,101949.09999996424,101949,,101948.80000001192,,101960.19,8,400,,,
sequence,flow.Sequence,4_20,2023-09-12T19:57:37.845Z,,0,,,2855.3619999999937,completion,,,,,false,,,,101949.30000001192,101949,99076.972,99080.19999998808,99093.638,101960.19,8,400,,,
trial,html.Screen,4_21_0,2023-09-12T19:57:40.458Z,,0,1,,2601.909999964235,response,ISIC_4746361.JPG,7,ISIC_2203247.JPG,ISIC_4746361.JPG,false,1,keypress(m),500,104562.59999996424,104562.09999996424,101943.524,101949.39999997616,101960.19,104576.752,8,400,22,,ISIC_2203247.JPG
break,html.Screen,4_21_1,2023-09-12T19:57:40.459Z,,0,,,NaN,,,,,,false,,,,104563.5,104563.30000001192,,104562.80000001192,,104576.752,8,400,,,
break_continue,html.Screen,4_21_2,2023-09-12T19:57:40.460Z,,0,,,NaN,,,,,,false,,,,104563.89999997616,104563.69999998808,,104563.59999996424,,104576.752,8,400,,,
sequence,flow.Sequence,4_21,2023-09-12T19:57:40.460Z,,0,,,2603.5099999880767,completion,,,,,false,,,,104564.09999996424,104563.69999998808,101943.524,101949.30000001192,101960.19,104576.752,8,400,,,
trial,html.Screen,4_22_0,2023-09-12T19:57:43.166Z,,0,1,,2692.847999964244,response,ISIC_3871225.JPG,9,ISIC_3424207.JPG,ISIC_3871225.JPG,false,1,keypress(m),500,107269.89999997616,107269.59999996424,104560.086,104564.80000001192,104576.752,107277.094,8,400,23,,ISIC_3424207.JPG
break,html.Screen,4_22_1,2023-09-12T19:57:43.167Z,,0,,,NaN,,,,,,false,,,,107270.89999997616,107270.69999998808,,107270.19999998808,,107277.094,8,400,,,
break_continue,html.Screen,4_22_2,2023-09-12T19:57:43.167Z,,0,,,NaN,,,,,,false,,,,107271.39999997616,107271.30000001192,,107271.09999996424,,107277.094,8,400,,,
sequence,flow.Sequence,4_22,2023-09-12T19:57:43.167Z,,0,,,2694.548000011928,completion,,,,,false,,,,107271.59999996424,107271.30000001192,104560.086,104564.69999998808,104576.752,107277.094,8,400,,,
trial,html.Screen,4_23_0,2023-09-12T19:57:45.763Z,,0,1,,2590.00599996424,response,ISIC_0027063.JPG,7,ISIC_5082596.JPG,ISIC_5082596.JPG,false,0,keypress(z),500,109867.5,109867.09999996424,107260.428,107271.59999996424,107277.094,109876.99,8,400,24,,ISIC_0027063.JPG
break,html.Screen,4_23_1,2023-09-12T19:57:45.764Z,,0,,,NaN,,,,,,false,,,,109868.5,109868.30000001192,,109867.80000001192,,109876.99,8,400,,,
break_continue,html.Screen,4_23_2,2023-09-12T19:57:45.765Z,,0,,,NaN,,,,,,false,,,,109868.89999997616,109868.80000001192,,109868.69999998808,,109876.99,8,400,,,
sequence,flow.Sequence,4_23,2023-09-12T19:57:45.765Z,,0,,,2591.7060000119236,completion,,,,,false,,,,109869.09999996424,109868.80000001192,107260.428,107271.59999996424,107277.094,109876.99,8,400,,,
trial,html.Screen,4_24_0,2023-09-12T19:57:49.961Z,,0,1,,4187.609999964232,response,ISIC_0029863.JPG,6,ISIC_2733043.JPG,ISIC_2733043.JPG,false,0,keypress(z),500,114065.09999996424,114064.59999996424,109860.324,109869.19999998808,109876.99,114076.822,8,400,25,,ISIC_0029863.JPG
break,html.Screen,4_24_1,2023-09-12T19:57:49.962Z,,0,,,NaN,,,,,,false,,,,114066,114065.80000001192,,114065.30000001192,,114076.822,8,400,,,
break_continue,html.Screen,4_24_2,2023-09-12T19:57:49.962Z,,0,,,NaN,,,,,,false,,,,114066.39999997616,114066.19999998808,,114066.09999996424,,114076.822,8,400,,,
sequence,flow.Sequence,4_24,2023-09-12T19:57:49.962Z,,0,,,4189.209999988074,completion,,,,,false,,,,114066.5,114066.19999998808,109860.324,109869.09999996424,109876.99,114076.822,8,400,,,
trial,html.Screen,4_25_0,2023-09-12T19:57:52.575Z,,0,1,,2601.777999964237,response,ISIC_0068897.JPG,8,ISIC_0069167.JPG,ISIC_0068897.JPG,false,1,keypress(m),500,116679.09999996424,116678.59999996424,114060.156,114066.69999998808,114076.822,116693.881,8,400,26,,ISIC_0069167.JPG
break,html.Screen,4_25_1,2023-09-12T19:57:52.576Z,,0,,,NaN,,,,,,false,,,,116679.89999997616,116679.69999998808,,116679.39999997616,,116693.881,8,400,,,
break_continue,html.Screen,4_25_2,2023-09-12T19:57:52.576Z,,0,,,NaN,,,,,,false,,,,116680.39999997616,116680.19999998808,,116680.09999996424,,116693.881,8,400,,,
sequence,flow.Sequence,4_25,2023-09-12T19:57:52.576Z,,0,,,2603.377999988079,completion,,,,,false,,,,116680.5,116680.19999998808,114060.156,114066.59999996424,114076.822,116693.881,8,400,,,
trial,html.Screen,4_26_0,2023-09-12T19:57:56.486Z,,0,1,,3895.518999976164,response,ISIC_3520591.JPG,8,ISIC_6357263.JPG,ISIC_3520591.JPG,false,1,keypress(m),500,120589.80000001192,120589.39999997616,116677.215,116680.69999998808,116693.881,120593.725,8,400,27,,ISIC_6357263.JPG
break,html.Screen,4_26_1,2023-09-12T19:57:56.487Z,,0,,,NaN,,,,,,false,,,,120590.80000001192,120590.5,,120590.09999996424,,120593.725,8,400,,,
break_continue,html.Screen,4_26_2,2023-09-12T19:57:56.487Z,,0,,,NaN,,,,,,false,,,,120591.19999998808,120591,,120590.89999997616,,120593.725,8,400,,,
sequence,flow.Sequence,4_26,2023-09-12T19:57:56.487Z,,0,,,3897.119000000006,completion,,,,,false,,,,120591.30000001192,120591,116677.215,116680.69999998808,116693.881,120593.725,8,400,,,
trial,html.Screen,4_27_0,2023-09-12T19:57:59.149Z,,0,1,,2659.075000011915,response,ISIC_0026943.JPG,8,ISIC_2431690.JPG,ISIC_0026943.JPG,false,1,keypress(m),500,123253.19999998808,123252.80000001192,120577.059,120591.39999997616,120593.725,123260.285,8,400,28,,ISIC_2431690.JPG
break,html.Screen,4_27_1,2023-09-12T19:57:59.150Z,,0,,,NaN,,,,,,false,,,,123254.19999998808,123253.89999997616,,123253.5,,123260.285,8,400,,,
break_continue,html.Screen,4_27_2,2023-09-12T19:57:59.150Z,,0,,,NaN,,,,,,false,,,,123254.59999996424,123254.5,,123254.30000001192,,123260.285,8,400,,,
sequence,flow.Sequence,4_27,2023-09-12T19:57:59.151Z,,0,,,2660.774999999994,completion,,,,,false,,,,123254.80000001192,123254.5,120577.059,120591.39999997616,120593.725,123260.285,8,400,,,
trial,html.Screen,4_28_0,2023-09-12T19:58:01.713Z,,0,1,,2556.8149999642337,response,ISIC_5055871.JPG,7,ISIC_0028472.JPG,ISIC_5055871.JPG,false,1,keypress(m),500,125817.59999996424,125817.09999996424,123243.619,123254.89999997616,123260.285,125826.849,8,400,29,,ISIC_0028472.JPG
break,html.Screen,4_28_1,2023-09-12T19:58:01.714Z,,0,,,NaN,,,,,,false,,,,125818.5,125818.30000001192,,125817.80000001192,,125826.849,8,400,,,
break_continue,html.Screen,4_28_2,2023-09-12T19:58:01.715Z,,0,,,NaN,,,,,,false,,,,125818.89999997616,125818.69999998808,,125818.69999998808,,125826.849,8,400,,,
sequence,flow.Sequence,4_28,2023-09-12T19:58:01.715Z,,0,,,2558.4149999880756,completion,,,,,false,,,,125819,125818.69999998808,123243.619,123254.80000001192,123260.285,125826.849,8,400,,,
trial,html.Screen,4_29_0,2023-09-12T19:58:05.030Z,,0,1,,3307.050999976156,response,ISIC_4730066.JPG,8,ISIC_0001135.JPG,ISIC_0001135.JPG,false,0,keypress(z),500,129134.30000001192,129133.89999997616,125810.183,125819.19999998808,125826.849,129143.822,8,400,30,,ISIC_4730066.JPG
break,html.Screen,4_29_1,2023-09-12T19:58:05.031Z,,0,,,NaN,,,,,,false,,,,129135.19999998808,129135,,129134.59999996424,,129143.822,8,400,,,
break_continue,html.Screen,4_29_2,2023-09-12T19:58:05.031Z,,0,,,NaN,,,,,,false,,,,129135.5,129135.39999997616,,129135.30000001192,,129143.822,8,400,,,
sequence,flow.Sequence,4_29,2023-09-12T19:58:05.031Z,,0,,,3308.550999976156,completion,,,,,false,,,,129135.59999996424,129135.39999997616,125810.183,125819.09999996424,125826.849,129143.822,8,400,,,
trial,html.Screen,4_30_0,2023-09-12T19:58:08.614Z,,0,1,,3573.478000011921,response,ISIC_0177304.JPG,8,ISIC_2234076.JPG,ISIC_0177304.JPG,false,1,keypress(m),500,132717.69999998808,132717.30000001192,129127.156,129135.59999996424,129143.822,132727.012,8,400,31,,ISIC_2234076.JPG
break,html.Screen,4_30_1,2023-09-12T19:58:08.615Z,,0,,,NaN,,,,,,false,,,,132718.80000001192,132718.39999997616,,132718,,132727.012,8,400,,,
break_continue,html.Screen,4_30_2,2023-09-12T19:58:08.615Z,,0,,,NaN,,,,,,false,,,,132719.19999998808,132719.09999996424,,132719,,132727.012,8,400,,,
sequence,flow.Sequence,4_30,2023-09-12T19:58:08.615Z,,0,,,3575.277999964237,completion,,,,,false,,,,132719.30000001192,132719.09999996424,129127.156,129135.59999996424,129143.822,132727.012,8,400,,,
trial,html.Screen,4_31_0,2023-09-12T19:58:11.878Z,,0,1,,3254.5879999642493,response,ISIC_7413149.JPG,9,ISIC_0025088.JPG,ISIC_0025088.JPG,false,0,keypress(z),500,135982.09999996424,135981.59999996424,132710.346,132719.39999997616,132727.012,135993.548,8,400,32,,ISIC_7413149.JPG
break,html.Screen,4_31_1,2023-09-12T19:58:11.879Z,,0,,,NaN,,,,,,false,,,,135983.09999996424,135982.89999997616,,135982.39999997616,,135993.548,8,400,,,
break_continue,html.Screen,4_31_2,2023-09-12T19:58:11.879Z,,0,,,NaN,,,,,,false,,,,135983.5,135983.30000001192,,135983.19999998808,,135993.548,8,400,,,
sequence,flow.Sequence,4_31,2023-09-12T19:58:11.880Z,,0,,,3256.288000011933,completion,,,,,false,,,,135983.69999998808,135983.30000001192,132710.346,132719.39999997616,132727.012,135993.548,8,400,,,
trial,html.Screen,4_32_0,2023-09-12T19:58:14.427Z,,0,1,,2536.95199999999,response,ISIC_0533122.JPG,8,ISIC_5316803.JPG,ISIC_0533122.JPG,false,1,keypress(m),500,138530.89999997616,138530.5,135976.882,135983.80000001192,135993.548,138543.904,8,400,33,,ISIC_5316803.JPG
break,html.Screen,4_32_1,2023-09-12T19:58:14.428Z,,0,,,NaN,,,,,,false,,,,138531.59999996424,138531.5,,138531.09999996424,,138543.904,8,400,,,
break_continue,html.Screen,4_32_2,2023-09-12T19:58:14.428Z,,0,,,NaN,,,,,,false,,,,138531.80000001192,138531.80000001192,,138531.69999998808,,138543.904,8,400,,,
sequence,flow.Sequence,4_32,2023-09-12T19:58:14.428Z,,0,,,2538.252000011911,completion,,,,,false,,,,138531.89999997616,138531.80000001192,135976.882,135983.69999998808,135993.548,138543.904,8,400,,,
trial,html.Screen,4_33_0,2023-09-12T19:58:17.039Z,,0,1,,2598.8960000119114,response,ISIC_5495413.JPG,9,ISIC_0072021.JPG,ISIC_0072021.JPG,false,0,keypress(z),500,141143.30000001192,141142.80000001192,138527.238,138532,138543.904,141160.466,8,400,34,,ISIC_5495413.JPG
break,html.Screen,4_33_1,2023-09-12T19:58:17.040Z,,0,,,NaN,,,,,,false,,,,141144.30000001192,141144,,141143.5,,141160.466,8,400,,,
break_continue,html.Screen,4_33_2,2023-09-12T19:58:17.041Z,,0,,,NaN,,,,,,false,,,,141144.69999998808,141144.5,,141144.39999997616,,141160.466,8,400,,,
sequence,flow.Sequence,4_33,2023-09-12T19:58:17.041Z,,0,,,2600.5959999999905,completion,,,,,false,,,,141144.80000001192,141144.5,138527.238,138532,138543.904,141160.466,8,400,,,
trial,html.Screen,4_34_0,2023-09-12T19:58:20.099Z,,0,1,,3042.534000000014,response,ISIC_4777536.JPG,4,ISIC_6452498.JPG,ISIC_4777536.JPG,false,1,keypress(m),500,144203.39999997616,144203,141143.8,141145,141160.466,144210.344,8,400,35,,ISIC_6452498.JPG
break,html.Screen,4_34_1,2023-09-12T19:58:20.100Z,,0,,,NaN,,,,,,false,,,,144204.39999997616,144204.19999998808,,144203.69999998808,,144210.344,8,400,,,
break_continue,html.Screen,4_34_2,2023-09-12T19:58:20.101Z,,0,,,NaN,,,,,,false,,,,144204.80000001192,144204.59999996424,,144204.59999996424,,144210.344,8,400,,,
sequence,flow.Sequence,4_34,2023-09-12T19:58:20.101Z,,0,,,3044.1339999642514,completion,,,,,false,,,,144204.89999997616,144204.59999996424,141143.8,141145,141160.466,144210.344,8,400,,,
trial,html.Screen,4_35_0,2023-09-12T19:58:22.729Z,,0,1,,2621.956000011909,response,ISIC_2704046.JPG,9,ISIC_0386664.JPG,ISIC_0386664.JPG,false,0,keypress(z),500,146832.80000001192,146832.30000001192,144193.678,144205.09999996424,144210.344,146844.061,8,400,36,,ISIC_2704046.JPG
break,html.Screen,4_35_1,2023-09-12T19:58:22.730Z,,0,,,NaN,,,,,,false,,,,146833.80000001192,146833.59999996424,,146833,,146844.061,8,400,,,
break_continue,html.Screen,4_35_2,2023-09-12T19:58:22.730Z,,0,,,NaN,,,,,,false,,,,146834.09999996424,146834,,146833.80000001192,,146844.061,8,400,,,
sequence,flow.Sequence,4_35,2023-09-12T19:58:22.730Z,,0,,,2623.655999999988,completion,,,,,false,,,,146834.19999998808,146834,144193.678,144205.09999996424,144210.344,146844.061,8,400,,,
trial,html.Screen,4_36_0,2023-09-12T19:58:25.301Z,,0,1,,2560.239000011934,response,ISIC_4911407.JPG,6,ISIC_2957732.JPG,ISIC_4911407.JPG,false,1,keypress(m),500,149404.80000001192,149404.30000001192,146827.395,146834.39999997616,146844.061,149410.625,8,400,37,,ISIC_2957732.JPG
break,html.Screen,4_36_1,2023-09-12T19:58:25.302Z,,0,,,NaN,,,,,,false,,,,149405.80000001192,149405.5,,149405,,149410.625,8,400,,,
break_continue,html.Screen,4_36_2,2023-09-12T19:58:25.302Z,,0,,,NaN,,,,,,false,,,,149406.09999996424,149406,,149405.89999997616,,149410.625,8,400,,,
sequence,flow.Sequence,4_36,2023-09-12T19:58:25.302Z,,0,,,2561.939000000013,completion,,,,,false,,,,149406.30000001192,149406,146827.395,146834.39999997616,146844.061,149410.625,8,400,,,
trial,html.Screen,4_37_0,2023-09-12T19:58:28.169Z,,0,1,,2862.274999976158,response,ISIC_0011648.JPG,5,ISIC_7555812.JPG,ISIC_0011648.JPG,false,1,keypress(m),500,152273.39999997616,152272.89999997616,149393.959,149406.5,149410.625,152277.177,8,400,38,,ISIC_7555812.JPG
break,html.Screen,4_37_1,2023-09-12T19:58:28.170Z,,0,,,NaN,,,,,,false,,,,152274.39999997616,152274.09999996424,,152273.69999998808,,152277.177,8,400,,,
break_continue,html.Screen,4_37_2,2023-09-12T19:58:28.171Z,,0,,,NaN,,,,,,false,,,,152274.80000001192,152274.69999998808,,152274.5,,152277.177,8,400,,,
sequence,flow.Sequence,4_37,2023-09-12T19:58:28.171Z,,0,,,2864.074999988079,completion,,,,,false,,,,152275,152274.69999998808,149393.959,149406.39999997616,149410.625,152277.177,8,400,,,
trial,html.Screen,4_38_0,2023-09-12T19:58:31.263Z,,0,1,,3089.922999964241,response,ISIC_3706743.JPG,8,ISIC_7761711.JPG,ISIC_3706743.JPG,false,1,keypress(m),500,155367.39999997616,155367.09999996424,152260.511,152275.09999996424,152277.177,155377.053,8,400,39,,ISIC_7761711.JPG
break,html.Screen,4_38_1,2023-09-12T19:58:31.264Z,,0,,,NaN,,,,,,false,,,,155368.5,155368.30000001192,,155367.80000001192,,155377.053,8,400,,,
break_continue,html.Screen,4_38_2,2023-09-12T19:58:31.265Z,,0,,,NaN,,,,,,false,,,,155368.80000001192,155368.69999998808,,155368.69999998808,,155377.053,8,400,,,
sequence,flow.Sequence,4_38,2023-09-12T19:58:31.265Z,,0,,,3091.522999988083,completion,,,,,false,,,,155369,155368.69999998808,152260.511,152275.09999996424,152277.177,155377.053,8,400,,,
trial,html.Screen,4_39_0,2023-09-12T19:58:33.965Z,,0,1,,2691.046999964223,response,ISIC_9655520.JPG,8,ISIC_5830274.JPG,ISIC_5830274.JPG,false,0,keypress(z),500,158068.59999996424,158068.09999996424,155360.387,155369.19999998808,155377.053,158077.398,8,400,40,,ISIC_9655520.JPG
break,html.Screen,4_39_1,2023-09-12T19:58:33.966Z,,0,,,NaN,,,,,,false,,,,158069.59999996424,158069.39999997616,,158068.80000001192,,158077.398,8,400,,,
break_continue,html.Screen,4_39_2,2023-09-12T19:58:33.966Z,,0,,,NaN,,,,,,false,,,,158070.09999996424,158069.89999997616,,158069.80000001192,,158077.398,8,400,,,
sequence,flow.Sequence,4_39,2023-09-12T19:58:33.966Z,,0,,,2692.8469999761437,completion,,,,,false,,,,158070.19999998808,158069.89999997616,155360.387,155369.09999996424,155377.053,158077.398,8,400,,,
trial,html.Screen,4_40_0,2023-09-12T19:58:36.404Z,,0,1,,2429.9020000119344,response,ISIC_0067562.JPG,6,ISIC_0218072.JPG,ISIC_0067562.JPG,false,1,keypress(m),500,160507.69999998808,160507.30000001192,158060.732,158070.39999997616,158077.398,160510.634,8,400,41,,ISIC_0218072.JPG
break,html.Screen,4_40_1,2023-09-12T19:58:36.405Z,,0,,,NaN,,,,,,false,,,,160508.69999998808,160508.39999997616,,160507.89999997616,,160510.634,8,400,,,
break_continue,html.Screen,4_40_2,2023-09-12T19:58:36.405Z,,0,,,NaN,,,,,,false,,,,160509,160508.89999997616,,160508.80000001192,,160510.634,8,400,,,
sequence,flow.Sequence,4_40,2023-09-12T19:58:36.405Z,,0,,,2431.5019999761716,completion,,,,,false,,,,160509.19999998808,160508.89999997616,158060.732,158070.19999998808,158077.398,160510.634,8,400,,,
trial,html.Screen,4_41_0,2023-09-12T19:58:39.462Z,,0,1,,3055.065999988088,response,ISIC_6250970.JPG,7,ISIC_2535541.JPG,ISIC_2535541.JPG,false,0,keypress(z),500,163566.09999996424,163565.69999998808,160493.968,160509.30000001192,160510.634,163577.178,8,400,42,,ISIC_6250970.JPG
break,html.Screen,4_41_1,2023-09-12T19:58:39.463Z,,0,,,NaN,,,,,,false,,,,163567.09999996424,163566.89999997616,,163566.39999997616,,163577.178,8,400,,,
break_continue,html.Screen,4_41_2,2023-09-12T19:58:39.463Z,,0,,,NaN,,,,,,false,,,,163567.5,163567.39999997616,,163567.19999998808,,163577.178,8,400,,,
sequence,flow.Sequence,4_41,2023-09-12T19:58:39.464Z,,0,,,3056.765999976167,completion,,,,,false,,,,163567.69999998808,163567.39999997616,160493.968,160509.30000001192,160510.634,163577.178,8,400,,,
trial,html.Screen,4_42_0,2023-09-12T19:58:42.246Z,,0,1,,2772.421999964223,response,ISIC_0032532.JPG,8,ISIC_1964243.JPG,ISIC_1964243.JPG,false,0,keypress(z),500,166350,166349.59999996424,163560.512,163567.89999997616,163577.178,166360.4,8,400,43,,ISIC_0032532.JPG
break,html.Screen,4_42_1,2023-09-12T19:58:42.247Z,,0,,,NaN,,,,,,false,,,,166350.89999997616,166350.69999998808,,166350.19999998808,,166360.4,8,400,,,
break_continue,html.Screen,4_42_2,2023-09-12T19:58:42.247Z,,0,,,NaN,,,,,,false,,,,166351.30000001192,166351.19999998808,,166351,,166360.4,8,400,,,
sequence,flow.Sequence,4_42,2023-09-12T19:58:42.247Z,,0,,,2774.0219999880646,completion,,,,,false,,,,166351.39999997616,166351.19999998808,163560.512,163567.80000001192,163577.178,166360.4,8,400,,,
trial,html.Screen,4_43_0,2023-09-12T19:58:44.966Z,,0,1,,2709.100000000006,response,ISIC_3251773.JPG,9,ISIC_8435105.JPG,ISIC_3251773.JPG,false,1,keypress(m),500,169069.89999997616,169069.5,166343.734,166351.59999996424,166360.4,169077.453,8,400,44,,ISIC_8435105.JPG
break,html.Screen,4_43_1,2023-09-12T19:58:44.967Z,,0,,,NaN,,,,,,false,,,,169070.89999997616,169070.69999998808,,169070.30000001192,,169077.453,8,400,,,
break_continue,html.Screen,4_43_2,2023-09-12T19:58:44.967Z,,0,,,NaN,,,,,,false,,,,169071.30000001192,169071.19999998808,,169071.09999996424,,169077.453,8,400,,,
sequence,flow.Sequence,4_43,2023-09-12T19:58:44.967Z,,0,,,2710.799999988085,completion,,,,,false,,,,169071.39999997616,169071.19999998808,166343.734,166351.59999996424,166360.4,169077.453,8,400,,,
trial,html.Screen,4_44_0,2023-09-12T19:58:47.709Z,,0,1,,2735.4469999761495,response,ISIC_1888865.JPG,6,ISIC_7004652.JPG,ISIC_7004652.JPG,false,0,keypress(z),500,171813.30000001192,171812.89999997616,169060.787,169071.59999996424,169077.453,171827.343,8,400,45,,ISIC_1888865.JPG
break,html.Screen,4_44_1,2023-09-12T19:58:47.710Z,,0,,,NaN,,,,,,false,,,,171814.30000001192,171814.09999996424,,171813.59999996424,,171827.343,8,400,,,
break_continue,html.Screen,4_44_2,2023-09-12T19:58:47.711Z,,0,,,NaN,,,,,,false,,,,171814.69999998808,171814.59999996424,,171814.5,,171827.343,8,400,,,
sequence,flow.Sequence,4_44,2023-09-12T19:58:47.711Z,,0,,,2737.1469999642286,completion,,,,,false,,,,171814.89999997616,171814.59999996424,169060.787,169071.59999996424,169077.453,171827.343,8,400,,,
trial,html.Screen,4_45_0,2023-09-12T19:58:50.574Z,,0,1,,2849.8569999880856,response,ISIC_9896801.JPG,8,ISIC_3218227.JPG,ISIC_9896801.JPG,false,1,keypress(m),500,174677.69999998808,174677.19999998808,171810.677,171815,171827.343,174693.895,8,400,46,,ISIC_3218227.JPG
break,html.Screen,4_45_1,2023-09-12T19:58:50.575Z,,0,,,NaN,,,,,,false,,,,174678.59999996424,174678.39999997616,,174678,,174693.895,8,400,,,
break_continue,html.Screen,4_45_2,2023-09-12T19:58:50.575Z,,0,,,NaN,,,,,,false,,,,174679.09999996424,174679,,174678.80000001192,,174693.895,8,400,,,
sequence,flow.Sequence,4_45,2023-09-12T19:58:50.575Z,,0,,,2851.6570000000065,completion,,,,,false,,,,174679.30000001192,174679,171810.677,171814.89999997616,171827.343,174693.895,8,400,,,
trial,html.Screen,4_46_0,2023-09-12T19:58:53.669Z,,0,1,,3079.1050000000105,response,ISIC_0059357.JPG,9,ISIC_2545299.JPG,ISIC_2545299.JPG,false,0,keypress(z),500,177773.30000001192,177773,174677.229,174679.5,174693.895,177777.105,8,400,47,,ISIC_0059357.JPG
break,html.Screen,4_46_1,2023-09-12T19:58:53.670Z,,0,,,NaN,,,,,,false,,,,177774.30000001192,177774.09999996424,,177773.59999996424,,177777.105,8,400,,,
break_continue,html.Screen,4_46_2,2023-09-12T19:58:53.671Z,,0,,,NaN,,,,,,false,,,,177774.69999998808,177774.59999996424,,177774.5,,177777.105,8,400,,,
sequence,flow.Sequence,4_46,2023-09-12T19:58:53.671Z,,0,,,3080.7049999642477,completion,,,,,false,,,,177774.89999997616,177774.59999996424,174677.229,174679.39999997616,174693.895,177777.105,8,400,,,
trial,html.Screen,4_47_0,2023-09-12T19:58:57.274Z,,0,1,,3600.3949999999895,response,ISIC_0062058.JPG,5,ISIC_0029021.JPG,ISIC_0029021.JPG,false,0,keypress(z),500,181377.89999997616,181377.5,177760.439,177775,177777.105,181394.074,8,400,48,,ISIC_0062058.JPG
break,html.Screen,4_47_1,2023-09-12T19:58:57.275Z,,0,,,NaN,,,,,,false,,,,181378.89999997616,181378.59999996424,,181378.19999998808,,181394.074,8,400,,,
break_continue,html.Screen,4_47_2,2023-09-12T19:58:57.275Z,,0,,,NaN,,,,,,false,,,,181379.30000001192,181379.09999996424,,181379,,181394.074,8,400,,,
sequence,flow.Sequence,4_47,2023-09-12T19:58:57.275Z,,0,,,3601.9949999642267,completion,,,,,false,,,,181379.39999997616,181379.09999996424,177760.439,177774.89999997616,177777.105,181394.074,8,400,,,
trial,html.Screen,4_48_0,2023-09-12T19:59:00.324Z,,0,1,,3033.825999976165,response,ISIC_0016123.JPG,9,ISIC_0055887.JPG,ISIC_0016123.JPG,false,1,keypress(m),500,184428.19999998808,184427.89999997616,181377.408,181379.5,181394.074,184443.952,8,400,49,,ISIC_0055887.JPG
break,html.Screen,4_48_1,2023-09-12T19:59:00.325Z,,0,,,NaN,,,,,,false,,,,184429.19999998808,184429.09999996424,,184428.5,,184443.952,8,400,,,
break_continue,html.Screen,4_48_2,2023-09-12T19:59:00.326Z,,0,,,NaN,,,,,,false,,,,184429.5,184429.5,,184429.30000001192,,184443.952,8,400,,,
sequence,flow.Sequence,4_48,2023-09-12T19:59:00.326Z,,0,,,3035.4260000000068,completion,,,,,false,,,,184429.69999998808,184429.5,181377.408,181379.5,181394.074,184443.952,8,400,,,
trial,html.Screen,4_49_0,2023-09-12T19:59:04.261Z,,0,1,,3920.247999988089,response,ISIC_0054748.JPG,8,ISIC_2400177.JPG,ISIC_0054748.JPG,false,1,keypress(m),500,188364.5,188364.19999998808,184427.286,184429.80000001192,184443.952,188377.519,8,400,50,,ISIC_2400177.JPG
break,html.Screen,4_49_1,2023-09-12T19:59:14.262Z,,0,,,10000.138000000006,timeout,,,,,false,,,,198365.80000001192,198360.991,188360.853,188364.80000001192,188377.519,198377.657,8,400,,,
break_continue,html.Screen,4_49_2,2023-09-12T19:59:35.976Z,,0,,,21688.542999988073,response,,,,,false,continue,keypress(Space),,220079.5,220066.19999998808,198360.991,198366,198377.657,220093.477,8,400,,,
sequence,flow.Sequence,4_49,2023-09-12T19:59:35.976Z,,0,,,35622.24799998809,completion,,,,,false,,,,220079.59999996424,220066.19999998808,184427.286,184429.80000001192,184443.952,220093.477,8,400,,,
trial,html.Screen,4_50_0,2023-09-12T19:59:39.398Z,,0,2,,3407.6229999642237,response,ISIC_0009100.JPG,8,ISIC_9196783.JPG,ISIC_9196783.JPG,false,0,keypress(z),500,223501.5,223501.09999996424,220076.811,220079.69999998808,220093.477,223510.007,8,400,1,,ISIC_0009100.JPG
break,html.Screen,4_50_1,2023-09-12T19:59:39.398Z,,0,,,NaN,,,,,,false,,,,223502.5,223502.30000001192,,223501.80000001192,,223510.007,8,400,,,
break_continue,html.Screen,4_50_2,2023-09-12T19:59:39.399Z,,0,,,NaN,,,,,,false,,,,223502.80000001192,223502.69999998808,,223502.59999996424,,223510.007,8,400,,,
sequence,flow.Sequence,4_50,2023-09-12T19:59:39.399Z,,0,,,3409.2229999880656,completion,,,,,false,,,,223503,223502.69999998808,220076.811,220079.69999998808,220093.477,223510.007,8,400,,,
trial,html.Screen,4_51_0,2023-09-12T19:59:42.086Z,,0,2,,2679.7930000119086,response,ISIC_0030017.JPG,8,ISIC_4728167.JPG,ISIC_4728167.JPG,false,0,keypress(z),500,226190.09999996424,226189.80000001192,223493.341,223503.19999998808,223510.007,226193.233,8,400,2,,ISIC_0030017.JPG
break,html.Screen,4_51_1,2023-09-12T19:59:42.087Z,,0,,,NaN,,,,,,false,,,,226191.19999998808,226190.89999997616,,226190.39999997616,,226193.233,8,400,,,
break_continue,html.Screen,4_51_2,2023-09-12T19:59:42.088Z,,0,,,NaN,,,,,,false,,,,226191.59999996424,226191.5,,226191.30000001192,,226193.233,8,400,,,
sequence,flow.Sequence,4_51,2023-09-12T19:59:42.088Z,,0,,,2681.4929999999877,completion,,,,,false,,,,226191.80000001192,226191.5,223493.341,223503.09999996424,223510.007,226193.233,8,400,,,
trial,html.Screen,4_52_0,2023-09-12T19:59:44.691Z,,0,2,,2601.8669999642298,response,ISIC_0028944.JPG,6,ISIC_0014557.JPG,ISIC_0014557.JPG,false,0,keypress(z),500,228795.30000001192,228795.09999996424,226176.567,226191.89999997616,226193.233,228809.795,8,400,3,,ISIC_0028944.JPG
break,html.Screen,4_52_1,2023-09-12T19:59:44.692Z,,0,,,NaN,,,,,,false,,,,228796.30000001192,228796.19999998808,,228795.59999996424,,228809.795,8,400,,,
break_continue,html.Screen,4_52_2,2023-09-12T19:59:44.693Z,,0,,,NaN,,,,,,false,,,,228796.69999998808,228796.59999996424,,228796.39999997616,,228809.795,8,400,,,
sequence,flow.Sequence,4_52,2023-09-12T19:59:44.693Z,,0,,,2603.3669999642298,completion,,,,,false,,,,228796.89999997616,228796.59999996424,226176.567,226191.89999997616,226193.233,228809.795,8,400,,,
trial,html.Screen,4_53_0,2023-09-12T19:59:48.012Z,,0,2,,3305.4049999880663,response,ISIC_0595080.JPG,5,ISIC_0263478.JPG,ISIC_0263478.JPG,false,0,keypress(z),500,232115.59999996424,232115.19999998808,228793.129,228797.09999996424,228809.795,232127.677,8,400,4,,ISIC_0595080.JPG
break,html.Screen,4_53_1,2023-09-12T19:59:48.013Z,,0,,,NaN,,,,,,false,,,,232116.5,232116.39999997616,,232115.89999997616,,232127.677,8,400,,,
break_continue,html.Screen,4_53_2,2023-09-12T19:59:48.013Z,,0,,,NaN,,,,,,false,,,,232116.89999997616,232116.80000001192,,232116.69999998808,,232127.677,8,400,,,
sequence,flow.Sequence,4_53,2023-09-12T19:59:48.013Z,,0,,,3307.005000011908,completion,,,,,false,,,,232117.09999996424,232116.80000001192,228793.129,228797,228809.795,232127.677,8,400,,,
trial,html.Screen,4_54_0,2023-09-12T19:59:50.480Z,,0,2,,2455.422999964241,response,ISIC_2486088.JPG,6,ISIC_0058174.JPG,ISIC_2486088.JPG,false,1,keypress(m),500,234583.59999996424,234583.09999996424,232111.011,232117.19999998808,232127.677,234594.245,8,400,5,,ISIC_0058174.JPG
break,html.Screen,4_54_1,2023-09-12T19:59:50.481Z,,0,,,NaN,,,,,,false,,,,234584.5,234584.19999998808,,234583.80000001192,,234594.245,8,400,,,
break_continue,html.Screen,4_54_2,2023-09-12T19:59:50.481Z,,0,,,NaN,,,,,,false,,,,234584.89999997616,234584.69999998808,,234584.59999996424,,234594.245,8,400,,,
sequence,flow.Sequence,4_54,2023-09-12T19:59:50.481Z,,0,,,2457.022999988083,completion,,,,,false,,,,234585,234584.69999998808,232111.011,232117.19999998808,232127.677,234594.245,8,400,,,
trial,html.Screen,4_55_0,2023-09-12T19:59:54.151Z,,0,2,,3660.0550000119256,response,ISIC_0031368.JPG,5,ISIC_4172470.JPG,ISIC_0031368.JPG,false,1,keypress(m),500,238254.69999998808,238254.30000001192,234577.579,234585.09999996424,234594.245,238260.765,8,400,6,,ISIC_4172470.JPG
break,html.Screen,4_55_1,2023-09-12T19:59:54.152Z,,0,,,NaN,,,,,,false,,,,238255.69999998808,238255.5,,238255,,238260.765,8,400,,,
break_continue,html.Screen,4_55_2,2023-09-12T19:59:54.152Z,,0,,,NaN,,,,,,false,,,,238256,238255.89999997616,,238255.80000001192,,238260.765,8,400,,,
sequence,flow.Sequence,4_55,2023-09-12T19:59:54.152Z,,0,,,3661.654999976163,completion,,,,,false,,,,238256.30000001192,238255.89999997616,234577.579,234585.09999996424,234594.245,238260.765,8,400,,,
trial,html.Screen,4_56_0,2023-09-12T19:59:56.838Z,,0,2,,2680.434999988065,response,ISIC_5982769.JPG,6,ISIC_0031203.JPG,ISIC_5982769.JPG,false,1,keypress(m),500,240941.69999998808,240941.19999998808,238244.099,238256.5,238260.765,240944.487,8,400,7,,ISIC_0031203.JPG
break,html.Screen,4_56_1,2023-09-12T19:59:56.839Z,,0,,,NaN,,,,,,false,,,,240942.59999996424,240942.39999997616,,240941.89999997616,,240944.487,8,400,,,
break_continue,html.Screen,4_56_2,2023-09-12T19:59:56.839Z,,0,,,NaN,,,,,,false,,,,240943,240942.89999997616,,240942.80000001192,,240944.487,8,400,,,
sequence,flow.Sequence,4_56,2023-09-12T19:59:56.839Z,,0,,,2682.134999976144,completion,,,,,false,,,,240943.09999996424,240942.89999997616,238244.099,238256.39999997616,238260.765,240944.487,8,400,,,
trial,html.Screen,4_57_0,2023-09-12T19:59:59.533Z,,0,2,,2691.813000011927,response,ISIC_0033166.JPG,8,ISIC_2142639.JPG,ISIC_2142639.JPG,false,0,keypress(z),500,243636.80000001192,243636.30000001192,240927.821,240943.30000001192,240944.487,243644.379,8,400,8,,ISIC_0033166.JPG
break,html.Screen,4_57_1,2023-09-12T19:59:59.534Z,,0,,,NaN,,,,,,false,,,,243637.69999998808,243637.5,,243637,,243644.379,8,400,,,
break_continue,html.Screen,4_57_2,2023-09-12T19:59:59.534Z,,0,,,NaN,,,,,,false,,,,243638.09999996424,243638,,243637.80000001192,,243644.379,8,400,,,
sequence,flow.Sequence,4_57,2023-09-12T19:59:59.534Z,,0,,,2693.5130000000063,completion,,,,,false,,,,243638.30000001192,243638,240927.821,240943.19999998808,240944.487,243644.379,8,400,,,
trial,html.Screen,4_58_0,2023-09-12T20:00:03.748Z,,0,2,,4207.220999964251,response,ISIC_0060626.JPG,8,ISIC_8295152.JPG,ISIC_0060626.JPG,false,1,keypress(m),500,247851.89999997616,247851.59999996424,243627.713,243638.39999997616,243644.379,247860.877,8,400,9,,ISIC_8295152.JPG
break,html.Screen,4_58_1,2023-09-12T20:00:03.749Z,,0,,,NaN,,,,,,false,,,,247853,247852.69999998808,,247852.19999998808,,247860.877,8,400,,,
break_continue,html.Screen,4_58_2,2023-09-12T20:00:03.749Z,,0,,,NaN,,,,,,false,,,,247853.30000001192,247853.19999998808,,247853.09999996424,,247860.877,8,400,,,
sequence,flow.Sequence,4_58,2023-09-12T20:00:03.750Z,,0,,,4208.820999988093,completion,,,,,false,,,,247853.39999997616,247853.19999998808,243627.713,243638.39999997616,243644.379,247860.877,8,400,,,
trial,html.Screen,4_59_0,2023-09-12T20:00:07.032Z,,0,2,,3274.9230000119132,response,ISIC_0029244.JPG,5,ISIC_0063026.JPG,ISIC_0063026.JPG,false,0,keypress(z),500,251136.09999996424,251135.80000001192,247844.211,247853.5,247860.877,251144.511,8,400,10,,ISIC_0029244.JPG
break,html.Screen,4_59_1,2023-09-12T20:00:07.033Z,,0,,,NaN,,,,,,false,,,,251136.89999997616,251136.69999998808,,251136.30000001192,,251144.511,8,400,,,
break_continue,html.Screen,4_59_2,2023-09-12T20:00:07.033Z,,0,,,NaN,,,,,,false,,,,251137.09999996424,251137,,251136.89999997616,,251144.511,8,400,,,
sequence,flow.Sequence,4_59,2023-09-12T20:00:07.033Z,,0,,,3276.1229999999923,completion,,,,,false,,,,251137.30000001192,251137,247844.211,247853.5,247860.877,251144.511,8,400,,,
trial,html.Screen,4_60_0,2023-09-12T20:00:09.678Z,,0,2,,2636.7890000119223,response,ISIC_5377237.JPG,7,ISIC_1883330.JPG,ISIC_1883330.JPG,false,0,keypress(z),500,253781.69999998808,253781.30000001192,251127.845,251137.39999997616,251144.511,253794.405,8,400,11,,ISIC_5377237.JPG
break,html.Screen,4_60_1,2023-09-12T20:00:09.679Z,,0,,,NaN,,,,,,false,,,,253782.69999998808,253782.5,,253782,,253794.405,8,400,,,
break_continue,html.Screen,4_60_2,2023-09-12T20:00:09.679Z,,0,,,NaN,,,,,,false,,,,253783.09999996424,253783,,253782.80000001192,,253794.405,8,400,,,
sequence,flow.Sequence,4_60,2023-09-12T20:00:09.679Z,,0,,,2638.4890000000014,completion,,,,,false,,,,253783.30000001192,253783,251127.845,251137.30000001192,251144.511,253794.405,8,400,,,
trial,html.Screen,4_61_0,2023-09-12T20:00:13.764Z,,0,2,,4072.895000011922,response,ISIC_5198780.JPG,8,ISIC_6377622.JPG,ISIC_5198780.JPG,false,1,keypress(m),500,257867.59999996424,257867.30000001192,253777.739,253783.39999997616,253794.405,257877.575,8,400,12,,ISIC_6377622.JPG
break,html.Screen,4_61_1,2023-09-12T20:00:13.765Z,,0,,,NaN,,,,,,false,,,,257868.59999996424,257868.39999997616,,257867.89999997616,,257877.575,8,400,,,
break_continue,html.Screen,4_61_2,2023-09-12T20:00:13.765Z,,0,,,NaN,,,,,,false,,,,257868.89999997616,257868.89999997616,,257868.69999998808,,257877.575,8,400,,,
sequence,flow.Sequence,4_61,2023-09-12T20:00:13.765Z,,0,,,4074.4949999761593,completion,,,,,false,,,,257869.09999996424,257868.89999997616,253777.739,253783.39999997616,253794.405,257877.575,8,400,,,
trial,html.Screen,4_62_0,2023-09-12T20:00:16.406Z,,0,2,,2631.6249999880674,response,ISIC_0027420.JPG,8,ISIC_6517663.JPG,ISIC_6517663.JPG,false,0,keypress(z),500,260509.5,260509.19999998808,257860.909,257869.30000001192,257877.575,260511.278,8,400,13,,ISIC_0027420.JPG
break,html.Screen,4_62_1,2023-09-12T20:00:16.407Z,,0,,,NaN,,,,,,false,,,,260510.39999997616,260510.19999998808,,260509.80000001192,,260511.278,8,400,,,
break_continue,html.Screen,4_62_2,2023-09-12T20:00:16.407Z,,0,,,NaN,,,,,,false,,,,260510.80000001192,260510.69999998808,,260510.59999996424,,260511.278,8,400,,,
sequence,flow.Sequence,4_62,2023-09-12T20:00:16.407Z,,0,,,2633.1249999880674,completion,,,,,false,,,,260511,260510.69999998808,257860.909,257869.30000001192,257877.575,260511.278,8,400,,,
trial,html.Screen,4_63_0,2023-09-12T20:00:19.050Z,,0,2,,2641.921999988088,response,ISIC_0033651.JPG,8,ISIC_7482149.JPG,ISIC_7482149.JPG,false,0,keypress(z),500,263153.5,263153.1999999881,260494.612,260511.09999996424,260511.278,263161.172,8,400,14,,ISIC_0033651.JPG
break,html.Screen,4_63_1,2023-09-12T20:00:19.051Z,,0,,,NaN,,,,,,false,,,,263154.59999996424,263154.3000000119,,263153.8000000119,,263161.172,8,400,,,
break_continue,html.Screen,4_63_2,2023-09-12T20:00:19.051Z,,0,,,NaN,,,,,,false,,,,263154.89999997616,263154.89999997616,,263154.6999999881,,263161.172,8,400,,,
sequence,flow.Sequence,4_63,2023-09-12T20:00:19.051Z,,0,,,2643.621999976167,completion,,,,,false,,,,263155.1999999881,263154.89999997616,260494.612,260511.09999996424,260511.278,263161.172,8,400,,,
trial,html.Screen,4_64_0,2023-09-12T20:00:21.838Z,,0,2,,2780.9279999642167,response,ISIC_0054239.JPG,6,ISIC_9611100.JPG,ISIC_9611100.JPG,false,0,keypress(z),500,265942.39999997616,265942.09999996424,263144.506,263155.3000000119,263161.172,265944.394,8,400,15,,ISIC_0054239.JPG
break,html.Screen,4_64_1,2023-09-12T20:00:21.839Z,,0,,,NaN,,,,,,false,,,,265943.3000000119,265943.1999999881,,265942.6999999881,,265944.394,8,400,,,
break_continue,html.Screen,4_64_2,2023-09-12T20:00:21.840Z,,0,,,NaN,,,,,,false,,,,265943.6999999881,265943.5,,265943.39999997616,,265944.394,8,400,,,
sequence,flow.Sequence,4_64,2023-09-12T20:00:21.840Z,,0,,,2782.3279999999795,completion,,,,,false,,,,265943.89999997616,265943.5,263144.506,263155.1999999881,263161.172,265944.394,8,400,,,
trial,html.Screen,4_65_0,2023-09-12T20:00:25.021Z,,0,2,,3180.606000000029,response,ISIC_5015378.JPG,6,ISIC_2412888.JPG,ISIC_2412888.JPG,false,0,keypress(z),500,269125.39999997616,269125,265927.728,265944.09999996424,265944.394,269127.6,8,400,16,,ISIC_5015378.JPG
break,html.Screen,4_65_1,2023-09-12T20:00:25.022Z,,0,,,NaN,,,,,,false,,,,269126.3000000119,269126.1999999881,,269125.59999996424,,269127.6,8,400,,,
break_continue,html.Screen,4_65_2,2023-09-12T20:00:25.023Z,,0,,,NaN,,,,,,false,,,,269126.6999999881,269126.59999996424,,269126.5,,269127.6,8,400,,,
sequence,flow.Sequence,4_65,2023-09-12T20:00:25.023Z,,0,,,3182.205999964266,completion,,,,,false,,,,269126.8000000119,269126.59999996424,265927.728,265944,265944.394,269127.6,8,400,,,
trial,html.Screen,4_66_0,2023-09-12T20:00:28.100Z,,0,2,,3076.2999999761814,response,ISIC_2252958.JPG,6,ISIC_7387061.JPG,ISIC_2252958.JPG,false,1,keypress(m),500,272204.3000000119,272203.89999997616,269110.934,269126.89999997616,269127.6,272211.294,8,400,17,,ISIC_7387061.JPG
break,html.Screen,4_66_1,2023-09-12T20:00:28.101Z,,0,,,NaN,,,,,,false,,,,272205.3000000119,272205.09999996424,,272204.5,,272211.294,8,400,,,
break_continue,html.Screen,4_66_2,2023-09-12T20:00:28.102Z,,0,,,NaN,,,,,,false,,,,272205.59999996424,272205.5,,272205.39999997616,,272211.294,8,400,,,
sequence,flow.Sequence,4_66,2023-09-12T20:00:28.102Z,,0,,,3077.9000000000233,completion,,,,,false,,,,272205.6999999881,272205.5,269110.934,269126.89999997616,269127.6,272211.294,8,400,,,
trial,html.Screen,4_67_0,2023-09-12T20:00:30.759Z,,0,2,,2651.1059999761637,response,ISIC_0026506.JPG,5,ISIC_9819223.JPG,ISIC_9819223.JPG,false,0,keypress(z),500,274862.8000000119,274862.39999997616,272194.628,272205.89999997616,272211.294,274877.854,8,400,18,,ISIC_0026506.JPG
break,html.Screen,4_67_1,2023-09-12T20:00:30.760Z,,0,,,NaN,,,,,,false,,,,274863.8000000119,274863.5,,274863.09999996424,,274877.854,8,400,,,
break_continue,html.Screen,4_67_2,2023-09-12T20:00:30.760Z,,0,,,NaN,,,,,,false,,,,274864.09999996424,274863.89999997616,,274863.8000000119,,274877.854,8,400,,,
sequence,flow.Sequence,4_67,2023-09-12T20:00:30.760Z,,0,,,2652.6059999761637,completion,,,,,false,,,,274864.3000000119,274863.89999997616,272194.628,272205.8000000119,272211.294,274877.854,8,400,,,
trial,html.Screen,4_68_0,2023-09-12T20:00:33.451Z,,0,2,,2676.545999976166,response,ISIC_0054006.JPG,8,ISIC_0030653.JPG,ISIC_0054006.JPG,false,1,keypress(m),500,277554.8000000119,277554.39999997616,274861.188,274864.39999997616,274877.854,277561.08,8,400,19,,ISIC_0030653.JPG
break,html.Screen,4_68_1,2023-09-12T20:00:33.452Z,,0,,,NaN,,,,,,false,,,,277555.8000000119,277555.59999996424,,277555.1999999881,,277561.08,8,400,,,
break_continue,html.Screen,4_68_2,2023-09-12T20:00:33.452Z,,0,,,NaN,,,,,,false,,,,277556.1999999881,277556.09999996424,,277555.89999997616,,277561.08,8,400,,,
sequence,flow.Sequence,4_68,2023-09-12T20:00:33.452Z,,0,,,2678.245999964245,completion,,,,,false,,,,277556.3000000119,277556.09999996424,274861.188,274864.3000000119,274877.854,277561.08,8,400,,,
trial,html.Screen,4_69_0,2023-09-12T20:00:36.598Z,,0,2,,3139.9199999999837,response,ISIC_0002026.JPG,6,ISIC_0033893.JPG,ISIC_0033893.JPG,false,0,keypress(z),500,280701.39999997616,280701,277544.414,277556.5,277561.08,280711.355,8,400,20,,ISIC_0002026.JPG
break,html.Screen,4_69_1,2023-09-12T20:00:36.599Z,,0,,,NaN,,,,,,false,,,,280702.5,280702.3000000119,,280701.89999997616,,280711.355,8,400,,,
break_continue,html.Screen,4_69_2,2023-09-12T20:00:36.599Z,,0,,,NaN,,,,,,false,,,,280702.89999997616,280702.6999999881,,280702.59999996424,,280711.355,8,400,,,
sequence,flow.Sequence,4_69,2023-09-12T20:00:36.599Z,,0,,,3141.619999988063,completion,,,,,false,,,,280703.09999996424,280702.6999999881,277544.414,277556.5,277561.08,280711.355,8,400,,,
trial,html.Screen,4_70_0,2023-09-12T20:00:39.837Z,,0,2,,3228.6450000000186,response,ISIC_0031293.JPG,7,ISIC_3965872.JPG,ISIC_0031293.JPG,false,1,keypress(m),500,283940.39999997616,283940,280694.689,280703.1999999881,280711.355,283944.559,8,400,21,,ISIC_3965872.JPG
break,html.Screen,4_70_1,2023-09-12T20:00:39.837Z,,0,,,NaN,,,,,,false,,,,283941.39999997616,283941.1999999881,,283940.6999999881,,283944.559,8,400,,,
break_continue,html.Screen,4_70_2,2023-09-12T20:00:39.838Z,,0,,,NaN,,,,,,false,,,,283941.8000000119,283941.59999996424,,283941.5,,283944.559,8,400,,,
sequence,flow.Sequence,4_70,2023-09-12T20:00:39.838Z,,0,,,3230.244999964256,completion,,,,,false,,,,283941.89999997616,283941.59999996424,280694.689,280703.1999999881,280711.355,283944.559,8,400,,,
trial,html.Screen,4_71_0,2023-09-12T20:00:42.798Z,,0,2,,2957.040999964229,response,ISIC_0026236.JPG,8,ISIC_8651765.JPG,ISIC_8651765.JPG,false,0,keypress(z),500,286902.09999996424,286901.59999996424,283927.893,283942.09999996424,283944.559,286911.107,8,400,22,,ISIC_0026236.JPG
break,html.Screen,4_71_1,2023-09-12T20:00:42.799Z,,0,,,NaN,,,,,,false,,,,286903,286902.8000000119,,286902.3000000119,,286911.107,8,400,,,
break_continue,html.Screen,4_71_2,2023-09-12T20:00:42.799Z,,0,,,NaN,,,,,,false,,,,286903.39999997616,286903.1999999881,,286903.1999999881,,286911.107,8,400,,,
sequence,flow.Sequence,4_71,2023-09-12T20:00:42.800Z,,0,,,2958.6409999880707,completion,,,,,false,,,,286903.59999996424,286903.1999999881,283927.893,283942.09999996424,283944.559,286911.107,8,400,,,
trial,html.Screen,4_72_0,2023-09-12T20:00:45.636Z,,0,2,,2827.892999999982,response,ISIC_6617840.JPG,6,ISIC_8007849.JPG,ISIC_8007849.JPG,false,0,keypress(z),500,289739.5,289739,286894.441,286903.6999999881,286911.107,289744.327,8,400,23,,ISIC_6617840.JPG
break,html.Screen,4_72_1,2023-09-12T20:00:45.636Z,,0,,,NaN,,,,,,false,,,,289740.39999997616,289740.09999996424,,289739.59999996424,,289744.327,8,400,,,
break_continue,html.Screen,4_72_2,2023-09-12T20:00:45.637Z,,0,,,NaN,,,,,,false,,,,289740.8000000119,289740.5,,289740.5,,289744.327,8,400,,,
sequence,flow.Sequence,4_72,2023-09-12T20:00:45.637Z,,0,,,2829.392999999982,completion,,,,,false,,,,289740.8000000119,289740.5,286894.441,286903.59999996424,286911.107,289744.327,8,400,,,
trial,html.Screen,4_73_0,2023-09-12T20:00:48.743Z,,0,2,,3101.9730000119307,response,ISIC_0016043.JPG,6,ISIC_2470790.JPG,ISIC_2470790.JPG,false,0,keypress(z),500,292846.8000000119,292846.3000000119,289727.661,289741,289744.327,292861.353,8,400,24,,ISIC_0016043.JPG
break,html.Screen,4_73_1,2023-09-12T20:00:48.744Z,,0,,,NaN,,,,,,false,,,,292847.8000000119,292847.5,,292847,,292861.353,8,400,,,
break_continue,html.Screen,4_73_2,2023-09-12T20:00:48.744Z,,0,,,NaN,,,,,,false,,,,292848.1999999881,292848,,292847.89999997616,,292861.353,8,400,,,
sequence,flow.Sequence,4_73,2023-09-12T20:00:48.744Z,,0,,,3103.67300000001,completion,,,,,false,,,,292848.3000000119,292848,289727.661,289741,289744.327,292861.353,8,400,,,
trial,html.Screen,4_74_0,2023-09-12T20:00:51.926Z,,0,2,,3168.447000011918,response,ISIC_0008724.JPG,8,ISIC_8035608.JPG,ISIC_8035608.JPG,false,0,keypress(z),500,296030.09999996424,296029.8000000119,292844.687,292848.5,292861.353,296044.559,8,400,25,,ISIC_0008724.JPG
break,html.Screen,4_74_1,2023-09-12T20:00:51.927Z,,0,,,NaN,,,,,,false,,,,296030.89999997616,296030.8000000119,,296030.39999997616,,296044.559,8,400,,,
break_continue,html.Screen,4_74_2,2023-09-12T20:00:51.927Z,,0,,,NaN,,,,,,false,,,,296031.1999999881,296031.09999996424,,296031,,296044.559,8,400,,,
sequence,flow.Sequence,4_74,2023-09-12T20:00:51.928Z,,0,,,3169.7469999642344,completion,,,,,false,,,,296031.39999997616,296031.09999996424,292844.687,292848.5,292861.353,296044.559,8,400,,,
trial,html.Screen,4_75_0,2023-09-12T20:00:55.067Z,,0,2,,3125.8409999761498,response,ISIC_7809510.JPG,8,ISIC_0062864.JPG,ISIC_7809510.JPG,false,1,keypress(m),500,299170.8000000119,299170.39999997616,296027.893,296031.5,296044.559,299177.767,8,400,26,,ISIC_0062864.JPG
break,html.Screen,4_75_1,2023-09-12T20:00:55.068Z,,0,,,NaN,,,,,,false,,,,299171.8000000119,299171.59999996424,,299171.1999999881,,299177.767,8,400,,,
break_continue,html.Screen,4_75_2,2023-09-12T20:00:55.068Z,,0,,,NaN,,,,,,false,,,,299172.09999996424,299172.09999996424,,299171.89999997616,,299177.767,8,400,,,
sequence,flow.Sequence,4_75,2023-09-12T20:00:55.068Z,,0,,,3127.540999964229,completion,,,,,false,,,,299172.3000000119,299172.09999996424,296027.893,296031.5,296044.559,299177.767,8,400,,,
trial,html.Screen,4_76_0,2023-09-12T20:00:58.337Z,,0,2,,3263.0330000119284,response,ISIC_0271408.JPG,9,ISIC_4765919.JPG,ISIC_0271408.JPG,false,1,keypress(m),500,302441.3000000119,302440.8000000119,299161.101,299172.5,299177.767,302444.795,8,400,27,,ISIC_4765919.JPG
break,html.Screen,4_76_1,2023-09-12T20:00:58.338Z,,0,,,NaN,,,,,,false,,,,302442.3000000119,302442,,302441.5,,302444.795,8,400,,,
break_continue,html.Screen,4_76_2,2023-09-12T20:00:58.339Z,,0,,,NaN,,,,,,false,,,,302442.6999999881,302442.5,,302442.39999997616,,302444.795,8,400,,,
sequence,flow.Sequence,4_76,2023-09-12T20:00:58.339Z,,0,,,3264.7330000000075,completion,,,,,false,,,,302442.8000000119,302442.5,299161.101,299172.39999997616,299177.767,302444.795,8,400,,,
trial,html.Screen,4_77_0,2023-09-12T20:01:01.773Z,,0,2,,3431.8049999642535,response,ISIC_5226353.JPG,8,ISIC_0027684.JPG,ISIC_0027684.JPG,false,0,keypress(z),500,305877,305876.59999996424,302428.129,302442.89999997616,302444.795,305877.991,8,400,28,,ISIC_5226353.JPG
break,html.Screen,4_77_1,2023-09-12T20:01:01.774Z,,0,,,NaN,,,,,,false,,,,305878.09999996424,305877.8000000119,,305877.39999997616,,305877.991,8,400,,,
break_continue,html.Screen,4_77_2,2023-09-12T20:01:01.775Z,,0,,,NaN,,,,,,false,,,,305878.39999997616,305878.3000000119,,305878.1999999881,,305877.991,8,400,,,
sequence,flow.Sequence,4_77,2023-09-12T20:01:01.775Z,,0,,,3433.505000011937,completion,,,,,false,,,,305878.5,305878.3000000119,302428.129,302442.89999997616,302444.795,305877.991,8,400,,,
trial,html.Screen,4_78_0,2023-09-12T20:01:04.500Z,,0,2,,2724.908999976178,response,ISIC_0014919.JPG,8,ISIC_0027591.JPG,ISIC_0027591.JPG,false,0,keypress(z),500,308603.39999997616,308602.89999997616,305861.325,305878.6999999881,305877.991,308611.215,8,400,29,,ISIC_0014919.JPG
break,html.Screen,4_78_1,2023-09-12T20:01:04.501Z,,0,,,NaN,,,,,,false,,,,308604.39999997616,308604.1999999881,,308603.6999999881,,308611.215,8,400,,,
break_continue,html.Screen,4_78_2,2023-09-12T20:01:04.501Z,,0,,,NaN,,,,,,false,,,,308604.8000000119,308604.59999996424,,308604.5,,308611.215,8,400,,,
sequence,flow.Sequence,4_78,2023-09-12T20:01:04.501Z,,0,,,2726.6089999642572,completion,,,,,false,,,,308605,308604.59999996424,305861.325,305878.6999999881,305877.991,308611.215,8,400,,,
trial,html.Screen,4_79_0,2023-09-12T20:01:07.525Z,,0,2,,3017.4849999880535,response,ISIC_2721699.JPG,8,ISIC_0228772.JPG,ISIC_2721699.JPG,false,1,keypress(m),500,311629.1999999881,311628.6999999881,308594.549,308605.09999996424,308611.215,311644.898,8,400,30,,ISIC_0228772.JPG
break,html.Screen,4_79_1,2023-09-12T20:01:07.526Z,,0,,,NaN,,,,,,false,,,,311630.09999996424,311630,,311629.5,,311644.898,8,400,,,
break_continue,html.Screen,4_79_2,2023-09-12T20:01:07.527Z,,0,,,NaN,,,,,,false,,,,311630.5,311630.39999997616,,311630.3000000119,,311644.898,8,400,,,
sequence,flow.Sequence,4_79,2023-09-12T20:01:07.527Z,,0,,,3019.1849999761325,completion,,,,,false,,,,311630.6999999881,311630.39999997616,308594.549,308605,308611.215,311644.898,8,400,,,
trial,html.Screen,4_80_0,2023-09-12T20:01:11.638Z,,0,2,,4096.201999964251,response,ISIC_0054151.JPG,8,ISIC_6705966.JPG,ISIC_0054151.JPG,false,1,keypress(m),500,315741.5,315741.09999996424,311628.232,311630.8000000119,311644.898,315761.4,8,400,31,,ISIC_6705966.JPG
break,html.Screen,4_80_1,2023-09-12T20:01:11.639Z,,0,,,NaN,,,,,,false,,,,315742.59999996424,315742.3000000119,,315741.8000000119,,315761.4,8,400,,,
break_continue,html.Screen,4_80_2,2023-09-12T20:01:11.639Z,,0,,,NaN,,,,,,false,,,,315742.89999997616,315742.8000000119,,315742.6999999881,,315761.4,8,400,,,
sequence,flow.Sequence,4_80,2023-09-12T20:01:11.639Z,,0,,,4097.902000011934,completion,,,,,false,,,,315743,315742.8000000119,311628.232,311630.8000000119,311644.898,315761.4,8,400,,,
trial,html.Screen,4_81_0,2023-09-12T20:01:14.988Z,,0,2,,3330.5999999999767,response,ISIC_7766007.JPG,9,ISIC_6234702.JPG,ISIC_7766007.JPG,false,1,keypress(m),500,319092.1999999881,319092,315744.734,315743.1999999881,315761.4,319094.6,8,400,32,,ISIC_6234702.JPG
break,html.Screen,4_81_1,2023-09-12T20:01:14.989Z,,0,,,NaN,,,,,,false,,,,319092.59999996424,319092.39999997616,,319092.3000000119,,319094.6,8,400,,,
break_continue,html.Screen,4_81_2,2023-09-12T20:01:14.989Z,,0,,,NaN,,,,,,false,,,,319092.6999999881,319092.6999999881,,319092.6999999881,,319094.6,8,400,,,
sequence,flow.Sequence,4_81,2023-09-12T20:01:14.989Z,,0,,,3331.299999988056,completion,,,,,false,,,,319092.8000000119,319092.6999999881,315744.734,315743.1999999881,315761.4,319094.6,8,400,,,
trial,html.Screen,4_82_0,2023-09-12T20:01:19.182Z,,0,2,,4190.9999999642605,response,ISIC_1722909.JPG,8,ISIC_0007884.JPG,ISIC_0007884.JPG,false,0,keypress(z),500,323286,323285.59999996424,319077.934,319092.89999997616,319094.6,323294.859,8,400,33,,ISIC_1722909.JPG
break,html.Screen,4_82_1,2023-09-12T20:01:19.183Z,,0,,,NaN,,,,,,false,,,,323287.09999996424,323286.8000000119,,323286.3000000119,,323294.859,8,400,,,
break_continue,html.Screen,4_82_2,2023-09-12T20:01:19.184Z,,0,,,NaN,,,,,,false,,,,323287.39999997616,323287.1999999881,,323287.09999996424,,323294.859,8,400,,,
sequence,flow.Sequence,4_82,2023-09-12T20:01:19.184Z,,0,,,4192.599999988102,completion,,,,,false,,,,323287.59999996424,323287.1999999881,319077.934,319092.89999997616,319094.6,323294.859,8,400,,,
trial,html.Screen,4_83_0,2023-09-12T20:01:24.803Z,,0,2,,5611.441000011924,response,ISIC_3370062.JPG,6,ISIC_1323048.JPG,ISIC_3370062.JPG,false,1,keypress(m),500,328906.8000000119,328906.3000000119,323278.193,323287.6999999881,323294.859,328911.301,8,400,34,,ISIC_1323048.JPG
break,html.Screen,4_83_1,2023-09-12T20:01:24.804Z,,0,,,NaN,,,,,,false,,,,328907.8000000119,328907.59999996424,,328907.09999996424,,328911.301,8,400,,,
break_continue,html.Screen,4_83_2,2023-09-12T20:01:24.804Z,,0,,,NaN,,,,,,false,,,,328908.09999996424,328908.09999996424,,328907.89999997616,,328911.301,8,400,,,
sequence,flow.Sequence,4_83,2023-09-12T20:01:24.804Z,,0,,,5613.2409999642405,completion,,,,,false,,,,328908.3000000119,328908.09999996424,323278.193,323287.59999996424,323294.859,328911.301,8,400,,,
trial,html.Screen,4_84_0,2023-09-12T20:01:27.847Z,,0,2,,3039.1990000000224,response,ISIC_0033196.JPG,9,ISIC_0003767.JPG,ISIC_0003767.JPG,false,0,keypress(z),500,331950.8000000119,331950.5,328894.635,328908.39999997616,328911.301,331961.179,8,400,35,,ISIC_0033196.JPG
break,html.Screen,4_84_1,2023-09-12T20:01:27.848Z,,0,,,NaN,,,,,,false,,,,331951.8000000119,331951.59999996424,,331951.09999996424,,331961.179,8,400,,,
break_continue,html.Screen,4_84_2,2023-09-12T20:01:27.848Z,,0,,,NaN,,,,,,false,,,,331952.1999999881,331952,,331952,,331961.179,8,400,,,
sequence,flow.Sequence,4_84,2023-09-12T20:01:27.849Z,,0,,,3040.6990000000224,completion,,,,,false,,,,331952.39999997616,331952,328894.635,328908.39999997616,328911.301,331961.179,8,400,,,
trial,html.Screen,4_85_0,2023-09-12T20:01:31.158Z,,0,2,,3299.7209999761544,response,ISIC_0010644.JPG,5,ISIC_8887039.JPG,ISIC_0010644.JPG,false,1,keypress(m),500,335261.39999997616,335260.89999997616,331944.513,331952.5,331961.179,335278.202,8,400,36,,ISIC_8887039.JPG
break,html.Screen,4_85_1,2023-09-12T20:01:31.158Z,,0,,,NaN,,,,,,false,,,,335262.3000000119,335262.09999996424,,335261.59999996424,,335278.202,8,400,,,
break_continue,html.Screen,4_85_2,2023-09-12T20:01:31.159Z,,0,,,NaN,,,,,,false,,,,335262.59999996424,335262.5,,335262.39999997616,,335278.202,8,400,,,
sequence,flow.Sequence,4_85,2023-09-12T20:01:31.159Z,,0,,,3301.3209999999963,completion,,,,,false,,,,335262.89999997616,335262.5,331944.513,331952.5,331961.179,335278.202,8,400,,,
trial,html.Screen,4_86_0,2023-09-12T20:01:34.236Z,,0,2,,3060.897999964247,response,ISIC_0068144.JPG,8,ISIC_0011892.JPG,ISIC_0068144.JPG,false,1,keypress(m),500,338339.59999996424,338339.09999996424,335261.536,335263,335278.202,338344.746,8,400,37,,ISIC_0011892.JPG
break,html.Screen,4_86_1,2023-09-12T20:01:34.237Z,,0,,,NaN,,,,,,false,,,,338340.5,338340.3000000119,,338339.8000000119,,338344.746,8,400,,,
break_continue,html.Screen,4_86_2,2023-09-12T20:01:34.237Z,,0,,,NaN,,,,,,false,,,,338340.8000000119,338340.6999999881,,338340.59999996424,,338344.746,8,400,,,
sequence,flow.Sequence,4_86,2023-09-12T20:01:34.237Z,,0,,,3062.497999988089,completion,,,,,false,,,,338341,338340.6999999881,335261.536,335262.89999997616,335278.202,338344.746,8,400,,,
trial,html.Screen,4_87_0,2023-09-12T20:01:38.703Z,,0,2,,4461.953999988094,response,ISIC_0030428.JPG,7,ISIC_0000300.JPG,ISIC_0000300.JPG,false,0,keypress(z),500,342807.1999999881,342806.6999999881,338328.08,338341.1999999881,338344.746,342811.723,8,400,38,,ISIC_0030428.JPG
break,html.Screen,4_87_1,2023-09-12T20:01:38.704Z,,0,,,NaN,,,,,,false,,,,342808.09999996424,342807.8000000119,,342807.5,,342811.723,8,400,,,
break_continue,html.Screen,4_87_2,2023-09-12T20:01:38.705Z,,0,,,NaN,,,,,,false,,,,342808.39999997616,342808.39999997616,,342808.1999999881,,342811.723,8,400,,,
sequence,flow.Sequence,4_87,2023-09-12T20:01:38.705Z,,0,,,4463.6539999761735,completion,,,,,false,,,,342808.6999999881,342808.39999997616,338328.08,338341.09999996424,338344.746,342811.723,8,400,,,
trial,html.Screen,4_88_0,2023-09-12T20:01:41.614Z,,0,2,,2905.277000000002,response,ISIC_5100319.JPG,8,ISIC_7839741.JPG,ISIC_5100319.JPG,false,1,keypress(m),500,345717.5,345717,342795.057,342808.8000000119,342811.723,345728.273,8,400,39,,ISIC_7839741.JPG
break,html.Screen,4_88_1,2023-09-12T20:01:41.615Z,,0,,,NaN,,,,,,false,,,,345718.5,345718.3000000119,,345717.8000000119,,345728.273,8,400,,,
break_continue,html.Screen,4_88_2,2023-09-12T20:01:41.615Z,,0,,,NaN,,,,,,false,,,,345718.8000000119,345718.8000000119,,345718.6999999881,,345728.273,8,400,,,
sequence,flow.Sequence,4_88,2023-09-12T20:01:41.615Z,,0,,,2907.077000011923,completion,,,,,false,,,,345719,345718.8000000119,342795.057,342808.6999999881,342811.723,345728.273,8,400,,,
trial,html.Screen,4_89_0,2023-09-12T20:01:44.626Z,,0,2,,3000.7270000000135,response,ISIC_0032160.JPG,8,ISIC_3246746.JPG,ISIC_0032160.JPG,false,1,keypress(m),500,348729.39999997616,348729,345711.607,345719.09999996424,345728.273,348744.819,8,400,40,,ISIC_3246746.JPG
break,html.Screen,4_89_1,2023-09-12T20:01:44.627Z,,0,,,NaN,,,,,,false,,,,348730.3000000119,348730.09999996424,,348729.6999999881,,348744.819,8,400,,,
break_continue,html.Screen,4_89_2,2023-09-12T20:01:44.627Z,,0,,,NaN,,,,,,false,,,,348730.6999999881,348730.59999996424,,348730.5,,348744.819,8,400,,,
sequence,flow.Sequence,4_89,2023-09-12T20:01:44.627Z,,0,,,3002.3269999642507,completion,,,,,false,,,,348730.89999997616,348730.59999996424,345711.607,345719.09999996424,345728.273,348744.819,8,400,,,
trial,html.Screen,4_90_0,2023-09-12T20:01:47.917Z,,0,2,,3275.4810000119032,response,ISIC_0034287.JPG,8,ISIC_8765068.JPG,ISIC_8765068.JPG,false,0,keypress(z),500,352020.6999999881,352020.3000000119,348728.153,348731,348744.819,352028.021,8,400,41,,ISIC_0034287.JPG
break,html.Screen,4_90_1,2023-09-12T20:01:47.918Z,,0,,,NaN,,,,,,false,,,,352021.6999999881,352021.5,,352020.89999997616,,352028.021,8,400,,,
break_continue,html.Screen,4_90_2,2023-09-12T20:01:47.918Z,,0,,,NaN,,,,,,false,,,,352022,352021.89999997616,,352021.6999999881,,352028.021,8,400,,,
sequence,flow.Sequence,4_90,2023-09-12T20:01:47.918Z,,0,,,3277.0809999761404,completion,,,,,false,,,,352022.1999999881,352021.89999997616,348728.153,348730.89999997616,348744.819,352028.021,8,400,,,
trial,html.Screen,4_91_0,2023-09-12T20:01:51.409Z,,0,2,,3484.87899997615,response,ISIC_0941332.JPG,8,ISIC_0026559.JPG,ISIC_0941332.JPG,false,1,keypress(m),500,355513.09999996424,355512.89999997616,352011.355,352022.3000000119,352028.021,355528.32,8,400,42,,ISIC_0026559.JPG
break,html.Screen,4_91_1,2023-09-12T20:01:51.410Z,,0,,,NaN,,,,,,false,,,,355513.8000000119,355513.6999999881,,355513.3000000119,,355528.32,8,400,,,
break_continue,html.Screen,4_91_2,2023-09-12T20:01:51.410Z,,0,,,NaN,,,,,,false,,,,355514.09999996424,355514,,355513.89999997616,,355528.32,8,400,,,
sequence,flow.Sequence,4_91,2023-09-12T20:01:51.410Z,,0,,,3485.978999999992,completion,,,,,false,,,,355514.1999999881,355514,352011.355,352022.3000000119,352028.021,355528.32,8,400,,,
trial,html.Screen,4_92_0,2023-09-12T20:01:54.494Z,,0,2,,3068.579999976151,response,ISIC_3151260.JPG,8,ISIC_8799674.JPG,ISIC_8799674.JPG,false,0,keypress(z),500,358597.3000000119,358596.89999997616,355511.654,355514.1999999881,355528.32,358611.53,8,400,43,,ISIC_3151260.JPG
break,html.Screen,4_92_1,2023-09-12T20:01:54.494Z,,0,,,NaN,,,,,,false,,,,358598.1999999881,358598,,358597.5,,358611.53,8,400,,,
break_continue,html.Screen,4_92_2,2023-09-12T20:01:54.495Z,,0,,,NaN,,,,,,false,,,,358598.59999996424,358598.5,,358598.39999997616,,358611.53,8,400,,,
sequence,flow.Sequence,4_92,2023-09-12T20:01:54.495Z,,0,,,3070.179999999993,completion,,,,,false,,,,358598.6999999881,358598.5,355511.654,355514.1999999881,355528.32,358611.53,8,400,,,
trial,html.Screen,4_93_0,2023-09-12T20:01:58.724Z,,0,2,,4216.169999988051,response,ISIC_0034263.JPG,7,ISIC_0054312.JPG,ISIC_0054312.JPG,false,0,keypress(z),500,362828.09999996424,362827.6999999881,358594.864,358598.89999997616,358611.53,362844.694,8,400,44,,ISIC_0034263.JPG
break,html.Screen,4_93_1,2023-09-12T20:01:58.725Z,,0,,,NaN,,,,,,false,,,,362829.1999999881,362828.89999997616,,362828.39999997616,,362844.694,8,400,,,
break_continue,html.Screen,4_93_2,2023-09-12T20:01:58.726Z,,0,,,NaN,,,,,,false,,,,362829.59999996424,362829.5,,362829.3000000119,,362844.694,8,400,,,
sequence,flow.Sequence,4_93,2023-09-12T20:01:58.726Z,,0,,,4217.969999999972,completion,,,,,false,,,,362829.6999999881,362829.5,358594.864,358598.89999997616,358611.53,362844.694,8,400,,,
trial,html.Screen,4_94_0,2023-09-12T20:02:01.673Z,,0,2,,2931.9059999642195,response,ISIC_0027502.JPG,8,ISIC_0031960.JPG,ISIC_0027502.JPG,false,1,keypress(m),500,365777,365776.59999996424,362828.028,362829.8000000119,362844.694,365778.397,8,400,45,,ISIC_0031960.JPG
break,html.Screen,4_94_1,2023-09-12T20:02:01.674Z,,0,,,NaN,,,,,,false,,,,365778,365777.6999999881,,365777.1999999881,,365778.397,8,400,,,
break_continue,html.Screen,4_94_2,2023-09-12T20:02:01.674Z,,0,,,NaN,,,,,,false,,,,365778.3000000119,365778.1999999881,,365778,,365778.397,8,400,,,
sequence,flow.Sequence,4_94,2023-09-12T20:02:01.675Z,,0,,,2933.5059999880614,completion,,,,,false,,,,365778.39999997616,365778.1999999881,362828.028,362829.8000000119,362844.694,365778.397,8,400,,,
trial,html.Screen,4_95_0,2023-09-12T20:02:04.406Z,,0,2,,2730.70299996424,response,ISIC_7521698.JPG,8,ISIC_0014088.JPG,ISIC_0014088.JPG,false,0,keypress(z),500,368509.39999997616,368509.09999996424,365761.731,365778.5,365778.397,368528.287,8,400,46,,ISIC_7521698.JPG
break,html.Screen,4_95_1,2023-09-12T20:02:04.407Z,,0,,,NaN,,,,,,false,,,,368510.39999997616,368510.09999996424,,368509.6999999881,,368528.287,8,400,,,
break_continue,html.Screen,4_95_2,2023-09-12T20:02:04.407Z,,0,,,NaN,,,,,,false,,,,368510.6999999881,368510.59999996424,,368510.5,,368528.287,8,400,,,
sequence,flow.Sequence,4_95,2023-09-12T20:02:04.407Z,,0,,,2732.20299996424,completion,,,,,false,,,,368510.89999997616,368510.59999996424,365761.731,365778.5,365778.397,368528.287,8,400,,,
trial,html.Screen,4_96_0,2023-09-12T20:02:07.132Z,,0,2,,2707.412999988068,response,ISIC_0061475.JPG,8,ISIC_7161069.JPG,ISIC_0061475.JPG,false,1,keypress(m),500,371236.09999996424,371235.6999999881,368511.621,368511,368528.287,371244.845,8,400,47,,ISIC_7161069.JPG
break,html.Screen,4_96_1,2023-09-12T20:02:07.133Z,,0,,,NaN,,,,,,false,,,,371237,371236.8000000119,,371236.3000000119,,371244.845,8,400,,,
break_continue,html.Screen,4_96_2,2023-09-12T20:02:07.134Z,,0,,,NaN,,,,,,false,,,,371237.39999997616,371237.1999999881,,371237.1999999881,,371244.845,8,400,,,
sequence,flow.Sequence,4_96,2023-09-12T20:02:07.134Z,,0,,,2708.912999988068,completion,,,,,false,,,,371237.5,371237.1999999881,368511.621,368511,368528.287,371244.845,8,400,,,
trial,html.Screen,4_97_0,2023-09-12T20:02:10.224Z,,0,2,,3083.054999976186,response,ISIC_0002675.JPG,5,ISIC_0033562.JPG,ISIC_0033562.JPG,false,0,keypress(z),500,374328.1999999881,374327.89999997616,371228.179,371237.6999999881,371244.845,374345.217,8,400,48,,ISIC_0002675.JPG
break,html.Screen,4_97_1,2023-09-12T20:02:10.225Z,,0,,,NaN,,,,,,false,,,,374329.3000000119,374329,,374328.5,,374345.217,8,400,,,
break_continue,html.Screen,4_97_2,2023-09-12T20:02:10.226Z,,0,,,NaN,,,,,,false,,,,374329.59999996424,374329.5,,374329.39999997616,,374345.217,8,400,,,
sequence,flow.Sequence,4_97,2023-09-12T20:02:10.226Z,,0,,,3084.655000000028,completion,,,,,false,,,,374329.6999999881,374329.5,371228.179,371237.59999996424,371244.845,374345.217,8,400,,,
trial,html.Screen,4_98_0,2023-09-12T20:02:13.518Z,,0,2,,3276.0830000119167,response,ISIC_0296580.JPG,7,ISIC_5580000.JPG,ISIC_5580000.JPG,false,0,keypress(z),500,377621.6999999881,377621.3000000119,374328.551,374329.89999997616,374345.217,377628.419,8,400,49,,ISIC_0296580.JPG
break,html.Screen,4_98_1,2023-09-12T20:02:13.519Z,,0,,,NaN,,,,,,false,,,,377622.6999999881,377622.5,,377622,,377628.419,8,400,,,
break_continue,html.Screen,4_98_2,2023-09-12T20:02:13.519Z,,0,,,NaN,,,,,,false,,,,377623.09999996424,377623,,377622.8000000119,,377628.419,8,400,,,
sequence,flow.Sequence,4_98,2023-09-12T20:02:13.519Z,,0,,,3277.782999999996,completion,,,,,false,,,,377623.1999999881,377623,374328.551,374329.8000000119,374345.217,377628.419,8,400,,,
trial,html.Screen,4_99_0,2023-09-12T20:02:16.238Z,,0,2,,2713.180999964243,response,ISIC_1460932.JPG,7,ISIC_0031170.JPG,ISIC_0031170.JPG,false,0,keypress(z),500,380342,380341.59999996424,377611.753,377623.39999997616,377628.419,380344.977,8,400,50,,ISIC_1460932.JPG
break,html.Screen,4_99_1,2023-09-12T20:02:26.229Z,,0,,,10000.051999999967,timeout,,,,,false,,,,390332.89999997616,390328.363,380328.311,380342.1999999881,380344.977,390345.029,8,400,,,
break_continue,html.Screen,4_99_2,2023-09-12T20:03:05.058Z,,0,,,38802.6709999881,response,,,,,false,continue,keypress(Space),,429161.1999999881,429147.6999999881,390328.363,390333.09999996424,390345.029,429178.567,8,400,,,
sequence,flow.Sequence,4_99,2023-09-12T20:03:05.058Z,,0,,,51519.280999988085,completion,,,,,false,,,,429161.5,429147.6999999881,377611.753,377623.3000000119,377628.419,429178.567,8,400,,,
trial,html.Screen,4_100_0,2023-09-12T20:03:09.352Z,,0,3,,4276.832999976177,response,ISIC_0032447.JPG,6,ISIC_0033485.JPG,ISIC_0032447.JPG,false,1,keypress(m),500,433455.8000000119,433455.39999997616,429161.901,429161.6999999881,429178.567,433461.729,8,400,1,,ISIC_0033485.JPG
break,html.Screen,4_100_1,2023-09-12T20:03:09.353Z,,0,,,NaN,,,,,,false,,,,433456.8000000119,433456.59999996424,,433456.09999996424,,433461.729,8,400,,,
break_continue,html.Screen,4_100_2,2023-09-12T20:03:09.354Z,,0,,,NaN,,,,,,false,,,,433457.1999999881,433457.09999996424,,433457,,433461.729,8,400,,,
sequence,flow.Sequence,4_100,2023-09-12T20:03:09.354Z,,0,,,4278.532999964256,completion,,,,,false,,,,433457.39999997616,433457.09999996424,429161.901,429161.59999996424,429178.567,433461.729,8,400,,,
trial,html.Screen,4_101_0,2023-09-12T20:03:12.111Z,,0,3,,2752.470999988087,response,ISIC_0010271.JPG,8,ISIC_0072429.JPG,ISIC_0010271.JPG,false,1,keypress(m),500,436214.59999996424,436214.1999999881,433445.063,433457.5,433461.729,436228.285,8,400,2,,ISIC_0072429.JPG
break,html.Screen,4_101_1,2023-09-12T20:03:12.112Z,,0,,,NaN,,,,,,false,,,,436215.59999996424,436215.3000000119,,436214.89999997616,,436228.285,8,400,,,
break_continue,html.Screen,4_101_2,2023-09-12T20:03:12.112Z,,0,,,NaN,,,,,,false,,,,436215.89999997616,436215.8000000119,,436215.59999996424,,436228.285,8,400,,,
sequence,flow.Sequence,4_101,2023-09-12T20:03:12.112Z,,0,,,2754.071000011929,completion,,,,,false,,,,436216.09999996424,436215.8000000119,433445.063,433457.39999997616,433461.729,436228.285,8,400,,,
trial,html.Screen,4_102_0,2023-09-12T20:03:15.670Z,,0,3,,3544.5150000119465,response,ISIC_5281762.JPG,6,ISIC_0028567.JPG,ISIC_0028567.JPG,false,0,keypress(z),500,439773.1999999881,439772.8000000119,436211.619,436216.1999999881,436228.285,439778.885,8,400,3,,ISIC_5281762.JPG
break,html.Screen,4_102_1,2023-09-12T20:03:15.671Z,,0,,,NaN,,,,,,false,,,,439774.39999997616,439774.09999996424,,439773.5,,439778.885,8,400,,,
break_continue,html.Screen,4_102_2,2023-09-12T20:03:15.671Z,,0,,,NaN,,,,,,false,,,,439775.09999996424,439774.89999997616,,439774.8000000119,,439778.885,8,400,,,
sequence,flow.Sequence,4_102,2023-09-12T20:03:15.672Z,,0,,,3546.6149999761838,completion,,,,,false,,,,439775.5,439774.89999997616,436211.619,436216.1999999881,436228.285,439778.885,8,400,,,
trial,html.Screen,4_103_0,2023-09-12T20:03:18.293Z,,0,3,,2617.6149999999907,response,ISIC_9073150.JPG,8,ISIC_7024807.JPG,ISIC_9073150.JPG,false,1,keypress(m),500,442396.89999997616,442396.5,439762.219,439775.59999996424,439778.885,442412.113,8,400,4,,ISIC_7024807.JPG
break,html.Screen,4_103_1,2023-09-12T20:03:18.294Z,,0,,,NaN,,,,,,false,,,,442397.89999997616,442397.59999996424,,442397.1999999881,,442412.113,8,400,,,
break_continue,html.Screen,4_103_2,2023-09-12T20:03:18.295Z,,0,,,NaN,,,,,,false,,,,442398.1999999881,442398.09999996424,,442398,,442412.113,8,400,,,
sequence,flow.Sequence,4_103,2023-09-12T20:03:18.295Z,,0,,,2619.214999964228,completion,,,,,false,,,,442398.39999997616,442398.09999996424,439762.219,439775.59999996424,439778.885,442412.113,8,400,,,
trial,html.Screen,4_104_0,2023-09-12T20:03:22.381Z,,0,3,,4072.187000011909,response,ISIC_0644590.JPG,6,ISIC_7080584.JPG,ISIC_7080584.JPG,false,0,keypress(z),500,446484.8000000119,446484.3000000119,442395.447,442398.5,442412.113,446495.283,8,400,5,,ISIC_0644590.JPG
break,html.Screen,4_104_1,2023-09-12T20:03:22.382Z,,0,,,NaN,,,,,,false,,,,446485.6999999881,446485.5,,446485,,446495.283,8,400,,,
break_continue,html.Screen,4_104_2,2023-09-12T20:03:22.382Z,,0,,,NaN,,,,,,false,,,,446486,446485.89999997616,,446485.8000000119,,446495.283,8,400,,,
sequence,flow.Sequence,4_104,2023-09-12T20:03:22.383Z,,0,,,4073.786999976146,completion,,,,,false,,,,446486.1999999881,446485.89999997616,442395.447,442398.5,442412.113,446495.283,8,400,,,
trial,html.Screen,4_105_0,2023-09-12T20:03:25.281Z,,0,3,,2888.9169999880833,response,ISIC_0010532.JPG,8,ISIC_0069986.JPG,ISIC_0010532.JPG,false,1,keypress(m),500,449384.59999996424,449384.1999999881,446478.617,446486.3000000119,446495.283,449395.167,8,400,6,,ISIC_0069986.JPG
break,html.Screen,4_105_1,2023-09-12T20:03:25.282Z,,0,,,NaN,,,,,,false,,,,449385.5,449385.3000000119,,449384.89999997616,,449395.167,8,400,,,
break_continue,html.Screen,4_105_2,2023-09-12T20:03:25.282Z,,0,,,NaN,,,,,,false,,,,449385.8000000119,449385.8000000119,,449385.6999999881,,449395.167,8,400,,,
sequence,flow.Sequence,4_105,2023-09-12T20:03:25.282Z,,0,,,2890.517000011925,completion,,,,,false,,,,449386,449385.8000000119,446478.617,446486.3000000119,446495.283,449395.167,8,400,,,
trial,html.Screen,4_106_0,2023-09-12T20:03:28.502Z,,0,3,,3209.832999999984,response,ISIC_0001149.JPG,7,ISIC_2126575.JPG,ISIC_0001149.JPG,false,1,keypress(m),500,452605.39999997616,452605,449378.501,449386.3000000119,449395.167,452612.139,8,400,7,,ISIC_2126575.JPG
break,html.Screen,4_106_1,2023-09-12T20:03:28.503Z,,0,,,NaN,,,,,,false,,,,452606.3000000119,452606.09999996424,,452605.6999999881,,452612.139,8,400,,,
break_continue,html.Screen,4_106_2,2023-09-12T20:03:28.503Z,,0,,,NaN,,,,,,false,,,,452606.6999999881,452606.5,,452606.39999997616,,452612.139,8,400,,,
sequence,flow.Sequence,4_106,2023-09-12T20:03:28.503Z,,0,,,3211.332999999984,completion,,,,,false,,,,452606.89999997616,452606.5,449378.501,449386.1999999881,449395.167,452612.139,8,400,,,
trial,html.Screen,4_107_0,2023-09-12T20:03:31.946Z,,0,3,,3436.8609999999753,response,ISIC_0024796.JPG,8,ISIC_3578186.JPG,ISIC_3578186.JPG,false,0,keypress(z),500,456049.39999997616,456049,452595.473,452607,452612.139,456062.001,8,400,8,,ISIC_0024796.JPG
break,html.Screen,4_107_1,2023-09-12T20:03:31.947Z,,0,,,NaN,,,,,,false,,,,456050.3000000119,456050,,456049.59999996424,,456062.001,8,400,,,
break_continue,html.Screen,4_107_2,2023-09-12T20:03:31.947Z,,0,,,NaN,,,,,,false,,,,456050.6999999881,456050.59999996424,,456050.39999997616,,456062.001,8,400,,,
sequence,flow.Sequence,4_107,2023-09-12T20:03:31.947Z,,0,,,3438.4609999642125,completion,,,,,false,,,,456050.89999997616,456050.59999996424,452595.473,452607,452612.139,456062.001,8,400,,,
trial,html.Screen,4_108_0,2023-09-12T20:03:35.396Z,,0,3,,3437.398999976169,response,ISIC_7732765.JPG,5,ISIC_1698119.JPG,ISIC_1698119.JPG,false,0,keypress(z),500,459499.89999997616,459499.39999997616,456045.335,456051,456062.001,459511.863,8,400,9,,ISIC_7732765.JPG
break,html.Screen,4_108_1,2023-09-12T20:03:35.397Z,,0,,,NaN,,,,,,false,,,,459500.8000000119,459500.59999996424,,459500.09999996424,,459511.863,8,400,,,
break_continue,html.Screen,4_108_2,2023-09-12T20:03:35.398Z,,0,,,NaN,,,,,,false,,,,459501.1999999881,459501,,459500.89999997616,,459511.863,8,400,,,
sequence,flow.Sequence,4_108,2023-09-12T20:03:35.398Z,,0,,,3438.9990000000107,completion,,,,,false,,,,459501.39999997616,459501,456045.335,456051,456062.001,459511.863,8,400,,,
trial,html.Screen,4_109_0,2023-09-12T20:03:38.301Z,,0,3,,2892.236999964225,response,ISIC_0030106.JPG,8,ISIC_0008881.JPG,ISIC_0030106.JPG,false,1,keypress(m),500,462404.59999996424,462404.09999996424,459495.197,459501.5,459511.863,462412.203,8,400,10,,ISIC_0008881.JPG
break,html.Screen,4_109_1,2023-09-12T20:03:38.302Z,,0,,,NaN,,,,,,false,,,,462405.5,462405.3000000119,,462404.89999997616,,462412.203,8,400,,,
break_continue,html.Screen,4_109_2,2023-09-12T20:03:38.302Z,,0,,,NaN,,,,,,false,,,,462406,462405.8000000119,,462405.59999996424,,462412.203,8,400,,,
sequence,flow.Sequence,4_109,2023-09-12T20:03:38.302Z,,0,,,2893.937000011909,completion,,,,,false,,,,462406.09999996424,462405.8000000119,459495.197,459501.39999997616,459511.863,462412.203,8,400,,,
trial,html.Screen,4_110_0,2023-09-12T20:03:41.859Z,,0,3,,3550.4969999880996,response,ISIC_5859812.JPG,8,ISIC_0034218.JPG,ISIC_0034218.JPG,false,0,keypress(z),500,465963,465962.6999999881,462395.537,462406.1999999881,462412.203,465978.727,8,400,11,,ISIC_5859812.JPG
break,html.Screen,4_110_1,2023-09-12T20:03:41.860Z,,0,,,NaN,,,,,,false,,,,465964.09999996424,465963.89999997616,,465963.39999997616,,465978.727,8,400,,,
break_continue,html.Screen,4_110_2,2023-09-12T20:03:41.861Z,,0,,,NaN,,,,,,false,,,,465964.39999997616,465964.3000000119,,465964.1999999881,,465978.727,8,400,,,
sequence,flow.Sequence,4_110,2023-09-12T20:03:41.861Z,,0,,,3552.0970000119414,completion,,,,,false,,,,465964.59999996424,465964.3000000119,462395.537,462406.1999999881,462412.203,465978.727,8,400,,,
trial,html.Screen,4_111_0,2023-09-12T20:03:45.433Z,,0,3,,3557.8729999642237,response,ISIC_0025132.JPG,5,ISIC_0010162.JPG,ISIC_0025132.JPG,false,1,keypress(m),500,469537,469536.59999996424,465962.061,465964.6999999881,465978.727,469561.917,8,400,12,,ISIC_0010162.JPG
break,html.Screen,4_111_1,2023-09-12T20:03:45.434Z,,0,,,NaN,,,,,,false,,,,469537.89999997616,469537.6999999881,,469537.1999999881,,469561.917,8,400,,,
break_continue,html.Screen,4_111_2,2023-09-12T20:03:45.435Z,,0,,,NaN,,,,,,false,,,,469538.39999997616,469538.1999999881,,469538.09999996424,,469561.917,8,400,,,
sequence,flow.Sequence,4_111,2023-09-12T20:03:45.435Z,,0,,,3559.4729999880656,completion,,,,,false,,,,469538.5,469538.1999999881,465962.061,465964.6999999881,465978.727,469561.917,8,400,,,
trial,html.Screen,4_112_0,2023-09-12T20:03:49.023Z,,0,3,,3564.582999999984,response,ISIC_0351547.JPG,9,ISIC_7755096.JPG,ISIC_0351547.JPG,false,1,keypress(m),500,473127,473126.5,469545.251,469538.59999996424,469561.917,473128.893,8,400,13,,ISIC_7755096.JPG
break,html.Screen,4_112_1,2023-09-12T20:03:49.024Z,,0,,,NaN,,,,,,false,,,,473127.89999997616,473127.6999999881,,473127.09999996424,,473128.893,8,400,,,
break_continue,html.Screen,4_112_2,2023-09-12T20:03:49.025Z,,0,,,NaN,,,,,,false,,,,473128.3000000119,473128.09999996424,,473128,,473128.893,8,400,,,
sequence,flow.Sequence,4_112,2023-09-12T20:03:49.025Z,,0,,,3566.1829999642214,completion,,,,,false,,,,473128.39999997616,473128.09999996424,469545.251,469538.59999996424,469561.917,473128.893,8,400,,,
trial,html.Screen,4_113_0,2023-09-12T20:03:51.911Z,,0,3,,2885.3069999880972,response,ISIC_0031079.JPG,8,ISIC_0033876.JPG,ISIC_0033876.JPG,false,0,keypress(z),500,476014.59999996424,476014.1999999881,473112.227,473128.59999996424,473128.893,476028.777,8,400,14,,ISIC_0031079.JPG
break,html.Screen,4_113_1,2023-09-12T20:03:51.912Z,,0,,,NaN,,,,,,false,,,,476015.5,476015.3000000119,,476014.89999997616,,476028.777,8,400,,,
break_continue,html.Screen,4_113_2,2023-09-12T20:03:51.912Z,,0,,,NaN,,,,,,false,,,,476015.89999997616,476015.8000000119,,476015.6999999881,,476028.777,8,400,,,
sequence,flow.Sequence,4_113,2023-09-12T20:03:51.912Z,,0,,,2886.907000011939,completion,,,,,false,,,,476016.09999996424,476015.8000000119,473112.227,473128.5,473128.893,476028.777,8,400,,,
trial,html.Screen,4_114_0,2023-09-12T20:03:54.939Z,,0,3,,3013.8229999642354,response,ISIC_3688362.JPG,8,ISIC_7235128.JPG,ISIC_7235128.JPG,false,0,keypress(z),500,479043,479042.59999996424,476012.111,476016.3000000119,476028.777,479045.323,8,400,15,,ISIC_3688362.JPG
break,html.Screen,4_114_1,2023-09-12T20:03:54.940Z,,0,,,NaN,,,,,,false,,,,479044,479043.6999999881,,479043.1999999881,,479045.323,8,400,,,
break_continue,html.Screen,4_114_2,2023-09-12T20:03:54.941Z,,0,,,NaN,,,,,,false,,,,479044.3000000119,479044.1999999881,,479044.09999996424,,479045.323,8,400,,,
sequence,flow.Sequence,4_114,2023-09-12T20:03:54.941Z,,0,,,3015.422999988077,completion,,,,,false,,,,479044.5,479044.1999999881,476012.111,476016.1999999881,476028.777,479045.323,8,400,,,
trial,html.Screen,4_115_0,2023-09-12T20:03:57.567Z,,0,3,,2624.376999988104,response,ISIC_0054655.JPG,8,ISIC_0057244.JPG,ISIC_0054655.JPG,false,1,keypress(m),500,481670.09999996424,481669.6999999881,479028.657,479044.6999999881,479045.323,481679.003,8,400,16,,ISIC_0057244.JPG
break,html.Screen,4_115_1,2023-09-12T20:03:57.568Z,,0,,,NaN,,,,,,false,,,,481671.09999996424,481670.89999997616,,481670.39999997616,,481679.003,8,400,,,
break_continue,html.Screen,4_115_2,2023-09-12T20:03:57.568Z,,0,,,NaN,,,,,,false,,,,481671.59999996424,481671.39999997616,,481671.3000000119,,481679.003,8,400,,,
sequence,flow.Sequence,4_115,2023-09-12T20:03:57.568Z,,0,,,2626.0769999761833,completion,,,,,false,,,,481671.8000000119,481671.39999997616,479028.657,479044.59999996424,479045.323,481679.003,8,400,,,
trial,html.Screen,4_116_0,2023-09-12T20:04:00.979Z,,0,3,,3402.996999999974,response,ISIC_9348399.JPG,5,ISIC_0046693.JPG,ISIC_0046693.JPG,false,0,keypress(z),500,485082.39999997616,485082,481662.337,481671.8000000119,481679.003,485095.533,8,400,17,,ISIC_9348399.JPG
break,html.Screen,4_116_1,2023-09-12T20:04:00.980Z,,0,,,NaN,,,,,,false,,,,485083.5,485083.1999999881,,485082.6999999881,,485095.533,8,400,,,
break_continue,html.Screen,4_116_2,2023-09-12T20:04:00.980Z,,0,,,NaN,,,,,,false,,,,485083.8000000119,485083.6999999881,,485083.59999996424,,485095.533,8,400,,,
sequence,flow.Sequence,4_116,2023-09-12T20:04:00.980Z,,0,,,3404.696999988053,completion,,,,,false,,,,485083.89999997616,485083.6999999881,481662.337,481671.8000000119,481679.003,485095.533,8,400,,,
trial,html.Screen,4_117_0,2023-09-12T20:04:04.392Z,,0,3,,3399.8669999761623,response,ISIC_3342474.JPG,8,ISIC_9363106.JPG,ISIC_9363106.JPG,false,0,keypress(z),500,488495.89999997616,488495.39999997616,485078.867,485084.09999996424,485095.533,488512.063,8,400,18,,ISIC_3342474.JPG
break,html.Screen,4_117_1,2023-09-12T20:04:04.393Z,,0,,,NaN,,,,,,false,,,,488496.89999997616,488496.6999999881,,488496.1999999881,,488512.063,8,400,,,
break_continue,html.Screen,4_117_2,2023-09-12T20:04:04.394Z,,0,,,NaN,,,,,,false,,,,488497.3000000119,488497.1999999881,,488497,,488512.063,8,400,,,
sequence,flow.Sequence,4_117,2023-09-12T20:04:04.394Z,,0,,,3401.6669999880833,completion,,,,,false,,,,488497.39999997616,488497.1999999881,485078.867,485084.09999996424,485095.533,488512.063,8,400,,,
trial,html.Screen,4_118_0,2023-09-12T20:04:06.973Z,,0,3,,2563.8369999761344,response,ISIC_5897134.JPG,7,ISIC_0024952.JPG,ISIC_5897134.JPG,false,1,keypress(m),500,491076.39999997616,491075.89999997616,488495.397,488497.59999996424,488512.063,491079.147,8,400,19,,ISIC_0024952.JPG
break,html.Screen,4_118_1,2023-09-12T20:04:06.974Z,,0,,,NaN,,,,,,false,,,,491077.39999997616,491077.1999999881,,491076.59999996424,,491079.147,8,400,,,
break_continue,html.Screen,4_118_2,2023-09-12T20:04:06.974Z,,0,,,NaN,,,,,,false,,,,491077.8000000119,491077.59999996424,,491077.5,,491079.147,8,400,,,
sequence,flow.Sequence,4_118,2023-09-12T20:04:06.974Z,,0,,,2565.5369999642135,completion,,,,,false,,,,491077.89999997616,491077.59999996424,488495.397,488497.59999996424,488512.063,491079.147,8,400,,,
trial,html.Screen,4_119_0,2023-09-12T20:04:10.365Z,,0,3,,3388.552999988082,response,ISIC_8161933.JPG,8,ISIC_0527170.JPG,ISIC_8161933.JPG,false,1,keypress(m),500,494468.09999996424,494467.6999999881,491062.481,491078,491079.147,494479.011,8,400,20,,ISIC_0527170.JPG
break,html.Screen,4_119_1,2023-09-12T20:04:10.365Z,,0,,,NaN,,,,,,false,,,,494469.09999996424,494468.89999997616,,494468.39999997616,,494479.011,8,400,,,
break_continue,html.Screen,4_119_2,2023-09-12T20:04:10.366Z,,0,,,NaN,,,,,,false,,,,494469.5,494469.39999997616,,494469.3000000119,,494479.011,8,400,,,
sequence,flow.Sequence,4_119,2023-09-12T20:04:10.366Z,,0,,,3390.252999976161,completion,,,,,false,,,,494469.6999999881,494469.39999997616,491062.481,491078,491079.147,494479.011,8,400,,,
trial,html.Screen,4_120_0,2023-09-12T20:04:13.966Z,,0,3,,3590.5889999642386,response,ISIC_7763042.JPG,7,ISIC_0031096.JPG,ISIC_7763042.JPG,false,1,keypress(m),500,498070,498069.59999996424,494462.345,494469.89999997616,494479.011,498078.867,8,400,21,,ISIC_0031096.JPG
break,html.Screen,4_120_1,2023-09-12T20:04:13.967Z,,0,,,NaN,,,,,,false,,,,498071,498070.8000000119,,498070.3000000119,,498078.867,8,400,,,
break_continue,html.Screen,4_120_2,2023-09-12T20:04:13.968Z,,0,,,NaN,,,,,,false,,,,498071.39999997616,498071.3000000119,,498071.09999996424,,498078.867,8,400,,,
sequence,flow.Sequence,4_120,2023-09-12T20:04:13.968Z,,0,,,3592.2890000119223,completion,,,,,false,,,,498071.59999996424,498071.3000000119,494462.345,494469.8000000119,494479.011,498078.867,8,400,,,
trial,html.Screen,4_121_0,2023-09-12T20:04:16.758Z,,0,3,,2782.0329999761307,response,ISIC_0032587.JPG,5,ISIC_0013840.JPG,ISIC_0013840.JPG,false,0,keypress(z),500,500861.1999999881,500860.89999997616,498062.201,498071.8000000119,498078.867,500862.089,8,400,22,,ISIC_0032587.JPG
break,html.Screen,4_121_1,2023-09-12T20:04:16.759Z,,0,,,NaN,,,,,,false,,,,500862.1999999881,500862,,500861.5,,500862.089,8,400,,,
break_continue,html.Screen,4_121_2,2023-09-12T20:04:16.759Z,,0,,,NaN,,,,,,false,,,,500862.6999999881,500862.5,,500862.3000000119,,500862.089,8,400,,,
sequence,flow.Sequence,4_121,2023-09-12T20:04:16.759Z,,0,,,2783.6329999999725,completion,,,,,false,,,,500862.89999997616,500862.5,498062.201,498071.6999999881,498078.867,500862.089,8,400,,,
trial,html.Screen,4_122_0,2023-09-12T20:04:19.949Z,,0,3,,3189.711000011943,response,ISIC_5028203.JPG,6,ISIC_3945116.JPG,ISIC_5028203.JPG,false,1,keypress(m),500,504052.1999999881,504051.8000000119,500845.423,500863,500862.089,504062.402,8,400,23,,ISIC_3945116.JPG
break,html.Screen,4_122_1,2023-09-12T20:04:19.950Z,,0,,,NaN,,,,,,false,,,,504053.3000000119,504053,,504052.5,,504062.402,8,400,,,
break_continue,html.Screen,4_122_2,2023-09-12T20:04:19.950Z,,0,,,NaN,,,,,,false,,,,504053.6999999881,504053.5,,504053.39999997616,,504062.402,8,400,,,
sequence,flow.Sequence,4_122,2023-09-12T20:04:19.950Z,,0,,,3191.411000000022,completion,,,,,false,,,,504053.8000000119,504053.5,500845.423,500863,500862.089,504062.402,8,400,,,
trial,html.Screen,4_123_0,2023-09-12T20:04:23.264Z,,0,3,,3304.4979999761563,response,ISIC_0004691.JPG,8,ISIC_0027069.JPG,ISIC_0004691.JPG,false,1,keypress(m),500,507367.1999999881,507366.89999997616,504045.736,504053.89999997616,504062.402,507378.936,8,400,24,,ISIC_0027069.JPG
break,html.Screen,4_123_1,2023-09-12T20:04:23.265Z,,0,,,NaN,,,,,,false,,,,507368.1999999881,507368,,507367.59999996424,,507378.936,8,400,,,
break_continue,html.Screen,4_123_2,2023-09-12T20:04:23.265Z,,0,,,NaN,,,,,,false,,,,507368.59999996424,507368.5,,507368.39999997616,,507378.936,8,400,,,
sequence,flow.Sequence,4_123,2023-09-12T20:04:23.265Z,,0,,,3306.097999999998,completion,,,,,false,,,,507368.8000000119,507368.5,504045.736,504053.89999997616,504062.402,507378.936,8,400,,,
trial,html.Screen,4_124_0,2023-09-12T20:04:27.086Z,,0,3,,3810.064000000013,response,ISIC_0068961.JPG,7,ISIC_1040340.JPG,ISIC_0068961.JPG,false,1,keypress(m),500,511189.39999997616,511189,507362.27,507368.89999997616,507378.936,511195.45,8,400,25,,ISIC_1040340.JPG
break,html.Screen,4_124_1,2023-09-12T20:04:27.087Z,,0,,,NaN,,,,,,false,,,,511190.3000000119,511190.09999996424,,511189.6999999881,,511195.45,8,400,,,
break_continue,html.Screen,4_124_2,2023-09-12T20:04:27.087Z,,0,,,NaN,,,,,,false,,,,511190.8000000119,511190.59999996424,,511190.5,,511195.45,8,400,,,
sequence,flow.Sequence,4_124,2023-09-12T20:04:27.087Z,,0,,,3811.6639999642503,completion,,,,,false,,,,511190.89999997616,511190.59999996424,507362.27,507368.89999997616,507378.936,511195.45,8,400,,,
trial,html.Screen,4_125_0,2023-09-12T20:04:30.148Z,,0,3,,3055.9499999761465,response,ISIC_3992223.JPG,7,ISIC_0067308.JPG,ISIC_0067308.JPG,false,0,keypress(z),500,514251.59999996424,514251.39999997616,511178.784,511191.09999996424,511195.45,514262.46,8,400,26,,ISIC_3992223.JPG
break,html.Screen,4_125_1,2023-09-12T20:04:30.148Z,,0,,,NaN,,,,,,false,,,,514252,514252,,514251.6999999881,,514262.46,8,400,,,
break_continue,html.Screen,4_125_2,2023-09-12T20:04:30.149Z,,0,,,NaN,,,,,,false,,,,514252.1999999881,514252.09999996424,,514252.09999996424,,514262.46,8,400,,,
sequence,flow.Sequence,4_125,2023-09-12T20:04:30.149Z,,0,,,3056.6499999642256,completion,,,,,false,,,,514252.3000000119,514252.09999996424,511178.784,511191,511195.45,514262.46,8,400,,,
