sender,sender_type,sender_id,timestamp,meta,,blockNo,condition,duration,ended_on,img_left,img_reveal,img_right,loser,practice,response,response_action,selection_duration,time_commit,time_end,time_render,time_run,time_show,time_switch,total_blocks,total_trials,trialNo,url,winner
informed_consent,html.Screen,0,2023-09-16T01:10:24.598Z,"{""labjs_version"":""20.2.4"",""labjs_build"":{""flavor"":""production"",""commit"":""f5b4a49f956347addd546a832a3327688c2c0fef""},""location"":""https://run.pavlovia.org/MurrayBennett/melanoma-2afc/?participant=65894&platform=sona"",""userAgent"":""Mozilla/5.0 (Macintosh; Intel Mac OS X 10_15_7) AppleWebKit/537.36 (KHTML, like Gecko) Chrome/116.0.0.0 Safari/537.36"",""platform"":""MacIntel"",""language"":""en-US"",""locale"":""en-US"",""timeZone"":""America/Chicago"",""timezoneOffset"":300,""screen_width"":1440,""screen_height"":900,""scroll_width"":1407,""scroll_height"":596,""window_innerWidth"":1407,""window_innerHeight"":644,""devicePixelRatio"":2}",,,,17514.87699999106,response,,,,,,consent,click button,,20349.89999999106,20330.89999999106,2732.693,2803.2999999970198,2816.023,20365.584,,,,"{""participant"":""65894"",""platform"":""sona""}",
Welcome,html.Screen,1,2023-09-16T01:11:31.815Z,,,,uniform,67180.71599999702,response,,,,,,continue,click button,,87565,87546.29999999702,20348.918,20350.19999998808,20365.584,87581.399,,,,,
trial,html.Screen,2_0_0,2023-09-16T01:11:39.133Z,,0,0,,7300.800999988074,response,ISIC_0025593.JPG,,ISIC_0063388.JPG,ISIC_0025593.JPG,true,1,keypress(m),500,94882.69999998808,94882.19999998808,87564.733,87565.39999999106,87581.399,94898.036,1,6,1,,ISIC_0063388.JPG
sequence,flow.Sequence,2_0,2023-09-16T01:11:39.134Z,,0,,,7300.800999988074,completion,,,,,true,,,,94883.39999999106,94882.19999998808,87564.733,87565.29999999702,87581.399,94898.036,1,6,,,
trial,html.Screen,2_1_0,2023-09-16T01:11:50.637Z,,0,0,,11516.468000000008,timeout,ISIC_0028178.JPG,,ISIC_1309015.JPG,,true,,,500,106386,106385.5,94881.37,94883.5,94898.036,106414.504,1,6,2,,
sequence,flow.Sequence,2_1,2023-09-16T01:11:50.637Z,,0,,,11487.464000000007,completion,,,,,true,,,,106386.29999999702,106385.5,94881.37,94883.5,94898.036,106414.504,1,6,,,
trial,html.Screen,2_2_0,2023-09-16T01:11:54.783Z,,0,0,,4117.3959999910585,response,ISIC_0031128.JPG,,ISIC_3314853.JPG,ISIC_0031128.JPG,true,1,keypress(m),500,110532.29999999702,110531.89999999106,106397.838,106386.59999999404,106414.504,110564.338,1,6,3,,ISIC_3314853.JPG
sequence,flow.Sequence,2_2,2023-09-16T01:11:54.784Z,,0,,,4117.3959999910585,completion,,,,,true,,,,110532.69999998808,110531.89999999106,106397.838,106386.5,106414.504,110564.338,1,6,,,
trial,html.Screen,2_3_0,2023-09-16T01:11:58.358Z,,0,0,,3542.061999991056,response,ISIC_8980141.JPG,,ISIC_0031612.JPG,ISIC_0031612.JPG,true,0,keypress(z),500,114106.79999999702,114106.39999999106,110547.672,110533,110564.338,114131.125,1,6,4,,ISIC_8980141.JPG
sequence,flow.Sequence,2_3,2023-09-16T01:11:58.358Z,,0,,,3542.061999991056,completion,,,,,true,,,,114107.39999999106,114106.39999999106,110547.672,110532.89999999106,110564.338,114131.125,1,6,,,
trial,html.Screen,2_4_0,2023-09-16T01:12:01.886Z,,0,0,,3503.4749999940395,response,ISIC_1197737.JPG,,ISIC_9721604.JPG,ISIC_1197737.JPG,true,1,keypress(m),500,117635.09999999404,117634.59999999404,114114.459,114107.69999998808,114131.125,117664.317,1,6,5,,ISIC_9721604.JPG
sequence,flow.Sequence,2_4,2023-09-16T01:12:01.887Z,,0,,,3503.4749999940395,completion,,,,,true,,,,117635.59999999404,117634.59999999404,114114.459,114107.59999999404,114131.125,117664.317,1,6,,,
trial,html.Screen,2_5_0,2023-09-16T01:12:06.468Z,,0,0,,4552.282999994044,response,ISIC_0025346.JPG,,ISIC_0010681.JPG,ISIC_0025346.JPG,true,1,keypress(m),500,122217.09999999404,122216.59999999404,117630.985,117635.89999999106,117664.317,122231.063,1,6,6,,ISIC_0010681.JPG
sequence,flow.Sequence,2_5,2023-09-16T01:12:06.469Z,,0,,,4552.282999994044,completion,,,,,true,,,,122217.79999999702,122216.59999999404,117630.985,117635.79999999702,117664.317,122231.063,1,6,,,
loop,flow.Loop,2,2023-09-16T01:12:06.469Z,,,,,34635.200999994035,completion,,,,,true,,,,122218.09999999404,122216.59999999404,87564.733,87565.29999999702,87581.399,122231.063,1,6,,,
exp_instructions,html.Screen,3,2023-09-16T01:12:25.866Z,,,,,19378.636999988084,response,,,,,,continue,keypress(Space),,141614.59999999404,141609.69999998808,122214.397,122218.39999999106,122231.063,141630.812,,,,,
trial,html.Screen,4_0_0,2023-09-16T01:12:30.630Z,,0,1,,4746.687999999995,response,ISIC_9765024.JPG,6,ISIC_4834687.JPG,ISIC_4834687.JPG,false,0,keypress(z),500,146377.89999999106,146377.5,141614.146,141614.89999999106,141630.812,146397.288,8,400,1,,ISIC_9765024.JPG
break,html.Screen,4_0_1,2023-09-16T01:12:30.631Z,,0,,,NaN,,,,,,false,,,,146379.39999999106,146378.89999999106,,146378.19999998808,,146397.288,8,400,,,
break_continue,html.Screen,4_0_2,2023-09-16T01:12:30.632Z,,0,,,NaN,,,,,,false,,,,146380,146379.79999999702,,146379.5,,146397.288,8,400,,,
sequence,flow.Sequence,4_0,2023-09-16T01:12:30.632Z,,0,,,4748.987999997014,completion,,,,,false,,,,146380.19999998808,146379.79999999702,141614.146,141614.89999999106,141630.812,146397.288,8,400,,,
trial,html.Screen,4_1_0,2023-09-16T01:12:35.691Z,,0,1,,5041.411999988079,response,ISIC_1776777.JPG,6,ISIC_9307584.JPG,ISIC_9307584.JPG,false,0,keypress(z),500,151439,151438.69999998808,146380.622,146380.29999999702,146397.288,151463.752,8,400,2,,ISIC_1776777.JPG
break,html.Screen,4_1_1,2023-09-16T01:12:35.692Z,,0,,,NaN,,,,,,false,,,,151440,151439.79999999702,,151439.19999998808,,151463.752,8,400,,,
break_continue,html.Screen,4_1_2,2023-09-16T01:12:35.692Z,,0,,,NaN,,,,,,false,,,,151440.5,151440.39999999106,,151440.19999998808,,151463.752,8,400,,,
sequence,flow.Sequence,4_1,2023-09-16T01:12:35.693Z,,0,,,5043.111999991059,completion,,,,,false,,,,151440.69999998808,151440.39999999106,146380.622,146380.29999999702,146397.288,151463.752,8,400,,,
trial,html.Screen,4_2_0,2023-09-16T01:12:41.985Z,,0,1,,6268.747999999992,response,ISIC_5202231.JPG,7,ISIC_0034141.JPG,ISIC_0034141.JPG,false,0,keypress(z),500,157732.89999999106,157732.5,151447.086,151440.89999999106,151463.752,157747.097,8,400,3,,ISIC_5202231.JPG
break,html.Screen,4_2_1,2023-09-16T01:12:41.986Z,,0,,,NaN,,,,,,false,,,,157734,157733.59999999404,,157733.09999999404,,157747.097,8,400,,,
break_continue,html.Screen,4_2_2,2023-09-16T01:12:41.987Z,,0,,,NaN,,,,,,false,,,,157734.5,157734.29999999702,,157734.09999999404,,157747.097,8,400,,,
sequence,flow.Sequence,4_2,2023-09-16T01:12:41.987Z,,0,,,6270.547999997012,completion,,,,,false,,,,157734.69999998808,157734.29999999702,151447.086,151440.79999999702,151463.752,157747.097,8,400,,,
trial,html.Screen,4_3_0,2023-09-16T01:12:46.879Z,,0,1,,4879.10299998807,response,ISIC_6268546.JPG,6,ISIC_0011493.JPG,ISIC_6268546.JPG,false,1,keypress(m),500,162626.59999999404,162626.19999998808,157730.431,157734.89999999106,157747.097,162647.163,8,400,4,,ISIC_0011493.JPG
break,html.Screen,4_3_1,2023-09-16T01:12:46.880Z,,0,,,NaN,,,,,,false,,,,162627.79999999702,162627.5,,162626.89999999106,,162647.163,8,400,,,
break_continue,html.Screen,4_3_2,2023-09-16T01:12:46.881Z,,0,,,NaN,,,,,,false,,,,162628.19999998808,162628.09999999404,,162627.89999999106,,162647.163,8,400,,,
sequence,flow.Sequence,4_3,2023-09-16T01:12:46.881Z,,0,,,4881.002999994031,completion,,,,,false,,,,162628.5,162628.09999999404,157730.431,157734.79999999702,157747.097,162647.163,8,400,,,
trial,html.Screen,4_4_0,2023-09-16T01:12:52.085Z,,0,1,,5185.536999988079,response,ISIC_8637134.JPG,5,ISIC_0009913.JPG,ISIC_0009913.JPG,false,0,keypress(z),500,167832.89999999106,167832.69999998808,162630.497,162628.69999998808,162647.163,167846.955,8,400,5,,ISIC_8637134.JPG
break,html.Screen,4_4_1,2023-09-16T01:12:52.086Z,,0,,,NaN,,,,,,false,,,,167834.09999999404,167833.69999998808,,167833.19999998808,,167846.955,8,400,,,
break_continue,html.Screen,4_4_2,2023-09-16T01:12:52.087Z,,0,,,NaN,,,,,,false,,,,167834.5,167834.39999999106,,167834.19999998808,,167846.955,8,400,,,
sequence,flow.Sequence,4_4,2023-09-16T01:12:52.087Z,,0,,,5187.236999991059,completion,,,,,false,,,,167834.69999998808,167834.39999999106,162630.497,162628.59999999404,162647.163,167846.955,8,400,,,
trial,html.Screen,4_5_0,2023-09-16T01:12:58.939Z,,0,1,,6838.844999997033,response,ISIC_0248628.JPG,6,ISIC_6905623.JPG,ISIC_6905623.JPG,false,0,keypress(z),500,174686.19999998808,174685.79999999702,167830.289,167834.89999999106,167846.955,174713.609,8,400,6,,ISIC_0248628.JPG
break,html.Screen,4_5_1,2023-09-16T01:12:58.940Z,,0,,,NaN,,,,,,false,,,,174687.09999999404,174686.79999999702,,174686.39999999106,,174713.609,8,400,,,
break_continue,html.Screen,4_5_2,2023-09-16T01:12:58.940Z,,0,,,NaN,,,,,,false,,,,174687.5,174687.39999999106,,174687.19999998808,,174713.609,8,400,,,
sequence,flow.Sequence,4_5,2023-09-16T01:12:58.940Z,,0,,,6840.444999991072,completion,,,,,false,,,,174687.79999999702,174687.39999999106,167830.289,167834.89999999106,167846.955,174713.609,8,400,,,
trial,html.Screen,4_6_0,2023-09-16T01:13:02.799Z,,0,1,,3832.690999997023,response,ISIC_7740744.JPG,7,ISIC_0000145.JPG,ISIC_7740744.JPG,false,1,keypress(m),500,178546.59999999404,178546.29999999702,174696.943,174687.89999999106,174713.609,178563.455,8,400,7,,ISIC_0000145.JPG
break,html.Screen,4_6_1,2023-09-16T01:13:02.800Z,,0,,,NaN,,,,,,false,,,,178547.69999998808,178547.39999999106,,178546.89999999106,,178563.455,8,400,,,
break_continue,html.Screen,4_6_2,2023-09-16T01:13:02.801Z,,0,,,NaN,,,,,,false,,,,178548.19999998808,178548,,178547.79999999702,,178563.455,8,400,,,
sequence,flow.Sequence,4_6,2023-09-16T01:13:02.801Z,,0,,,3834.3910000000033,completion,,,,,false,,,,178548.39999999106,178548,174696.943,174687.89999999106,174713.609,178563.455,8,400,,,
trial,html.Screen,4_7_0,2023-09-16T01:13:11.918Z,,0,1,,9101.244999988092,response,ISIC_0071988.JPG,7,ISIC_0010690.JPG,ISIC_0071988.JPG,false,1,keypress(m),500,187665,187664.69999998808,178546.789,178548.59999999404,178563.455,187696.686,8,400,8,,ISIC_0010690.JPG
break,html.Screen,4_7_1,2023-09-16T01:13:11.919Z,,0,,,NaN,,,,,,false,,,,187666,187665.79999999702,,187665.29999999702,,187696.686,8,400,,,
break_continue,html.Screen,4_7_2,2023-09-16T01:13:11.919Z,,0,,,NaN,,,,,,false,,,,187666.39999999106,187666.29999999702,,187666.09999999404,,187696.686,8,400,,,
sequence,flow.Sequence,4_7,2023-09-16T01:13:11.920Z,,0,,,9102.844999997033,completion,,,,,false,,,,187666.59999999404,187666.29999999702,178546.789,178548.5,178563.455,187696.686,8,400,,,
trial,html.Screen,4_8_0,2023-09-16T01:13:17.735Z,,0,1,,5784.513999988092,response,ISIC_0069105.JPG,6,ISIC_7062293.JPG,ISIC_7062293.JPG,false,0,keypress(z),500,193481.39999999106,193481.19999998808,187680.02,187666.89999999106,187696.686,193513.382,8,400,9,,ISIC_0069105.JPG
break,html.Screen,4_8_1,2023-09-16T01:13:17.736Z,,0,,,NaN,,,,,,false,,,,193482.39999999106,193482.09999999404,,193481.69999998808,,193513.382,8,400,,,
break_continue,html.Screen,4_8_2,2023-09-16T01:13:17.736Z,,0,,,NaN,,,,,,false,,,,193482.79999999702,193482.69999998808,,193482.59999999404,,193513.382,8,400,,,
sequence,flow.Sequence,4_8,2023-09-16T01:13:17.736Z,,0,,,5786.013999988092,completion,,,,,false,,,,193483.09999999404,193482.69999998808,187680.02,187666.79999999702,187696.686,193513.382,8,400,,,
trial,html.Screen,4_9_0,2023-09-16T01:13:21.531Z,,0,1,,3763.717999994027,response,ISIC_4536407.JPG,6,ISIC_1348843.JPG,ISIC_1348843.JPG,false,0,keypress(z),500,197277.39999999106,197277.09999999404,193496.716,193483.29999999702,193513.382,197296.564,8,400,10,,ISIC_4536407.JPG
break,html.Screen,4_9_1,2023-09-16T01:13:21.532Z,,0,,,NaN,,,,,,false,,,,197278.5,197278.19999998808,,197277.79999999702,,197296.564,8,400,,,
break_continue,html.Screen,4_9_2,2023-09-16T01:13:21.532Z,,0,,,NaN,,,,,,false,,,,197279,197278.89999999106,,197278.69999998808,,197296.564,8,400,,,
sequence,flow.Sequence,4_9,2023-09-16T01:13:21.532Z,,0,,,3765.517999991047,completion,,,,,false,,,,197279.19999998808,197278.89999999106,193496.716,193483.19999998808,193513.382,197296.564,8,400,,,
trial,html.Screen,4_10_0,2023-09-16T01:13:26.624Z,,0,1,,5073.335999991046,response,ISIC_0064066.JPG,5,ISIC_2844539.JPG,ISIC_0064066.JPG,false,1,keypress(m),500,202370.19999998808,202369.89999999106,197279.898,197279.39999999106,197296.564,202396.623,8,400,11,,ISIC_2844539.JPG
break,html.Screen,4_10_1,2023-09-16T01:13:26.625Z,,0,,,NaN,,,,,,false,,,,202371.29999999702,202371,,202370.39999999106,,202396.623,8,400,,,
break_continue,html.Screen,4_10_2,2023-09-16T01:13:26.625Z,,0,,,NaN,,,,,,false,,,,202371.79999999702,202371.69999998808,,202371.5,,202396.623,8,400,,,
sequence,flow.Sequence,4_10,2023-09-16T01:13:26.625Z,,0,,,5075.135999988066,completion,,,,,false,,,,202372.09999999404,202371.69999998808,197279.898,197279.29999999702,197296.564,202396.623,8,400,,,
trial,html.Screen,4_11_0,2023-09-16T01:13:33.280Z,,0,1,,6629.576999988087,response,ISIC_0009911.JPG,7,ISIC_0027122.JPG,ISIC_0009911.JPG,false,1,keypress(m),500,209026.5,209026.19999998808,202379.957,202372.19999998808,202396.623,209046.357,8,400,12,,ISIC_0027122.JPG
break,html.Screen,4_11_1,2023-09-16T01:13:33.281Z,,0,,,NaN,,,,,,false,,,,209027.5,209027.29999999702,,209026.69999998808,,209046.357,8,400,,,
break_continue,html.Screen,4_11_2,2023-09-16T01:13:33.282Z,,0,,,NaN,,,,,,false,,,,209027.89999999106,209027.79999999702,,209027.59999999404,,209046.357,8,400,,,
sequence,flow.Sequence,4_11,2023-09-16T01:13:33.282Z,,0,,,6631.176999997027,completion,,,,,false,,,,209028.19999998808,209027.79999999702,202379.957,202372.19999998808,202396.623,209046.357,8,400,,,
trial,html.Screen,4_12_0,2023-09-16T01:13:39.852Z,,0,1,,6551.54299999107,response,ISIC_0014027.JPG,5,ISIC_0030616.JPG,ISIC_0030616.JPG,false,0,keypress(z),500,215598.29999999702,215597.89999999106,209029.691,209028.39999999106,209046.357,215629.689,8,400,13,,ISIC_0014027.JPG
break,html.Screen,4_12_1,2023-09-16T01:13:39.853Z,,0,,,NaN,,,,,,false,,,,215599.09999999404,215599,,215598.5,,215629.689,8,400,,,
break_continue,html.Screen,4_12_2,2023-09-16T01:13:39.853Z,,0,,,NaN,,,,,,false,,,,215599.59999999404,215599.59999999404,,215599.39999999106,,215629.689,8,400,,,
sequence,flow.Sequence,4_12,2023-09-16T01:13:39.854Z,,0,,,6553.2429999940505,completion,,,,,false,,,,215599.89999999106,215599.59999999404,209029.691,209028.29999999702,209046.357,215629.689,8,400,,,
trial,html.Screen,4_13_0,2023-09-16T01:13:44.945Z,,0,1,,5061.110999997007,response,ISIC_0064784.JPG,6,ISIC_3459981.JPG,ISIC_3459981.JPG,false,0,keypress(z),500,220691.09999999404,220690.79999999702,215613.023,215600.09999999404,215629.689,220712.819,8,400,14,,ISIC_0064784.JPG
break,html.Screen,4_13_1,2023-09-16T01:13:44.946Z,,0,,,NaN,,,,,,false,,,,220692.29999999702,220692.09999999404,,220691.59999999404,,220712.819,8,400,,,
break_continue,html.Screen,4_13_2,2023-09-16T01:13:44.947Z,,0,,,NaN,,,,,,false,,,,220692.79999999702,220692.69999998808,,220692.5,,220712.819,8,400,,,
sequence,flow.Sequence,4_13,2023-09-16T01:13:44.947Z,,0,,,5063.010999988066,completion,,,,,false,,,,220693,220692.69999998808,215613.023,215600.09999999404,215629.689,220712.819,8,400,,,
trial,html.Screen,4_14_0,2023-09-16T01:13:49.222Z,,0,1,,4254.8809999880905,response,ISIC_6609484.JPG,5,ISIC_0000763.JPG,ISIC_6609484.JPG,false,1,keypress(m),500,224968,224967.69999998808,220696.153,220693.19999998808,220712.819,224996.244,8,400,15,,ISIC_0000763.JPG
break,html.Screen,4_14_1,2023-09-16T01:13:49.223Z,,0,,,NaN,,,,,,false,,,,224969.09999999404,224968.79999999702,,224968.39999999106,,224996.244,8,400,,,
break_continue,html.Screen,4_14_2,2023-09-16T01:13:49.224Z,,0,,,NaN,,,,,,false,,,,224969.59999999404,224969.5,,224969.19999998808,,224996.244,8,400,,,
sequence,flow.Sequence,4_14,2023-09-16T01:13:49.224Z,,0,,,4256.681000000011,completion,,,,,false,,,,224969.79999999702,224969.5,220696.153,220693.19999998808,220712.819,224996.244,8,400,,,
trial,html.Screen,4_15_0,2023-09-16T01:13:54.668Z,,0,1,,5416.755999999994,response,ISIC_1149693.JPG,6,ISIC_4966148.JPG,ISIC_4966148.JPG,false,0,keypress(z),500,230413.39999999106,230413,224979.578,224970,224996.244,230429.36,8,400,16,,ISIC_1149693.JPG
break,html.Screen,4_15_1,2023-09-16T01:13:54.669Z,,0,,,NaN,,,,,,false,,,,230414.39999999106,230414.19999998808,,230413.69999998808,,230429.36,8,400,,,
break_continue,html.Screen,4_15_2,2023-09-16T01:13:54.669Z,,0,,,NaN,,,,,,false,,,,230414.89999999106,230414.79999999702,,230414.59999999404,,230429.36,8,400,,,
sequence,flow.Sequence,4_15,2023-09-16T01:13:54.669Z,,0,,,5418.555999997014,completion,,,,,false,,,,230415.09999999404,230414.79999999702,224979.578,224969.89999999106,224996.244,230429.36,8,400,,,
trial,html.Screen,4_16_0,2023-09-16T01:13:59.634Z,,0,1,,4949.939999997034,response,ISIC_0490442.JPG,7,ISIC_0046471.JPG,ISIC_0046471.JPG,false,0,keypress(z),500,235379.59999999404,235379.29999999702,230412.694,230415.39999999106,230429.36,235396.09,8,400,17,,ISIC_0490442.JPG
break,html.Screen,4_16_1,2023-09-16T01:13:59.635Z,,0,,,NaN,,,,,,false,,,,235380.5,235380.29999999702,,235379.79999999702,,235396.09,8,400,,,
break_continue,html.Screen,4_16_2,2023-09-16T01:13:59.635Z,,0,,,NaN,,,,,,false,,,,235381,235380.89999999106,,235380.59999999404,,235396.09,8,400,,,
sequence,flow.Sequence,4_16,2023-09-16T01:13:59.635Z,,0,,,4951.539999991073,completion,,,,,false,,,,235381.09999999404,235380.89999999106,230412.694,230415.29999999702,230429.36,235396.09,8,400,,,
trial,html.Screen,4_17_0,2023-09-16T01:14:05.185Z,,0,1,,5534.509999994043,response,ISIC_4425604.JPG,6,ISIC_6113524.JPG,ISIC_6113524.JPG,false,0,keypress(z),500,240930.79999999702,240930.59999999404,235379.424,235381.39999999106,235396.09,240945.868,8,400,18,,ISIC_4425604.JPG
break,html.Screen,4_17_1,2023-09-16T01:14:05.186Z,,0,,,NaN,,,,,,false,,,,240931.79999999702,240931.59999999404,,240931.19999998808,,240945.868,8,400,,,
break_continue,html.Screen,4_17_2,2023-09-16T01:14:05.187Z,,0,,,NaN,,,,,,false,,,,240932.19999998808,240932.09999999404,,240932,,240945.868,8,400,,,
sequence,flow.Sequence,4_17,2023-09-16T01:14:05.187Z,,0,,,5536.009999994043,completion,,,,,false,,,,240932.5,240932.09999999404,235379.424,235381.29999999702,235396.09,240945.868,8,400,,,
trial,html.Screen,4_18_0,2023-09-16T01:14:09.865Z,,0,1,,4663.931999997032,response,ISIC_3157046.JPG,5,ISIC_0030122.JPG,ISIC_3157046.JPG,false,1,keypress(m),500,245610.09999999404,245609.79999999702,240929.202,240932.59999999404,240945.868,245629.277,8,400,19,,ISIC_0030122.JPG
break,html.Screen,4_18_1,2023-09-16T01:14:09.866Z,,0,,,NaN,,,,,,false,,,,245611.09999999404,245610.89999999106,,245610.39999999106,,245629.277,8,400,,,
break_continue,html.Screen,4_18_2,2023-09-16T01:14:09.866Z,,0,,,NaN,,,,,,false,,,,245611.59999999404,245611.39999999106,,245611.29999999702,,245629.277,8,400,,,
sequence,flow.Sequence,4_18,2023-09-16T01:14:09.866Z,,0,,,4665.531999991072,completion,,,,,false,,,,245611.79999999702,245611.39999999106,240929.202,240932.59999999404,240945.868,245629.277,8,400,,,
trial,html.Screen,4_19_0,2023-09-16T01:14:14.573Z,,0,1,,4688.522999997018,response,ISIC_1118894.JPG,6,ISIC_5190484.JPG,ISIC_5190484.JPG,false,0,keypress(z),500,250318.09999999404,250317.79999999702,245612.611,245612,245629.277,250345.755,8,400,20,,ISIC_1118894.JPG
break,html.Screen,4_19_1,2023-09-16T01:14:14.574Z,,0,,,NaN,,,,,,false,,,,250319.09999999404,250318.89999999106,,250318.5,,250345.755,8,400,,,
break_continue,html.Screen,4_19_2,2023-09-16T01:14:14.574Z,,0,,,NaN,,,,,,false,,,,250319.5,250319.39999999106,,250319.19999998808,,250345.755,8,400,,,
sequence,flow.Sequence,4_19,2023-09-16T01:14:14.574Z,,0,,,4690.122999991057,completion,,,,,false,,,,250319.69999998808,250319.39999999106,245612.611,245611.89999999106,245629.277,250345.755,8,400,,,
trial,html.Screen,4_20_0,2023-09-16T01:14:19.625Z,,0,1,,5024.444999988074,response,ISIC_0008621.JPG,6,ISIC_0030129.JPG,ISIC_0030129.JPG,false,0,keypress(z),500,255370.59999999404,255370.19999998808,250329.089,250320,250345.755,255395.815,8,400,21,,ISIC_0008621.JPG
break,html.Screen,4_20_1,2023-09-16T01:14:19.626Z,,0,,,NaN,,,,,,false,,,,255371.59999999404,255371.29999999702,,255370.79999999702,,255395.815,8,400,,,
break_continue,html.Screen,4_20_2,2023-09-16T01:14:19.627Z,,0,,,NaN,,,,,,false,,,,255372.09999999404,255371.89999999106,,255371.69999998808,,255395.815,8,400,,,
sequence,flow.Sequence,4_20,2023-09-16T01:14:19.627Z,,0,,,5026.144999991055,completion,,,,,false,,,,255372.29999999702,255371.89999999106,250329.089,250319.89999999106,250345.755,255395.815,8,400,,,
trial,html.Screen,4_21_0,2023-09-16T01:14:24.863Z,,0,1,,5211.784999994037,response,ISIC_0651114.JPG,6,ISIC_4821309.JPG,ISIC_4821309.JPG,false,0,keypress(z),500,260607.89999999106,260607.59999999404,255379.149,255372.5,255395.815,260628.939,8,400,22,,ISIC_0651114.JPG
break,html.Screen,4_21_1,2023-09-16T01:14:24.864Z,,0,,,NaN,,,,,,false,,,,260609,260608.79999999702,,260608.19999998808,,260628.939,8,400,,,
break_continue,html.Screen,4_21_2,2023-09-16T01:14:24.864Z,,0,,,NaN,,,,,,false,,,,260609.5,260609.39999999106,,260609.19999998808,,260628.939,8,400,,,
sequence,flow.Sequence,4_21,2023-09-16T01:14:24.865Z,,0,,,5213.584999991057,completion,,,,,false,,,,260609.69999998808,260609.39999999106,255379.149,255372.39999999106,255395.815,260628.939,8,400,,,
trial,html.Screen,4_22_0,2023-09-16T01:14:30.054Z,,0,1,,5169.560999999987,response,ISIC_9765760.JPG,6,ISIC_0007678.JPG,ISIC_9765760.JPG,false,1,keypress(m),500,265798.799999997,265798.5,260612.273,260609.89999999106,260628.939,265828.994,8,400,23,,ISIC_0007678.JPG
break,html.Screen,4_22_1,2023-09-16T01:14:30.055Z,,0,,,NaN,,,,,,false,,,,265799.6999999881,265799.5,,265799,,265828.994,8,400,,,
break_continue,html.Screen,4_22_2,2023-09-16T01:14:30.055Z,,0,,,NaN,,,,,,false,,,,265800.1999999881,265800.09999999404,,265799.89999999106,,265828.994,8,400,,,
sequence,flow.Sequence,4_22,2023-09-16T01:14:30.056Z,,0,,,5171.1609999940265,completion,,,,,false,,,,265800.5,265800.09999999404,260612.273,260609.89999999106,260628.939,265828.994,8,400,,,
trial,html.Screen,4_23_0,2023-09-16T01:14:34.154Z,,0,1,,4069.9059999910532,response,ISIC_2724529.JPG,6,ISIC_0012067.JPG,ISIC_0012067.JPG,false,0,keypress(z),500,269899.09999999404,269898.89999999106,265812.328,265800.59999999404,265828.994,269928.83,8,400,24,,ISIC_2724529.JPG
break,html.Screen,4_23_1,2023-09-16T01:14:34.155Z,,0,,,NaN,,,,,,false,,,,269900.09999999404,269899.89999999106,,269899.39999999106,,269928.83,8,400,,,
break_continue,html.Screen,4_23_2,2023-09-16T01:14:34.156Z,,0,,,NaN,,,,,,false,,,,269900.59999999404,269900.39999999106,,269900.1999999881,,269928.83,8,400,,,
sequence,flow.Sequence,4_23,2023-09-16T01:14:34.156Z,,0,,,4071.4059999910532,completion,,,,,false,,,,269900.6999999881,269900.39999999106,265812.328,265800.59999999404,265828.994,269928.83,8,400,,,
trial,html.Screen,4_24_0,2023-09-16T01:14:41.842Z,,0,1,,7656.9699999970035,response,ISIC_8013225.JPG,5,ISIC_3296136.JPG,ISIC_8013225.JPG,false,1,keypress(m),500,277586.1999999881,277585.799999997,269912.164,269901,269928.83,277612.118,8,400,25,,ISIC_3296136.JPG
break,html.Screen,4_24_1,2023-09-16T01:14:41.843Z,,0,,,NaN,,,,,,false,,,,277587.39999999106,277587.09999999404,,277586.6999999881,,277612.118,8,400,,,
break_continue,html.Screen,4_24_2,2023-09-16T01:14:41.843Z,,0,,,NaN,,,,,,false,,,,277588,277587.89999999106,,277587.59999999404,,277612.118,8,400,,,
sequence,flow.Sequence,4_24,2023-09-16T01:14:41.844Z,,0,,,7659.069999991043,completion,,,,,false,,,,277588.1999999881,277587.89999999106,269912.164,269900.89999999106,269928.83,277612.118,8,400,,,
trial,html.Screen,4_25_0,2023-09-16T01:14:46.402Z,,0,1,,4533.981999994023,response,ISIC_0009903.JPG,7,ISIC_0027021.JPG,ISIC_0027021.JPG,false,0,keypress(z),500,282146.5,282146.09999999404,277595.452,277588.39999999106,277612.118,282162.199,8,400,26,,ISIC_0009903.JPG
break,html.Screen,4_25_1,2023-09-16T01:14:46.403Z,,0,,,NaN,,,,,,false,,,,282147.5,282147.299999997,,282146.799999997,,282162.199,8,400,,,
break_continue,html.Screen,4_25_2,2023-09-16T01:14:46.404Z,,0,,,NaN,,,,,,false,,,,282148,282147.799999997,,282147.6999999881,,282162.199,8,400,,,
sequence,flow.Sequence,4_25,2023-09-16T01:14:46.404Z,,0,,,4535.681999997003,completion,,,,,false,,,,282148.1999999881,282147.799999997,277595.452,277588.39999999106,277612.118,282162.199,8,400,,,
trial,html.Screen,4_26_0,2023-09-16T01:14:52.822Z,,0,1,,6404.400999994017,response,ISIC_4482610.JPG,5,ISIC_0030798.JPG,ISIC_0030798.JPG,false,0,keypress(z),500,288566.799999997,288566.59999999404,282145.533,282148.39999999106,282162.199,288595.275,8,400,27,,ISIC_4482610.JPG
break,html.Screen,4_26_1,2023-09-16T01:14:52.823Z,,0,,,NaN,,,,,,false,,,,288567.799999997,288567.5,,288567.09999999404,,288595.275,8,400,,,
break_continue,html.Screen,4_26_2,2023-09-16T01:14:52.824Z,,0,,,NaN,,,,,,false,,,,288568.299999997,288568.1999999881,,288568,,288595.275,8,400,,,
sequence,flow.Sequence,4_26,2023-09-16T01:14:52.824Z,,0,,,6406.000999988057,completion,,,,,false,,,,288568.5,288568.1999999881,282145.533,282148.299999997,282162.199,288595.275,8,400,,,
trial,html.Screen,4_27_0,2023-09-16T01:14:58.305Z,,0,1,,5453.0249999969965,response,ISIC_4348579.JPG,8,ISIC_0061627.JPG,ISIC_4348579.JPG,false,1,keypress(m),500,294048.6999999881,294048.299999997,288578.609,288568.59999999404,288595.275,294078.651,8,400,28,,ISIC_0061627.JPG
break,html.Screen,4_27_1,2023-09-16T01:14:58.305Z,,0,,,NaN,,,,,,false,,,,294049.5,294049.39999999106,,294048.89999999106,,294078.651,8,400,,,
break_continue,html.Screen,4_27_2,2023-09-16T01:14:58.306Z,,0,,,NaN,,,,,,false,,,,294050.1999999881,294050.09999999404,,294049.799999997,,294078.651,8,400,,,
sequence,flow.Sequence,4_27,2023-09-16T01:14:58.306Z,,0,,,5454.824999994016,completion,,,,,false,,,,294050.39999999106,294050.09999999404,288578.609,288568.59999999404,288595.275,294078.651,8,400,,,
trial,html.Screen,4_28_0,2023-09-16T01:15:04.757Z,,0,1,,6422.248999991047,response,ISIC_3558747.JPG,6,ISIC_4508511.JPG,ISIC_3558747.JPG,false,1,keypress(m),500,300501.1999999881,300500.89999999106,294061.985,294050.59999999404,294078.651,300528.393,8,400,29,,ISIC_4508511.JPG
break,html.Screen,4_28_1,2023-09-16T01:15:04.758Z,,0,,,NaN,,,,,,false,,,,300502.09999999404,300501.89999999106,,300501.5,,300528.393,8,400,,,
break_continue,html.Screen,4_28_2,2023-09-16T01:15:04.759Z,,0,,,NaN,,,,,,false,,,,300502.59999999404,300502.5,,300502.299999997,,300528.393,8,400,,,
sequence,flow.Sequence,4_28,2023-09-16T01:15:04.759Z,,0,,,6423.848999999987,completion,,,,,false,,,,300502.799999997,300502.5,294061.985,294050.59999999404,294078.651,300528.393,8,400,,,
trial,html.Screen,4_29_0,2023-09-16T01:15:10.188Z,,0,1,,5402.906999997038,response,ISIC_0066671.JPG,8,ISIC_9720518.JPG,ISIC_9720518.JPG,false,0,keypress(z),500,305931.6999999881,305931.299999997,300511.727,300503.09999999404,300528.393,305945.106,8,400,30,,ISIC_0066671.JPG
break,html.Screen,4_29_1,2023-09-16T01:15:10.189Z,,0,,,NaN,,,,,,false,,,,305932.59999999404,305932.39999999106,,305932,,305945.106,8,400,,,
break_continue,html.Screen,4_29_2,2023-09-16T01:15:10.189Z,,0,,,NaN,,,,,,false,,,,305933.09999999404,305933,,305932.799999997,,305945.106,8,400,,,
sequence,flow.Sequence,4_29,2023-09-16T01:15:10.190Z,,0,,,5404.607000000018,completion,,,,,false,,,,305933.39999999106,305933,300511.727,300503,300528.393,305945.106,8,400,,,
trial,html.Screen,4_30_0,2023-09-16T01:15:18.081Z,,0,1,,7879.59399998805,response,ISIC_6380209.JPG,5,ISIC_7466175.JPG,ISIC_6380209.JPG,false,1,keypress(m),500,313825,313824.6999999881,305928.44,305933.59999999404,305945.106,313845.052,8,400,31,,ISIC_7466175.JPG
break,html.Screen,4_30_1,2023-09-16T01:15:18.082Z,,0,,,NaN,,,,,,false,,,,313825.799999997,313825.59999999404,,313825.1999999881,,313845.052,8,400,,,
break_continue,html.Screen,4_30_2,2023-09-16T01:15:18.083Z,,0,,,NaN,,,,,,false,,,,313826.299999997,313826.1999999881,,313826,,313845.052,8,400,,,
sequence,flow.Sequence,4_30,2023-09-16T01:15:18.083Z,,0,,,7881.09399998805,completion,,,,,false,,,,313826.5,313826.1999999881,305928.44,305933.59999999404,305945.106,313845.052,8,400,,,
trial,html.Screen,4_31_0,2023-09-16T01:15:23.447Z,,0,1,,5344.847999991034,response,ISIC_3791309.JPG,6,ISIC_7171090.JPG,ISIC_7171090.JPG,false,0,keypress(z),500,319190.1999999881,319189.89999999106,313828.386,313826.6999999881,313845.052,319211.504,8,400,32,,ISIC_3791309.JPG
break,html.Screen,4_31_1,2023-09-16T01:15:23.448Z,,0,,,NaN,,,,,,false,,,,319191.09999999404,319190.89999999106,,319190.5,,319211.504,8,400,,,
break_continue,html.Screen,4_31_2,2023-09-16T01:15:23.448Z,,0,,,NaN,,,,,,false,,,,319191.6999999881,319191.5,,319191.299999997,,319211.504,8,400,,,
sequence,flow.Sequence,4_31,2023-09-16T01:15:23.448Z,,0,,,5346.447999999975,completion,,,,,false,,,,319191.89999999106,319191.5,313828.386,313826.59999999404,313845.052,319211.504,8,400,,,
trial,html.Screen,4_32_0,2023-09-16T01:15:30.754Z,,0,1,,7285.395999991044,response,ISIC_0001121.JPG,7,ISIC_0000040.JPG,ISIC_0001121.JPG,false,1,keypress(m),500,326497.1999999881,326496.89999999106,319194.838,319192,319211.504,326528.141,8,400,33,,ISIC_0000040.JPG
break,html.Screen,4_32_1,2023-09-16T01:15:30.755Z,,0,,,NaN,,,,,,false,,,,326498.09999999404,326497.89999999106,,326497.5,,326528.141,8,400,,,
break_continue,html.Screen,4_32_2,2023-09-16T01:15:30.755Z,,0,,,NaN,,,,,,false,,,,326498.59999999404,326498.5,,326498.299999997,,326528.141,8,400,,,
sequence,flow.Sequence,4_32,2023-09-16T01:15:30.756Z,,0,,,7286.995999999985,completion,,,,,false,,,,326498.799999997,326498.5,319194.838,319192,319211.504,326528.141,8,400,,,
trial,html.Screen,4_33_0,2023-09-16T01:15:36.599Z,,0,1,,5813.6589999970165,response,ISIC_2690597.JPG,6,ISIC_0069385.JPG,ISIC_0069385.JPG,false,0,keypress(z),500,332342.1999999881,332341.799999997,326511.475,326499,326528.141,332361.503,8,400,34,,ISIC_2690597.JPG
break,html.Screen,4_33_1,2023-09-16T01:15:36.600Z,,0,,,NaN,,,,,,false,,,,332343.09999999404,332342.89999999106,,332342.5,,332361.503,8,400,,,
break_continue,html.Screen,4_33_2,2023-09-16T01:15:36.601Z,,0,,,NaN,,,,,,false,,,,332343.59999999404,332343.5,,332343.39999999106,,332361.503,8,400,,,
sequence,flow.Sequence,4_33,2023-09-16T01:15:36.601Z,,0,,,5815.358999999997,completion,,,,,false,,,,332343.89999999106,332343.5,326511.475,326499,326528.141,332361.503,8,400,,,
trial,html.Screen,4_34_0,2023-09-16T01:15:41.236Z,,0,1,,4617.196999988053,response,ISIC_0054459.JPG,4,ISIC_7801289.JPG,ISIC_0054459.JPG,false,1,keypress(m),500,336979,336978.6999999881,332344.837,332344.1999999881,332361.503,336994.651,8,400,35,,ISIC_7801289.JPG
break,html.Screen,4_34_1,2023-09-16T01:15:41.237Z,,0,,,NaN,,,,,,false,,,,336980,336979.799999997,,336979.299999997,,336994.651,8,400,,,
break_continue,html.Screen,4_34_2,2023-09-16T01:15:41.237Z,,0,,,NaN,,,,,,false,,,,336980.39999999106,336980.39999999106,,336980.09999999404,,336994.651,8,400,,,
sequence,flow.Sequence,4_34,2023-09-16T01:15:41.238Z,,0,,,4618.896999991033,completion,,,,,false,,,,336980.6999999881,336980.39999999106,332344.837,332344.1999999881,332361.503,336994.651,8,400,,,
trial,html.Screen,4_35_0,2023-09-16T01:15:45.988Z,,0,1,,4735.448999994027,response,ISIC_0047003.JPG,6,ISIC_0010380.JPG,ISIC_0010380.JPG,false,0,keypress(z),500,341730.5,341730.09999999404,336977.985,336980.89999999106,336994.651,341744.461,8,400,36,,ISIC_0047003.JPG
break,html.Screen,4_35_1,2023-09-16T01:15:45.989Z,,0,,,NaN,,,,,,false,,,,341731.299999997,341731.09999999404,,341730.6999999881,,341744.461,8,400,,,
break_continue,html.Screen,4_35_2,2023-09-16T01:15:45.989Z,,0,,,NaN,,,,,,false,,,,341731.799999997,341731.6999999881,,341731.59999999404,,341744.461,8,400,,,
sequence,flow.Sequence,4_35,2023-09-16T01:15:45.989Z,,0,,,4737.0489999880665,completion,,,,,false,,,,341732.09999999404,341731.6999999881,336977.985,336980.799999997,336994.651,341744.461,8,400,,,
trial,html.Screen,4_36_0,2023-09-16T01:15:51.224Z,,0,1,,5222.03899999999,response,ISIC_0070383.JPG,5,ISIC_0370008.JPG,ISIC_0370008.JPG,false,0,keypress(z),500,346966.799999997,346966.5,341727.795,341732.1999999881,341744.461,346994.514,8,400,37,,ISIC_0070383.JPG
break,html.Screen,4_36_1,2023-09-16T01:15:51.225Z,,0,,,NaN,,,,,,false,,,,346967.6999999881,346967.5,,346967.09999999404,,346994.514,8,400,,,
break_continue,html.Screen,4_36_2,2023-09-16T01:15:51.226Z,,0,,,NaN,,,,,,false,,,,346968.299999997,346968.1999999881,,346968,,346994.514,8,400,,,
sequence,flow.Sequence,4_36,2023-09-16T01:15:51.226Z,,0,,,5223.738999988069,completion,,,,,false,,,,346968.39999999106,346968.1999999881,341727.795,341732.1999999881,341744.461,346994.514,8,400,,,
trial,html.Screen,4_37_0,2023-09-16T01:15:55.773Z,,0,1,,4520.485999999975,response,ISIC_0011700.JPG,5,ISIC_1226440.JPG,ISIC_0011700.JPG,false,1,keypress(m),500,351515.1999999881,351515,346977.848,346968.59999999404,346994.514,351544.332,8,400,38,,ISIC_1226440.JPG
break,html.Screen,4_37_1,2023-09-16T01:15:55.774Z,,0,,,NaN,,,,,,false,,,,351516.09999999404,351515.89999999106,,351515.5,,351544.332,8,400,,,
break_continue,html.Screen,4_37_2,2023-09-16T01:15:55.774Z,,0,,,NaN,,,,,,false,,,,351516.5,351516.39999999106,,351516.1999999881,,351544.332,8,400,,,
sequence,flow.Sequence,4_37,2023-09-16T01:15:55.774Z,,0,,,4521.885999991035,completion,,,,,false,,,,351516.6999999881,351516.39999999106,346977.848,346968.59999999404,346994.514,351544.332,8,400,,,
trial,html.Screen,4_38_0,2023-09-16T01:15:59.892Z,,0,1,,4089.867999988084,response,ISIC_0003113.JPG,5,ISIC_6666329.JPG,ISIC_6666329.JPG,false,0,keypress(z),500,355634.59999999404,355634.1999999881,351527.666,351516.799999997,351544.332,355661.096,8,400,39,,ISIC_0003113.JPG
break,html.Screen,4_38_1,2023-09-16T01:15:59.893Z,,0,,,NaN,,,,,,false,,,,355635.6999999881,355635.39999999106,,355634.799999997,,355661.096,8,400,,,
break_continue,html.Screen,4_38_2,2023-09-16T01:15:59.894Z,,0,,,NaN,,,,,,false,,,,355636.09999999404,355636,,355635.799999997,,355661.096,8,400,,,
sequence,flow.Sequence,4_38,2023-09-16T01:15:59.894Z,,0,,,4091.668000000005,completion,,,,,false,,,,355636.299999997,355636,351527.666,351516.799999997,351544.332,355661.096,8,400,,,
trial,html.Screen,4_39_0,2023-09-16T01:16:03.866Z,,0,1,,3946.9039999999804,response,ISIC_1805921.JPG,7,ISIC_2058516.JPG,ISIC_2058516.JPG,false,0,keypress(z),500,359608.299999997,359608,355644.43,355636.5,355661.096,359627.604,8,400,40,,ISIC_1805921.JPG
break,html.Screen,4_39_1,2023-09-16T01:16:03.867Z,,0,,,NaN,,,,,,false,,,,359609.299999997,359609.09999999404,,359608.59999999404,,359627.604,8,400,,,
break_continue,html.Screen,4_39_2,2023-09-16T01:16:03.868Z,,0,,,NaN,,,,,,false,,,,359609.89999999106,359609.6999999881,,359609.59999999404,,359627.604,8,400,,,
sequence,flow.Sequence,4_39,2023-09-16T01:16:03.868Z,,0,,,3948.6039999880595,completion,,,,,false,,,,359610.09999999404,359609.6999999881,355644.43,355636.5,355661.096,359627.604,8,400,,,
trial,html.Screen,4_40_0,2023-09-16T01:16:09.036Z,,0,1,,5150.095999988087,response,ISIC_3392433.JPG,5,ISIC_8685259.JPG,ISIC_8685259.JPG,false,0,keypress(z),500,364778,364777.6999999881,359610.938,359610.299999997,359627.604,364794.326,8,400,41,,ISIC_3392433.JPG
break,html.Screen,4_40_1,2023-09-16T01:16:09.037Z,,0,,,NaN,,,,,,false,,,,364778.89999999106,364778.6999999881,,364778.299999997,,364794.326,8,400,,,
break_continue,html.Screen,4_40_2,2023-09-16T01:16:09.037Z,,0,,,NaN,,,,,,false,,,,364779.39999999106,364779.299999997,,364779.09999999404,,364794.326,8,400,,,
sequence,flow.Sequence,4_40,2023-09-16T01:16:09.037Z,,0,,,5151.695999997028,completion,,,,,false,,,,364779.59999999404,364779.299999997,359610.938,359610.1999999881,359627.604,364794.326,8,400,,,
trial,html.Screen,4_41_0,2023-09-16T01:16:13.152Z,,0,1,,4099.073999991058,response,ISIC_2772616.JPG,5,ISIC_2139752.JPG,ISIC_2139752.JPG,false,0,keypress(z),500,368893.59999999404,368893.39999999106,364777.66,364779.799999997,364794.326,368910.828,8,400,42,,ISIC_2772616.JPG
break,html.Screen,4_41_1,2023-09-16T01:16:13.152Z,,0,,,NaN,,,,,,false,,,,368894.09999999404,368893.89999999106,,368893.799999997,,368910.828,8,400,,,
break_continue,html.Screen,4_41_2,2023-09-16T01:16:13.152Z,,0,,,NaN,,,,,,false,,,,368894.1999999881,368894.1999999881,,368894.09999999404,,368910.828,8,400,,,
sequence,flow.Sequence,4_41,2023-09-16T01:16:13.152Z,,0,,,4099.873999988078,completion,,,,,false,,,,368894.299999997,368894.1999999881,364777.66,364779.6999999881,364794.326,368910.828,8,400,,,
trial,html.Screen,4_42_0,2023-09-16T01:16:18.725Z,,0,1,,5555.3719999881,response,ISIC_0033224.JPG,4,ISIC_5721677.JPG,ISIC_0033224.JPG,false,1,keypress(m),500,374466.5,374466.1999999881,368894.162,368894.39999999106,368910.828,374494.201,8,400,43,,ISIC_5721677.JPG
break,html.Screen,4_42_1,2023-09-16T01:16:18.726Z,,0,,,NaN,,,,,,false,,,,374467.59999999404,374467.299999997,,374466.89999999106,,374494.201,8,400,,,
break_continue,html.Screen,4_42_2,2023-09-16T01:16:18.726Z,,0,,,NaN,,,,,,false,,,,374468,374467.89999999106,,374467.799999997,,374494.201,8,400,,,
sequence,flow.Sequence,4_42,2023-09-16T01:16:18.726Z,,0,,,5557.07199999108,completion,,,,,false,,,,374468.299999997,374467.89999999106,368894.162,368894.39999999106,368910.828,374494.201,8,400,,,
trial,html.Screen,4_43_0,2023-09-16T01:16:23.956Z,,0,1,,5203.498999988078,response,ISIC_0025955.JPG,6,ISIC_0753112.JPG,ISIC_0753112.JPG,false,0,keypress(z),500,379698.09999999404,379697.6999999881,374477.535,374468.5,374494.201,379710.659,8,400,44,,ISIC_0025955.JPG
break,html.Screen,4_43_1,2023-09-16T01:16:23.957Z,,0,,,NaN,,,,,,false,,,,379699,379698.6999999881,,379698.299999997,,379710.659,8,400,,,
break_continue,html.Screen,4_43_2,2023-09-16T01:16:23.958Z,,0,,,NaN,,,,,,false,,,,379699.5,379699.39999999106,,379699.1999999881,,379710.659,8,400,,,
sequence,flow.Sequence,4_43,2023-09-16T01:16:23.958Z,,0,,,5205.198999991058,completion,,,,,false,,,,379699.6999999881,379699.39999999106,374477.535,374468.5,374494.201,379710.659,8,400,,,
trial,html.Screen,4_44_0,2023-09-16T01:16:28.633Z,,0,1,,4663.140999997035,response,ISIC_0058315.JPG,7,ISIC_0011798.JPG,ISIC_0058315.JPG,false,1,keypress(m),500,384374.299999997,384373.799999997,379693.993,379700,379710.659,384394.067,8,400,45,,ISIC_0011798.JPG
break,html.Screen,4_44_1,2023-09-16T01:16:28.634Z,,0,,,NaN,,,,,,false,,,,384375.299999997,384375,,384374.5,,384394.067,8,400,,,
break_continue,html.Screen,4_44_2,2023-09-16T01:16:28.634Z,,0,,,NaN,,,,,,false,,,,384375.799999997,384375.59999999404,,384375.39999999106,,384394.067,8,400,,,
sequence,flow.Sequence,4_44,2023-09-16T01:16:28.634Z,,0,,,4664.940999994054,completion,,,,,false,,,,384376,384375.59999999404,379693.993,379699.89999999106,379710.659,384394.067,8,400,,,
trial,html.Screen,4_45_0,2023-09-16T01:16:33.073Z,,0,1,,4419.832999991078,response,ISIC_0011721.JPG,6,ISIC_3430311.JPG,ISIC_3430311.JPG,false,0,keypress(z),500,388814.299999997,388813.89999999106,384377.401,384376.1999999881,384394.067,388827.223,8,400,46,,ISIC_0011721.JPG
break,html.Screen,4_45_1,2023-09-16T01:16:33.074Z,,0,,,NaN,,,,,,false,,,,388815.299999997,388815.09999999404,,388814.6999999881,,388827.223,8,400,,,
break_continue,html.Screen,4_45_2,2023-09-16T01:16:33.074Z,,0,,,NaN,,,,,,false,,,,388815.799999997,388815.59999999404,,388815.39999999106,,388827.223,8,400,,,
sequence,flow.Sequence,4_45,2023-09-16T01:16:33.074Z,,0,,,4421.532999994059,completion,,,,,false,,,,388816,388815.59999999404,384377.401,384376.09999999404,384394.067,388827.223,8,400,,,
trial,html.Screen,4_46_0,2023-09-16T01:16:40.422Z,,0,1,,7336.076999997022,response,ISIC_3274493.JPG,6,ISIC_0027432.JPG,ISIC_0027432.JPG,false,0,keypress(z),500,396163.6999999881,396163.299999997,388810.557,388816.1999999881,388827.223,396177.192,8,400,47,,ISIC_3274493.JPG
break,html.Screen,4_46_1,2023-09-16T01:16:40.423Z,,0,,,NaN,,,,,,false,,,,396164.799999997,396164.59999999404,,396164.09999999404,,396177.192,8,400,,,
break_continue,html.Screen,4_46_2,2023-09-16T01:16:40.424Z,,0,,,NaN,,,,,,false,,,,396165.1999999881,396165.09999999404,,396165,,396177.192,8,400,,,
sequence,flow.Sequence,4_46,2023-09-16T01:16:40.424Z,,0,,,7337.876999994041,completion,,,,,false,,,,396165.5,396165.09999999404,388810.557,388816.09999999404,388827.223,396177.192,8,400,,,
trial,html.Screen,4_47_0,2023-09-16T01:16:45.024Z,,0,1,,4587.507999988098,response,ISIC_0830806.JPG,5,ISIC_4468148.JPG,ISIC_4468148.JPG,false,0,keypress(z),500,400765,400764.6999999881,396160.526,396165.6999999881,396177.192,400793.674,8,400,48,,ISIC_0830806.JPG
break,html.Screen,4_47_1,2023-09-16T01:16:45.025Z,,0,,,NaN,,,,,,false,,,,400765.799999997,400765.59999999404,,400765.1999999881,,400793.674,8,400,,,
break_continue,html.Screen,4_47_2,2023-09-16T01:16:45.025Z,,0,,,NaN,,,,,,false,,,,400766.1999999881,400766.09999999404,,400766,,400793.674,8,400,,,
sequence,flow.Sequence,4_47,2023-09-16T01:16:45.025Z,,0,,,4588.907999994059,completion,,,,,false,,,,400766.39999999106,400766.09999999404,396160.526,396165.59999999404,396177.192,400793.674,8,400,,,
trial,html.Screen,4_48_0,2023-09-16T01:16:52.644Z,,0,1,,7590.826000000001,response,ISIC_4544879.JPG,5,ISIC_9014786.JPG,ISIC_9014786.JPG,false,0,keypress(z),500,408384.6999999881,408384.5,400777.008,400766.59999999404,400793.674,408410.298,8,400,49,,ISIC_4544879.JPG
break,html.Screen,4_48_1,2023-09-16T01:16:52.645Z,,0,,,NaN,,,,,,false,,,,408385.799999997,408385.5,,408385.09999999404,,408410.298,8,400,,,
break_continue,html.Screen,4_48_2,2023-09-16T01:16:52.645Z,,0,,,NaN,,,,,,false,,,,408386.1999999881,408386.09999999404,,408386,,408410.298,8,400,,,
sequence,flow.Sequence,4_48,2023-09-16T01:16:52.645Z,,0,,,7592.4259999940405,completion,,,,,false,,,,408386.5,408386.09999999404,400777.008,400766.5,400793.674,408410.298,8,400,,,
trial,html.Screen,4_49_0,2023-09-16T01:16:57.464Z,,0,1,,4794.401999988069,response,ISIC_0059840.JPG,8,ISIC_8170849.JPG,ISIC_0059840.JPG,false,1,keypress(m),500,413205.09999999404,413204.6999999881,408393.632,408386.59999999404,408410.298,413227.035,8,400,50,,ISIC_8170849.JPG
break,html.Screen,4_49_1,2023-09-16T01:17:07.475Z,,0,,,9999.862000000023,timeout,,,,,false,,,,423216,423210.231,413210.369,413205.299999997,413227.035,423226.897,8,400,,,
break_continue,html.Screen,4_49_2,2023-09-16T01:17:16.513Z,,0,,,9011.502999991062,response,,,,,false,continue,keypress(Space),,432253,432238.39999999106,423210.231,423216.299999997,423226.897,432259.869,8,400,,,
sequence,flow.Sequence,4_49,2023-09-16T01:17:16.513Z,,0,,,23828.10199999105,completion,,,,,false,,,,432253.09999999404,432238.39999999106,408393.632,408386.59999999404,408410.298,432259.869,8,400,,,
trial,html.Screen,4_50_0,2023-09-16T01:17:22.638Z,,0,2,,6117.630999999994,response,ISIC_0056164.JPG,5,ISIC_5831880.JPG,ISIC_5831880.JPG,false,0,keypress(z),500,438377.89999999106,438377.5,432243.203,432253.1999999881,432259.869,438393.22,8,400,1,,ISIC_0056164.JPG
break,html.Screen,4_50_1,2023-09-16T01:17:22.639Z,,0,,,NaN,,,,,,false,,,,438378.89999999106,438378.59999999404,,438378.1999999881,,438393.22,8,400,,,
break_continue,html.Screen,4_50_2,2023-09-16T01:17:22.639Z,,0,,,NaN,,,,,,false,,,,438379.39999999106,438379.299999997,,438379.09999999404,,438393.22,8,400,,,
sequence,flow.Sequence,4_50,2023-09-16T01:17:22.639Z,,0,,,6119.430999997014,completion,,,,,false,,,,438379.6999999881,438379.299999997,432243.203,432253.1999999881,432259.869,438393.22,8,400,,,
trial,html.Screen,4_51_0,2023-09-16T01:17:27.799Z,,0,2,,5145.079999997048,response,ISIC_8414421.JPG,5,ISIC_5736979.JPG,ISIC_8414421.JPG,false,1,keypress(m),500,443538.59999999404,443538.299999997,438376.554,438379.799999997,438393.22,443559.942,8,400,2,,ISIC_5736979.JPG
break,html.Screen,4_51_1,2023-09-16T01:17:27.799Z,,0,,,NaN,,,,,,false,,,,443539.39999999106,443539.09999999404,,443538.799999997,,443559.942,8,400,,,
break_continue,html.Screen,4_51_2,2023-09-16T01:17:27.800Z,,0,,,NaN,,,,,,false,,,,443539.799999997,443539.6999999881,,443539.59999999404,,443559.942,8,400,,,
sequence,flow.Sequence,4_51,2023-09-16T01:17:27.800Z,,0,,,5146.479999988107,completion,,,,,false,,,,443540.09999999404,443539.6999999881,438376.554,438379.799999997,438393.22,443559.942,8,400,,,
trial,html.Screen,4_52_0,2023-09-16T01:17:34.106Z,,0,2,,6286.157999994059,response,ISIC_0350472.JPG,5,ISIC_0028220.JPG,ISIC_0028220.JPG,false,0,keypress(z),500,449846.1999999881,449846.09999999404,443543.276,443540.299999997,443559.942,449876.356,8,400,3,,ISIC_0350472.JPG
break,html.Screen,4_52_1,2023-09-16T01:17:34.107Z,,0,,,NaN,,,,,,false,,,,449846.6999999881,449846.59999999404,,449846.299999997,,449876.356,8,400,,,
break_continue,html.Screen,4_52_2,2023-09-16T01:17:34.107Z,,0,,,NaN,,,,,,false,,,,449847,449846.799999997,,449846.6999999881,,449876.356,8,400,,,
sequence,flow.Sequence,4_52,2023-09-16T01:17:34.107Z,,0,,,6286.857999997039,completion,,,,,false,,,,449847.09999999404,449846.799999997,443543.276,443540.1999999881,443559.942,449876.356,8,400,,,
trial,html.Screen,4_53_0,2023-09-16T01:17:40.925Z,,0,2,,6788.443999996991,response,ISIC_0028061.JPG,5,ISIC_0028248.JPG,ISIC_0028061.JPG,false,1,keypress(m),500,456664.89999999106,456664.799999997,449859.69,449847.1999999881,449876.356,456693.013,8,400,4,,ISIC_0028248.JPG
break,html.Screen,4_53_1,2023-09-16T01:17:40.926Z,,0,,,NaN,,,,,,false,,,,456665.39999999106,456665.299999997,,456665.09999999404,,456693.013,8,400,,,
break_continue,html.Screen,4_53_2,2023-09-16T01:17:40.926Z,,0,,,NaN,,,,,,false,,,,456665.59999999404,456665.59999999404,,456665.5,,456693.013,8,400,,,
sequence,flow.Sequence,4_53,2023-09-16T01:17:40.926Z,,0,,,6789.243999994011,completion,,,,,false,,,,456665.6999999881,456665.59999999404,449859.69,449847.09999999404,449876.356,456693.013,8,400,,,
trial,html.Screen,4_54_0,2023-09-16T01:17:45.774Z,,0,2,,4820.086999994062,response,ISIC_7208412.JPG,6,ISIC_0060700.JPG,ISIC_0060700.JPG,false,0,keypress(z),500,461513.299999997,461513.09999999404,456676.347,456665.799999997,456693.013,461542.819,8,400,5,,ISIC_7208412.JPG
break,html.Screen,4_54_1,2023-09-16T01:17:45.775Z,,0,,,NaN,,,,,,false,,,,461514.1999999881,461514,,461513.59999999404,,461542.819,8,400,,,
break_continue,html.Screen,4_54_2,2023-09-16T01:17:45.775Z,,0,,,NaN,,,,,,false,,,,461514.6999999881,461514.5,,461514.39999999106,,461542.819,8,400,,,
sequence,flow.Sequence,4_54,2023-09-16T01:17:45.775Z,,0,,,4821.487000000023,completion,,,,,false,,,,461515,461514.5,456676.347,456665.799999997,456693.013,461542.819,8,400,,,
trial,html.Screen,4_55_0,2023-09-16T01:17:50.738Z,,0,2,,4934.480999997002,response,ISIC_2482061.JPG,6,ISIC_0034104.JPG,ISIC_0034104.JPG,false,0,keypress(z),500,466477.59999999404,466477.299999997,461526.153,461515.1999999881,461542.819,466492.883,8,400,6,,ISIC_2482061.JPG
break,html.Screen,4_55_1,2023-09-16T01:17:50.739Z,,0,,,NaN,,,,,,false,,,,466478.5,466478.299999997,,466477.89999999106,,466492.883,8,400,,,
break_continue,html.Screen,4_55_2,2023-09-16T01:17:50.740Z,,0,,,NaN,,,,,,false,,,,466479,466478.89999999106,,466478.6999999881,,466492.883,8,400,,,
sequence,flow.Sequence,4_55,2023-09-16T01:17:50.740Z,,0,,,4936.080999991042,completion,,,,,false,,,,466479.1999999881,466478.89999999106,461526.153,461515.1999999881,461542.819,466492.883,8,400,,,
trial,html.Screen,4_56_0,2023-09-16T01:17:55.305Z,,0,2,,4551.016999991087,response,ISIC_0015631.JPG,5,ISIC_6646939.JPG,ISIC_0015631.JPG,false,1,keypress(m),500,471044.09999999404,471043.89999999106,466476.217,466479.39999999106,466492.883,471076.033,8,400,7,,ISIC_6646939.JPG
break,html.Screen,4_56_1,2023-09-16T01:17:55.306Z,,0,,,NaN,,,,,,false,,,,471045,471044.799999997,,471044.39999999106,,471076.033,8,400,,,
break_continue,html.Screen,4_56_2,2023-09-16T01:17:55.306Z,,0,,,NaN,,,,,,false,,,,471045.5,471045.39999999106,,471045.1999999881,,471076.033,8,400,,,
sequence,flow.Sequence,4_56,2023-09-16T01:17:55.306Z,,0,,,4552.516999991087,completion,,,,,false,,,,471045.6999999881,471045.39999999106,466476.217,466479.299999997,466492.883,471076.033,8,400,,,
trial,html.Screen,4_57_0,2023-09-16T01:18:00.239Z,,0,2,,4901.766999997024,response,ISIC_0058432.JPG,6,ISIC_0060719.JPG,ISIC_0058432.JPG,false,1,keypress(m),500,475978.1999999881,475977.799999997,471059.367,471045.799999997,471076.033,475992.766,8,400,8,,ISIC_0060719.JPG
break,html.Screen,4_57_1,2023-09-16T01:18:00.240Z,,0,,,NaN,,,,,,false,,,,475979,475978.799999997,,475978.39999999106,,475992.766,8,400,,,
break_continue,html.Screen,4_57_2,2023-09-16T01:18:00.240Z,,0,,,NaN,,,,,,false,,,,475979.59999999404,475979.5,,475979.299999997,,475992.766,8,400,,,
sequence,flow.Sequence,4_57,2023-09-16T01:18:00.241Z,,0,,,4903.467000000004,completion,,,,,false,,,,475979.799999997,475979.5,471059.367,471045.799999997,471076.033,475992.766,8,400,,,
trial,html.Screen,4_58_0,2023-09-16T01:18:07.351Z,,0,2,,7097.333999994036,response,ISIC_0010124.JPG,7,ISIC_0031649.JPG,ISIC_0031649.JPG,false,0,keypress(z),500,483090.5,483090.09999999404,475976.1,475980,475992.766,483109.41,8,400,9,,ISIC_0010124.JPG
break,html.Screen,4_58_1,2023-09-16T01:18:07.353Z,,0,,,NaN,,,,,,false,,,,483091.59999999404,483091.1999999881,,483090.89999999106,,483109.41,8,400,,,
break_continue,html.Screen,4_58_2,2023-09-16T01:18:07.353Z,,0,,,NaN,,,,,,false,,,,483092,483091.799999997,,483091.6999999881,,483109.41,8,400,,,
sequence,flow.Sequence,4_58,2023-09-16T01:18:07.353Z,,0,,,7099.0339999970165,completion,,,,,false,,,,483092.1999999881,483091.799999997,475976.1,475980,475992.766,483109.41,8,400,,,
trial,html.Screen,4_59_0,2023-09-16T01:18:13.500Z,,0,2,,6128.689999994065,response,ISIC_8671702.JPG,6,ISIC_0011628.JPG,ISIC_0011628.JPG,false,0,keypress(z),500,489238.299999997,489238.09999999404,483092.744,483092.39999999106,483109.41,489259.164,8,400,10,,ISIC_8671702.JPG
break,html.Screen,4_59_1,2023-09-16T01:18:13.500Z,,0,,,NaN,,,,,,false,,,,489239.299999997,489239.09999999404,,489238.6999999881,,489259.164,8,400,,,
break_continue,html.Screen,4_59_2,2023-09-16T01:18:13.501Z,,0,,,NaN,,,,,,false,,,,489239.799999997,489239.6999999881,,489239.5,,489259.164,8,400,,,
sequence,flow.Sequence,4_59,2023-09-16T01:18:13.501Z,,0,,,6130.289999988105,completion,,,,,false,,,,489240,489239.6999999881,483092.744,483092.299999997,483109.41,489259.164,8,400,,,
trial,html.Screen,4_60_0,2023-09-16T01:18:17.390Z,,0,2,,3869.5359999880893,response,ISIC_0034062.JPG,5,ISIC_0023811.JPG,ISIC_0034062.JPG,false,1,keypress(m),500,493129,493128.6999999881,489242.498,489240.1999999881,489259.164,493159.271,8,400,11,,ISIC_0023811.JPG
break,html.Screen,4_60_1,2023-09-16T01:18:17.391Z,,0,,,NaN,,,,,,false,,,,493129.799999997,493129.59999999404,,493129.1999999881,,493159.271,8,400,,,
break_continue,html.Screen,4_60_2,2023-09-16T01:18:17.392Z,,0,,,NaN,,,,,,false,,,,493130.299999997,493130.1999999881,,493129.89999999106,,493159.271,8,400,,,
sequence,flow.Sequence,4_60,2023-09-16T01:18:17.392Z,,0,,,3871.0359999880893,completion,,,,,false,,,,493130.5,493130.1999999881,489242.498,489240.1999999881,489259.164,493159.271,8,400,,,
trial,html.Screen,4_61_0,2023-09-16T01:18:22.627Z,,0,2,,5205.728999999992,response,ISIC_0010140.JPG,6,ISIC_6703027.JPG,ISIC_0010140.JPG,false,1,keypress(m),500,498365.299999997,498365,493142.605,493130.6999999881,493159.271,498392.395,8,400,12,,ISIC_6703027.JPG
break,html.Screen,4_61_1,2023-09-16T01:18:22.628Z,,0,,,NaN,,,,,,false,,,,498366.1999999881,498365.89999999106,,498365.59999999404,,498392.395,8,400,,,
break_continue,html.Screen,4_61_2,2023-09-16T01:18:22.628Z,,0,,,NaN,,,,,,false,,,,498366.6999999881,498366.5,,498366.39999999106,,498392.395,8,400,,,
sequence,flow.Sequence,4_61,2023-09-16T01:18:22.628Z,,0,,,5207.228999999992,completion,,,,,false,,,,498366.89999999106,498366.5,493142.605,493130.59999999404,493159.271,498392.395,8,400,,,
trial,html.Screen,4_62_0,2023-09-16T01:18:25.960Z,,0,2,,3305.3049999880604,response,ISIC_0001139.JPG,7,ISIC_3084322.JPG,ISIC_3084322.JPG,false,0,keypress(z),500,501698.09999999404,501697.6999999881,498375.729,498367.09999999404,498392.395,501725.595,8,400,13,,ISIC_0001139.JPG
break,html.Screen,4_62_1,2023-09-16T01:18:25.961Z,,0,,,NaN,,,,,,false,,,,501699.09999999404,501698.799999997,,501698.299999997,,501725.595,8,400,,,
break_continue,html.Screen,4_62_2,2023-09-16T01:18:25.961Z,,0,,,NaN,,,,,,false,,,,501699.5,501699.39999999106,,501699.1999999881,,501725.595,8,400,,,
sequence,flow.Sequence,4_62,2023-09-16T01:18:25.961Z,,0,,,3307.0049999910407,completion,,,,,false,,,,501699.799999997,501699.39999999106,498375.729,498367.09999999404,498392.395,501725.595,8,400,,,
trial,html.Screen,4_63_0,2023-09-16T01:18:31.437Z,,0,2,,5449.604999988107,response,ISIC_0011267.JPG,6,ISIC_7558912.JPG,ISIC_0011267.JPG,false,1,keypress(m),500,507175.5,507175.1999999881,501708.929,501699.89999999106,501725.595,507192.305,8,400,14,,ISIC_7558912.JPG
break,html.Screen,4_63_1,2023-09-16T01:18:31.438Z,,0,,,NaN,,,,,,false,,,,507176.5,507176.1999999881,,507175.89999999106,,507192.305,8,400,,,
break_continue,html.Screen,4_63_2,2023-09-16T01:18:31.439Z,,0,,,NaN,,,,,,false,,,,507177,507176.799999997,,507176.59999999404,,507192.305,8,400,,,
sequence,flow.Sequence,4_63,2023-09-16T01:18:31.439Z,,0,,,5451.204999997048,completion,,,,,false,,,,507177.1999999881,507176.799999997,501708.929,501699.799999997,501725.595,507192.305,8,400,,,
trial,html.Screen,4_64_0,2023-09-16T01:18:35.154Z,,0,2,,3699.5949999910663,response,ISIC_3575862.JPG,5,ISIC_3965872.JPG,ISIC_3965872.JPG,false,0,keypress(z),500,510892.1999999881,510891.89999999106,507175.639,507177.39999999106,507192.305,510908.823,8,400,15,,ISIC_3575862.JPG
break,html.Screen,4_64_1,2023-09-16T01:18:35.155Z,,0,,,NaN,,,,,,false,,,,510893.1999999881,510892.799999997,,510892.39999999106,,510908.823,8,400,,,
break_continue,html.Screen,4_64_2,2023-09-16T01:18:35.155Z,,0,,,NaN,,,,,,false,,,,510893.59999999404,510893.5,,510893.39999999106,,510908.823,8,400,,,
sequence,flow.Sequence,4_64,2023-09-16T01:18:35.155Z,,0,,,3701.195000000007,completion,,,,,false,,,,510893.799999997,510893.5,507175.639,507177.299999997,507192.305,510908.823,8,400,,,
trial,html.Screen,4_65_0,2023-09-16T01:18:39.336Z,,0,2,,4165.076999991084,response,ISIC_0015167.JPG,7,ISIC_9668514.JPG,ISIC_0015167.JPG,false,1,keypress(m),500,515074.1999999881,515073.89999999106,510892.157,510893.799999997,510908.823,515092.252,8,400,16,,ISIC_9668514.JPG
break,html.Screen,4_65_1,2023-09-16T01:18:39.337Z,,0,,,NaN,,,,,,false,,,,515075.09999999404,515074.89999999106,,515074.5,,515092.252,8,400,,,
break_continue,html.Screen,4_65_2,2023-09-16T01:18:39.337Z,,0,,,NaN,,,,,,false,,,,515075.6999999881,515075.5,,515075.299999997,,515092.252,8,400,,,
sequence,flow.Sequence,4_65,2023-09-16T01:18:39.338Z,,0,,,4166.677000000025,completion,,,,,false,,,,515075.799999997,515075.5,510892.157,510893.799999997,510908.823,515092.252,8,400,,,
trial,html.Screen,4_66_0,2023-09-16T01:18:44.238Z,,0,2,,4883.147999991081,response,ISIC_0011510.JPG,6,ISIC_0030211.JPG,ISIC_0030211.JPG,false,0,keypress(z),500,519975.6999999881,519975.39999999106,515075.586,515076.09999999404,515092.252,519992.056,8,400,17,,ISIC_0011510.JPG
break,html.Screen,4_66_1,2023-09-16T01:18:44.239Z,,0,,,NaN,,,,,,false,,,,519976.59999999404,519976.39999999106,,519975.89999999106,,519992.056,8,400,,,
break_continue,html.Screen,4_66_2,2023-09-16T01:18:44.239Z,,0,,,NaN,,,,,,false,,,,519977.09999999404,519977,,519976.799999997,,519992.056,8,400,,,
sequence,flow.Sequence,4_66,2023-09-16T01:18:44.239Z,,0,,,4884.748000000021,completion,,,,,false,,,,519977.299999997,519977,515075.586,515076,515092.252,519992.056,8,400,,,
trial,html.Screen,4_67_0,2023-09-16T01:18:48.371Z,,0,2,,4116.843999991077,response,ISIC_0952221.JPG,7,ISIC_0027764.JPG,ISIC_0027764.JPG,false,0,keypress(z),500,524109.1999999881,524108.89999999106,519975.39,519977.59999999404,519992.056,524125.486,8,400,18,,ISIC_0952221.JPG
break,html.Screen,4_67_1,2023-09-16T01:18:48.372Z,,0,,,NaN,,,,,,false,,,,524110.09999999404,524109.799999997,,524109.39999999106,,524125.486,8,400,,,
break_continue,html.Screen,4_67_2,2023-09-16T01:18:48.373Z,,0,,,NaN,,,,,,false,,,,524110.6999999881,524110.5,,524110.39999999106,,524125.486,8,400,,,
sequence,flow.Sequence,4_67,2023-09-16T01:18:48.373Z,,0,,,4118.444000000018,completion,,,,,false,,,,524110.89999999106,524110.5,519975.39,519977.59999999404,519992.056,524125.486,8,400,,,
trial,html.Screen,4_68_0,2023-09-16T01:18:52.775Z,,0,2,,4387.014000000025,response,ISIC_5952650.JPG,6,ISIC_0064683.JPG,ISIC_0064683.JPG,false,0,keypress(z),500,528512.8999999911,528512.5,524108.82,524111.1999999881,524125.486,528541.976,8,400,19,,ISIC_5952650.JPG
break,html.Screen,4_68_1,2023-09-16T01:18:52.776Z,,0,,,NaN,,,,,,false,,,,528513.6999999881,528513.3999999911,,528513.099999994,,528541.976,8,400,,,
break_continue,html.Screen,4_68_2,2023-09-16T01:18:52.776Z,,0,,,NaN,,,,,,false,,,,528514.1999999881,528514,,528513.8999999911,,528541.976,8,400,,,
sequence,flow.Sequence,4_68,2023-09-16T01:18:52.777Z,,0,,,4388.514000000025,completion,,,,,false,,,,528514.3999999911,528514,524108.82,524111.09999999404,524125.486,528541.976,8,400,,,
trial,html.Screen,4_69_0,2023-09-16T01:18:56.238Z,,0,2,,3432.923999991035,response,ISIC_9969263.JPG,5,ISIC_2927673.JPG,ISIC_9969263.JPG,false,1,keypress(m),500,531975.299999997,531974.8999999911,528525.31,528514.599999994,528541.976,531991.838,8,400,20,,ISIC_2927673.JPG
break,html.Screen,4_69_1,2023-09-16T01:18:56.239Z,,0,,,NaN,,,,,,false,,,,531976.1999999881,531976,,531975.599999994,,531991.838,8,400,,,
break_continue,html.Screen,4_69_2,2023-09-16T01:18:56.239Z,,0,,,NaN,,,,,,false,,,,531976.6999999881,531976.599999994,,531976.3999999911,,531991.838,8,400,,,
sequence,flow.Sequence,4_69,2023-09-16T01:18:56.239Z,,0,,,3434.6239999940153,completion,,,,,false,,,,531976.8999999911,531976.599999994,528525.31,528514.5,528541.976,531991.838,8,400,,,
trial,html.Screen,4_70_0,2023-09-16T01:19:00.757Z,,0,2,,4502.761999994051,response,ISIC_3673517.JPG,6,ISIC_9764024.JPG,ISIC_3673517.JPG,false,1,keypress(m),500,536494.8999999911,536494.599999994,531975.172,531977.1999999881,531991.838,536525.252,8,400,21,,ISIC_9764024.JPG
break,html.Screen,4_70_1,2023-09-16T01:19:00.758Z,,0,,,NaN,,,,,,false,,,,536495.799999997,536495.5,,536495.099999994,,536525.252,8,400,,,
break_continue,html.Screen,4_70_2,2023-09-16T01:19:00.759Z,,0,,,NaN,,,,,,false,,,,536496.299999997,536496.099999994,,536495.8999999911,,536525.252,8,400,,,
sequence,flow.Sequence,4_70,2023-09-16T01:19:00.759Z,,0,,,4504.261999994051,completion,,,,,false,,,,536496.5,536496.099999994,531975.172,531977.099999994,531991.838,536525.252,8,400,,,
trial,html.Screen,4_71_0,2023-09-16T01:19:07.017Z,,0,2,,6229.147999991081,response,ISIC_7545432.JPG,5,ISIC_0011493.JPG,ISIC_7545432.JPG,false,1,keypress(m),500,542754.6999999881,542754.3999999911,536508.586,536496.599999994,536525.252,542775.002,8,400,22,,ISIC_0011493.JPG
break,html.Screen,4_71_1,2023-09-16T01:19:07.018Z,,0,,,NaN,,,,,,false,,,,542755.599999994,542755.3999999911,,542755,,542775.002,8,400,,,
break_continue,html.Screen,4_71_2,2023-09-16T01:19:07.019Z,,0,,,NaN,,,,,,false,,,,542756,542755.8999999911,,542755.799999997,,542775.002,8,400,,,
sequence,flow.Sequence,4_71,2023-09-16T01:19:07.019Z,,0,,,6230.647999991081,completion,,,,,false,,,,542756.299999997,542755.8999999911,536508.586,536496.599999994,536525.252,542775.002,8,400,,,
trial,html.Screen,4_72_0,2023-09-16T01:19:13.007Z,,0,2,,5968.897999991081,response,ISIC_7562175.JPG,6,ISIC_0056771.JPG,ISIC_0056771.JPG,false,0,keypress(z),500,548744.299999997,548743.8999999911,542758.336,542756.5,542775.002,548758.359,8,400,23,,ISIC_7562175.JPG
break,html.Screen,4_72_1,2023-09-16T01:19:13.008Z,,0,,,NaN,,,,,,false,,,,548745.3999999911,548745,,548744.599999994,,548758.359,8,400,,,
break_continue,html.Screen,4_72_2,2023-09-16T01:19:13.009Z,,0,,,NaN,,,,,,false,,,,548745.8999999911,548745.599999994,,548745.5,,548758.359,8,400,,,
sequence,flow.Sequence,4_72,2023-09-16T01:19:13.009Z,,0,,,5970.597999994061,completion,,,,,false,,,,548746.099999994,548745.599999994,542758.336,542756.3999999911,542775.002,548758.359,8,400,,,
trial,html.Screen,4_73_0,2023-09-16T01:19:18.401Z,,0,2,,5379.540999991004,response,ISIC_0031472.JPG,7,ISIC_2430937.JPG,ISIC_0031472.JPG,false,1,keypress(m),500,554138.299999997,554137.8999999911,548741.693,548746.299999997,548758.359,554158.405,8,400,24,,ISIC_2430937.JPG
break,html.Screen,4_73_1,2023-09-16T01:19:18.402Z,,0,,,NaN,,,,,,false,,,,554139.1999999881,554138.8999999911,,554138.5,,554158.405,8,400,,,
break_continue,html.Screen,4_73_2,2023-09-16T01:19:18.403Z,,0,,,NaN,,,,,,false,,,,554139.6999999881,554139.5,,554139.299999997,,554158.405,8,400,,,
sequence,flow.Sequence,4_73,2023-09-16T01:19:18.403Z,,0,,,5381.140999999945,completion,,,,,false,,,,554139.8999999911,554139.5,548741.693,548746.1999999881,548758.359,554158.405,8,400,,,
trial,html.Screen,4_74_0,2023-09-16T01:19:24.325Z,,0,2,,5903.094999999972,response,ISIC_0067417.JPG,4,ISIC_0009940.JPG,ISIC_0067417.JPG,false,1,keypress(m),500,560061.8999999911,560061.5,554141.739,554140,554158.405,560074.835,8,400,25,,ISIC_0009940.JPG
break,html.Screen,4_74_1,2023-09-16T01:19:24.326Z,,0,,,NaN,,,,,,false,,,,560062.799999997,560062.5,,560062.099999994,,560074.835,8,400,,,
break_continue,html.Screen,4_74_2,2023-09-16T01:19:24.326Z,,0,,,NaN,,,,,,false,,,,560063.1999999881,560063,,560063,,560074.835,8,400,,,
sequence,flow.Sequence,4_74,2023-09-16T01:19:24.326Z,,0,,,5904.594999999972,completion,,,,,false,,,,560063.3999999911,560063,554141.739,554140,554158.405,560074.835,8,400,,,
trial,html.Screen,4_75_0,2023-09-16T01:19:29.338Z,,0,2,,5000.064999991097,response,ISIC_5167209.JPG,7,ISIC_2841488.JPG,ISIC_2841488.JPG,false,0,keypress(z),500,565075.1999999881,565074.8999999911,560058.169,560063.5,560074.835,565091.564,8,400,26,,ISIC_5167209.JPG
break,html.Screen,4_75_1,2023-09-16T01:19:29.339Z,,0,,,NaN,,,,,,false,,,,565076.1999999881,565075.8999999911,,565075.5,,565091.564,8,400,,,
break_continue,html.Screen,4_75_2,2023-09-16T01:19:29.340Z,,0,,,NaN,,,,,,false,,,,565076.6999999881,565076.599999994,,565076.299999997,,565091.564,8,400,,,
sequence,flow.Sequence,4_75,2023-09-16T01:19:29.340Z,,0,,,5001.764999994077,completion,,,,,false,,,,565076.8999999911,565076.599999994,560058.169,560063.5,560074.835,565091.564,8,400,,,
trial,html.Screen,4_76_0,2023-09-16T01:19:34.319Z,,0,2,,4963.735999997007,response,ISIC_8352392.JPG,6,ISIC_0028554.JPG,ISIC_0028554.JPG,false,0,keypress(z),500,570055.599999994,570055.299999997,565074.898,565077.099999994,565091.564,570074.698,8,400,27,,ISIC_8352392.JPG
break,html.Screen,4_76_1,2023-09-16T01:19:34.320Z,,0,,,NaN,,,,,,false,,,,570056.599999994,570056.3999999911,,570055.8999999911,,570074.698,8,400,,,
break_continue,html.Screen,4_76_2,2023-09-16T01:19:34.320Z,,0,,,NaN,,,,,,false,,,,570057.099999994,570057,,570056.6999999881,,570074.698,8,400,,,
sequence,flow.Sequence,4_76,2023-09-16T01:19:34.321Z,,0,,,4965.435999999987,completion,,,,,false,,,,570057.299999997,570057,565074.898,565077.099999994,565091.564,570074.698,8,400,,,
trial,html.Screen,4_77_0,2023-09-16T01:19:38.453Z,,0,2,,4114.601999997045,response,ISIC_0058418.JPG,5,ISIC_0073115.JPG,ISIC_0073115.JPG,false,0,keypress(z),500,574189.599999994,574189.299999997,570058.032,570057.3999999911,570074.698,574208.128,8,400,28,,ISIC_0058418.JPG
break,html.Screen,4_77_1,2023-09-16T01:19:38.454Z,,0,,,NaN,,,,,,false,,,,574190.6999999881,574190.3999999911,,574189.799999997,,574208.128,8,400,,,
break_continue,html.Screen,4_77_2,2023-09-16T01:19:38.455Z,,0,,,NaN,,,,,,false,,,,574191.1999999881,574191,,574190.799999997,,574208.128,8,400,,,
sequence,flow.Sequence,4_77,2023-09-16T01:19:38.455Z,,0,,,4116.302000000025,completion,,,,,false,,,,574191.299999997,574191,570058.032,570057.3999999911,570074.698,574208.128,8,400,,,
trial,html.Screen,4_78_0,2023-09-16T01:19:42.170Z,,0,2,,3698.1719999969937,response,ISIC_3654454.JPG,6,ISIC_0055251.JPG,ISIC_0055251.JPG,false,0,keypress(z),500,577906.599999994,577906.299999997,574191.462,574191.5,574208.128,577924.646,8,400,29,,ISIC_3654454.JPG
break,html.Screen,4_78_1,2023-09-16T01:19:42.171Z,,0,,,NaN,,,,,,false,,,,577907.5,577907.299999997,,577906.799999997,,577924.646,8,400,,,
break_continue,html.Screen,4_78_2,2023-09-16T01:19:42.172Z,,0,,,NaN,,,,,,false,,,,577908,577907.799999997,,577907.6999999881,,577924.646,8,400,,,
sequence,flow.Sequence,4_78,2023-09-16T01:19:42.172Z,,0,,,3699.6719999969937,completion,,,,,false,,,,577908.1999999881,577907.799999997,574191.462,574191.5,574208.128,577924.646,8,400,,,
trial,html.Screen,4_79_0,2023-09-16T01:19:45.343Z,,0,2,,3154.2539999911096,response,ISIC_0032400.JPG,6,ISIC_0056790.JPG,ISIC_0032400.JPG,false,1,keypress(m),500,581079.1999999881,581078.8999999911,577907.98,577908.299999997,577924.646,581107.852,8,400,30,,ISIC_0056790.JPG
break,html.Screen,4_79_1,2023-09-16T01:19:45.344Z,,0,,,NaN,,,,,,false,,,,581080,581079.8999999911,,581079.5,,581107.852,8,400,,,
break_continue,html.Screen,4_79_2,2023-09-16T01:19:45.344Z,,0,,,NaN,,,,,,false,,,,581080.599999994,581080.3999999911,,581080.1999999881,,581107.852,8,400,,,
sequence,flow.Sequence,4_79,2023-09-16T01:19:45.344Z,,0,,,3155.7539999911096,completion,,,,,false,,,,581080.799999997,581080.3999999911,577907.98,577908.299999997,577924.646,581107.852,8,400,,,
trial,html.Screen,4_80_0,2023-09-16T01:19:53.076Z,,0,2,,7704.148000000045,response,ISIC_5994286.JPG,6,ISIC_4814912.JPG,ISIC_5994286.JPG,false,1,keypress(m),500,588812.1999999881,588812,581091.186,581080.8999999911,581107.852,588841.139,8,400,31,,ISIC_4814912.JPG
break,html.Screen,4_80_1,2023-09-16T01:19:53.077Z,,0,,,NaN,,,,,,false,,,,588813.099999994,588812.8999999911,,588812.5,,588841.139,8,400,,,
break_continue,html.Screen,4_80_2,2023-09-16T01:19:53.077Z,,0,,,NaN,,,,,,false,,,,588813.599999994,588813.3999999911,,588813.1999999881,,588841.139,8,400,,,
sequence,flow.Sequence,4_80,2023-09-16T01:19:53.078Z,,0,,,7705.547999991104,completion,,,,,false,,,,588813.6999999881,588813.3999999911,581091.186,581080.8999999911,581107.852,588841.139,8,400,,,
trial,html.Screen,4_81_0,2023-09-16T01:19:58.443Z,,0,2,,5337.260999991093,response,ISIC_9027622.JPG,5,ISIC_3474609.JPG,ISIC_9027622.JPG,false,1,keypress(m),500,594178.799999997,594178.3999999911,588824.473,588814,588841.139,594191.187,8,400,32,,ISIC_3474609.JPG
break,html.Screen,4_81_1,2023-09-16T01:19:58.444Z,,0,,,NaN,,,,,,false,,,,594179.799999997,594179.5,,594179.1999999881,,594191.187,8,400,,,
break_continue,html.Screen,4_81_2,2023-09-16T01:19:58.444Z,,0,,,NaN,,,,,,false,,,,594180.299999997,594180.099999994,,594179.8999999911,,594191.187,8,400,,,
sequence,flow.Sequence,4_81,2023-09-16T01:19:58.445Z,,0,,,5338.960999994073,completion,,,,,false,,,,594180.5,594180.099999994,588824.473,588813.8999999911,588841.139,594191.187,8,400,,,
trial,html.Screen,4_82_0,2023-09-16T01:20:03.409Z,,0,2,,4953.012999988045,response,ISIC_0028584.JPG,6,ISIC_0031835.JPG,ISIC_0028584.JPG,false,1,keypress(m),500,599144.599999994,599144.1999999881,594174.521,594180.6999999881,594191.187,599157.655,8,400,33,,ISIC_0031835.JPG
break,html.Screen,4_82_1,2023-09-16T01:20:03.410Z,,0,,,NaN,,,,,,false,,,,599145.5,599145.1999999881,,599144.8999999911,,599157.655,8,400,,,
break_continue,html.Screen,4_82_2,2023-09-16T01:20:03.410Z,,0,,,NaN,,,,,,false,,,,599146,599145.799999997,,599145.599999994,,599157.655,8,400,,,
sequence,flow.Sequence,4_82,2023-09-16T01:20:03.410Z,,0,,,4954.612999996985,completion,,,,,false,,,,599146.1999999881,599145.799999997,594174.521,594180.599999994,594191.187,599157.655,8,400,,,
trial,html.Screen,4_83_0,2023-09-16T01:20:09.539Z,,0,2,,6116.844999999972,response,ISIC_0013636.JPG,5,ISIC_0000518.JPG,ISIC_0013636.JPG,false,1,keypress(m),500,605274.8999999911,605274.5,599140.989,599146.3999999911,599157.655,605291.006,8,400,34,,ISIC_0000518.JPG
break,html.Screen,4_83_1,2023-09-16T01:20:09.540Z,,0,,,NaN,,,,,,false,,,,605275.8999999911,605275.599999994,,605275.1999999881,,605291.006,8,400,,,
break_continue,html.Screen,4_83_2,2023-09-16T01:20:09.541Z,,0,,,NaN,,,,,,false,,,,605276.3999999911,605276.1999999881,,605276.099999994,,605291.006,8,400,,,
sequence,flow.Sequence,4_83,2023-09-16T01:20:09.541Z,,0,,,6118.544999988051,completion,,,,,false,,,,605276.599999994,605276.1999999881,599140.989,599146.299999997,599157.655,605291.006,8,400,,,
trial,html.Screen,4_84_0,2023-09-16T01:20:13.337Z,,0,2,,3780.7939999969676,response,ISIC_0027102.JPG,5,ISIC_6067430.JPG,ISIC_0027102.JPG,false,1,keypress(m),500,609072.099999994,609071.799999997,605274.34,605276.6999999881,605291.006,609090.854,8,400,35,,ISIC_6067430.JPG
break,html.Screen,4_84_1,2023-09-16T01:20:13.337Z,,0,,,NaN,,,,,,false,,,,609073.099999994,609072.799999997,,609072.299999997,,609090.854,8,400,,,
break_continue,html.Screen,4_84_2,2023-09-16T01:20:13.338Z,,0,,,NaN,,,,,,false,,,,609073.599999994,609073.3999999911,,609073.299999997,,609090.854,8,400,,,
sequence,flow.Sequence,4_84,2023-09-16T01:20:13.338Z,,0,,,3782.393999991007,completion,,,,,false,,,,609073.799999997,609073.3999999911,605274.34,605276.6999999881,605291.006,609090.854,8,400,,,
trial,html.Screen,4_85_0,2023-09-16T01:20:19.469Z,,0,2,,6113.64599999995,response,ISIC_1195689.JPG,5,ISIC_1342117.JPG,ISIC_1342117.JPG,false,0,keypress(z),500,615204.799999997,615204.5,609074.188,609073.8999999911,609090.854,615224.204,8,400,36,,ISIC_1195689.JPG
break,html.Screen,4_85_1,2023-09-16T01:20:19.470Z,,0,,,NaN,,,,,,false,,,,615205.799999997,615205.5,,615205,,615224.204,8,400,,,
break_continue,html.Screen,4_85_2,2023-09-16T01:20:19.471Z,,0,,,NaN,,,,,,false,,,,615206.299999997,615206.1999999881,,615206,,615224.204,8,400,,,
sequence,flow.Sequence,4_85,2023-09-16T01:20:19.471Z,,0,,,6115.345999988029,completion,,,,,false,,,,615206.5,615206.1999999881,609074.188,609073.8999999911,609090.854,615224.204,8,400,,,
trial,html.Screen,4_86_0,2023-09-16T01:20:26.284Z,,0,2,,6794.595999996993,response,ISIC_0063745.JPG,5,ISIC_0056466.JPG,ISIC_0056466.JPG,false,0,keypress(z),500,622019.1999999881,622018.799999997,615207.538,615206.6999999881,615224.204,622040.598,8,400,37,,ISIC_0063745.JPG
break,html.Screen,4_86_1,2023-09-16T01:20:26.285Z,,0,,,NaN,,,,,,false,,,,622020.1999999881,622019.8999999911,,622019.5,,622040.598,8,400,,,
break_continue,html.Screen,4_86_2,2023-09-16T01:20:26.285Z,,0,,,NaN,,,,,,false,,,,622020.599999994,622020.5,,622020.299999997,,622040.598,8,400,,,
sequence,flow.Sequence,4_86,2023-09-16T01:20:26.286Z,,0,,,6796.295999999973,completion,,,,,false,,,,622020.8999999911,622020.5,615207.538,615206.599999994,615224.204,622040.598,8,400,,,
trial,html.Screen,4_87_0,2023-09-16T01:20:30.283Z,,0,2,,3977.7019999970216,response,ISIC_0063425.JPG,6,ISIC_0073044.JPG,ISIC_0073044.JPG,false,0,keypress(z),500,626018.5,626018.299999997,622023.932,622021.099999994,622040.598,626040.701,8,400,38,,ISIC_0063425.JPG
break,html.Screen,4_87_1,2023-09-16T01:20:30.284Z,,0,,,NaN,,,,,,false,,,,626019.5,626019.1999999881,,626018.799999997,,626040.701,8,400,,,
break_continue,html.Screen,4_87_2,2023-09-16T01:20:30.285Z,,0,,,NaN,,,,,,false,,,,626019.8999999911,626019.799999997,,626019.6999999881,,626040.701,8,400,,,
sequence,flow.Sequence,4_87,2023-09-16T01:20:30.285Z,,0,,,3979.2019999970216,completion,,,,,false,,,,626020.1999999881,626019.799999997,622023.932,622021,622040.598,626040.701,8,400,,,
trial,html.Screen,4_88_0,2023-09-16T01:20:33.757Z,,0,2,,3450.498999988078,response,ISIC_0883408.JPG,5,ISIC_0028082.JPG,ISIC_0028082.JPG,false,0,keypress(z),500,629491.599999994,629491.1999999881,626024.035,626020.299999997,626040.701,629507.229,8,400,39,,ISIC_0883408.JPG
break,html.Screen,4_88_1,2023-09-16T01:20:33.757Z,,0,,,NaN,,,,,,false,,,,629492.5,629492.299999997,,629491.8999999911,,629507.229,8,400,,,
break_continue,html.Screen,4_88_2,2023-09-16T01:20:33.758Z,,0,,,NaN,,,,,,false,,,,629493,629492.799999997,,629492.6999999881,,629507.229,8,400,,,
sequence,flow.Sequence,4_88,2023-09-16T01:20:33.758Z,,0,,,3452.098999997019,completion,,,,,false,,,,629493.1999999881,629492.799999997,626024.035,626020.299999997,626040.701,629507.229,8,400,,,
trial,html.Screen,4_89_0,2023-09-16T01:20:37.905Z,,0,2,,4132.27099999995,response,ISIC_1496194.JPG,6,ISIC_0068259.JPG,ISIC_0068259.JPG,false,0,keypress(z),500,633639.8999999911,633639.5,629490.563,629493.5,629507.229,633657.325,8,400,40,,ISIC_1496194.JPG
break,html.Screen,4_89_1,2023-09-16T01:20:37.906Z,,0,,,NaN,,,,,,false,,,,633640.799999997,633640.599999994,,633640.1999999881,,633657.325,8,400,,,
break_continue,html.Screen,4_89_2,2023-09-16T01:20:37.906Z,,0,,,NaN,,,,,,false,,,,633641.299999997,633641.1999999881,,633641,,633657.325,8,400,,,
sequence,flow.Sequence,4_89,2023-09-16T01:20:37.907Z,,0,,,4133.970999988029,completion,,,,,false,,,,633641.5,633641.1999999881,629490.563,629493.3999999911,629507.229,633657.325,8,400,,,
trial,html.Screen,4_90_0,2023-09-16T01:20:41.829Z,,0,2,,3906.3749999881256,response,ISIC_8025644.JPG,5,ISIC_7035368.JPG,ISIC_7035368.JPG,false,0,keypress(z),500,637564.099999994,637563.6999999881,633640.659,633641.799999997,633657.325,637590.501,8,400,41,,ISIC_8025644.JPG
break,html.Screen,4_90_1,2023-09-16T01:20:41.830Z,,0,,,NaN,,,,,,false,,,,637565.1999999881,637564.799999997,,637564.3999999911,,637590.501,8,400,,,
break_continue,html.Screen,4_90_2,2023-09-16T01:20:41.831Z,,0,,,NaN,,,,,,false,,,,637565.6999999881,637565.599999994,,637565.3999999911,,637590.501,8,400,,,
sequence,flow.Sequence,4_90,2023-09-16T01:20:41.831Z,,0,,,3908.274999994086,completion,,,,,false,,,,637566,637565.599999994,633640.659,633641.599999994,633657.325,637590.501,8,400,,,
trial,html.Screen,4_91_0,2023-09-16T01:20:46.469Z,,0,2,,4612.9989999999525,response,ISIC_8292279.JPG,5,ISIC_0030995.JPG,ISIC_0030995.JPG,false,0,keypress(z),500,642203.599999994,642203.5,637573.835,637566.1999999881,637590.501,642223.649,8,400,42,,ISIC_8292279.JPG
break,html.Screen,4_91_1,2023-09-16T01:20:46.469Z,,0,,,NaN,,,,,,false,,,,642204,642203.8999999911,,642203.6999999881,,642223.649,8,400,,,
break_continue,html.Screen,4_91_2,2023-09-16T01:20:46.470Z,,0,,,NaN,,,,,,false,,,,642204.1999999881,642204.099999994,,642204.099999994,,642223.649,8,400,,,
sequence,flow.Sequence,4_91,2023-09-16T01:20:46.470Z,,0,,,4613.598999993992,completion,,,,,false,,,,642204.299999997,642204.099999994,637573.835,637566.1999999881,637590.501,642223.649,8,400,,,
trial,html.Screen,4_92_0,2023-09-16T01:20:53.848Z,,0,2,,7358.351000000024,response,ISIC_3791309.JPG,6,ISIC_0067695.JPG,ISIC_3791309.JPG,false,1,keypress(m),500,649582.299999997,649582,642206.983,642204.299999997,642223.649,649606.95,8,400,43,,ISIC_0067695.JPG
break,html.Screen,4_92_1,2023-09-16T01:20:53.849Z,,0,,,NaN,,,,,,false,,,,649583.1999999881,649582.8999999911,,649582.5,,649606.95,8,400,,,
break_continue,html.Screen,4_92_2,2023-09-16T01:20:53.849Z,,0,,,NaN,,,,,,false,,,,649583.599999994,649583.5,,649583.3999999911,,649606.95,8,400,,,
sequence,flow.Sequence,4_92,2023-09-16T01:20:53.849Z,,0,,,7359.851000000024,completion,,,,,false,,,,649583.8999999911,649583.5,642206.983,642204.299999997,642223.649,649606.95,8,400,,,
trial,html.Screen,4_93_0,2023-09-16T01:20:58.461Z,,0,2,,4587.649999994086,response,ISIC_0027596.JPG,6,ISIC_0057988.JPG,ISIC_0057988.JPG,false,0,keypress(z),500,654195,654194.599999994,649590.284,649584,649606.95,654207.028,8,400,44,,ISIC_0027596.JPG
break,html.Screen,4_93_1,2023-09-16T01:20:58.462Z,,0,,,NaN,,,,,,false,,,,654196,654195.6999999881,,654195.1999999881,,654207.028,8,400,,,
break_continue,html.Screen,4_93_2,2023-09-16T01:20:58.462Z,,0,,,NaN,,,,,,false,,,,654196.599999994,654196.299999997,,654196.1999999881,,654207.028,8,400,,,
sequence,flow.Sequence,4_93,2023-09-16T01:20:58.462Z,,0,,,4589.349999997066,completion,,,,,false,,,,654196.799999997,654196.299999997,649590.284,649584,649606.95,654207.028,8,400,,,
trial,html.Screen,4_94_0,2023-09-16T01:21:03.389Z,,0,2,,4916.07199999399,response,ISIC_0945844.JPG,7,ISIC_0781380.JPG,ISIC_0781380.JPG,false,0,keypress(z),500,659123.5,659123.099999994,654190.362,654196.8999999911,654207.028,659140.164,8,400,45,,ISIC_0945844.JPG
break,html.Screen,4_94_1,2023-09-16T01:21:03.390Z,,0,,,NaN,,,,,,false,,,,659124.3999999911,659124.099999994,,659123.6999999881,,659140.164,8,400,,,
break_continue,html.Screen,4_94_2,2023-09-16T01:21:03.391Z,,0,,,NaN,,,,,,false,,,,659124.8999999911,659124.6999999881,,659124.5,,659140.164,8,400,,,
sequence,flow.Sequence,4_94,2023-09-16T01:21:03.391Z,,0,,,4917.67199998803,completion,,,,,false,,,,659125,659124.6999999881,654190.362,654196.8999999911,654207.028,659140.164,8,400,,,
trial,html.Screen,4_95_0,2023-09-16T01:21:09.624Z,,0,2,,6217.73599999107,response,ISIC_2826618.JPG,5,ISIC_7904250.JPG,ISIC_7904250.JPG,false,0,keypress(z),500,665358.1999999881,665357.8999999911,659123.498,659125.1999999881,659140.164,665390.177,8,400,46,,ISIC_2826618.JPG
break,html.Screen,4_95_1,2023-09-16T01:21:09.625Z,,0,,,NaN,,,,,,false,,,,665359,665358.799999997,,665358.5,,665390.177,8,400,,,
break_continue,html.Screen,4_95_2,2023-09-16T01:21:09.625Z,,0,,,NaN,,,,,,false,,,,665359.5,665359.3999999911,,665359.1999999881,,665390.177,8,400,,,
sequence,flow.Sequence,4_95,2023-09-16T01:21:09.626Z,,0,,,6219.23599999107,completion,,,,,false,,,,665359.6999999881,665359.3999999911,659123.498,659125.1999999881,659140.164,665390.177,8,400,,,
trial,html.Screen,4_96_0,2023-09-16T01:21:14.381Z,,0,2,,4724.822999999975,response,ISIC_1490986.JPG,5,ISIC_3392433.JPG,ISIC_3392433.JPG,false,0,keypress(z),500,670115.299999997,670115,665373.511,665360.299999997,665390.177,670139.987,8,400,47,,ISIC_1490986.JPG
break,html.Screen,4_96_1,2023-09-16T01:21:14.382Z,,0,,,NaN,,,,,,false,,,,670116.299999997,670116,,670115.599999994,,670139.987,8,400,,,
break_continue,html.Screen,4_96_2,2023-09-16T01:21:14.383Z,,0,,,NaN,,,,,,false,,,,670116.6999999881,670116.599999994,,670116.3999999911,,670139.987,8,400,,,
sequence,flow.Sequence,4_96,2023-09-16T01:21:14.383Z,,0,,,4726.422999994014,completion,,,,,false,,,,670117,670116.599999994,665373.511,665360.099999994,665390.177,670139.987,8,400,,,
trial,html.Screen,4_97_0,2023-09-16T01:21:18.771Z,,0,2,,4364.412999991095,response,ISIC_9445053.JPG,7,ISIC_0067318.JPG,ISIC_0067318.JPG,false,0,keypress(z),500,674504.799999997,674504.3999999911,670123.321,670117.1999999881,670139.987,674523.407,8,400,48,,ISIC_9445053.JPG
break,html.Screen,4_97_1,2023-09-16T01:21:18.772Z,,0,,,NaN,,,,,,false,,,,674505.799999997,674505.599999994,,674505.099999994,,674523.407,8,400,,,
break_continue,html.Screen,4_97_2,2023-09-16T01:21:18.772Z,,0,,,NaN,,,,,,false,,,,674506.299999997,674506.099999994,,674505.8999999911,,674523.407,8,400,,,
sequence,flow.Sequence,4_97,2023-09-16T01:21:18.773Z,,0,,,4366.112999994075,completion,,,,,false,,,,674506.5,674506.099999994,670123.321,670117.099999994,670139.987,674523.407,8,400,,,
trial,html.Screen,4_98_0,2023-09-16T01:21:23.638Z,,0,2,,4847.792999988073,response,ISIC_2119925.JPG,6,ISIC_0034183.JPG,ISIC_0034183.JPG,false,0,keypress(z),500,679371.5,679371.1999999881,674506.741,674506.6999999881,674523.407,679389.879,8,400,49,,ISIC_2119925.JPG
break,html.Screen,4_98_1,2023-09-16T01:21:23.639Z,,0,,,NaN,,,,,,false,,,,679372.799999997,679372.5,,679371.8999999911,,679389.879,8,400,,,
break_continue,html.Screen,4_98_2,2023-09-16T01:21:23.640Z,,0,,,NaN,,,,,,false,,,,679373.299999997,679373.1999999881,,679373.099999994,,679389.879,8,400,,,
sequence,flow.Sequence,4_98,2023-09-16T01:21:23.640Z,,0,,,4849.792999988073,completion,,,,,false,,,,679373.5,679373.1999999881,674506.741,674506.599999994,674523.407,679389.879,8,400,,,
trial,html.Screen,4_99_0,2023-09-16T01:21:28.422Z,,0,2,,4765.121000000043,response,ISIC_0028472.JPG,6,ISIC_0068447.JPG,ISIC_0028472.JPG,false,1,keypress(m),500,684155.3999999911,684155,679373.213,679373.799999997,679389.879,684173.284,8,400,50,,ISIC_0068447.JPG
break,html.Screen,4_99_1,2023-09-16T01:21:38.424Z,,0,,,9999.861999999965,timeout,,,,,false,,,,694157.3999999911,694156.48,684156.618,684155.6999999881,684173.284,694173.146,8,400,,,
break_continue,html.Screen,4_99_2,2023-09-16T01:21:53.787Z,,0,,,15327.45399999409,response,,,,,false,continue,keypress(Space),,709519.6999999881,709500.599999994,694156.48,694157.599999994,694173.146,709522.794,8,400,,,
sequence,flow.Sequence,4_99,2023-09-16T01:21:53.787Z,,0,,,30110.720999994082,completion,,,,,false,,,,709519.799999997,709500.599999994,679373.213,679373.6999999881,679389.879,709522.794,8,400,,,
trial,html.Screen,4_100_0,2023-09-16T01:22:01.121Z,,0,3,,7330.706000000006,response,ISIC_0010466.JPG,5,ISIC_7528996.JPG,ISIC_7528996.JPG,false,0,keypress(z),500,716854,716853.5,709506.128,709520,709522.794,716872.763,8,400,1,,ISIC_0010466.JPG
break,html.Screen,4_100_1,2023-09-16T01:22:01.122Z,,0,,,NaN,,,,,,false,,,,716855,716854.6999999881,,716854.299999997,,716872.763,8,400,,,
break_continue,html.Screen,4_100_2,2023-09-16T01:22:01.123Z,,0,,,NaN,,,,,,false,,,,716855.5,716855.299999997,,716855.099999994,,716872.763,8,400,,,
sequence,flow.Sequence,4_100,2023-09-16T01:22:01.123Z,,0,,,7332.505999997025,completion,,,,,false,,,,716855.6999999881,716855.299999997,709506.128,709520,709522.794,716872.763,8,400,,,
trial,html.Screen,4_101_0,2023-09-16T01:22:05.367Z,,0,3,,4226.736999999965,response,ISIC_8001757.JPG,6,ISIC_7959386.JPG,ISIC_7959386.JPG,false,0,keypress(z),500,721099.8999999911,721099.5,716856.097,716855.8999999911,716872.763,721122.593,8,400,2,,ISIC_8001757.JPG
break,html.Screen,4_101_1,2023-09-16T01:22:05.368Z,,0,,,NaN,,,,,,false,,,,721100.799999997,721100.599999994,,721100.1999999881,,721122.593,8,400,,,
break_continue,html.Screen,4_101_2,2023-09-16T01:22:05.369Z,,0,,,NaN,,,,,,false,,,,721101.299999997,721101.1999999881,,721101,,721122.593,8,400,,,
sequence,flow.Sequence,4_101,2023-09-16T01:22:05.369Z,,0,,,4228.436999988044,completion,,,,,false,,,,721101.5,721101.1999999881,716856.097,716855.8999999911,716872.763,721122.593,8,400,,,
trial,html.Screen,4_102_0,2023-09-16T01:22:10.043Z,,0,3,,4652.506999994046,response,ISIC_1185006.JPG,8,ISIC_3159924.JPG,ISIC_1185006.JPG,false,1,keypress(m),500,725775.3999999911,725775.099999994,721105.927,721101.799999997,721122.593,725806.001,8,400,3,,ISIC_3159924.JPG
break,html.Screen,4_102_1,2023-09-16T01:22:10.044Z,,0,,,NaN,,,,,,false,,,,725776.1999999881,725776,,725775.599999994,,725806.001,8,400,,,
break_continue,html.Screen,4_102_2,2023-09-16T01:22:10.044Z,,0,,,NaN,,,,,,false,,,,725776.6999999881,725776.5,,725776.3999999911,,725806.001,8,400,,,
sequence,flow.Sequence,4_102,2023-09-16T01:22:10.044Z,,0,,,4653.9070000000065,completion,,,,,false,,,,725776.799999997,725776.5,721105.927,721101.6999999881,721122.593,725806.001,8,400,,,
trial,html.Screen,4_103_0,2023-09-16T01:22:15.071Z,,0,3,,4996.4989999999525,response,ISIC_0033318.JPG,6,ISIC_6831108.JPG,ISIC_6831108.JPG,false,0,keypress(z),500,730802.8999999911,730802.5,725789.335,725777.099999994,725806.001,730822.467,8,400,4,,ISIC_0033318.JPG
break,html.Screen,4_103_1,2023-09-16T01:22:15.071Z,,0,,,NaN,,,,,,false,,,,730803.6999999881,730803.599999994,,730803.099999994,,730822.467,8,400,,,
break_continue,html.Screen,4_103_2,2023-09-16T01:22:15.072Z,,0,,,NaN,,,,,,false,,,,730804.1999999881,730804.099999994,,730803.8999999911,,730822.467,8,400,,,
sequence,flow.Sequence,4_103,2023-09-16T01:22:15.072Z,,0,,,4998.098999993992,completion,,,,,false,,,,730804.5,730804.099999994,725789.335,725777,725806.001,730822.467,8,400,,,
trial,html.Screen,4_104_0,2023-09-16T01:22:19.379Z,,0,3,,4288.332999997074,response,ISIC_0027971.JPG,6,ISIC_1132966.JPG,ISIC_1132966.JPG,false,0,keypress(z),500,735111,735110.799999997,730805.801,730804.6999999881,730822.467,735139.224,8,400,5,,ISIC_0027971.JPG
break,html.Screen,4_104_1,2023-09-16T01:22:19.380Z,,0,,,NaN,,,,,,false,,,,735111.8999999911,735111.6999999881,,735111.3999999911,,735139.224,8,400,,,
break_continue,html.Screen,4_104_2,2023-09-16T01:22:19.380Z,,0,,,NaN,,,,,,false,,,,735112.3999999911,735112.1999999881,,735112.099999994,,735139.224,8,400,,,
sequence,flow.Sequence,4_104,2023-09-16T01:22:19.380Z,,0,,,4289.732999988133,completion,,,,,false,,,,735112.6999999881,735112.1999999881,730805.801,730804.5,730822.467,735139.224,8,400,,,
trial,html.Screen,4_105_0,2023-09-16T01:22:24.478Z,,0,3,,5070.675999991014,response,ISIC_0033083.JPG,8,ISIC_0013740.JPG,ISIC_0013740.JPG,false,0,keypress(z),500,740210.1999999881,740209.8999999911,735122.558,735112.799999997,735139.224,740239.02,8,400,6,,ISIC_0033083.JPG
break,html.Screen,4_105_1,2023-09-16T01:22:24.479Z,,0,,,NaN,,,,,,false,,,,740211.299999997,740211,,740210.3999999911,,740239.02,8,400,,,
break_continue,html.Screen,4_105_2,2023-09-16T01:22:24.480Z,,0,,,NaN,,,,,,false,,,,740211.799999997,740211.599999994,,740211.5,,740239.02,8,400,,,
sequence,flow.Sequence,4_105,2023-09-16T01:22:24.480Z,,0,,,5072.375999993994,completion,,,,,false,,,,740212.099999994,740211.599999994,735122.558,735112.6999999881,735139.224,740239.02,8,400,,,
trial,html.Screen,4_106_0,2023-09-16T01:22:31.205Z,,0,3,,6697.279999997001,response,ISIC_9142818.JPG,5,ISIC_0029993.JPG,ISIC_9142818.JPG,false,1,keypress(m),500,746936.599999994,746936.299999997,740222.354,740212.1999999881,740239.02,746955.68,8,400,7,,ISIC_0029993.JPG
break,html.Screen,4_106_1,2023-09-16T01:22:31.206Z,,0,,,NaN,,,,,,false,,,,746937.599999994,746937.299999997,,746936.8999999911,,746955.68,8,400,,,
break_continue,html.Screen,4_106_2,2023-09-16T01:22:31.206Z,,0,,,NaN,,,,,,false,,,,746938.099999994,746937.8999999911,,746937.799999997,,746955.68,8,400,,,
sequence,flow.Sequence,4_106,2023-09-16T01:22:31.206Z,,0,,,6698.879999991041,completion,,,,,false,,,,746938.299999997,746937.8999999911,740222.354,740212.1999999881,740239.02,746955.68,8,400,,,
trial,html.Screen,4_107_0,2023-09-16T01:22:35.093Z,,0,3,,3869.1199999969685,response,ISIC_6239663.JPG,6,ISIC_0013688.JPG,ISIC_0013688.JPG,false,0,keypress(z),500,750825.099999994,750824.799999997,746939.014,746938.3999999911,746955.68,750855.524,8,400,8,,ISIC_6239663.JPG
break,html.Screen,4_107_1,2023-09-16T01:22:35.094Z,,0,,,NaN,,,,,,false,,,,750825.8999999911,750825.6999999881,,750825.299999997,,750855.524,8,400,,,
break_continue,html.Screen,4_107_2,2023-09-16T01:22:35.095Z,,0,,,NaN,,,,,,false,,,,750826.3999999911,750826.1999999881,,750826,,750855.524,8,400,,,
sequence,flow.Sequence,4_107,2023-09-16T01:22:35.095Z,,0,,,3870.519999988028,completion,,,,,false,,,,750826.6999999881,750826.1999999881,746939.014,746938.3999999911,746955.68,750855.524,8,400,,,
trial,html.Screen,4_108_0,2023-09-16T01:22:40.443Z,,0,3,,5318.775999997044,response,ISIC_1102391.JPG,6,ISIC_4580926.JPG,ISIC_4580926.JPG,false,0,keypress(z),500,756174.5,756174.299999997,750838.858,750826.799999997,750855.524,756188.907,8,400,9,,ISIC_1102391.JPG
break,html.Screen,4_108_1,2023-09-16T01:22:40.444Z,,0,,,NaN,,,,,,false,,,,756175.3999999911,756175.299999997,,756174.8999999911,,756188.907,8,400,,,
break_continue,html.Screen,4_108_2,2023-09-16T01:22:40.444Z,,0,,,NaN,,,,,,false,,,,756175.799999997,756175.6999999881,,756175.599999994,,756188.907,8,400,,,
sequence,flow.Sequence,4_108,2023-09-16T01:22:40.444Z,,0,,,5320.175999988103,completion,,,,,false,,,,756176,756175.6999999881,750838.858,750826.6999999881,750855.524,756188.907,8,400,,,
trial,html.Screen,4_109_0,2023-09-16T01:22:44.994Z,,0,3,,4535.792999988073,response,ISIC_0057759.JPG,6,ISIC_3009877.JPG,ISIC_0057759.JPG,false,1,keypress(m),500,760725.099999994,760724.6999999881,756172.241,756176.1999999881,756188.907,760738.725,8,400,10,,ISIC_3009877.JPG
break,html.Screen,4_109_1,2023-09-16T01:22:44.995Z,,0,,,NaN,,,,,,false,,,,760726.099999994,760725.6999999881,,760725.299999997,,760738.725,8,400,,,
break_continue,html.Screen,4_109_2,2023-09-16T01:22:44.995Z,,0,,,NaN,,,,,,false,,,,760726.5,760726.3999999911,,760726.1999999881,,760738.725,8,400,,,
sequence,flow.Sequence,4_109,2023-09-16T01:22:44.995Z,,0,,,4537.492999991053,completion,,,,,false,,,,760726.6999999881,760726.3999999911,756172.241,756176.1999999881,756188.907,760738.725,8,400,,,
trial,html.Screen,4_110_0,2023-09-16T01:22:49.399Z,,0,3,,4391.674999991083,response,ISIC_0031417.JPG,5,ISIC_2833213.JPG,ISIC_2833213.JPG,false,0,keypress(z),500,765130.599999994,765130.3999999911,760722.059,760727.099999994,760738.725,765155.477,8,400,11,,ISIC_0031417.JPG
break,html.Screen,4_110_1,2023-09-16T01:22:49.400Z,,0,,,NaN,,,,,,false,,,,765131.6999999881,765131.3999999911,,765130.8999999911,,765155.477,8,400,,,
break_continue,html.Screen,4_110_2,2023-09-16T01:22:49.401Z,,0,,,NaN,,,,,,false,,,,765132.1999999881,765132,,765131.8999999911,,765155.477,8,400,,,
sequence,flow.Sequence,4_110,2023-09-16T01:22:49.401Z,,0,,,4393.275000000023,completion,,,,,false,,,,765132.3999999911,765132,760722.059,760727,760738.725,765155.477,8,400,,,
trial,html.Screen,4_111_0,2023-09-16T01:22:55.979Z,,0,3,,6554.422999991104,response,ISIC_4819371.JPG,5,ISIC_9257356.JPG,ISIC_4819371.JPG,false,1,keypress(m),500,771710.299999997,771709.8999999911,765138.811,765132.599999994,765155.477,771738.547,8,400,12,,ISIC_9257356.JPG
break,html.Screen,4_111_1,2023-09-16T01:22:55.980Z,,0,,,NaN,,,,,,false,,,,771711.099999994,771710.799999997,,771710.5,,771738.547,8,400,,,
break_continue,html.Screen,4_111_2,2023-09-16T01:22:55.980Z,,0,,,NaN,,,,,,false,,,,771711.5,771711.299999997,,771711.1999999881,,771738.547,8,400,,,
sequence,flow.Sequence,4_111,2023-09-16T01:22:55.981Z,,0,,,6555.8229999970645,completion,,,,,false,,,,771711.799999997,771711.299999997,765138.811,765132.5,765155.477,771738.547,8,400,,,
trial,html.Screen,4_112_0,2023-09-16T01:23:00.288Z,,0,3,,4280.152999988059,response,ISIC_0058607.JPG,5,ISIC_9152137.JPG,ISIC_0058607.JPG,false,1,keypress(m),500,776019.099999994,776018.6999999881,771721.881,771711.8999999911,771738.547,776038.638,8,400,13,,ISIC_9152137.JPG
break,html.Screen,4_112_1,2023-09-16T01:23:00.289Z,,0,,,NaN,,,,,,false,,,,776020,776019.799999997,,776019.3999999911,,776038.638,8,400,,,
break_continue,html.Screen,4_112_2,2023-09-16T01:23:00.289Z,,0,,,NaN,,,,,,false,,,,776020.5,776020.299999997,,776020.099999994,,776038.638,8,400,,,
sequence,flow.Sequence,4_112,2023-09-16T01:23:00.290Z,,0,,,4281.752999996999,completion,,,,,false,,,,776020.6999999881,776020.299999997,771721.881,771711.8999999911,771738.547,776038.638,8,400,,,
trial,html.Screen,4_113_0,2023-09-16T01:23:06.822Z,,0,3,,6514.361999999965,response,ISIC_0028239.JPG,5,ISIC_6828892.JPG,ISIC_0028239.JPG,false,1,keypress(m),500,782553.299999997,782553,776021.972,776020.8999999911,776038.638,782571.71,8,400,14,,ISIC_6828892.JPG
break,html.Screen,4_113_1,2023-09-16T01:23:06.823Z,,0,,,NaN,,,,,,false,,,,782554.299999997,782554.099999994,,782553.799999997,,782571.71,8,400,,,
break_continue,html.Screen,4_113_2,2023-09-16T01:23:06.824Z,,0,,,NaN,,,,,,false,,,,782554.799999997,782554.6999999881,,782554.5,,782571.71,8,400,,,
sequence,flow.Sequence,4_113,2023-09-16T01:23:06.824Z,,0,,,6516.061999988044,completion,,,,,false,,,,782555,782554.6999999881,776021.972,776020.6999999881,776038.638,782571.71,8,400,,,
trial,html.Screen,4_114_0,2023-09-16T01:23:12.496Z,,0,3,,5654.489999988116,response,ISIC_0027033.JPG,5,ISIC_8699796.JPG,ISIC_0027033.JPG,false,1,keypress(m),500,788226.599999994,788226.1999999881,782555.044,782555.1999999881,782571.71,788238.412,8,400,15,,ISIC_8699796.JPG
break,html.Screen,4_114_1,2023-09-16T01:23:12.497Z,,0,,,NaN,,,,,,false,,,,788227.5,788227.299999997,,788226.8999999911,,788238.412,8,400,,,
break_continue,html.Screen,4_114_2,2023-09-16T01:23:12.497Z,,0,,,NaN,,,,,,false,,,,788228.099999994,788227.8999999911,,788227.6999999881,,788238.412,8,400,,,
sequence,flow.Sequence,4_114,2023-09-16T01:23:12.498Z,,0,,,5656.189999991097,completion,,,,,false,,,,788228.299999997,788227.8999999911,782555.044,782555.099999994,782571.71,788238.412,8,400,,,
trial,html.Screen,4_115_0,2023-09-16T01:23:21.857Z,,0,3,,9348.687999994028,response,ISIC_0071826.JPG,6,ISIC_9322551.JPG,ISIC_0071826.JPG,false,1,keypress(m),500,797587.3999999911,797587.099999994,788221.746,788228.5,788238.412,797604.967,8,400,16,,ISIC_9322551.JPG
break,html.Screen,4_115_1,2023-09-16T01:23:21.858Z,,0,,,NaN,,,,,,false,,,,797588.299999997,797588,,797587.599999994,,797604.967,8,400,,,
break_continue,html.Screen,4_115_2,2023-09-16T01:23:21.859Z,,0,,,NaN,,,,,,false,,,,797589.099999994,797588.599999994,,797588.5,,797604.967,8,400,,,
sequence,flow.Sequence,4_115,2023-09-16T01:23:21.859Z,,0,,,9350.187999994028,completion,,,,,false,,,,797589.5,797588.599999994,788221.746,788228.3999999911,788238.412,797604.967,8,400,,,
trial,html.Screen,4_116_0,2023-09-16T01:23:25.446Z,,0,3,,3570.832999997074,response,ISIC_9694911.JPG,6,ISIC_0032638.JPG,ISIC_0032638.JPG,false,0,keypress(z),500,801176.099999994,801175.799999997,797588.301,797589.799999997,797604.967,801204.823,8,400,17,,ISIC_9694911.JPG
break,html.Screen,4_116_1,2023-09-16T01:23:25.447Z,,0,,,NaN,,,,,,false,,,,801176.8999999911,801176.6999999881,,801176.299999997,,801204.823,8,400,,,
break_continue,html.Screen,4_116_2,2023-09-16T01:23:25.447Z,,0,,,NaN,,,,,,false,,,,801177.299999997,801177.1999999881,,801177,,801204.823,8,400,,,
sequence,flow.Sequence,4_116,2023-09-16T01:23:25.447Z,,0,,,3572.232999988133,completion,,,,,false,,,,801177.5,801177.1999999881,797588.301,797589.599999994,797604.967,801204.823,8,400,,,
trial,html.Screen,4_117_0,2023-09-16T01:23:32.015Z,,0,3,,6540.076999991084,response,ISIC_2975580.JPG,6,ISIC_9076021.JPG,ISIC_2975580.JPG,false,1,keypress(m),500,807745.1999999881,807744.8999999911,801188.157,801177.6999999881,801204.823,807771.489,8,400,18,,ISIC_9076021.JPG
break,html.Screen,4_117_1,2023-09-16T01:23:32.016Z,,0,,,NaN,,,,,,false,,,,807746.1999999881,807745.8999999911,,807745.3999999911,,807771.489,8,400,,,
break_continue,html.Screen,4_117_2,2023-09-16T01:23:32.016Z,,0,,,NaN,,,,,,false,,,,807746.599999994,807746.5,,807746.299999997,,807771.489,8,400,,,
sequence,flow.Sequence,4_117,2023-09-16T01:23:32.017Z,,0,,,6541.677000000025,completion,,,,,false,,,,807746.799999997,807746.5,801188.157,801177.599999994,801204.823,807771.489,8,400,,,
trial,html.Screen,4_118_0,2023-09-16T01:23:37.494Z,,0,3,,5452.410999991116,response,ISIC_7319169.JPG,6,ISIC_3295750.JPG,ISIC_3295750.JPG,false,0,keypress(z),500,813224.1999999881,813223.8999999911,807754.823,807747,807771.489,813237.937,8,400,19,,ISIC_7319169.JPG
break,html.Screen,4_118_1,2023-09-16T01:23:37.495Z,,0,,,NaN,,,,,,false,,,,813225.1999999881,813225,,813224.5,,813237.937,8,400,,,
break_continue,html.Screen,4_118_2,2023-09-16T01:23:37.496Z,,0,,,NaN,,,,,,false,,,,813225.6999999881,813225.5,,813225.299999997,,813237.937,8,400,,,
sequence,flow.Sequence,4_118,2023-09-16T01:23:37.496Z,,0,,,5454.011000000057,completion,,,,,false,,,,813225.8999999911,813225.5,807754.823,807747,807771.489,813237.937,8,400,,,
trial,html.Screen,4_119_0,2023-09-16T01:23:44.444Z,,0,3,,6935.5629999999655,response,ISIC_3520750.JPG,6,ISIC_3209501.JPG,ISIC_3209501.JPG,false,0,keypress(z),500,820173.8999999911,820173.5,813221.271,813226.099999994,813237.937,820204.588,8,400,20,,ISIC_3520750.JPG
break,html.Screen,4_119_1,2023-09-16T01:23:44.445Z,,0,,,NaN,,,,,,false,,,,820174.799999997,820174.5,,820174.099999994,,820204.588,8,400,,,
break_continue,html.Screen,4_119_2,2023-09-16T01:23:44.445Z,,0,,,NaN,,,,,,false,,,,820175.1999999881,820175.099999994,,820174.8999999911,,820204.588,8,400,,,
sequence,flow.Sequence,4_119,2023-09-16T01:23:44.446Z,,0,,,6937.162999994005,completion,,,,,false,,,,820175.3999999911,820175.099999994,813221.271,813226,813237.937,820204.588,8,400,,,
trial,html.Screen,4_120_0,2023-09-16T01:23:50.946Z,,0,3,,6470.8119999910705,response,ISIC_3409824.JPG,6,ISIC_0007740.JPG,ISIC_0007740.JPG,false,0,keypress(z),500,826675.6999999881,826675.3999999911,820187.922,820175.599999994,820204.588,826704.59,8,400,21,,ISIC_3409824.JPG
break,html.Screen,4_120_1,2023-09-16T01:23:50.947Z,,0,,,NaN,,,,,,false,,,,826676.5,826676.3999999911,,826676,,826704.59,8,400,,,
break_continue,html.Screen,4_120_2,2023-09-16T01:23:50.947Z,,0,,,NaN,,,,,,false,,,,826677,826676.8999999911,,826676.6999999881,,826704.59,8,400,,,
sequence,flow.Sequence,4_120,2023-09-16T01:23:50.948Z,,0,,,6472.3119999910705,completion,,,,,false,,,,826677.1999999881,826676.8999999911,820187.922,820175.5,820204.588,826704.59,8,400,,,
trial,html.Screen,4_121_0,2023-09-16T01:23:54.711Z,,0,3,,3735.509999994072,response,ISIC_0070351.JPG,6,ISIC_5736624.JPG,ISIC_0070351.JPG,false,1,keypress(m),500,830440.299999997,830440.099999994,826687.924,826677.3999999911,826704.59,830471.106,8,400,22,,ISIC_5736624.JPG
break,html.Screen,4_121_1,2023-09-16T01:23:54.712Z,,0,,,NaN,,,,,,false,,,,830441.099999994,830440.8999999911,,830440.599999994,,830471.106,8,400,,,
break_continue,html.Screen,4_121_2,2023-09-16T01:23:54.712Z,,0,,,NaN,,,,,,false,,,,830441.599999994,830441.5,,830441.299999997,,830471.106,8,400,,,
sequence,flow.Sequence,4_121,2023-09-16T01:23:54.712Z,,0,,,3736.9100000000326,completion,,,,,false,,,,830441.8999999911,830441.5,826687.924,826677.3999999911,826704.59,830471.106,8,400,,,
trial,html.Screen,4_122_0,2023-09-16T01:24:01.693Z,,0,3,,6950.79399999103,response,ISIC_1910158.JPG,6,ISIC_9851899.JPG,ISIC_1910158.JPG,false,1,keypress(m),500,837422.299999997,837421.8999999911,830454.44,830442,830471.106,837437.757,8,400,23,,ISIC_9851899.JPG
break,html.Screen,4_122_1,2023-09-16T01:24:01.694Z,,0,,,NaN,,,,,,false,,,,837423.3999999911,837423.099999994,,837422.599999994,,837437.757,8,400,,,
break_continue,html.Screen,4_122_2,2023-09-16T01:24:01.695Z,,0,,,NaN,,,,,,false,,,,837423.8999999911,837423.6999999881,,837423.599999994,,837437.757,8,400,,,
sequence,flow.Sequence,4_122,2023-09-16T01:24:01.695Z,,0,,,6952.59399998805,completion,,,,,false,,,,837424.099999994,837423.6999999881,830454.44,830442,830471.106,837437.757,8,400,,,
trial,html.Screen,4_123_0,2023-09-16T01:24:09.545Z,,0,3,,7836.342999994056,response,ISIC_8561963.JPG,5,ISIC_0059855.JPG,ISIC_0059855.JPG,false,0,keypress(z),500,845274.5,845274.099999994,837421.091,837424.299999997,837437.757,845287.705,8,400,24,,ISIC_8561963.JPG
break,html.Screen,4_123_1,2023-09-16T01:24:09.546Z,,0,,,NaN,,,,,,false,,,,845275.5,845275.299999997,,845274.799999997,,845287.705,8,400,,,
break_continue,html.Screen,4_123_2,2023-09-16T01:24:09.547Z,,0,,,NaN,,,,,,false,,,,845276,845275.8999999911,,845275.6999999881,,845287.705,8,400,,,
sequence,flow.Sequence,4_123,2023-09-16T01:24:09.547Z,,0,,,7838.142999991076,completion,,,,,false,,,,845276.1999999881,845275.8999999911,837421.091,837424.1999999881,837437.757,845287.705,8,400,,,
trial,html.Screen,4_124_0,2023-09-16T01:24:13.680Z,,0,3,,4121.494999988121,response,ISIC_3397174.JPG,6,ISIC_0030469.JPG,ISIC_3397174.JPG,false,1,keypress(m),500,849409.5,849409.1999999881,845271.039,845276.3999999911,845287.705,849437.539,8,400,25,,ISIC_0030469.JPG
break,html.Screen,4_124_1,2023-09-16T01:24:13.681Z,,0,,,NaN,,,,,,false,,,,849410.3999999911,849410.099999994,,849409.6999999881,,849437.539,8,400,,,
break_continue,html.Screen,4_124_2,2023-09-16T01:24:13.682Z,,0,,,NaN,,,,,,false,,,,849410.8999999911,849410.799999997,,849410.599999994,,849437.539,8,400,,,
sequence,flow.Sequence,4_124,2023-09-16T01:24:13.682Z,,0,,,4123.094999997062,completion,,,,,false,,,,849411.1999999881,849410.799999997,845271.039,845276.3999999911,845287.705,849437.539,8,400,,,
trial,html.Screen,4_125_0,2023-09-16T01:24:19.895Z,,0,3,,6186.46100000001,response,ISIC_0055731.JPG,5,ISIC_0068837.JPG,ISIC_0068837.JPG,false,0,keypress(z),500,855624.299999997,855624,849420.873,849411.299999997,849437.539,855637.554,8,400,26,,ISIC_0055731.JPG
break,html.Screen,4_125_1,2023-09-16T01:24:19.897Z,,0,,,NaN,,,,,,false,,,,855625.5,855625.1999999881,,855624.8999999911,,855637.554,8,400,,,
break_continue,html.Screen,4_125_2,2023-09-16T01:24:19.897Z,,0,,,NaN,,,,,,false,,,,855626,855625.799999997,,855625.6999999881,,855637.554,8,400,,,
sequence,flow.Sequence,4_125,2023-09-16T01:24:19.897Z,,0,,,6188.26099999703,completion,,,,,false,,,,855626.1999999881,855625.799999997,849420.873,849411.1999999881,849437.539,855637.554,8,400,,,
trial,html.Screen,4_126_0,2023-09-16T01:24:26.140Z,,0,3,,6230.345999991056,response,ISIC_9222136.JPG,7,ISIC_0055140.JPG,ISIC_0055140.JPG,false,0,keypress(z),500,861868.1999999881,861867.8999999911,855620.888,855626.299999997,855637.554,861887.304,8,400,27,,ISIC_9222136.JPG
break,html.Screen,4_126_1,2023-09-16T01:24:26.140Z,,0,,,NaN,,,,,,false,,,,861869.1999999881,861868.8999999911,,861868.5,,861887.304,8,400,,,
