sender,sender_type,sender_id,timestamp,meta,,blockNo,condition,duration,ended_on,img_left,img_reveal,img_right,loser,practice,response,response_action,selection_duration,time_commit,time_end,time_render,time_run,time_show,time_switch,total_blocks,total_trials,trialNo,url,winner
informed_consent,html.Screen,0,2023-05-02T14:29:10.281Z,"{""labjs_version"":""20.2.4"",""labjs_build"":{""flavor"":""production"",""commit"":""f5b4a49f956347addd546a832a3327688c2c0fef""},""location"":""https://run.pavlovia.org/MurrayBennett/melanoma-2afc/?participant=65464"",""userAgent"":""Mozilla/5.0 (Windows NT 10.0; Win64; x64) AppleWebKit/537.36 (KHTML, like Gecko) Chrome/112.0.0.0 Safari/537.36"",""platform"":""Win32"",""language"":""en-US"",""locale"":""en-US"",""timeZone"":""America/Chicago"",""timezoneOffset"":300,""screen_width"":1536,""screen_height"":960,""scroll_width"":1536,""scroll_height"":704,""window_innerWidth"":1536,""window_innerHeight"":752,""devicePixelRatio"":1.25}",,,,3638.6520000715254,response,,,,,,consent,click button,,6746.600000023842,6739.300000071526,3084.019,3087.9000000953674,3100.648,6767.27,,,,"{""participant"":""65464""}",
Welcome,html.Screen,1,2023-05-02T14:29:22.305Z,,,,regular,12000.330000023841,response,,,,,,continue,click button,,18770.700000047684,18767.600000023842,6733.931,6746.800000071526,6767.27,18783.4,,,,,
trial,html.Screen,2_0_0,2023-05-02T14:29:30.643Z,,0,0,,8325.300000047682,response,ISIC_0061792.JPG,,ISIC_4679428.JPG,ISIC_4679428.JPG,true,0,keypress(z),500,27109,27108.700000047684,18767.762,18770.900000095367,18783.4,27116.351,1,6,1,,ISIC_0061792.JPG
sequence,flow.Sequence,2_0,2023-05-02T14:29:30.644Z,,0,,,8325.300000047682,completion,,,,,true,,,,27109.5,27108.700000047684,18767.762,18770.900000095367,18783.4,27116.351,1,6,,,
trial,html.Screen,2_1_0,2023-05-02T14:29:33.824Z,,0,0,,3173.1490000000013,response,ISIC_0776486.JPG,,ISIC_5199497.JPG,ISIC_0776486.JPG,true,1,keypress(m),500,30289.900000095367,30289.5,27099.338,27109.700000047684,27116.351,30299.131,1,6,2,,ISIC_5199497.JPG
sequence,flow.Sequence,2_1,2023-05-02T14:29:33.824Z,,0,,,3173.1490000000013,completion,,,,,true,,,,30290.200000047684,30289.5,27099.338,27109.600000023842,27116.351,30299.131,1,6,,,
trial,html.Screen,2_2_0,2023-05-02T14:29:36.720Z,,0,0,,2886.1690000715244,response,ISIC_2556187.JPG,,ISIC_8575776.JPG,ISIC_2556187.JPG,true,1,keypress(m),500,33185.700000047684,33185.300000071526,30282.9,30290.400000095367,30299.131,33198.908,1,6,3,,ISIC_8575776.JPG
sequence,flow.Sequence,2_2,2023-05-02T14:29:36.720Z,,0,,,2886.1690000715244,completion,,,,,true,,,,33186,33185.300000071526,30282.9,30290.300000071526,30299.131,33198.908,1,6,,,
trial,html.Screen,2_3_0,2023-05-02T14:29:39.668Z,,0,0,,2934.591999999997,response,ISIC_8141769.JPG,,ISIC_9238366.JPG,ISIC_8141769.JPG,true,1,keypress(m),500,36133.90000009537,36133.5,33182.241,33186.200000047684,33198.908,36148.757,1,6,4,,ISIC_9238366.JPG
sequence,flow.Sequence,2_3,2023-05-02T14:29:39.669Z,,0,,,2934.591999999997,completion,,,,,true,,,,36134.300000071526,36133.5,33182.241,33186.200000047684,33198.908,36148.757,1,6,,,
trial,html.Screen,2_4_0,2023-05-02T14:29:42.751Z,,0,0,,3067.743000000002,response,ISIC_8949026.JPG,,ISIC_9959593.JPG,ISIC_8949026.JPG,true,1,keypress(m),500,39217,39216.5,36132.548,36136.300000071526,36148.757,39231.993,1,6,5,,ISIC_9959593.JPG
sequence,flow.Sequence,2_4,2023-05-02T14:29:42.752Z,,0,,,3067.743000000002,completion,,,,,true,,,,39217.40000009537,39216.5,36132.548,36136.200000047684,36148.757,39231.993,1,6,,,
trial,html.Screen,2_5_0,2023-05-02T14:29:46.553Z,,0,0,,3786.1070000238396,response,ISIC_0010479.JPG,,ISIC_0460240.JPG,ISIC_0460240.JPG,true,0,keypress(z),500,43018.60000002384,43018.10000002384,39215.811,39217.700000047684,39231.993,43031.749,1,6,6,,ISIC_0010479.JPG
sequence,flow.Sequence,2_5,2023-05-02T14:29:46.554Z,,0,,,3786.1070000238396,completion,,,,,true,,,,43019.40000009537,43018.10000002384,39215.811,39217.60000002384,39231.993,43031.749,1,6,,,
loop,flow.Loop,2,2023-05-02T14:29:46.554Z,,,,,24234.70000002384,completion,,,,,true,,,,43019.700000047684,43018.10000002384,18767.762,18770.800000071526,18783.4,43031.749,1,6,,,
exp_instructions,html.Screen,3,2023-05-02T14:29:51.429Z,,,,,4861.551000071522,response,,,,,,continue,keypress(Space),,47894.5,47893.300000071526,43015.534,43019.90000009537,43031.749,47898.08,,,,,
trial,html.Screen,4_0_0,2023-05-02T14:29:54.959Z,,0,1,,3526.3200000953657,response,ISIC_1048913.JPG,,ISIC_0072422.JPG,ISIC_0072422.JPG,false,0,keypress(z),500,51424.800000071526,51424.40000009537,47881.651,47894.800000071526,47898.08,51431.229,8,400,1,,ISIC_1048913.JPG
break,html.Screen,4_0_1,2023-05-02T14:29:54.961Z,,0,,,NaN,,,,,,false,,,,51426.700000047684,51426.10000002384,,51425.10000002384,,51431.229,8,400,,,
break_continue,html.Screen,4_0_2,2023-05-02T14:29:54.962Z,,0,,,NaN,,,,,,false,,,,51427.700000047684,51427.40000009537,,51427,,51431.229,8,400,,,
sequence,flow.Sequence,4_0,2023-05-02T14:29:54.962Z,,0,,,3529.3200000953657,completion,,,,,false,,,,51428,51427.40000009537,47881.651,47894.800000071526,47898.08,51431.229,8,400,,,
trial,html.Screen,4_1_0,2023-05-02T14:29:57.540Z,,0,1,,2573.671000095368,response,ISIC_3392451.JPG,,ISIC_0000121.JPG,ISIC_3392451.JPG,false,1,keypress(m),500,54005.90000009537,54004.90000009537,51414.684,51428.200000047684,51431.229,54014.66,8,400,2,,ISIC_0000121.JPG
break,html.Screen,4_1_1,2023-05-02T14:29:57.543Z,,0,,,NaN,,,,,,false,,,,54008.60000002384,54008,,54006.200000047684,,54014.66,8,400,,,
break_continue,html.Screen,4_1_2,2023-05-02T14:29:57.544Z,,0,,,NaN,,,,,,false,,,,54009.40000009537,54009.200000047684,,54008.90000009537,,54014.66,8,400,,,
sequence,flow.Sequence,4_1,2023-05-02T14:29:57.544Z,,0,,,2577.9710000476844,completion,,,,,false,,,,54010.10000002384,54009.200000047684,51414.684,51428.10000002384,51431.229,54014.66,8,400,,,
trial,html.Screen,4_2_0,2023-05-02T14:30:00.563Z,,0,1,,3013.54000004768,response,ISIC_0054444.JPG,,ISIC_0065480.JPG,ISIC_0065480.JPG,false,0,keypress(z),500,57028.60000002384,57028.200000047684,53998.209,54010.5,54014.66,57030.994,8,400,3,,ISIC_0054444.JPG
break,html.Screen,4_2_1,2023-05-02T14:30:00.564Z,,0,,,NaN,,,,,,false,,,,57030.200000047684,57029.5,,57028.90000009537,,57030.994,8,400,,,
break_continue,html.Screen,4_2_2,2023-05-02T14:30:00.565Z,,0,,,NaN,,,,,,false,,,,57030.800000071526,57030.700000047684,,57030.40000009537,,57030.994,8,400,,,
sequence,flow.Sequence,4_2,2023-05-02T14:30:00.565Z,,0,,,3016.04000004768,completion,,,,,false,,,,57031.10000002384,57030.700000047684,53998.209,54010.5,54014.66,57030.994,8,400,,,
trial,html.Screen,4_3_0,2023-05-02T14:30:03.106Z,,0,1,,2539.806000071527,response,ISIC_0026426.JPG,,ISIC_8590883.JPG,ISIC_8590883.JPG,false,0,keypress(z),500,59571.200000047684,59570.800000071526,57014.882,57031.5,57030.994,59580.723,8,400,4,,ISIC_0026426.JPG
break,html.Screen,4_3_1,2023-05-02T14:30:03.107Z,,0,,,NaN,,,,,,false,,,,59572.700000047684,59572.10000002384,,59571.5,,59580.723,8,400,,,
break_continue,html.Screen,4_3_2,2023-05-02T14:30:03.108Z,,0,,,NaN,,,,,,false,,,,59573.200000047684,59573.10000002384,,59572.800000071526,,59580.723,8,400,,,
sequence,flow.Sequence,4_3,2023-05-02T14:30:03.108Z,,0,,,2542.106000023843,completion,,,,,false,,,,59573.40000009537,59573.10000002384,57014.882,57031.5,57030.994,59580.723,8,400,,,
trial,html.Screen,4_4_0,2023-05-02T14:30:05.723Z,,0,1,,2607.6770000953693,response,ISIC_2253931.JPG,,ISIC_6430210.JPG,ISIC_2253931.JPG,false,1,keypress(m),500,62188.700000047684,62188.40000009537,59564.322,59573.60000002384,59580.723,62197.301,8,400,5,,ISIC_6430210.JPG
break,html.Screen,4_4_1,2023-05-02T14:30:05.725Z,,0,,,NaN,,,,,,false,,,,62190.300000071526,62189.700000047684,,62189,,62197.301,8,400,,,
break_continue,html.Screen,4_4_2,2023-05-02T14:30:05.725Z,,0,,,NaN,,,,,,false,,,,62190.800000071526,62190.700000047684,,62190.5,,62197.301,8,400,,,
sequence,flow.Sequence,4_4,2023-05-02T14:30:05.725Z,,0,,,2609.9770000476856,completion,,,,,false,,,,62191.10000002384,62190.700000047684,59564.322,59573.5,59580.723,62197.301,8,400,,,
trial,html.Screen,4_5_0,2023-05-02T14:30:08.288Z,,0,1,,2556.3990000476842,response,ISIC_0059264.JPG,,ISIC_2379908.JPG,ISIC_2379908.JPG,false,0,keypress(z),500,64754,64753.700000047684,62180.573,62191.300000071526,62197.301,64763.851,8,400,6,,ISIC_0059264.JPG
break,html.Screen,4_5_1,2023-05-02T14:30:08.290Z,,0,,,NaN,,,,,,false,,,,64755.60000002384,64755,,64754.200000047684,,64763.851,8,400,,,
break_continue,html.Screen,4_5_2,2023-05-02T14:30:08.290Z,,0,,,NaN,,,,,,false,,,,64756.200000047684,64756,,64755.800000071526,,64763.851,8,400,,,
sequence,flow.Sequence,4_5,2023-05-02T14:30:08.291Z,,0,,,2558.6990000000005,completion,,,,,false,,,,64756.40000009537,64756,62180.573,62191.200000047684,62197.301,64763.851,8,400,,,
trial,html.Screen,4_6_0,2023-05-02T14:30:11.630Z,,0,1,,3331.049000095365,response,ISIC_0004686.JPG,,ISIC_0024258.JPG,ISIC_0004686.JPG,false,1,keypress(m),500,68095.20000004768,68094.90000009537,64747.777,64756.60000002384,64763.851,68097.002,8,400,7,,ISIC_0024258.JPG
break,html.Screen,4_6_1,2023-05-02T14:30:11.630Z,,0,,,NaN,,,,,,false,,,,68096.10000002384,68095.80000007153,,68095.30000007153,,68097.002,8,400,,,
break_continue,html.Screen,4_6_2,2023-05-02T14:30:11.631Z,,0,,,NaN,,,,,,false,,,,68096.40000009537,68096.40000009537,,68096.20000004768,,68097.002,8,400,,,
sequence,flow.Sequence,4_6,2023-05-02T14:30:11.631Z,,0,,,3332.549000095365,completion,,,,,false,,,,68096.5,68096.40000009537,64747.777,64756.5,64763.851,68097.002,8,400,,,
trial,html.Screen,4_7_0,2023-05-02T14:30:14.644Z,,0,1,,3012.6980000476906,response,ISIC_0028071.JPG,,ISIC_0027102.JPG,ISIC_0027102.JPG,false,0,keypress(z),500,71110,71109.70000004768,68080.35,68096.60000002384,68097.002,71113.497,8,400,8,,ISIC_0028071.JPG
break,html.Screen,4_7_1,2023-05-02T14:30:14.646Z,,0,,,NaN,,,,,,false,,,,71111.80000007153,71111.10000002384,,71110.30000007153,,71113.497,8,400,,,
break_continue,html.Screen,4_7_2,2023-05-02T14:30:14.647Z,,0,,,NaN,,,,,,false,,,,71112.5,71112.30000007153,,71112,,71113.497,8,400,,,
sequence,flow.Sequence,4_7,2023-05-02T14:30:14.647Z,,0,,,3015.2980000715324,completion,,,,,false,,,,71112.70000004768,71112.30000007153,68080.35,68096.60000002384,68097.002,71113.497,8,400,,,
trial,html.Screen,4_8_0,2023-05-02T14:30:17.503Z,,0,1,,2855.002999999997,response,ISIC_0062864.JPG,,ISIC_7545340.JPG,ISIC_0062864.JPG,false,1,keypress(m),500,73968.90000009537,73968.5,71097.282,71112.80000007153,71113.497,73980.195,8,400,9,,ISIC_7545340.JPG
break,html.Screen,4_8_1,2023-05-02T14:30:17.505Z,,0,,,NaN,,,,,,false,,,,73970.70000004768,73970.20000004768,,73969.10000002384,,73980.195,8,400,,,
break_continue,html.Screen,4_8_2,2023-05-02T14:30:17.506Z,,0,,,NaN,,,,,,false,,,,73971.40000009537,73971.20000004768,,73970.90000009537,,73980.195,8,400,,,
sequence,flow.Sequence,4_8,2023-05-02T14:30:17.506Z,,0,,,2857.7030000476807,completion,,,,,false,,,,73971.5,73971.20000004768,71097.282,71112.70000004768,71113.497,73980.195,8,400,,,
trial,html.Screen,4_9_0,2023-05-02T14:30:20.090Z,,0,1,,2575.1050000715186,response,ISIC_4183816.JPG,,ISIC_0030653.JPG,ISIC_4183816.JPG,false,1,keypress(m),500,76555.5,76555.30000007153,73964.084,73971.70000004768,73980.195,76563.152,8,400,10,,ISIC_0030653.JPG
break,html.Screen,4_9_1,2023-05-02T14:30:20.091Z,,0,,,NaN,,,,,,false,,,,76556.90000009537,76556.5,,76555.80000007153,,76563.152,8,400,,,
break_continue,html.Screen,4_9_2,2023-05-02T14:30:20.092Z,,0,,,NaN,,,,,,false,,,,76557.30000007153,76557.20000004768,,76557,,76563.152,8,400,,,
sequence,flow.Sequence,4_9,2023-05-02T14:30:20.092Z,,0,,,2577.0050000476767,completion,,,,,false,,,,76557.40000009537,76557.20000004768,73964.084,73971.70000004768,73980.195,76563.152,8,400,,,
trial,html.Screen,4_10_0,2023-05-02T14:30:22.812Z,,0,1,,2714.548000047682,response,ISIC_5548914.JPG,,ISIC_0060486.JPG,ISIC_5548914.JPG,false,1,keypress(m),500,79278.10000002384,79277.70000004768,76547.067,76557.5,76563.152,79309.722,8,400,11,,ISIC_0060486.JPG
break,html.Screen,4_10_1,2023-05-02T14:30:22.815Z,,0,,,NaN,,,,,,false,,,,79280.70000004768,79279.5,,79278.40000009537,,79309.722,8,400,,,
break_continue,html.Screen,4_10_2,2023-05-02T14:30:22.816Z,,0,,,NaN,,,,,,false,,,,79281.80000007153,79281.5,,79280.90000009537,,79309.722,8,400,,,
sequence,flow.Sequence,4_10,2023-05-02T14:30:22.816Z,,0,,,2718.347999999998,completion,,,,,false,,,,79282,79281.5,76547.067,76557.40000009537,76563.152,79309.722,8,400,,,
trial,html.Screen,4_11_0,2023-05-02T14:30:25.613Z,,0,1,,2768.8780000238476,response,ISIC_0071050.JPG,,ISIC_2298440.JPG,ISIC_0071050.JPG,false,1,keypress(m),500,82079,82078.60000002384,79263.546,79282.20000004768,79309.722,82096.502,8,400,12,,ISIC_2298440.JPG
break,html.Screen,4_11_1,2023-05-02T14:30:25.615Z,,0,,,NaN,,,,,,false,,,,82081,82080.5,,82079.30000007153,,82096.502,8,400,,,
break_continue,html.Screen,4_11_2,2023-05-02T14:30:25.616Z,,0,,,NaN,,,,,,false,,,,82081.80000007153,82081.60000002384,,82081.30000007153,,82096.502,8,400,,,
sequence,flow.Sequence,4_11,2023-05-02T14:30:25.616Z,,0,,,2771.8780000238476,completion,,,,,false,,,,82081.90000009537,82081.60000002384,79263.546,79282.10000002384,79309.722,82096.502,8,400,,,
trial,html.Screen,4_12_0,2023-05-02T14:30:28.494Z,,0,1,,2862.7980000715324,response,ISIC_0013762.JPG,,ISIC_5762714.JPG,ISIC_5762714.JPG,false,0,keypress(z),500,84959.5,84959.30000007153,82079.508,82082.10000002384,82096.502,84962.664,8,400,13,,ISIC_0013762.JPG
break,html.Screen,4_12_1,2023-05-02T14:30:28.495Z,,0,,,NaN,,,,,,false,,,,84960.5,84960.10000002384,,84959.60000002384,,84962.664,8,400,,,
break_continue,html.Screen,4_12_2,2023-05-02T14:30:28.495Z,,0,,,NaN,,,,,,false,,,,84960.70000004768,84960.70000004768,,84960.5,,84962.664,8,400,,,
sequence,flow.Sequence,4_12,2023-05-02T14:30:28.495Z,,0,,,2864.1980000476906,completion,,,,,false,,,,84960.80000007153,84960.70000004768,82079.508,82082.10000002384,82096.502,84962.664,8,400,,,
trial,html.Screen,4_13_0,2023-05-02T14:30:31.837Z,,0,1,,3339.6360000715213,response,ISIC_5584185.JPG,,ISIC_0411688.JPG,ISIC_5584185.JPG,false,1,keypress(m),500,88302.70000004768,88302.30000007153,84946.242,84960.90000009537,84962.664,88312.701,8,400,14,,ISIC_0411688.JPG
break,html.Screen,4_13_1,2023-05-02T14:30:31.839Z,,0,,,NaN,,,,,,false,,,,88304.30000007153,88303.70000004768,,88303,,88312.701,8,400,,,
break_continue,html.Screen,4_13_2,2023-05-02T14:30:31.839Z,,0,,,NaN,,,,,,false,,,,88305,88304.80000007153,,88304.5,,88312.701,8,400,,,
sequence,flow.Sequence,4_13,2023-05-02T14:30:31.840Z,,0,,,3342.1360000715213,completion,,,,,false,,,,88305.20000004768,88304.80000007153,84946.242,84960.90000009537,84962.664,88312.701,8,400,,,
trial,html.Screen,4_14_0,2023-05-02T14:30:34.832Z,,0,1,,2984.1990000953665,response,ISIC_0067667.JPG,,ISIC_0069791.JPG,ISIC_0067667.JPG,false,1,keypress(m),500,91297.20000004768,91296.90000009537,88296.241,88305.40000009537,88312.701,91312.307,8,400,15,,ISIC_0069791.JPG
break,html.Screen,4_14_1,2023-05-02T14:30:34.833Z,,0,,,NaN,,,,,,false,,,,91298.70000004768,91298.20000004768,,91297.40000009537,,91312.307,8,400,,,
break_continue,html.Screen,4_14_2,2023-05-02T14:30:34.834Z,,0,,,NaN,,,,,,false,,,,91299.30000007153,91299.10000002384,,91298.80000007153,,91312.307,8,400,,,
sequence,flow.Sequence,4_14,2023-05-02T14:30:34.834Z,,0,,,2986.399000023841,completion,,,,,false,,,,91299.5,91299.10000002384,88296.241,88305.30000007153,88312.701,91312.307,8,400,,,
trial,html.Screen,4_15_0,2023-05-02T14:30:38.158Z,,0,1,,3310.6929999999993,response,ISIC_5629390.JPG,,ISIC_5525765.JPG,ISIC_5629390.JPG,false,1,keypress(m),500,94623.20000004768,94623,91296.585,91299.70000004768,91312.307,94628.748,8,400,16,,ISIC_5525765.JPG
break,html.Screen,4_15_1,2023-05-02T14:30:38.159Z,,0,,,NaN,,,,,,false,,,,94624.40000009537,94624.10000002384,,94623.40000009537,,94628.748,8,400,,,
break_continue,html.Screen,4_15_2,2023-05-02T14:30:38.159Z,,0,,,NaN,,,,,,false,,,,94625,94624.90000009537,,94624.60000002384,,94628.748,8,400,,,
sequence,flow.Sequence,4_15,2023-05-02T14:30:38.159Z,,0,,,3312.5930000953667,completion,,,,,false,,,,94625.20000004768,94624.90000009537,91296.585,91299.70000004768,91312.307,94628.748,8,400,,,
trial,html.Screen,4_16_0,2023-05-02T14:30:43.476Z,,0,1,,5312.751999999993,response,ISIC_0070709.JPG,,ISIC_7129085.JPG,ISIC_0070709.JPG,false,1,keypress(m),500,99941.80000007153,99941.5,94612.75,94625.20000004768,94628.748,99945.156,8,400,17,,ISIC_7129085.JPG
break,html.Screen,4_16_1,2023-05-02T14:30:43.478Z,,0,,,NaN,,,,,,false,,,,99943.30000007153,99943,,99942,,99945.156,8,400,,,
break_continue,html.Screen,4_16_2,2023-05-02T14:30:43.478Z,,0,,,NaN,,,,,,false,,,,99944,99943.80000007153,,99943.60000002384,,99945.156,8,400,,,
sequence,flow.Sequence,4_16,2023-05-02T14:30:43.479Z,,0,,,5315.052000071519,completion,,,,,false,,,,99944.20000004768,99943.80000007153,94612.75,94625.20000004768,94628.748,99945.156,8,400,,,
trial,html.Screen,4_17_0,2023-05-02T14:30:47.525Z,,0,1,,4045.444000023839,response,ISIC_3386753.JPG,,ISIC_6487069.JPG,ISIC_6487069.JPG,false,0,keypress(z),500,103991.10000002384,103990.60000002384,99928.741,99944.40000009537,99945.156,103994.942,8,400,18,,ISIC_3386753.JPG
break,html.Screen,4_17_1,2023-05-02T14:30:47.527Z,,0,,,NaN,,,,,,false,,,,103992.90000009537,103992.20000004768,,103991.30000007153,,103994.942,8,400,,,
break_continue,html.Screen,4_17_2,2023-05-02T14:30:47.528Z,,0,,,NaN,,,,,,false,,,,103993.70000004768,103993.40000009537,,103993.20000004768,,103994.942,8,400,,,
sequence,flow.Sequence,4_17,2023-05-02T14:30:47.528Z,,0,,,4048.2440000953648,completion,,,,,false,,,,103993.90000009537,103993.40000009537,99928.741,99944.30000007153,99945.156,103994.942,8,400,,,
trial,html.Screen,4_18_0,2023-05-02T14:30:53.952Z,,0,1,,6422.85800007153,response,ISIC_0064907.JPG,,ISIC_5859812.JPG,ISIC_0064907.JPG,false,1,keypress(m),500,110418,110417.80000007153,103979.122,103994.10000002384,103994.942,110427.892,8,400,19,,ISIC_5859812.JPG
break,html.Screen,4_18_1,2023-05-02T14:30:53.953Z,,0,,,NaN,,,,,,false,,,,110418.80000007153,110418.5,,110418.10000002384,,110427.892,8,400,,,
break_continue,html.Screen,4_18_2,2023-05-02T14:30:53.953Z,,0,,,NaN,,,,,,false,,,,110419,110419,,110418.90000009537,,110427.892,8,400,,,
sequence,flow.Sequence,4_18,2023-05-02T14:30:53.953Z,,0,,,6424.0580000000045,completion,,,,,false,,,,110419,110419,103979.122,103994.10000002384,103994.942,110427.892,8,400,,,
trial,html.Screen,4_19_0,2023-05-02T14:31:04.528Z,,0,1,,10565.107999999993,response,ISIC_0030695.JPG,,ISIC_0033044.JPG,ISIC_0030695.JPG,false,1,keypress(m),500,120993.40000009537,120993,110411.691,110419.20000004768,110427.892,121010.688,8,400,20,,ISIC_0033044.JPG
break,html.Screen,4_19_1,2023-05-02T14:31:04.530Z,,0,,,NaN,,,,,,false,,,,120995.40000009537,120994.90000009537,,120993.80000007153,,121010.688,8,400,,,
break_continue,html.Screen,4_19_2,2023-05-02T14:31:04.531Z,,0,,,NaN,,,,,,false,,,,120996.10000002384,120995.80000007153,,120995.60000002384,,121010.688,8,400,,,
sequence,flow.Sequence,4_19,2023-05-02T14:31:04.531Z,,0,,,10567.908000071518,completion,,,,,false,,,,120996.5,120995.80000007153,110411.691,110419.20000004768,110427.892,121010.688,8,400,,,
trial,html.Screen,4_20_0,2023-05-02T14:31:16.030Z,,0,1,,11515.972000000009,timeout,ISIC_5354827.JPG,,ISIC_7131359.JPG,,false,,,500,132494.60000002384,132494.20000004768,120994.182,120996.60000002384,121010.688,132526.66,8,400,21,,
break,html.Screen,4_20_1,2023-05-02T14:31:16.031Z,,0,,,NaN,,,,,,false,,,,132495.5,132495.40000009537,,132495,,132526.66,8,400,,,
break_continue,html.Screen,4_20_2,2023-05-02T14:31:16.031Z,,0,,,NaN,,,,,,false,,,,132496,132495.90000009537,,132495.70000004768,,132526.66,8,400,,,
sequence,flow.Sequence,4_20,2023-05-02T14:31:16.031Z,,0,,,11485.212000095373,completion,,,,,false,,,,132496.10000002384,132495.90000009537,120994.182,120996.60000002384,121010.688,132526.66,8,400,,,
trial,html.Screen,4_21_0,2023-05-02T14:31:19.252Z,,0,1,,3189.9400000238384,response,ISIC_6688417.JPG,,ISIC_5443837.JPG,ISIC_6688417.JPG,false,1,keypress(m),500,135716.90000009537,135716.60000002384,132509.872,132496.10000002384,132526.66,135726.858,8,400,22,,ISIC_5443837.JPG
break,html.Screen,4_21_1,2023-05-02T14:31:19.253Z,,0,,,NaN,,,,,,false,,,,135718.20000004768,135717.80000007153,,135717.20000004768,,135726.858,8,400,,,
break_continue,html.Screen,4_21_2,2023-05-02T14:31:19.254Z,,0,,,NaN,,,,,,false,,,,135718.70000004768,135718.60000002384,,135718.30000007153,,135726.858,8,400,,,
sequence,flow.Sequence,4_21,2023-05-02T14:31:19.254Z,,0,,,3191.9400000238384,completion,,,,,false,,,,135718.90000009537,135718.60000002384,132509.872,132496.10000002384,132526.66,135726.858,8,400,,,
trial,html.Screen,4_22_0,2023-05-02T14:31:23.732Z,,0,1,,4470.04200009536,response,ISIC_0024894.JPG,,ISIC_4223155.JPG,ISIC_4223155.JPG,false,0,keypress(z),500,140197.20000004768,140196.90000009537,135710.521,135718.90000009537,135726.858,140209.89,8,400,23,,ISIC_0024894.JPG
break,html.Screen,4_22_1,2023-05-02T14:31:23.734Z,,0,,,NaN,,,,,,false,,,,140198.60000002384,140198,,140197.40000009537,,140209.89,8,400,,,
break_continue,html.Screen,4_22_2,2023-05-02T14:31:23.734Z,,0,,,NaN,,,,,,false,,,,140199,140198.90000009537,,140198.70000004768,,140209.89,8,400,,,
sequence,flow.Sequence,4_22,2023-05-02T14:31:23.734Z,,0,,,4472.04200009536,completion,,,,,false,,,,140199.20000004768,140198.90000009537,135710.521,135718.90000009537,135726.858,140209.89,8,400,,,
trial,html.Screen,4_23_0,2023-05-02T14:31:27.301Z,,0,1,,3555.710000023828,response,ISIC_0029761.JPG,,ISIC_4505178.JPG,ISIC_4505178.JPG,false,0,keypress(z),500,143766.10000002384,143765.60000002384,140193.5,140199.40000009537,140209.89,143776.012,8,400,24,,ISIC_0029761.JPG
break,html.Screen,4_23_1,2023-05-02T14:31:27.303Z,,0,,,NaN,,,,,,false,,,,143767.80000007153,143767.10000002384,,143766.40000009537,,143776.012,8,400,,,
break_continue,html.Screen,4_23_2,2023-05-02T14:31:27.304Z,,0,,,NaN,,,,,,false,,,,143768.40000009537,143768.30000007153,,143767.90000009537,,143776.012,8,400,,,
sequence,flow.Sequence,4_23,2023-05-02T14:31:27.304Z,,0,,,3558.4100000715116,completion,,,,,false,,,,143768.70000004768,143768.30000007153,140193.5,140199.40000009537,140209.89,143776.012,8,400,,,
trial,html.Screen,4_24_0,2023-05-02T14:31:31.351Z,,0,1,,4039.188000047696,response,ISIC_5754070.JPG,,ISIC_0011387.JPG,ISIC_5754070.JPG,false,1,keypress(m),500,147815.5,147815.20000004768,143760.054,143768.90000009537,143776.012,147825.916,8,400,25,,ISIC_0011387.JPG
break,html.Screen,4_24_1,2023-05-02T14:31:31.352Z,,0,,,NaN,,,,,,false,,,,147816.90000009537,147816.40000009537,,147815.70000004768,,147825.916,8,400,,,
break_continue,html.Screen,4_24_2,2023-05-02T14:31:31.352Z,,0,,,NaN,,,,,,false,,,,147817.5,147817.30000007153,,147817.10000002384,,147825.916,8,400,,,
sequence,flow.Sequence,4_24,2023-05-02T14:31:31.353Z,,0,,,4041.2880000715377,completion,,,,,false,,,,147817.70000004768,147817.30000007153,143760.054,143768.80000007153,143776.012,147825.916,8,400,,,
trial,html.Screen,4_25_0,2023-05-02T14:31:34.716Z,,0,1,,3354.884000071528,response,ISIC_9227392.JPG,,ISIC_0068048.JPG,ISIC_9227392.JPG,false,1,keypress(m),500,151181.20000004768,151180.80000007153,147809.444,147817.80000007153,147825.916,151192.228,8,400,26,,ISIC_0068048.JPG
break,html.Screen,4_25_1,2023-05-02T14:31:34.718Z,,0,,,NaN,,,,,,false,,,,151182.90000009537,151182.30000007153,,151181.5,,151192.228,8,400,,,
break_continue,html.Screen,4_25_2,2023-05-02T14:31:34.719Z,,0,,,NaN,,,,,,false,,,,151183.5,151183.40000009537,,151183.10000002384,,151192.228,8,400,,,
sequence,flow.Sequence,4_25,2023-05-02T14:31:34.719Z,,0,,,3357.48400009537,completion,,,,,false,,,,151183.80000007153,151183.40000009537,147809.444,147817.80000007153,147825.916,151192.228,8,400,,,
trial,html.Screen,4_26_0,2023-05-02T14:31:39.671Z,,0,1,,4943.372000023839,response,ISIC_5755836.JPG,,ISIC_0065882.JPG,ISIC_5755836.JPG,false,1,keypress(m),500,156135.90000009537,156135.60000002384,151175.879,151184,151192.228,156158.673,8,400,27,,ISIC_0065882.JPG
break,html.Screen,4_26_1,2023-05-02T14:31:39.672Z,,0,,,NaN,,,,,,false,,,,156136.60000002384,156136.40000009537,,156136.10000002384,,156158.673,8,400,,,
break_continue,html.Screen,4_26_2,2023-05-02T14:31:39.672Z,,0,,,NaN,,,,,,false,,,,156136.90000009537,156136.80000007153,,156136.70000004768,,156158.673,8,400,,,
sequence,flow.Sequence,4_26,2023-05-02T14:31:39.672Z,,0,,,4944.572000071523,completion,,,,,false,,,,156137,156136.80000007153,151175.879,151183.90000009537,151192.228,156158.673,8,400,,,
trial,html.Screen,4_27_0,2023-05-02T14:31:42.770Z,,0,1,,3075.427000023832,response,ISIC_3474472.JPG,,ISIC_9462979.JPG,ISIC_3474472.JPG,false,1,keypress(m),500,159234.60000002384,159234.10000002384,156141.998,156137.20000004768,156158.673,159241.752,8,400,28,,ISIC_9462979.JPG
break,html.Screen,4_27_1,2023-05-02T14:31:42.771Z,,0,,,NaN,,,,,,false,,,,159236.30000007153,159235.70000004768,,159235,,159241.752,8,400,,,
break_continue,html.Screen,4_27_2,2023-05-02T14:31:42.772Z,,0,,,NaN,,,,,,false,,,,159237,159236.90000009537,,159236.60000002384,,159241.752,8,400,,,
sequence,flow.Sequence,4_27,2023-05-02T14:31:42.772Z,,0,,,3078.2270000953577,completion,,,,,false,,,,159237.20000004768,159236.90000009537,156141.998,156137.20000004768,156158.673,159241.752,8,400,,,
trial,html.Screen,4_28_0,2023-05-02T14:31:48.714Z,,0,1,,5936.948000047676,response,ISIC_5504560.JPG,,ISIC_9556334.JPG,ISIC_9556334.JPG,false,0,keypress(z),500,165179.10000002384,165178.70000004768,159225.677,159237.40000009537,159241.752,165191.391,8,400,29,,ISIC_5504560.JPG
break,html.Screen,4_28_1,2023-05-02T14:31:48.716Z,,0,,,NaN,,,,,,false,,,,165180.60000002384,165179.90000009537,,165179.30000007153,,165191.391,8,400,,,
break_continue,html.Screen,4_28_2,2023-05-02T14:31:48.717Z,,0,,,NaN,,,,,,false,,,,165181.60000002384,165181.5,,165181.10000002384,,165191.391,8,400,,,
sequence,flow.Sequence,4_28,2023-05-02T14:31:48.717Z,,0,,,5939.747999999992,completion,,,,,false,,,,165181.80000007153,165181.5,159225.677,159237.40000009537,159241.752,165191.391,8,400,,,
trial,html.Screen,4_29_0,2023-05-02T14:31:53.194Z,,0,1,,4466.909000071522,response,ISIC_4566439.JPG,,ISIC_0261253.JPG,ISIC_0261253.JPG,false,0,keypress(z),500,169658.5,169658.30000007153,165174.838,165182,165191.391,169674.407,8,400,30,,ISIC_4566439.JPG
break,html.Screen,4_29_1,2023-05-02T14:31:53.195Z,,0,,,NaN,,,,,,false,,,,169659.5,169659.20000004768,,169658.80000007153,,169674.407,8,400,,,
break_continue,html.Screen,4_29_2,2023-05-02T14:31:53.195Z,,0,,,NaN,,,,,,false,,,,169660,169659.90000009537,,169659.60000002384,,169674.407,8,400,,,
sequence,flow.Sequence,4_29,2023-05-02T14:31:53.195Z,,0,,,4468.509000095364,completion,,,,,false,,,,169660.20000004768,169659.90000009537,165174.838,165181.90000009537,165191.391,169674.407,8,400,,,
trial,html.Screen,4_30_0,2023-05-02T14:31:56.505Z,,0,1,,3290.893000071519,response,ISIC_0032954.JPG,,ISIC_0897876.JPG,ISIC_0897876.JPG,false,0,keypress(z),500,172965.80000007153,172965.30000007153,169658.064,169660.40000009537,169674.407,172974.66,8,400,31,,ISIC_0032954.JPG
break,html.Screen,4_30_1,2023-05-02T14:31:56.507Z,,0,,,NaN,,,,,,false,,,,172967.5,172966.90000009537,,172966.10000002384,,172974.66,8,400,,,
break_continue,html.Screen,4_30_2,2023-05-02T14:31:56.507Z,,0,,,NaN,,,,,,false,,,,172968.20000004768,172968,,172967.70000004768,,172974.66,8,400,,,
sequence,flow.Sequence,4_30,2023-05-02T14:31:56.508Z,,0,,,3293.5929999999935,completion,,,,,false,,,,172968.40000009537,172968,169658.064,169660.30000007153,169674.407,172974.66,8,400,,,
trial,html.Screen,4_31_0,2023-05-02T14:31:59.834Z,,0,1,,3319.640000071522,response,ISIC_9354965.JPG,,ISIC_0032892.JPG,ISIC_0032892.JPG,false,0,keypress(z),500,176294.70000004768,176294.30000007153,172958.168,172968.60000002384,172974.66,176307.652,8,400,32,,ISIC_9354965.JPG
break,html.Screen,4_31_1,2023-05-02T14:31:59.836Z,,0,,,NaN,,,,,,false,,,,176297.10000002384,176296.60000002384,,176295.30000007153,,176307.652,8,400,,,
break_continue,html.Screen,4_31_2,2023-05-02T14:31:59.837Z,,0,,,NaN,,,,,,false,,,,176297.70000004768,176297.5,,176297.20000004768,,176307.652,8,400,,,
sequence,flow.Sequence,4_31,2023-05-02T14:31:59.837Z,,0,,,3322.8399999999965,completion,,,,,false,,,,176298,176297.5,172958.168,172968.5,172974.66,176307.652,8,400,,,
trial,html.Screen,4_32_0,2023-05-02T14:32:03.358Z,,0,1,,3510.6480000715237,response,ISIC_4967639.JPG,,ISIC_5231145.JPG,ISIC_4967639.JPG,false,1,keypress(m),500,179818.60000002384,179818.30000007153,176291.265,176298.20000004768,176307.652,179824.648,8,400,33,,ISIC_5231145.JPG
break,html.Screen,4_32_1,2023-05-02T14:32:03.359Z,,0,,,NaN,,,,,,false,,,,179819.70000004768,179819.30000007153,,179818.80000007153,,179824.648,8,400,,,
break_continue,html.Screen,4_32_2,2023-05-02T14:32:03.359Z,,0,,,NaN,,,,,,false,,,,179820.30000007153,179820.10000002384,,179819.90000009537,,179824.648,8,400,,,
sequence,flow.Sequence,4_32,2023-05-02T14:32:03.360Z,,0,,,3512.44800002384,completion,,,,,false,,,,179820.5,179820.10000002384,176291.265,176298.10000002384,176307.652,179824.648,8,400,,,
trial,html.Screen,4_33_0,2023-05-02T14:32:06.412Z,,0,1,,3047.552000047697,response,ISIC_0000310.JPG,,ISIC_0280912.JPG,ISIC_0280912.JPG,false,0,keypress(z),500,182872.60000002384,182872.20000004768,179807.178,179820.5,179824.648,182895.525,8,400,34,,ISIC_0000310.JPG
break,html.Screen,4_33_1,2023-05-02T14:32:06.413Z,,0,,,NaN,,,,,,false,,,,182874.40000009537,182873.5,,182872.80000007153,,182895.525,8,400,,,
break_continue,html.Screen,4_33_2,2023-05-02T14:32:06.414Z,,0,,,NaN,,,,,,false,,,,182875.10000002384,182874.90000009537,,182874.60000002384,,182895.525,8,400,,,
sequence,flow.Sequence,4_33,2023-05-02T14:32:06.414Z,,0,,,3050.252000095381,completion,,,,,false,,,,182875.30000007153,182874.90000009537,179807.178,179820.5,179824.648,182895.525,8,400,,,
trial,html.Screen,4_34_0,2023-05-02T14:32:08.818Z,,0,1,,2382.975000000006,response,ISIC_0000414.JPG,,ISIC_0007619.JPG,ISIC_0007619.JPG,false,0,keypress(z),500,185278.70000004768,185278.5,182857.086,182875.5,182895.525,185290.302,8,400,35,,ISIC_0000414.JPG
break,html.Screen,4_34_1,2023-05-02T14:32:08.819Z,,0,,,NaN,,,,,,false,,,,185279.90000009537,185279.60000002384,,185279,,185290.302,8,400,,,
break_continue,html.Screen,4_34_2,2023-05-02T14:32:08.819Z,,0,,,NaN,,,,,,false,,,,185280.30000007153,185280.20000004768,,185280,,185290.302,8,400,,,
sequence,flow.Sequence,4_34,2023-05-02T14:32:08.820Z,,0,,,2384.6750000476895,completion,,,,,false,,,,185280.40000009537,185280.20000004768,182857.086,182875.5,182895.525,185290.302,8,400,,,
trial,html.Screen,4_35_0,2023-05-02T14:32:11.751Z,,0,1,,2921.198000000004,response,ISIC_0027673.JPG,,ISIC_0062497.JPG,ISIC_0062497.JPG,false,0,keypress(z),500,188211.80000007153,188211.5,185272.934,185280.60000002384,185290.302,188223.861,8,400,36,,ISIC_0027673.JPG
break,html.Screen,4_35_1,2023-05-02T14:32:11.752Z,,0,,,NaN,,,,,,false,,,,188213.40000009537,188212.60000002384,,188212,,188223.861,8,400,,,
break_continue,html.Screen,4_35_2,2023-05-02T14:32:11.753Z,,0,,,NaN,,,,,,false,,,,188214.10000002384,188213.90000009537,,188213.60000002384,,188223.861,8,400,,,
sequence,flow.Sequence,4_35,2023-05-02T14:32:11.753Z,,0,,,2923.5980000953714,completion,,,,,false,,,,188214.30000007153,188213.90000009537,185272.934,185280.60000002384,185290.302,188223.861,8,400,,,
trial,html.Screen,4_36_0,2023-05-02T14:32:14.269Z,,0,1,,2505.539000095363,response,ISIC_0062382.JPG,,ISIC_0011126.JPG,ISIC_0062382.JPG,false,1,keypress(m),500,190729.80000007153,190729.40000009537,188206.842,188214.40000009537,188223.861,190740.229,8,400,37,,ISIC_0011126.JPG
break,html.Screen,4_36_1,2023-05-02T14:32:14.270Z,,0,,,NaN,,,,,,false,,,,190731.30000007153,190730.70000004768,,190730.10000002384,,190740.229,8,400,,,
break_continue,html.Screen,4_36_2,2023-05-02T14:32:14.271Z,,0,,,NaN,,,,,,false,,,,190731.90000009537,190731.80000007153,,190731.5,,190740.229,8,400,,,
sequence,flow.Sequence,4_36,2023-05-02T14:32:14.271Z,,0,,,2507.939000071521,completion,,,,,false,,,,190732.20000004768,190731.80000007153,188206.842,188214.40000009537,188223.861,190740.229,8,400,,,
trial,html.Screen,4_37_0,2023-05-02T14:32:16.735Z,,0,1,,2455.6710000953753,response,ISIC_1923467.JPG,,ISIC_9471156.JPG,ISIC_9471156.JPG,false,0,keypress(z),500,193196.20000004768,193195.90000009537,190723.411,190732.30000007153,190740.229,193223.441,8,400,38,,ISIC_1923467.JPG
break,html.Screen,4_37_1,2023-05-02T14:32:16.736Z,,0,,,NaN,,,,,,false,,,,193197.10000002384,193196.90000009537,,193196.40000009537,,193223.441,8,400,,,
break_continue,html.Screen,4_37_2,2023-05-02T14:32:16.737Z,,0,,,NaN,,,,,,false,,,,193197.5,193197.30000007153,,193197.20000004768,,193223.441,8,400,,,
sequence,flow.Sequence,4_37,2023-05-02T14:32:16.737Z,,0,,,2457.0710000715335,completion,,,,,false,,,,193197.70000004768,193197.30000007153,190723.411,190732.30000007153,190740.229,193223.441,8,400,,,
trial,html.Screen,4_38_0,2023-05-02T14:32:19.613Z,,0,1,,2850.459000095376,response,ISIC_0032840.JPG,,ISIC_0030083.JPG,ISIC_0032840.JPG,false,1,keypress(m),500,196074.30000007153,196073.90000009537,193206.383,193197.70000004768,193223.441,196089.912,8,400,39,,ISIC_0030083.JPG
break,html.Screen,4_38_1,2023-05-02T14:32:19.615Z,,0,,,NaN,,,,,,false,,,,196075.70000004768,196075.20000004768,,196074.60000002384,,196089.912,8,400,,,
break_continue,html.Screen,4_38_2,2023-05-02T14:32:19.615Z,,0,,,NaN,,,,,,false,,,,196076.20000004768,196076.10000002384,,196075.90000009537,,196089.912,8,400,,,
sequence,flow.Sequence,4_38,2023-05-02T14:32:19.616Z,,0,,,2852.6590000238502,completion,,,,,false,,,,196076.5,196076.10000002384,193206.383,193197.70000004768,193223.441,196089.912,8,400,,,
trial,html.Screen,4_39_0,2023-05-02T14:32:22.354Z,,0,1,,2724.6880000238307,response,ISIC_2059085.JPG,,ISIC_7096885.JPG,ISIC_2059085.JPG,false,1,keypress(m),500,198815,198814.60000002384,196072.91,196076.70000004768,196089.912,198822.76,8,400,40,,ISIC_7096885.JPG
break,html.Screen,4_39_1,2023-05-02T14:32:22.356Z,,0,,,NaN,,,,,,false,,,,198816.90000009537,198816.40000009537,,198815.20000004768,,198822.76,8,400,,,
break_continue,html.Screen,4_39_2,2023-05-02T14:32:22.357Z,,0,,,NaN,,,,,,false,,,,198817.70000004768,198817.60000002384,,198817.10000002384,,198822.76,8,400,,,
sequence,flow.Sequence,4_39,2023-05-02T14:32:22.357Z,,0,,,2727.6880000238307,completion,,,,,false,,,,198818,198817.60000002384,196072.91,196076.60000002384,196089.912,198822.76,8,400,,,
trial,html.Screen,4_40_0,2023-05-02T14:32:24.801Z,,0,1,,2439.2399999999907,response,ISIC_3152541.JPG,,ISIC_0010837.JPG,ISIC_3152541.JPG,false,1,keypress(m),500,201262.30000007153,201262,198806.839,198818.20000004768,198822.76,201272.923,8,400,41,,ISIC_0010837.JPG
break,html.Screen,4_40_1,2023-05-02T14:32:24.803Z,,0,,,NaN,,,,,,false,,,,201263.5,201263.30000007153,,201262.60000002384,,201272.923,8,400,,,
break_continue,html.Screen,4_40_2,2023-05-02T14:32:24.803Z,,0,,,NaN,,,,,,false,,,,201263.80000007153,201263.70000004768,,201263.5,,201272.923,8,400,,,
sequence,flow.Sequence,4_40,2023-05-02T14:32:24.803Z,,0,,,2440.9400000476744,completion,,,,,false,,,,201263.80000007153,201263.70000004768,198806.839,198818.20000004768,198822.76,201272.923,8,400,,,
trial,html.Screen,4_41_0,2023-05-02T14:32:27.871Z,,0,1,,3057.9770000953577,response,ISIC_0056228.JPG,,ISIC_0063930.JPG,ISIC_0063930.JPG,false,0,keypress(z),500,204331.40000009537,204330.90000009537,201256.291,201263.90000009537,201272.923,204339.159,8,400,42,,ISIC_0056228.JPG
break,html.Screen,4_41_1,2023-05-02T14:32:27.872Z,,0,,,NaN,,,,,,false,,,,204333.40000009537,204332.90000009537,,204332,,204339.159,8,400,,,
break_continue,html.Screen,4_41_2,2023-05-02T14:32:27.873Z,,0,,,NaN,,,,,,false,,,,204334,204333.80000007153,,204333.5,,204339.159,8,400,,,
sequence,flow.Sequence,4_41,2023-05-02T14:32:27.873Z,,0,,,3060.877000071516,completion,,,,,false,,,,204334.20000004768,204333.80000007153,201256.291,201263.90000009537,201272.923,204339.159,8,400,,,
trial,html.Screen,4_42_0,2023-05-02T14:32:30.434Z,,0,1,,2555.1410000715114,response,ISIC_2748873.JPG,,ISIC_2720426.JPG,ISIC_2748873.JPG,false,1,keypress(m),500,206894.60000002384,206894.30000007153,204322.675,204334.30000007153,204339.159,206906.016,8,400,43,,ISIC_2720426.JPG
break,html.Screen,4_42_1,2023-05-02T14:32:30.435Z,,0,,,NaN,,,,,,false,,,,206896.10000002384,206895.60000002384,,206894.80000007153,,206906.016,8,400,,,
break_continue,html.Screen,4_42_2,2023-05-02T14:32:30.436Z,,0,,,NaN,,,,,,false,,,,206896.70000004768,206896.5,,206896.30000007153,,206906.016,8,400,,,
sequence,flow.Sequence,4_42,2023-05-02T14:32:30.436Z,,0,,,2557.340999999986,completion,,,,,false,,,,206896.90000009537,206896.5,204322.675,204334.30000007153,204339.159,206906.016,8,400,,,
trial,html.Screen,4_43_0,2023-05-02T14:32:33.209Z,,0,1,,2763.4839999999967,response,ISIC_0941085.JPG,,ISIC_1294049.JPG,ISIC_0941085.JPG,false,1,keypress(m),500,209669.80000007153,209669.5,206888.88,206897,206906.016,209672.21,8,400,44,,ISIC_1294049.JPG
break,html.Screen,4_43_1,2023-05-02T14:32:33.211Z,,0,,,NaN,,,,,,false,,,,209671.70000004768,209671,,209670.20000004768,,209672.21,8,400,,,
break_continue,html.Screen,4_43_2,2023-05-02T14:32:33.213Z,,0,,,NaN,,,,,,false,,,,209673.40000009537,209672.20000004768,,209671.90000009537,,209672.21,8,400,,,
sequence,flow.Sequence,4_43,2023-05-02T14:32:33.213Z,,0,,,2766.1840000476805,completion,,,,,false,,,,209673.70000004768,209672.20000004768,206888.88,206897,206906.016,209672.21,8,400,,,
trial,html.Screen,4_44_0,2023-05-02T14:32:35.778Z,,0,1,,2566.1900000953756,response,ISIC_0061320.JPG,,ISIC_0027872.JPG,ISIC_0061320.JPG,false,1,keypress(m),500,212238.70000004768,212238.40000009537,209655.561,209673.90000009537,209672.21,212255.625,8,400,45,,ISIC_0027872.JPG
break,html.Screen,4_44_1,2023-05-02T14:32:35.780Z,,0,,,NaN,,,,,,false,,,,212240.70000004768,212240.40000009537,,212239.20000004768,,212255.625,8,400,,,
break_continue,html.Screen,4_44_2,2023-05-02T14:32:35.780Z,,0,,,NaN,,,,,,false,,,,212241.30000007153,212241.10000002384,,212240.90000009537,,212255.625,8,400,,,
sequence,flow.Sequence,4_44,2023-05-02T14:32:35.781Z,,0,,,2568.89000002385,completion,,,,,false,,,,212241.5,212241.10000002384,209655.561,209673.90000009537,209672.21,212255.625,8,400,,,
trial,html.Screen,4_45_0,2023-05-02T14:32:38.472Z,,0,1,,2676.875,response,ISIC_4166490.JPG,,ISIC_1752943.JPG,ISIC_1752943.JPG,false,0,keypress(z),500,214932.70000004768,214932.5,212238.707,212241.70000004768,212255.625,214938.582,8,400,46,,ISIC_4166490.JPG
break,html.Screen,4_45_1,2023-05-02T14:32:38.473Z,,0,,,NaN,,,,,,false,,,,214934,214933.60000002384,,214933,,214938.582,8,400,,,
break_continue,html.Screen,4_45_2,2023-05-02T14:32:38.474Z,,0,,,NaN,,,,,,false,,,,214934.90000009537,214934.70000004768,,214934.40000009537,,214938.582,8,400,,,
sequence,flow.Sequence,4_45,2023-05-02T14:32:38.474Z,,0,,,2679.0750000476837,completion,,,,,false,,,,214935.10000002384,214934.70000004768,212238.707,212241.60000002384,212255.625,214938.582,8,400,,,
trial,html.Screen,4_46_0,2023-05-02T14:32:41.586Z,,0,1,,3107.518000023847,response,ISIC_4782878.JPG,,ISIC_6822870.JPG,ISIC_6822870.JPG,false,0,keypress(z),500,218046.40000009537,218046.10000002384,214922.368,214935.10000002384,214938.582,218054.991,8,400,47,,ISIC_4782878.JPG
break,html.Screen,4_46_1,2023-05-02T14:32:41.587Z,,0,,,NaN,,,,,,false,,,,218048.20000004768,218047.80000007153,,218046.70000004768,,218054.991,8,400,,,
break_continue,html.Screen,4_46_2,2023-05-02T14:32:41.588Z,,0,,,NaN,,,,,,false,,,,218048.90000009537,218048.70000004768,,218048.40000009537,,218054.991,8,400,,,
sequence,flow.Sequence,4_46,2023-05-02T14:32:41.588Z,,0,,,3110.118000047689,completion,,,,,false,,,,218049.10000002384,218048.70000004768,214922.368,214935.10000002384,214938.582,218054.991,8,400,,,
trial,html.Screen,4_47_0,2023-05-02T14:32:45.386Z,,0,1,,3792.008999999991,response,ISIC_6548307.JPG,,ISIC_0958701.JPG,ISIC_0958701.JPG,false,0,keypress(z),500,221847.20000004768,221847,218038.091,218049.40000009537,218054.991,221854.791,8,400,48,,ISIC_6548307.JPG
break,html.Screen,4_47_1,2023-05-02T14:32:45.387Z,,0,,,NaN,,,,,,false,,,,221848.20000004768,221848,,221847.40000009537,,221854.791,8,400,,,
break_continue,html.Screen,4_47_2,2023-05-02T14:32:45.388Z,,0,,,NaN,,,,,,false,,,,221848.60000002384,221848.5,,221848.30000007153,,221854.791,8,400,,,
sequence,flow.Sequence,4_47,2023-05-02T14:32:45.388Z,,0,,,3793.508999999991,completion,,,,,false,,,,221848.70000004768,221848.5,218038.091,218049.30000007153,218054.991,221854.791,8,400,,,
trial,html.Screen,4_48_0,2023-05-02T14:32:47.959Z,,0,1,,2564.9090000476863,response,ISIC_5363229.JPG,,ISIC_0013817.JPG,ISIC_5363229.JPG,false,1,keypress(m),500,224420.10000002384,224419.70000004768,221838.47,221848.80000007153,221854.791,224451.752,8,400,49,,ISIC_0013817.JPG
break,html.Screen,4_48_1,2023-05-02T14:32:47.960Z,,0,,,NaN,,,,,,false,,,,224421.20000004768,224420.80000007153,,224420.40000009537,,224451.752,8,400,,,
break_continue,html.Screen,4_48_2,2023-05-02T14:32:47.961Z,,0,,,NaN,,,,,,false,,,,224421.60000002384,224421.40000009537,,224421.30000007153,,224451.752,8,400,,,
sequence,flow.Sequence,4_48,2023-05-02T14:32:47.961Z,,0,,,2566.60900009537,completion,,,,,false,,,,224421.80000007153,224421.40000009537,221838.47,221848.80000007153,221854.791,224451.752,8,400,,,
trial,html.Screen,4_49_0,2023-05-02T14:32:50.577Z,,0,1,,2585.848000023834,response,ISIC_0000558.JPG,,ISIC_0024756.JPG,ISIC_0000558.JPG,false,1,keypress(m),500,227037.70000004768,227037.60000002384,224404.703,224421.90000009537,224451.752,227071.211,8,400,50,,ISIC_0024756.JPG
break,html.Screen,4_49_1,2023-05-02T14:32:55.595Z,,0,,,4999.905999999988,timeout,,,,,false,,,,232056.20000004768,232054.88,227054.561,227038,227071.211,232071.117,8,400,,,
break_continue,html.Screen,4_49_2,2023-05-02T14:32:56.519Z,,0,,,892.5830000476853,response,,,,,false,continue,keypress(Space),,232981.70000004768,232963.70000004768,232054.88,232056.40000009537,232071.117,232987.502,8,400,,,
sequence,flow.Sequence,4_49,2023-05-02T14:32:56.519Z,,0,,,8511.948000047676,completion,,,,,false,,,,232982,232963.70000004768,224404.703,224421.80000007153,224451.752,232987.502,8,400,,,
trial,html.Screen,4_50_0,2023-05-02T14:32:59.744Z,,0,2,,3219.098000023834,response,ISIC_0060222.JPG,,ISIC_7870290.JPG,ISIC_0060222.JPG,false,1,keypress(m),500,236206.90000009537,236206.60000002384,232971.386,232982.20000004768,232987.502,236220.901,8,400,1,,ISIC_7870290.JPG
break,html.Screen,4_50_1,2023-05-02T14:32:59.746Z,,0,,,NaN,,,,,,false,,,,236208.60000002384,236208.30000007153,,236207.30000007153,,236220.901,8,400,,,
break_continue,html.Screen,4_50_2,2023-05-02T14:32:59.746Z,,0,,,NaN,,,,,,false,,,,236209.20000004768,236209,,236208.80000007153,,236220.901,8,400,,,
sequence,flow.Sequence,4_50,2023-05-02T14:32:59.747Z,,0,,,3221.4979999999923,completion,,,,,false,,,,236209.40000009537,236209,232971.386,232982.10000002384,232987.502,236220.901,8,400,,,
trial,html.Screen,4_51_0,2023-05-02T14:33:02.455Z,,0,2,,2696.0989999999874,response,ISIC_6255494.JPG,,ISIC_0010723.JPG,ISIC_0010723.JPG,false,0,keypress(z),500,238917.40000009537,238917,236204.149,236209.60000002384,236220.901,238920.53,8,400,2,,ISIC_6255494.JPG
break,html.Screen,4_51_1,2023-05-02T14:33:02.457Z,,0,,,NaN,,,,,,false,,,,238919.40000009537,238918.70000004768,,238917.80000007153,,238920.53,8,400,,,
break_continue,html.Screen,4_51_2,2023-05-02T14:33:02.457Z,,0,,,NaN,,,,,,false,,,,238920.20000004768,238920,,238919.60000002384,,238920.53,8,400,,,
sequence,flow.Sequence,4_51,2023-05-02T14:33:02.458Z,,0,,,2699.0989999999874,completion,,,,,false,,,,238921.30000007153,238920,236204.149,236209.5,236220.901,238920.53,8,400,,,
trial,html.Screen,4_52_0,2023-05-02T14:33:04.902Z,,0,2,,2443.570000023843,response,ISIC_4539674.JPG,,ISIC_3198111.JPG,ISIC_4539674.JPG,false,1,keypress(m),500,241364.40000009537,241364.10000002384,238903.894,238921.80000007153,238920.53,241370.279,8,400,3,,ISIC_3198111.JPG
break,html.Screen,4_52_1,2023-05-02T14:33:04.903Z,,0,,,NaN,,,,,,false,,,,241365.80000007153,241365.30000007153,,241364.60000002384,,241370.279,8,400,,,
break_continue,html.Screen,4_52_2,2023-05-02T14:33:04.904Z,,0,,,NaN,,,,,,false,,,,241366.5,241366.30000007153,,241366.10000002384,,241370.279,8,400,,,
sequence,flow.Sequence,4_52,2023-05-02T14:33:04.904Z,,0,,,2445.7700000715267,completion,,,,,false,,,,241366.70000004768,241366.30000007153,238903.894,238921.80000007153,238920.53,241370.279,8,400,,,
trial,html.Screen,4_53_0,2023-05-02T14:33:07.371Z,,0,2,,2463.621000095358,response,ISIC_2731621.JPG,,ISIC_9087221.JPG,ISIC_2731621.JPG,false,1,keypress(m),500,243834.20000004768,243833.90000009537,241354.102,241366.90000009537,241370.279,243853.9,8,400,4,,ISIC_9087221.JPG
break,html.Screen,4_53_1,2023-05-02T14:33:07.372Z,,0,,,NaN,,,,,,false,,,,243835.10000002384,243834.80000007153,,243834.40000009537,,243853.9,8,400,,,
break_continue,html.Screen,4_53_2,2023-05-02T14:33:07.373Z,,0,,,NaN,,,,,,false,,,,243835.60000002384,243835.5,,243835.30000007153,,243853.9,8,400,,,
sequence,flow.Sequence,4_53,2023-05-02T14:33:07.373Z,,0,,,2465.2209999999905,completion,,,,,false,,,,243835.80000007153,243835.5,241354.102,241366.90000009537,241370.279,243853.9,8,400,,,
trial,html.Screen,4_54_0,2023-05-02T14:33:10.228Z,,0,2,,2836.8000000476895,response,ISIC_0030957.JPG,,ISIC_4136591.JPG,ISIC_4136591.JPG,false,0,keypress(z),500,246691,246690.70000004768,243836.985,243835.90000009537,243853.9,246703.351,8,400,5,,ISIC_0030957.JPG
break,html.Screen,4_54_1,2023-05-02T14:33:10.229Z,,0,,,NaN,,,,,,false,,,,246692,246691.60000002384,,246691.20000004768,,246703.351,8,400,,,
break_continue,html.Screen,4_54_2,2023-05-02T14:33:10.230Z,,0,,,NaN,,,,,,false,,,,246692.40000009537,246692.30000007153,,246692.10000002384,,246703.351,8,400,,,
sequence,flow.Sequence,4_54,2023-05-02T14:33:10.230Z,,0,,,2838.4000000715314,completion,,,,,false,,,,246692.5,246692.30000007153,243836.985,243835.90000009537,243853.9,246703.351,8,400,,,
trial,html.Screen,4_55_0,2023-05-02T14:33:12.846Z,,0,2,,2605.2490000238467,response,ISIC_0032762.JPG,,ISIC_6113524.JPG,ISIC_0032762.JPG,false,1,keypress(m),500,249309,249308.60000002384,246686.82,246692.5,246703.351,249320.181,8,400,6,,ISIC_6113524.JPG
break,html.Screen,4_55_1,2023-05-02T14:33:12.848Z,,0,,,NaN,,,,,,false,,,,249310.80000007153,249310.40000009537,,249309.30000007153,,249320.181,8,400,,,
break_continue,html.Screen,4_55_2,2023-05-02T14:33:12.849Z,,0,,,NaN,,,,,,false,,,,249311.40000009537,249311.20000004768,,249311,,249320.181,8,400,,,
sequence,flow.Sequence,4_55,2023-05-02T14:33:12.849Z,,0,,,2607.8490000476886,completion,,,,,false,,,,249311.60000002384,249311.20000004768,246686.82,246692.5,246703.351,249320.181,8,400,,,
trial,html.Screen,4_56_0,2023-05-02T14:33:15.666Z,,0,2,,2808.619000071514,response,ISIC_0027056.JPG,,ISIC_0610849.JPG,ISIC_0610849.JPG,false,0,keypress(z),500,252129.20000004768,252128.80000007153,249303.46,249311.80000007153,249320.181,252136.535,8,400,7,,ISIC_0027056.JPG
break,html.Screen,4_56_1,2023-05-02T14:33:15.667Z,,0,,,NaN,,,,,,false,,,,252130,252129.80000007153,,252129.30000007153,,252136.535,8,400,,,
break_continue,html.Screen,4_56_2,2023-05-02T14:33:15.668Z,,0,,,NaN,,,,,,false,,,,252130.70000004768,252130.5,,252130.10000002384,,252136.535,8,400,,,
sequence,flow.Sequence,4_56,2023-05-02T14:33:15.668Z,,0,,,2810.3189999999886,completion,,,,,false,,,,252130.80000007153,252130.5,249303.46,249311.80000007153,249320.181,252136.535,8,400,,,
trial,html.Screen,4_57_0,2023-05-02T14:33:18.900Z,,0,2,,3226.365000095364,response,ISIC_0616491.JPG,,ISIC_0070046.JPG,ISIC_0070046.JPG,false,0,keypress(z),500,255363.20000004768,255362.90000009537,252120.168,252130.90000009537,252136.535,255369.557,8,400,8,,ISIC_0616491.JPG
break,html.Screen,4_57_1,2023-05-02T14:33:18.901Z,,0,,,NaN,,,,,,false,,,,255364,255363.70000004768,,255363.40000009537,,255369.557,8,400,,,
break_continue,html.Screen,4_57_2,2023-05-02T14:33:18.901Z,,0,,,NaN,,,,,,false,,,,255364.30000007153,255364.20000004768,,255364.10000002384,,255369.557,8,400,,,
sequence,flow.Sequence,4_57,2023-05-02T14:33:18.902Z,,0,,,3227.66500004768,completion,,,,,false,,,,255364.40000009537,255364.20000004768,252120.168,252130.90000009537,252136.535,255369.557,8,400,,,
trial,html.Screen,4_58_0,2023-05-02T14:33:21.992Z,,0,2,,3084.543000023841,response,ISIC_3058800.JPG,,ISIC_0013141.JPG,ISIC_3058800.JPG,false,1,keypress(m),500,258454.5,258454.10000002384,255353.162,255364.40000009537,255369.557,258469.689,8,400,9,,ISIC_0013141.JPG
break,html.Screen,4_58_1,2023-05-02T14:33:21.994Z,,0,,,NaN,,,,,,false,,,,258456.80000007153,258456.20000004768,,258454.90000009537,,258469.689,8,400,,,
break_continue,html.Screen,4_58_2,2023-05-02T14:33:21.995Z,,0,,,NaN,,,,,,false,,,,258457.80000007153,258457.60000002384,,258457.10000002384,,258469.689,8,400,,,
sequence,flow.Sequence,4_58,2023-05-02T14:33:21.995Z,,0,,,3088.043000023841,completion,,,,,false,,,,258458.10000002384,258457.60000002384,255353.162,255364.40000009537,255369.557,258469.689,8,400,,,
trial,html.Screen,4_59_0,2023-05-02T14:33:26.138Z,,0,2,,4131.1110000715125,response,ISIC_0024952.JPG,,ISIC_0450295.JPG,ISIC_0450295.JPG,false,0,keypress(z),500,262601.10000002384,262600.8000000715,258454.082,258458.30000007153,258469.689,262633.293,8,400,10,,ISIC_0024952.JPG
break,html.Screen,4_59_1,2023-05-02T14:33:26.139Z,,0,,,NaN,,,,,,false,,,,262602,262601.8000000715,,262601.3000000715,,262633.293,8,400,,,
break_continue,html.Screen,4_59_2,2023-05-02T14:33:26.139Z,,0,,,NaN,,,,,,false,,,,262602.3000000715,262602.3000000715,,262602.10000002384,,262633.293,8,400,,,
sequence,flow.Sequence,4_59,2023-05-02T14:33:26.140Z,,0,,,4132.6110000715125,completion,,,,,false,,,,262602.40000009537,262602.3000000715,258454.082,258458.20000004768,258469.689,262633.293,8,400,,,
trial,html.Screen,4_60_0,2023-05-02T14:33:30.242Z,,0,2,,4070.8070000238367,response,ISIC_0007884.JPG,,ISIC_0028136.JPG,ISIC_0007884.JPG,false,1,keypress(m),500,266704.5,266704.10000002384,262585.826,262602.7000000477,262633.293,266719.43,8,400,11,,ISIC_0028136.JPG
break,html.Screen,4_60_1,2023-05-02T14:33:30.243Z,,0,,,NaN,,,,,,false,,,,266706.2000000477,266705.5,,266704.8000000715,,266719.43,8,400,,,
break_continue,html.Screen,4_60_2,2023-05-02T14:33:30.244Z,,0,,,NaN,,,,,,false,,,,266707,266706.8000000715,,266706.5,,266719.43,8,400,,,
sequence,flow.Sequence,4_60,2023-05-02T14:33:30.244Z,,0,,,4073.5070000715205,completion,,,,,false,,,,266707.3000000715,266706.8000000715,262585.826,262602.60000002384,262633.293,266719.43,8,400,,,
trial,html.Screen,4_61_0,2023-05-02T14:33:33.921Z,,0,2,,3664.2700000476907,response,ISIC_1210565.JPG,,ISIC_4231346.JPG,ISIC_4231346.JPG,false,0,keypress(z),500,270384,270383.7000000477,266702.447,266707.40000009537,266719.43,270415.491,8,400,12,,ISIC_1210565.JPG
break,html.Screen,4_61_1,2023-05-02T14:33:33.922Z,,0,,,NaN,,,,,,false,,,,270385.3000000715,270384.8000000715,,270384.2000000477,,270415.491,8,400,,,
break_continue,html.Screen,4_61_2,2023-05-02T14:33:33.924Z,,0,,,NaN,,,,,,false,,,,270386.3000000715,270386.10000002384,,270385.40000009537,,270415.491,8,400,,,
sequence,flow.Sequence,4_61,2023-05-02T14:33:33.924Z,,0,,,3666.670000023849,completion,,,,,false,,,,270386.60000002384,270386.10000002384,266702.447,266707.40000009537,266719.43,270415.491,8,400,,,
trial,html.Screen,4_62_0,2023-05-02T14:33:37.221Z,,0,2,,3267.50900000002,response,ISIC_4523382.JPG,,ISIC_0054312.JPG,ISIC_0054312.JPG,false,0,keypress(z),500,273683.5,273683,270368.827,270386.8000000715,270415.491,273706.668,8,400,13,,ISIC_4523382.JPG
break,html.Screen,4_62_1,2023-05-02T14:33:37.222Z,,0,,,NaN,,,,,,false,,,,273684.40000009537,273684.2000000477,,273683.7000000477,,273706.668,8,400,,,
break_continue,html.Screen,4_62_2,2023-05-02T14:33:37.222Z,,0,,,NaN,,,,,,false,,,,273685,273684.90000009537,,273684.60000002384,,273706.668,8,400,,,
sequence,flow.Sequence,4_62,2023-05-02T14:33:37.222Z,,0,,,3269.4090000953875,completion,,,,,false,,,,273685.10000002384,273684.90000009537,270368.827,270386.7000000477,270415.491,273706.668,8,400,,,
trial,html.Screen,4_63_0,2023-05-02T14:33:40.270Z,,0,2,,3025.9320000238367,response,ISIC_0000459.JPG,,ISIC_8978290.JPG,ISIC_0000459.JPG,false,1,keypress(m),500,276732.8000000715,276732.60000002384,273669.114,273685.2000000477,273706.668,276734.988,8,400,14,,ISIC_8978290.JPG
break,html.Screen,4_63_1,2023-05-02T14:33:40.271Z,,0,,,NaN,,,,,,false,,,,276734,276733.60000002384,,276733.10000002384,,276734.988,8,400,,,
break_continue,html.Screen,4_63_2,2023-05-02T14:33:40.271Z,,0,,,NaN,,,,,,false,,,,276734.3000000715,276734.2000000477,,276734,,276734.988,8,400,,,
sequence,flow.Sequence,4_63,2023-05-02T14:33:40.272Z,,0,,,3027.5320000476786,completion,,,,,false,,,,276734.40000009537,276734.2000000477,273669.114,273685.10000002384,273706.668,276734.988,8,400,,,
trial,html.Screen,4_64_0,2023-05-02T14:33:43.524Z,,0,2,,3251.7120000476716,response,ISIC_0007749.JPG,,ISIC_6023504.JPG,ISIC_0007749.JPG,false,1,keypress(m),500,279987,279986.7000000477,276718.896,276734.5,276734.988,280001.489,8,400,15,,ISIC_6023504.JPG
break,html.Screen,4_64_1,2023-05-02T14:33:43.526Z,,0,,,NaN,,,,,,false,,,,279988.5,279987.90000009537,,279987.3000000715,,280001.489,8,400,,,
break_continue,html.Screen,4_64_2,2023-05-02T14:33:43.526Z,,0,,,NaN,,,,,,false,,,,279989.2000000477,279989,,279988.60000002384,,280001.489,8,400,,,
sequence,flow.Sequence,4_64,2023-05-02T14:33:43.527Z,,0,,,3254.011999999988,completion,,,,,false,,,,279989.40000009537,279989,276718.896,276734.5,276734.988,280001.489,8,400,,,
trial,html.Screen,4_65_0,2023-05-02T14:33:46.720Z,,0,2,,3181.311000071524,response,ISIC_4874581.JPG,,ISIC_0922552.JPG,ISIC_0922552.JPG,false,0,keypress(z),500,283183.3000000715,283182.8000000715,279985.404,279989.60000002384,280001.489,283201.435,8,400,16,,ISIC_4874581.JPG
break,html.Screen,4_65_1,2023-05-02T14:33:46.722Z,,0,,,NaN,,,,,,false,,,,283185.10000002384,283184.5,,283183.60000002384,,283201.435,8,400,,,
break_continue,html.Screen,4_65_2,2023-05-02T14:33:46.723Z,,0,,,NaN,,,,,,false,,,,283185.60000002384,283185.5,,283185.3000000715,,283201.435,8,400,,,
sequence,flow.Sequence,4_65,2023-05-02T14:33:46.723Z,,0,,,3184.0109999999986,completion,,,,,false,,,,283185.7000000477,283185.5,279985.404,279989.5,280001.489,283201.435,8,400,,,
trial,html.Screen,4_66_0,2023-05-02T14:33:51.682Z,,0,2,,4942.865000071528,response,ISIC_0024757.JPG,,ISIC_0062005.JPG,ISIC_0062005.JPG,false,0,keypress(z),500,288144.5,288144.3000000715,283168.336,283185.90000009537,283201.435,288168.247,8,400,17,,ISIC_0024757.JPG
break,html.Screen,4_66_1,2023-05-02T14:33:51.683Z,,0,,,NaN,,,,,,false,,,,288145.60000002384,288145.5,,288145,,288168.247,8,400,,,
break_continue,html.Screen,4_66_2,2023-05-02T14:33:51.683Z,,0,,,NaN,,,,,,false,,,,288145.90000009537,288145.8000000715,,288145.7000000477,,288168.247,8,400,,,
sequence,flow.Sequence,4_66,2023-05-02T14:33:51.683Z,,0,,,4944.365000071528,completion,,,,,false,,,,288146.10000002384,288145.8000000715,283168.336,283185.90000009537,283201.435,288168.247,8,400,,,
trial,html.Screen,4_67_0,2023-05-02T14:33:56.406Z,,0,2,,4700.253000000026,response,ISIC_1166740.JPG,,ISIC_0030077.JPG,ISIC_1166740.JPG,false,1,keypress(m),500,292868.8000000715,292868.5,288151.464,288146.10000002384,288168.247,292884.191,8,400,18,,ISIC_0030077.JPG
break,html.Screen,4_67_1,2023-05-02T14:33:56.408Z,,0,,,NaN,,,,,,false,,,,292870.5,292869.90000009537,,292869.2000000477,,292884.191,8,400,,,
break_continue,html.Screen,4_67_2,2023-05-02T14:33:56.408Z,,0,,,NaN,,,,,,false,,,,292871.10000002384,292870.90000009537,,292870.7000000477,,292884.191,8,400,,,
sequence,flow.Sequence,4_67,2023-05-02T14:33:56.408Z,,0,,,4702.6530000953935,completion,,,,,false,,,,292871.3000000715,292870.90000009537,288151.464,288146.10000002384,288168.247,292884.191,8,400,,,
trial,html.Screen,4_68_0,2023-05-02T14:34:02.308Z,,0,2,,5887.009000047692,response,ISIC_3826102.JPG,,ISIC_8636706.JPG,ISIC_8636706.JPG,false,0,keypress(z),500,298771.40000009537,298771.2000000477,292867.781,292871.5,292884.191,298783.805,8,400,19,,ISIC_3826102.JPG
break,html.Screen,4_68_1,2023-05-02T14:34:02.310Z,,0,,,NaN,,,,,,false,,,,298773,298772.7000000477,,298771.7000000477,,298783.805,8,400,,,
break_continue,html.Screen,4_68_2,2023-05-02T14:34:02.310Z,,0,,,NaN,,,,,,false,,,,298773.5,298773.40000009537,,298773.2000000477,,298783.805,8,400,,,
sequence,flow.Sequence,4_68,2023-05-02T14:34:02.311Z,,0,,,5889.209000095376,completion,,,,,false,,,,298773.8000000715,298773.40000009537,292867.781,292871.40000009537,292884.191,298783.805,8,400,,,
trial,html.Screen,4_69_0,2023-05-02T14:34:05.298Z,,0,2,,2976.8950000476907,response,ISIC_0029652.JPG,,ISIC_1585511.JPG,ISIC_0029652.JPG,false,1,keypress(m),500,301761.2000000477,301760.7000000477,298767.883,298773.90000009537,298783.805,301766.863,8,400,20,,ISIC_1585511.JPG
break,html.Screen,4_69_1,2023-05-02T14:34:05.300Z,,0,,,NaN,,,,,,false,,,,301763.40000009537,301762.8000000715,,301761.60000002384,,301766.863,8,400,,,
break_continue,html.Screen,4_69_2,2023-05-02T14:34:05.301Z,,0,,,NaN,,,,,,false,,,,301764.3000000715,301764,,301763.7000000477,,301766.863,8,400,,,
sequence,flow.Sequence,4_69,2023-05-02T14:34:05.302Z,,0,,,2980.195000000007,completion,,,,,false,,,,301764.7000000477,301764,298767.883,298773.8000000715,298783.805,301766.863,8,400,,,
trial,html.Screen,4_70_0,2023-05-02T14:34:08.339Z,,0,2,,3035.0370000953553,response,ISIC_3072382.JPG,,ISIC_0030769.JPG,ISIC_3072382.JPG,false,1,keypress(m),500,304802.3000000715,304801.90000009537,301750.498,301764.90000009537,301766.863,304816.884,8,400,21,,ISIC_0030769.JPG
break,html.Screen,4_70_1,2023-05-02T14:34:08.341Z,,0,,,NaN,,,,,,false,,,,304803.8000000715,304803.40000009537,,304802.60000002384,,304816.884,8,400,,,
break_continue,html.Screen,4_70_2,2023-05-02T14:34:08.341Z,,0,,,NaN,,,,,,false,,,,304804.40000009537,304804.3000000715,,304804,,304816.884,8,400,,,
sequence,flow.Sequence,4_70,2023-05-02T14:34:08.342Z,,0,,,3037.4370000715135,completion,,,,,false,,,,304804.60000002384,304804.3000000715,301750.498,301764.8000000715,301766.863,304816.884,8,400,,,
trial,html.Screen,4_71_0,2023-05-02T14:34:11.347Z,,0,2,,2993.216000023822,response,ISIC_0057696.JPG,,ISIC_0054053.JPG,ISIC_0057696.JPG,false,1,keypress(m),500,307810.40000009537,307810.10000002384,304800.516,304804.8000000715,304816.884,307816.547,8,400,22,,ISIC_0054053.JPG
break,html.Screen,4_71_1,2023-05-02T14:34:11.349Z,,0,,,NaN,,,,,,false,,,,307812.40000009537,307811.90000009537,,307810.8000000715,,307816.547,8,400,,,
break_continue,html.Screen,4_71_2,2023-05-02T14:34:11.350Z,,0,,,NaN,,,,,,false,,,,307813.2000000477,307812.90000009537,,307812.5,,307816.547,8,400,,,
sequence,flow.Sequence,4_71,2023-05-02T14:34:11.350Z,,0,,,2996.0160000953474,completion,,,,,false,,,,307813.40000009537,307812.90000009537,304800.516,304804.8000000715,304816.884,307816.547,8,400,,,
trial,html.Screen,4_72_0,2023-05-02T14:34:13.875Z,,0,2,,2521.153000047663,response,ISIC_8024841.JPG,,ISIC_0024792.JPG,ISIC_8024841.JPG,false,1,keypress(m),500,310338,310337.7000000477,307799.823,307813.60000002384,307816.547,310350.281,8,400,23,,ISIC_0024792.JPG
break,html.Screen,4_72_1,2023-05-02T14:34:13.876Z,,0,,,NaN,,,,,,false,,,,310339.2000000477,310338.90000009537,,310338.10000002384,,310350.281,8,400,,,
break_continue,html.Screen,4_72_2,2023-05-02T14:34:13.876Z,,0,,,NaN,,,,,,false,,,,310339.5,310339.40000009537,,310339.3000000715,,310350.281,8,400,,,
sequence,flow.Sequence,4_72,2023-05-02T14:34:13.877Z,,0,,,2522.853000095347,completion,,,,,false,,,,310339.60000002384,310339.40000009537,307799.823,307813.60000002384,307816.547,310350.281,8,400,,,
trial,html.Screen,4_73_0,2023-05-02T14:34:16.480Z,,0,2,,2592.7189999999828,response,ISIC_0000393.JPG,,ISIC_9499787.JPG,ISIC_0000393.JPG,false,1,keypress(m),500,312943.40000009537,312943,310333.552,310339.7000000477,310350.281,312949.573,8,400,24,,ISIC_9499787.JPG
break,html.Screen,4_73_1,2023-05-02T14:34:16.482Z,,0,,,NaN,,,,,,false,,,,312944.90000009537,312944.3000000715,,312943.60000002384,,312949.573,8,400,,,
break_continue,html.Screen,4_73_2,2023-05-02T14:34:16.482Z,,0,,,NaN,,,,,,false,,,,312945.5,312945.40000009537,,312945,,312949.573,8,400,,,
sequence,flow.Sequence,4_73,2023-05-02T14:34:16.483Z,,0,,,2595.11900009535,completion,,,,,false,,,,312945.60000002384,312945.40000009537,310333.552,310339.7000000477,310350.281,312949.573,8,400,,,
trial,html.Screen,4_74_0,2023-05-02T14:34:19.713Z,,0,2,,3226.2270000715507,response,ISIC_4643298.JPG,,ISIC_0032762.JPG,ISIC_0032762.JPG,false,0,keypress(z),500,316176.10000002384,316175.8000000715,312933.014,312945.7000000477,312949.573,316182.699,8,400,25,,ISIC_4643298.JPG
break,html.Screen,4_74_1,2023-05-02T14:34:19.714Z,,0,,,NaN,,,,,,false,,,,316177.40000009537,316176.90000009537,,316176.3000000715,,316182.699,8,400,,,
break_continue,html.Screen,4_74_2,2023-05-02T14:34:19.715Z,,0,,,NaN,,,,,,false,,,,316178,316177.8000000715,,316177.5,,316182.699,8,400,,,
sequence,flow.Sequence,4_74,2023-05-02T14:34:19.715Z,,0,,,3228.2270000715507,completion,,,,,false,,,,316178.10000002384,316177.8000000715,312933.014,312945.7000000477,312949.573,316182.699,8,400,,,
trial,html.Screen,4_75_0,2023-05-02T14:34:22.223Z,,0,2,,2503.201000095345,response,ISIC_0024808.JPG,,ISIC_0011211.JPG,ISIC_0024808.JPG,false,1,keypress(m),500,318686.2000000477,318685.90000009537,316166.98,316178.3000000715,316182.699,318699.795,8,400,26,,ISIC_0011211.JPG
break,html.Screen,4_75_1,2023-05-02T14:34:22.225Z,,0,,,NaN,,,,,,false,,,,318687.90000009537,318687.40000009537,,318686.5,,318699.795,8,400,,,
break_continue,html.Screen,4_75_2,2023-05-02T14:34:22.225Z,,0,,,NaN,,,,,,false,,,,318688.5,318688.3000000715,,318688.10000002384,,318699.795,8,400,,,
sequence,flow.Sequence,4_75,2023-05-02T14:34:22.226Z,,0,,,2505.601000071503,completion,,,,,false,,,,318688.7000000477,318688.3000000715,316166.98,316178.3000000715,316182.699,318699.795,8,400,,,
trial,html.Screen,4_76_0,2023-05-02T14:34:24.735Z,,0,2,,2497.4050000477,response,ISIC_4074537.JPG,,ISIC_0030237.JPG,ISIC_4074537.JPG,false,1,keypress(m),500,321197.60000002384,321197.2000000477,318682.531,318688.90000009537,318699.795,321199.209,8,400,27,,ISIC_0030237.JPG
break,html.Screen,4_76_1,2023-05-02T14:34:24.737Z,,0,,,NaN,,,,,,false,,,,321200,321198.90000009537,,321198,,321199.209,8,400,,,
break_continue,html.Screen,4_76_2,2023-05-02T14:34:24.738Z,,0,,,NaN,,,,,,false,,,,321201.2000000477,321200.90000009537,,321200.40000009537,,321199.209,8,400,,,
sequence,flow.Sequence,4_76,2023-05-02T14:34:24.738Z,,0,,,2501.1050000953837,completion,,,,,false,,,,321201.5,321200.90000009537,318682.531,318688.8000000715,318699.795,321199.209,8,400,,,
trial,html.Screen,4_77_0,2023-05-02T14:34:27.277Z,,0,2,,2539.9910000477103,response,ISIC_0032596.JPG,,ISIC_0059411.JPG,ISIC_0032596.JPG,false,1,keypress(m),500,323739.60000002384,323739.2000000477,321182.847,321201.90000009537,321199.209,323748.946,8,400,28,,ISIC_0059411.JPG
break,html.Screen,4_77_1,2023-05-02T14:34:27.278Z,,0,,,NaN,,,,,,false,,,,323741.5,323740.8000000715,,323739.90000009537,,323748.946,8,400,,,
break_continue,html.Screen,4_77_2,2023-05-02T14:34:27.279Z,,0,,,NaN,,,,,,false,,,,323742.10000002384,323741.90000009537,,323741.7000000477,,323748.946,8,400,,,
sequence,flow.Sequence,4_77,2023-05-02T14:34:27.279Z,,0,,,2542.691000095394,completion,,,,,false,,,,323742.40000009537,323741.90000009537,321182.847,321201.8000000715,321199.209,323748.946,8,400,,,
trial,html.Screen,4_78_0,2023-05-02T14:34:29.901Z,,0,2,,2614.1540000238456,response,ISIC_8561963.JPG,,ISIC_2783450.JPG,ISIC_2783450.JPG,false,0,keypress(z),500,326363.7000000477,326363.10000002384,323732.334,323742.5,323748.946,326382.099,8,400,29,,ISIC_8561963.JPG
break,html.Screen,4_78_1,2023-05-02T14:34:29.904Z,,0,,,NaN,,,,,,false,,,,326367.10000002384,326365,,326364,,326382.099,8,400,,,
break_continue,html.Screen,4_78_2,2023-05-02T14:34:29.905Z,,0,,,NaN,,,,,,false,,,,326368.40000009537,326368,,326367.40000009537,,326382.099,8,400,,,
sequence,flow.Sequence,4_78,2023-05-02T14:34:29.906Z,,0,,,2619.0540000000037,completion,,,,,false,,,,326368.90000009537,326368,323732.334,323742.5,323748.946,326382.099,8,400,,,
trial,html.Screen,4_79_0,2023-05-02T14:34:32.552Z,,0,2,,2632.1010000476963,response,ISIC_0014229.JPG,,ISIC_0012721.JPG,ISIC_0012721.JPG,false,0,keypress(z),500,329014.7000000477,329014.2000000477,326366.008,326369.10000002384,326382.099,329048.748,8,400,30,,ISIC_0014229.JPG
break,html.Screen,4_79_1,2023-05-02T14:34:32.553Z,,0,,,NaN,,,,,,false,,,,329016.3000000715,329015.5,,329015,,329048.748,8,400,,,
break_continue,html.Screen,4_79_2,2023-05-02T14:34:32.554Z,,0,,,NaN,,,,,,false,,,,329016.7000000477,329016.60000002384,,329016.40000009537,,329048.748,8,400,,,
sequence,flow.Sequence,4_79,2023-05-02T14:34:32.554Z,,0,,,2634.5010000238544,completion,,,,,false,,,,329016.8000000715,329016.60000002384,326366.008,326369,326382.099,329048.748,8,400,,,
trial,html.Screen,4_80_0,2023-05-02T14:34:34.995Z,,0,2,,2408.4520000476623,response,ISIC_1169724.JPG,,ISIC_8724944.JPG,ISIC_1169724.JPG,false,1,keypress(m),500,331457.60000002384,331457.2000000477,329032.204,329016.90000009537,329048.748,331465.161,8,400,31,,ISIC_8724944.JPG
break,html.Screen,4_80_1,2023-05-02T14:34:34.996Z,,0,,,NaN,,,,,,false,,,,331459.3000000715,331458.60000002384,,331457.8000000715,,331465.161,8,400,,,
break_continue,html.Screen,4_80_2,2023-05-02T14:34:34.997Z,,0,,,NaN,,,,,,false,,,,331460,331459.8000000715,,331459.60000002384,,331465.161,8,400,,,
sequence,flow.Sequence,4_80,2023-05-02T14:34:34.997Z,,0,,,2411.052000071504,completion,,,,,false,,,,331460.2000000477,331459.8000000715,329032.204,329016.90000009537,329048.748,331465.161,8,400,,,
trial,html.Screen,4_81_0,2023-05-02T14:34:37.155Z,,0,2,,2152.6390000715037,response,ISIC_0024688.JPG,,ISIC_6113524.JPG,ISIC_0024688.JPG,false,1,keypress(m),500,333618.10000002384,333617.8000000715,331448.947,331460.40000009537,331465.161,333632.079,8,400,32,,ISIC_6113524.JPG
break,html.Screen,4_81_1,2023-05-02T14:34:37.157Z,,0,,,NaN,,,,,,false,,,,333619.60000002384,333619,,333618.40000009537,,333632.079,8,400,,,
break_continue,html.Screen,4_81_2,2023-05-02T14:34:37.157Z,,0,,,NaN,,,,,,false,,,,333620.3000000715,333620,,333619.8000000715,,333632.079,8,400,,,
sequence,flow.Sequence,4_81,2023-05-02T14:34:37.157Z,,0,,,2154.838999999978,completion,,,,,false,,,,333620.5,333620,331448.947,331460.40000009537,331465.161,333632.079,8,400,,,
trial,html.Screen,4_82_0,2023-05-02T14:34:39.860Z,,0,2,,2690.7210000714986,response,ISIC_0008630.JPG,,ISIC_0026087.JPG,ISIC_0026087.JPG,false,0,keypress(z),500,336322.90000009537,336322.8000000715,333615.737,333620.60000002384,333632.079,336331.523,8,400,33,,ISIC_0008630.JPG
break,html.Screen,4_82_1,2023-05-02T14:34:39.861Z,,0,,,NaN,,,,,,false,,,,336323.7000000477,336323.5,,336323.10000002384,,336331.523,8,400,,,
break_continue,html.Screen,4_82_2,2023-05-02T14:34:39.861Z,,0,,,NaN,,,,,,false,,,,336324,336323.90000009537,,336323.8000000715,,336331.523,8,400,,,
sequence,flow.Sequence,4_82,2023-05-02T14:34:39.861Z,,0,,,2691.8210000953404,completion,,,,,false,,,,336324.10000002384,336323.90000009537,333615.737,333620.60000002384,333632.079,336331.523,8,400,,,
trial,html.Screen,4_83_0,2023-05-02T14:34:42.365Z,,0,2,,2496.377000095381,response,ISIC_6663112.JPG,,ISIC_3069695.JPG,ISIC_3069695.JPG,false,0,keypress(z),500,338828.3000000715,338827.90000009537,336314.911,336324.2000000477,336331.523,338831.434,8,400,34,,ISIC_6663112.JPG
break,html.Screen,4_83_1,2023-05-02T14:34:42.367Z,,0,,,NaN,,,,,,false,,,,338829.8000000715,338829.10000002384,,338828.40000009537,,338831.434,8,400,,,
break_continue,html.Screen,4_83_2,2023-05-02T14:34:42.367Z,,0,,,NaN,,,,,,false,,,,338830.40000009537,338830.3000000715,,338830,,338831.434,8,400,,,
sequence,flow.Sequence,4_83,2023-05-02T14:34:42.368Z,,0,,,2498.777000071539,completion,,,,,false,,,,338830.60000002384,338830.3000000715,336314.911,336324.2000000477,336331.523,338831.434,8,400,,,
trial,html.Screen,4_84_0,2023-05-02T14:34:44.973Z,,0,2,,2603.966000095359,response,ISIC_0536321.JPG,,ISIC_0806138.JPG,ISIC_0536321.JPG,false,1,keypress(m),500,341435.60000002384,341435.40000009537,338814.87,338830.8000000715,338831.434,341448.036,8,400,35,,ISIC_0806138.JPG
break,html.Screen,4_84_1,2023-05-02T14:34:44.973Z,,0,,,NaN,,,,,,false,,,,341436.5,341436.3000000715,,341435.8000000715,,341448.036,8,400,,,
break_continue,html.Screen,4_84_2,2023-05-02T14:34:44.974Z,,0,,,NaN,,,,,,false,,,,341437.10000002384,341437.10000002384,,341436.8000000715,,341448.036,8,400,,,
sequence,flow.Sequence,4_84,2023-05-02T14:34:44.974Z,,0,,,2605.6660000238335,completion,,,,,false,,,,341437.2000000477,341437.10000002384,338814.87,338830.7000000477,338831.434,341448.036,8,400,,,
trial,html.Screen,4_85_0,2023-05-02T14:34:47.474Z,,0,2,,2488.2640000715037,response,ISIC_0011959.JPG,,ISIC_6105084.JPG,ISIC_6105084.JPG,false,0,keypress(z),500,343936.7000000477,343936.3000000715,341431.89,341437.3000000715,341448.036,343948.103,8,400,36,,ISIC_0011959.JPG
break,html.Screen,4_85_1,2023-05-02T14:34:47.475Z,,0,,,NaN,,,,,,false,,,,343938.3000000715,343937.60000002384,,343936.90000009537,,343948.103,8,400,,,
break_continue,html.Screen,4_85_2,2023-05-02T14:34:47.476Z,,0,,,NaN,,,,,,false,,,,343938.90000009537,343938.7000000477,,343938.40000009537,,343948.103,8,400,,,
sequence,flow.Sequence,4_85,2023-05-02T14:34:47.476Z,,0,,,2490.664000047662,completion,,,,,false,,,,343939.10000002384,343938.7000000477,341431.89,341437.3000000715,341448.036,343948.103,8,400,,,
trial,html.Screen,4_86_0,2023-05-02T14:34:49.937Z,,0,2,,2451.597000047681,response,ISIC_0032742.JPG,,ISIC_4574865.JPG,ISIC_4574865.JPG,false,0,keypress(z),500,346400,346399.7000000477,343931.296,343939.3000000715,343948.103,346431.57,8,400,37,,ISIC_0032742.JPG
break,html.Screen,4_86_1,2023-05-02T14:34:49.938Z,,0,,,NaN,,,,,,false,,,,346401.2000000477,346400.8000000715,,346400.3000000715,,346431.57,8,400,,,
break_continue,html.Screen,4_86_2,2023-05-02T14:34:49.939Z,,0,,,NaN,,,,,,false,,,,346401.7000000477,346401.5,,346401.3000000715,,346431.57,8,400,,,
sequence,flow.Sequence,4_86,2023-05-02T14:34:49.939Z,,0,,,2453.396999999997,completion,,,,,false,,,,346401.90000009537,346401.5,343931.296,343939.3000000715,343948.103,346431.57,8,400,,,
trial,html.Screen,4_87_0,2023-05-02T14:34:52.416Z,,0,2,,2447.1300000476767,response,ISIC_8589961.JPG,,ISIC_1057521.JPG,ISIC_1057521.JPG,false,0,keypress(z),500,348879,348878.7000000477,346414.718,346402.10000002384,346431.57,348897.599,8,400,38,,ISIC_8589961.JPG
break,html.Screen,4_87_1,2023-05-02T14:34:52.416Z,,0,,,NaN,,,,,,false,,,,348879.5,348879.40000009537,,348879.10000002384,,348897.599,8,400,,,
break_continue,html.Screen,4_87_2,2023-05-02T14:34:52.417Z,,0,,,NaN,,,,,,false,,,,348879.7000000477,348879.7000000477,,348879.60000002384,,348897.599,8,400,,,
sequence,flow.Sequence,4_87,2023-05-02T14:34:52.417Z,,0,,,2448.1300000476767,completion,,,,,false,,,,348879.8000000715,348879.7000000477,346414.718,346401.90000009537,346431.57,348897.599,8,400,,,
trial,html.Screen,4_88_0,2023-05-02T14:34:54.745Z,,0,2,,2310.4010000000126,response,ISIC_4347535.JPG,,ISIC_0011150.JPG,ISIC_0011150.JPG,false,0,keypress(z),500,351208.3000000715,351208,348880.787,348879.8000000715,348897.599,351213.998,8,400,39,,ISIC_4347535.JPG
break,html.Screen,4_88_1,2023-05-02T14:34:54.747Z,,0,,,NaN,,,,,,false,,,,351210,351209.8000000715,,351208.8000000715,,351213.998,8,400,,,
break_continue,html.Screen,4_88_2,2023-05-02T14:34:54.747Z,,0,,,NaN,,,,,,false,,,,351210.3000000715,351210.2000000477,,351210.10000002384,,351213.998,8,400,,,
sequence,flow.Sequence,4_88,2023-05-02T14:34:54.747Z,,0,,,2312.6010000476963,completion,,,,,false,,,,351210.5,351210.2000000477,348880.787,348879.8000000715,348897.599,351213.998,8,400,,,
trial,html.Screen,4_89_0,2023-05-02T14:34:57.281Z,,0,2,,2530.5019999999786,response,ISIC_3256116.JPG,,ISIC_0012068.JPG,ISIC_3256116.JPG,false,1,keypress(m),500,353744.8000000715,353744.5,351197.303,351210.5,351213.998,353764.052,8,400,40,,ISIC_0012068.JPG
break,html.Screen,4_89_1,2023-05-02T14:34:57.282Z,,0,,,NaN,,,,,,false,,,,353745.40000009537,353745.3000000715,,353744.90000009537,,353764.052,8,400,,,
break_continue,html.Screen,4_89_2,2023-05-02T14:34:57.282Z,,0,,,NaN,,,,,,false,,,,353745.60000002384,353745.60000002384,,353745.5,,353764.052,8,400,,,
sequence,flow.Sequence,4_89,2023-05-02T14:34:57.282Z,,0,,,2531.6020000238204,completion,,,,,false,,,,353745.7000000477,353745.60000002384,351197.303,351210.5,351213.998,353764.052,8,400,,,
trial,html.Screen,4_90_0,2023-05-02T14:34:59.903Z,,0,2,,2602.0480000238167,response,ISIC_0033986.JPG,,ISIC_5382189.JPG,ISIC_0033986.JPG,false,1,keypress(m),500,356366.3000000715,356366.10000002384,353747.342,353745.8000000715,353764.052,356380.393,8,400,41,,ISIC_5382189.JPG
break,html.Screen,4_90_1,2023-05-02T14:34:59.904Z,,0,,,NaN,,,,,,false,,,,356367.40000009537,356367.10000002384,,356366.5,,356380.393,8,400,,,
break_continue,html.Screen,4_90_2,2023-05-02T14:34:59.904Z,,0,,,NaN,,,,,,false,,,,356367.7000000477,356367.60000002384,,356367.40000009537,,356380.393,8,400,,,
sequence,flow.Sequence,4_90,2023-05-02T14:34:59.904Z,,0,,,2603.5480000238167,completion,,,,,false,,,,356367.8000000715,356367.60000002384,353747.342,353745.8000000715,353764.052,356380.393,8,400,,,
trial,html.Screen,4_91_0,2023-05-02T14:35:02.551Z,,0,2,,2634.20700002386,response,ISIC_0031406.JPG,,ISIC_0247330.JPG,ISIC_0247330.JPG,false,0,keypress(z),500,359014.8000000715,359014.60000002384,356363.633,356367.90000009537,356380.393,359030.232,8,400,42,,ISIC_0031406.JPG
break,html.Screen,4_91_1,2023-05-02T14:35:02.552Z,,0,,,NaN,,,,,,false,,,,359015.60000002384,359015.40000009537,,359015,,359030.232,8,400,,,
break_continue,html.Screen,4_91_2,2023-05-02T14:35:02.553Z,,0,,,NaN,,,,,,false,,,,359016.10000002384,359016,,359015.8000000715,,359030.232,8,400,,,
sequence,flow.Sequence,4_91,2023-05-02T14:35:02.553Z,,0,,,2635.607000000018,completion,,,,,false,,,,359016.3000000715,359016,356363.633,356367.90000009537,356380.393,359030.232,8,400,,,
trial,html.Screen,4_92_0,2023-05-02T14:35:05.168Z,,0,2,,2600.6680000953493,response,ISIC_4014307.JPG,,ISIC_6931712.JPG,ISIC_6931712.JPG,false,0,keypress(z),500,361631.3000000715,361630.90000009537,359013.669,359016.3000000715,359030.232,361646.768,8,400,43,,ISIC_4014307.JPG
break,html.Screen,4_92_1,2023-05-02T14:35:05.169Z,,0,,,NaN,,,,,,false,,,,361632.8000000715,361632.2000000477,,361631.60000002384,,361646.768,8,400,,,
break_continue,html.Screen,4_92_2,2023-05-02T14:35:05.170Z,,0,,,NaN,,,,,,false,,,,361633.40000009537,361633.2000000477,,361632.90000009537,,361646.768,8,400,,,
sequence,flow.Sequence,4_92,2023-05-02T14:35:05.170Z,,0,,,2602.9680000476656,completion,,,,,false,,,,361633.60000002384,361633.2000000477,359013.669,359016.3000000715,359030.232,361646.768,8,400,,,
trial,html.Screen,4_93_0,2023-05-02T14:35:07.694Z,,0,2,,2510.732000000018,response,ISIC_0033427.JPG,,ISIC_7875088.JPG,ISIC_7875088.JPG,false,0,keypress(z),500,364157.8000000715,364157.5,361630.68,361633.7000000477,361646.768,364163.351,8,400,44,,ISIC_0033427.JPG
break,html.Screen,4_93_1,2023-05-02T14:35:07.695Z,,0,,,NaN,,,,,,false,,,,364158.7000000477,364158.60000002384,,364158,,364163.351,8,400,,,
break_continue,html.Screen,4_93_2,2023-05-02T14:35:07.696Z,,0,,,NaN,,,,,,false,,,,364159.40000009537,364159.3000000715,,364159,,364163.351,8,400,,,
sequence,flow.Sequence,4_93,2023-05-02T14:35:07.696Z,,0,,,2512.5320000715437,completion,,,,,false,,,,364159.5,364159.3000000715,361630.68,361633.7000000477,361646.768,364163.351,8,400,,,
trial,html.Screen,4_94_0,2023-05-02T14:35:10.217Z,,0,2,,2516.4490000715014,response,ISIC_0014765.JPG,,ISIC_2605120.JPG,ISIC_2605120.JPG,false,0,keypress(z),500,366680.40000009537,366679.8000000715,364147.27,364159.7000000477,364163.351,366696.604,8,400,45,,ISIC_0014765.JPG
break,html.Screen,4_94_1,2023-05-02T14:35:10.218Z,,0,,,NaN,,,,,,false,,,,366681.90000009537,366681.3000000715,,366680.7000000477,,366696.604,8,400,,,
break_continue,html.Screen,4_94_2,2023-05-02T14:35:10.219Z,,0,,,NaN,,,,,,false,,,,366682.5,366682.40000009537,,366682.10000002384,,366696.604,8,400,,,
sequence,flow.Sequence,4_94,2023-05-02T14:35:10.219Z,,0,,,2519.049000095343,completion,,,,,false,,,,366682.7000000477,366682.40000009537,364147.27,364159.60000002384,364163.351,366696.604,8,400,,,
trial,html.Screen,4_95_0,2023-05-02T14:35:13.013Z,,0,2,,2779.396000000008,response,ISIC_9155028.JPG,,ISIC_3430953.JPG,ISIC_3430953.JPG,false,0,keypress(z),500,369476.5,369476,366679.936,366683.10000002384,366696.604,369479.64,8,400,46,,ISIC_9155028.JPG
break,html.Screen,4_95_1,2023-05-02T14:35:13.015Z,,0,,,NaN,,,,,,false,,,,369478.2000000477,369477.7000000477,,369476.7000000477,,369479.64,8,400,,,
break_continue,html.Screen,4_95_2,2023-05-02T14:35:13.015Z,,0,,,NaN,,,,,,false,,,,369479,369478.8000000715,,369478.40000009537,,369479.64,8,400,,,
sequence,flow.Sequence,4_95,2023-05-02T14:35:13.016Z,,0,,,2782.1960000715335,completion,,,,,false,,,,369479.10000002384,369478.8000000715,366679.936,366683.10000002384,366696.604,369479.64,8,400,,,
trial,html.Screen,4_96_0,2023-05-02T14:35:15.524Z,,0,2,,2507.2600000953535,response,ISIC_0061021.JPG,,ISIC_0002821.JPG,ISIC_0002821.JPG,false,0,keypress(z),500,371987.2000000477,371986.90000009537,369463.374,369479.40000009537,369479.64,371996.383,8,400,47,,ISIC_0061021.JPG
break,html.Screen,4_96_1,2023-05-02T14:35:15.526Z,,0,,,NaN,,,,,,false,,,,371989.2000000477,371988.60000002384,,371987.5,,371996.383,8,400,,,
break_continue,html.Screen,4_96_2,2023-05-02T14:35:15.526Z,,0,,,NaN,,,,,,false,,,,371989.7000000477,371989.5,,371989.3000000715,,371996.383,8,400,,,
sequence,flow.Sequence,4_96,2023-05-02T14:35:15.526Z,,0,,,2509.859999999986,completion,,,,,false,,,,371989.8000000715,371989.5,369463.374,369479.3000000715,369479.64,371996.383,8,400,,,
trial,html.Screen,4_97_0,2023-05-02T14:35:17.889Z,,0,2,,2356.1170000000275,response,ISIC_6628544.JPG,,ISIC_5552381.JPG,ISIC_6628544.JPG,false,1,keypress(m),500,374352.8000000715,374352.5,371980.09,371989.90000009537,371996.383,374379.756,8,400,48,,ISIC_5552381.JPG
break,html.Screen,4_97_1,2023-05-02T14:35:17.890Z,,0,,,NaN,,,,,,false,,,,374353.60000002384,374353.3000000715,,374352.90000009537,,374379.756,8,400,,,
break_continue,html.Screen,4_97_2,2023-05-02T14:35:17.890Z,,0,,,NaN,,,,,,false,,,,374354,374353.8000000715,,374353.60000002384,,374379.756,8,400,,,
sequence,flow.Sequence,4_97,2023-05-02T14:35:17.891Z,,0,,,2357.417000071553,completion,,,,,false,,,,374354.10000002384,374353.8000000715,371980.09,371989.8000000715,371996.383,374379.756,8,400,,,
trial,html.Screen,4_98_0,2023-05-02T14:35:21.397Z,,0,2,,3480.244000000006,response,ISIC_7084553.JPG,,ISIC_0025265.JPG,ISIC_7084553.JPG,false,1,keypress(m),500,377860.5,377860,374363.268,374354.2000000477,374379.756,377891.939,8,400,49,,ISIC_0025265.JPG
break,html.Screen,4_98_1,2023-05-02T14:35:21.399Z,,0,,,NaN,,,,,,false,,,,377862.2000000477,377861.5,,377860.8000000715,,377891.939,8,400,,,
break_continue,html.Screen,4_98_2,2023-05-02T14:35:21.399Z,,0,,,NaN,,,,,,false,,,,377862.90000009537,377862.7000000477,,377862.3000000715,,377891.939,8,400,,,
sequence,flow.Sequence,4_98,2023-05-02T14:35:21.400Z,,0,,,3482.9440000476898,completion,,,,,false,,,,377863.5,377862.7000000477,374363.268,374354.2000000477,374379.756,377891.939,8,400,,,
trial,html.Screen,4_99_0,2023-05-02T14:35:24.139Z,,0,2,,2709.7610000476707,response,ISIC_0000349.JPG,,ISIC_0497390.JPG,ISIC_0000349.JPG,false,1,keypress(m),500,380602.10000002384,380601.7000000477,377845.791,377863.8000000715,377891.939,380612.603,8,400,50,,ISIC_0497390.JPG
break,html.Screen,4_99_1,2023-05-02T14:35:29.134Z,,0,,,5000.048999999999,timeout,,,,,false,,,,385597.2000000477,385595.947,380596.846,380602.3000000715,380612.603,385612.652,8,400,,,
break_continue,html.Screen,4_99_2,2023-05-02T14:35:31.348Z,,0,,,2157.6480000715237,response,,,,,false,continue,keypress(Space),,387811.40000009537,387770.3000000715,385595.947,385597.40000009537,385612.652,387828.631,8,400,,,
sequence,flow.Sequence,4_99,2023-05-02T14:35:31.348Z,,0,,,9878.361000071513,completion,,,,,false,,,,387811.5,387770.3000000715,377845.791,377863.7000000477,377891.939,387828.631,8,400,,,
trial,html.Screen,4_100_0,2023-05-02T14:35:34.815Z,,0,3,,3449.2690000953735,response,ISIC_4359258.JPG,,ISIC_2202486.JPG,ISIC_4359258.JPG,false,1,keypress(m),500,391278.2000000477,391277.90000009537,387795.959,387811.5,387828.631,391282.794,8,400,1,,ISIC_2202486.JPG
break,html.Screen,4_100_1,2023-05-02T14:35:34.817Z,,0,,,NaN,,,,,,false,,,,391280.10000002384,391279.90000009537,,391278.40000009537,,391282.794,8,400,,,
break_continue,html.Screen,4_100_2,2023-05-02T14:35:34.817Z,,0,,,NaN,,,,,,false,,,,391280.3000000715,391280.3000000715,,391280.2000000477,,391282.794,8,400,,,
sequence,flow.Sequence,4_100,2023-05-02T14:35:34.817Z,,0,,,3451.6690000715316,completion,,,,,false,,,,391280.5,391280.3000000715,387795.959,387811.5,387828.631,391282.794,8,400,,,
trial,html.Screen,4_101_0,2023-05-02T14:35:37.489Z,,0,3,,2668.8060000238474,response,ISIC_0024586.JPG,,ISIC_8943855.JPG,ISIC_0024586.JPG,false,1,keypress(m),500,393952,393951.60000002384,391278.171,391280.5,391282.794,393961.644,8,400,2,,ISIC_8943855.JPG
break,html.Screen,4_101_1,2023-05-02T14:35:37.490Z,,0,,,NaN,,,,,,false,,,,393953.40000009537,393953,,393952.5,,393961.644,8,400,,,
break_continue,html.Screen,4_101_2,2023-05-02T14:35:37.491Z,,0,,,NaN,,,,,,false,,,,393954.60000002384,393954.2000000477,,393954,,393961.644,8,400,,,
sequence,flow.Sequence,4_101,2023-05-02T14:35:37.491Z,,0,,,2671.4060000476893,completion,,,,,false,,,,393954.90000009537,393954.2000000477,391278.171,391280.5,391282.794,393961.644,8,400,,,
trial,html.Screen,4_102_0,2023-05-02T14:35:40.224Z,,0,3,,2725.5560000477126,response,ISIC_0027170.JPG,,ISIC_1601784.JPG,ISIC_0027170.JPG,false,1,keypress(m),500,396687.60000002384,396687.2000000477,393945.441,393955.10000002384,393961.644,396694.714,8,400,3,,ISIC_1601784.JPG
break,html.Screen,4_102_1,2023-05-02T14:35:40.226Z,,0,,,NaN,,,,,,false,,,,396689.40000009537,396688.7000000477,,396687.90000009537,,396694.714,8,400,,,
break_continue,html.Screen,4_102_2,2023-05-02T14:35:40.227Z,,0,,,NaN,,,,,,false,,,,396690,396689.90000009537,,396689.60000002384,,396694.714,8,400,,,
sequence,flow.Sequence,4_102,2023-05-02T14:35:40.227Z,,0,,,2728.2560000953963,completion,,,,,false,,,,396690.3000000715,396689.90000009537,393945.441,393955,393961.644,396694.714,8,400,,,
trial,html.Screen,4_103_0,2023-05-02T14:35:43.462Z,,0,3,,3230.786000000022,response,ISIC_9152603.JPG,,ISIC_0058781.JPG,ISIC_0058781.JPG,false,0,keypress(z),500,399925.90000009537,399925.5,396678.867,396690.40000009537,396694.714,399945.226,8,400,4,,ISIC_9152603.JPG
break,html.Screen,4_103_1,2023-05-02T14:35:43.464Z,,0,,,NaN,,,,,,false,,,,399927.10000002384,399926.8000000715,,399926.10000002384,,399945.226,8,400,,,
break_continue,html.Screen,4_103_2,2023-05-02T14:35:43.464Z,,0,,,NaN,,,,,,false,,,,399927.8000000715,399927.5,,399927.3000000715,,399945.226,8,400,,,
sequence,flow.Sequence,4_103,2023-05-02T14:35:43.465Z,,0,,,3232.786000000022,completion,,,,,false,,,,399928,399927.5,396678.867,396690.40000009537,396694.714,399945.226,8,400,,,
trial,html.Screen,4_104_0,2023-05-02T14:35:46.173Z,,0,3,,2691.174000095343,response,ISIC_0065889.JPG,,ISIC_0012391.JPG,ISIC_0012391.JPG,false,0,keypress(z),500,402636.90000009537,402636.40000009537,399928.153,399928.5,399945.226,402644.553,8,400,5,,ISIC_0065889.JPG
break,html.Screen,4_104_1,2023-05-02T14:35:46.175Z,,0,,,NaN,,,,,,false,,,,402638.5,402638,,402637.3000000715,,402644.553,8,400,,,
break_continue,html.Screen,4_104_2,2023-05-02T14:35:46.176Z,,0,,,NaN,,,,,,false,,,,402639.2000000477,402639,,402638.7000000477,,402644.553,8,400,,,
sequence,flow.Sequence,4_104,2023-05-02T14:35:46.176Z,,0,,,2693.773999999976,completion,,,,,false,,,,402639.40000009537,402639,399928.153,399928.40000009537,399945.226,402644.553,8,400,,,
trial,html.Screen,4_105_0,2023-05-02T14:35:48.938Z,,0,3,,2756.9469999999856,response,ISIC_0053801.JPG,,ISIC_0010409.JPG,ISIC_0010409.JPG,false,0,keypress(z),500,405401.8000000715,405401.5,402628.153,402639.60000002384,402644.553,405411.018,8,400,6,,ISIC_0053801.JPG
break,html.Screen,4_105_1,2023-05-02T14:35:48.939Z,,0,,,NaN,,,,,,false,,,,405402.8000000715,405402.60000002384,,405402,,405411.018,8,400,,,
break_continue,html.Screen,4_105_2,2023-05-02T14:35:48.940Z,,0,,,NaN,,,,,,false,,,,405403.60000002384,405403.40000009537,,405403.2000000477,,405411.018,8,400,,,
sequence,flow.Sequence,4_105,2023-05-02T14:35:48.940Z,,0,,,2758.847000095353,completion,,,,,false,,,,405403.8000000715,405403.40000009537,402628.153,402639.5,402644.553,405411.018,8,400,,,
trial,html.Screen,4_106_0,2023-05-02T14:35:51.440Z,,0,3,,2492.58200002386,response,ISIC_0437978.JPG,,ISIC_0010873.JPG,ISIC_0437978.JPG,false,1,keypress(m),500,407903.90000009537,407903.60000002384,405394.388,405403.8000000715,405411.018,407910.88,8,400,7,,ISIC_0010873.JPG
break,html.Screen,4_106_1,2023-05-02T14:35:51.441Z,,0,,,NaN,,,,,,false,,,,407904.7000000477,407904.5,,407904.10000002384,,407910.88,8,400,,,
break_continue,html.Screen,4_106_2,2023-05-02T14:35:51.442Z,,0,,,NaN,,,,,,false,,,,407905.10000002384,407905.10000002384,,407904.90000009537,,407910.88,8,400,,,
sequence,flow.Sequence,4_106,2023-05-02T14:35:51.442Z,,0,,,2494.08200002386,completion,,,,,false,,,,407905.3000000715,407905.10000002384,405394.388,405403.8000000715,405411.018,407910.88,8,400,,,
trial,html.Screen,4_107_0,2023-05-02T14:35:54.296Z,,0,3,,2848.720000023837,response,ISIC_3077674.JPG,,ISIC_5126638.JPG,ISIC_5126638.JPG,false,0,keypress(z),500,410759.90000009537,410759.60000002384,407894.735,407905.40000009537,407910.88,410794.495,8,400,8,,ISIC_3077674.JPG
break,html.Screen,4_107_1,2023-05-02T14:35:54.299Z,,0,,,NaN,,,,,,false,,,,410762.10000002384,410761.60000002384,,410760.10000002384,,410794.495,8,400,,,
break_continue,html.Screen,4_107_2,2023-05-02T14:35:54.299Z,,0,,,NaN,,,,,,false,,,,410762.7000000477,410762.5,,410762.3000000715,,410794.495,8,400,,,
sequence,flow.Sequence,4_107,2023-05-02T14:35:54.299Z,,0,,,2851.6199999999953,completion,,,,,false,,,,410762.90000009537,410762.5,407894.735,407905.40000009537,407910.88,410794.495,8,400,,,
trial,html.Screen,4_108_0,2023-05-02T14:35:56.930Z,,0,3,,2596.0050000000047,response,ISIC_5569091.JPG,,ISIC_0027076.JPG,ISIC_5569091.JPG,false,1,keypress(m),500,413390.90000009537,413390.5,410777.772,410763.10000002384,410794.495,413393.909,8,400,9,,ISIC_0027076.JPG
break,html.Screen,4_108_1,2023-05-02T14:35:56.930Z,,0,,,NaN,,,,,,false,,,,413391.60000002384,413391.40000009537,,413391,,413393.909,8,400,,,
break_continue,html.Screen,4_108_2,2023-05-02T14:35:56.931Z,,0,,,NaN,,,,,,false,,,,413392.10000002384,413392,,413391.8000000715,,413393.909,8,400,,,
sequence,flow.Sequence,4_108,2023-05-02T14:35:56.931Z,,0,,,2597.5050000000047,completion,,,,,false,,,,413392.2000000477,413392,410777.772,410763.10000002384,410794.495,413393.909,8,400,,,
trial,html.Screen,4_109_0,2023-05-02T14:35:59.737Z,,0,3,,2803.6910000238568,response,ISIC_0010011.JPG,,ISIC_1962845.JPG,ISIC_0010011.JPG,false,1,keypress(m),500,416198,416197.60000002384,413377.697,413392.3000000715,413393.909,416210.847,8,400,10,,ISIC_1962845.JPG
break,html.Screen,4_109_1,2023-05-02T14:35:59.739Z,,0,,,NaN,,,,,,false,,,,416199.8000000715,416199.40000009537,,416198.3000000715,,416210.847,8,400,,,
break_continue,html.Screen,4_109_2,2023-05-02T14:35:59.739Z,,0,,,NaN,,,,,,false,,,,416200.5,416200.3000000715,,416200.10000002384,,416210.847,8,400,,,
sequence,flow.Sequence,4_109,2023-05-02T14:35:59.740Z,,0,,,2806.3910000715405,completion,,,,,false,,,,416200.7000000477,416200.3000000715,413377.697,413392.3000000715,413393.909,416210.847,8,400,,,
trial,html.Screen,4_110_0,2023-05-02T14:36:02.213Z,,0,3,,2463.353000047675,response,ISIC_9874512.JPG,,ISIC_0053611.JPG,ISIC_9874512.JPG,false,1,keypress(m),500,418674.40000009537,418674.2000000477,416194.098,416200.8000000715,416210.847,418676.827,8,400,11,,ISIC_0053611.JPG
break,html.Screen,4_110_1,2023-05-02T14:36:02.214Z,,0,,,NaN,,,,,,false,,,,418675.5,418675.3000000715,,418674.60000002384,,418676.827,8,400,,,
break_continue,html.Screen,4_110_2,2023-05-02T14:36:02.215Z,,0,,,NaN,,,,,,false,,,,418675.7000000477,418675.7000000477,,418675.5,,418676.827,8,400,,,
sequence,flow.Sequence,4_110,2023-05-02T14:36:02.215Z,,0,,,2464.853000047675,completion,,,,,false,,,,418675.8000000715,418675.7000000477,416194.098,416200.8000000715,416210.847,418676.827,8,400,,,
trial,html.Screen,4_111_0,2023-05-02T14:36:04.661Z,,0,3,,2444.573000095377,response,ISIC_0070435.JPG,,ISIC_0024688.JPG,ISIC_0070435.JPG,false,1,keypress(m),500,421121.60000002384,421121.40000009537,418660.734,418675.90000009537,418676.827,421143.926,8,400,12,,ISIC_0024688.JPG
break,html.Screen,4_111_1,2023-05-02T14:36:04.661Z,,0,,,NaN,,,,,,false,,,,421122.40000009537,421122.3000000715,,421121.90000009537,,421143.926,8,400,,,
break_continue,html.Screen,4_111_2,2023-05-02T14:36:04.661Z,,0,,,NaN,,,,,,false,,,,421122.60000002384,421122.60000002384,,421122.5,,421143.926,8,400,,,
sequence,flow.Sequence,4_111,2023-05-02T14:36:04.662Z,,0,,,2445.7730000238516,completion,,,,,false,,,,421122.7000000477,421122.60000002384,418660.734,418675.8000000715,418676.827,421143.926,8,400,,,
trial,html.Screen,4_112_0,2023-05-02T14:36:07.171Z,,0,3,,2487.674000023864,response,ISIC_5404908.JPG,,ISIC_9002603.JPG,ISIC_5404908.JPG,false,1,keypress(m),500,423631.8000000715,423631.60000002384,421127.217,421122.7000000477,421143.926,423660.066,8,400,13,,ISIC_9002603.JPG
break,html.Screen,4_112_1,2023-05-02T14:36:07.172Z,,0,,,NaN,,,,,,false,,,,423632.7000000477,423632.40000009537,,423632,,423660.066,8,400,,,
break_continue,html.Screen,4_112_2,2023-05-02T14:36:07.172Z,,0,,,NaN,,,,,,false,,,,423633.2000000477,423633,,423632.90000009537,,423660.066,8,400,,,
sequence,flow.Sequence,4_112,2023-05-02T14:36:07.172Z,,0,,,2489.0740000000224,completion,,,,,false,,,,423633.3000000715,423633,421127.217,421122.7000000477,421143.926,423660.066,8,400,,,
trial,html.Screen,4_113_0,2023-05-02T14:36:09.927Z,,0,3,,2727.9340000000084,response,ISIC_1590725.JPG,,ISIC_0027187.JPG,ISIC_0027187.JPG,false,0,keypress(z),500,426388.3000000715,426388,423643.808,423633.5,423660.066,426393.074,8,400,14,,ISIC_1590725.JPG
break,html.Screen,4_113_1,2023-05-02T14:36:09.929Z,,0,,,NaN,,,,,,false,,,,426389.8000000715,426389.10000002384,,426388.60000002384,,426393.074,8,400,,,
break_continue,html.Screen,4_113_2,2023-05-02T14:36:09.929Z,,0,,,NaN,,,,,,false,,,,426390.3000000715,426390.10000002384,,426389.90000009537,,426393.074,8,400,,,
sequence,flow.Sequence,4_113,2023-05-02T14:36:09.929Z,,0,,,2730.0340000238502,completion,,,,,false,,,,426390.5,426390.10000002384,423643.808,423633.40000009537,423660.066,426393.074,8,400,,,
trial,html.Screen,4_114_0,2023-05-02T14:36:12.396Z,,0,3,,2463.726000071503,response,ISIC_0061199.JPG,,ISIC_0887792.JPG,ISIC_0061199.JPG,false,1,keypress(m),500,428857.10000002384,428856.8000000715,426376.437,426390.60000002384,426393.074,428859.641,8,400,15,,ISIC_0887792.JPG
break,html.Screen,4_114_1,2023-05-02T14:36:12.398Z,,0,,,NaN,,,,,,false,,,,428858.90000009537,428858.3000000715,,428857.40000009537,,428859.641,8,400,,,
break_continue,html.Screen,4_114_2,2023-05-02T14:36:12.400Z,,0,,,NaN,,,,,,false,,,,428860.8000000715,428859.40000009537,,428859.2000000477,,428859.641,8,400,,,
sequence,flow.Sequence,4_114,2023-05-02T14:36:12.400Z,,0,,,2466.326000095345,completion,,,,,false,,,,428861.2000000477,428859.40000009537,426376.437,426390.60000002384,426393.074,428859.641,8,400,,,
trial,html.Screen,4_115_0,2023-05-02T14:36:15.281Z,,0,3,,2882.259000095364,response,ISIC_0031829.JPG,,ISIC_1224329.JPG,ISIC_1224329.JPG,false,0,keypress(z),500,431742.3000000715,431741.90000009537,428843.277,428861.40000009537,428859.641,431759.874,8,400,16,,ISIC_0031829.JPG
break,html.Screen,4_115_1,2023-05-02T14:36:15.283Z,,0,,,NaN,,,,,,false,,,,431744,431743.5,,431742.5,,431759.874,8,400,,,
break_continue,html.Screen,4_115_2,2023-05-02T14:36:15.283Z,,0,,,NaN,,,,,,false,,,,431744.7000000477,431744.5,,431744.2000000477,,431759.874,8,400,,,
sequence,flow.Sequence,4_115,2023-05-02T14:36:15.284Z,,0,,,2884.8589999999967,completion,,,,,false,,,,431744.90000009537,431744.5,428843.277,428861.3000000715,428859.641,431759.874,8,400,,,
trial,html.Screen,4_116_0,2023-05-02T14:36:17.897Z,,0,3,,2598.0260000953567,response,ISIC_0013778.JPG,,ISIC_7787118.JPG,ISIC_0013778.JPG,false,1,keypress(m),500,434358.2000000477,434357.90000009537,431726.793,431745.10000002384,431759.874,434376.15,8,400,17,,ISIC_7787118.JPG
break,html.Screen,4_116_1,2023-05-02T14:36:17.899Z,,0,,,NaN,,,,,,false,,,,434360.2000000477,434359.2000000477,,434358.5,,434376.15,8,400,,,
break_continue,html.Screen,4_116_2,2023-05-02T14:36:17.900Z,,0,,,NaN,,,,,,false,,,,434360.90000009537,434360.7000000477,,434360.40000009537,,434376.15,8,400,,,
sequence,flow.Sequence,4_116,2023-05-02T14:36:17.900Z,,0,,,2600.826000047673,completion,,,,,false,,,,434361.10000002384,434360.7000000477,431726.793,431744.90000009537,431759.874,434376.15,8,400,,,
trial,html.Screen,4_117_0,2023-05-02T14:36:20.597Z,,0,3,,2681.6500000715023,response,ISIC_0536321.JPG,,ISIC_8691327.JPG,ISIC_0536321.JPG,false,1,keypress(m),500,437058.2000000477,437057.8000000715,434343.48,434361.3000000715,434376.15,437075.751,8,400,18,,ISIC_8691327.JPG
break,html.Screen,4_117_1,2023-05-02T14:36:20.606Z,,0,,,NaN,,,,,,false,,,,437066.7000000477,437066.2000000477,,437058.40000009537,,437075.751,8,400,,,
break_continue,html.Screen,4_117_2,2023-05-02T14:36:20.606Z,,0,,,NaN,,,,,,false,,,,437067.5,437067.40000009537,,437067,,437075.751,8,400,,,
sequence,flow.Sequence,4_117,2023-05-02T14:36:20.607Z,,0,,,2691.250000095344,completion,,,,,false,,,,437067.90000009537,437067.40000009537,434343.48,434361.2000000477,434376.15,437075.751,8,400,,,
trial,html.Screen,4_118_0,2023-05-02T14:36:23.094Z,,0,3,,2479.4490000476944,response,ISIC_0032516.JPG,,ISIC_0024898.JPG,ISIC_0032516.JPG,false,1,keypress(m),500,439555.60000002384,439555.2000000477,437059.648,437068.10000002384,437075.751,439559.025,8,400,19,,ISIC_0024898.JPG
break,html.Screen,4_118_1,2023-05-02T14:36:23.096Z,,0,,,NaN,,,,,,false,,,,439557,439556.5,,439555.8000000715,,439559.025,8,400,,,
break_continue,html.Screen,4_118_2,2023-05-02T14:36:23.096Z,,0,,,NaN,,,,,,false,,,,439557.60000002384,439557.5,,439557.2000000477,,439559.025,8,400,,,
sequence,flow.Sequence,4_118,2023-05-02T14:36:23.097Z,,0,,,2481.7490000000107,completion,,,,,false,,,,439557.8000000715,439557.5,437059.648,437068,437075.751,439559.025,8,400,,,
trial,html.Screen,4_119_0,2023-05-02T14:36:25.759Z,,0,3,,2660.7750000715023,response,ISIC_0061359.JPG,,ISIC_8803600.JPG,ISIC_0061359.JPG,false,1,keypress(m),500,442220.3000000715,442219.8000000715,439542.434,439557.90000009537,439559.025,442225.493,8,400,20,,ISIC_8803600.JPG
break,html.Screen,4_119_1,2023-05-02T14:36:25.761Z,,0,,,NaN,,,,,,false,,,,442222.10000002384,442221.40000009537,,442220.60000002384,,442225.493,8,400,,,
break_continue,html.Screen,4_119_2,2023-05-02T14:36:25.762Z,,0,,,NaN,,,,,,false,,,,442223.2000000477,442223,,442222.2000000477,,442225.493,8,400,,,
sequence,flow.Sequence,4_119,2023-05-02T14:36:25.762Z,,0,,,2663.9749999999767,completion,,,,,false,,,,442223.5,442223,439542.434,439557.90000009537,439559.025,442225.493,8,400,,,
trial,html.Screen,4_120_0,2023-05-02T14:36:28.149Z,,0,3,,2384.4070000953507,response,ISIC_0005291.JPG,,ISIC_6657600.JPG,ISIC_0005291.JPG,false,1,keypress(m),500,444610.2000000477,444609.90000009537,442209.247,442223.7000000477,442225.493,444625.403,8,400,21,,ISIC_6657600.JPG
break,html.Screen,4_120_1,2023-05-02T14:36:28.150Z,,0,,,NaN,,,,,,false,,,,444611.5,444611,,444610.40000009537,,444625.403,8,400,,,
break_continue,html.Screen,4_120_2,2023-05-02T14:36:28.151Z,,0,,,NaN,,,,,,false,,,,444612.10000002384,444611.90000009537,,444611.7000000477,,444625.403,8,400,,,
sequence,flow.Sequence,4_120,2023-05-02T14:36:28.151Z,,0,,,2386.4070000953507,completion,,,,,false,,,,444612.3000000715,444611.90000009537,442209.247,442223.60000002384,442225.493,444625.403,8,400,,,
trial,html.Screen,4_121_0,2023-05-02T14:36:30.649Z,,0,3,,2484.2970000476926,response,ISIC_8812781.JPG,,ISIC_0057287.JPG,ISIC_8812781.JPG,false,1,keypress(m),500,447109.90000009537,447109.7000000477,444609.026,444612.5,444625.403,447125.172,8,400,22,,ISIC_0057287.JPG
break,html.Screen,4_121_1,2023-05-02T14:36:30.649Z,,0,,,NaN,,,,,,false,,,,447110.60000002384,447110.40000009537,,447110.10000002384,,447125.172,8,400,,,
break_continue,html.Screen,4_121_2,2023-05-02T14:36:30.650Z,,0,,,NaN,,,,,,false,,,,447110.90000009537,447110.8000000715,,447110.7000000477,,447125.172,8,400,,,
sequence,flow.Sequence,4_121,2023-05-02T14:36:30.650Z,,0,,,2485.3970000715344,completion,,,,,false,,,,447110.90000009537,447110.8000000715,444609.026,444612.40000009537,444625.403,447125.172,8,400,,,
trial,html.Screen,4_122_0,2023-05-02T14:36:33.311Z,,0,3,,2647.128000071505,response,ISIC_0070017.JPG,,ISIC_2479134.JPG,ISIC_2479134.JPG,false,0,keypress(z),500,449772.60000002384,449772.3000000715,447109.106,447111.10000002384,447125.172,449775.138,8,400,23,,ISIC_0070017.JPG
break,html.Screen,4_122_1,2023-05-02T14:36:33.313Z,,0,,,NaN,,,,,,false,,,,449774.5,449773.7000000477,,449773,,449775.138,8,400,,,
break_continue,html.Screen,4_122_2,2023-05-02T14:36:33.314Z,,0,,,NaN,,,,,,false,,,,449775.3000000715,449775.10000002384,,449774.7000000477,,449775.138,8,400,,,
sequence,flow.Sequence,4_122,2023-05-02T14:36:33.315Z,,0,,,2649.9280000238214,completion,,,,,false,,,,449776.3000000715,449775.10000002384,447109.106,447111.10000002384,447125.172,449775.138,8,400,,,
trial,html.Screen,4_123_0,2023-05-02T14:36:35.928Z,,0,3,,2613.9620000238647,response,ISIC_0034048.JPG,,ISIC_0001121.JPG,ISIC_0034048.JPG,false,1,keypress(m),500,452389.5,452389.10000002384,449758.676,449776.60000002384,449775.138,452391.538,8,400,24,,ISIC_0001121.JPG
break,html.Screen,4_123_1,2023-05-02T14:36:35.930Z,,0,,,NaN,,,,,,false,,,,452391.3000000715,452390.90000009537,,452389.7000000477,,452391.538,8,400,,,
break_continue,html.Screen,4_123_2,2023-05-02T14:36:35.932Z,,0,,,NaN,,,,,,false,,,,452393.5,452393.3000000715,,452391.5,,452391.538,8,400,,,
sequence,flow.Sequence,4_123,2023-05-02T14:36:35.933Z,,0,,,2618.1620000715484,completion,,,,,false,,,,452393.7000000477,452393.3000000715,449758.676,449776.5,449775.138,452391.538,8,400,,,
trial,html.Screen,4_124_0,2023-05-02T14:36:38.420Z,,0,3,,2488.862000095367,response,ISIC_3922580.JPG,,ISIC_0061029.JPG,ISIC_0061029.JPG,false,0,keypress(z),500,454881.10000002384,454880.40000009537,452375.483,452393.90000009537,452391.538,454891.468,8,400,25,,ISIC_3922580.JPG
break,html.Screen,4_124_1,2023-05-02T14:36:38.422Z,,0,,,NaN,,,,,,false,,,,454882.8000000715,454882.2000000477,,454881.40000009537,,454891.468,8,400,,,
break_continue,html.Screen,4_124_2,2023-05-02T14:36:38.422Z,,0,,,NaN,,,,,,false,,,,454883.40000009537,454883.3000000715,,454882.90000009537,,454891.468,8,400,,,
sequence,flow.Sequence,4_124,2023-05-02T14:36:38.422Z,,0,,,2491.762000071525,completion,,,,,false,,,,454883.7000000477,454883.3000000715,452375.483,452393.8000000715,452391.538,454891.468,8,400,,,
trial,html.Screen,4_125_0,2023-05-02T14:36:40.965Z,,0,3,,2534.7320000476902,response,ISIC_3273370.JPG,,ISIC_9350507.JPG,ISIC_9350507.JPG,false,0,keypress(z),500,457426.40000009537,457426.2000000477,454875.144,454883.8000000715,454891.468,457441.85,8,400,26,,ISIC_3273370.JPG
break,html.Screen,4_125_1,2023-05-02T14:36:40.966Z,,0,,,NaN,,,,,,false,,,,457427.3000000715,457427,,457426.60000002384,,457441.85,8,400,,,
break_continue,html.Screen,4_125_2,2023-05-02T14:36:40.966Z,,0,,,NaN,,,,,,false,,,,457427.60000002384,457427.5,,457427.3000000715,,457441.85,8,400,,,
sequence,flow.Sequence,4_125,2023-05-02T14:36:40.967Z,,0,,,2536.0320000000065,completion,,,,,false,,,,457427.7000000477,457427.5,454875.144,454883.7000000477,454891.468,457441.85,8,400,,,
