sender,sender_type,sender_id,timestamp,meta,,blockNo,condition,duration,ended_on,img_left,img_reveal,img_right,loser,practice,response,response_action,selection_duration,time_commit,time_end,time_render,time_run,time_show,time_switch,total_blocks,total_trials,trialNo,url,winner
informed_consent,html.Screen,0,2023-11-01T17:08:28.692Z,"{""labjs_version"":""20.2.4"",""labjs_build"":{""flavor"":""production"",""commit"":""f5b4a49f956347addd546a832a3327688c2c0fef""},""location"":""https://run.pavlovia.org/MurrayBennett/melanoma-2afc/?participant=66173&platform=sona"",""userAgent"":""Mozilla/5.0 (Windows NT 10.0; Win64; x64) AppleWebKit/537.36 (KHTML, like Gecko) Chrome/118.0.0.0 Safari/537.36"",""platform"":""Win32"",""language"":""en-US"",""locale"":""en-US"",""timeZone"":""America/Chicago"",""timezoneOffset"":300,""screen_width"":1536,""screen_height"":960,""scroll_width"":1536,""scroll_height"":787,""window_innerWidth"":1536,""window_innerHeight"":835,""devicePixelRatio"":1.25}",,,,12077.251999999979,response,,,,,,consent,click button,,49688,49686.09999999998,37558.458,37571.79999999993,37608.848,49707.959,,,,"{""participant"":""66173"",""platform"":""sona""}",
Welcome,html.Screen,1,2023-11-01T17:09:05.790Z,,,,asymmetry,37076.74099999995,response,,,,,,continue,click button,,86786,86784.69999999995,49691.404,49688.29999999993,49707.959,86806.623,,,,,
trial,html.Screen,2_0_0,2023-11-01T17:09:10.612Z,,0,0,,4800.676999999923,response,ISIC_0069348.JPG,,ISIC_6997061.JPG,ISIC_6997061.JPG,true,0,keypress(z),500,91607.5,91607.29999999993,86789.964,86786.19999999995,86806.623,91639.83,1,6,1,,ISIC_0069348.JPG
sequence,flow.Sequence,2_0,2023-11-01T17:09:10.612Z,,0,,,4800.676999999923,completion,,,,,true,,,,91607.90000000002,91607.29999999993,86789.964,86786.19999999995,86806.623,91639.83,1,6,,,
trial,html.Screen,2_1_0,2023-11-01T17:09:15.623Z,,0,0,,4978.369999999952,response,ISIC_0009529.JPG,,ISIC_0057368.JPG,ISIC_0009529.JPG,true,1,keypress(m),500,96618.40000000002,96618.19999999995,91623.113,91608,91639.83,96639.787,1,6,2,,ISIC_0057368.JPG
sequence,flow.Sequence,2_1,2023-11-01T17:09:15.623Z,,0,,,4978.369999999952,completion,,,,,true,,,,96618.79999999993,96618.19999999995,91623.113,91608,91639.83,96639.787,1,6,,,
trial,html.Screen,2_2_0,2023-11-01T17:09:22.747Z,,0,0,,7102.613000000027,response,ISIC_0064954.JPG,,ISIC_9758671.JPG,ISIC_0064954.JPG,true,1,keypress(m),500,103742.69999999995,103742.40000000002,96622.941,96619.09999999998,96639.787,103772.673,1,6,3,,ISIC_9758671.JPG
sequence,flow.Sequence,2_2,2023-11-01T17:09:22.747Z,,0,,,7102.613000000027,completion,,,,,true,,,,103742.90000000002,103742.40000000002,96622.941,96619,96639.787,103772.673,1,6,,,
trial,html.Screen,2_3_0,2023-11-01T17:09:29.118Z,,0,0,,6340.626999999935,response,ISIC_0005785.JPG,,ISIC_0000080.JPG,ISIC_0000080.JPG,true,0,keypress(z),500,110113.69999999995,110113.29999999993,103756.002,103743.09999999998,103772.673,110139.269,1,6,4,,ISIC_0005785.JPG
sequence,flow.Sequence,2_3,2023-11-01T17:09:29.118Z,,0,,,6340.626999999935,completion,,,,,true,,,,110114.09999999998,110113.29999999993,103756.002,103743.09999999998,103772.673,110139.269,1,6,,,
trial,html.Screen,2_4_0,2023-11-01T17:09:36.484Z,,0,0,,7340.3309999999765,response,ISIC_5390060.JPG,,ISIC_7944028.JPG,ISIC_7944028.JPG,true,0,keypress(z),500,117480,117479.59999999998,110122.443,110114.19999999995,110139.269,117505.503,1,6,5,,ISIC_5390060.JPG
sequence,flow.Sequence,2_4,2023-11-01T17:09:36.485Z,,0,,,7340.3309999999765,completion,,,,,true,,,,117480.29999999993,117479.59999999998,110122.443,110114.19999999995,110139.269,117505.503,1,6,,,
trial,html.Screen,2_5_0,2023-11-01T17:09:40.311Z,,0,0,,3800.796999999933,response,ISIC_0010188.JPG,,ISIC_0794216.JPG,ISIC_0794216.JPG,true,0,keypress(z),500,121306.69999999995,121306.29999999993,117488.904,117480.5,117505.503,121322.039,1,6,6,,ISIC_0010188.JPG
sequence,flow.Sequence,2_5,2023-11-01T17:09:40.315Z,,0,,,3800.796999999933,completion,,,,,true,,,,121310.09999999998,121306.29999999993,117488.904,117480.5,117505.503,121322.039,1,6,,,
loop,flow.Loop,2,2023-11-01T17:09:40.315Z,,,,,34499.67699999992,completion,,,,,true,,,,121310.29999999993,121306.29999999993,86789.964,86786.19999999995,86806.623,121322.039,1,6,,,
exp_instructions,html.Screen,3,2023-11-01T17:09:42.257Z,,,,,1929.2609999999258,response,,,,,,continue,keypress(Space),,123252.09999999998,123251.29999999993,121305.377,121310.5,121322.039,123272.108,,,,,
trial,html.Screen,4_0_0,2023-11-01T17:09:53.762Z,,0,1,,11516.248999999996,timeout,ISIC_0066200.JPG,6,ISIC_0063680.JPG,,false,,,500,134757.5,134757.19999999995,123255.328,123252.19999999995,123272.108,134788.357,8,400,1,,
break,html.Screen,4_0_1,2023-11-01T17:09:53.763Z,,0,,,NaN,,,,,,false,,,,134758.5,134758.19999999995,,134757.59999999998,,134788.357,8,400,,,
break_continue,html.Screen,4_0_2,2023-11-01T17:09:53.763Z,,0,,,NaN,,,,,,false,,,,134758.69999999995,134758.59999999998,,134758.5,,134788.357,8,400,,,
sequence,flow.Sequence,4_0,2023-11-01T17:09:53.765Z,,0,,,11486.491999999984,completion,,,,,false,,,,134760.09999999998,134758.59999999998,123255.328,123252.19999999995,123272.108,134788.357,8,400,,,
trial,html.Screen,4_1_0,2023-11-01T17:09:58.326Z,,0,1,,4532.842999999964,response,ISIC_0990298.JPG,8,ISIC_8249854.JPG,ISIC_0990298.JPG,false,1,keypress(m),500,139321.40000000002,139321.19999999995,134771.547,134760.19999999995,134788.357,139338.211,8,400,2,,ISIC_8249854.JPG
break,html.Screen,4_1_1,2023-11-01T17:09:58.327Z,,0,,,NaN,,,,,,false,,,,139322.29999999993,139322.19999999995,,139321.59999999998,,139338.211,8,400,,,
break_continue,html.Screen,4_1_2,2023-11-01T17:09:58.327Z,,0,,,NaN,,,,,,false,,,,139322.69999999995,139322.59999999998,,139322.40000000002,,139338.211,8,400,,,
sequence,flow.Sequence,4_1,2023-11-01T17:09:58.327Z,,0,,,4534.242999999988,completion,,,,,false,,,,139322.69999999995,139322.59999999998,134771.547,134760.09999999998,134788.357,139338.211,8,400,,,
trial,html.Screen,4_2_0,2023-11-01T17:10:02.008Z,,0,1,,3665.3889999999665,response,ISIC_4798962.JPG,5,ISIC_0024586.JPG,ISIC_0024586.JPG,false,0,keypress(z),500,143003.79999999993,143003.59999999998,139321.439,139322.79999999993,139338.211,143021.271,8,400,3,,ISIC_4798962.JPG
break,html.Screen,4_2_1,2023-11-01T17:10:02.010Z,,0,,,NaN,,,,,,false,,,,143005,143004.5,,143003.90000000002,,143021.271,8,400,,,
break_continue,html.Screen,4_2_2,2023-11-01T17:10:02.010Z,,0,,,NaN,,,,,,false,,,,143005.40000000002,143005.29999999993,,143005.09999999998,,143021.271,8,400,,,
sequence,flow.Sequence,4_2,2023-11-01T17:10:02.010Z,,0,,,3667.08899999992,completion,,,,,false,,,,143005.5,143005.29999999993,139321.439,139322.79999999993,139338.211,143021.271,8,400,,,
trial,html.Screen,4_3_0,2023-11-01T17:10:06.972Z,,0,1,,4945.528999999922,response,ISIC_0032993.JPG,7,ISIC_4523382.JPG,ISIC_4523382.JPG,false,0,keypress(z),500,147967.09999999998,147966.79999999993,143004.644,143005.5,143021.271,147987.819,8,400,4,,ISIC_0032993.JPG
break,html.Screen,4_3_1,2023-11-01T17:10:06.973Z,,0,,,NaN,,,,,,false,,,,147968.59999999998,147968.19999999995,,147967.40000000002,,147987.819,8,400,,,
break_continue,html.Screen,4_3_2,2023-11-01T17:10:06.974Z,,0,,,NaN,,,,,,false,,,,147969.19999999995,147969.09999999998,,147968.69999999995,,147987.819,8,400,,,
sequence,flow.Sequence,4_3,2023-11-01T17:10:06.974Z,,0,,,4947.828999999969,completion,,,,,false,,,,147969.40000000002,147969.09999999998,143004.644,143005.5,143021.271,147987.819,8,400,,,
trial,html.Screen,4_4_0,2023-11-01T17:10:13.186Z,,0,1,,6193.780999999988,response,ISIC_3564461.JPG,5,ISIC_3961101.JPG,ISIC_3564461.JPG,false,1,keypress(m),500,154181.90000000002,154181.59999999998,147971.285,147969.40000000002,147987.819,154204.14,8,400,5,,ISIC_3961101.JPG
break,html.Screen,4_4_1,2023-11-01T17:10:13.188Z,,0,,,NaN,,,,,,false,,,,154183.09999999998,154182.90000000002,,154182.09999999998,,154204.14,8,400,,,
break_continue,html.Screen,4_4_2,2023-11-01T17:10:13.188Z,,0,,,NaN,,,,,,false,,,,154183.59999999998,154183.59999999998,,154183.29999999993,,154204.14,8,400,,,
sequence,flow.Sequence,4_4,2023-11-01T17:10:13.188Z,,0,,,6195.780999999988,completion,,,,,false,,,,154183.69999999995,154183.59999999998,147971.285,147969.40000000002,147987.819,154204.14,8,400,,,
trial,html.Screen,4_5_0,2023-11-01T17:10:17.815Z,,0,1,,4605.959999999963,response,ISIC_1067985.JPG,5,ISIC_2162728.JPG,ISIC_1067985.JPG,false,1,keypress(m),500,158810.19999999995,158810.09999999998,154187.528,154183.79999999993,154204.14,158837.391,8,400,6,,ISIC_2162728.JPG
break,html.Screen,4_5_1,2023-11-01T17:10:17.816Z,,0,,,NaN,,,,,,false,,,,158811.19999999995,158810.90000000002,,158810.40000000002,,158837.391,8,400,,,
break_continue,html.Screen,4_5_2,2023-11-01T17:10:17.816Z,,0,,,NaN,,,,,,false,,,,158811.40000000002,158811.40000000002,,158811.19999999995,,158837.391,8,400,,,
sequence,flow.Sequence,4_5,2023-11-01T17:10:17.816Z,,0,,,4607.260000000009,completion,,,,,false,,,,158811.59999999998,158811.40000000002,154187.528,154183.79999999993,154204.14,158837.391,8,400,,,
trial,html.Screen,4_6_0,2023-11-01T17:10:22.204Z,,0,1,,4361.80899999995,response,ISIC_0065943.JPG,4,ISIC_9225640.JPG,ISIC_9225640.JPG,false,0,keypress(z),500,163199.40000000002,163199.19999999995,158820.716,158811.59999999998,158837.391,163220.97,8,400,7,,ISIC_0065943.JPG
break,html.Screen,4_6_1,2023-11-01T17:10:22.205Z,,0,,,NaN,,,,,,false,,,,163200.29999999993,163200.09999999998,,163199.59999999998,,163220.97,8,400,,,
break_continue,html.Screen,4_6_2,2023-11-01T17:10:22.205Z,,0,,,NaN,,,,,,false,,,,163200.59999999998,163200.5,,163200.40000000002,,163220.97,8,400,,,
sequence,flow.Sequence,4_6,2023-11-01T17:10:22.205Z,,0,,,4363.108999999997,completion,,,,,false,,,,163200.69999999995,163200.5,158820.716,158811.59999999998,158837.391,163220.97,8,400,,,
trial,html.Screen,4_7_0,2023-11-01T17:10:26.817Z,,0,1,,4591.029999999999,response,ISIC_3700351.JPG,8,ISIC_1231722.JPG,ISIC_1231722.JPG,false,0,keypress(z),500,167812.19999999995,167812,163203.902,163200.79999999993,163220.97,167837.17,8,400,8,,ISIC_3700351.JPG
break,html.Screen,4_7_1,2023-11-01T17:10:26.820Z,,0,,,NaN,,,,,,false,,,,167815.09999999998,167814.59999999998,,167814.09999999998,,167837.17,8,400,,,
break_continue,html.Screen,4_7_2,2023-11-01T17:10:26.820Z,,0,,,NaN,,,,,,false,,,,167815.40000000002,167815.29999999993,,167815.09999999998,,167837.17,8,400,,,
sequence,flow.Sequence,4_7,2023-11-01T17:10:26.820Z,,0,,,4594.329999999929,completion,,,,,false,,,,167815.59999999998,167815.29999999993,163203.902,163200.79999999993,163220.97,167837.17,8,400,,,
trial,html.Screen,4_8_0,2023-11-01T17:10:30.374Z,,0,1,,3532.2300000000105,response,ISIC_0068525.JPG,4,ISIC_1522266.JPG,ISIC_0068525.JPG,false,1,keypress(m),500,171369.69999999995,171369.40000000002,167820.418,167815.59999999998,167837.17,171386.877,8,400,9,,ISIC_1522266.JPG
break,html.Screen,4_8_1,2023-11-01T17:10:30.376Z,,0,,,NaN,,,,,,false,,,,171371.19999999995,171370.79999999993,,171370,,171386.877,8,400,,,
break_continue,html.Screen,4_8_2,2023-11-01T17:10:30.376Z,,0,,,NaN,,,,,,false,,,,171371.69999999995,171371.59999999998,,171371.40000000002,,171386.877,8,400,,,
sequence,flow.Sequence,4_8,2023-11-01T17:10:30.376Z,,0,,,3534.429999999964,completion,,,,,false,,,,171371.79999999993,171371.59999999998,167820.418,167815.59999999998,167837.17,171386.877,8,400,,,
trial,html.Screen,4_9_0,2023-11-01T17:10:37.150Z,,0,1,,6758.023000000016,response,ISIC_0055742.JPG,7,ISIC_9301005.JPG,ISIC_9301005.JPG,false,0,keypress(z),500,178145.19999999995,178144.90000000002,171370.179,171372,171386.877,178169.926,8,400,10,,ISIC_0055742.JPG
break,html.Screen,4_9_1,2023-11-01T17:10:37.152Z,,0,,,NaN,,,,,,false,,,,178147.19999999995,178146.5,,178145.5,,178169.926,8,400,,,
break_continue,html.Screen,4_9_2,2023-11-01T17:10:37.153Z,,0,,,NaN,,,,,,false,,,,178147.90000000002,178147.69999999995,,178147.29999999993,,178169.926,8,400,,,
sequence,flow.Sequence,4_9,2023-11-01T17:10:37.153Z,,0,,,6760.822999999946,completion,,,,,false,,,,178148.09999999998,178147.69999999995,171370.179,171371.90000000002,171386.877,178169.926,8,400,,,
trial,html.Screen,4_10_0,2023-11-01T17:10:40.905Z,,0,1,,3730.4740000000165,response,ISIC_3254309.JPG,4,ISIC_7162711.JPG,ISIC_3254309.JPG,false,1,keypress(m),500,181900.69999999995,181900.40000000002,178153.637,178148.29999999993,178169.926,181919.902,8,400,11,,ISIC_7162711.JPG
break,html.Screen,4_10_1,2023-11-01T17:10:40.906Z,,0,,,NaN,,,,,,false,,,,181901.5,181901.40000000002,,181900.79999999993,,181919.902,8,400,,,
break_continue,html.Screen,4_10_2,2023-11-01T17:10:40.906Z,,0,,,NaN,,,,,,false,,,,181901.90000000002,181901.79999999993,,181901.59999999998,,181919.902,8,400,,,
sequence,flow.Sequence,4_10,2023-11-01T17:10:40.906Z,,0,,,3731.8739999999234,completion,,,,,false,,,,181901.90000000002,181901.79999999993,178153.637,178148.29999999993,178169.926,181919.902,8,400,,,
trial,html.Screen,4_11_0,2023-11-01T17:10:44.814Z,,0,1,,3889.3979999999283,response,ISIC_8222254.JPG,7,ISIC_0028501.JPG,ISIC_0028501.JPG,false,0,keypress(z),500,185809.59999999998,185809.29999999993,181903.133,181901.90000000002,181919.902,185836.367,8,400,12,,ISIC_8222254.JPG
break,html.Screen,4_11_1,2023-11-01T17:10:44.815Z,,0,,,NaN,,,,,,false,,,,185810.40000000002,185810.29999999993,,185809.69999999995,,185836.367,8,400,,,
break_continue,html.Screen,4_11_2,2023-11-01T17:10:44.815Z,,0,,,NaN,,,,,,false,,,,185810.79999999993,185810.69999999995,,185810.59999999998,,185836.367,8,400,,,
sequence,flow.Sequence,4_11,2023-11-01T17:10:44.815Z,,0,,,3890.7979999999516,completion,,,,,false,,,,185810.79999999993,185810.69999999995,181903.133,181901.90000000002,181919.902,185836.367,8,400,,,
trial,html.Screen,4_12_0,2023-11-01T17:10:49.570Z,,0,1,,4729.232999999978,response,ISIC_0025592.JPG,8,ISIC_8659639.JPG,ISIC_0025592.JPG,false,1,keypress(m),500,190565.90000000002,190565.59999999998,185819.802,185810.79999999993,185836.367,190586.14,8,400,13,,ISIC_8659639.JPG
break,html.Screen,4_12_1,2023-11-01T17:10:49.571Z,,0,,,NaN,,,,,,false,,,,190567.09999999998,190566.79999999993,,190566.09999999998,,190586.14,8,400,,,
break_continue,html.Screen,4_12_2,2023-11-01T17:10:49.572Z,,0,,,NaN,,,,,,false,,,,190567.5,190567.40000000002,,190567.19999999995,,190586.14,8,400,,,
sequence,flow.Sequence,4_12,2023-11-01T17:10:49.572Z,,0,,,4731.033000000025,completion,,,,,false,,,,190567.59999999998,190567.40000000002,185819.802,185810.79999999993,185836.367,190586.14,8,400,,,
trial,html.Screen,4_13_0,2023-11-01T17:10:53.848Z,,0,1,,4257.459999999963,response,ISIC_9012513.JPG,4,ISIC_0010792.JPG,ISIC_9012513.JPG,false,1,keypress(m),500,194843.90000000002,194843.59999999998,190569.56,190567.69999999995,190586.14,194869.342,8,400,14,,ISIC_0010792.JPG
break,html.Screen,4_13_1,2023-11-01T17:10:53.849Z,,0,,,NaN,,,,,,false,,,,194845,194844.69999999995,,194844.09999999998,,194869.342,8,400,,,
break_continue,html.Screen,4_13_2,2023-11-01T17:10:53.850Z,,0,,,NaN,,,,,,false,,,,194845.59999999998,194845.40000000002,,194845.09999999998,,194869.342,8,400,,,
sequence,flow.Sequence,4_13,2023-11-01T17:10:53.850Z,,0,,,4259.260000000009,completion,,,,,false,,,,194845.59999999998,194845.40000000002,190569.56,190567.69999999995,190586.14,194869.342,8,400,,,
trial,html.Screen,4_14_0,2023-11-01T17:10:57.132Z,,0,1,,3258.157999999996,response,ISIC_8622365.JPG,6,ISIC_0023811.JPG,ISIC_8622365.JPG,false,1,keypress(m),500,198127.79999999993,198127.5,194852.775,194845.69999999995,194869.342,198152.496,8,400,15,,ISIC_0023811.JPG
break,html.Screen,4_14_1,2023-11-01T17:10:57.133Z,,0,,,NaN,,,,,,false,,,,198128.69999999995,198128.5,,198127.90000000002,,198152.496,8,400,,,
break_continue,html.Screen,4_14_2,2023-11-01T17:10:57.133Z,,0,,,NaN,,,,,,false,,,,198129,198128.90000000002,,198128.79999999993,,198152.496,8,400,,,
sequence,flow.Sequence,4_14,2023-11-01T17:10:57.134Z,,0,,,3259.558000000019,completion,,,,,false,,,,198129.09999999998,198128.90000000002,194852.775,194845.69999999995,194869.342,198152.496,8,400,,,
trial,html.Screen,4_15_0,2023-11-01T17:11:01.621Z,,0,1,,4463.70399999994,response,ISIC_8355446.JPG,4,ISIC_0011135.JPG,ISIC_0011135.JPG,false,0,keypress(z),500,202616.40000000002,202616.19999999995,198135.856,198129.09999999998,198152.496,202635.673,8,400,16,,ISIC_8355446.JPG
break,html.Screen,4_15_1,2023-11-01T17:11:01.622Z,,0,,,NaN,,,,,,false,,,,202617.59999999998,202617.19999999995,,202616.59999999998,,202635.673,8,400,,,
break_continue,html.Screen,4_15_2,2023-11-01T17:11:01.622Z,,0,,,NaN,,,,,,false,,,,202618,202617.90000000002,,202617.69999999995,,202635.673,8,400,,,
sequence,flow.Sequence,4_15,2023-11-01T17:11:01.623Z,,0,,,4465.40400000001,completion,,,,,false,,,,202618.19999999995,202617.90000000002,198135.856,198129.09999999998,198152.496,202635.673,8,400,,,
trial,html.Screen,4_16_0,2023-11-01T17:11:07.897Z,,0,1,,6256.7270000000135,response,ISIC_2849353.JPG,9,ISIC_9125543.JPG,ISIC_9125543.JPG,false,0,keypress(z),500,208892.69999999995,208892.40000000002,202619.035,202618.19999999995,202635.673,208918.77,8,400,17,,ISIC_2849353.JPG
break,html.Screen,4_16_1,2023-11-01T17:11:07.898Z,,0,,,NaN,,,,,,false,,,,208893.69999999995,208893.40000000002,,208892.79999999993,,208918.77,8,400,,,
break_continue,html.Screen,4_16_2,2023-11-01T17:11:07.898Z,,0,,,NaN,,,,,,false,,,,208893.90000000002,208893.90000000002,,208893.69999999995,,208918.77,8,400,,,
sequence,flow.Sequence,4_16,2023-11-01T17:11:07.898Z,,0,,,6258.2270000000135,completion,,,,,false,,,,208894,208893.90000000002,202619.035,202618.19999999995,202635.673,208918.77,8,400,,,
trial,html.Screen,4_17_0,2023-11-01T17:11:13.647Z,,0,1,,5723.7300000000105,response,ISIC_0010017.JPG,6,ISIC_0025900.JPG,ISIC_0010017.JPG,false,1,keypress(m),500,214642.79999999993,214642.5,208902.116,208894.09999999998,208918.77,214668.558,8,400,18,,ISIC_0025900.JPG
break,html.Screen,4_17_1,2023-11-01T17:11:13.648Z,,0,,,NaN,,,,,,false,,,,214643.59999999998,214643.5,,214642.90000000002,,214668.558,8,400,,,
break_continue,html.Screen,4_17_2,2023-11-01T17:11:13.648Z,,0,,,NaN,,,,,,false,,,,214644,214643.90000000002,,214643.79999999993,,214668.558,8,400,,,
sequence,flow.Sequence,4_17,2023-11-01T17:11:13.649Z,,0,,,5725.130000000034,completion,,,,,false,,,,214644.09999999998,214643.90000000002,208902.116,208894,208918.77,214668.558,8,400,,,
trial,html.Screen,4_18_0,2023-11-01T17:11:18.549Z,,0,1,,4876.041999999987,response,ISIC_0026509.JPG,6,ISIC_0010772.JPG,ISIC_0026509.JPG,false,1,keypress(m),500,219544.79999999993,219544.59999999998,214651.89,214644.19999999995,214668.558,219568.398,8,400,19,,ISIC_0010772.JPG
break,html.Screen,4_18_1,2023-11-01T17:11:18.550Z,,0,,,NaN,,,,,,false,,,,219545.59999999998,219545.40000000002,,219545,,219568.398,8,400,,,
break_continue,html.Screen,4_18_2,2023-11-01T17:11:18.550Z,,0,,,NaN,,,,,,false,,,,219546,219545.90000000002,,219545.69999999995,,219568.398,8,400,,,
sequence,flow.Sequence,4_18,2023-11-01T17:11:18.551Z,,0,,,4877.342000000033,completion,,,,,false,,,,219546.09999999998,219545.90000000002,214651.89,214644.19999999995,214668.558,219568.398,8,400,,,
trial,html.Screen,4_19_0,2023-11-01T17:11:23.128Z,,0,1,,4554.801999999967,response,ISIC_0054748.JPG,6,ISIC_4519298.JPG,ISIC_4519298.JPG,false,0,keypress(z),500,224123.40000000002,224123.19999999995,219551.732,219546.09999999998,219568.398,224151.543,8,400,20,,ISIC_0054748.JPG
break,html.Screen,4_19_1,2023-11-01T17:11:23.129Z,,0,,,NaN,,,,,,false,,,,224124.59999999998,224124.19999999995,,224123.5,,224151.543,8,400,,,
break_continue,html.Screen,4_19_2,2023-11-01T17:11:23.130Z,,0,,,NaN,,,,,,false,,,,224125,224124.90000000002,,224124.69999999995,,224151.543,8,400,,,
sequence,flow.Sequence,4_19,2023-11-01T17:11:23.130Z,,0,,,4556.502000000037,completion,,,,,false,,,,224125.09999999998,224124.90000000002,219551.732,219546.09999999998,219568.398,224151.543,8,400,,,
trial,html.Screen,4_20_0,2023-11-01T17:11:27.918Z,,0,1,,4761.256999999925,response,ISIC_0027408.JPG,7,ISIC_5190920.JPG,ISIC_0027408.JPG,false,1,keypress(m),500,228913.19999999995,228912.79999999993,224134.973,224125.19999999995,224151.543,228934.693,8,400,21,,ISIC_5190920.JPG
break,html.Screen,4_20_1,2023-11-01T17:11:27.919Z,,0,,,NaN,,,,,,false,,,,228914.59999999998,228914.19999999995,,228913.29999999993,,228934.693,8,400,,,
break_continue,html.Screen,4_20_2,2023-11-01T17:11:27.922Z,,0,,,NaN,,,,,,false,,,,228917.79999999993,228917.69999999995,,228917.19999999995,,228934.693,8,400,,,
sequence,flow.Sequence,4_20,2023-11-01T17:11:27.922Z,,0,,,4766.156999999948,completion,,,,,false,,,,228918,228917.69999999995,224134.973,224125.19999999995,224151.543,228934.693,8,400,,,
trial,html.Screen,4_21_0,2023-11-01T17:11:31.847Z,,0,1,,3907.8070000000007,response,ISIC_3002956.JPG,6,ISIC_0033977.JPG,ISIC_3002956.JPG,false,1,keypress(m),500,232842.69999999995,232842.5,228918.228,228918.09999999998,228934.693,232867.886,8,400,22,,ISIC_0033977.JPG
break,html.Screen,4_21_1,2023-11-01T17:11:31.848Z,,0,,,NaN,,,,,,false,,,,232843.5,232843.29999999993,,232842.90000000002,,232867.886,8,400,,,
break_continue,html.Screen,4_21_2,2023-11-01T17:11:31.848Z,,0,,,NaN,,,,,,false,,,,232843.79999999993,232843.79999999993,,232843.59999999998,,232867.886,8,400,,,
sequence,flow.Sequence,4_21,2023-11-01T17:11:31.848Z,,0,,,3909.106999999931,completion,,,,,false,,,,232843.90000000002,232843.79999999993,228918.228,228918.09999999998,228934.693,232867.886,8,400,,,
trial,html.Screen,4_22_0,2023-11-01T17:11:36.173Z,,0,1,,4300.114000000001,response,ISIC_0579562.JPG,7,ISIC_6366417.JPG,ISIC_0579562.JPG,false,1,keypress(m),500,237168.29999999993,237168,232851.349,232844,232867.886,237184.531,8,400,23,,ISIC_6366417.JPG
break,html.Screen,4_22_1,2023-11-01T17:11:36.174Z,,0,,,NaN,,,,,,false,,,,237169.40000000002,237169.29999999993,,237168.59999999998,,237184.531,8,400,,,
break_continue,html.Screen,4_22_2,2023-11-01T17:11:36.174Z,,0,,,NaN,,,,,,false,,,,237169.90000000002,237169.79999999993,,237169.5,,237184.531,8,400,,,
sequence,flow.Sequence,4_22,2023-11-01T17:11:36.174Z,,0,,,4301.913999999932,completion,,,,,false,,,,237170,237169.79999999993,232851.349,232844,232867.886,237184.531,8,400,,,
trial,html.Screen,4_23_0,2023-11-01T17:11:40.435Z,,0,1,,4245.869000000035,response,ISIC_1508215.JPG,6,ISIC_8504492.JPG,ISIC_8504492.JPG,false,0,keypress(z),500,241430.59999999998,241430.40000000002,237167.848,237170.09999999998,237184.531,241450.922,8,400,24,,ISIC_1508215.JPG
break,html.Screen,4_23_1,2023-11-01T17:11:40.436Z,,0,,,NaN,,,,,,false,,,,241431.59999999998,241431.40000000002,,241430.69999999995,,241450.922,8,400,,,
break_continue,html.Screen,4_23_2,2023-11-01T17:11:40.437Z,,0,,,NaN,,,,,,false,,,,241431.90000000002,241431.79999999993,,241431.69999999995,,241450.922,8,400,,,
sequence,flow.Sequence,4_23,2023-11-01T17:11:40.437Z,,0,,,4247.268999999942,completion,,,,,false,,,,241432,241431.79999999993,237167.848,237170.09999999998,237184.531,241450.922,8,400,,,
trial,html.Screen,4_24_0,2023-11-01T17:11:44.232Z,,0,1,,3775.978000000032,response,ISIC_7013005.JPG,6,ISIC_0027238.JPG,ISIC_7013005.JPG,false,1,keypress(m),500,245227.09999999998,245226.90000000002,241434.248,241432,241450.922,245250.77,8,400,25,,ISIC_0027238.JPG
break,html.Screen,4_24_1,2023-11-01T17:11:44.233Z,,0,,,NaN,,,,,,false,,,,245228.40000000002,245228.09999999998,,245227.29999999993,,245250.77,8,400,,,
break_continue,html.Screen,4_24_2,2023-11-01T17:11:44.233Z,,0,,,NaN,,,,,,false,,,,245228.90000000002,245228.69999999995,,245228.5,,245250.77,8,400,,,
sequence,flow.Sequence,4_24,2023-11-01T17:11:44.234Z,,0,,,3777.777999999962,completion,,,,,false,,,,245229,245228.69999999995,241434.248,241432,241450.922,245250.77,8,400,,,
trial,html.Screen,4_25_0,2023-11-01T17:11:47.883Z,,0,1,,3627.6300000000338,response,ISIC_7763042.JPG,5,ISIC_7897925.JPG,ISIC_7763042.JPG,false,1,keypress(m),500,248878.69999999995,248878.40000000002,245234.148,245229,245250.77,248900.619,8,400,26,,ISIC_7897925.JPG
break,html.Screen,4_25_1,2023-11-01T17:11:47.884Z,,0,,,NaN,,,,,,false,,,,248879.40000000002,248879.29999999993,,248878.79999999993,,248900.619,8,400,,,
break_continue,html.Screen,4_25_2,2023-11-01T17:11:47.884Z,,0,,,NaN,,,,,,false,,,,248879.69999999995,248879.59999999998,,248879.5,,248900.619,8,400,,,
sequence,flow.Sequence,4_25,2023-11-01T17:11:47.884Z,,0,,,3628.829999999987,completion,,,,,false,,,,248879.79999999993,248879.59999999998,245234.148,245229,245250.77,248900.619,8,400,,,
trial,html.Screen,4_26_0,2023-11-01T17:11:53.392Z,,0,1,,5486.380999999994,response,ISIC_0033501.JPG,4,ISIC_0012887.JPG,ISIC_0033501.JPG,false,1,keypress(m),500,254387.19999999995,254387,248883.974,248879.79999999993,248900.619,254417.104,8,400,27,,ISIC_0012887.JPG
break,html.Screen,4_26_1,2023-11-01T17:11:53.393Z,,0,,,NaN,,,,,,false,,,,254388.09999999998,254387.90000000002,,254387.40000000002,,254417.104,8,400,,,
break_continue,html.Screen,4_26_2,2023-11-01T17:11:53.393Z,,0,,,NaN,,,,,,false,,,,254388.5,254388.40000000002,,254388.19999999995,,254417.104,8,400,,,
sequence,flow.Sequence,4_26,2023-11-01T17:11:53.393Z,,0,,,5487.781000000017,completion,,,,,false,,,,254388.59999999998,254388.40000000002,248883.974,248879.79999999993,248900.619,254417.104,8,400,,,
trial,html.Screen,4_27_0,2023-11-01T17:11:57.447Z,,0,1,,4022.4959999999846,response,ISIC_1745182.JPG,6,ISIC_0033071.JPG,ISIC_1745182.JPG,false,1,keypress(m),500,258442.5,258439.59999999998,254400.566,254388.69999999995,254417.104,258466.98,8,400,28,,ISIC_0033071.JPG
break,html.Screen,4_27_1,2023-11-01T17:11:57.448Z,,0,,,NaN,,,,,,false,,,,258443.79999999993,258443.40000000002,,258442.69999999995,,258466.98,8,400,,,
break_continue,html.Screen,4_27_2,2023-11-01T17:11:57.449Z,,0,,,NaN,,,,,,false,,,,258444.29999999993,258444.19999999995,,258443.90000000002,,258466.98,8,400,,,
sequence,flow.Sequence,4_27,2023-11-01T17:11:57.449Z,,0,,,4027.0959999999614,completion,,,,,false,,,,258444.5,258444.19999999995,254400.566,254388.69999999995,254417.104,258466.98,8,400,,,
trial,html.Screen,4_28_0,2023-11-01T17:12:04.539Z,,0,1,,7067.219999999943,response,ISIC_3650533.JPG,5,ISIC_7915065.JPG,ISIC_3650533.JPG,false,1,keypress(m),500,265534.4,265534.19999999995,258450.327,258444.59999999998,258466.98,265566.749,8,400,29,,ISIC_7915065.JPG
break,html.Screen,4_28_1,2023-11-01T17:12:04.540Z,,0,,,NaN,,,,,,false,,,,265535.4,265535.19999999995,,265534.5,,265566.749,8,400,,,
break_continue,html.Screen,4_28_2,2023-11-01T17:12:04.540Z,,0,,,NaN,,,,,,false,,,,265535.69999999995,265535.6,,265535.5,,265566.749,8,400,,,
sequence,flow.Sequence,4_28,2023-11-01T17:12:04.540Z,,0,,,7068.619999999966,completion,,,,,false,,,,265535.79999999993,265535.6,258450.327,258444.59999999998,258466.98,265566.749,8,400,,,
trial,html.Screen,4_29_0,2023-11-01T17:12:09.729Z,,0,1,,5157.750999999989,response,ISIC_2957732.JPG,9,ISIC_8484660.JPG,ISIC_2957732.JPG,false,1,keypress(m),500,270724.6,270724.5,265550.078,265535.9,265566.749,270749.822,8,400,30,,ISIC_8484660.JPG
break,html.Screen,4_29_1,2023-11-01T17:12:09.732Z,,0,,,NaN,,,,,,false,,,,270727.6,270727.19999999995,,270724.79999999993,,270749.822,8,400,,,
break_continue,html.Screen,4_29_2,2023-11-01T17:12:09.733Z,,0,,,NaN,,,,,,false,,,,270728.1,270728,,270727.69999999995,,270749.822,8,400,,,
sequence,flow.Sequence,4_29,2023-11-01T17:12:09.733Z,,0,,,5161.250999999989,completion,,,,,false,,,,270728.1,270728,265550.078,265535.9,265566.749,270749.822,8,400,,,
trial,html.Screen,4_30_0,2023-11-01T17:12:14.695Z,,0,1,,4940.477999999945,response,ISIC_0027193.JPG,6,ISIC_0504165.JPG,ISIC_0027193.JPG,false,1,keypress(m),500,275690.6,275690.29999999993,270733.175,270728.29999999993,270749.822,275716.369,8,400,31,,ISIC_0504165.JPG
break,html.Screen,4_30_1,2023-11-01T17:12:14.697Z,,0,,,NaN,,,,,,false,,,,275691.9,275691.6,,275690.79999999993,,275716.369,8,400,,,
break_continue,html.Screen,4_30_2,2023-11-01T17:12:14.697Z,,0,,,NaN,,,,,,false,,,,275692.4,275692.29999999993,,275692.1,,275716.369,8,400,,,
sequence,flow.Sequence,4_30,2023-11-01T17:12:14.697Z,,0,,,4942.477999999945,completion,,,,,false,,,,275692.6,275692.29999999993,270733.175,270728.19999999995,270749.822,275716.369,8,400,,,
trial,html.Screen,4_31_0,2023-11-01T17:12:18.830Z,,0,1,,4108.430999999924,response,ISIC_0010540.JPG,7,ISIC_7519274.JPG,ISIC_7519274.JPG,false,0,keypress(z),500,279825,279824.79999999993,275699.767,275692.69999999995,275716.369,279849.517,8,400,32,,ISIC_0010540.JPG
break,html.Screen,4_31_1,2023-11-01T17:12:18.831Z,,0,,,NaN,,,,,,false,,,,279825.9,279825.79999999993,,279825.1,,279849.517,8,400,,,
break_continue,html.Screen,4_31_2,2023-11-01T17:12:18.831Z,,0,,,NaN,,,,,,false,,,,279826.19999999995,279826.19999999995,,279826,,279849.517,8,400,,,
sequence,flow.Sequence,4_31,2023-11-01T17:12:18.831Z,,0,,,4109.830999999947,completion,,,,,false,,,,279826.29999999993,279826.19999999995,275699.767,275692.6,275716.369,279849.517,8,400,,,
trial,html.Screen,4_32_0,2023-11-01T17:12:24.113Z,,0,1,,5258.682999999961,response,ISIC_0027480.JPG,7,ISIC_7801289.JPG,ISIC_7801289.JPG,false,0,keypress(z),500,285108.4,285108.19999999995,279832.82,279826.4,279849.517,285132.67,8,400,33,,ISIC_0027480.JPG
break,html.Screen,4_32_1,2023-11-01T17:12:24.114Z,,0,,,NaN,,,,,,false,,,,285109.19999999995,285109,,285108.5,,285132.67,8,400,,,
break_continue,html.Screen,4_32_2,2023-11-01T17:12:24.114Z,,0,,,NaN,,,,,,false,,,,285109.4,285109.4,,285109.29999999993,,285132.67,8,400,,,
sequence,flow.Sequence,4_32,2023-11-01T17:12:24.114Z,,0,,,5259.883000000031,completion,,,,,false,,,,285109.5,285109.4,279832.82,279826.4,279849.517,285132.67,8,400,,,
trial,html.Screen,4_33_0,2023-11-01T17:12:27.045Z,,0,1,,2907.6299999999464,response,ISIC_0058174.JPG,7,ISIC_0032558.JPG,ISIC_0032558.JPG,false,0,keypress(z),500,288040.4,288040.29999999993,285115.947,285109.5,285132.67,288065.929,8,400,34,,ISIC_0058174.JPG
break,html.Screen,4_33_1,2023-11-01T17:12:27.046Z,,0,,,NaN,,,,,,false,,,,288041.5,288041.19999999995,,288040.6,,288065.929,8,400,,,
break_continue,html.Screen,4_33_2,2023-11-01T17:12:27.046Z,,0,,,NaN,,,,,,false,,,,288041.9,288041.79999999993,,288041.6,,288065.929,8,400,,,
sequence,flow.Sequence,4_33,2023-11-01T17:12:27.047Z,,0,,,2909.1299999999464,completion,,,,,false,,,,288042,288041.79999999993,285115.947,285109.5,285132.67,288065.929,8,400,,,
trial,html.Screen,4_34_0,2023-11-01T17:12:34.059Z,,0,1,,6988.370999999926,response,ISIC_0055136.JPG,7,ISIC_0063930.JPG,ISIC_0055136.JPG,false,1,keypress(m),500,295054.5,295054.29999999993,288049.225,288042.1,288065.929,295082.283,8,400,35,,ISIC_0063930.JPG
break,html.Screen,4_34_1,2023-11-01T17:12:34.060Z,,0,,,NaN,,,,,,false,,,,295055.5,295055.29999999993,,295054.6,,295082.283,8,400,,,
break_continue,html.Screen,4_34_2,2023-11-01T17:12:34.060Z,,0,,,NaN,,,,,,false,,,,295055.79999999993,295055.69999999995,,295055.6,,295082.283,8,400,,,
sequence,flow.Sequence,4_34,2023-11-01T17:12:34.060Z,,0,,,6989.77099999995,completion,,,,,false,,,,295055.9,295055.69999999995,288049.225,288042.1,288065.929,295082.283,8,400,,,
trial,html.Screen,4_35_0,2023-11-01T17:12:38.945Z,,0,1,,4858.016999999934,response,ISIC_0065513.JPG,8,ISIC_0062298.JPG,ISIC_0062298.JPG,false,0,keypress(z),500,299940.5,299940.29999999993,295065.709,295055.9,295082.283,299965.428,8,400,36,,ISIC_0065513.JPG
break,html.Screen,4_35_1,2023-11-01T17:12:38.946Z,,0,,,NaN,,,,,,false,,,,299941.6,299941.29999999993,,299940.6,,299965.428,8,400,,,
break_continue,html.Screen,4_35_2,2023-11-01T17:12:38.947Z,,0,,,NaN,,,,,,false,,,,299941.9,299941.79999999993,,299941.69999999995,,299965.428,8,400,,,
sequence,flow.Sequence,4_35,2023-11-01T17:12:38.947Z,,0,,,4859.516999999934,completion,,,,,false,,,,299942,299941.79999999993,295065.709,295055.9,295082.283,299965.428,8,400,,,
trial,html.Screen,4_36_0,2023-11-01T17:12:42.390Z,,0,1,,3420.271999999939,response,ISIC_5854552.JPG,6,ISIC_7680333.JPG,ISIC_5854552.JPG,false,1,keypress(m),500,303385.9,303385.69999999995,299948.85,299942.1,299965.428,303415.293,8,400,37,,ISIC_7680333.JPG
break,html.Screen,4_36_1,2023-11-01T17:12:42.391Z,,0,,,NaN,,,,,,false,,,,303386.9,303386.69999999995,,303386,,303415.293,8,400,,,
break_continue,html.Screen,4_36_2,2023-11-01T17:12:42.392Z,,0,,,NaN,,,,,,false,,,,303387.19999999995,303387.19999999995,,303387,,303415.293,8,400,,,
sequence,flow.Sequence,4_36,2023-11-01T17:12:42.392Z,,0,,,3421.771999999939,completion,,,,,false,,,,303387.29999999993,303387.19999999995,299948.85,299942.1,299965.428,303415.293,8,400,,,
trial,html.Screen,4_37_0,2023-11-01T17:12:46.365Z,,0,1,,3944.607000000018,response,ISIC_0031565.JPG,5,ISIC_0027971.JPG,ISIC_0027971.JPG,false,0,keypress(z),500,307360.19999999995,307359.9,303398.67,303387.29999999993,303415.293,307381.804,8,400,38,,ISIC_0031565.JPG
break,html.Screen,4_37_1,2023-11-01T17:12:46.366Z,,0,,,NaN,,,,,,false,,,,307361.1,307360.79999999993,,307360.29999999993,,307381.804,8,400,,,
break_continue,html.Screen,4_37_2,2023-11-01T17:12:46.366Z,,0,,,NaN,,,,,,false,,,,307361.4,307361.29999999993,,307361.19999999995,,307381.804,8,400,,,
sequence,flow.Sequence,4_37,2023-11-01T17:12:46.366Z,,0,,,3946.006999999925,completion,,,,,false,,,,307361.4,307361.29999999993,303398.67,303387.29999999993,303415.293,307381.804,8,400,,,
trial,html.Screen,4_38_0,2023-11-01T17:12:49.458Z,,0,1,,3071.3959999999497,response,ISIC_3671963.JPG,6,ISIC_0068126.JPG,ISIC_3671963.JPG,false,1,keypress(m),500,310453.4,310453.19999999995,307365.182,307361.5,307381.804,310481.696,8,400,39,,ISIC_0068126.JPG
break,html.Screen,4_38_1,2023-11-01T17:12:49.459Z,,0,,,NaN,,,,,,false,,,,310454.5,310454.19999999995,,310453.5,,310481.696,8,400,,,
break_continue,html.Screen,4_38_2,2023-11-01T17:12:49.459Z,,0,,,NaN,,,,,,false,,,,310454.9,310454.79999999993,,310454.6,,310481.696,8,400,,,
sequence,flow.Sequence,4_38,2023-11-01T17:12:49.459Z,,0,,,3072.9959999999264,completion,,,,,false,,,,310455.1,310454.79999999993,307365.182,307361.5,307381.804,310481.696,8,400,,,
trial,html.Screen,4_39_0,2023-11-01T17:12:52.743Z,,0,1,,3256.503999999957,response,ISIC_0063026.JPG,6,ISIC_0004986.JPG,ISIC_0004986.JPG,false,0,keypress(z),500,313738.4,313738.19999999995,310465.042,310455.1,310481.696,313764.892,8,400,40,,ISIC_0063026.JPG
break,html.Screen,4_39_1,2023-11-01T17:12:52.744Z,,0,,,NaN,,,,,,false,,,,313739.29999999993,313739.19999999995,,313738.6,,313764.892,8,400,,,
break_continue,html.Screen,4_39_2,2023-11-01T17:12:52.744Z,,0,,,NaN,,,,,,false,,,,313739.6,313739.6,,313739.4,,313764.892,8,400,,,
sequence,flow.Sequence,4_39,2023-11-01T17:12:52.744Z,,0,,,3257.9039999999804,completion,,,,,false,,,,313739.79999999993,313739.6,310465.042,310455.1,310481.696,313764.892,8,400,,,
trial,html.Screen,4_40_0,2023-11-01T17:12:56.492Z,,0,1,,3722.4079999999376,response,ISIC_2394780.JPG,5,ISIC_0001875.JPG,ISIC_0001875.JPG,false,0,keypress(z),500,317487.6,317487.29999999993,313748.388,313739.79999999993,313764.892,317514.786,8,400,41,,ISIC_2394780.JPG
break,html.Screen,4_40_1,2023-11-01T17:12:56.493Z,,0,,,NaN,,,,,,false,,,,317488.6,317488.4,,317487.69999999995,,317514.786,8,400,,,
break_continue,html.Screen,4_40_2,2023-11-01T17:12:56.493Z,,0,,,NaN,,,,,,false,,,,317489,317489,,317488.69999999995,,317514.786,8,400,,,
sequence,flow.Sequence,4_40,2023-11-01T17:12:56.494Z,,0,,,3724.1080000000075,completion,,,,,false,,,,317489.1,317489,313748.388,313739.79999999993,313764.892,317514.786,8,400,,,
trial,html.Screen,4_41_0,2023-11-01T17:12:59.743Z,,0,1,,3223.4139999999315,response,ISIC_8664718.JPG,6,ISIC_0066429.JPG,ISIC_8664718.JPG,false,1,keypress(m),500,320738.5,320738.19999999995,317498.119,317489.1,317514.786,320764.646,8,400,42,,ISIC_0066429.JPG
break,html.Screen,4_41_1,2023-11-01T17:12:59.744Z,,0,,,NaN,,,,,,false,,,,320739.6,320739.29999999993,,320738.69999999995,,320764.646,8,400,,,
break_continue,html.Screen,4_41_2,2023-11-01T17:12:59.744Z,,0,,,NaN,,,,,,false,,,,320739.9,320739.9,,320739.69999999995,,320764.646,8,400,,,
sequence,flow.Sequence,4_41,2023-11-01T17:12:59.745Z,,0,,,3225.1140000000014,completion,,,,,false,,,,320740.1,320739.9,317498.119,317489.1,317514.786,320764.646,8,400,,,
trial,html.Screen,4_42_0,2023-11-01T17:13:03.716Z,,0,1,,3946.853999999992,response,ISIC_7594601.JPG,6,ISIC_4236274.JPG,ISIC_4236274.JPG,false,0,keypress(z),500,324711.69999999995,324711.5,320747.985,320740.1,320764.646,324731.16,8,400,43,,ISIC_7594601.JPG
break,html.Screen,4_42_1,2023-11-01T17:13:03.717Z,,0,,,NaN,,,,,,false,,,,324712.6,324712.4,,324711.9,,324731.16,8,400,,,
break_continue,html.Screen,4_42_2,2023-11-01T17:13:03.717Z,,0,,,NaN,,,,,,false,,,,324712.9,324712.79999999993,,324712.69999999995,,324731.16,8,400,,,
sequence,flow.Sequence,4_42,2023-11-01T17:13:03.717Z,,0,,,3948.1539999999222,completion,,,,,false,,,,324712.9,324712.79999999993,320747.985,320740.1,320764.646,324731.16,8,400,,,
trial,html.Screen,4_43_0,2023-11-01T17:13:06.666Z,,0,1,,2930.1399999999558,response,ISIC_3609379.JPG,8,ISIC_9050826.JPG,ISIC_3609379.JPG,false,1,keypress(m),500,327661.6,327661.29999999993,324714.553,324712.9,324731.16,327681.071,8,400,44,,ISIC_9050826.JPG
break,html.Screen,4_43_1,2023-11-01T17:13:06.667Z,,0,,,NaN,,,,,,false,,,,327662.4,327662.19999999995,,327661.69999999995,,327681.071,8,400,,,
break_continue,html.Screen,4_43_2,2023-11-01T17:13:06.667Z,,0,,,NaN,,,,,,false,,,,327662.6,327662.5,,327662.4,,327681.071,8,400,,,
sequence,flow.Sequence,4_43,2023-11-01T17:13:06.667Z,,0,,,2931.3400000000256,completion,,,,,false,,,,327662.79999999993,327662.5,324714.553,324712.9,324731.16,327681.071,8,400,,,
trial,html.Screen,4_44_0,2023-11-01T17:13:10.735Z,,0,1,,4049.4290000000037,response,ISIC_7226381.JPG,5,ISIC_0061915.JPG,ISIC_7226381.JPG,false,1,keypress(m),500,331730.69999999995,331730.5,327664.522,327662.79999999993,327681.071,331747.55,8,400,45,,ISIC_0061915.JPG
break,html.Screen,4_44_1,2023-11-01T17:13:10.736Z,,0,,,NaN,,,,,,false,,,,331731.9,331731.5,,331730.79999999993,,331747.55,8,400,,,
break_continue,html.Screen,4_44_2,2023-11-01T17:13:10.737Z,,0,,,NaN,,,,,,false,,,,331732.19999999995,331732.19999999995,,331732,,331747.55,8,400,,,
sequence,flow.Sequence,4_44,2023-11-01T17:13:10.737Z,,0,,,4051.128999999957,completion,,,,,false,,,,331732.4,331732.19999999995,327664.522,327662.79999999993,327681.071,331747.55,8,400,,,
trial,html.Screen,4_45_0,2023-11-01T17:13:15.926Z,,0,1,,5173.450000000012,response,ISIC_0029982.JPG,9,ISIC_0025791.JPG,ISIC_0029982.JPG,false,1,keypress(m),500,336921.29999999993,336921,331730.897,331732.5,331747.55,336947.376,8,400,46,,ISIC_0025791.JPG
break,html.Screen,4_45_1,2023-11-01T17:13:15.927Z,,0,,,NaN,,,,,,false,,,,336922.79999999993,336922.5,,336921.6,,336947.376,8,400,,,
break_continue,html.Screen,4_45_2,2023-11-01T17:13:15.928Z,,0,,,NaN,,,,,,false,,,,336923.29999999993,336923.1,,336922.79999999993,,336947.376,8,400,,,
sequence,flow.Sequence,4_45,2023-11-01T17:13:15.928Z,,0,,,5175.549999999988,completion,,,,,false,,,,336923.4,336923.1,331730.897,331732.5,331747.55,336947.376,8,400,,,
trial,html.Screen,4_46_0,2023-11-01T17:13:19.103Z,,0,1,,3150.823999999964,response,ISIC_3418245.JPG,5,ISIC_0027479.JPG,ISIC_0027479.JPG,false,0,keypress(z),500,340098.4,340098.19999999995,336930.754,336923.6,336947.376,340130.601,8,400,47,,ISIC_3418245.JPG
break,html.Screen,4_46_1,2023-11-01T17:13:19.104Z,,0,,,NaN,,,,,,false,,,,340099.5,340099.29999999993,,340098.6,,340130.601,8,400,,,
break_continue,html.Screen,4_46_2,2023-11-01T17:13:19.104Z,,0,,,NaN,,,,,,false,,,,340099.9,340099.79999999993,,340099.6,,340130.601,8,400,,,
sequence,flow.Sequence,4_46,2023-11-01T17:13:19.104Z,,0,,,3152.423999999941,completion,,,,,false,,,,340099.9,340099.79999999993,336930.754,336923.5,336947.376,340130.601,8,400,,,
trial,html.Screen,4_47_0,2023-11-01T17:13:23.077Z,,0,1,,3941.798999999999,response,ISIC_5323725.JPG,8,ISIC_5518595.JPG,ISIC_5518595.JPG,false,0,keypress(z),500,344072.69999999995,344072.4,340113.927,340100,340130.601,346064.523,8,400,48,,ISIC_5323725.JPG
break,html.Screen,4_47_1,2023-11-01T17:13:23.078Z,,0,,,NaN,,,,,,false,,,,344073.79999999993,344073.5,,344072.79999999993,,346064.523,8,400,,,
break_continue,html.Screen,4_47_2,2023-11-01T17:13:23.079Z,,0,,,NaN,,,,,,false,,,,344074.29999999993,344074.19999999995,,344074,,346064.523,8,400,,,
sequence,flow.Sequence,4_47,2023-11-01T17:13:23.079Z,,0,,,3943.598999999929,completion,,,,,false,,,,344074.5,344074.19999999995,340113.927,340100,340130.601,346064.523,8,400,,,
trial,html.Screen,4_48_0,2023-11-01T17:13:35.436Z,,0,1,,10366.776999999944,response,ISIC_6983970.JPG,523,ISIC_0003281.JPG,ISIC_0003281.JPG,false,0,keypress(z),500,356431.6,356431.29999999993,344346.405,344074.5,346064.523,356446.635,8,400,49,,ISIC_6983970.JPG
break,html.Screen,4_48_1,2023-11-01T17:13:35.437Z,,0,,,NaN,,,,,,false,,,,356432.6,356432.4,,356431.79999999993,,356446.635,8,400,,,
break_continue,html.Screen,4_48_2,2023-11-01T17:13:35.437Z,,0,,,NaN,,,,,,false,,,,356432.79999999993,356432.79999999993,,356432.69999999995,,356446.635,8,400,,,
sequence,flow.Sequence,4_48,2023-11-01T17:13:35.437Z,,0,,,10368.276999999944,completion,,,,,false,,,,356432.9,356432.79999999993,344346.405,344074.5,346064.523,356446.635,8,400,,,
trial,html.Screen,4_49_0,2023-11-01T17:13:39.730Z,,0,1,,4278.964999999967,response,ISIC_1985763.JPG,5,ISIC_0010046.JPG,ISIC_1985763.JPG,false,1,keypress(m),500,360725.9,360725.6,356429.968,356432.9,356446.635,360746.574,8,400,50,,ISIC_0010046.JPG
break,html.Screen,4_49_1,2023-11-01T17:13:49.735Z,,0,,,9999.532999999996,timeout,,,,,false,,,,370730.6,370729.442,360729.906,360726.1,360746.574,370746.107,8,400,,,
break_continue,html.Screen,4_49_2,2023-11-01T17:13:54.166Z,,0,,,4407.192999999912,response,,,,,false,continue,keypress(Space),,375162,375153.29999999993,370729.442,370730.79999999993,370746.107,375179.251,8,400,,,
sequence,flow.Sequence,4_49,2023-11-01T17:13:54.167Z,,0,,,18706.66499999992,completion,,,,,false,,,,375162.1,375153.29999999993,356429.968,356432.9,356446.635,375179.251,8,400,,,
trial,html.Screen,4_50_0,2023-11-01T17:14:01.419Z,,0,2,,7235.048999999941,response,ISIC_3689759.JPG,8,ISIC_5360921.JPG,ISIC_5360921.JPG,false,0,keypress(z),500,382414.6,382414.29999999993,375162.406,375162.19999999995,375179.251,382428.975,8,400,1,,ISIC_3689759.JPG
break,html.Screen,4_50_1,2023-11-01T17:14:01.420Z,,0,,,NaN,,,,,,false,,,,382415.4,382415.19999999995,,382414.6,,382428.975,8,400,,,
break_continue,html.Screen,4_50_2,2023-11-01T17:14:01.420Z,,0,,,NaN,,,,,,false,,,,382415.6,382415.6,,382415.5,,382428.975,8,400,,,
sequence,flow.Sequence,4_50,2023-11-01T17:14:01.420Z,,0,,,7236.348999999987,completion,,,,,false,,,,382415.69999999995,382415.6,375162.406,375162.19999999995,375179.251,382428.975,8,400,,,
trial,html.Screen,4_51_0,2023-11-01T17:14:05.953Z,,0,2,,4519.224999999977,response,ISIC_0012047.JPG,8,ISIC_0033336.JPG,ISIC_0033336.JPG,false,0,keypress(z),500,386948.4,386948.19999999995,382412.194,382415.69999999995,382428.975,386962.156,8,400,2,,ISIC_0012047.JPG
break,html.Screen,4_51_1,2023-11-01T17:14:05.954Z,,0,,,NaN,,,,,,false,,,,386949.19999999995,386949.1,,386948.6,,386962.156,8,400,,,
break_continue,html.Screen,4_51_2,2023-11-01T17:14:05.954Z,,0,,,NaN,,,,,,false,,,,386949.5,386949.5,,386949.29999999993,,386962.156,8,400,,,
sequence,flow.Sequence,4_51,2023-11-01T17:14:05.954Z,,0,,,4520.525000000023,completion,,,,,false,,,,386949.69999999995,386949.5,382412.194,382415.69999999995,382428.975,386962.156,8,400,,,
trial,html.Screen,4_52_0,2023-11-01T17:14:10.965Z,,0,2,,4997.9439999999595,response,ISIC_0029686.JPG,6,ISIC_0032629.JPG,ISIC_0029686.JPG,false,1,keypress(m),500,391960.4,391960.1,386945.49,386949.69999999995,386962.156,391975.305,8,400,3,,ISIC_0032629.JPG
break,html.Screen,4_52_1,2023-11-01T17:14:10.966Z,,0,,,NaN,,,,,,false,,,,391961.4,391961.19999999995,,391960.5,,391975.305,8,400,,,
break_continue,html.Screen,4_52_2,2023-11-01T17:14:10.966Z,,0,,,NaN,,,,,,false,,,,391961.6,391961.6,,391961.5,,391975.305,8,400,,,
sequence,flow.Sequence,4_52,2023-11-01T17:14:10.966Z,,0,,,4999.4439999999595,completion,,,,,false,,,,391961.69999999995,391961.6,386945.49,386949.69999999995,386962.156,391975.305,8,400,,,
trial,html.Screen,4_53_0,2023-11-01T17:14:14.488Z,,0,2,,3508.195000000007,response,ISIC_6895016.JPG,7,ISIC_5671175.JPG,ISIC_5671175.JPG,false,0,keypress(z),500,395483.6,395483.5,391958.21,391961.79999999993,391975.305,395511.829,8,400,4,,ISIC_6895016.JPG
break,html.Screen,4_53_1,2023-11-01T17:14:14.489Z,,0,,,NaN,,,,,,false,,,,395484.4,395484.29999999993,,395483.69999999995,,395511.829,8,400,,,
break_continue,html.Screen,4_53_2,2023-11-01T17:14:14.489Z,,0,,,NaN,,,,,,false,,,,395484.69999999995,395484.6,,395484.5,,395511.829,8,400,,,
sequence,flow.Sequence,4_53,2023-11-01T17:14:14.489Z,,0,,,3509.2949999999837,completion,,,,,false,,,,395484.79999999993,395484.6,391958.21,391961.69999999995,391975.305,395511.829,8,400,,,
trial,html.Screen,4_54_0,2023-11-01T17:14:18.827Z,,0,2,,4310.670999999973,response,ISIC_9386509.JPG,7,ISIC_8671662.JPG,ISIC_8671662.JPG,false,0,keypress(z),500,399822.79999999993,399822.5,395494.958,395484.79999999993,395511.829,399845.038,8,400,5,,ISIC_9386509.JPG
break,html.Screen,4_54_1,2023-11-01T17:14:18.828Z,,0,,,NaN,,,,,,false,,,,399824,399823.5,,399823,,399845.038,8,400,,,
break_continue,html.Screen,4_54_2,2023-11-01T17:14:18.829Z,,0,,,NaN,,,,,,false,,,,399824.29999999993,399824.29999999993,,399824,,399845.038,8,400,,,
sequence,flow.Sequence,4_54,2023-11-01T17:14:18.829Z,,0,,,4312.470999999903,completion,,,,,false,,,,399824.4,399824.29999999993,395494.958,395484.79999999993,395511.829,399845.038,8,400,,,
trial,html.Screen,4_55_0,2023-11-01T17:14:23.410Z,,0,2,,4560.661999999953,response,ISIC_0202119.JPG,5,ISIC_0013365.JPG,ISIC_0202119.JPG,false,1,keypress(m),500,404405.79999999993,404405.69999999995,399828.24,399824.4,399845.038,404428.301,8,400,6,,ISIC_0013365.JPG
break,html.Screen,4_55_1,2023-11-01T17:14:23.411Z,,0,,,NaN,,,,,,false,,,,404406.69999999995,404406.5,,404405.9,,404428.301,8,400,,,
break_continue,html.Screen,4_55_2,2023-11-01T17:14:23.411Z,,0,,,NaN,,,,,,false,,,,404406.9,404406.79999999993,,404406.69999999995,,404428.301,8,400,,,
sequence,flow.Sequence,4_55,2023-11-01T17:14:23.411Z,,0,,,4561.76199999993,completion,,,,,false,,,,404407,404406.79999999993,399828.24,399824.4,399845.038,404428.301,8,400,,,
trial,html.Screen,4_56_0,2023-11-01T17:14:27.126Z,,0,2,,3693.298999999999,response,ISIC_6670242.JPG,7,ISIC_0000022.JPG,ISIC_6670242.JPG,false,1,keypress(m),500,408121.79999999993,408121.6,404411.631,404407,404428.301,408138.712,8,400,7,,ISIC_0000022.JPG
break,html.Screen,4_56_1,2023-11-01T17:14:27.127Z,,0,,,NaN,,,,,,false,,,,408122.9,408122.6,,408122,,408138.712,8,400,,,
break_continue,html.Screen,4_56_2,2023-11-01T17:14:27.128Z,,0,,,NaN,,,,,,false,,,,408123.29999999993,408123.19999999995,,408123,,408138.712,8,400,,,
sequence,flow.Sequence,4_56,2023-11-01T17:14:27.128Z,,0,,,3694.898999999976,completion,,,,,false,,,,408123.4,408123.19999999995,404411.631,404407,404428.301,408138.712,8,400,,,
trial,html.Screen,4_57_0,2023-11-01T17:14:33.417Z,,0,2,,6273.487999999954,response,ISIC_0000296.JPG,6,ISIC_7984646.JPG,ISIC_7984646.JPG,false,0,keypress(z),500,414412.5,414412.19999999995,408121.693,408123.4,408138.712,414427.918,8,400,8,,ISIC_0000296.JPG
break,html.Screen,4_57_1,2023-11-01T17:14:33.418Z,,0,,,NaN,,,,,,false,,,,414413.4,414413.19999999995,,414412.6,,414427.918,8,400,,,
break_continue,html.Screen,4_57_2,2023-11-01T17:14:33.418Z,,0,,,NaN,,,,,,false,,,,414413.69999999995,414413.6,,414413.5,,414427.918,8,400,,,
sequence,flow.Sequence,4_57,2023-11-01T17:14:33.418Z,,0,,,6274.887999999977,completion,,,,,false,,,,414413.9,414413.6,408121.693,408123.4,408138.712,414427.918,8,400,,,
trial,html.Screen,4_58_0,2023-11-01T17:14:36.908Z,,0,2,,3475.381999999925,response,ISIC_2119925.JPG,7,ISIC_0064742.JPG,ISIC_2119925.JPG,false,1,keypress(m),500,417903.5,417903.29999999993,414411.252,414413.9,414427.918,417927.694,8,400,9,,ISIC_0064742.JPG
break,html.Screen,4_58_1,2023-11-01T17:14:36.909Z,,0,,,NaN,,,,,,false,,,,417904.6,417904.29999999993,,417903.79999999993,,417927.694,8,400,,,
break_continue,html.Screen,4_58_2,2023-11-01T17:14:36.910Z,,0,,,NaN,,,,,,false,,,,417905,417904.9,,417904.69999999995,,417927.694,8,400,,,
sequence,flow.Sequence,4_58,2023-11-01T17:14:36.910Z,,0,,,3476.982000000018,completion,,,,,false,,,,417905.1,417904.9,414411.252,414413.9,414427.918,417927.694,8,400,,,
trial,html.Screen,4_59_0,2023-11-01T17:14:39.410Z,,0,2,,2477.1059999999125,response,ISIC_0031711.JPG,8,ISIC_6588982.JPG,ISIC_6588982.JPG,false,0,keypress(z),500,420405.1,420404.79999999993,417911.015,417905.1,417927.694,420427.781,8,400,10,,ISIC_0031711.JPG
break,html.Screen,4_59_1,2023-11-01T17:14:39.410Z,,0,,,NaN,,,,,,false,,,,420405.79999999993,420405.6,,420405.1,,420427.781,8,400,,,
break_continue,html.Screen,4_59_2,2023-11-01T17:14:39.411Z,,0,,,NaN,,,,,,false,,,,420406.19999999995,420406.19999999995,,420405.9,,420427.781,8,400,,,
sequence,flow.Sequence,4_59,2023-11-01T17:14:39.411Z,,0,,,2478.5059999999357,completion,,,,,false,,,,420406.4,420406.19999999995,417911.015,417905.1,417927.694,420427.781,8,400,,,
trial,html.Screen,4_60_0,2023-11-01T17:14:45.237Z,,0,2,,5804.218999999983,response,ISIC_0064534.JPG,7,ISIC_0000035.JPG,ISIC_0064534.JPG,false,1,keypress(m),500,426232.1,426232,420411.112,420406.6,420427.781,426260.717,8,400,11,,ISIC_0000035.JPG
break,html.Screen,4_60_1,2023-11-01T17:14:45.237Z,,0,,,NaN,,,,,,false,,,,426232.9,426232.69999999995,,426232.29999999993,,426260.717,8,400,,,
break_continue,html.Screen,4_60_2,2023-11-01T17:14:45.238Z,,0,,,NaN,,,,,,false,,,,426233,426232.9,,426232.9,,426260.717,8,400,,,
sequence,flow.Sequence,4_60,2023-11-01T17:14:45.238Z,,0,,,5805.119000000006,completion,,,,,false,,,,426233.1,426232.9,420411.112,420406.6,420427.781,426260.717,8,400,,,
trial,html.Screen,4_61_0,2023-11-01T17:14:52.170Z,,0,2,,6904.3829999999725,response,ISIC_6284312.JPG,8,ISIC_3981425.JPG,ISIC_3981425.JPG,false,0,keypress(z),500,433165.29999999993,433165.1,426244.004,426233.1,426260.717,433194.02,8,400,12,,ISIC_6284312.JPG
break,html.Screen,4_61_1,2023-11-01T17:14:52.171Z,,0,,,NaN,,,,,,false,,,,433166,433165.9,,433165.4,,433194.02,8,400,,,
break_continue,html.Screen,4_61_2,2023-11-01T17:14:52.171Z,,0,,,NaN,,,,,,false,,,,433166.29999999993,433166.19999999995,,433166.1,,433194.02,8,400,,,
sequence,flow.Sequence,4_61,2023-11-01T17:14:52.171Z,,0,,,6905.482999999949,completion,,,,,false,,,,433166.4,433166.19999999995,426244.004,426233.1,426260.717,433194.02,8,400,,,
trial,html.Screen,4_62_0,2023-11-01T17:14:58.477Z,,0,2,,6278.179999999935,response,ISIC_0013459.JPG,9,ISIC_1004416.JPG,ISIC_0013459.JPG,false,1,keypress(m),500,439472.5,439472.19999999995,433177.196,433166.6,433194.02,439493.623,8,400,13,,ISIC_1004416.JPG
break,html.Screen,4_62_1,2023-11-01T17:14:58.478Z,,0,,,NaN,,,,,,false,,,,439473.19999999995,439473,,439472.6,,439493.623,8,400,,,
break_continue,html.Screen,4_62_2,2023-11-01T17:14:58.478Z,,0,,,NaN,,,,,,false,,,,439473.5,439473.4,,439473.19999999995,,439493.623,8,400,,,
sequence,flow.Sequence,4_62,2023-11-01T17:14:58.478Z,,0,,,6279.380000000005,completion,,,,,false,,,,439473.6,439473.4,433177.196,433166.5,433194.02,439493.623,8,400,,,
trial,html.Screen,4_63_0,2023-11-01T17:15:03.235Z,,0,2,,4736.076999999932,response,ISIC_8690631.JPG,4,ISIC_2461360.JPG,ISIC_8690631.JPG,false,1,keypress(m),500,444230.1,444229.69999999995,439476.958,439473.69999999995,439493.623,444243.366,8,400,14,,ISIC_2461360.JPG
break,html.Screen,4_63_1,2023-11-01T17:15:03.236Z,,0,,,NaN,,,,,,false,,,,444231.1,444230.9,,444230.29999999993,,444243.366,8,400,,,
break_continue,html.Screen,4_63_2,2023-11-01T17:15:03.236Z,,0,,,NaN,,,,,,false,,,,444231.5,444231.4,,444231.19999999995,,444243.366,8,400,,,
sequence,flow.Sequence,4_63,2023-11-01T17:15:03.236Z,,0,,,4737.777000000002,completion,,,,,false,,,,444231.6,444231.4,439476.958,439473.6,439493.623,444243.366,8,400,,,
trial,html.Screen,4_64_0,2023-11-01T17:15:06.584Z,,0,2,,3335.5340000000433,response,ISIC_4658487.JPG,4,ISIC_6174156.JPG,ISIC_6174156.JPG,false,0,keypress(z),500,447579.1,447578.9,444226.635,444231.6,444243.366,447593.301,8,400,15,,ISIC_4658487.JPG
break,html.Screen,4_64_1,2023-11-01T17:15:06.585Z,,0,,,NaN,,,,,,false,,,,447580.1,447579.79999999993,,447579.29999999993,,447593.301,8,400,,,
break_continue,html.Screen,4_64_2,2023-11-01T17:15:06.585Z,,0,,,NaN,,,,,,false,,,,447580.6,447580.5,,447580.29999999993,,447593.301,8,400,,,
sequence,flow.Sequence,4_64,2023-11-01T17:15:06.585Z,,0,,,3337.13400000002,completion,,,,,false,,,,447580.69999999995,447580.5,444226.635,444231.6,444243.366,447593.301,8,400,,,
trial,html.Screen,4_65_0,2023-11-01T17:15:10.636Z,,0,2,,4037.9989999999525,response,ISIC_0069668.JPG,6,ISIC_8505243.JPG,ISIC_8505243.JPG,false,0,keypress(z),500,451631.5,451631.29999999993,447576.633,447580.79999999993,447593.301,451659.769,8,400,16,,ISIC_0069668.JPG
break,html.Screen,4_65_1,2023-11-01T17:15:10.637Z,,0,,,NaN,,,,,,false,,,,451632.4,451632.19999999995,,451631.69999999995,,451659.769,8,400,,,
break_continue,html.Screen,4_65_2,2023-11-01T17:15:10.637Z,,0,,,NaN,,,,,,false,,,,451632.79999999993,451632.69999999995,,451632.5,,451659.769,8,400,,,
sequence,flow.Sequence,4_65,2023-11-01T17:15:10.637Z,,0,,,4039.398999999976,completion,,,,,false,,,,451632.9,451632.69999999995,447576.633,447580.79999999993,447593.301,451659.769,8,400,,,
trial,html.Screen,4_66_0,2023-11-01T17:15:14.112Z,,0,2,,3447.131000000052,response,ISIC_5213829.JPG,5,ISIC_0012288.JPG,ISIC_5213829.JPG,false,1,keypress(m),500,455107.20000000007,455106.9,451642.991,451632.9,451659.769,455126.295,8,400,17,,ISIC_0012288.JPG
break,html.Screen,4_66_1,2023-11-01T17:15:14.113Z,,0,,,NaN,,,,,,false,,,,455108.1,455107.9,,455107.29999999993,,455126.295,8,400,,,
break_continue,html.Screen,4_66_2,2023-11-01T17:15:14.113Z,,0,,,NaN,,,,,,false,,,,455108.4,455108.4,,455108.20000000007,,455126.295,8,400,,,
sequence,flow.Sequence,4_66,2023-11-01T17:15:14.113Z,,0,,,3448.631000000052,completion,,,,,false,,,,455108.4999999999,455108.4,451642.991,451632.9,451659.769,455126.295,8,400,,,
trial,html.Screen,4_67_0,2023-11-01T17:15:17.429Z,,0,2,,3297.5049999999464,response,ISIC_1132966.JPG,4,ISIC_1285870.JPG,ISIC_1132966.JPG,false,1,keypress(m),500,458423.9999999999,458423.79999999993,455109.6,455108.4999999999,455126.295,458442.844,8,400,18,,ISIC_1285870.JPG
break,html.Screen,4_67_1,2023-11-01T17:15:17.429Z,,0,,,NaN,,,,,,false,,,,458424.79999999993,458424.70000000007,,458424.1,,458442.844,8,400,,,
break_continue,html.Screen,4_67_2,2023-11-01T17:15:17.430Z,,0,,,NaN,,,,,,false,,,,458425.20000000007,458425.1,,458424.9,,458442.844,8,400,,,
sequence,flow.Sequence,4_67,2023-11-01T17:15:17.430Z,,0,,,3298.804999999993,completion,,,,,false,,,,458425.20000000007,458425.1,455109.6,455108.4999999999,455126.295,458442.844,8,400,,,
trial,html.Screen,4_68_0,2023-11-01T17:15:24.586Z,,0,2,,7138.455999999947,response,ISIC_5258657.JPG,6,ISIC_0026329.JPG,ISIC_0026329.JPG,false,0,keypress(z),500,465581.4999999999,465581.29999999993,458426.128,458425.4,458442.844,465609.29,8,400,19,,ISIC_5258657.JPG
break,html.Screen,4_68_1,2023-11-01T17:15:24.587Z,,0,,,NaN,,,,,,false,,,,465582.29999999993,465582.1,,465581.4999999999,,465609.29,8,400,,,
break_continue,html.Screen,4_68_2,2023-11-01T17:15:24.587Z,,0,,,NaN,,,,,,false,,,,465582.4999999999,465582.4,,465582.29999999993,,465609.29,8,400,,,
sequence,flow.Sequence,4_68,2023-11-01T17:15:24.587Z,,0,,,7139.5560000000405,completion,,,,,false,,,,465582.6,465582.4,458426.128,458425.4,458442.844,465609.29,8,400,,,
trial,html.Screen,4_69_0,2023-11-01T17:15:30.623Z,,0,2,,6008.610000000044,response,ISIC_0029374.JPG,8,ISIC_8951909.JPG,ISIC_8951909.JPG,false,0,keypress(z),500,471618.20000000007,471617.9,465592.623,465582.6,465609.29,471642.402,8,400,20,,ISIC_0029374.JPG
break,html.Screen,4_69_1,2023-11-01T17:15:30.624Z,,0,,,NaN,,,,,,false,,,,471619.20000000007,471618.9999999999,,471618.4,,471642.402,8,400,,,
break_continue,html.Screen,4_69_2,2023-11-01T17:15:30.624Z,,0,,,NaN,,,,,,false,,,,471619.4,471619.4,,471619.29999999993,,471642.402,8,400,,,
sequence,flow.Sequence,4_69,2023-11-01T17:15:30.624Z,,0,,,6010.110000000044,completion,,,,,false,,,,471619.4999999999,471619.4,465592.623,465582.6,465609.29,471642.402,8,400,,,
trial,html.Screen,4_70_0,2023-11-01T17:15:34.244Z,,0,2,,3596.5979999998817,response,ISIC_5382189.JPG,7,ISIC_0032278.JPG,ISIC_5382189.JPG,false,1,keypress(m),500,475239.20000000007,475238.9999999999,471625.533,471619.6,471642.402,475258.885,8,400,21,,ISIC_0032278.JPG
break,html.Screen,4_70_1,2023-11-01T17:15:34.245Z,,0,,,NaN,,,,,,false,,,,475240.29999999993,475239.9,,475239.29999999993,,475258.885,8,400,,,
break_continue,html.Screen,4_70_2,2023-11-01T17:15:34.245Z,,0,,,NaN,,,,,,false,,,,475240.79999999993,475240.70000000007,,475240.4,,475258.885,8,400,,,
sequence,flow.Sequence,4_70,2023-11-01T17:15:34.246Z,,0,,,3598.298000000068,completion,,,,,false,,,,475240.9999999999,475240.70000000007,471625.533,471619.6,471642.402,475258.885,8,400,,,
trial,html.Screen,4_71_0,2023-11-01T17:15:41.031Z,,0,2,,6767.914999999921,response,ISIC_3989526.JPG,8,ISIC_7340112.JPG,ISIC_3989526.JPG,false,1,keypress(m),500,482026.9999999999,482026.79999999993,475242.068,475240.9999999999,475258.885,482042.148,8,400,22,,ISIC_7340112.JPG
break,html.Screen,4_71_1,2023-11-01T17:15:41.032Z,,0,,,NaN,,,,,,false,,,,482028.1,482027.79999999993,,482027.20000000007,,482042.148,8,400,,,
break_continue,html.Screen,4_71_2,2023-11-01T17:15:41.033Z,,0,,,NaN,,,,,,false,,,,482028.4999999999,482028.29999999993,,482028.20000000007,,482042.148,8,400,,,
sequence,flow.Sequence,4_71,2023-11-01T17:15:41.033Z,,0,,,6769.414999999921,completion,,,,,false,,,,482028.4999999999,482028.29999999993,475242.068,475240.9999999999,475258.885,482042.148,8,400,,,
trial,html.Screen,4_72_0,2023-11-01T17:15:46.799Z,,0,2,,5752.45199999999,response,ISIC_0011164.JPG,4,ISIC_0032425.JPG,ISIC_0011164.JPG,false,1,keypress(m),500,487794.79999999993,487794.6,482025.191,482030.1,482042.148,487808.584,8,400,23,,ISIC_0032425.JPG
break,html.Screen,4_72_1,2023-11-01T17:15:46.800Z,,0,,,NaN,,,,,,false,,,,487795.4999999999,487795.4,,487794.9,,487808.584,8,400,,,
break_continue,html.Screen,4_72_2,2023-11-01T17:15:46.800Z,,0,,,NaN,,,,,,false,,,,487795.79999999993,487795.70000000007,,487795.6,,487808.584,8,400,,,
sequence,flow.Sequence,4_72,2023-11-01T17:15:46.800Z,,0,,,5753.552000000083,completion,,,,,false,,,,487795.79999999993,487795.70000000007,482025.191,482030.1,482042.148,487808.584,8,400,,,
trial,html.Screen,4_73_0,2023-11-01T17:15:50.323Z,,0,2,,3510.31600000005,response,ISIC_0064982.JPG,5,ISIC_0033119.JPG,ISIC_0064982.JPG,false,1,keypress(m),500,491319.1,491318.9,487791.913,487795.9,487808.584,491341.748,8,400,24,,ISIC_0033119.JPG
break,html.Screen,4_73_1,2023-11-01T17:15:50.324Z,,0,,,NaN,,,,,,false,,,,491319.9,491319.79999999993,,491319.20000000007,,491341.748,8,400,,,
break_continue,html.Screen,4_73_2,2023-11-01T17:15:50.325Z,,0,,,NaN,,,,,,false,,,,491320.29999999993,491320.20000000007,,491319.9999999999,,491341.748,8,400,,,
sequence,flow.Sequence,4_73,2023-11-01T17:15:50.325Z,,0,,,3511.6160000000964,completion,,,,,false,,,,491320.4,491320.20000000007,487791.913,487795.9,487808.584,491341.748,8,400,,,
trial,html.Screen,4_74_0,2023-11-01T17:15:57.065Z,,0,2,,6718.851999999955,response,ISIC_0029028.JPG,5,ISIC_0071132.JPG,ISIC_0071132.JPG,false,0,keypress(z),500,498060.9999999999,498060.6,491324.81,491320.4999999999,491341.748,498091.95,8,400,25,,ISIC_0029028.JPG
break,html.Screen,4_74_1,2023-11-01T17:15:57.067Z,,0,,,NaN,,,,,,false,,,,498062.70000000007,498062.29999999993,,498061.29999999993,,498091.95,8,400,,,
break_continue,html.Screen,4_74_2,2023-11-01T17:15:57.068Z,,0,,,NaN,,,,,,false,,,,498063.29999999993,498063.1,,498062.9,,498091.95,8,400,,,
sequence,flow.Sequence,4_74,2023-11-01T17:15:57.068Z,,0,,,6721.351999999955,completion,,,,,false,,,,498063.4,498063.1,491324.81,491320.4999999999,491341.748,498091.95,8,400,,,
trial,html.Screen,4_75_0,2023-11-01T17:16:03.312Z,,0,2,,6214.8499999999185,response,ISIC_6024335.JPG,7,ISIC_7180096.JPG,ISIC_6024335.JPG,false,1,keypress(m),500,504307.29999999993,504306.79999999993,498074.524,498063.4999999999,498091.95,504324.554,8,400,26,,ISIC_7180096.JPG
break,html.Screen,4_75_1,2023-11-01T17:16:03.314Z,,0,,,NaN,,,,,,false,,,,504309.4,504308.79999999993,,504307.6,,504324.554,8,400,,,
break_continue,html.Screen,4_75_2,2023-11-01T17:16:03.315Z,,0,,,NaN,,,,,,false,,,,504310.4999999999,504310.20000000007,,504309.6,,504324.554,8,400,,,
sequence,flow.Sequence,4_75,2023-11-01T17:16:03.315Z,,0,,,6218.250000000058,completion,,,,,false,,,,504310.70000000007,504310.20000000007,498074.524,498063.4999999999,498091.95,504324.554,8,400,,,
trial,html.Screen,4_76_0,2023-11-01T17:16:06.902Z,,0,2,,3572.44599999988,response,ISIC_2482061.JPG,5,ISIC_0032121.JPG,ISIC_2482061.JPG,false,1,keypress(m),500,507897.4999999999,507896.9999999999,504307.89,504310.9,504324.554,507924.626,8,400,27,,ISIC_0032121.JPG
break,html.Screen,4_76_1,2023-11-01T17:16:06.904Z,,0,,,NaN,,,,,,false,,,,507899.6,507898.9999999999,,507897.9,,507924.626,8,400,,,
break_continue,html.Screen,4_76_2,2023-11-01T17:16:06.905Z,,0,,,NaN,,,,,,false,,,,507900.6,507900.4,,507899.79999999993,,507924.626,8,400,,,
sequence,flow.Sequence,4_76,2023-11-01T17:16:06.905Z,,0,,,3575.8460000000196,completion,,,,,false,,,,507900.70000000007,507900.4,504307.89,504310.9,504324.554,507924.626,8,400,,,
trial,html.Screen,4_77_0,2023-11-01T17:16:10.365Z,,0,2,,3435.274000000034,response,ISIC_3430311.JPG,6,ISIC_0010958.JPG,ISIC_0010958.JPG,false,0,keypress(z),500,511360.29999999993,511359.9,507907.872,507900.9,507924.626,511374.64,8,400,28,,ISIC_3430311.JPG
break,html.Screen,4_77_1,2023-11-01T17:16:10.366Z,,0,,,NaN,,,,,,false,,,,511361.70000000007,511361.4,,511360.70000000007,,511374.64,8,400,,,
break_continue,html.Screen,4_77_2,2023-11-01T17:16:10.366Z,,0,,,NaN,,,,,,false,,,,511362.1,511361.9999999999,,511361.70000000007,,511374.64,8,400,,,
sequence,flow.Sequence,4_77,2023-11-01T17:16:10.367Z,,0,,,3437.3739999998943,completion,,,,,false,,,,511362.1,511361.9999999999,507907.872,507900.79999999993,507924.626,511374.64,8,400,,,
trial,html.Screen,4_78_0,2023-11-01T17:16:14.592Z,,0,2,,4212.959999999963,response,ISIC_0065235.JPG,6,ISIC_1698119.JPG,ISIC_1698119.JPG,false,0,keypress(z),500,515588.1,515587.6,511357.786,511362.20000000007,511374.64,515607.469,8,400,29,,ISIC_0065235.JPG
break,html.Screen,4_78_1,2023-11-01T17:16:14.594Z,,0,,,NaN,,,,,,false,,,,515589.9,515589.6,,515588.4,,515607.469,8,400,,,
break_continue,html.Screen,4_78_2,2023-11-01T17:16:14.595Z,,0,,,NaN,,,,,,false,,,,515590.6,515590.4,,515590.1,,515607.469,8,400,,,
sequence,flow.Sequence,4_78,2023-11-01T17:16:14.596Z,,0,,,4215.760000000009,completion,,,,,false,,,,515591.6,515590.4,511357.786,511362.20000000007,511374.64,515607.469,8,400,,,
trial,html.Screen,4_79_0,2023-11-01T17:16:18.761Z,,0,2,,4148.530999999901,response,ISIC_6517852.JPG,10,ISIC_8104064.JPG,ISIC_8104064.JPG,false,0,keypress(z),500,519756.6,519755.9999999999,515590.81,515591.79999999993,515607.469,519774.135,8,400,30,,ISIC_6517852.JPG
break,html.Screen,4_79_1,2023-11-01T17:16:18.763Z,,0,,,NaN,,,,,,false,,,,519758.70000000007,519758.29999999993,,519756.9,,519774.135,8,400,,,
break_continue,html.Screen,4_79_2,2023-11-01T17:16:18.764Z,,0,,,NaN,,,,,,false,,,,519760.1,519759.70000000007,,519758.9,,519774.135,8,400,,,
sequence,flow.Sequence,4_79,2023-11-01T17:16:18.765Z,,0,,,4152.231000000087,completion,,,,,false,,,,519760.4,519759.70000000007,515590.81,515591.79999999993,515607.469,519774.135,8,400,,,
trial,html.Screen,4_80_0,2023-11-01T17:16:22.881Z,,0,2,,4102.164999999921,response,ISIC_0031548.JPG,8,ISIC_0063492.JPG,ISIC_0031548.JPG,false,1,keypress(m),500,523876.9,523876.29999999993,519757.471,519760.6,519774.135,523907.312,8,400,31,,ISIC_0063492.JPG
break,html.Screen,4_80_1,2023-11-01T17:16:22.883Z,,0,,,NaN,,,,,,false,,,,523878.70000000007,523877.9999999999,,523877.20000000007,,523907.312,8,400,,,
break_continue,html.Screen,4_80_2,2023-11-01T17:16:22.884Z,,0,,,NaN,,,,,,false,,,,523879.20000000007,523879.1,,523878.79999999993,,523907.312,8,400,,,
sequence,flow.Sequence,4_80,2023-11-01T17:16:22.884Z,,0,,,4104.964999999967,completion,,,,,false,,,,523879.29999999993,523879.1,519757.471,519760.4999999999,519774.135,523907.312,8,400,,,
trial,html.Screen,4_81_0,2023-11-01T17:16:31.163Z,,0,2,,8250.487999999954,response,ISIC_0014255.JPG,8,ISIC_0057026.JPG,ISIC_0057026.JPG,false,0,keypress(z),500,532158.4,532157.7999999999,523890.64,523879.4,523907.312,532173.537,8,400,32,,ISIC_0014255.JPG
break,html.Screen,4_81_1,2023-11-01T17:16:31.165Z,,0,,,NaN,,,,,,false,,,,532160.9999999999,532160.4,,532158.7999999999,,532173.537,8,400,,,
break_continue,html.Screen,4_81_2,2023-11-01T17:16:31.166Z,,0,,,NaN,,,,,,false,,,,532162.1,532161.7999999999,,532161.2999999999,,532173.537,8,400,,,
sequence,flow.Sequence,4_81,2023-11-01T17:16:31.167Z,,0,,,8254.487999999954,completion,,,,,false,,,,532162.2999999999,532161.7999999999,523890.64,523879.4,523907.312,532173.537,8,400,,,
trial,html.Screen,4_82_0,2023-11-01T17:16:34.627Z,,0,2,,3447.9629999998724,response,ISIC_0028394.JPG,5,ISIC_0032922.JPG,ISIC_0028394.JPG,false,1,keypress(m),500,535622.4999999999,535621.4999999999,532156.869,532162.4999999999,532173.537,535640.017,8,400,33,,ISIC_0032922.JPG
break,html.Screen,4_82_1,2023-11-01T17:16:34.629Z,,0,,,NaN,,,,,,false,,,,535624.4999999999,535623.9999999999,,535622.7999999999,,535640.017,8,400,,,
break_continue,html.Screen,4_82_2,2023-11-01T17:16:34.630Z,,0,,,NaN,,,,,,false,,,,535625.2999999999,535625.1,,535624.6,,535640.017,8,400,,,
sequence,flow.Sequence,4_82,2023-11-01T17:16:34.630Z,,0,,,3451.5629999999655,completion,,,,,false,,,,535625.4999999999,535625.1,532156.869,532162.4999999999,532173.537,535640.017,8,400,,,
trial,html.Screen,4_83_0,2023-11-01T17:16:41.851Z,,0,2,,7206.582999999984,response,ISIC_6640753.JPG,5,ISIC_4164882.JPG,ISIC_6640753.JPG,false,1,keypress(m),500,542846.9999999999,542846.6,535623.044,535625.7000000001,535640.017,542873.142,8,400,34,,ISIC_4164882.JPG
break,html.Screen,4_83_1,2023-11-01T17:16:41.853Z,,0,,,NaN,,,,,,false,,,,542848.7000000001,542848.2000000001,,542847.2999999999,,542873.142,8,400,,,
break_continue,html.Screen,4_83_2,2023-11-01T17:16:41.854Z,,0,,,NaN,,,,,,false,,,,542849.2000000001,542848.9999999999,,542848.7999999999,,542873.142,8,400,,,
sequence,flow.Sequence,4_83,2023-11-01T17:16:41.854Z,,0,,,7208.982999999891,completion,,,,,false,,,,542849.4,542848.9999999999,535623.044,535625.6,535640.017,542873.142,8,400,,,
trial,html.Screen,4_84_0,2023-11-01T17:16:45.697Z,,0,2,,3818.6579999999376,response,ISIC_0029021.JPG,6,ISIC_0011780.JPG,ISIC_0029021.JPG,false,1,keypress(m),500,546692.4,546691.7999999999,542856.476,542849.4999999999,542873.142,546706.487,8,400,35,,ISIC_0011780.JPG
break,html.Screen,4_84_1,2023-11-01T17:16:45.699Z,,0,,,NaN,,,,,,false,,,,546694.2999999999,546693.7999999999,,546692.7999999999,,546706.487,8,400,,,
break_continue,html.Screen,4_84_2,2023-11-01T17:16:45.699Z,,0,,,NaN,,,,,,false,,,,546694.9,546694.7999999999,,546694.4999999999,,546706.487,8,400,,,
sequence,flow.Sequence,4_84,2023-11-01T17:16:45.700Z,,0,,,3821.6579999999376,completion,,,,,false,,,,546695.2000000001,546694.7999999999,542856.476,542849.4,542873.142,546706.487,8,400,,,
trial,html.Screen,4_85_0,2023-11-01T17:16:50.727Z,,0,2,,5015.8129999999655,response,ISIC_2146346.JPG,5,ISIC_5359416.JPG,ISIC_2146346.JPG,false,1,keypress(m),500,551722.7000000001,551722.2999999999,546689.818,546695.4,546706.487,551739.7,8,400,36,,ISIC_5359416.JPG
break,html.Screen,4_85_1,2023-11-01T17:16:50.728Z,,0,,,NaN,,,,,,false,,,,551724.1,551723.7000000001,,551722.9,,551739.7,8,400,,,
break_continue,html.Screen,4_85_2,2023-11-01T17:16:50.729Z,,0,,,NaN,,,,,,false,,,,551724.9999999999,551724.9,,551724.4,,551739.7,8,400,,,
sequence,flow.Sequence,4_85,2023-11-01T17:16:50.730Z,,0,,,5018.413000000059,completion,,,,,false,,,,551725.1,551724.9,546689.818,546695.2999999999,546706.487,551739.7,8,400,,,
trial,html.Screen,4_86_0,2023-11-01T17:16:55.246Z,,0,2,,4501.599999999977,response,ISIC_0026795.JPG,8,ISIC_8612828.JPG,ISIC_8612828.JPG,false,0,keypress(z),500,556241.4999999999,556241.2999999999,551723.03,551725.2000000001,551739.7,556256.162,8,400,37,,ISIC_0026795.JPG
break,html.Screen,4_86_1,2023-11-01T17:16:55.248Z,,0,,,NaN,,,,,,false,,,,556243.2000000001,556242.9,,556241.7999999999,,556256.162,8,400,,,
break_continue,html.Screen,4_86_2,2023-11-01T17:16:55.248Z,,0,,,NaN,,,,,,false,,,,556243.6,556243.6,,556243.2999999999,,556256.162,8,400,,,
sequence,flow.Sequence,4_86,2023-11-01T17:16:55.248Z,,0,,,4503.900000000023,completion,,,,,false,,,,556243.9,556243.6,551723.03,551725.2000000001,551739.7,556256.162,8,400,,,
trial,html.Screen,4_87_0,2023-11-01T17:16:59.811Z,,0,2,,4549.837999999872,response,ISIC_0057169.JPG,7,ISIC_2378428.JPG,ISIC_2378428.JPG,false,0,keypress(z),500,560806.9,560805.9999999999,556238.971,556243.9,556256.162,560822.466,8,400,38,,ISIC_0057169.JPG
break,html.Screen,4_87_1,2023-11-01T17:16:59.813Z,,0,,,NaN,,,,,,false,,,,560808.7999999999,560808.1,,560807.2000000001,,560822.466,8,400,,,
break_continue,html.Screen,4_87_2,2023-11-01T17:16:59.814Z,,0,,,NaN,,,,,,false,,,,560809.6,560809.4,,560808.9999999999,,560822.466,8,400,,,
sequence,flow.Sequence,4_87,2023-11-01T17:16:59.814Z,,0,,,4553.238000000012,completion,,,,,false,,,,560809.9,560809.4,556238.971,556243.9,556256.162,560822.466,8,400,,,
trial,html.Screen,4_88_0,2023-11-01T17:17:06.862Z,,0,2,,7031.734000000055,response,ISIC_9072034.JPG,5,ISIC_2152875.JPG,ISIC_2152875.JPG,false,0,keypress(z),500,567857.9999999999,567854.2000000001,560805.798,560809.9999999999,560822.466,567872.143,8,400,39,,ISIC_9072034.JPG
break,html.Screen,4_88_1,2023-11-01T17:17:06.864Z,,0,,,NaN,,,,,,false,,,,567859.7000000001,567859.2999999999,,567858.4,,567872.143,8,400,,,
break_continue,html.Screen,4_88_2,2023-11-01T17:17:06.865Z,,0,,,NaN,,,,,,false,,,,567860.2999999999,567860.2000000001,,567859.7999999999,,567872.143,8,400,,,
sequence,flow.Sequence,4_88,2023-11-01T17:17:06.865Z,,0,,,7037.734000000055,completion,,,,,false,,,,567860.4999999999,567860.2000000001,560805.798,560809.9999999999,560822.466,567872.143,8,400,,,
trial,html.Screen,4_89_0,2023-11-01T17:17:11.908Z,,0,2,,5031.05700000003,response,ISIC_2879267.JPG,5,ISIC_7732765.JPG,ISIC_7732765.JPG,false,0,keypress(z),500,572903.7000000001,572903.2000000001,567855.461,567860.6,567872.143,572922.152,8,400,40,,ISIC_2879267.JPG
break,html.Screen,4_89_1,2023-11-01T17:17:11.911Z,,0,,,NaN,,,,,,false,,,,572906.2999999999,572904.9999999999,,572903.9999999999,,572922.152,8,400,,,
break_continue,html.Screen,4_89_2,2023-11-01T17:17:11.912Z,,0,,,NaN,,,,,,false,,,,572907.9,572907.4999999999,,572906.7000000001,,572922.152,8,400,,,
sequence,flow.Sequence,4_89,2023-11-01T17:17:11.913Z,,0,,,5035.3569999998435,completion,,,,,false,,,,572908.4,572907.4999999999,567855.461,567860.6,567872.143,572922.152,8,400,,,
trial,html.Screen,4_90_0,2023-11-01T17:17:21.212Z,,0,2,,9285.048000000068,response,ISIC_0033832.JPG,6,ISIC_0247330.JPG,ISIC_0247330.JPG,false,0,keypress(z),500,582207.9999999999,582207.2000000001,572905.487,572908.6,572922.152,582271.619,8,400,41,,ISIC_0033832.JPG
break,html.Screen,4_90_1,2023-11-01T17:17:21.214Z,,0,,,NaN,,,,,,false,,,,582210.1,582209.4999999999,,582208.2999999999,,582271.619,8,400,,,
break_continue,html.Screen,4_90_2,2023-11-01T17:17:21.215Z,,0,,,NaN,,,,,,false,,,,582210.9,582210.7999999999,,582210.2999999999,,582271.619,8,400,,,
sequence,flow.Sequence,4_90,2023-11-01T17:17:21.216Z,,0,,,9288.647999999928,completion,,,,,false,,,,582211.2000000001,582210.7999999999,572905.487,572908.6,572922.152,582271.619,8,400,,,
trial,html.Screen,4_91_0,2023-11-01T17:17:30.597Z,,0,2,,9320.680999999982,response,ISIC_0029383.JPG,5,ISIC_2226940.JPG,ISIC_2226940.JPG,false,0,keypress(z),500,591592.7000000001,591592.2999999999,582238.289,582211.2999999999,582271.619,591605.857,8,400,42,,ISIC_0029383.JPG
break,html.Screen,4_91_1,2023-11-01T17:17:30.599Z,,0,,,NaN,,,,,,false,,,,591594.2999999999,591593.7999999999,,591592.9999999999,,591605.857,8,400,,,
break_continue,html.Screen,4_91_2,2023-11-01T17:17:30.599Z,,0,,,NaN,,,,,,false,,,,591594.9999999999,591594.9,,591594.6,,591605.857,8,400,,,
sequence,flow.Sequence,4_91,2023-11-01T17:17:30.600Z,,0,,,9323.281000000075,completion,,,,,false,,,,591595.2000000001,591594.9,582238.289,582211.2999999999,582271.619,591605.857,8,400,,,
trial,html.Screen,4_92_0,2023-11-01T17:17:36.042Z,,0,2,,5431.34300000011,response,ISIC_0030440.JPG,6,ISIC_0033217.JPG,ISIC_0033217.JPG,false,0,keypress(z),500,597037.7000000001,597037.2000000001,591589.151,591595.4,591605.857,597054.395,8,400,43,,ISIC_0030440.JPG
break,html.Screen,4_92_1,2023-11-01T17:17:36.044Z,,0,,,NaN,,,,,,false,,,,597039.7999999999,597039.2000000001,,597038.1,,597054.395,8,400,,,
break_continue,html.Screen,4_92_2,2023-11-01T17:17:36.045Z,,0,,,NaN,,,,,,false,,,,597040.4999999999,597040.4,,597039.9,,597054.395,8,400,,,
sequence,flow.Sequence,4_92,2023-11-01T17:17:36.048Z,,0,,,5434.543000000063,completion,,,,,false,,,,597043.7000000001,597040.4,591589.151,591595.2999999999,591605.857,597054.395,8,400,,,
trial,html.Screen,4_93_0,2023-11-01T17:17:42.341Z,,0,2,,6282.204999999958,response,ISIC_2700320.JPG,8,ISIC_0056692.JPG,ISIC_2700320.JPG,false,1,keypress(m),500,603337.1,603336.6,597037.678,597043.9,597054.395,603354.191,8,400,44,,ISIC_0056692.JPG
break,html.Screen,4_93_1,2023-11-01T17:17:42.345Z,,0,,,NaN,,,,,,false,,,,603340.7999999999,603340.2000000001,,603337.4,,603354.191,8,400,,,
break_continue,html.Screen,4_93_2,2023-11-01T17:17:42.346Z,,0,,,NaN,,,,,,false,,,,603341.4999999999,603341.2999999999,,603340.9,,603354.191,8,400,,,
sequence,flow.Sequence,4_93,2023-11-01T17:17:42.346Z,,0,,,6286.9049999999115,completion,,,,,false,,,,603341.7000000001,603341.2999999999,597037.678,597043.7999999999,597054.395,603354.191,8,400,,,
trial,html.Screen,4_94_0,2023-11-01T17:17:52.383Z,,0,2,,10024.009000000078,response,ISIC_7835257.JPG,7,ISIC_0025616.JPG,ISIC_0025616.JPG,false,0,keypress(z),500,613378.4,613378.2000000001,603337.526,603341.9,603354.191,613403.891,8,400,45,,ISIC_7835257.JPG
break,html.Screen,4_94_1,2023-11-01T17:17:52.384Z,,0,,,NaN,,,,,,false,,,,613379.7999999999,613379.2000000001,,613378.6,,613403.891,8,400,,,
break_continue,html.Screen,4_94_2,2023-11-01T17:17:52.385Z,,0,,,NaN,,,,,,false,,,,613380.2000000001,613380.1,,613379.9,,613403.891,8,400,,,
sequence,flow.Sequence,4_94,2023-11-01T17:17:52.385Z,,0,,,10025.908999999985,completion,,,,,false,,,,613380.4,613380.1,603337.526,603341.9,603354.191,613403.891,8,400,,,
trial,html.Screen,4_95_0,2023-11-01T17:17:56.116Z,,0,2,,3707.0090000000782,response,ISIC_0060696.JPG,9,ISIC_0568867.JPG,ISIC_0568867.JPG,false,0,keypress(z),500,617111.4,617110.9,613387.225,613380.4,613403.891,617137.894,8,400,46,,ISIC_0060696.JPG
break,html.Screen,4_95_1,2023-11-01T17:17:56.117Z,,0,,,NaN,,,,,,false,,,,617112.6,617112.2999999999,,617111.6,,617137.894,8,400,,,
break_continue,html.Screen,4_95_2,2023-11-01T17:17:56.118Z,,0,,,NaN,,,,,,false,,,,617113.2999999999,617113.1,,617112.9,,617137.894,8,400,,,
sequence,flow.Sequence,4_95,2023-11-01T17:17:56.118Z,,0,,,3709.2090000000317,completion,,,,,false,,,,617113.4999999999,617113.1,613387.225,613380.4,613403.891,617137.894,8,400,,,
trial,html.Screen,4_96_0,2023-11-01T17:17:59.371Z,,0,2,,3226.506000000052,response,ISIC_6785041.JPG,7,ISIC_7351939.JPG,ISIC_6785041.JPG,false,1,keypress(m),500,620366.2000000001,620364.4,617121.199,617113.4999999999,617137.894,620386.883,8,400,47,,ISIC_7351939.JPG
break,html.Screen,4_96_1,2023-11-01T17:17:59.372Z,,0,,,NaN,,,,,,false,,,,620367.7000000001,620366.9,,620366.2999999999,,620386.883,8,400,,,
break_continue,html.Screen,4_96_2,2023-11-01T17:17:59.372Z,,0,,,NaN,,,,,,false,,,,620367.9,620367.9,,620367.7000000001,,620386.883,8,400,,,
sequence,flow.Sequence,4_96,2023-11-01T17:17:59.372Z,,0,,,3230.006000000052,completion,,,,,false,,,,620368.1,620367.9,617121.199,617113.4999999999,617137.894,620386.883,8,400,,,
trial,html.Screen,4_97_0,2023-11-01T17:18:02.720Z,,0,2,,3328.716999999946,response,ISIC_0034287.JPG,5,ISIC_2033237.JPG,ISIC_0034287.JPG,false,1,keypress(m),500,623715.9,623715.6,620370.011,620368.1,620386.883,623736.852,8,400,48,,ISIC_2033237.JPG
break,html.Screen,4_97_1,2023-11-01T17:18:02.721Z,,0,,,NaN,,,,,,false,,,,623716.7000000001,623716.6,,623715.9,,623736.852,8,400,,,
break_continue,html.Screen,4_97_2,2023-11-01T17:18:02.721Z,,0,,,NaN,,,,,,false,,,,623717.1,623716.9999999999,,623716.9,,623736.852,8,400,,,
sequence,flow.Sequence,4_97,2023-11-01T17:18:02.722Z,,0,,,3330.116999999853,completion,,,,,false,,,,623717.2000000001,623716.9999999999,620370.011,620368.1,620386.883,623736.852,8,400,,,
trial,html.Screen,4_98_0,2023-11-01T17:18:09.478Z,,0,2,,6736.348000000115,response,ISIC_0010591.JPG,5,ISIC_0026516.JPG,ISIC_0010591.JPG,false,1,keypress(m),500,630473.4,630473.2000000001,623719.965,623717.2999999999,623736.852,630486.484,8,400,49,,ISIC_0026516.JPG
break,html.Screen,4_98_1,2023-11-01T17:18:09.479Z,,0,,,NaN,,,,,,false,,,,630474.2000000001,630474.1,,630473.6,,630486.484,8,400,,,
break_continue,html.Screen,4_98_2,2023-11-01T17:18:09.479Z,,0,,,NaN,,,,,,false,,,,630474.4999999999,630474.4,,630474.2000000001,,630486.484,8,400,,,
sequence,flow.Sequence,4_98,2023-11-01T17:18:09.479Z,,0,,,6737.548000000068,completion,,,,,false,,,,630474.7000000001,630474.4,623719.965,623717.2000000001,623736.852,630486.484,8,400,,,
trial,html.Screen,4_99_0,2023-11-01T17:18:14.043Z,,0,2,,4551.315999999875,response,ISIC_1194944.JPG,7,ISIC_4808298.JPG,ISIC_4808298.JPG,false,0,keypress(z),500,635038.1,635037.7999999999,630469.721,630474.7000000001,630486.484,635069.908,8,400,50,,ISIC_1194944.JPG
break,html.Screen,4_99_1,2023-11-01T17:18:24.059Z,,0,,,9999.605999999912,timeout,,,,,false,,,,645054.4999999999,645052.844,635053.04,635038.4,635069.908,645069.514,8,400,,,
break_continue,html.Screen,4_99_2,2023-11-01T17:23:23.439Z,,0,,,299343.586,response,,,,,false,continue,keypress(Space),,944435.1,944413.1,645052.844,645054.7000000001,645069.514,944440.872,8,400,,,
sequence,flow.Sequence,4_99,2023-11-01T17:23:23.439Z,,0,,,313926.6159999999,completion,,,,,false,,,,944435.4999999999,944413.1,630469.721,630474.7000000001,630486.484,944440.872,8,400,,,
trial,html.Screen,4_100_0,2023-11-01T17:23:27.700Z,,0,3,,4254.427999999956,response,ISIC_7662910.JPG,5,ISIC_0160831.JPG,ISIC_0160831.JPG,false,0,keypress(z),500,948695.7999999999,948695.2999999999,944424.206,944435.6,944440.872,948708.056,8,400,1,,ISIC_7662910.JPG
break,html.Screen,4_100_1,2023-11-01T17:23:27.701Z,,0,,,NaN,,,,,,false,,,,948696.9999999999,948696.7999999999,,948695.9999999999,,948708.056,8,400,,,
break_continue,html.Screen,4_100_2,2023-11-01T17:23:27.701Z,,0,,,NaN,,,,,,false,,,,948697.4,948697.2999999999,,948697.1,,948708.056,8,400,,,
sequence,flow.Sequence,4_100,2023-11-01T17:23:27.701Z,,0,,,4256.427999999956,completion,,,,,false,,,,948697.4999999999,948697.2999999999,944424.206,944435.6,944440.872,948708.056,8,400,,,
trial,html.Screen,4_101_0,2023-11-01T17:23:32.312Z,,0,3,,4599.443999999901,response,ISIC_0009959.JPG,7,ISIC_3882374.JPG,ISIC_0009959.JPG,false,1,keypress(m),500,953307.7999999999,953307.4999999999,948691.353,948697.6,948708.056,953325.085,8,400,2,,ISIC_3882374.JPG
break,html.Screen,4_101_1,2023-11-01T17:23:32.313Z,,0,,,NaN,,,,,,false,,,,953309.2000000001,953308.7999999999,,953307.9999999999,,953325.085,8,400,,,
break_continue,html.Screen,4_101_2,2023-11-01T17:23:32.314Z,,0,,,NaN,,,,,,false,,,,953309.7999999999,953309.6,,953309.2999999999,,953325.085,8,400,,,
sequence,flow.Sequence,4_101,2023-11-01T17:23:32.314Z,,0,,,4601.543999999994,completion,,,,,false,,,,953309.9,953309.6,948691.353,948697.6,948708.056,953325.085,8,400,,,
trial,html.Screen,4_102_0,2023-11-01T17:23:35.938Z,,0,3,,3608.414999999921,response,ISIC_8589961.JPG,6,ISIC_0029572.JPG,ISIC_8589961.JPG,false,1,keypress(m),500,956933.9,956933.4999999999,953308.42,953309.9999999999,953325.085,956958.328,8,400,3,,ISIC_0029572.JPG
break,html.Screen,4_102_1,2023-11-01T17:23:35.940Z,,0,,,NaN,,,,,,false,,,,956935.7999999999,956935.4,,956934.2000000001,,956958.328,8,400,,,
break_continue,html.Screen,4_102_2,2023-11-01T17:23:35.940Z,,0,,,NaN,,,,,,false,,,,956936.4,956936.2999999999,,956935.9,,956958.328,8,400,,,
sequence,flow.Sequence,4_102,2023-11-01T17:23:35.940Z,,0,,,3611.2149999999674,completion,,,,,false,,,,956936.6,956936.2999999999,953308.42,953309.9,953325.085,956958.328,8,400,,,
trial,html.Screen,4_103_0,2023-11-01T17:23:40.936Z,,0,3,,4973.271999999997,response,ISIC_2644988.JPG,5,ISIC_0032265.JPG,ISIC_0032265.JPG,false,0,keypress(z),500,961931.9999999999,961931.6,956941.65,956936.7000000001,956958.328,961957.7,8,400,4,,ISIC_2644988.JPG
break,html.Screen,4_103_1,2023-11-01T17:23:40.938Z,,0,,,NaN,,,,,,false,,,,961933.7999999999,961933.4,,961932.2999999999,,961957.7,8,400,,,
break_continue,html.Screen,4_103_2,2023-11-01T17:23:40.939Z,,0,,,NaN,,,,,,false,,,,961934.2999999999,961934.2000000001,,961933.9,,961957.7,8,400,,,
sequence,flow.Sequence,4_103,2023-11-01T17:23:40.939Z,,0,,,4975.87200000009,completion,,,,,false,,,,961934.7999999999,961934.2000000001,956941.65,956936.7000000001,956958.328,961957.7,8,400,,,
trial,html.Screen,4_104_0,2023-11-01T17:23:44.081Z,,0,3,,3117.79999999993,response,ISIC_8253317.JPG,6,ISIC_0056309.JPG,ISIC_8253317.JPG,false,1,keypress(m),500,965075.9999999999,965075.4999999999,961940.868,961935.1,961957.7,965091.068,8,400,5,,ISIC_0056309.JPG
break,html.Screen,4_104_1,2023-11-01T17:23:44.083Z,,0,,,NaN,,,,,,false,,,,965078.2999999999,965077.7000000001,,965076.2999999999,,965091.068,8,400,,,
break_continue,html.Screen,4_104_2,2023-11-01T17:23:44.083Z,,0,,,NaN,,,,,,false,,,,965078.9,965078.7999999999,,965078.4,,965091.068,8,400,,,
sequence,flow.Sequence,4_104,2023-11-01T17:23:44.084Z,,0,,,3121.0999999999767,completion,,,,,false,,,,965079.1,965078.7999999999,961940.868,961934.9999999999,961957.7,965091.068,8,400,,,
trial,html.Screen,4_105_0,2023-11-01T17:23:50.121Z,,0,3,,6024.73199999996,response,ISIC_0061581.JPG,7,ISIC_0069105.JPG,ISIC_0061581.JPG,false,1,keypress(m),500,971116.2999999999,971115.7999999999,965074.113,965079.2999999999,965091.068,971140.682,8,400,6,,ISIC_0069105.JPG
break,html.Screen,4_105_1,2023-11-01T17:23:50.122Z,,0,,,NaN,,,,,,false,,,,971117.7999999999,971117.4999999999,,971116.6,,971140.682,8,400,,,
break_continue,html.Screen,4_105_2,2023-11-01T17:23:50.123Z,,0,,,NaN,,,,,,false,,,,971118.4999999999,971118.2999999999,,971117.9,,971140.682,8,400,,,
sequence,flow.Sequence,4_105,2023-11-01T17:23:50.123Z,,0,,,6027.23199999996,completion,,,,,false,,,,971118.7000000001,971118.2999999999,965074.113,965079.2000000001,965091.068,971140.682,8,400,,,
trial,html.Screen,4_106_0,2023-11-01T17:23:53.598Z,,0,3,,3452.01800000004,response,ISIC_0010308.JPG,7,ISIC_0061199.JPG,ISIC_0010308.JPG,false,1,keypress(m),500,974593.1,974592.7000000001,971123.644,971118.7999999999,971140.682,974607.668,8,400,7,,ISIC_0061199.JPG
break,html.Screen,4_106_1,2023-11-01T17:23:53.599Z,,0,,,NaN,,,,,,false,,,,974594.2999999999,974594.1,,974593.4,,974607.668,8,400,,,
break_continue,html.Screen,4_106_2,2023-11-01T17:23:53.599Z,,0,,,NaN,,,,,,false,,,,974594.7000000001,974594.6,,974594.4,,974607.668,8,400,,,
sequence,flow.Sequence,4_106,2023-11-01T17:23:53.599Z,,0,,,3453.917999999947,completion,,,,,false,,,,974594.7999999999,974594.6,971123.644,971118.7999999999,971140.682,974607.668,8,400,,,
trial,html.Screen,4_107_0,2023-11-01T17:23:56.820Z,,0,3,,3207.1319999999832,response,ISIC_9160614.JPG,5,ISIC_0011343.JPG,ISIC_9160614.JPG,false,1,keypress(m),500,977815.2000000001,977814.7999999999,974590.706,974594.9,974607.668,977840.692,8,400,8,,ISIC_0011343.JPG
break,html.Screen,4_107_1,2023-11-01T17:23:56.821Z,,0,,,NaN,,,,,,false,,,,977816.6,977816.4,,977815.4999999999,,977840.692,8,400,,,
break_continue,html.Screen,4_107_2,2023-11-01T17:23:56.822Z,,0,,,NaN,,,,,,false,,,,977817.1,977816.9999999999,,977816.7000000001,,977840.692,8,400,,,
sequence,flow.Sequence,4_107,2023-11-01T17:23:56.822Z,,0,,,3209.3319999999367,completion,,,,,false,,,,977817.2000000001,977816.9999999999,974590.706,974594.7999999999,974607.668,977840.692,8,400,,,
trial,html.Screen,4_108_0,2023-11-01T17:24:00.491Z,,0,3,,3645.4079999999376,response,ISIC_0056608.JPG,6,ISIC_0951519.JPG,ISIC_0056608.JPG,false,1,keypress(m),500,981486.6,981486.1,977823.44,977817.4,977840.692,981506.88,8,400,9,,ISIC_0951519.JPG
break,html.Screen,4_108_1,2023-11-01T17:24:00.492Z,,0,,,NaN,,,,,,false,,,,981487.9999999999,981487.7000000001,,981486.7999999999,,981506.88,8,400,,,
break_continue,html.Screen,4_108_2,2023-11-01T17:24:00.493Z,,0,,,NaN,,,,,,false,,,,981488.4999999999,981488.2999999999,,981487.9999999999,,981506.88,8,400,,,
sequence,flow.Sequence,4_108,2023-11-01T17:24:00.493Z,,0,,,3647.607999999891,completion,,,,,false,,,,981488.6,981488.2999999999,977823.44,977817.4,977840.692,981506.88,8,400,,,
trial,html.Screen,4_109_0,2023-11-01T17:24:05.699Z,,0,3,,5186.9199999999255,response,ISIC_0000000.JPG,5,ISIC_3000569.JPG,ISIC_0000000.JPG,false,1,keypress(m),500,986694.4999999999,986693.7999999999,981490.214,981488.7000000001,981506.88,986706.737,8,400,10,,ISIC_3000569.JPG
break,html.Screen,4_109_1,2023-11-01T17:24:05.700Z,,0,,,NaN,,,,,,false,,,,986695.7999999999,986695.6,,986694.7999999999,,986706.737,8,400,,,
break_continue,html.Screen,4_109_2,2023-11-01T17:24:05.701Z,,0,,,NaN,,,,,,false,,,,986696.9,986696.7999999999,,986696.4,,986706.737,8,400,,,
sequence,flow.Sequence,4_109,2023-11-01T17:24:05.702Z,,0,,,5189.9199999999255,completion,,,,,false,,,,986697.1,986696.7999999999,981490.214,981488.7000000001,981506.88,986706.737,8,400,,,
trial,html.Screen,4_110_0,2023-11-01T17:24:09.865Z,,0,3,,4153.663000000059,response,ISIC_2445475.JPG,6,ISIC_3936223.JPG,ISIC_2445475.JPG,false,1,keypress(m),500,990860.7999999999,990860.4,986690.069,986697.2000000001,986706.737,990873.393,8,400,11,,ISIC_3936223.JPG
break,html.Screen,4_110_1,2023-11-01T17:24:09.867Z,,0,,,NaN,,,,,,false,,,,990862.6,990862.2999999999,,990861.1,,990873.393,8,400,,,
break_continue,html.Screen,4_110_2,2023-11-01T17:24:09.868Z,,0,,,NaN,,,,,,false,,,,990863.2000000001,990862.9999999999,,990862.7999999999,,990873.393,8,400,,,
sequence,flow.Sequence,4_110,2023-11-01T17:24:09.868Z,,0,,,4156.262999999919,completion,,,,,false,,,,990863.4,990862.9999999999,986690.069,986697.2000000001,986706.737,990873.393,8,400,,,
trial,html.Screen,4_111_0,2023-11-01T17:24:13.871Z,,0,3,,3992.40699999989,response,ISIC_7797853.JPG,7,ISIC_0072601.JPG,ISIC_7797853.JPG,false,1,keypress(m),500,994866.1,994865.7999999999,990856.367,990863.4999999999,990873.393,994889.695,8,400,12,,ISIC_0072601.JPG
break,html.Screen,4_111_1,2023-11-01T17:24:13.872Z,,0,,,NaN,,,,,,false,,,,994867.2000000001,994866.9,,994866.2000000001,,994889.695,8,400,,,
break_continue,html.Screen,4_111_2,2023-11-01T17:24:13.872Z,,0,,,NaN,,,,,,false,,,,994867.9999999999,994867.6,,994867.2999999999,,994889.695,8,400,,,
sequence,flow.Sequence,4_111,2023-11-01T17:24:13.873Z,,0,,,3994.2069999999367,completion,,,,,false,,,,994868.1,994867.6,990856.367,990863.4999999999,990873.393,994889.695,8,400,,,
trial,html.Screen,4_112_0,2023-11-01T17:24:19.236Z,,0,3,,5341.005000000121,response,ISIC_0069558.JPG,7,ISIC_0072266.JPG,ISIC_0072266.JPG,false,0,keypress(z),500,1000231.1,1000230.7000000001,994872.692,994868.2000000001,994889.695,1000256.257,8,400,13,,ISIC_0069558.JPG
break,html.Screen,4_112_1,2023-11-01T17:24:19.237Z,,0,,,NaN,,,,,,false,,,,1000232.6,1000232.2999999999,,1000231.2999999999,,1000256.257,8,400,,,
break_continue,html.Screen,4_112_2,2023-11-01T17:24:19.237Z,,0,,,NaN,,,,,,false,,,,1000233.1,1000232.9,,1000232.7000000001,,1000256.257,8,400,,,
sequence,flow.Sequence,4_112,2023-11-01T17:24:19.238Z,,0,,,5343.2050000000745,completion,,,,,false,,,,1000233.2000000001,1000232.9,994872.692,994868.2000000001,994889.695,1000256.257,8,400,,,
trial,html.Screen,4_113_0,2023-11-01T17:24:23.160Z,,0,3,,3899.3429999999935,response,ISIC_5578611.JPG,6,ISIC_1632696.JPG,ISIC_5578611.JPG,false,1,keypress(m),500,1004155.9,1004155.6,1000239.588,1000233.2000000001,1000256.257,1004172.822,8,400,14,,ISIC_1632696.JPG
break,html.Screen,4_113_1,2023-11-01T17:24:23.163Z,,0,,,NaN,,,,,,false,,,,1004158.2999999999,1004157.2000000001,,1004156.2999999999,,1004172.822,8,400,,,
break_continue,html.Screen,4_113_2,2023-11-01T17:24:23.164Z,,0,,,NaN,,,,,,false,,,,1004159.2999999999,1004159.1,,1004158.6,,1004172.822,8,400,,,
sequence,flow.Sequence,4_113,2023-11-01T17:24:23.164Z,,0,,,3902.8429999999935,completion,,,,,false,,,,1004159.7000000001,1004159.1,1000239.588,1000233.2000000001,1000256.257,1004172.822,8,400,,,
trial,html.Screen,4_114_0,2023-11-01T17:24:27.730Z,,0,3,,4551.977999999886,response,ISIC_0033061.JPG,6,ISIC_8354042.JPG,ISIC_8354042.JPG,false,0,keypress(z),500,1008725.2000000001,1008724.7999999999,1004155.934,1004159.9999999999,1004172.822,1008756.027,8,400,15,,ISIC_0033061.JPG
break,html.Screen,4_114_1,2023-11-01T17:24:27.731Z,,0,,,NaN,,,,,,false,,,,1008726.7000000001,1008726.4999999999,,1008725.6,,1008756.027,8,400,,,
break_continue,html.Screen,4_114_2,2023-11-01T17:24:27.732Z,,0,,,NaN,,,,,,false,,,,1008727.2000000001,1008726.9999999999,,1008726.7999999999,,1008756.027,8,400,,,
sequence,flow.Sequence,4_114,2023-11-01T17:24:27.732Z,,0,,,4554.17799999984,completion,,,,,false,,,,1008727.4,1008726.9999999999,1004155.934,1004159.9,1004172.822,1008756.027,8,400,,,
trial,html.Screen,4_115_0,2023-11-01T17:24:31.719Z,,0,3,,3958.4729999998817,response,ISIC_0027721.JPG,8,ISIC_0061011.JPG,ISIC_0027721.JPG,false,1,keypress(m),500,1012714.7999999999,1012714.4999999999,1008738.708,1008727.6,1008756.027,1012739.008,8,400,16,,ISIC_0061011.JPG
break,html.Screen,4_115_1,2023-11-01T17:24:31.721Z,,0,,,NaN,,,,,,false,,,,1012716.1,1012715.7000000001,,1012714.9999999999,,1012739.008,8,400,,,
break_continue,html.Screen,4_115_2,2023-11-01T17:24:31.721Z,,0,,,NaN,,,,,,false,,,,1012716.7000000001,1012716.4999999999,,1012716.2999999999,,1012739.008,8,400,,,
sequence,flow.Sequence,4_115,2023-11-01T17:24:31.721Z,,0,,,3960.4729999998817,completion,,,,,false,,,,1012716.7999999999,1012716.4999999999,1008738.708,1008727.4999999999,1008756.027,1012739.008,8,400,,,
trial,html.Screen,4_116_0,2023-11-01T17:24:35.227Z,,0,3,,3483.192000000039,response,ISIC_9228573.JPG,5,ISIC_1124434.JPG,ISIC_1124434.JPG,false,0,keypress(z),500,1016222.9,1016222.2000000001,1012722.172,1012716.9,1012739.008,1016238.915,8,400,17,,ISIC_9228573.JPG
break,html.Screen,4_116_1,2023-11-01T17:24:35.229Z,,0,,,NaN,,,,,,false,,,,1016224.9999999999,1016224.2000000001,,1016223.1,,1016238.915,8,400,,,
break_continue,html.Screen,4_116_2,2023-11-01T17:24:35.230Z,,0,,,NaN,,,,,,false,,,,1016225.7999999999,1016225.6,,1016225.1,,1016238.915,8,400,,,
sequence,flow.Sequence,4_116,2023-11-01T17:24:35.231Z,,0,,,3486.591999999946,completion,,,,,false,,,,1016226.1,1016225.6,1012722.172,1012716.7999999999,1012739.008,1016238.915,8,400,,,
trial,html.Screen,4_117_0,2023-11-01T17:24:39.442Z,,0,3,,4199.084999999846,response,ISIC_0679494.JPG,8,ISIC_2054180.JPG,ISIC_0679494.JPG,false,1,keypress(m),500,1020438.6,1020437.9999999999,1016222.165,1016226.4,1016238.915,1020455.417,8,400,18,,ISIC_2054180.JPG
break,html.Screen,4_117_1,2023-11-01T17:24:39.445Z,,0,,,NaN,,,,,,false,,,,1020440.7999999999,1020440.2000000001,,1020439.1,,1020455.417,8,400,,,
break_continue,html.Screen,4_117_2,2023-11-01T17:24:39.445Z,,0,,,NaN,,,,,,false,,,,1020441.4,1020441.2000000001,,1020440.9999999999,,1020455.417,8,400,,,
sequence,flow.Sequence,4_117,2023-11-01T17:24:39.445Z,,0,,,4202.285000000033,completion,,,,,false,,,,1020441.6,1020441.2000000001,1016222.165,1016226.2000000001,1016238.915,1020455.417,8,400,,,
trial,html.Screen,4_118_0,2023-11-01T17:24:43.258Z,,0,3,,3798.0829999998678,response,ISIC_4539674.JPG,4,ISIC_0029839.JPG,ISIC_4539674.JPG,false,1,keypress(m),500,1024254.1,1024253.4999999999,1020438.602,1020441.7999999999,1020455.417,1024272.237,8,400,19,,ISIC_0029839.JPG
break,html.Screen,4_118_1,2023-11-01T17:24:43.261Z,,0,,,NaN,,,,,,false,,,,1024256.7999999999,1024256.2999999999,,1024254.4,,1024272.237,8,400,,,
break_continue,html.Screen,4_118_2,2023-11-01T17:24:43.261Z,,0,,,NaN,,,,,,false,,,,1024257.4,1024257.2000000001,,1024256.9,,1024272.237,8,400,,,
sequence,flow.Sequence,4_118,2023-11-01T17:24:43.262Z,,0,,,3801.783000000054,completion,,,,,false,,,,1024257.6,1024257.2000000001,1020438.602,1020441.7000000001,1020455.417,1024272.237,8,400,,,
trial,html.Screen,4_119_0,2023-11-01T17:24:49.824Z,,0,3,,6547.663000000059,response,ISIC_7583134.JPG,5,ISIC_9445053.JPG,ISIC_7583134.JPG,false,1,keypress(m),500,1030820.2000000001,1030819.9,1024254.945,1024257.7000000001,1024272.237,1030838.348,8,400,20,,ISIC_9445053.JPG
break,html.Screen,4_119_1,2023-11-01T17:24:49.825Z,,0,,,NaN,,,,,,false,,,,1030821.4999999999,1030821.2000000001,,1030820.4,,1030838.348,8,400,,,
break_continue,html.Screen,4_119_2,2023-11-01T17:24:49.826Z,,0,,,NaN,,,,,,false,,,,1030822.2000000001,1030821.9999999999,,1030821.6,,1030838.348,8,400,,,
sequence,flow.Sequence,4_119,2023-11-01T17:24:49.826Z,,0,,,6549.762999999919,completion,,,,,false,,,,1030822.4,1030821.9999999999,1024254.945,1024257.7000000001,1024272.237,1030838.348,8,400,,,
trial,html.Screen,4_120_0,2023-11-01T17:24:52.918Z,,0,3,,3075.6519999998854,response,ISIC_0014860.JPG,6,ISIC_8147189.JPG,ISIC_8147189.JPG,false,0,keypress(z),500,1033914.4999999999,1033913.9999999999,1030821.246,1030822.4999999999,1030838.348,1033938.564,8,400,21,,ISIC_0014860.JPG
break,html.Screen,4_120_1,2023-11-01T17:24:52.920Z,,0,,,NaN,,,,,,false,,,,1033915.7999999999,1033915.4999999999,,1033914.7000000001,,1033938.564,8,400,,,
break_continue,html.Screen,4_120_2,2023-11-01T17:24:52.920Z,,0,,,NaN,,,,,,false,,,,1033916.2000000001,1033916.1,,1033915.9,,1033938.564,8,400,,,
sequence,flow.Sequence,4_120,2023-11-01T17:24:52.920Z,,0,,,3077.7519999999786,completion,,,,,false,,,,1033916.4,1033916.1,1030821.246,1030822.4999999999,1030838.348,1033938.564,8,400,,,
trial,html.Screen,4_121_0,2023-11-01T17:24:56.636Z,,0,3,,3692.735999999917,response,ISIC_9974613.JPG,8,ISIC_9141065.JPG,ISIC_9141065.JPG,false,0,keypress(z),500,1037631.7999999999,1037631.2999999999,1033921.44,1033916.6,1033938.564,1037654.822,8,400,22,,ISIC_9974613.JPG
break,html.Screen,4_121_1,2023-11-01T17:24:56.637Z,,0,,,NaN,,,,,,false,,,,1037633.1,1037632.7999999999,,1037631.9999999999,,1037654.822,8,400,,,
break_continue,html.Screen,4_121_2,2023-11-01T17:24:56.637Z,,0,,,NaN,,,,,,false,,,,1037633.6,1037633.4999999999,,1037633.2000000001,,1037654.822,8,400,,,
sequence,flow.Sequence,4_121,2023-11-01T17:24:56.638Z,,0,,,3694.9359999998705,completion,,,,,false,,,,1037633.7000000001,1037633.4999999999,1033921.44,1033916.4999999999,1033938.564,1037654.822,8,400,,,
trial,html.Screen,4_122_0,2023-11-01T17:25:00.177Z,,0,3,,3517.878000000026,response,ISIC_0063745.JPG,6,ISIC_0058177.JPG,ISIC_0063745.JPG,false,1,keypress(m),500,1041173.1,1041172.7000000001,1037638.167,1037633.7999999999,1037654.822,1041188.006,8,400,23,,ISIC_0058177.JPG
break,html.Screen,4_122_1,2023-11-01T17:25:00.179Z,,0,,,NaN,,,,,,false,,,,1041174.7999999999,1041174.4,,1041173.4,,1041188.006,8,400,,,
break_continue,html.Screen,4_122_2,2023-11-01T17:25:00.179Z,,0,,,NaN,,,,,,false,,,,1041175.2999999999,1041175.1,,1041174.9,,1041188.006,8,400,,,
sequence,flow.Sequence,4_122,2023-11-01T17:25:00.179Z,,0,,,3520.277999999933,completion,,,,,false,,,,1041175.4999999999,1041175.1,1037638.167,1037633.7999999999,1037654.822,1041188.006,8,400,,,
trial,html.Screen,4_123_0,2023-11-01T17:25:08.471Z,,0,3,,8279.094000000041,response,ISIC_7803114.JPG,7,ISIC_0008447.JPG,ISIC_0008447.JPG,false,0,keypress(z),500,1049467.4,1049467.1,1041171.352,1041175.6,1041188.006,1049488.247,8,400,24,,ISIC_7803114.JPG
break,html.Screen,4_123_1,2023-11-01T17:25:08.473Z,,0,,,NaN,,,,,,false,,,,1049468.7999999998,1049468.4,,1049467.7000000002,,1049488.247,8,400,,,
break_continue,html.Screen,4_123_2,2023-11-01T17:25:08.474Z,,0,,,NaN,,,,,,false,,,,1049469.6,1049469.4,,1049469,,1049488.247,8,400,,,
sequence,flow.Sequence,4_123,2023-11-01T17:25:08.474Z,,0,,,8281.393999999855,completion,,,,,false,,,,1049469.9,1049469.4,1041171.352,1041175.6,1041188.006,1049488.247,8,400,,,
trial,html.Screen,4_124_0,2023-11-01T17:25:11.761Z,,0,3,,3268.853000000119,response,ISIC_0026112.JPG,5,ISIC_0030047.JPG,ISIC_0030047.JPG,false,0,keypress(z),500,1052757.6,1052757.1,1049471.575,1049470,1049488.247,1052770.622,8,400,25,,ISIC_0026112.JPG
break,html.Screen,4_124_1,2023-11-01T17:25:11.763Z,,0,,,NaN,,,,,,false,,,,1052759.1,1052758.7000000002,,1052757.7999999998,,1052770.622,8,400,,,
break_continue,html.Screen,4_124_2,2023-11-01T17:25:11.764Z,,0,,,NaN,,,,,,false,,,,1052759.6,1052759.4,,1052759.2000000002,,1052770.622,8,400,,,
sequence,flow.Sequence,4_124,2023-11-01T17:25:11.764Z,,0,,,3271.152999999933,completion,,,,,false,,,,1052759.9,1052759.4,1049471.575,1049470,1049488.247,1052770.622,8,400,,,
trial,html.Screen,4_125_0,2023-11-01T17:25:16.746Z,,0,3,,4970.67799999984,response,ISIC_0060308.JPG,8,ISIC_4966865.JPG,ISIC_0060308.JPG,false,1,keypress(m),500,1057741.7000000002,1057741.2999999998,1052753.964,1052760.1,1052770.622,1057754.017,8,400,26,,ISIC_4966865.JPG
break,html.Screen,4_125_1,2023-11-01T17:25:16.747Z,,0,,,NaN,,,,,,false,,,,1057743,1057742.7000000002,,1057741.9,,1057754.017,8,400,,,
break_continue,html.Screen,4_125_2,2023-11-01T17:25:16.747Z,,0,,,NaN,,,,,,false,,,,1057743.5,1057743.4,,1057743.1,,1057754.017,8,400,,,
sequence,flow.Sequence,4_125,2023-11-01T17:25:16.748Z,,0,,,4972.777999999933,completion,,,,,false,,,,1057743.7999999998,1057743.4,1052753.964,1052760.1,1052770.622,1057754.017,8,400,,,
trial,html.Screen,4_126_0,2023-11-01T17:25:25.009Z,,0,3,,8250.282999999821,response,ISIC_0032537.JPG,9,ISIC_0014891.JPG,ISIC_0032537.JPG,false,1,keypress(m),500,1066004.7999999998,1066004.2999999998,1057737.171,1057743.9,1057754.017,1066020.439,8,400,27,,ISIC_0014891.JPG
break,html.Screen,4_126_1,2023-11-01T17:25:25.010Z,,0,,,NaN,,,,,,false,,,,1066006.2999999998,1066005.9,,1066005,,1066020.439,8,400,,,
break_continue,html.Screen,4_126_2,2023-11-01T17:25:25.011Z,,0,,,NaN,,,,,,false,,,,1066006.9,1066006.7000000002,,1066006.4,,1066020.439,8,400,,,
sequence,flow.Sequence,4_126,2023-11-01T17:25:25.011Z,,0,,,8252.683000000194,completion,,,,,false,,,,1066007.1,1066006.7000000002,1057737.171,1057743.9,1057754.017,1066020.439,8,400,,,
trial,html.Screen,4_127_0,2023-11-01T17:25:29.000Z,,0,3,,3975.8609999998007,response,ISIC_0053916.JPG,8,ISIC_0059303.JPG,ISIC_0059303.JPG,false,0,keypress(z),500,1069996.6,1069996.2999999998,1066003.447,1066007.2000000002,1066020.439,1070020.646,8,400,28,,ISIC_0053916.JPG
break,html.Screen,4_127_1,2023-11-01T17:25:29.002Z,,0,,,NaN,,,,,,false,,,,1069998,1069997.6,,1069996.7999999998,,1070020.646,8,400,,,
break_continue,html.Screen,4_127_2,2023-11-01T17:25:29.002Z,,0,,,NaN,,,,,,false,,,,1069998.5,1069998.4,,1069998.1,,1070020.646,8,400,,,
sequence,flow.Sequence,4_127,2023-11-01T17:25:29.002Z,,0,,,3977.960999999894,completion,,,,,false,,,,1069998.6,1069998.4,1066003.447,1066007.1,1066020.439,1070020.646,8,400,,,
trial,html.Screen,4_128_0,2023-11-01T17:25:32.559Z,,0,3,,3534.4540000001434,response,ISIC_0028422.JPG,6,ISIC_0030656.JPG,ISIC_0030656.JPG,false,0,keypress(z),500,1073555.5,1073555.1,1070003.417,1069998.7000000002,1070020.646,1073586.783,8,400,29,,ISIC_0028422.JPG
break,html.Screen,4_128_1,2023-11-01T17:25:32.561Z,,0,,,NaN,,,,,,false,,,,1073557.2000000002,1073556.7999999998,,1073555.9,,1073586.783,8,400,,,
break_continue,html.Screen,4_128_2,2023-11-01T17:25:32.562Z,,0,,,NaN,,,,,,false,,,,1073557.9,1073557.7000000002,,1073557.2999999998,,1073586.783,8,400,,,
sequence,flow.Sequence,4_128,2023-11-01T17:25:32.562Z,,0,,,3537.0540000002366,completion,,,,,false,,,,1073558.1,1073557.7000000002,1070003.417,1069998.7000000002,1070020.646,1073586.783,8,400,,,
trial,html.Screen,4_129_0,2023-11-01T17:25:37.254Z,,0,3,,4662.51699999976,response,ISIC_3211915.JPG,8,ISIC_2395624.JPG,ISIC_3211915.JPG,false,1,keypress(m),500,1078249.7000000002,1078249.2999999998,1073570.111,1073558.4,1073586.783,1078269.943,8,400,30,,ISIC_2395624.JPG
