sender,sender_type,sender_id,timestamp,meta,,blockNo,condition,duration,ended_on,img_left,img_reveal,img_right,loser,practice,response,response_action,selection_duration,time_commit,time_end,time_render,time_run,time_show,time_switch,total_blocks,total_trials,trialNo,url,winner
informed_consent,html.Screen,0,2023-10-30T22:36:17.946Z,"{""labjs_version"":""20.2.4"",""labjs_build"":{""flavor"":""production"",""commit"":""f5b4a49f956347addd546a832a3327688c2c0fef""},""location"":""https://run.pavlovia.org/MurrayBennett/melanoma-2afc/?participant=66224&platform=sona"",""userAgent"":""Mozilla/5.0 (Macintosh; Intel Mac OS X 10_15_7) AppleWebKit/605.1.15 (KHTML, like Gecko) Version/16.5.2 Safari/605.1.15"",""platform"":""MacIntel"",""language"":""en-US"",""locale"":""en-US"",""timeZone"":""America/Chicago"",""timezoneOffset"":300,""screen_width"":1470,""screen_height"":956,""scroll_width"":1470,""scroll_height"":792,""window_innerWidth"":1470,""window_innerHeight"":840,""devicePixelRatio"":2}",,,,23731,response,,,,,,consent,click button,,25789,25789,2058,2054,2072,25817,,,,"{""participant"":""66224"",""platform"":""sona""}",
Welcome,html.Screen,1,2023-10-30T22:37:12.268Z,,,,colourful,54310,response,,,,,,continue,click button,,80111,80111,25801,25789,25817,80134,,,,,
trial,html.Screen,2_0_0,2023-10-30T22:37:17.124Z,,0,0,,4849.000000000015,response,ISIC_0025593.JPG,,ISIC_0063388.JPG,ISIC_0063388.JPG,true,0,keypress(z),500,84967,84966.00000000001,80117,80112,80134,85000,1,6,1,,ISIC_0025593.JPG
sequence,flow.Sequence,2_0,2023-10-30T22:37:17.125Z,,0,,,4832.000000000015,completion,,,,,true,,,,84968,84966.00000000001,80117,80112,80134,85000,1,6,,,
trial,html.Screen,2_1_0,2023-10-30T22:37:23.609Z,,0,0,,6468,response,ISIC_1309015.JPG,,ISIC_0028178.JPG,ISIC_1309015.JPG,true,1,keypress(m),500,91452,91452,84984,84968,85000,91484,1,6,2,,ISIC_0028178.JPG
sequence,flow.Sequence,2_1,2023-10-30T22:37:23.609Z,,0,,,6452,completion,,,,,true,,,,91452,91452,84984,84968,85000,91484,1,6,,,
trial,html.Screen,2_2_0,2023-10-30T22:37:29.846Z,,0,0,,6221,response,ISIC_0031128.JPG,,ISIC_3314853.JPG,ISIC_0031128.JPG,true,1,keypress(m),500,97689,97688,91467,91453,91484,97716,1,6,3,,ISIC_3314853.JPG
sequence,flow.Sequence,2_2,2023-10-30T22:37:29.846Z,,0,,,6204,completion,,,,,true,,,,97689,97688,91467,91453,91484,97716,1,6,,,
trial,html.Screen,2_3_0,2023-10-30T22:37:37.676Z,,0,0,,7818,response,ISIC_8980141.JPG,,ISIC_0031612.JPG,ISIC_8980141.JPG,true,1,keypress(m),500,105519,105519,97701,97690,97716,105551,1,6,4,,ISIC_0031612.JPG
sequence,flow.Sequence,2_3,2023-10-30T22:37:37.677Z,,0,,,7803,completion,,,,,true,,,,105520,105519,97701,97690,97716,105551,1,6,,,
trial,html.Screen,2_4_0,2023-10-30T22:37:44.539Z,,0,0,,6848,response,ISIC_9721604.JPG,,ISIC_1197737.JPG,ISIC_9721604.JPG,true,1,keypress(m),500,112382,112382,105534,105520,105551,112417,1,6,5,,ISIC_1197737.JPG
sequence,flow.Sequence,2_4,2023-10-30T22:37:44.540Z,,0,,,6831,completion,,,,,true,,,,112383,112382,105534,105520,105551,112417,1,6,,,
trial,html.Screen,2_5_0,2023-10-30T22:37:52.818Z,,0,0,,8261,response,ISIC_0025346.JPG,,ISIC_0010681.JPG,ISIC_0010681.JPG,true,0,keypress(z),500,120662,120661,112400,112383,112417,120684,1,6,6,,ISIC_0025346.JPG
sequence,flow.Sequence,2_5,2023-10-30T22:37:52.819Z,,0,,,8244,completion,,,,,true,,,,120662,120661,112400,112383,112417,120684,1,6,,,
loop,flow.Loop,2,2023-10-30T22:37:52.819Z,,,,,40527,completion,,,,,true,,,,120662,120661,80117,80111,80134,120684,1,6,,,
exp_instructions,html.Screen,3,2023-10-30T22:38:10.218Z,,,,,17394,response,,,,,,continue,keypress(Space),,138061,138061,120667,120662,120684,138083,,,,,
trial,html.Screen,4_0_0,2023-10-30T22:38:21.725Z,,0,1,,11517,timeout,ISIC_0031649.JPG,0,ISIC_0059846.JPG,,false,,,500,149568,149568,138066,138062,138083,149600,8,400,1,,
break,html.Screen,4_0_1,2023-10-30T22:38:21.726Z,,0,,,NaN,,,,,,false,,,,149569.00000000003,149569.00000000003,,149568,,149600,8,400,,,
break_continue,html.Screen,4_0_2,2023-10-30T22:38:21.726Z,,0,,,NaN,,,,,,false,,,,149570,149570,,149569.00000000003,,149600,8,400,,,
sequence,flow.Sequence,4_0,2023-10-30T22:38:21.727Z,,0,,,11487,completion,,,,,false,,,,149570,149570,138066,138062,138083,149600,8,400,,,
trial,html.Screen,4_1_0,2023-10-30T22:38:26.892Z,,0,1,,5151,response,ISIC_0033995.JPG,4,ISIC_0010044.JPG,ISIC_0033995.JPG,false,1,keypress(m),500,154735,154734,149583,149570,149600,154767,8,400,2,,ISIC_0010044.JPG
break,html.Screen,4_1_1,2023-10-30T22:38:26.893Z,,0,,,NaN,,,,,,false,,,,154736,154736,,154735,,154767,8,400,,,
break_continue,html.Screen,4_1_2,2023-10-30T22:38:26.894Z,,0,,,NaN,,,,,,false,,,,154737,154737,,154737,,154767,8,400,,,
sequence,flow.Sequence,4_1,2023-10-30T22:38:26.894Z,,0,,,5137,completion,,,,,false,,,,154737,154737,149583,149570,149600,154767,8,400,,,
trial,html.Screen,4_2_0,2023-10-30T22:38:33.120Z,,0,1,,6212.000000000029,response,ISIC_8368872.JPG,6,ISIC_9223679.JPG,ISIC_8368872.JPG,false,1,keypress(m),500,160963,160962.00000000003,154750,154737,154767,161001,8,400,3,,ISIC_9223679.JPG
break,html.Screen,4_2_1,2023-10-30T22:38:33.121Z,,0,,,NaN,,,,,,false,,,,160964,160964,,160964,,161001,8,400,,,
break_continue,html.Screen,4_2_2,2023-10-30T22:38:33.121Z,,0,,,NaN,,,,,,false,,,,160965,160965,,160965,,161001,8,400,,,
sequence,flow.Sequence,4_2,2023-10-30T22:38:33.122Z,,0,,,6198,completion,,,,,false,,,,160965,160965,154750,154737,154767,161001,8,400,,,
trial,html.Screen,4_3_0,2023-10-30T22:38:37.496Z,,0,1,,4356,response,ISIC_6256797.JPG,8,ISIC_9913573.JPG,ISIC_6256797.JPG,false,1,keypress(m),500,165340,165339,160983,160965,161001,165366,8,400,4,,ISIC_9913573.JPG
break,html.Screen,4_3_1,2023-10-30T22:38:37.498Z,,0,,,NaN,,,,,,false,,,,165341,165341,,165340,,165366,8,400,,,
break_continue,html.Screen,4_3_2,2023-10-30T22:38:37.498Z,,0,,,NaN,,,,,,false,,,,165342,165341,,165341,,165366,8,400,,,
sequence,flow.Sequence,4_3,2023-10-30T22:38:37.499Z,,0,,,4340,completion,,,,,false,,,,165342,165341,160983,160965,161001,165366,8,400,,,
trial,html.Screen,4_4_0,2023-10-30T22:38:42.529Z,,0,1,,5021,response,ISIC_8704668.JPG,1,ISIC_0055393.JPG,ISIC_0055393.JPG,false,0,keypress(z),500,170372,170371,165350,165342,165366,170400,8,400,5,,ISIC_8704668.JPG
break,html.Screen,4_4_1,2023-10-30T22:38:42.530Z,,0,,,NaN,,,,,,false,,,,170373,170373,,170372,,170400,8,400,,,
break_continue,html.Screen,4_4_2,2023-10-30T22:38:42.531Z,,0,,,NaN,,,,,,false,,,,170374,170374,,170374,,170400,8,400,,,
sequence,flow.Sequence,4_4,2023-10-30T22:38:42.531Z,,0,,,5008,completion,,,,,false,,,,170374,170374,165350,165342,165366,170400,8,400,,,
trial,html.Screen,4_5_0,2023-10-30T22:38:46.726Z,,0,1,,4185,response,ISIC_0046917.JPG,5,ISIC_6323420.JPG,ISIC_6323420.JPG,false,0,keypress(z),500,174569.00000000003,174568,170383,170375,170400,174600,8,400,6,,ISIC_0046917.JPG
break,html.Screen,4_5_1,2023-10-30T22:38:46.727Z,,0,,,NaN,,,,,,false,,,,174570,174570,,174569.00000000003,,174600,8,400,,,
break_continue,html.Screen,4_5_2,2023-10-30T22:38:46.727Z,,0,,,NaN,,,,,,false,,,,174570,174570,,174570,,174600,8,400,,,
sequence,flow.Sequence,4_5,2023-10-30T22:38:46.727Z,,0,,,4170,completion,,,,,false,,,,174571,174570,170383,170374,170400,174600,8,400,,,
trial,html.Screen,4_6_0,2023-10-30T22:38:50.510Z,,0,1,,3769,response,ISIC_0057593.JPG,0,ISIC_6821316.JPG,ISIC_0057593.JPG,false,1,keypress(m),500,178353,178353,174584,174571,174600,178384,8,400,7,,ISIC_6821316.JPG
break,html.Screen,4_6_1,2023-10-30T22:38:50.511Z,,0,,,NaN,,,,,,false,,,,178355,178354,,178354,,178384,8,400,,,
break_continue,html.Screen,4_6_2,2023-10-30T22:38:50.512Z,,0,,,NaN,,,,,,false,,,,178355,178355,,178355,,178384,8,400,,,
sequence,flow.Sequence,4_6,2023-10-30T22:38:50.512Z,,0,,,3755,completion,,,,,false,,,,178356,178355,174584,174571,174600,178384,8,400,,,
trial,html.Screen,4_7_0,2023-10-30T22:38:55.086Z,,0,1,,4562,response,ISIC_9586758.JPG,14,ISIC_6532137.JPG,ISIC_6532137.JPG,false,0,keypress(z),500,182930,182929,178367,178356,178384,182967,8,400,8,,ISIC_9586758.JPG
break,html.Screen,4_7_1,2023-10-30T22:38:55.088Z,,0,,,NaN,,,,,,false,,,,182931,182931,,182930,,182967,8,400,,,
break_continue,html.Screen,4_7_2,2023-10-30T22:38:55.088Z,,0,,,NaN,,,,,,false,,,,182932.00000000003,182932.00000000003,,182932.00000000003,,182967,8,400,,,
sequence,flow.Sequence,4_7,2023-10-30T22:38:55.089Z,,0,,,4548.000000000029,completion,,,,,false,,,,182932.00000000003,182932.00000000003,178367,178356,178384,182967,8,400,,,
trial,html.Screen,4_8_0,2023-10-30T22:39:00.071Z,,0,1,,4964.000000000029,response,ISIC_0062537.JPG,3,ISIC_9684318.JPG,ISIC_9684318.JPG,false,0,keypress(z),500,187914.00000000003,187914.00000000003,182950,182932.00000000003,182967,187950,8,400,9,,ISIC_0062537.JPG
break,html.Screen,4_8_1,2023-10-30T22:39:00.072Z,,0,,,NaN,,,,,,false,,,,187915,187915,,187915,,187950,8,400,,,
break_continue,html.Screen,4_8_2,2023-10-30T22:39:00.072Z,,0,,,NaN,,,,,,false,,,,187916,187916,,187916,,187950,8,400,,,
sequence,flow.Sequence,4_8,2023-10-30T22:39:00.072Z,,0,,,4949,completion,,,,,false,,,,187916,187916,182950,182932.00000000003,182967,187950,8,400,,,
trial,html.Screen,4_9_0,2023-10-30T22:39:04.842Z,,0,1,,4751,response,ISIC_0033332.JPG,14,ISIC_7428248.JPG,ISIC_0033332.JPG,false,1,keypress(m),500,192685,192685,187934,187916,187950,192717,8,400,10,,ISIC_7428248.JPG
break,html.Screen,4_9_1,2023-10-30T22:39:04.843Z,,0,,,NaN,,,,,,false,,,,192687,192686,,192686,,192717,8,400,,,
break_continue,html.Screen,4_9_2,2023-10-30T22:39:04.844Z,,0,,,NaN,,,,,,false,,,,192687,192687,,192687,,192717,8,400,,,
sequence,flow.Sequence,4_9,2023-10-30T22:39:04.844Z,,0,,,4737,completion,,,,,false,,,,192687,192687,187934,187916,187950,192717,8,400,,,
trial,html.Screen,4_10_0,2023-10-30T22:39:10.693Z,,0,1,,5836,response,ISIC_0025451.JPG,11,ISIC_4066726.JPG,ISIC_4066726.JPG,false,0,keypress(z),500,198536,198536,192700,192688.00000000003,192717,198567,8,400,11,,ISIC_0025451.JPG
break,html.Screen,4_10_1,2023-10-30T22:39:10.694Z,,0,,,NaN,,,,,,false,,,,198537,198537,,198537,,198567,8,400,,,
break_continue,html.Screen,4_10_2,2023-10-30T22:39:10.694Z,,0,,,NaN,,,,,,false,,,,198538,198538,,198538,,198567,8,400,,,
sequence,flow.Sequence,4_10,2023-10-30T22:39:10.694Z,,0,,,5821,completion,,,,,false,,,,198538,198538,192700,192688.00000000003,192717,198567,8,400,,,
trial,html.Screen,4_11_0,2023-10-30T22:39:14.920Z,,0,1,,4213,response,ISIC_6511689.JPG,5,ISIC_0072631.JPG,ISIC_6511689.JPG,false,1,keypress(m),500,202763,202763,198550,198538,198567,202783,8,400,12,,ISIC_0072631.JPG
break,html.Screen,4_11_1,2023-10-30T22:39:14.921Z,,0,,,NaN,,,,,,false,,,,202764,202764,,202763,,202783,8,400,,,
break_continue,html.Screen,4_11_2,2023-10-30T22:39:14.921Z,,0,,,NaN,,,,,,false,,,,202764,202764,,202764,,202783,8,400,,,
sequence,flow.Sequence,4_11,2023-10-30T22:39:14.921Z,,0,,,4197,completion,,,,,false,,,,202765.00000000003,202764,198550,198538,198567,202783,8,400,,,
trial,html.Screen,4_12_0,2023-10-30T22:39:18.918Z,,0,1,,3994,response,ISIC_0595080.JPG,5,ISIC_0024900.JPG,ISIC_0024900.JPG,false,0,keypress(z),500,206762,206761,202767,202765.00000000003,202783,206783,8,400,13,,ISIC_0595080.JPG
break,html.Screen,4_12_1,2023-10-30T22:39:18.919Z,,0,,,NaN,,,,,,false,,,,206763,206763,,206762,,206783,8,400,,,
break_continue,html.Screen,4_12_2,2023-10-30T22:39:18.920Z,,0,,,NaN,,,,,,false,,,,206763,206763,,206763,,206783,8,400,,,
sequence,flow.Sequence,4_12,2023-10-30T22:39:18.920Z,,0,,,3980,completion,,,,,false,,,,206764,206763,202767,202765.00000000003,202783,206783,8,400,,,
trial,html.Screen,4_13_0,2023-10-30T22:39:22.678Z,,0,1,,3755.000000000029,response,ISIC_3812485.JPG,2,ISIC_0834745.JPG,ISIC_3812485.JPG,false,1,keypress(m),500,210521.00000000003,210521.00000000003,206766,206764,206783,210550,8,400,14,,ISIC_0834745.JPG
break,html.Screen,4_13_1,2023-10-30T22:39:22.679Z,,0,,,NaN,,,,,,false,,,,210523,210522,,210522,,210550,8,400,,,
break_continue,html.Screen,4_13_2,2023-10-30T22:39:22.680Z,,0,,,NaN,,,,,,false,,,,210523,210523,,210523,,210550,8,400,,,
sequence,flow.Sequence,4_13,2023-10-30T22:39:22.680Z,,0,,,3740,completion,,,,,false,,,,210523,210523,206766,206764,206783,210550,8,400,,,
trial,html.Screen,4_14_0,2023-10-30T22:39:26.494Z,,0,1,,3803.000000000029,response,ISIC_5247383.JPG,3,ISIC_0002693.JPG,ISIC_0002693.JPG,false,0,keypress(z),500,214337.00000000003,214337.00000000003,210534,210523,210550,214367,8,400,15,,ISIC_5247383.JPG
break,html.Screen,4_14_1,2023-10-30T22:39:26.495Z,,0,,,NaN,,,,,,false,,,,214339,214338,,214338,,214367,8,400,,,
break_continue,html.Screen,4_14_2,2023-10-30T22:39:26.496Z,,0,,,NaN,,,,,,false,,,,214339,214339,,214339,,214367,8,400,,,
sequence,flow.Sequence,4_14,2023-10-30T22:39:26.496Z,,0,,,3789,completion,,,,,false,,,,214339,214339,210534,210523,210550,214367,8,400,,,
trial,html.Screen,4_15_0,2023-10-30T22:39:30.561Z,,0,1,,4054,response,ISIC_0011130.JPG,4,ISIC_0047004.JPG,ISIC_0047004.JPG,false,0,keypress(z),500,218405,218404,214350,214339,214367,218433,8,400,16,,ISIC_0011130.JPG
break,html.Screen,4_15_1,2023-10-30T22:39:30.562Z,,0,,,NaN,,,,,,false,,,,218406,218405,,218405,,218433,8,400,,,
break_continue,html.Screen,4_15_2,2023-10-30T22:39:30.562Z,,0,,,NaN,,,,,,false,,,,218406,218406,,218406,,218433,8,400,,,
sequence,flow.Sequence,4_15,2023-10-30T22:39:30.563Z,,0,,,4039,completion,,,,,false,,,,218406,218406,214350,214339,214367,218433,8,400,,,
trial,html.Screen,4_16_0,2023-10-30T22:39:36.010Z,,0,1,,5436,response,ISIC_5599298.JPG,4,ISIC_7053271.JPG,ISIC_7053271.JPG,false,0,keypress(z),500,223853,223853,218417,218406,218433,223883,8,400,17,,ISIC_5599298.JPG
break,html.Screen,4_16_1,2023-10-30T22:39:36.011Z,,0,,,NaN,,,,,,false,,,,223854,223854,,223853,,223883,8,400,,,
break_continue,html.Screen,4_16_2,2023-10-30T22:39:36.011Z,,0,,,NaN,,,,,,false,,,,223855.00000000003,223854,,223854,,223883,8,400,,,
sequence,flow.Sequence,4_16,2023-10-30T22:39:36.011Z,,0,,,5421,completion,,,,,false,,,,223855.00000000003,223854,218417,218406,218433,223883,8,400,,,
trial,html.Screen,4_17_0,2023-10-30T22:39:41.549Z,,0,1,,5525,response,ISIC_5777181.JPG,16,ISIC_5737704.JPG,ISIC_5777181.JPG,false,1,keypress(m),500,229393,229392,223867,223855.00000000003,223883,229417,8,400,18,,ISIC_5737704.JPG
break,html.Screen,4_17_1,2023-10-30T22:39:41.550Z,,0,,,NaN,,,,,,false,,,,229394,229393,,229393,,229417,8,400,,,
break_continue,html.Screen,4_17_2,2023-10-30T22:39:41.550Z,,0,,,NaN,,,,,,false,,,,229394,229394,,229394,,229417,8,400,,,
sequence,flow.Sequence,4_17,2023-10-30T22:39:41.550Z,,0,,,5511,completion,,,,,false,,,,229394,229394,223867,223855.00000000003,223883,229417,8,400,,,
trial,html.Screen,4_18_0,2023-10-30T22:39:47.606Z,,0,1,,6050.000000000029,response,ISIC_3234899.JPG,1,ISIC_1802502.JPG,ISIC_1802502.JPG,false,0,keypress(z),500,235450.00000000003,235450.00000000003,229400,229394,229417,235483,8,400,19,,ISIC_3234899.JPG
break,html.Screen,4_18_1,2023-10-30T22:39:47.608Z,,0,,,NaN,,,,,,false,,,,235451,235451,,235450.00000000003,,235483,8,400,,,
break_continue,html.Screen,4_18_2,2023-10-30T22:39:47.608Z,,0,,,NaN,,,,,,false,,,,235451,235451,,235451,,235483,8,400,,,
sequence,flow.Sequence,4_18,2023-10-30T22:39:47.608Z,,0,,,6034,completion,,,,,false,,,,235452,235451,229400,229394,229417,235483,8,400,,,
trial,html.Screen,4_19_0,2023-10-30T22:39:53.569Z,,0,1,,5946,response,ISIC_0026141.JPG,8,ISIC_0007257.JPG,ISIC_0026141.JPG,false,1,keypress(m),500,241413,241413,235467,235452,235483,241450,8,400,20,,ISIC_0007257.JPG
break,html.Screen,4_19_1,2023-10-30T22:39:53.570Z,,0,,,NaN,,,,,,false,,,,241414.00000000003,241414.00000000003,,241413,,241450,8,400,,,
break_continue,html.Screen,4_19_2,2023-10-30T22:39:53.571Z,,0,,,NaN,,,,,,false,,,,241414.00000000003,241414.00000000003,,241414.00000000003,,241450,8,400,,,
sequence,flow.Sequence,4_19,2023-10-30T22:39:53.571Z,,0,,,5931.000000000029,completion,,,,,false,,,,241414.00000000003,241414.00000000003,235467,235452,235483,241450,8,400,,,
trial,html.Screen,4_20_0,2023-10-30T22:39:58.358Z,,0,1,,4769,response,ISIC_0003438.JPG,6,ISIC_8551124.JPG,ISIC_0003438.JPG,false,1,keypress(m),500,246202,246202,241433,241414.00000000003,241450,246233,8,400,21,,ISIC_8551124.JPG
break,html.Screen,4_20_1,2023-10-30T22:39:58.360Z,,0,,,NaN,,,,,,false,,,,246203,246203,,246202,,246233,8,400,,,
break_continue,html.Screen,4_20_2,2023-10-30T22:39:58.360Z,,0,,,NaN,,,,,,false,,,,246204,246204,,246204,,246233,8,400,,,
sequence,flow.Sequence,4_20,2023-10-30T22:39:58.360Z,,0,,,4754,completion,,,,,false,,,,246204,246204,241433,241414.00000000003,241450,246233,8,400,,,
trial,html.Screen,4_21_0,2023-10-30T22:40:02.945Z,,0,1,,4571,response,ISIC_0010705.JPG,3,ISIC_7198887.JPG,ISIC_0010705.JPG,false,1,keypress(m),500,250788,250788,246217,246204,246233,250817,8,400,22,,ISIC_7198887.JPG
break,html.Screen,4_21_1,2023-10-30T22:40:02.946Z,,0,,,NaN,,,,,,false,,,,250789.00000000003,250789.00000000003,,250789.00000000003,,250817,8,400,,,
break_continue,html.Screen,4_21_2,2023-10-30T22:40:02.946Z,,0,,,NaN,,,,,,false,,,,250790,250790,,250790,,250817,8,400,,,
sequence,flow.Sequence,4_21,2023-10-30T22:40:02.946Z,,0,,,4557,completion,,,,,false,,,,250790,250790,246217,246204,246233,250817,8,400,,,
trial,html.Screen,4_22_0,2023-10-30T22:40:06.523Z,,0,1,,3566,response,ISIC_0030101.JPG,3,ISIC_1165548.JPG,ISIC_1165548.JPG,false,0,keypress(z),500,254367.00000000003,254366,250800,250790,250817,254400,8,400,23,,ISIC_0030101.JPG
break,html.Screen,4_22_1,2023-10-30T22:40:06.524Z,,0,,,NaN,,,,,,false,,,,254368,254368,,254367.00000000003,,254400,8,400,,,
break_continue,html.Screen,4_22_2,2023-10-30T22:40:06.525Z,,0,,,NaN,,,,,,false,,,,254368,254368,,254368,,254400,8,400,,,
sequence,flow.Sequence,4_22,2023-10-30T22:40:06.525Z,,0,,,3551,completion,,,,,false,,,,254369,254368,250800,250790,250817,254400,8,400,,,
trial,html.Screen,4_23_0,2023-10-30T22:40:09.517Z,,0,1,,2977,response,ISIC_0071834.JPG,1,ISIC_0533930.JPG,ISIC_0071834.JPG,false,1,keypress(m),500,257360,257360,254383,254369,254400,257383,8,400,24,,ISIC_0533930.JPG
break,html.Screen,4_23_1,2023-10-30T22:40:09.518Z,,0,,,NaN,,,,,,false,,,,257361,257361,,257361,,257383,8,400,,,
break_continue,html.Screen,4_23_2,2023-10-30T22:40:09.518Z,,0,,,NaN,,,,,,false,,,,257362.00000000003,257362.00000000003,,257361,,257383,8,400,,,
sequence,flow.Sequence,4_23,2023-10-30T22:40:09.518Z,,0,,,2962.000000000029,completion,,,,,false,,,,257362.00000000003,257362.00000000003,254383,254369,254400,257383,8,400,,,
trial,html.Screen,4_24_0,2023-10-30T22:40:12.813Z,,0,1,,3290,response,ISIC_0059892.JPG,3,ISIC_0060679.JPG,ISIC_0059892.JPG,false,1,keypress(m),500,260656.99999999997,260656,257366,257362.00000000003,257383,260683,8,400,25,,ISIC_0060679.JPG
break,html.Screen,4_24_1,2023-10-30T22:40:12.814Z,,0,,,NaN,,,,,,false,,,,260658.00000000003,260656.99999999997,,260656.99999999997,,260683,8,400,,,
break_continue,html.Screen,4_24_2,2023-10-30T22:40:12.815Z,,0,,,NaN,,,,,,false,,,,260658.00000000003,260658.00000000003,,260658.00000000003,,260683,8,400,,,
sequence,flow.Sequence,4_24,2023-10-30T22:40:12.815Z,,0,,,3275.000000000029,completion,,,,,false,,,,260658.00000000003,260658.00000000003,257366,257362.00000000003,257383,260683,8,400,,,
trial,html.Screen,4_25_0,2023-10-30T22:40:16.474Z,,0,1,,3650,response,ISIC_0066798.JPG,1,ISIC_5903193.JPG,ISIC_5903193.JPG,false,0,keypress(z),500,264318,264317,260667,260658.00000000003,260683,264350,8,400,26,,ISIC_0066798.JPG
break,html.Screen,4_25_1,2023-10-30T22:40:16.475Z,,0,,,NaN,,,,,,false,,,,264319,264319,,264318,,264350,8,400,,,
break_continue,html.Screen,4_25_2,2023-10-30T22:40:16.475Z,,0,,,NaN,,,,,,false,,,,264319,264319,,264319,,264350,8,400,,,
sequence,flow.Sequence,4_25,2023-10-30T22:40:16.475Z,,0,,,3636,completion,,,,,false,,,,264319,264319,260667,260658.00000000003,260683,264350,8,400,,,
trial,html.Screen,4_26_0,2023-10-30T22:40:21.255Z,,0,1,,4766,response,ISIC_7297078.JPG,5,ISIC_6640753.JPG,ISIC_6640753.JPG,false,0,keypress(z),500,269099,269099,264333,264319,264350,269133,8,400,27,,ISIC_7297078.JPG
break,html.Screen,4_26_1,2023-10-30T22:40:21.256Z,,0,,,NaN,,,,,,false,,,,269100,269100,,269099,,269133,8,400,,,
break_continue,html.Screen,4_26_2,2023-10-30T22:40:21.256Z,,0,,,NaN,,,,,,false,,,,269100,269100,,269100,,269133,8,400,,,
sequence,flow.Sequence,4_26,2023-10-30T22:40:21.257Z,,0,,,4750,completion,,,,,false,,,,269100,269100,264333,264319,264350,269133,8,400,,,
trial,html.Screen,4_27_0,2023-10-30T22:40:25.405Z,,0,1,,4132,response,ISIC_5267208.JPG,1,ISIC_0057881.JPG,ISIC_0057881.JPG,false,0,keypress(z),500,273249,273249,269117,269100,269133,273283,8,400,28,,ISIC_5267208.JPG
break,html.Screen,4_27_1,2023-10-30T22:40:25.406Z,,0,,,NaN,,,,,,false,,,,273250,273250,,273249,,273283,8,400,,,
break_continue,html.Screen,4_27_2,2023-10-30T22:40:25.407Z,,0,,,NaN,,,,,,false,,,,273251.00000000006,273250,,273250,,273283,8,400,,,
sequence,flow.Sequence,4_27,2023-10-30T22:40:25.407Z,,0,,,4117,completion,,,,,false,,,,273251.00000000006,273250,269117,269100,269133,273283,8,400,,,
trial,html.Screen,4_28_0,2023-10-30T22:40:30.959Z,,0,1,,5535,response,ISIC_2058516.JPG,5,ISIC_9109361.JPG,ISIC_2058516.JPG,false,1,keypress(m),500,278803,278802,273267,273251.00000000006,273283,278833,8,400,29,,ISIC_9109361.JPG
break,html.Screen,4_28_1,2023-10-30T22:40:30.960Z,,0,,,NaN,,,,,,false,,,,278804.00000000006,278804.00000000006,,278803,,278833,8,400,,,
break_continue,html.Screen,4_28_2,2023-10-30T22:40:30.960Z,,0,,,NaN,,,,,,false,,,,278804.00000000006,278804.00000000006,,278804.00000000006,,278833,8,400,,,
sequence,flow.Sequence,4_28,2023-10-30T22:40:30.961Z,,0,,,5521.000000000058,completion,,,,,false,,,,278804.00000000006,278804.00000000006,273267,273251.00000000006,273283,278833,8,400,,,
trial,html.Screen,4_29_0,2023-10-30T22:40:35.664Z,,0,1,,4690,response,ISIC_6684042.JPG,15,ISIC_0011007.JPG,ISIC_6684042.JPG,false,1,keypress(m),500,283507,283507,278817,278804.00000000006,278833,283533,8,400,30,,ISIC_0011007.JPG
break,html.Screen,4_29_1,2023-10-30T22:40:35.665Z,,0,,,NaN,,,,,,false,,,,283508,283508,,283508,,283533,8,400,,,
break_continue,html.Screen,4_29_2,2023-10-30T22:40:35.665Z,,0,,,NaN,,,,,,false,,,,283509,283509,,283509,,283533,8,400,,,
sequence,flow.Sequence,4_29,2023-10-30T22:40:35.665Z,,0,,,4676,completion,,,,,false,,,,283509,283509,278817,278804.00000000006,278833,283533,8,400,,,
trial,html.Screen,4_30_0,2023-10-30T22:40:40.767Z,,0,1,,5094,response,ISIC_1071355.JPG,15,ISIC_0033500.JPG,ISIC_0033500.JPG,false,0,keypress(z),500,288611,288610,283516,283509,283533,288633,8,400,31,,ISIC_1071355.JPG
break,html.Screen,4_30_1,2023-10-30T22:40:40.768Z,,0,,,NaN,,,,,,false,,,,288612,288612,,288611,,288633,8,400,,,
break_continue,html.Screen,4_30_2,2023-10-30T22:40:40.768Z,,0,,,NaN,,,,,,false,,,,288612,288612,,288612,,288633,8,400,,,
sequence,flow.Sequence,4_30,2023-10-30T22:40:40.769Z,,0,,,5079,completion,,,,,false,,,,288612,288612,283516,283509,283533,288633,8,400,,,
trial,html.Screen,4_31_0,2023-10-30T22:40:44.842Z,,0,1,,4069,response,ISIC_0067830.JPG,2,ISIC_0028207.JPG,ISIC_0067830.JPG,false,1,keypress(m),500,292686,292685,288616,288612,288633,292717,8,400,32,,ISIC_0028207.JPG
break,html.Screen,4_31_1,2023-10-30T22:40:44.843Z,,0,,,NaN,,,,,,false,,,,292687,292686,,292686,,292717,8,400,,,
break_continue,html.Screen,4_31_2,2023-10-30T22:40:44.843Z,,0,,,NaN,,,,,,false,,,,292687,292687,,292687,,292717,8,400,,,
sequence,flow.Sequence,4_31,2023-10-30T22:40:44.844Z,,0,,,4054,completion,,,,,false,,,,292687,292687,288616,288612,288633,292717,8,400,,,
trial,html.Screen,4_32_0,2023-10-30T22:40:49.556Z,,0,1,,4699,response,ISIC_8284685.JPG,0,ISIC_0013243.JPG,ISIC_8284685.JPG,false,1,keypress(m),500,297399,297399,292700,292688,292717,297433,8,400,33,,ISIC_0013243.JPG
break,html.Screen,4_32_1,2023-10-30T22:40:49.557Z,,0,,,NaN,,,,,,false,,,,297400.00000000006,297400.00000000006,,297400.00000000006,,297433,8,400,,,
break_continue,html.Screen,4_32_2,2023-10-30T22:40:49.557Z,,0,,,NaN,,,,,,false,,,,297401,297401,,297401,,297433,8,400,,,
sequence,flow.Sequence,4_32,2023-10-30T22:40:49.557Z,,0,,,4684,completion,,,,,false,,,,297401,297401,292700,292687,292717,297433,8,400,,,
trial,html.Screen,4_33_0,2023-10-30T22:40:53.526Z,,0,1,,3953,response,ISIC_0015200.JPG,2,ISIC_7875088.JPG,ISIC_7875088.JPG,false,0,keypress(z),500,301369,301369,297416,297401,297433,301400,8,400,34,,ISIC_0015200.JPG
break,html.Screen,4_33_1,2023-10-30T22:40:53.526Z,,0,,,NaN,,,,,,false,,,,301370,301370,,301370,,301400,8,400,,,
break_continue,html.Screen,4_33_2,2023-10-30T22:40:53.527Z,,0,,,NaN,,,,,,false,,,,301371,301371,,301370,,301400,8,400,,,
sequence,flow.Sequence,4_33,2023-10-30T22:40:53.527Z,,0,,,3938,completion,,,,,false,,,,301371,301371,297416,297401,297433,301400,8,400,,,
trial,html.Screen,4_34_0,2023-10-30T22:40:56.958Z,,0,1,,3418,response,ISIC_0059609.JPG,14,ISIC_6220953.JPG,ISIC_6220953.JPG,false,0,keypress(z),500,304802,304801,301383,301371,301400,304833,8,400,35,,ISIC_0059609.JPG
break,html.Screen,4_34_1,2023-10-30T22:40:56.959Z,,0,,,NaN,,,,,,false,,,,304803,304803,,304802,,304833,8,400,,,
break_continue,html.Screen,4_34_2,2023-10-30T22:40:56.960Z,,0,,,NaN,,,,,,false,,,,304803,304803,,304803,,304833,8,400,,,
sequence,flow.Sequence,4_34,2023-10-30T22:40:56.960Z,,0,,,3403,completion,,,,,false,,,,304803,304803,301383,301371,301400,304833,8,400,,,
trial,html.Screen,4_35_0,2023-10-30T22:40:59.982Z,,0,1,,3009,response,ISIC_4329176.JPG,4,ISIC_0010398.JPG,ISIC_4329176.JPG,false,1,keypress(m),500,307826,307826,304817,304804.00000000006,304833,307850,8,400,36,,ISIC_0010398.JPG
break,html.Screen,4_35_1,2023-10-30T22:40:59.983Z,,0,,,NaN,,,,,,false,,,,307827,307827,,307826,,307850,8,400,,,
break_continue,html.Screen,4_35_2,2023-10-30T22:40:59.983Z,,0,,,NaN,,,,,,false,,,,307827,307827,,307827,,307850,8,400,,,
sequence,flow.Sequence,4_35,2023-10-30T22:40:59.983Z,,0,,,2994,completion,,,,,false,,,,307827,307827,304817,304804.00000000006,304833,307850,8,400,,,
trial,html.Screen,4_36_0,2023-10-30T22:41:03.854Z,,0,1,,3865,response,ISIC_2456538.JPG,6,ISIC_0009993.JPG,ISIC_2456538.JPG,false,1,keypress(m),500,311698,311698,307833,307827,307850,311716,8,400,37,,ISIC_0009993.JPG
break,html.Screen,4_36_1,2023-10-30T22:41:03.855Z,,0,,,NaN,,,,,,false,,,,311699,311699,,311698,,311716,8,400,,,
break_continue,html.Screen,4_36_2,2023-10-30T22:41:03.856Z,,0,,,NaN,,,,,,false,,,,311700,311699,,311699,,311716,8,400,,,
sequence,flow.Sequence,4_36,2023-10-30T22:41:03.856Z,,0,,,3849,completion,,,,,false,,,,311700,311699,307833,307827,307850,311716,8,400,,,
trial,html.Screen,4_37_0,2023-10-30T22:41:08.243Z,,0,1,,4385,response,ISIC_0032484.JPG,2,ISIC_5849178.JPG,ISIC_5849178.JPG,false,0,keypress(z),500,316087,316087,311702,311700,311716,316117,8,400,38,,ISIC_0032484.JPG
break,html.Screen,4_37_1,2023-10-30T22:41:08.245Z,,0,,,NaN,,,,,,false,,,,316089,316088,,316088,,316117,8,400,,,
break_continue,html.Screen,4_37_2,2023-10-30T22:41:08.245Z,,0,,,NaN,,,,,,false,,,,316089,316089,,316089,,316117,8,400,,,
sequence,flow.Sequence,4_37,2023-10-30T22:41:08.245Z,,0,,,4373,completion,,,,,false,,,,316089,316089,311702,311700,311716,316117,8,400,,,
trial,html.Screen,4_38_0,2023-10-30T22:41:12.150Z,,0,1,,3893,response,ISIC_0055140.JPG,4,ISIC_1285870.JPG,ISIC_1285870.JPG,false,0,keypress(z),500,319994,319993,316100,316089,316117,320017,8,400,39,,ISIC_0055140.JPG
break,html.Screen,4_38_1,2023-10-30T22:41:12.151Z,,0,,,NaN,,,,,,false,,,,319994,319994,,319994,,320017,8,400,,,
break_continue,html.Screen,4_38_2,2023-10-30T22:41:12.151Z,,0,,,NaN,,,,,,false,,,,319995,319995,,319994,,320017,8,400,,,
sequence,flow.Sequence,4_38,2023-10-30T22:41:12.151Z,,0,,,3878,completion,,,,,false,,,,319995,319995,316100,316089,316117,320017,8,400,,,
trial,html.Screen,4_39_0,2023-10-30T22:41:16.179Z,,0,1,,4023,response,ISIC_9860255.JPG,2,ISIC_0008510.JPG,ISIC_0008510.JPG,false,0,keypress(z),500,324023,324022,319999,319995,320017,324050,8,400,40,,ISIC_9860255.JPG
break,html.Screen,4_39_1,2023-10-30T22:41:16.180Z,,0,,,NaN,,,,,,false,,,,324024,324023,,324023,,324050,8,400,,,
break_continue,html.Screen,4_39_2,2023-10-30T22:41:16.180Z,,0,,,NaN,,,,,,false,,,,324024,324024,,324024,,324050,8,400,,,
sequence,flow.Sequence,4_39,2023-10-30T22:41:16.180Z,,0,,,4007,completion,,,,,false,,,,324024,324024,319999,319995,320017,324050,8,400,,,
trial,html.Screen,4_40_0,2023-10-30T22:41:20.432Z,,0,1,,4243,response,ISIC_0031204.JPG,16,ISIC_9073150.JPG,ISIC_9073150.JPG,false,0,keypress(z),500,328276,328276,324033,324024,324050,328300,8,400,41,,ISIC_0031204.JPG
break,html.Screen,4_40_1,2023-10-30T22:41:20.433Z,,0,,,NaN,,,,,,false,,,,328277,328277,,328276,,328300,8,400,,,
break_continue,html.Screen,4_40_2,2023-10-30T22:41:20.433Z,,0,,,NaN,,,,,,false,,,,328277,328277,,328277,,328300,8,400,,,
sequence,flow.Sequence,4_40,2023-10-30T22:41:20.434Z,,0,,,4227,completion,,,,,false,,,,328277,328277,324033,324024,324050,328300,8,400,,,
trial,html.Screen,4_41_0,2023-10-30T22:41:23.959Z,,0,1,,3519,response,ISIC_5081382.JPG,3,ISIC_9223679.JPG,ISIC_9223679.JPG,false,0,keypress(z),500,331803,331802,328283,328277,328300,331833,8,400,42,,ISIC_5081382.JPG
break,html.Screen,4_41_1,2023-10-30T22:41:23.960Z,,0,,,NaN,,,,,,false,,,,331804.00000000006,331804.00000000006,,331803,,331833,8,400,,,
break_continue,html.Screen,4_41_2,2023-10-30T22:41:23.960Z,,0,,,NaN,,,,,,false,,,,331804.00000000006,331804.00000000006,,331804.00000000006,,331833,8,400,,,
sequence,flow.Sequence,4_41,2023-10-30T22:41:23.961Z,,0,,,3504.000000000058,completion,,,,,false,,,,331804.00000000006,331804.00000000006,328283,328277,328300,331833,8,400,,,
trial,html.Screen,4_42_0,2023-10-30T22:41:27.132Z,,0,1,,3158,response,ISIC_0063018.JPG,1,ISIC_3046905.JPG,ISIC_3046905.JPG,false,0,keypress(z),500,334976,334975,331817,331805,331833,334999,8,400,43,,ISIC_0063018.JPG
break,html.Screen,4_42_1,2023-10-30T22:41:27.133Z,,0,,,NaN,,,,,,false,,,,334977.00000000006,334976,,334976,,334999,8,400,,,
break_continue,html.Screen,4_42_2,2023-10-30T22:41:27.133Z,,0,,,NaN,,,,,,false,,,,334977.00000000006,334977.00000000006,,334977.00000000006,,334999,8,400,,,
sequence,flow.Sequence,4_42,2023-10-30T22:41:27.133Z,,0,,,3144.000000000058,completion,,,,,false,,,,334977.00000000006,334977.00000000006,331817,331805,331833,334999,8,400,,,
trial,html.Screen,4_43_0,2023-10-30T22:41:30.678Z,,0,1,,3538,response,ISIC_0059349.JPG,4,ISIC_1620401.JPG,ISIC_1620401.JPG,false,0,keypress(z),500,338522,338521,334983,334977.00000000006,334999,338550,8,400,44,,ISIC_0059349.JPG
break,html.Screen,4_43_1,2023-10-30T22:41:30.679Z,,0,,,NaN,,,,,,false,,,,338523,338523,,338522,,338550,8,400,,,
break_continue,html.Screen,4_43_2,2023-10-30T22:41:30.679Z,,0,,,NaN,,,,,,false,,,,338523,338523,,338523,,338550,8,400,,,
sequence,flow.Sequence,4_43,2023-10-30T22:41:30.679Z,,0,,,3524,completion,,,,,false,,,,338523,338523,334983,334977.00000000006,334999,338550,8,400,,,
trial,html.Screen,4_44_0,2023-10-30T22:41:34.615Z,,0,1,,3926,response,ISIC_0030889.JPG,4,ISIC_0185547.JPG,ISIC_0185547.JPG,false,0,keypress(z),500,342459,342459,338533,338523,338550,342482,8,400,45,,ISIC_0030889.JPG
break,html.Screen,4_44_1,2023-10-30T22:41:34.617Z,,0,,,NaN,,,,,,false,,,,342461,342460,,342460,,342482,8,400,,,
break_continue,html.Screen,4_44_2,2023-10-30T22:41:34.617Z,,0,,,NaN,,,,,,false,,,,342461,342461,,342461,,342482,8,400,,,
sequence,flow.Sequence,4_44,2023-10-30T22:41:34.617Z,,0,,,3911,completion,,,,,false,,,,342461,342461,338533,338523,338550,342482,8,400,,,
trial,html.Screen,4_45_0,2023-10-30T22:41:39.237Z,,0,1,,4614,response,ISIC_8671662.JPG,0,ISIC_6208762.JPG,ISIC_8671662.JPG,false,1,keypress(m),500,347081,347080,342466,342462,342482,347117,8,400,46,,ISIC_6208762.JPG
break,html.Screen,4_45_1,2023-10-30T22:41:39.238Z,,0,,,NaN,,,,,,false,,,,347082,347082,,347081,,347117,8,400,,,
break_continue,html.Screen,4_45_2,2023-10-30T22:41:39.238Z,,0,,,NaN,,,,,,false,,,,347082,347082,,347082,,347117,8,400,,,
sequence,flow.Sequence,4_45,2023-10-30T22:41:39.238Z,,0,,,4600,completion,,,,,false,,,,347082,347082,342466,342461,342482,347117,8,400,,,
trial,html.Screen,4_46_0,2023-10-30T22:41:42.680Z,,0,1,,3423,response,ISIC_6672654.JPG,13,ISIC_4652186.JPG,ISIC_4652186.JPG,false,0,keypress(z),500,350524,350523,347100,347082,347117,350550,8,400,47,,ISIC_6672654.JPG
break,html.Screen,4_46_1,2023-10-30T22:41:42.681Z,,0,,,NaN,,,,,,false,,,,350525.00000000006,350525.00000000006,,350524,,350550,8,400,,,
break_continue,html.Screen,4_46_2,2023-10-30T22:41:42.682Z,,0,,,NaN,,,,,,false,,,,350526,350525.00000000006,,350525.00000000006,,350550,8,400,,,
sequence,flow.Sequence,4_46,2023-10-30T22:41:42.682Z,,0,,,3408.000000000058,completion,,,,,false,,,,350526,350525.00000000006,347100,347082,347117,350550,8,400,,,
trial,html.Screen,4_47_0,2023-10-30T22:41:45.634Z,,0,1,,2945,response,ISIC_0070009.JPG,2,ISIC_8263489.JPG,ISIC_8263489.JPG,false,0,keypress(z),500,353478,353478,350533,350526,350550,353500,8,400,48,,ISIC_0070009.JPG
break,html.Screen,4_47_1,2023-10-30T22:41:45.635Z,,0,,,NaN,,,,,,false,,,,353479,353479,,353478,,353500,8,400,,,
break_continue,html.Screen,4_47_2,2023-10-30T22:41:45.636Z,,0,,,NaN,,,,,,false,,,,353480,353480,,353480,,353500,8,400,,,
sequence,flow.Sequence,4_47,2023-10-30T22:41:45.636Z,,0,,,2930,completion,,,,,false,,,,353480,353480,350533,350526,350550,353500,8,400,,,
trial,html.Screen,4_48_0,2023-10-30T22:41:50.743Z,,0,1,,5104,response,ISIC_0014800.JPG,16,ISIC_0000087.JPG,ISIC_0000087.JPG,false,0,keypress(z),500,358587,358586,353482,353480,353500,358616,8,400,49,,ISIC_0014800.JPG
break,html.Screen,4_48_1,2023-10-30T22:41:50.744Z,,0,,,NaN,,,,,,false,,,,358588,358587,,358587,,358616,8,400,,,
break_continue,html.Screen,4_48_2,2023-10-30T22:41:50.744Z,,0,,,NaN,,,,,,false,,,,358588,358588,,358588,,358616,8,400,,,
sequence,flow.Sequence,4_48,2023-10-30T22:41:50.744Z,,0,,,5088,completion,,,,,false,,,,358588,358588,353482,353480,353500,358616,8,400,,,
trial,html.Screen,4_49_0,2023-10-30T22:41:54.891Z,,0,1,,4135,response,ISIC_0011709.JPG,3,ISIC_0026369.JPG,ISIC_0026369.JPG,false,0,keypress(z),500,362735,362735,358600,358588,358616,362766,8,400,50,,ISIC_0011709.JPG
break,html.Screen,4_49_1,2023-10-30T22:42:04.906Z,,0,,,10000,timeout,,,,,false,,,,372750,372750,362750,362736,362766,372766,8,400,,,
break_continue,html.Screen,4_49_2,2023-10-30T22:42:07.304Z,,0,,,2394,response,,,,,false,continue,keypress(Space),,375148,375144,372750,372750,372766,375183,8,400,,,
sequence,flow.Sequence,4_49,2023-10-30T22:42:07.304Z,,0,,,16528,completion,,,,,false,,,,375148,375144,358600,358588,358616,375183,8,400,,,
trial,html.Screen,4_50_0,2023-10-30T22:42:12.327Z,,0,2,,5004,response,ISIC_0363130.JPG,2,ISIC_5179884.JPG,ISIC_5179884.JPG,false,0,keypress(z),500,380171,380170,375166,375148,375183,380200,8,400,1,,ISIC_0363130.JPG
break,html.Screen,4_50_1,2023-10-30T22:42:12.327Z,,0,,,NaN,,,,,,false,,,,380171,380171,,380171,,380200,8,400,,,
break_continue,html.Screen,4_50_2,2023-10-30T22:42:12.328Z,,0,,,NaN,,,,,,false,,,,380172,380172,,380172,,380200,8,400,,,
sequence,flow.Sequence,4_50,2023-10-30T22:42:12.328Z,,0,,,4989,completion,,,,,false,,,,380172,380172,375166,375148,375183,380200,8,400,,,
trial,html.Screen,4_51_0,2023-10-30T22:42:16.707Z,,0,2,,4368,response,ISIC_0009642.JPG,5,ISIC_4728200.JPG,ISIC_0009642.JPG,false,1,keypress(m),500,384551,384551,380183,380172,380200,384583,8,400,2,,ISIC_4728200.JPG
break,html.Screen,4_51_1,2023-10-30T22:42:16.708Z,,0,,,NaN,,,,,,false,,,,384552,384552,,384551,,384583,8,400,,,
break_continue,html.Screen,4_51_2,2023-10-30T22:42:16.708Z,,0,,,NaN,,,,,,false,,,,384553,384552,,384552,,384583,8,400,,,
sequence,flow.Sequence,4_51,2023-10-30T22:42:16.709Z,,0,,,4352,completion,,,,,false,,,,384553,384552,380183,380172,380200,384583,8,400,,,
trial,html.Screen,4_52_0,2023-10-30T22:42:20.535Z,,0,2,,3812,response,ISIC_0033309.JPG,5,ISIC_8354042.JPG,ISIC_8354042.JPG,false,0,keypress(z),500,388379,388378,384566,384553,384583,388416,8,400,3,,ISIC_0033309.JPG
break,html.Screen,4_52_1,2023-10-30T22:42:20.536Z,,0,,,NaN,,,,,,false,,,,388380,388380,,388379,,388416,8,400,,,
break_continue,html.Screen,4_52_2,2023-10-30T22:42:20.536Z,,0,,,NaN,,,,,,false,,,,388380,388380,,388380,,388416,8,400,,,
sequence,flow.Sequence,4_52,2023-10-30T22:42:20.536Z,,0,,,3797,completion,,,,,false,,,,388380,388380,384566,384553,384583,388416,8,400,,,
trial,html.Screen,4_53_0,2023-10-30T22:42:23.511Z,,0,2,,2955,response,ISIC_0799535.JPG,4,ISIC_0000226.JPG,ISIC_0799535.JPG,false,1,keypress(m),500,391355,391355,388400,388380,388416,391383,8,400,4,,ISIC_0000226.JPG
break,html.Screen,4_53_1,2023-10-30T22:42:23.512Z,,0,,,NaN,,,,,,false,,,,391356,391356,,391356,,391383,8,400,,,
break_continue,html.Screen,4_53_2,2023-10-30T22:42:23.513Z,,0,,,NaN,,,,,,false,,,,391357,391357,,391357,,391383,8,400,,,
sequence,flow.Sequence,4_53,2023-10-30T22:42:23.513Z,,0,,,2941,completion,,,,,false,,,,391357,391357,388400,388380,388416,391383,8,400,,,
trial,html.Screen,4_54_0,2023-10-30T22:42:26.400Z,,0,2,,2878,response,ISIC_0033518.JPG,16,ISIC_9574191.JPG,ISIC_9574191.JPG,false,0,keypress(z),500,394245,394244,391366,391357,391383,394266,8,400,5,,ISIC_0033518.JPG
break,html.Screen,4_54_1,2023-10-30T22:42:26.401Z,,0,,,NaN,,,,,,false,,,,394245,394245,,394245,,394266,8,400,,,
break_continue,html.Screen,4_54_2,2023-10-30T22:42:26.402Z,,0,,,NaN,,,,,,false,,,,394246,394245,,394245,,394266,8,400,,,
sequence,flow.Sequence,4_54,2023-10-30T22:42:26.402Z,,0,,,2862,completion,,,,,false,,,,394246,394245,391366,391357,391383,394266,8,400,,,
trial,html.Screen,4_55_0,2023-10-30T22:42:30.446Z,,0,2,,4041,response,ISIC_0027408.JPG,2,ISIC_0033492.JPG,ISIC_0027408.JPG,false,1,keypress(m),500,398290,398290,394249,394246,394266,398316,8,400,6,,ISIC_0033492.JPG
break,html.Screen,4_55_1,2023-10-30T22:42:30.447Z,,0,,,NaN,,,,,,false,,,,398291,398291,,398290,,398316,8,400,,,
break_continue,html.Screen,4_55_2,2023-10-30T22:42:30.447Z,,0,,,NaN,,,,,,false,,,,398291,398291,,398291,,398316,8,400,,,
sequence,flow.Sequence,4_55,2023-10-30T22:42:30.447Z,,0,,,4025,completion,,,,,false,,,,398291,398291,394249,394246,394266,398316,8,400,,,
trial,html.Screen,4_56_0,2023-10-30T22:42:34.898Z,,0,2,,4441,response,ISIC_0046921.JPG,2,ISIC_7945429.JPG,ISIC_0046921.JPG,false,1,keypress(m),500,402742,402741,398300,398292.00000000006,398316,402766,8,400,7,,ISIC_7945429.JPG
break,html.Screen,4_56_1,2023-10-30T22:42:34.898Z,,0,,,NaN,,,,,,false,,,,402743,402742,,402742,,402766,8,400,,,
break_continue,html.Screen,4_56_2,2023-10-30T22:42:34.899Z,,0,,,NaN,,,,,,false,,,,402743,402743,,402743,,402766,8,400,,,
sequence,flow.Sequence,4_56,2023-10-30T22:42:34.899Z,,0,,,4427,completion,,,,,false,,,,402743,402743,398300,398292.00000000006,398316,402766,8,400,,,
trial,html.Screen,4_57_0,2023-10-30T22:42:39.144Z,,0,2,,4239,response,ISIC_0006321.JPG,3,ISIC_0063692.JPG,ISIC_0006321.JPG,false,1,keypress(m),500,406988,406988,402749,402743,402766,407015,8,400,8,,ISIC_0063692.JPG
break,html.Screen,4_57_1,2023-10-30T22:42:39.145Z,,0,,,NaN,,,,,,false,,,,406989.00000000006,406989.00000000006,,406989.00000000006,,407015,8,400,,,
break_continue,html.Screen,4_57_2,2023-10-30T22:42:39.145Z,,0,,,NaN,,,,,,false,,,,406990,406989.00000000006,,406989.00000000006,,407015,8,400,,,
sequence,flow.Sequence,4_57,2023-10-30T22:42:39.146Z,,0,,,4223.000000000058,completion,,,,,false,,,,406990,406989.00000000006,402749,402743,402766,407015,8,400,,,
trial,html.Screen,4_58_0,2023-10-30T22:42:43.663Z,,0,2,,4507,response,ISIC_2559074.JPG,13,ISIC_0009998.JPG,ISIC_2559074.JPG,false,1,keypress(m),500,411507,411507,407000,406990,407015,411533,8,400,9,,ISIC_0009998.JPG
break,html.Screen,4_58_1,2023-10-30T22:42:43.664Z,,0,,,NaN,,,,,,false,,,,411508,411508,,411508,,411533,8,400,,,
break_continue,html.Screen,4_58_2,2023-10-30T22:42:43.664Z,,0,,,NaN,,,,,,false,,,,411509,411509,,411508,,411533,8,400,,,
sequence,flow.Sequence,4_58,2023-10-30T22:42:43.665Z,,0,,,4494,completion,,,,,false,,,,411509,411509,407000,406990,407015,411533,8,400,,,
trial,html.Screen,4_59_0,2023-10-30T22:42:46.966Z,,0,2,,3294,response,ISIC_0001134.JPG,16,ISIC_0012025.JPG,ISIC_0001134.JPG,false,1,keypress(m),500,414810,414810,411516,411509,411533,414833,8,400,10,,ISIC_0012025.JPG
break,html.Screen,4_59_1,2023-10-30T22:42:46.967Z,,0,,,NaN,,,,,,false,,,,414811.00000000006,414811.00000000006,,414811.00000000006,,414833,8,400,,,
break_continue,html.Screen,4_59_2,2023-10-30T22:42:46.967Z,,0,,,NaN,,,,,,false,,,,414812,414811.00000000006,,414811.00000000006,,414833,8,400,,,
sequence,flow.Sequence,4_59,2023-10-30T22:42:46.967Z,,0,,,3278.000000000058,completion,,,,,false,,,,414812,414811.00000000006,411516,411509,411533,414833,8,400,,,
trial,html.Screen,4_60_0,2023-10-30T22:42:50.122Z,,0,2,,3150,response,ISIC_0054885.JPG,5,ISIC_0014164.JPG,ISIC_0014164.JPG,false,0,keypress(z),500,417967,417966,414816,414812,414833,418000,8,400,11,,ISIC_0054885.JPG
break,html.Screen,4_60_1,2023-10-30T22:42:50.124Z,,0,,,NaN,,,,,,false,,,,417968,417968,,417967,,418000,8,400,,,
break_continue,html.Screen,4_60_2,2023-10-30T22:42:50.124Z,,0,,,NaN,,,,,,false,,,,417968,417968,,417968,,418000,8,400,,,
sequence,flow.Sequence,4_60,2023-10-30T22:42:50.124Z,,0,,,3135,completion,,,,,false,,,,417968,417968,414816,414812,414833,418000,8,400,,,
trial,html.Screen,4_61_0,2023-10-30T22:42:53.260Z,,0,2,,3120,response,ISIC_3814807.JPG,9,ISIC_0072768.JPG,ISIC_0072768.JPG,false,0,keypress(z),500,421104,421103,417983,417969,418000,421133,8,400,12,,ISIC_3814807.JPG
break,html.Screen,4_61_1,2023-10-30T22:42:53.261Z,,0,,,NaN,,,,,,false,,,,421105,421105,,421104,,421133,8,400,,,
break_continue,html.Screen,4_61_2,2023-10-30T22:42:53.261Z,,0,,,NaN,,,,,,false,,,,421105,421105,,421105,,421133,8,400,,,
sequence,flow.Sequence,4_61,2023-10-30T22:42:53.261Z,,0,,,3105,completion,,,,,false,,,,421105,421105,417983,417969,418000,421133,8,400,,,
trial,html.Screen,4_62_0,2023-10-30T22:42:57.034Z,,0,2,,3761,response,ISIC_4187627.JPG,1,ISIC_7997132.JPG,ISIC_4187627.JPG,false,1,keypress(m),500,424878,424877,421116,421105,421133,424899,8,400,13,,ISIC_7997132.JPG
break,html.Screen,4_62_1,2023-10-30T22:42:57.035Z,,0,,,NaN,,,,,,false,,,,424879,424879,,424878,,424899,8,400,,,
break_continue,html.Screen,4_62_2,2023-10-30T22:42:57.035Z,,0,,,NaN,,,,,,false,,,,424879,424879,,424879,,424899,8,400,,,
sequence,flow.Sequence,4_62,2023-10-30T22:42:57.035Z,,0,,,3746,completion,,,,,false,,,,424880,424879,421116,421105,421133,424899,8,400,,,
trial,html.Screen,4_63_0,2023-10-30T22:43:00.489Z,,0,2,,3450,response,ISIC_8935085.JPG,0,ISIC_0011798.JPG,ISIC_0011798.JPG,false,0,keypress(z),500,428333,428333,424883,424880,424899,428366,8,400,14,,ISIC_8935085.JPG
break,html.Screen,4_63_1,2023-10-30T22:43:00.491Z,,0,,,NaN,,,,,,false,,,,428335.00000000006,428334,,428334,,428366,8,400,,,
break_continue,html.Screen,4_63_2,2023-10-30T22:43:00.491Z,,0,,,NaN,,,,,,false,,,,428335.00000000006,428335.00000000006,,428335.00000000006,,428366,8,400,,,
sequence,flow.Sequence,4_63,2023-10-30T22:43:00.491Z,,0,,,3436.000000000058,completion,,,,,false,,,,428335.00000000006,428335.00000000006,424883,424880,424899,428366,8,400,,,
trial,html.Screen,4_64_0,2023-10-30T22:43:04.016Z,,0,2,,3510,response,ISIC_2776906.JPG,13,ISIC_2070595.JPG,ISIC_2776906.JPG,false,1,keypress(m),500,431861,431860,428350,428336,428366,431883,8,400,15,,ISIC_2070595.JPG
break,html.Screen,4_64_1,2023-10-30T22:43:04.018Z,,0,,,NaN,,,,,,false,,,,431862,431861,,431861,,431883,8,400,,,
break_continue,html.Screen,4_64_2,2023-10-30T22:43:04.018Z,,0,,,NaN,,,,,,false,,,,431862,431862,,431862,,431883,8,400,,,
sequence,flow.Sequence,4_64,2023-10-30T22:43:04.018Z,,0,,,3496,completion,,,,,false,,,,431862,431862,428350,428336,428366,431883,8,400,,,
trial,html.Screen,4_65_0,2023-10-30T22:43:07.232Z,,0,2,,3210,response,ISIC_9948815.JPG,3,ISIC_0032766.JPG,ISIC_9948815.JPG,false,1,keypress(m),500,435076,435076,431866,431862,431883,435100,8,400,16,,ISIC_0032766.JPG
break,html.Screen,4_65_1,2023-10-30T22:43:07.233Z,,0,,,NaN,,,,,,false,,,,435077,435077,,435076,,435100,8,400,,,
break_continue,html.Screen,4_65_2,2023-10-30T22:43:07.233Z,,0,,,NaN,,,,,,false,,,,435077,435077,,435077,,435100,8,400,,,
sequence,flow.Sequence,4_65,2023-10-30T22:43:07.233Z,,0,,,3194,completion,,,,,false,,,,435078.00000000006,435077,431866,431862,431883,435100,8,400,,,
trial,html.Screen,4_66_0,2023-10-30T22:43:10.430Z,,0,2,,3191,response,ISIC_0033122.JPG,4,ISIC_0014160.JPG,ISIC_0033122.JPG,false,1,keypress(m),500,438274,438274,435083,435078.00000000006,435100,438300,8,400,17,,ISIC_0014160.JPG
break,html.Screen,4_66_1,2023-10-30T22:43:10.431Z,,0,,,NaN,,,,,,false,,,,438275.00000000006,438275.00000000006,,438274,,438300,8,400,,,
break_continue,html.Screen,4_66_2,2023-10-30T22:43:10.432Z,,0,,,NaN,,,,,,false,,,,438276,438276,,438276,,438300,8,400,,,
sequence,flow.Sequence,4_66,2023-10-30T22:43:10.432Z,,0,,,3176,completion,,,,,false,,,,438276,438276,435083,435078.00000000006,435100,438300,8,400,,,
trial,html.Screen,4_67_0,2023-10-30T22:43:14.285Z,,0,2,,3846,response,ISIC_8493108.JPG,5,ISIC_0011956.JPG,ISIC_8493108.JPG,false,1,keypress(m),500,442129,442129,438283,438276,438300,442149,8,400,18,,ISIC_0011956.JPG
break,html.Screen,4_67_1,2023-10-30T22:43:14.286Z,,0,,,NaN,,,,,,false,,,,442131,442130,,442130,,442149,8,400,,,
break_continue,html.Screen,4_67_2,2023-10-30T22:43:14.287Z,,0,,,NaN,,,,,,false,,,,442131,442131,,442131,,442149,8,400,,,
sequence,flow.Sequence,4_67,2023-10-30T22:43:14.287Z,,0,,,3831,completion,,,,,false,,,,442131,442131,438283,438276,438300,442149,8,400,,,
trial,html.Screen,4_68_0,2023-10-30T22:43:18.942Z,,0,2,,4653,response,ISIC_8838753.JPG,4,ISIC_0339930.JPG,ISIC_0339930.JPG,false,0,keypress(z),500,446786,446786,442133,442131,442149,446816,8,400,19,,ISIC_8838753.JPG
break,html.Screen,4_68_1,2023-10-30T22:43:18.943Z,,0,,,NaN,,,,,,false,,,,446787.00000000006,446787.00000000006,,446786,,446816,8,400,,,
break_continue,html.Screen,4_68_2,2023-10-30T22:43:18.945Z,,0,,,NaN,,,,,,false,,,,446790,446789,,446789,,446816,8,400,,,
sequence,flow.Sequence,4_68,2023-10-30T22:43:18.945Z,,0,,,4640,completion,,,,,false,,,,446790,446789,442133,442131,442149,446816,8,400,,,
trial,html.Screen,4_69_0,2023-10-30T22:43:22.041Z,,0,2,,3084,response,ISIC_3529778.JPG,3,ISIC_0034253.JPG,ISIC_3529778.JPG,false,1,keypress(m),500,449885,449884,446800,446790,446816,449916,8,400,20,,ISIC_0034253.JPG
break,html.Screen,4_69_1,2023-10-30T22:43:22.042Z,,0,,,NaN,,,,,,false,,,,449886,449886,,449885,,449916,8,400,,,
break_continue,html.Screen,4_69_2,2023-10-30T22:43:22.042Z,,0,,,NaN,,,,,,false,,,,449887,449887,,449886,,449916,8,400,,,
sequence,flow.Sequence,4_69,2023-10-30T22:43:22.043Z,,0,,,3071,completion,,,,,false,,,,449887,449887,446800,446790,446816,449916,8,400,,,
trial,html.Screen,4_70_0,2023-10-30T22:43:26.342Z,,0,2,,4286.000000000058,response,ISIC_0030860.JPG,1,ISIC_0060446.JPG,ISIC_0030860.JPG,false,1,keypress(m),500,454186.00000000006,454186.00000000006,449900,449887,449916,454216,8,400,21,,ISIC_0060446.JPG
break,html.Screen,4_70_1,2023-10-30T22:43:26.343Z,,0,,,NaN,,,,,,false,,,,454187,454187,,454186.00000000006,,454216,8,400,,,
break_continue,html.Screen,4_70_2,2023-10-30T22:43:26.343Z,,0,,,NaN,,,,,,false,,,,454187,454187,,454187,,454216,8,400,,,
sequence,flow.Sequence,4_70,2023-10-30T22:43:26.343Z,,0,,,4271,completion,,,,,false,,,,454188,454187,449900,449887,449916,454216,8,400,,,
trial,html.Screen,4_71_0,2023-10-30T22:43:30.804Z,,0,2,,4449,response,ISIC_0060386.JPG,5,ISIC_0055742.JPG,ISIC_0060386.JPG,false,1,keypress(m),500,458649,458648,454199,454188,454216,458683,8,400,22,,ISIC_0055742.JPG
break,html.Screen,4_71_1,2023-10-30T22:43:30.806Z,,0,,,NaN,,,,,,false,,,,458650.00000000006,458649,,458649,,458683,8,400,,,
break_continue,html.Screen,4_71_2,2023-10-30T22:43:30.806Z,,0,,,NaN,,,,,,false,,,,458650.00000000006,458650.00000000006,,458650.00000000006,,458683,8,400,,,
sequence,flow.Sequence,4_71,2023-10-30T22:43:30.806Z,,0,,,4434.000000000058,completion,,,,,false,,,,458651,458650.00000000006,454199,454188,454216,458683,8,400,,,
trial,html.Screen,4_72_0,2023-10-30T22:43:33.798Z,,0,2,,2976,response,ISIC_3696488.JPG,1,ISIC_1383822.JPG,ISIC_1383822.JPG,false,0,keypress(z),500,461643,461642,458666,458651,458683,461666,8,400,23,,ISIC_3696488.JPG
break,html.Screen,4_72_1,2023-10-30T22:43:33.799Z,,0,,,NaN,,,,,,false,,,,461644,461643,,461643,,461666,8,400,,,
break_continue,html.Screen,4_72_2,2023-10-30T22:43:33.799Z,,0,,,NaN,,,,,,false,,,,461644,461644,,461644,,461666,8,400,,,
sequence,flow.Sequence,4_72,2023-10-30T22:43:33.800Z,,0,,,2961,completion,,,,,false,,,,461644,461644,458666,458651,458683,461666,8,400,,,
trial,html.Screen,4_73_0,2023-10-30T22:43:36.890Z,,0,2,,3085.000000000058,response,ISIC_1729351.JPG,7,ISIC_9014036.JPG,ISIC_9014036.JPG,false,0,keypress(z),500,464734.00000000006,464734.00000000006,461649,461644,461666,464766,8,400,24,,ISIC_1729351.JPG
break,html.Screen,4_73_1,2023-10-30T22:43:36.891Z,,0,,,NaN,,,,,,false,,,,464735,464735,,464734.00000000006,,464766,8,400,,,
break_continue,html.Screen,4_73_2,2023-10-30T22:43:36.891Z,,0,,,NaN,,,,,,false,,,,464735,464735,,464735,,464766,8,400,,,
sequence,flow.Sequence,4_73,2023-10-30T22:43:36.891Z,,0,,,3069,completion,,,,,false,,,,464735,464735,461649,461644,461666,464766,8,400,,,
trial,html.Screen,4_74_0,2023-10-30T22:43:40.196Z,,0,2,,3290,response,ISIC_1418304.JPG,4,ISIC_0011868.JPG,ISIC_1418304.JPG,false,1,keypress(m),500,468041,468040,464750,464736,464766,468066,8,400,25,,ISIC_0011868.JPG
break,html.Screen,4_74_1,2023-10-30T22:43:40.197Z,,0,,,NaN,,,,,,false,,,,468042.00000000006,468042.00000000006,,468041,,468066,8,400,,,
break_continue,html.Screen,4_74_2,2023-10-30T22:43:40.198Z,,0,,,NaN,,,,,,false,,,,468042.00000000006,468042.00000000006,,468042.00000000006,,468066,8,400,,,
sequence,flow.Sequence,4_74,2023-10-30T22:43:40.198Z,,0,,,3276.000000000058,completion,,,,,false,,,,468042.00000000006,468042.00000000006,464750,464736,464766,468066,8,400,,,
trial,html.Screen,4_75_0,2023-10-30T22:43:43.708Z,,0,2,,3503,response,ISIC_0000387.JPG,1,ISIC_0033071.JPG,ISIC_0000387.JPG,false,1,keypress(m),500,471553,471552,468049,468042.00000000006,468066,471582,8,400,26,,ISIC_0033071.JPG
break,html.Screen,4_75_1,2023-10-30T22:43:43.709Z,,0,,,NaN,,,,,,false,,,,471554.00000000006,471553,,471553,,471582,8,400,,,
break_continue,html.Screen,4_75_2,2023-10-30T22:43:43.710Z,,0,,,NaN,,,,,,false,,,,471554.00000000006,471554.00000000006,,471554.00000000006,,471582,8,400,,,
sequence,flow.Sequence,4_75,2023-10-30T22:43:43.710Z,,0,,,3488.000000000058,completion,,,,,false,,,,471554.00000000006,471554.00000000006,468049,468042.00000000006,468066,471582,8,400,,,
trial,html.Screen,4_76_0,2023-10-30T22:43:48.014Z,,0,2,,4291,response,ISIC_0654846.JPG,1,ISIC_3300710.JPG,ISIC_0654846.JPG,false,1,keypress(m),500,475858,475857,471566,471554.00000000006,471582,475883,8,400,27,,ISIC_3300710.JPG
break,html.Screen,4_76_1,2023-10-30T22:43:48.015Z,,0,,,NaN,,,,,,false,,,,475859.00000000006,475859.00000000006,,475858,,475883,8,400,,,
break_continue,html.Screen,4_76_2,2023-10-30T22:43:48.015Z,,0,,,NaN,,,,,,false,,,,475859.00000000006,475859.00000000006,,475859.00000000006,,475883,8,400,,,
sequence,flow.Sequence,4_76,2023-10-30T22:43:48.015Z,,0,,,4277.000000000058,completion,,,,,false,,,,475860,475859.00000000006,471566,471554.00000000006,471582,475883,8,400,,,
trial,html.Screen,4_77_0,2023-10-30T22:43:51.800Z,,0,2,,3778,response,ISIC_9080774.JPG,16,ISIC_2151846.JPG,ISIC_9080774.JPG,false,1,keypress(m),500,479644,479644,475866,475860,475883,479666,8,400,28,,ISIC_2151846.JPG
break,html.Screen,4_77_1,2023-10-30T22:43:51.801Z,,0,,,NaN,,,,,,false,,,,479645,479645,,479644,,479666,8,400,,,
break_continue,html.Screen,4_77_2,2023-10-30T22:43:51.801Z,,0,,,NaN,,,,,,false,,,,479645,479645,,479645,,479666,8,400,,,
sequence,flow.Sequence,4_77,2023-10-30T22:43:51.801Z,,0,,,3762,completion,,,,,false,,,,479646,479645,475866,475860,475883,479666,8,400,,,
trial,html.Screen,4_78_0,2023-10-30T22:43:54.711Z,,0,2,,2906,response,ISIC_9450906.JPG,15,ISIC_2153401.JPG,ISIC_2153401.JPG,false,0,keypress(z),500,482556,482555,479649,479646,479666,482583,8,400,29,,ISIC_9450906.JPG
break,html.Screen,4_78_1,2023-10-30T22:43:54.713Z,,0,,,NaN,,,,,,false,,,,482557,482557,,482556,,482583,8,400,,,
break_continue,html.Screen,4_78_2,2023-10-30T22:43:54.713Z,,0,,,NaN,,,,,,false,,,,482557,482557,,482557,,482583,8,400,,,
sequence,flow.Sequence,4_78,2023-10-30T22:43:54.713Z,,0,,,2891,completion,,,,,false,,,,482558,482557,479649,479646,479666,482583,8,400,,,
trial,html.Screen,4_79_0,2023-10-30T22:43:57.658Z,,0,2,,2936,response,ISIC_8727962.JPG,2,ISIC_8855102.JPG,ISIC_8727962.JPG,false,1,keypress(m),500,485502,485502,482566,482558,482583,485533,8,400,30,,ISIC_8855102.JPG
break,html.Screen,4_79_1,2023-10-30T22:43:57.659Z,,0,,,NaN,,,,,,false,,,,485503,485503,,485502,,485533,8,400,,,
break_continue,html.Screen,4_79_2,2023-10-30T22:43:57.659Z,,0,,,NaN,,,,,,false,,,,485503,485503,,485503,,485533,8,400,,,
sequence,flow.Sequence,4_79,2023-10-30T22:43:57.659Z,,0,,,2920,completion,,,,,false,,,,485503,485503,482566,482558,482583,485533,8,400,,,
trial,html.Screen,4_80_0,2023-10-30T22:44:00.587Z,,0,2,,2915,response,ISIC_0033025.JPG,13,ISIC_0073032.JPG,ISIC_0033025.JPG,false,1,keypress(m),500,488431,488431,485516,485503,485533,488466,8,400,31,,ISIC_0073032.JPG
break,html.Screen,4_80_1,2023-10-30T22:44:00.588Z,,0,,,NaN,,,,,,false,,,,488432,488432,,488431,,488466,8,400,,,
break_continue,html.Screen,4_80_2,2023-10-30T22:44:00.588Z,,0,,,NaN,,,,,,false,,,,488432,488432,,488432,,488466,8,400,,,
sequence,flow.Sequence,4_80,2023-10-30T22:44:00.588Z,,0,,,2899,completion,,,,,false,,,,488432,488432,485516,485503,485533,488466,8,400,,,
trial,html.Screen,4_81_0,2023-10-30T22:44:04.910Z,,0,2,,4305,response,ISIC_4705662.JPG,6,ISIC_0073032.JPG,ISIC_4705662.JPG,false,1,keypress(m),500,492755,492754,488449,488433,488466,492783,8,400,32,,ISIC_0073032.JPG
break,html.Screen,4_81_1,2023-10-30T22:44:04.911Z,,0,,,NaN,,,,,,false,,,,492756,492756,,492755,,492783,8,400,,,
break_continue,html.Screen,4_81_2,2023-10-30T22:44:04.912Z,,0,,,NaN,,,,,,false,,,,492756,492756,,492756,,492783,8,400,,,
sequence,flow.Sequence,4_81,2023-10-30T22:44:04.912Z,,0,,,4290,completion,,,,,false,,,,492756,492756,488449,488433,488466,492783,8,400,,,
trial,html.Screen,4_82_0,2023-10-30T22:44:08.498Z,,0,2,,3576,response,ISIC_6606767.JPG,2,ISIC_0060386.JPG,ISIC_0060386.JPG,false,0,keypress(z),500,496343,496342,492766,492756,492783,496366,8,400,33,,ISIC_6606767.JPG
break,html.Screen,4_82_1,2023-10-30T22:44:08.499Z,,0,,,NaN,,,,,,false,,,,496344,496343,,496343,,496366,8,400,,,
break_continue,html.Screen,4_82_2,2023-10-30T22:44:08.500Z,,0,,,NaN,,,,,,false,,,,496344,496344,,496344,,496366,8,400,,,
sequence,flow.Sequence,4_82,2023-10-30T22:44:08.500Z,,0,,,3561,completion,,,,,false,,,,496344,496344,492766,492756,492783,496366,8,400,,,
trial,html.Screen,4_83_0,2023-10-30T22:44:11.341Z,,0,2,,2836,response,ISIC_4680417.JPG,5,ISIC_4241907.JPG,ISIC_4241907.JPG,false,0,keypress(z),500,499185,499185,496349,496344,496366,499216,8,400,34,,ISIC_4680417.JPG
break,html.Screen,4_83_1,2023-10-30T22:44:11.342Z,,0,,,NaN,,,,,,false,,,,499186.00000000006,499186.00000000006,,499186.00000000006,,499216,8,400,,,
break_continue,html.Screen,4_83_2,2023-10-30T22:44:11.342Z,,0,,,NaN,,,,,,false,,,,499186.00000000006,499186.00000000006,,499186.00000000006,,499216,8,400,,,
sequence,flow.Sequence,4_83,2023-10-30T22:44:11.342Z,,0,,,2820.000000000058,completion,,,,,false,,,,499187,499186.00000000006,496349,496344,496366,499216,8,400,,,
trial,html.Screen,4_84_0,2023-10-30T22:44:14.830Z,,0,2,,3475.000000000058,response,ISIC_0830217.JPG,6,ISIC_2126575.JPG,ISIC_0830217.JPG,false,1,keypress(m),500,502674.00000000006,502674.00000000006,499199,499187,499216,502699,8,400,35,,ISIC_2126575.JPG
break,html.Screen,4_84_1,2023-10-30T22:44:14.831Z,,0,,,NaN,,,,,,false,,,,502676,502675,,502675,,502699,8,400,,,
break_continue,html.Screen,4_84_2,2023-10-30T22:44:14.831Z,,0,,,NaN,,,,,,false,,,,502676,502676,,502676,,502699,8,400,,,
sequence,flow.Sequence,4_84,2023-10-30T22:44:14.832Z,,0,,,3460,completion,,,,,false,,,,502676,502676,499199,499187,499216,502699,8,400,,,
trial,html.Screen,4_85_0,2023-10-30T22:44:17.790Z,,0,2,,2951,response,ISIC_6635699.JPG,7,ISIC_0069475.JPG,ISIC_6635699.JPG,false,1,keypress(m),500,505635,505634,502683,502676,502699,505666,8,400,36,,ISIC_0069475.JPG
break,html.Screen,4_85_1,2023-10-30T22:44:17.792Z,,0,,,NaN,,,,,,false,,,,505636,505636,,505635,,505666,8,400,,,
break_continue,html.Screen,4_85_2,2023-10-30T22:44:17.792Z,,0,,,NaN,,,,,,false,,,,505636,505636,,505636,,505666,8,400,,,
sequence,flow.Sequence,4_85,2023-10-30T22:44:17.792Z,,0,,,2937,completion,,,,,false,,,,505637,505636,502683,502676,502699,505666,8,400,,,
trial,html.Screen,4_86_0,2023-10-30T22:44:21.300Z,,0,2,,3495,response,ISIC_0032699.JPG,11,ISIC_8806357.JPG,ISIC_8806357.JPG,false,0,keypress(z),500,509145.00000000006,509144,505649,505637,505666,509166,8,400,37,,ISIC_0032699.JPG
break,html.Screen,4_86_1,2023-10-30T22:44:21.302Z,,0,,,NaN,,,,,,false,,,,509146,509146,,509145.00000000006,,509166,8,400,,,
break_continue,html.Screen,4_86_2,2023-10-30T22:44:21.302Z,,0,,,NaN,,,,,,false,,,,509147,509146,,509146,,509166,8,400,,,
sequence,flow.Sequence,4_86,2023-10-30T22:44:21.302Z,,0,,,3480,completion,,,,,false,,,,509147,509146,505649,505637,505666,509166,8,400,,,
trial,html.Screen,4_87_0,2023-10-30T22:44:26.146Z,,0,2,,4841,response,ISIC_0001480.JPG,4,ISIC_7491389.JPG,ISIC_0001480.JPG,false,1,keypress(m),500,513990,513990,509149,509147,509166,514016,8,400,38,,ISIC_7491389.JPG
break,html.Screen,4_87_1,2023-10-30T22:44:26.147Z,,0,,,NaN,,,,,,false,,,,513991,513991,,513991,,514016,8,400,,,
break_continue,html.Screen,4_87_2,2023-10-30T22:44:26.147Z,,0,,,NaN,,,,,,false,,,,513991.99999999994,513991.99999999994,,513991.99999999994,,514016,8,400,,,
sequence,flow.Sequence,4_87,2023-10-30T22:44:26.148Z,,0,,,4825.999999999942,completion,,,,,false,,,,513991.99999999994,513991.99999999994,509149,509147,509166,514016,8,400,,,
trial,html.Screen,4_88_0,2023-10-30T22:44:28.990Z,,0,2,,2835.000000000058,response,ISIC_5258657.JPG,4,ISIC_0068153.JPG,ISIC_5258657.JPG,false,1,keypress(m),500,516835.00000000006,516834.00000000006,513999,513991.99999999994,514016,516866,8,400,39,,ISIC_0068153.JPG
break,html.Screen,4_88_1,2023-10-30T22:44:28.992Z,,0,,,NaN,,,,,,false,,,,516836,516836,,516835.00000000006,,516866,8,400,,,
break_continue,html.Screen,4_88_2,2023-10-30T22:44:28.992Z,,0,,,NaN,,,,,,false,,,,516837,516837,,516837,,516866,8,400,,,
sequence,flow.Sequence,4_88,2023-10-30T22:44:28.993Z,,0,,,2821,completion,,,,,false,,,,516837,516837,513999,513991.99999999994,514016,516866,8,400,,,
trial,html.Screen,4_89_0,2023-10-30T22:44:31.744Z,,0,2,,2738.999999999942,response,ISIC_0011484.JPG,1,ISIC_0013844.JPG,ISIC_0013844.JPG,false,0,keypress(z),500,519587.99999999994,519587.99999999994,516849,516837,516866,519616,8,400,40,,ISIC_0011484.JPG
break,html.Screen,4_89_1,2023-10-30T22:44:31.745Z,,0,,,NaN,,,,,,false,,,,519589.00000000006,519589.00000000006,,519589.00000000006,,519616,8,400,,,
break_continue,html.Screen,4_89_2,2023-10-30T22:44:31.745Z,,0,,,NaN,,,,,,false,,,,519590.00000000006,519589.00000000006,,519589.00000000006,,519616,8,400,,,
sequence,flow.Sequence,4_89,2023-10-30T22:44:31.745Z,,0,,,2723.000000000058,completion,,,,,false,,,,519590.00000000006,519589.00000000006,516849,516837,516866,519616,8,400,,,
trial,html.Screen,4_90_0,2023-10-30T22:44:34.415Z,,0,2,,2659.000000000058,response,ISIC_0073227.JPG,1,ISIC_0002258.JPG,ISIC_0002258.JPG,false,0,keypress(z),500,522259,522258.00000000006,519599,519590.00000000006,519616,522282,8,400,41,,ISIC_0073227.JPG
break,html.Screen,4_90_1,2023-10-30T22:44:34.416Z,,0,,,NaN,,,,,,false,,,,522260,522260,,522259,,522282,8,400,,,
break_continue,html.Screen,4_90_2,2023-10-30T22:44:34.416Z,,0,,,NaN,,,,,,false,,,,522260,522260,,522260,,522282,8,400,,,
sequence,flow.Sequence,4_90,2023-10-30T22:44:34.416Z,,0,,,2644,completion,,,,,false,,,,522260,522260,519599,519590.00000000006,519616,522282,8,400,,,
trial,html.Screen,4_91_0,2023-10-30T22:44:37.803Z,,0,2,,3381,response,ISIC_0032993.JPG,2,ISIC_0034002.JPG,ISIC_0032993.JPG,false,1,keypress(m),500,525647,525647,522266,522260.99999999994,522282,525683,8,400,42,,ISIC_0034002.JPG
break,html.Screen,4_91_1,2023-10-30T22:44:37.804Z,,0,,,NaN,,,,,,false,,,,525648,525648,,525648,,525683,8,400,,,
break_continue,html.Screen,4_91_2,2023-10-30T22:44:37.804Z,,0,,,NaN,,,,,,false,,,,525649,525649,,525649,,525683,8,400,,,
sequence,flow.Sequence,4_91,2023-10-30T22:44:37.805Z,,0,,,3367,completion,,,,,false,,,,525649,525649,522266,522260,522282,525683,8,400,,,
trial,html.Screen,4_92_0,2023-10-30T22:44:40.954Z,,0,2,,3133,response,ISIC_4055833.JPG,4,ISIC_1937197.JPG,ISIC_4055833.JPG,false,1,keypress(m),500,528799,528798,525665,525649,525683,528833,8,400,43,,ISIC_1937197.JPG
break,html.Screen,4_92_1,2023-10-30T22:44:40.955Z,,0,,,NaN,,,,,,false,,,,528800,528800,,528799,,528833,8,400,,,
break_continue,html.Screen,4_92_2,2023-10-30T22:44:40.956Z,,0,,,NaN,,,,,,false,,,,528800,528800,,528800,,528833,8,400,,,
sequence,flow.Sequence,4_92,2023-10-30T22:44:40.956Z,,0,,,3117,completion,,,,,false,,,,528800,528800,525665,525649,525683,528833,8,400,,,
trial,html.Screen,4_93_0,2023-10-30T22:44:43.451Z,,0,2,,2479,response,ISIC_0003333.JPG,8,ISIC_0033216.JPG,ISIC_0003333.JPG,false,1,keypress(m),500,531296,531295,528816,528800,528833,531333,8,400,44,,ISIC_0033216.JPG
break,html.Screen,4_93_1,2023-10-30T22:44:43.452Z,,0,,,NaN,,,,,,false,,,,531297,531297,,531296,,531333,8,400,,,
break_continue,html.Screen,4_93_2,2023-10-30T22:44:43.452Z,,0,,,NaN,,,,,,false,,,,531297,531297,,531297,,531333,8,400,,,
sequence,flow.Sequence,4_93,2023-10-30T22:44:43.452Z,,0,,,2464,completion,,,,,false,,,,531297,531297,528816,528800,528833,531333,8,400,,,
trial,html.Screen,4_94_0,2023-10-30T22:44:46.422Z,,0,2,,2950,response,ISIC_0028859.JPG,3,ISIC_2707664.JPG,ISIC_2707664.JPG,false,0,keypress(z),500,534266,534266,531316,531297,531333,534299,8,400,45,,ISIC_0028859.JPG
break,html.Screen,4_94_1,2023-10-30T22:44:46.423Z,,0,,,NaN,,,,,,false,,,,534267,534267,,534267,,534299,8,400,,,
break_continue,html.Screen,4_94_2,2023-10-30T22:44:46.423Z,,0,,,NaN,,,,,,false,,,,534268,534268,,534267,,534299,8,400,,,
sequence,flow.Sequence,4_94,2023-10-30T22:44:46.423Z,,0,,,2935,completion,,,,,false,,,,534268,534268,531316,531297,531333,534299,8,400,,,
trial,html.Screen,4_95_0,2023-10-30T22:44:50.448Z,,0,2,,4009,response,ISIC_8603734.JPG,16,ISIC_4926448.JPG,ISIC_4926448.JPG,false,0,keypress(z),500,538293,538292,534283,534268,534299,538316,8,400,46,,ISIC_8603734.JPG
break,html.Screen,4_95_1,2023-10-30T22:44:50.449Z,,0,,,NaN,,,,,,false,,,,538294,538294,,538293,,538316,8,400,,,
break_continue,html.Screen,4_95_2,2023-10-30T22:44:50.450Z,,0,,,NaN,,,,,,false,,,,538294,538294,,538294,,538316,8,400,,,
sequence,flow.Sequence,4_95,2023-10-30T22:44:50.450Z,,0,,,3995,completion,,,,,false,,,,538294,538294,534283,534268,534299,538316,8,400,,,
trial,html.Screen,4_96_0,2023-10-30T22:44:53.896Z,,0,2,,3441,response,ISIC_1650523.JPG,5,ISIC_0063745.JPG,ISIC_0063745.JPG,false,0,keypress(z),500,541741,541740,538299,538295,538316,541766,8,400,47,,ISIC_1650523.JPG
break,html.Screen,4_96_1,2023-10-30T22:44:53.897Z,,0,,,NaN,,,,,,false,,,,541742,541741,,541741,,541766,8,400,,,
break_continue,html.Screen,4_96_2,2023-10-30T22:44:53.897Z,,0,,,NaN,,,,,,false,,,,541742,541742,,541742,,541766,8,400,,,
sequence,flow.Sequence,4_96,2023-10-30T22:44:53.898Z,,0,,,3426,completion,,,,,false,,,,541742,541742,538299,538294,538316,541766,8,400,,,
trial,html.Screen,4_97_0,2023-10-30T22:44:57.166Z,,0,2,,3261,response,ISIC_0027901.JPG,2,ISIC_0055289.JPG,ISIC_0027901.JPG,false,1,keypress(m),500,545011,545010,541749,541742,541766,545033,8,400,48,,ISIC_0055289.JPG
break,html.Screen,4_97_1,2023-10-30T22:44:57.167Z,,0,,,NaN,,,,,,false,,,,545012,545011,,545011,,545033,8,400,,,
break_continue,html.Screen,4_97_2,2023-10-30T22:44:57.168Z,,0,,,NaN,,,,,,false,,,,545012,545012,,545012,,545033,8,400,,,
sequence,flow.Sequence,4_97,2023-10-30T22:44:57.168Z,,0,,,3246,completion,,,,,false,,,,545012,545012,541749,541742,541766,545033,8,400,,,
trial,html.Screen,4_98_0,2023-10-30T22:45:01.095Z,,0,2,,3924,response,ISIC_0069891.JPG,16,ISIC_0000304.JPG,ISIC_0000304.JPG,false,0,keypress(z),500,548940,548939,545015,545013,545033,548966,8,400,49,,ISIC_0069891.JPG
break,html.Screen,4_98_1,2023-10-30T22:45:01.096Z,,0,,,NaN,,,,,,false,,,,548941,548941,,548940,,548966,8,400,,,
break_continue,html.Screen,4_98_2,2023-10-30T22:45:01.097Z,,0,,,NaN,,,,,,false,,,,548941,548941,,548941,,548966,8,400,,,
sequence,flow.Sequence,4_98,2023-10-30T22:45:01.097Z,,0,,,3908,completion,,,,,false,,,,548942,548941,545015,545013,545033,548966,8,400,,,
trial,html.Screen,4_99_0,2023-10-30T22:45:03.903Z,,0,2,,2798,response,ISIC_0026756.JPG,3,ISIC_5406677.JPG,ISIC_0026756.JPG,false,1,keypress(m),500,551747,551747,548949,548942,548966,551766,8,400,50,,ISIC_5406677.JPG
break,html.Screen,4_99_1,2023-10-30T22:45:13.905Z,,0,,,10000,timeout,,,,,false,,,,561750,561749,551750,551748,551766,561766,8,400,,,
break_continue,html.Screen,4_99_2,2023-10-30T22:45:15.105Z,,0,,,1196,response,,,,,false,continue,keypress(Space),,562950,562945,561749,561750,561766,562982,8,400,,,
sequence,flow.Sequence,4_99,2023-10-30T22:45:15.106Z,,0,,,13979,completion,,,,,false,,,,562950,562945,548949,548942,548966,562982,8,400,,,
trial,html.Screen,4_100_0,2023-10-30T22:45:18.291Z,,0,3,,3169,response,ISIC_8562820.JPG,8,ISIC_8796968.JPG,ISIC_8796968.JPG,false,0,keypress(z),500,566136,566135,562966,562950,562982,566166,8,400,1,,ISIC_8562820.JPG
break,html.Screen,4_100_1,2023-10-30T22:45:18.292Z,,0,,,NaN,,,,,,false,,,,566137,566136,,566136,,566166,8,400,,,
break_continue,html.Screen,4_100_2,2023-10-30T22:45:18.292Z,,0,,,NaN,,,,,,false,,,,566137,566137,,566137,,566166,8,400,,,
sequence,flow.Sequence,4_100,2023-10-30T22:45:18.292Z,,0,,,3155,completion,,,,,false,,,,566137,566137,562966,562950,562982,566166,8,400,,,
trial,html.Screen,4_101_0,2023-10-30T22:45:21.713Z,,0,3,,3408,response,ISIC_0025941.JPG,6,ISIC_0032699.JPG,ISIC_0025941.JPG,false,1,keypress(m),500,569558,569557,566149,566137,566166,569582,8,400,2,,ISIC_0032699.JPG
break,html.Screen,4_101_1,2023-10-30T22:45:21.714Z,,0,,,NaN,,,,,,false,,,,569559,569559,,569558,,569582,8,400,,,
break_continue,html.Screen,4_101_2,2023-10-30T22:45:21.715Z,,0,,,NaN,,,,,,false,,,,569559,569559,,569559,,569582,8,400,,,
sequence,flow.Sequence,4_101,2023-10-30T22:45:21.715Z,,0,,,3393,completion,,,,,false,,,,569560.0000000001,569559,566149,566137,566166,569582,8,400,,,
trial,html.Screen,4_102_0,2023-10-30T22:45:24.392Z,,0,3,,2670,response,ISIC_4745475.JPG,5,ISIC_0032197.JPG,ISIC_4745475.JPG,false,1,keypress(m),500,572237,572236,569566,569560.0000000001,569582,572266,8,400,3,,ISIC_0032197.JPG
break,html.Screen,4_102_1,2023-10-30T22:45:24.393Z,,0,,,NaN,,,,,,false,,,,572237,572237,,572237,,572266,8,400,,,
break_continue,html.Screen,4_102_2,2023-10-30T22:45:24.393Z,,0,,,NaN,,,,,,false,,,,572238,572238,,572238,,572266,8,400,,,
sequence,flow.Sequence,4_102,2023-10-30T22:45:24.393Z,,0,,,2656,completion,,,,,false,,,,572238,572238,569566,569560.0000000001,569582,572266,8,400,,,
trial,html.Screen,4_103_0,2023-10-30T22:45:28.271Z,,0,3,,3866,response,ISIC_3319229.JPG,2,ISIC_6913272.JPG,ISIC_6913272.JPG,false,0,keypress(z),500,576116,576115,572249,572238,572266,576132,8,400,4,,ISIC_3319229.JPG
break,html.Screen,4_103_1,2023-10-30T22:45:28.272Z,,0,,,NaN,,,,,,false,,,,576116,576116,,576116,,576132,8,400,,,
break_continue,html.Screen,4_103_2,2023-10-30T22:45:28.272Z,,0,,,NaN,,,,,,false,,,,576117,576117,,576117,,576132,8,400,,,
sequence,flow.Sequence,4_103,2023-10-30T22:45:28.272Z,,0,,,3851,completion,,,,,false,,,,576117,576117,572249,572238,572266,576132,8,400,,,
trial,html.Screen,4_104_0,2023-10-30T22:45:31.945Z,,0,3,,3670,response,ISIC_6038490.JPG,3,ISIC_9406755.JPG,ISIC_6038490.JPG,false,1,keypress(m),500,579790,579789,576119,576117,576132,579815,8,400,5,,ISIC_9406755.JPG
break,html.Screen,4_104_1,2023-10-30T22:45:31.946Z,,0,,,NaN,,,,,,false,,,,579791,579791,,579790,,579815,8,400,,,
break_continue,html.Screen,4_104_2,2023-10-30T22:45:31.946Z,,0,,,NaN,,,,,,false,,,,579791,579791,,579791,,579815,8,400,,,
sequence,flow.Sequence,4_104,2023-10-30T22:45:31.947Z,,0,,,3659,completion,,,,,false,,,,579791,579791,576119,576117,576132,579815,8,400,,,
trial,html.Screen,4_105_0,2023-10-30T22:45:34.874Z,,0,3,,2919,response,ISIC_0022328.JPG,4,ISIC_0032383.JPG,ISIC_0032383.JPG,false,0,keypress(z),500,582719,582718,579799,579791,579815,582748,8,400,6,,ISIC_0022328.JPG
break,html.Screen,4_105_1,2023-10-30T22:45:34.875Z,,0,,,NaN,,,,,,false,,,,582719,582719,,582719,,582748,8,400,,,
break_continue,html.Screen,4_105_2,2023-10-30T22:45:34.875Z,,0,,,NaN,,,,,,false,,,,582720,582720,,582720,,582748,8,400,,,
sequence,flow.Sequence,4_105,2023-10-30T22:45:34.875Z,,0,,,2905,completion,,,,,false,,,,582720,582720,579799,579791,579815,582748,8,400,,,
trial,html.Screen,4_106_0,2023-10-30T22:45:37.210Z,,0,3,,2322,response,ISIC_2396791.JPG,2,ISIC_6697013.JPG,ISIC_6697013.JPG,false,0,keypress(z),500,585055.0000000001,585054,582732,582720,582748,585082,8,400,7,,ISIC_2396791.JPG
break,html.Screen,4_106_1,2023-10-30T22:45:37.211Z,,0,,,NaN,,,,,,false,,,,585055.0000000001,585055.0000000001,,585055.0000000001,,585082,8,400,,,
break_continue,html.Screen,4_106_2,2023-10-30T22:45:37.211Z,,0,,,NaN,,,,,,false,,,,585056,585056,,585055.0000000001,,585082,8,400,,,
sequence,flow.Sequence,4_106,2023-10-30T22:45:37.211Z,,0,,,2308,completion,,,,,false,,,,585056,585056,582732,582720,582748,585082,8,400,,,
trial,html.Screen,4_107_0,2023-10-30T22:45:39.591Z,,0,3,,2370,response,ISIC_0024423.JPG,15,ISIC_0878793.JPG,ISIC_0024423.JPG,false,1,keypress(m),500,587436,587436,585066,585056,585082,587466,8,400,8,,ISIC_0878793.JPG
break,html.Screen,4_107_1,2023-10-30T22:45:39.592Z,,0,,,NaN,,,,,,false,,,,587437,587437,,587436,,587466,8,400,,,
break_continue,html.Screen,4_107_2,2023-10-30T22:45:39.593Z,,0,,,NaN,,,,,,false,,,,587438,587437,,587437,,587466,8,400,,,
sequence,flow.Sequence,4_107,2023-10-30T22:45:39.593Z,,0,,,2355,completion,,,,,false,,,,587438,587437,585066,585056,585082,587466,8,400,,,
trial,html.Screen,4_108_0,2023-10-30T22:45:42.095Z,,0,3,,2491,response,ISIC_0056164.JPG,3,ISIC_7947847.JPG,ISIC_0056164.JPG,false,1,keypress(m),500,589940,589940,587449,587438,587466,589965,8,400,9,,ISIC_7947847.JPG
break,html.Screen,4_108_1,2023-10-30T22:45:42.096Z,,0,,,NaN,,,,,,false,,,,589941,589941,,589940,,589965,8,400,,,
break_continue,html.Screen,4_108_2,2023-10-30T22:45:42.096Z,,0,,,NaN,,,,,,false,,,,589941,589941,,589941,,589965,8,400,,,
sequence,flow.Sequence,4_108,2023-10-30T22:45:42.096Z,,0,,,2475,completion,,,,,false,,,,589941,589941,587449,587438,587466,589965,8,400,,,
trial,html.Screen,4_109_0,2023-10-30T22:45:44.831Z,,0,3,,2726.0000000001164,response,ISIC_3212050.JPG,14,ISIC_0013365.JPG,ISIC_0013365.JPG,false,0,keypress(z),500,592676,592675.0000000001,589949,589941,589965,592699,8,400,10,,ISIC_3212050.JPG
break,html.Screen,4_109_1,2023-10-30T22:45:44.832Z,,0,,,NaN,,,,,,false,,,,592677,592676,,592676,,592699,8,400,,,
break_continue,html.Screen,4_109_2,2023-10-30T22:45:44.832Z,,0,,,NaN,,,,,,false,,,,592677,592677,,592677,,592699,8,400,,,
sequence,flow.Sequence,4_109,2023-10-30T22:45:44.832Z,,0,,,2712,completion,,,,,false,,,,592677,592677,589949,589941,589965,592699,8,400,,,
trial,html.Screen,4_110_0,2023-10-30T22:45:47.245Z,,0,3,,2407,response,ISIC_1343302.JPG,5,ISIC_0010034.JPG,ISIC_1343302.JPG,false,1,keypress(m),500,595090,595089,592682,592677,592699,595115,8,400,11,,ISIC_0010034.JPG
break,html.Screen,4_110_1,2023-10-30T22:45:47.246Z,,0,,,NaN,,,,,,false,,,,595091,595090,,595090,,595115,8,400,,,
break_continue,html.Screen,4_110_2,2023-10-30T22:45:47.246Z,,0,,,NaN,,,,,,false,,,,595091,595091,,595091,,595115,8,400,,,
sequence,flow.Sequence,4_110,2023-10-30T22:45:47.247Z,,0,,,2392,completion,,,,,false,,,,595091,595091,592682,592677,592699,595115,8,400,,,
trial,html.Screen,4_111_0,2023-10-30T22:45:50.179Z,,0,3,,2924,response,ISIC_7205745.JPG,0,ISIC_7288818.JPG,ISIC_7288818.JPG,false,0,keypress(z),500,598024,598023,595099,595091,595115,598049,8,400,12,,ISIC_7205745.JPG
break,html.Screen,4_111_1,2023-10-30T22:45:50.180Z,,0,,,NaN,,,,,,false,,,,598025,598025,,598024,,598049,8,400,,,
break_continue,html.Screen,4_111_2,2023-10-30T22:45:50.181Z,,0,,,NaN,,,,,,false,,,,598025,598025,,598025,,598049,8,400,,,
sequence,flow.Sequence,4_111,2023-10-30T22:45:50.181Z,,0,,,2910,completion,,,,,false,,,,598025,598025,595099,595091,595115,598049,8,400,,,
trial,html.Screen,4_112_0,2023-10-30T22:45:53.469Z,,0,3,,3281,response,ISIC_0062827.JPG,5,ISIC_0014832.JPG,ISIC_0014832.JPG,false,0,keypress(z),500,601314,601313,598032,598026.0000000001,598049,601349,8,400,13,,ISIC_0062827.JPG
break,html.Screen,4_112_1,2023-10-30T22:45:53.470Z,,0,,,NaN,,,,,,false,,,,601315,601314,,601314,,601349,8,400,,,
break_continue,html.Screen,4_112_2,2023-10-30T22:45:53.470Z,,0,,,NaN,,,,,,false,,,,601315,601315,,601315,,601349,8,400,,,
sequence,flow.Sequence,4_112,2023-10-30T22:45:53.471Z,,0,,,3266,completion,,,,,false,,,,601315,601315,598032,598025,598049,601349,8,400,,,
trial,html.Screen,4_113_0,2023-10-30T22:45:57.313Z,,0,3,,3825,response,ISIC_0000072.JPG,2,ISIC_0068314.JPG,ISIC_0000072.JPG,false,1,keypress(m),500,605158,605157,601332,601315,601349,605182,8,400,14,,ISIC_0068314.JPG
break,html.Screen,4_113_1,2023-10-30T22:45:57.314Z,,0,,,NaN,,,,,,false,,,,605159,605159,,605158,,605182,8,400,,,
break_continue,html.Screen,4_113_2,2023-10-30T22:45:57.315Z,,0,,,NaN,,,,,,false,,,,605159,605159,,605159,,605182,8,400,,,
sequence,flow.Sequence,4_113,2023-10-30T22:45:57.315Z,,0,,,3810,completion,,,,,false,,,,605159,605159,601332,601315,601349,605182,8,400,,,
trial,html.Screen,4_114_0,2023-10-30T22:46:00.672Z,,0,3,,3350,response,ISIC_0024306.JPG,4,ISIC_1795529.JPG,ISIC_0024306.JPG,false,1,keypress(m),500,608517,608516,605166,605160,605182,608549,8,400,15,,ISIC_1795529.JPG
break,html.Screen,4_114_1,2023-10-30T22:46:00.673Z,,0,,,NaN,,,,,,false,,,,608518,608518,,608517,,608549,8,400,,,
break_continue,html.Screen,4_114_2,2023-10-30T22:46:00.674Z,,0,,,NaN,,,,,,false,,,,608518,608518,,608518,,608549,8,400,,,
sequence,flow.Sequence,4_114,2023-10-30T22:46:00.674Z,,0,,,3336,completion,,,,,false,,,,608518,608518,605166,605160,605182,608549,8,400,,,
trial,html.Screen,4_115_0,2023-10-30T22:46:03.888Z,,0,3,,3200,response,ISIC_0031800.JPG,1,ISIC_0057753.JPG,ISIC_0057753.JPG,false,0,keypress(z),500,611732,611732,608532,608519,608549,611766,8,400,16,,ISIC_0031800.JPG
break,html.Screen,4_115_1,2023-10-30T22:46:03.889Z,,0,,,NaN,,,,,,false,,,,611733.0000000001,611733.0000000001,,611733.0000000001,,611766,8,400,,,
break_continue,html.Screen,4_115_2,2023-10-30T22:46:03.889Z,,0,,,NaN,,,,,,false,,,,611734,611733.0000000001,,611733.0000000001,,611766,8,400,,,
sequence,flow.Sequence,4_115,2023-10-30T22:46:03.889Z,,0,,,3184.0000000001164,completion,,,,,false,,,,611734,611733.0000000001,608532,608518,608549,611766,8,400,,,
trial,html.Screen,4_116_0,2023-10-30T22:46:07.119Z,,0,3,,3214,response,ISIC_0062133.JPG,5,ISIC_5008399.JPG,ISIC_5008399.JPG,false,0,keypress(z),500,614964,614963,611749,611734,611766,614998,8,400,17,,ISIC_0062133.JPG
break,html.Screen,4_116_1,2023-10-30T22:46:07.120Z,,0,,,NaN,,,,,,false,,,,614965,614965,,614964,,614998,8,400,,,
break_continue,html.Screen,4_116_2,2023-10-30T22:46:07.120Z,,0,,,NaN,,,,,,false,,,,614965,614965,,614965,,614998,8,400,,,
sequence,flow.Sequence,4_116,2023-10-30T22:46:07.121Z,,0,,,3199,completion,,,,,false,,,,614965,614965,611749,611734,611766,614998,8,400,,,
trial,html.Screen,4_117_0,2023-10-30T22:46:10.889Z,,0,3,,3751,response,ISIC_1436929.JPG,14,ISIC_0014093.JPG,ISIC_1436929.JPG,false,1,keypress(m),500,618734,618734,614983,614966,614998,618766,8,400,18,,ISIC_0014093.JPG
break,html.Screen,4_117_1,2023-10-30T22:46:10.890Z,,0,,,NaN,,,,,,false,,,,618735,618735,,618734,,618766,8,400,,,
break_continue,html.Screen,4_117_2,2023-10-30T22:46:10.891Z,,0,,,NaN,,,,,,false,,,,618736,618736,,618735,,618766,8,400,,,
sequence,flow.Sequence,4_117,2023-10-30T22:46:10.891Z,,0,,,3738,completion,,,,,false,,,,618736,618736,614983,614966,614998,618766,8,400,,,
trial,html.Screen,4_118_0,2023-10-30T22:46:14.195Z,,0,3,,3291,response,ISIC_0008251.JPG,4,ISIC_2291059.JPG,ISIC_2291059.JPG,false,0,keypress(z),500,622040,622040,618749,618736,618766,622066,8,400,19,,ISIC_0008251.JPG
break,html.Screen,4_118_1,2023-10-30T22:46:14.197Z,,0,,,NaN,,,,,,false,,,,622041,622041,,622040,,622066,8,400,,,
break_continue,html.Screen,4_118_2,2023-10-30T22:46:14.197Z,,0,,,NaN,,,,,,false,,,,622042,622042,,622041,,622066,8,400,,,
sequence,flow.Sequence,4_118,2023-10-30T22:46:14.197Z,,0,,,3276,completion,,,,,false,,,,622042,622042,618749,618736,618766,622066,8,400,,,
trial,html.Screen,4_119_0,2023-10-30T22:46:17.295Z,,0,3,,3091,response,ISIC_4518384.JPG,4,ISIC_0030660.JPG,ISIC_0030660.JPG,false,0,keypress(z),500,625140,625140,622049,622042,622066,625166,8,400,20,,ISIC_4518384.JPG
break,html.Screen,4_119_1,2023-10-30T22:46:17.296Z,,0,,,NaN,,,,,,false,,,,625141,625141,,625140,,625166,8,400,,,
break_continue,html.Screen,4_119_2,2023-10-30T22:46:17.296Z,,0,,,NaN,,,,,,false,,,,625141,625141,,625141,,625166,8,400,,,
sequence,flow.Sequence,4_119,2023-10-30T22:46:17.297Z,,0,,,3075,completion,,,,,false,,,,625141,625141,622049,622042,622066,625166,8,400,,,
trial,html.Screen,4_120_0,2023-10-30T22:46:21.393Z,,0,3,,4088,response,ISIC_0073044.JPG,1,ISIC_0024292.JPG,ISIC_0024292.JPG,false,0,keypress(z),500,629237,629237,625149,625142,625166,629266,8,400,21,,ISIC_0073044.JPG
break,html.Screen,4_120_1,2023-10-30T22:46:21.393Z,,0,,,NaN,,,,,,false,,,,629238,629238,,629238,,629266,8,400,,,
break_continue,html.Screen,4_120_2,2023-10-30T22:46:21.394Z,,0,,,NaN,,,,,,false,,,,629238,629238,,629238,,629266,8,400,,,
sequence,flow.Sequence,4_120,2023-10-30T22:46:21.394Z,,0,,,4072,completion,,,,,false,,,,629239,629238,625149,625141,625166,629266,8,400,,,
trial,html.Screen,4_121_0,2023-10-30T22:46:25.116Z,,0,3,,3712,response,ISIC_0063070.JPG,4,ISIC_4259290.JPG,ISIC_4259290.JPG,false,0,keypress(z),500,632961,632961,629249,629239,629266,632982,8,400,22,,ISIC_0063070.JPG
break,html.Screen,4_121_1,2023-10-30T22:46:25.117Z,,0,,,NaN,,,,,,false,,,,632962,632962,,632961,,632982,8,400,,,
break_continue,html.Screen,4_121_2,2023-10-30T22:46:25.118Z,,0,,,NaN,,,,,,false,,,,632962,632962,,632962,,632982,8,400,,,
sequence,flow.Sequence,4_121,2023-10-30T22:46:25.118Z,,0,,,3696,completion,,,,,false,,,,632963,632962,629249,629239,629266,632982,8,400,,,
trial,html.Screen,4_122_0,2023-10-30T22:46:28.540Z,,0,3,,3419,response,ISIC_0011627.JPG,2,ISIC_8008242.JPG,ISIC_0011627.JPG,false,1,keypress(m),500,636385,636384,632965,632963,632982,636416,8,400,23,,ISIC_8008242.JPG
break,html.Screen,4_122_1,2023-10-30T22:46:28.541Z,,0,,,NaN,,,,,,false,,,,636386,636386,,636385,,636416,8,400,,,
break_continue,html.Screen,4_122_2,2023-10-30T22:46:28.542Z,,0,,,NaN,,,,,,false,,,,636387,636387,,636386,,636416,8,400,,,
sequence,flow.Sequence,4_122,2023-10-30T22:46:28.542Z,,0,,,3405,completion,,,,,false,,,,636387,636387,632965,632963,632982,636416,8,400,,,
trial,html.Screen,4_123_0,2023-10-30T22:46:31.424Z,,0,3,,2870,response,ISIC_3147084.JPG,6,ISIC_0010322.JPG,ISIC_0010322.JPG,false,0,keypress(z),500,639269,639269,636399,636387,636416,639299,8,400,24,,ISIC_3147084.JPG
break,html.Screen,4_123_1,2023-10-30T22:46:31.425Z,,0,,,NaN,,,,,,false,,,,639270,639270,,639269,,639299,8,400,,,
break_continue,html.Screen,4_123_2,2023-10-30T22:46:31.425Z,,0,,,NaN,,,,,,false,,,,639270,639270,,639270,,639299,8,400,,,
sequence,flow.Sequence,4_123,2023-10-30T22:46:31.425Z,,0,,,2854,completion,,,,,false,,,,639270,639270,636399,636387,636416,639299,8,400,,,
trial,html.Screen,4_124_0,2023-10-30T22:46:34.493Z,,0,3,,3056,response,ISIC_0011921.JPG,6,ISIC_0024496.JPG,ISIC_0011921.JPG,false,1,keypress(m),500,642338,642338,639282,639270,639299,642366,8,400,25,,ISIC_0024496.JPG
break,html.Screen,4_124_1,2023-10-30T22:46:34.494Z,,0,,,NaN,,,,,,false,,,,642339,642339,,642338,,642366,8,400,,,
break_continue,html.Screen,4_124_2,2023-10-30T22:46:34.495Z,,0,,,NaN,,,,,,false,,,,642340,642340,,642339,,642366,8,400,,,
sequence,flow.Sequence,4_124,2023-10-30T22:46:34.495Z,,0,,,3041,completion,,,,,false,,,,642340,642340,639282,639270,639299,642366,8,400,,,
trial,html.Screen,4_125_0,2023-10-30T22:46:37.731Z,,0,3,,3226,response,ISIC_3566243.JPG,2,ISIC_0026909.JPG,ISIC_3566243.JPG,false,1,keypress(m),500,645576,645575,642349,642340,642366,645599,8,400,26,,ISIC_0026909.JPG
break,html.Screen,4_125_1,2023-10-30T22:46:37.732Z,,0,,,NaN,,,,,,false,,,,645577,645577,,645576,,645599,8,400,,,
break_continue,html.Screen,4_125_2,2023-10-30T22:46:37.732Z,,0,,,NaN,,,,,,false,,,,645577,645577,,645577,,645599,8,400,,,
sequence,flow.Sequence,4_125,2023-10-30T22:46:37.732Z,,0,,,3211,completion,,,,,false,,,,645577,645577,642349,642340,642366,645599,8,400,,,
trial,html.Screen,4_126_0,2023-10-30T22:46:41.324Z,,0,3,,3586,response,ISIC_0060158.JPG,15,ISIC_0059294.JPG,ISIC_0060158.JPG,false,1,keypress(m),500,649169,649168,645582,645577,645599,649199,8,400,27,,ISIC_0059294.JPG
break,html.Screen,4_126_1,2023-10-30T22:46:41.325Z,,0,,,NaN,,,,,,false,,,,649170,649170,,649169,,649199,8,400,,,
break_continue,html.Screen,4_126_2,2023-10-30T22:46:41.326Z,,0,,,NaN,,,,,,false,,,,649171,649170,,649170,,649199,8,400,,,
sequence,flow.Sequence,4_126,2023-10-30T22:46:41.326Z,,0,,,3571,completion,,,,,false,,,,649171,649170,645582,645577,645599,649199,8,400,,,
trial,html.Screen,4_127_0,2023-10-30T22:46:44.569Z,,0,3,,3232,response,ISIC_8624049.JPG,16,ISIC_3633306.JPG,ISIC_8624049.JPG,false,1,keypress(m),500,652414,652414,649182,649171,649199,652432,8,400,28,,ISIC_3633306.JPG
break,html.Screen,4_127_1,2023-10-30T22:46:44.570Z,,0,,,NaN,,,,,,false,,,,652415,652415,,652414,,652432,8,400,,,
break_continue,html.Screen,4_127_2,2023-10-30T22:46:44.570Z,,0,,,NaN,,,,,,false,,,,652415,652415,,652415,,652432,8,400,,,
sequence,flow.Sequence,4_127,2023-10-30T22:46:44.570Z,,0,,,3216,completion,,,,,false,,,,652415,652415,649182,649171,649199,652432,8,400,,,
trial,html.Screen,4_128_0,2023-10-30T22:46:48.145Z,,0,3,,3573,response,ISIC_6496370.JPG,3,ISIC_9007206.JPG,ISIC_9007206.JPG,false,0,keypress(z),500,655990,655990,652417,652415,652432,656015,8,400,29,,ISIC_6496370.JPG
break,html.Screen,4_128_1,2023-10-30T22:46:48.146Z,,0,,,NaN,,,,,,false,,,,655991,655991,,655990,,656015,8,400,,,
break_continue,html.Screen,4_128_2,2023-10-30T22:46:48.147Z,,0,,,NaN,,,,,,false,,,,655991,655991,,655991,,656015,8,400,,,
sequence,flow.Sequence,4_128,2023-10-30T22:46:48.147Z,,0,,,3559,completion,,,,,false,,,,655992,655991,652417,652415,652432,656015,8,400,,,
trial,html.Screen,4_129_0,2023-10-30T22:46:51.142Z,,0,3,,2987,response,ISIC_0062649.JPG,2,ISIC_0394140.JPG,ISIC_0062649.JPG,false,1,keypress(m),500,658986,658986,655999,655992,656015,659016,8,400,30,,ISIC_0394140.JPG
break,html.Screen,4_129_1,2023-10-30T22:46:51.143Z,,0,,,NaN,,,,,,false,,,,658988,658987,,658987,,659016,8,400,,,
break_continue,html.Screen,4_129_2,2023-10-30T22:46:51.143Z,,0,,,NaN,,,,,,false,,,,658988,658988,,658988,,659016,8,400,,,
sequence,flow.Sequence,4_129,2023-10-30T22:46:51.143Z,,0,,,2973,completion,,,,,false,,,,658988,658988,655999,655992,656015,659016,8,400,,,
trial,html.Screen,4_130_0,2023-10-30T22:46:54.167Z,,0,3,,3012,response,ISIC_5433087.JPG,10,ISIC_4288307.JPG,ISIC_4288307.JPG,false,0,keypress(z),500,662012,662011,658999,658988,659016,662049,8,400,31,,ISIC_5433087.JPG
break,html.Screen,4_130_1,2023-10-30T22:46:54.168Z,,0,,,NaN,,,,,,false,,,,662013,662013,,662012,,662049,8,400,,,
break_continue,html.Screen,4_130_2,2023-10-30T22:46:54.169Z,,0,,,NaN,,,,,,false,,,,662013,662013,,662013,,662049,8,400,,,
sequence,flow.Sequence,4_130,2023-10-30T22:46:54.169Z,,0,,,2997,completion,,,,,false,,,,662014,662013,658999,658988,659016,662049,8,400,,,
trial,html.Screen,4_131_0,2023-10-30T22:46:57.460Z,,0,3,,3272,response,ISIC_5971591.JPG,0,ISIC_9699238.JPG,ISIC_9699238.JPG,false,0,keypress(z),500,665305.0000000001,665304,662032,662014,662049,665332,8,400,32,,ISIC_5971591.JPG
break,html.Screen,4_131_1,2023-10-30T22:46:57.461Z,,0,,,NaN,,,,,,false,,,,665306,665306,,665305.0000000001,,665332,8,400,,,
break_continue,html.Screen,4_131_2,2023-10-30T22:46:57.461Z,,0,,,NaN,,,,,,false,,,,665306,665306,,665306,,665332,8,400,,,
sequence,flow.Sequence,4_131,2023-10-30T22:46:57.461Z,,0,,,3257,completion,,,,,false,,,,665306,665306,662032,662014,662049,665332,8,400,,,
trial,html.Screen,4_132_0,2023-10-30T22:47:00.520Z,,0,3,,3048,response,ISIC_4837536.JPG,2,ISIC_0065204.JPG,ISIC_4837536.JPG,false,1,keypress(m),500,668365,668364,665316,665306,665332,668399,8,400,33,,ISIC_0065204.JPG
break,html.Screen,4_132_1,2023-10-30T22:47:00.521Z,,0,,,NaN,,,,,,false,,,,668366,668366,,668365,,668399,8,400,,,
break_continue,html.Screen,4_132_2,2023-10-30T22:47:00.521Z,,0,,,NaN,,,,,,false,,,,668366,668366,,668366,,668399,8,400,,,
sequence,flow.Sequence,4_132,2023-10-30T22:47:00.521Z,,0,,,3034,completion,,,,,false,,,,668366,668366,665316,665306,665332,668399,8,400,,,
trial,html.Screen,4_133_0,2023-10-30T22:47:03.343Z,,0,3,,2806,response,ISIC_0069504.JPG,0,ISIC_0259179.JPG,ISIC_0259179.JPG,false,0,keypress(z),500,671188,671188,668382,668366,668399,671215,8,400,34,,ISIC_0069504.JPG
break,html.Screen,4_133_1,2023-10-30T22:47:03.344Z,,0,,,NaN,,,,,,false,,,,671189,671189,,671188,,671215,8,400,,,
break_continue,html.Screen,4_133_2,2023-10-30T22:47:03.344Z,,0,,,NaN,,,,,,false,,,,671189,671189,,671189,,671215,8,400,,,
sequence,flow.Sequence,4_133,2023-10-30T22:47:03.344Z,,0,,,2790,completion,,,,,false,,,,671189,671189,668382,668366,668399,671215,8,400,,,
trial,html.Screen,4_134_0,2023-10-30T22:47:05.786Z,,0,3,,2431,response,ISIC_0032782.JPG,3,ISIC_4246086.JPG,ISIC_0032782.JPG,false,1,keypress(m),500,673631,673630,671199,671189,671215,673666,8,400,35,,ISIC_4246086.JPG
break,html.Screen,4_134_1,2023-10-30T22:47:05.787Z,,0,,,NaN,,,,,,false,,,,673632.0000000001,673631,,673631,,673666,8,400,,,
break_continue,html.Screen,4_134_2,2023-10-30T22:47:05.787Z,,0,,,NaN,,,,,,false,,,,673632.0000000001,673632.0000000001,,673632.0000000001,,673666,8,400,,,
sequence,flow.Sequence,4_134,2023-10-30T22:47:05.787Z,,0,,,2417.0000000001164,completion,,,,,false,,,,673632.0000000001,673632.0000000001,671199,671189,671215,673666,8,400,,,
trial,html.Screen,4_135_0,2023-10-30T22:47:09.049Z,,0,3,,3245,response,ISIC_5702591.JPG,2,ISIC_1870309.JPG,ISIC_1870309.JPG,false,0,keypress(z),500,676894,676894,673649,673632.0000000001,673666,676915,8,400,36,,ISIC_5702591.JPG
break,html.Screen,4_135_1,2023-10-30T22:47:09.050Z,,0,,,NaN,,,,,,false,,,,676895,676895,,676894,,676915,8,400,,,
break_continue,html.Screen,4_135_2,2023-10-30T22:47:09.050Z,,0,,,NaN,,,,,,false,,,,676895,676895,,676895,,676915,8,400,,,
sequence,flow.Sequence,4_135,2023-10-30T22:47:09.050Z,,0,,,3229,completion,,,,,false,,,,676895,676895,673649,673632.0000000001,673666,676915,8,400,,,
trial,html.Screen,4_136_0,2023-10-30T22:47:11.652Z,,0,3,,2598,response,ISIC_0006750.JPG,1,ISIC_0010527.JPG,ISIC_0006750.JPG,false,1,keypress(m),500,679497.0000000001,679496,676898,676895,676915,679532,8,400,37,,ISIC_0010527.JPG
break,html.Screen,4_136_1,2023-10-30T22:47:11.653Z,,0,,,NaN,,,,,,false,,,,679498,679497.0000000001,,679497.0000000001,,679532,8,400,,,
break_continue,html.Screen,4_136_2,2023-10-30T22:47:11.653Z,,0,,,NaN,,,,,,false,,,,679498,679498,,679498,,679532,8,400,,,
sequence,flow.Sequence,4_136,2023-10-30T22:47:11.653Z,,0,,,2583,completion,,,,,false,,,,679498,679498,676898,676895,676915,679532,8,400,,,
trial,html.Screen,4_137_0,2023-10-30T22:47:14.088Z,,0,3,,2418,response,ISIC_5747486.JPG,2,ISIC_7809510.JPG,ISIC_7809510.JPG,false,0,keypress(z),500,681933,681933,679515,679498,679532,681966,8,400,38,,ISIC_5747486.JPG
break,html.Screen,4_137_1,2023-10-30T22:47:14.089Z,,0,,,NaN,,,,,,false,,,,681934,681934,,681933,,681966,8,400,,,
break_continue,html.Screen,4_137_2,2023-10-30T22:47:14.090Z,,0,,,NaN,,,,,,false,,,,681935.0000000001,681935.0000000001,,681934,,681966,8,400,,,
sequence,flow.Sequence,4_137,2023-10-30T22:47:14.090Z,,0,,,2403.0000000001164,completion,,,,,false,,,,681935.0000000001,681935.0000000001,679515,679498,679532,681966,8,400,,,
trial,html.Screen,4_138_0,2023-10-30T22:47:16.454Z,,0,3,,2350,response,ISIC_4174983.JPG,0,ISIC_0370008.JPG,ISIC_0370008.JPG,false,0,keypress(z),500,684299,684299,681949,681935.0000000001,681966,684332,8,400,39,,ISIC_4174983.JPG
break,html.Screen,4_138_1,2023-10-30T22:47:16.456Z,,0,,,NaN,,,,,,false,,,,684301,684300.0000000001,,684300.0000000001,,684332,8,400,,,
break_continue,html.Screen,4_138_2,2023-10-30T22:47:16.456Z,,0,,,NaN,,,,,,false,,,,684301,684301,,684301,,684332,8,400,,,
sequence,flow.Sequence,4_138,2023-10-30T22:47:16.456Z,,0,,,2335,completion,,,,,false,,,,684301,684301,681949,681935.0000000001,681966,684332,8,400,,,
trial,html.Screen,4_139_0,2023-10-30T22:47:18.865Z,,0,3,,2394,response,ISIC_9470876.JPG,16,ISIC_4624973.JPG,ISIC_4624973.JPG,false,0,keypress(z),500,686710,686710,684316,684301,684332,686732,8,400,40,,ISIC_9470876.JPG
break,html.Screen,4_139_1,2023-10-30T22:47:18.866Z,,0,,,NaN,,,,,,false,,,,686711,686711,,686710,,686732,8,400,,,
break_continue,html.Screen,4_139_2,2023-10-30T22:47:18.867Z,,0,,,NaN,,,,,,false,,,,686712,686711,,686711,,686732,8,400,,,
sequence,flow.Sequence,4_139,2023-10-30T22:47:18.867Z,,0,,,2379,completion,,,,,false,,,,686712,686711,684316,684301,684332,686732,8,400,,,
trial,html.Screen,4_140_0,2023-10-30T22:47:22.191Z,,0,3,,3321,response,ISIC_7787118.JPG,4,ISIC_3608788.JPG,ISIC_7787118.JPG,false,1,keypress(m),500,690036,690036,686715,686712,686732,690065,8,400,41,,ISIC_3608788.JPG
break,html.Screen,4_140_1,2023-10-30T22:47:22.192Z,,0,,,NaN,,,,,,false,,,,690037,690037,,690036,,690065,8,400,,,
break_continue,html.Screen,4_140_2,2023-10-30T22:47:22.192Z,,0,,,NaN,,,,,,false,,,,690037,690037,,690037,,690065,8,400,,,
sequence,flow.Sequence,4_140,2023-10-30T22:47:22.192Z,,0,,,3305,completion,,,,,false,,,,690037,690037,686715,686712,686732,690065,8,400,,,
trial,html.Screen,4_141_0,2023-10-30T22:47:24.815Z,,0,3,,2610,response,ISIC_0234248.JPG,12,ISIC_0033738.JPG,ISIC_0234248.JPG,false,1,keypress(m),500,692660,692659,690049,690038,690065,692682,8,400,42,,ISIC_0033738.JPG
break,html.Screen,4_141_1,2023-10-30T22:47:24.815Z,,0,,,NaN,,,,,,false,,,,692660,692660,,692660,,692682,8,400,,,
break_continue,html.Screen,4_141_2,2023-10-30T22:47:24.816Z,,0,,,NaN,,,,,,false,,,,692661,692661,,692661,,692682,8,400,,,
sequence,flow.Sequence,4_141,2023-10-30T22:47:24.816Z,,0,,,2596,completion,,,,,false,,,,692661,692661,690049,690038,690065,692682,8,400,,,
trial,html.Screen,4_142_0,2023-10-30T22:47:27.460Z,,0,3,,2639,response,ISIC_0000159.JPG,16,ISIC_0025602.JPG,ISIC_0025602.JPG,false,0,keypress(z),500,695305.0000000001,695304,692665,692661,692682,695332,8,400,43,,ISIC_0000159.JPG
break,html.Screen,4_142_1,2023-10-30T22:47:27.461Z,,0,,,NaN,,,,,,false,,,,695306,695306,,695305.0000000001,,695332,8,400,,,
break_continue,html.Screen,4_142_2,2023-10-30T22:47:27.462Z,,0,,,NaN,,,,,,false,,,,695307,695307,,695307,,695332,8,400,,,
sequence,flow.Sequence,4_142,2023-10-30T22:47:27.462Z,,0,,,2625,completion,,,,,false,,,,695307,695307,692665,692661,692682,695332,8,400,,,
trial,html.Screen,4_143_0,2023-10-30T22:47:30.095Z,,0,3,,2625,response,ISIC_0000144.JPG,10,ISIC_1578253.JPG,ISIC_1578253.JPG,false,0,keypress(z),500,697940,697940,695315,695307,695332,697965,8,400,44,,ISIC_0000144.JPG
break,html.Screen,4_143_1,2023-10-30T22:47:30.096Z,,0,,,NaN,,,,,,false,,,,697941,697941,,697941,,697965,8,400,,,
break_continue,html.Screen,4_143_2,2023-10-30T22:47:30.097Z,,0,,,NaN,,,,,,false,,,,697942,697942,,697942,,697965,8,400,,,
sequence,flow.Sequence,4_143,2023-10-30T22:47:30.097Z,,0,,,2610,completion,,,,,false,,,,697942,697942,695315,695307,695332,697965,8,400,,,
trial,html.Screen,4_144_0,2023-10-30T22:47:32.792Z,,0,3,,2688,response,ISIC_1533305.JPG,1,ISIC_0073156.JPG,ISIC_1533305.JPG,false,1,keypress(m),500,700637,700637,697949,697942,697965,700665,8,400,45,,ISIC_0073156.JPG
break,html.Screen,4_144_1,2023-10-30T22:47:32.793Z,,0,,,NaN,,,,,,false,,,,700639,700638,,700638,,700665,8,400,,,
break_continue,html.Screen,4_144_2,2023-10-30T22:47:32.794Z,,0,,,NaN,,,,,,false,,,,700639,700639,,700639,,700665,8,400,,,
sequence,flow.Sequence,4_144,2023-10-30T22:47:32.794Z,,0,,,2674,completion,,,,,false,,,,700639,700639,697949,697942,697965,700665,8,400,,,
trial,html.Screen,4_145_0,2023-10-30T22:47:36.226Z,,0,3,,3423,response,ISIC_1956354.JPG,2,ISIC_0973194.JPG,ISIC_0973194.JPG,false,0,keypress(z),500,704072,704071,700648,700639,700665,704099,8,400,46,,ISIC_1956354.JPG
break,html.Screen,4_145_1,2023-10-30T22:47:36.228Z,,0,,,NaN,,,,,,false,,,,704073,704073,,704072,,704099,8,400,,,
break_continue,html.Screen,4_145_2,2023-10-30T22:47:36.228Z,,0,,,NaN,,,,,,false,,,,704073,704073,,704073,,704099,8,400,,,
sequence,flow.Sequence,4_145,2023-10-30T22:47:36.228Z,,0,,,3408,completion,,,,,false,,,,704073,704073,700648,700639,700665,704099,8,400,,,
trial,html.Screen,4_146_0,2023-10-30T22:47:38.841Z,,0,3,,2603.0000000001164,response,ISIC_9852341.JPG,2,ISIC_0046361.JPG,ISIC_9852341.JPG,false,1,keypress(m),500,706686,706685.0000000001,704082,704073,704099,706715,8,400,47,,ISIC_0046361.JPG
break,html.Screen,4_146_1,2023-10-30T22:47:38.842Z,,0,,,NaN,,,,,,false,,,,706687,706686,,706686,,706715,8,400,,,
break_continue,html.Screen,4_146_2,2023-10-30T22:47:38.842Z,,0,,,NaN,,,,,,false,,,,706687,706687,,706687,,706715,8,400,,,
sequence,flow.Sequence,4_146,2023-10-30T22:47:38.842Z,,0,,,2588,completion,,,,,false,,,,706687,706687,704082,704073,704099,706715,8,400,,,
trial,html.Screen,4_147_0,2023-10-30T22:47:41.881Z,,0,3,,3027,response,ISIC_0025702.JPG,15,ISIC_1120654.JPG,ISIC_0025702.JPG,false,1,keypress(m),500,709726,709726,706699,706687,706715,709749,8,400,48,,ISIC_1120654.JPG
break,html.Screen,4_147_1,2023-10-30T22:47:41.882Z,,0,,,NaN,,,,,,false,,,,709727,709727,,709727,,709749,8,400,,,
break_continue,html.Screen,4_147_2,2023-10-30T22:47:41.882Z,,0,,,NaN,,,,,,false,,,,709728.0000000001,709727,,709727,,709749,8,400,,,
sequence,flow.Sequence,4_147,2023-10-30T22:47:41.883Z,,0,,,3012,completion,,,,,false,,,,709728.0000000001,709727,706699,706687,706715,709749,8,400,,,
trial,html.Screen,4_148_0,2023-10-30T22:47:45.086Z,,0,3,,3200,response,ISIC_0053760.JPG,1,ISIC_9122215.JPG,ISIC_9122215.JPG,false,0,keypress(z),500,712931,712931,709731,709728.0000000001,709749,712965,8,400,49,,ISIC_0053760.JPG
break,html.Screen,4_148_1,2023-10-30T22:47:45.088Z,,0,,,NaN,,,,,,false,,,,712933,712932,,712932,,712965,8,400,,,
break_continue,html.Screen,4_148_2,2023-10-30T22:47:45.088Z,,0,,,NaN,,,,,,false,,,,712933,712933,,712933,,712965,8,400,,,
sequence,flow.Sequence,4_148,2023-10-30T22:47:45.088Z,,0,,,3184,completion,,,,,false,,,,712933,712933,709731,709728.0000000001,709749,712965,8,400,,,
trial,html.Screen,4_149_0,2023-10-30T22:47:47.956Z,,0,3,,2852,response,ISIC_0011895.JPG,4,ISIC_6132976.JPG,ISIC_6132976.JPG,false,0,keypress(z),500,715801,715801,712949,712933,712965,715832,8,400,50,,ISIC_0011895.JPG
break,html.Screen,4_149_1,2023-10-30T22:47:57.971Z,,0,,,10000,timeout,,,,,false,,,,725816,725815,715815,715802,715832,725832,8,400,,,
break_continue,html.Screen,4_149_2,2023-10-30T22:47:58.978Z,,0,,,1003,response,,,,,false,continue,keypress(Space),,726823,726818,725815,725816,725832,726848,8,400,,,
sequence,flow.Sequence,4_149,2023-10-30T22:47:58.978Z,,0,,,13853,completion,,,,,false,,,,726824.0000000001,726818,712949,712933,712965,726848,8,400,,,
trial,html.Screen,4_150_0,2023-10-30T22:48:01.517Z,,0,4,,2530,response,ISIC_0011532.JPG,3,ISIC_5347727.JPG,ISIC_0011532.JPG,false,1,keypress(m),500,729363,729362,726832,726824.0000000001,726848,729399,8,400,1,,ISIC_5347727.JPG
break,html.Screen,4_150_1,2023-10-30T22:48:01.519Z,,0,,,NaN,,,,,,false,,,,729364,729363,,729363,,729399,8,400,,,
break_continue,html.Screen,4_150_2,2023-10-30T22:48:01.519Z,,0,,,NaN,,,,,,false,,,,729364,729364,,729364,,729399,8,400,,,
sequence,flow.Sequence,4_150,2023-10-30T22:48:01.519Z,,0,,,2516,completion,,,,,false,,,,729364,729364,726832,726824.0000000001,726848,729399,8,400,,,
trial,html.Screen,4_151_0,2023-10-30T22:48:04.217Z,,0,4,,2679,response,ISIC_0032197.JPG,5,ISIC_4363398.JPG,ISIC_4363398.JPG,false,0,keypress(z),500,732062,732061,729382,729364,729399,732099,8,400,2,,ISIC_0032197.JPG
break,html.Screen,4_151_1,2023-10-30T22:48:04.218Z,,0,,,NaN,,,,,,false,,,,732063,732063,,732062,,732099,8,400,,,
break_continue,html.Screen,4_151_2,2023-10-30T22:48:04.218Z,,0,,,NaN,,,,,,false,,,,732063,732063,,732063,,732099,8,400,,,
sequence,flow.Sequence,4_151,2023-10-30T22:48:04.218Z,,0,,,2664,completion,,,,,false,,,,732063,732063,729382,729364,729399,732099,8,400,,,
trial,html.Screen,4_152_0,2023-10-30T22:48:07.603Z,,0,4,,3366,response,ISIC_3319229.JPG,3,ISIC_0056819.JPG,ISIC_3319229.JPG,false,1,keypress(m),500,735448,735448,732082,732063,732099,735482,8,400,3,,ISIC_0056819.JPG
break,html.Screen,4_152_1,2023-10-30T22:48:07.604Z,,0,,,NaN,,,,,,false,,,,735450,735449.0000000001,,735449.0000000001,,735482,8,400,,,
break_continue,html.Screen,4_152_2,2023-10-30T22:48:07.605Z,,0,,,NaN,,,,,,false,,,,735450,735450,,735450,,735482,8,400,,,
sequence,flow.Sequence,4_152,2023-10-30T22:48:07.605Z,,0,,,3351,completion,,,,,false,,,,735450,735450,732082,732063,732099,735482,8,400,,,
trial,html.Screen,4_153_0,2023-10-30T22:48:10.012Z,,0,4,,2393,response,ISIC_0063981.JPG,7,ISIC_1532403.JPG,ISIC_1532403.JPG,false,0,keypress(z),500,737857,737857,735464,735450,735482,737882,8,400,4,,ISIC_0063981.JPG
break,html.Screen,4_153_1,2023-10-30T22:48:10.013Z,,0,,,NaN,,,,,,false,,,,737858.0000000001,737858.0000000001,,737858.0000000001,,737882,8,400,,,
break_continue,html.Screen,4_153_2,2023-10-30T22:48:10.014Z,,0,,,NaN,,,,,,false,,,,737859,737859,,737859,,737882,8,400,,,
sequence,flow.Sequence,4_153,2023-10-30T22:48:10.014Z,,0,,,2377,completion,,,,,false,,,,737859,737859,735464,735450,735482,737882,8,400,,,
trial,html.Screen,4_154_0,2023-10-30T22:48:12.380Z,,0,4,,2359,response,ISIC_9407667.JPG,16,ISIC_0054523.JPG,ISIC_9407667.JPG,false,1,keypress(m),500,740225,740224,737865,737859,737882,740249,8,400,5,,ISIC_0054523.JPG
break,html.Screen,4_154_1,2023-10-30T22:48:12.381Z,,0,,,NaN,,,,,,false,,,,740226,740226,,740225,,740249,8,400,,,
break_continue,html.Screen,4_154_2,2023-10-30T22:48:12.381Z,,0,,,NaN,,,,,,false,,,,740226,740226,,740226,,740249,8,400,,,
sequence,flow.Sequence,4_154,2023-10-30T22:48:12.381Z,,0,,,2344,completion,,,,,false,,,,740226,740226,737865,737859,737882,740249,8,400,,,
trial,html.Screen,4_155_0,2023-10-30T22:48:15.649Z,,0,4,,3261,response,ISIC_0024537.JPG,5,ISIC_0060222.JPG,ISIC_0060222.JPG,false,0,keypress(z),500,743494,743493,740232,740226,740249,743515,8,400,6,,ISIC_0024537.JPG
break,html.Screen,4_155_1,2023-10-30T22:48:15.650Z,,0,,,NaN,,,,,,false,,,,743495,743495,,743494,,743515,8,400,,,
break_continue,html.Screen,4_155_2,2023-10-30T22:48:15.650Z,,0,,,NaN,,,,,,false,,,,743495,743495,,743495,,743515,8,400,,,
sequence,flow.Sequence,4_155,2023-10-30T22:48:15.650Z,,0,,,3246,completion,,,,,false,,,,743495,743495,740232,740226,740249,743515,8,400,,,
trial,html.Screen,4_156_0,2023-10-30T22:48:19.269Z,,0,4,,3616,response,ISIC_0061566.JPG,4,ISIC_0057997.JPG,ISIC_0057997.JPG,false,0,keypress(z),500,747114,747114,743498,743496,743515,747148,8,400,7,,ISIC_0061566.JPG
break,html.Screen,4_156_1,2023-10-30T22:48:19.270Z,,0,,,NaN,,,,,,false,,,,747115,747115,,747114,,747148,8,400,,,
break_continue,html.Screen,4_156_2,2023-10-30T22:48:19.270Z,,0,,,NaN,,,,,,false,,,,747115,747115,,747115,,747148,8,400,,,
sequence,flow.Sequence,4_156,2023-10-30T22:48:19.270Z,,0,,,3600,completion,,,,,false,,,,747115,747115,743498,743496,743515,747148,8,400,,,
trial,html.Screen,4_157_0,2023-10-30T22:48:22.338Z,,0,4,,3051,response,ISIC_0062978.JPG,5,ISIC_0033754.JPG,ISIC_0033754.JPG,false,0,keypress(z),500,750183,750183,747132,747115,747148,750215,8,400,8,,ISIC_0062978.JPG
break,html.Screen,4_157_1,2023-10-30T22:48:22.339Z,,0,,,NaN,,,,,,false,,,,750184,750184,,750183,,750215,8,400,,,
break_continue,html.Screen,4_157_2,2023-10-30T22:48:22.339Z,,0,,,NaN,,,,,,false,,,,750184,750184,,750184,,750215,8,400,,,
