sender,sender_type,sender_id,timestamp,meta,,blockNo,condition,duration,ended_on,img_left,img_reveal,img_right,loser,practice,response,response_action,selection_duration,time_commit,time_end,time_render,time_run,time_show,time_switch,total_blocks,total_trials,trialNo,url,winner
informed_consent,html.Screen,0,2023-05-03T20:07:32.795Z,"{""labjs_version"":""20.2.4"",""labjs_build"":{""flavor"":""production"",""commit"":""f5b4a49f956347addd546a832a3327688c2c0fef""},""location"":""https://run.pavlovia.org/MurrayBennett/melanoma-2afc/?participant=65229"",""userAgent"":""Mozilla/5.0 (Windows NT 10.0; Win64; x64) AppleWebKit/537.36 (KHTML, like Gecko) Chrome/112.0.0.0 Safari/537.36"",""platform"":""Win32"",""language"":""en-US"",""locale"":""en-US"",""timeZone"":""America/Chicago"",""timezoneOffset"":300,""screen_width"":1920,""screen_height"":1080,""scroll_width"":958,""scroll_height"":903,""window_innerWidth"":958,""window_innerHeight"":951,""devicePixelRatio"":1}",,,,167860.28899995232,response,,,,,,consent,click button,,171228.09999990463,171225.79999995232,3332.175,3348.399999856949,3365.511,171249.512,,,,"{""participant"":""65229""}",
Welcome,html.Screen,1,2023-05-03T20:08:07.704Z,,,,irregular,34886.587999904645,response,,,,,,continue,click button,,206137.09999990463,206136.09999990463,171216.225,171228.29999995232,171249.512,206149.7,,,,,
trial,html.Screen,2_0_0,2023-05-03T20:08:16.469Z,,0,0,,8752.500000047672,response,ISIC_0061792.JPG,,ISIC_4679428.JPG,ISIC_0061792.JPG,true,1,keypress(m),500,214902.59999990463,214902.20000004768,206133.128,206137.29999995232,206149.7,214916.3,1,6,1,,ISIC_4679428.JPG
sequence,flow.Sequence,2_0,2023-05-03T20:08:16.470Z,,0,,,8752.500000047672,completion,,,,,true,,,,214903.20000004768,214902.20000004768,206133.128,206137.29999995232,206149.7,214916.3,1,6,,,
trial,html.Screen,2_1_0,2023-05-03T20:08:23.473Z,,0,0,,6989.999999952328,response,ISIC_0776486.JPG,,ISIC_5199497.JPG,ISIC_0776486.JPG,true,1,keypress(m),500,221906.79999995232,221906.29999995232,214899.989,214903.29999995232,214916.3,221916.475,1,6,2,,ISIC_5199497.JPG
sequence,flow.Sequence,2_1,2023-05-03T20:08:23.474Z,,0,,,6989.999999952328,completion,,,,,true,,,,221907,221906.29999995232,214899.989,214903.20000004768,214916.3,221916.475,1,6,,,
trial,html.Screen,2_2_0,2023-05-03T20:08:34.970Z,,0,0,,11516.687000000005,timeout,ISIC_2556187.JPG,,ISIC_8575776.JPG,,true,,,500,233404.09999990463,233403.70000004768,221899.827,221907.20000004768,221916.475,233433.162,1,6,3,,
sequence,flow.Sequence,2_2,2023-05-03T20:08:34.970Z,,0,,,11487.225000047678,completion,,,,,true,,,,233404.39999985695,233403.70000004768,221899.827,221907.20000004768,221916.475,233433.162,1,6,,,
trial,html.Screen,2_3_0,2023-05-03T20:08:38.292Z,,0,0,,3292.837999999989,response,ISIC_8141769.JPG,,ISIC_9238366.JPG,ISIC_9238366.JPG,true,0,keypress(z),500,236726.29999995232,236726,233416.493,233404.59999990463,233433.162,236733.065,1,6,4,,ISIC_8141769.JPG
sequence,flow.Sequence,2_3,2023-05-03T20:08:38.292Z,,0,,,3292.837999999989,completion,,,,,true,,,,236726.79999995232,236726,233416.493,233404.5,233433.162,236733.065,1,6,,,
trial,html.Screen,2_4_0,2023-05-03T20:08:42.513Z,,0,0,,4214.3349998569465,response,ISIC_8949026.JPG,,ISIC_9959593.JPG,ISIC_8949026.JPG,true,1,keypress(m),500,240947.70000004768,240947.39999985695,236716.822,236727.09999990463,236733.065,240969.306,1,6,5,,ISIC_9959593.JPG
sequence,flow.Sequence,2_4,2023-05-03T20:08:42.514Z,,0,,,4214.3349998569465,completion,,,,,true,,,,240948.29999995232,240947.39999985695,236716.822,236727,236733.065,240969.306,1,6,,,
trial,html.Screen,2_5_0,2023-05-03T20:08:45.201Z,,0,0,,2666.1939999999886,response,ISIC_0010479.JPG,,ISIC_0460240.JPG,ISIC_0460240.JPG,true,0,keypress(z),500,243635.79999995232,243635.5,240933.038,240948.59999990463,240969.306,243649.958,1,6,6,,ISIC_0010479.JPG
sequence,flow.Sequence,2_5,2023-05-03T20:08:45.202Z,,0,,,2666.1939999999886,completion,,,,,true,,,,243636.20000004768,243635.5,240933.038,240948.5,240969.306,243649.958,1,6,,,
loop,flow.Loop,2,2023-05-03T20:08:45.202Z,,,,,37485.79999999999,completion,,,,,true,,,,243636.39999985695,243635.5,206133.128,206137.20000004768,206149.7,243649.958,1,6,,,
exp_instructions,html.Screen,3,2023-05-03T20:08:57.108Z,,,,,11890.64199990462,response,,,,,,continue,keypress(Space),,255541.89999985695,255540.59999990463,243633.077,243636.5,243649.958,255549.906,,,,,
trial,html.Screen,4_0_0,2023-05-03T20:09:05.720Z,,0,1,,8603.893999952328,response,ISIC_0030725.JPG,,ISIC_0013845.JPG,ISIC_0030725.JPG,false,1,keypress(m),500,264154.2000000477,264153.7999999523,255529.149,255542.39999985695,255549.906,264166.939,8,400,1,,ISIC_0013845.JPG
break,html.Screen,4_0_1,2023-05-03T20:09:05.721Z,,0,,,NaN,,,,,,false,,,,264155.7999999523,264155.2999999523,,264154.5,,264166.939,8,400,,,
break_continue,html.Screen,4_0_2,2023-05-03T20:09:05.722Z,,0,,,NaN,,,,,,false,,,,264156.39999985695,264156.2000000477,,264156,,264166.939,8,400,,,
sequence,flow.Sequence,4_0,2023-05-03T20:09:05.722Z,,0,,,8606.294000047696,completion,,,,,false,,,,264156.59999990463,264156.2000000477,255529.149,255542.39999985695,255549.906,264166.939,8,400,,,
trial,html.Screen,4_1_0,2023-05-03T20:09:09.395Z,,0,1,,3661.8609999523032,response,ISIC_4219589.JPG,,ISIC_0062048.JPG,ISIC_4219589.JPG,false,1,keypress(m),500,267829.09999990463,267828.7999999523,264150.119,264156.7000000477,264166.939,267833.17,8,400,2,,ISIC_0062048.JPG
break,html.Screen,4_1_1,2023-05-03T20:09:09.396Z,,0,,,NaN,,,,,,false,,,,267830.5,267830.2000000477,,267829.2999999523,,267833.17,8,400,,,
break_continue,html.Screen,4_1_2,2023-05-03T20:09:09.397Z,,0,,,NaN,,,,,,false,,,,267831.2000000477,267831,,267830.7000000477,,267833.17,8,400,,,
sequence,flow.Sequence,4_1,2023-05-03T20:09:09.397Z,,0,,,3664.060999999987,completion,,,,,false,,,,267831.2999999523,267831,264150.119,264156.7000000477,264166.939,267833.17,8,400,,,
trial,html.Screen,4_2_0,2023-05-03T20:09:13.367Z,,0,1,,3967.929999904649,response,ISIC_5272345.JPG,,ISIC_8956001.JPG,ISIC_8956001.JPG,false,0,keypress(z),500,271801.5,271801.09999990463,267816.708,267831.5,267833.17,271816.753,8,400,3,,ISIC_5272345.JPG
break,html.Screen,4_2_1,2023-05-03T20:09:13.369Z,,0,,,NaN,,,,,,false,,,,271802.89999985695,271802.59999990463,,271801.7000000477,,271816.753,8,400,,,
break_continue,html.Screen,4_2_2,2023-05-03T20:09:13.369Z,,0,,,NaN,,,,,,false,,,,271803.39999985695,271803.2999999523,,271803.09999990463,,271816.753,8,400,,,
sequence,flow.Sequence,4_2,2023-05-03T20:09:13.369Z,,0,,,3970.1299999523326,completion,,,,,false,,,,271803.59999990463,271803.2999999523,267816.708,267831.39999985695,267833.17,271816.753,8,400,,,
trial,html.Screen,4_3_0,2023-05-03T20:09:19.204Z,,0,1,,5821.646999856923,response,ISIC_6090057.JPG,,ISIC_0012678.JPG,ISIC_6090057.JPG,false,1,keypress(m),500,277638.7000000477,277638.39999985695,271799.924,271803.7999999523,271816.753,277649.927,8,400,4,,ISIC_0012678.JPG
break,html.Screen,4_3_1,2023-05-03T20:09:19.206Z,,0,,,NaN,,,,,,false,,,,277640.2999999523,277639.7999999523,,277638.89999985695,,277649.927,8,400,,,
break_continue,html.Screen,4_3_2,2023-05-03T20:09:19.207Z,,0,,,NaN,,,,,,false,,,,277640.89999985695,277640.7000000477,,277640.5,,277649.927,8,400,,,
sequence,flow.Sequence,4_3,2023-05-03T20:09:19.207Z,,0,,,5823.947000047658,completion,,,,,false,,,,277641.09999990463,277640.7000000477,271799.924,271803.7000000477,271816.753,277649.927,8,400,,,
trial,html.Screen,4_4_0,2023-05-03T20:09:24.893Z,,0,1,,5677.273000047659,response,ISIC_0071135.JPG,,ISIC_0065013.JPG,ISIC_0071135.JPG,false,1,keypress(m),500,283327.7000000477,283327.2000000477,277633.701,277641.59999990463,277649.927,283333.239,8,400,5,,ISIC_0065013.JPG
break,html.Screen,4_4_1,2023-05-03T20:09:24.895Z,,0,,,NaN,,,,,,false,,,,283329.7000000477,283329.2000000477,,283328.2000000477,,283333.239,8,400,,,
break_continue,html.Screen,4_4_2,2023-05-03T20:09:24.896Z,,0,,,NaN,,,,,,false,,,,283330.59999990463,283330.39999985695,,283330,,283333.239,8,400,,,
sequence,flow.Sequence,4_4,2023-05-03T20:09:24.897Z,,0,,,5680.472999856924,completion,,,,,false,,,,283331.09999990463,283330.39999985695,277633.701,277641.5,277649.927,283333.239,8,400,,,
trial,html.Screen,4_5_0,2023-05-03T20:09:31.182Z,,0,1,,6282.560999952315,response,ISIC_0062869.JPG,,ISIC_9667908.JPG,ISIC_9667908.JPG,false,0,keypress(z),500,289616.09999990463,289615.7999999523,283316.831,283331.7000000477,283333.239,289633.281,8,400,6,,ISIC_0062869.JPG
break,html.Screen,4_5_1,2023-05-03T20:09:31.184Z,,0,,,NaN,,,,,,false,,,,289618.2999999523,289617.89999985695,,289616.39999985695,,289633.281,8,400,,,
break_continue,html.Screen,4_5_2,2023-05-03T20:09:31.185Z,,0,,,NaN,,,,,,false,,,,289619.09999990463,289618.89999985695,,289618.5,,289633.281,8,400,,,
sequence,flow.Sequence,4_5,2023-05-03T20:09:31.185Z,,0,,,6285.6609998569475,completion,,,,,false,,,,289619.2999999523,289618.89999985695,283316.831,283331.5,283333.239,289633.281,8,400,,,
trial,html.Screen,4_6_0,2023-05-03T20:09:36.177Z,,0,1,,4977.118999856932,response,ISIC_1166678.JPG,,ISIC_0008774.JPG,ISIC_1166678.JPG,false,1,keypress(m),500,294610.7000000477,294610.39999985695,289616.917,289619.5,289633.281,294633.46,8,400,7,,ISIC_0008774.JPG
break,html.Screen,4_6_1,2023-05-03T20:09:36.178Z,,0,,,NaN,,,,,,false,,,,294611.7000000477,294611.39999985695,,294610.89999985695,,294633.46,8,400,,,
break_continue,html.Screen,4_6_2,2023-05-03T20:09:36.178Z,,0,,,NaN,,,,,,false,,,,294612.2000000477,294612.09999990463,,294611.7999999523,,294633.46,8,400,,,
sequence,flow.Sequence,4_6,2023-05-03T20:09:36.179Z,,0,,,4978.818999904615,completion,,,,,false,,,,294612.39999985695,294612.09999990463,289616.917,289619.5,289633.281,294633.46,8,400,,,
trial,html.Screen,4_7_0,2023-05-03T20:09:39.600Z,,0,1,,3399.7400000476628,response,ISIC_4642695.JPG,,ISIC_2074764.JPG,ISIC_2074764.JPG,false,0,keypress(z),500,298033.7999999523,298033.2000000477,294616.752,294612.59999990463,294633.46,298050.08,8,400,8,,ISIC_4642695.JPG
break,html.Screen,4_7_1,2023-05-03T20:09:39.601Z,,0,,,NaN,,,,,,false,,,,298035.2000000477,298034.89999985695,,298034.09999990463,,298050.08,8,400,,,
break_continue,html.Screen,4_7_2,2023-05-03T20:09:39.602Z,,0,,,NaN,,,,,,false,,,,298035.7000000477,298035.5,,298035.39999985695,,298050.08,8,400,,,
sequence,flow.Sequence,4_7,2023-05-03T20:09:39.602Z,,0,,,3402.039999999979,completion,,,,,false,,,,298035.89999985695,298035.5,294616.752,294612.59999990463,294633.46,298050.08,8,400,,,
trial,html.Screen,4_8_0,2023-05-03T20:09:45.203Z,,0,1,,5586.2199999523,response,ISIC_0000398.JPG,,ISIC_4099058.JPG,ISIC_4099058.JPG,false,0,keypress(z),500,303636.59999990463,303636.2999999523,298033.738,298036.09999990463,298050.08,303650.013,8,400,9,,ISIC_0000398.JPG
break,html.Screen,4_8_1,2023-05-03T20:09:45.204Z,,0,,,NaN,,,,,,false,,,,303638,303637.5,,303636.89999985695,,303650.013,8,400,,,
break_continue,html.Screen,4_8_2,2023-05-03T20:09:45.205Z,,0,,,NaN,,,,,,false,,,,303638.59999990463,303638.39999985695,,303638.2000000477,,303650.013,8,400,,,
sequence,flow.Sequence,4_8,2023-05-03T20:09:45.205Z,,0,,,5588.319999856933,completion,,,,,false,,,,303638.7000000477,303638.39999985695,298033.738,298036,298050.08,303650.013,8,400,,,
trial,html.Screen,4_9_0,2023-05-03T20:09:53.758Z,,0,1,,8541.386999856972,response,ISIC_0005006.JPG,,ISIC_0068447.JPG,ISIC_0005006.JPG,false,1,keypress(m),500,312191.59999990463,312191.39999985695,303633.569,303638.89999985695,303650.013,312200.005,8,400,10,,ISIC_0068447.JPG
break,html.Screen,4_9_1,2023-05-03T20:09:53.759Z,,0,,,NaN,,,,,,false,,,,312193,312192.59999990463,,312191.89999985695,,312200.005,8,400,,,
break_continue,html.Screen,4_9_2,2023-05-03T20:09:53.760Z,,0,,,NaN,,,,,,false,,,,312193.59999990463,312193.39999985695,,312193.09999990463,,312200.005,8,400,,,
sequence,flow.Sequence,4_9,2023-05-03T20:09:53.760Z,,0,,,8543.386999856972,completion,,,,,false,,,,312193.7000000477,312193.39999985695,303633.569,303638.89999985695,303650.013,312200.005,8,400,,,
trial,html.Screen,4_10_0,2023-05-03T20:09:58.571Z,,0,1,,4804.695000047679,response,ISIC_5336007.JPG,,ISIC_7266604.JPG,ISIC_5336007.JPG,false,1,keypress(m),500,317005,317004.7000000477,312183.492,312193.89999985695,312200.005,317016.758,8,400,11,,ISIC_7266604.JPG
break,html.Screen,4_10_1,2023-05-03T20:09:58.573Z,,0,,,NaN,,,,,,false,,,,317006.2999999523,317006,,317005.2000000477,,317016.758,8,400,,,
break_continue,html.Screen,4_10_2,2023-05-03T20:09:58.573Z,,0,,,NaN,,,,,,false,,,,317006.89999985695,317006.7999999523,,317006.59999990463,,317016.758,8,400,,,
sequence,flow.Sequence,4_10,2023-05-03T20:09:58.573Z,,0,,,4806.794999952312,completion,,,,,false,,,,317007.09999990463,317006.7999999523,312183.492,312193.89999985695,312200.005,317016.758,8,400,,,
trial,html.Screen,4_11_0,2023-05-03T20:10:02.367Z,,0,1,,3783.5419999523438,response,ISIC_4264600.JPG,,ISIC_0645834.JPG,ISIC_4264600.JPG,false,1,keypress(m),500,320800.7000000477,320800.2999999523,317000.102,317007.2999999523,317016.758,320816.742,8,400,12,,ISIC_0645834.JPG
break,html.Screen,4_11_1,2023-05-03T20:10:02.369Z,,0,,,NaN,,,,,,false,,,,320802.2999999523,320801.7999999523,,320800.7999999523,,320816.742,8,400,,,
break_continue,html.Screen,4_11_2,2023-05-03T20:10:02.369Z,,0,,,NaN,,,,,,false,,,,320803,320802.7999999523,,320802.5,,320816.742,8,400,,,
sequence,flow.Sequence,4_11,2023-05-03T20:10:02.369Z,,0,,,3786.0419999523438,completion,,,,,false,,,,320803.2000000477,320802.7999999523,317000.102,317007.2000000477,317016.758,320816.742,8,400,,,
trial,html.Screen,4_12_0,2023-05-03T20:10:06.345Z,,0,1,,3962.2579999999725,response,ISIC_0058132.JPG,,ISIC_0033193.JPG,ISIC_0058132.JPG,false,1,keypress(m),500,324779.2000000477,324779,320800.136,320803.39999985695,320816.742,324783.508,8,400,13,,ISIC_0033193.JPG
break,html.Screen,4_12_1,2023-05-03T20:10:06.346Z,,0,,,NaN,,,,,,false,,,,324779.7000000477,324779.7000000477,,324779.2999999523,,324783.508,8,400,,,
break_continue,html.Screen,4_12_2,2023-05-03T20:10:06.346Z,,0,,,NaN,,,,,,false,,,,324780,324779.89999985695,,324779.7999999523,,324783.508,8,400,,,
sequence,flow.Sequence,4_12,2023-05-03T20:10:06.346Z,,0,,,3963.1579998569214,completion,,,,,false,,,,324780,324779.89999985695,320800.136,320803.39999985695,320816.742,324783.508,8,400,,,
trial,html.Screen,4_13_0,2023-05-03T20:10:10.331Z,,0,1,,3980.3919998569763,response,ISIC_3885808.JPG,,ISIC_3098750.JPG,ISIC_3098750.JPG,false,0,keypress(z),500,328764.2000000477,328763.89999985695,324766.998,324780.09999990463,324783.508,328766.823,8,400,14,,ISIC_3885808.JPG
break,html.Screen,4_13_1,2023-05-03T20:10:10.332Z,,0,,,NaN,,,,,,false,,,,328765.5,328765.09999990463,,328764.59999990463,,328766.823,8,400,,,
break_continue,html.Screen,4_13_2,2023-05-03T20:10:10.332Z,,0,,,NaN,,,,,,false,,,,328766,328765.89999985695,,328765.7000000477,,328766.823,8,400,,,
sequence,flow.Sequence,4_13,2023-05-03T20:10:10.332Z,,0,,,3982.3919998569763,completion,,,,,false,,,,328766.2000000477,328765.89999985695,324766.998,324780.09999990463,324783.508,328766.823,8,400,,,
trial,html.Screen,4_14_0,2023-05-03T20:10:13.964Z,,0,1,,3630.377000047709,response,ISIC_6640753.JPG,,ISIC_0034209.JPG,ISIC_6640753.JPG,false,1,keypress(m),500,332397.39999985695,332397.2000000477,328750.283,328766.2999999523,328766.823,332400.089,8,400,15,,ISIC_0034209.JPG
break,html.Screen,4_14_1,2023-05-03T20:10:13.965Z,,0,,,NaN,,,,,,false,,,,332398.5,332398.39999985695,,332397.7999999523,,332400.089,8,400,,,
break_continue,html.Screen,4_14_2,2023-05-03T20:10:13.965Z,,0,,,NaN,,,,,,false,,,,332398.7000000477,332398.59999990463,,332398.59999990463,,332400.089,8,400,,,
sequence,flow.Sequence,4_14,2023-05-03T20:10:13.965Z,,0,,,3631.7769999046577,completion,,,,,false,,,,332398.7999999523,332398.59999990463,328750.283,328766.2000000477,328766.823,332400.089,8,400,,,
trial,html.Screen,4_15_0,2023-05-03T20:10:19.993Z,,0,1,,6026.210999952338,response,ISIC_7330564.JPG,,ISIC_1668831.JPG,ISIC_7330564.JPG,false,1,keypress(m),500,338426.59999990463,338426.2999999523,332383.583,332398.7999999523,332400.089,338433.444,8,400,16,,ISIC_1668831.JPG
break,html.Screen,4_15_1,2023-05-03T20:10:19.995Z,,0,,,NaN,,,,,,false,,,,338428.39999985695,338427.89999985695,,338426.89999985695,,338433.444,8,400,,,
break_continue,html.Screen,4_15_2,2023-05-03T20:10:19.995Z,,0,,,NaN,,,,,,false,,,,338429.2000000477,338429,,338428.7000000477,,338433.444,8,400,,,
sequence,flow.Sequence,4_15,2023-05-03T20:10:19.996Z,,0,,,6028.911000000022,completion,,,,,false,,,,338429.39999985695,338429,332383.583,332398.7999999523,332400.089,338433.444,8,400,,,
trial,html.Screen,4_16_0,2023-05-03T20:10:22.786Z,,0,1,,2785.8559999522986,response,ISIC_0033268.JPG,,ISIC_9622250.JPG,ISIC_9622250.JPG,false,0,keypress(z),500,341219.59999990463,341219.2999999523,338417.039,338429.5,338433.444,341233.522,8,400,17,,ISIC_0033268.JPG
break,html.Screen,4_16_1,2023-05-03T20:10:22.787Z,,0,,,NaN,,,,,,false,,,,341221,341220.7000000477,,341219.89999985695,,341233.522,8,400,,,
break_continue,html.Screen,4_16_2,2023-05-03T20:10:22.788Z,,0,,,NaN,,,,,,false,,,,341221.59999990463,341221.5,,341221.2999999523,,341233.522,8,400,,,
sequence,flow.Sequence,4_16,2023-05-03T20:10:22.788Z,,0,,,2788.0559999999823,completion,,,,,false,,,,341221.7999999523,341221.5,338417.039,338429.5,338433.444,341233.522,8,400,,,
trial,html.Screen,4_17_0,2023-05-03T20:10:28.072Z,,0,1,,5271.478000000003,response,ISIC_0046351.JPG,,ISIC_3430311.JPG,ISIC_0046351.JPG,false,1,keypress(m),500,346505.39999985695,346505,341217.108,341222,341233.522,346517.048,8,400,18,,ISIC_3430311.JPG
break,html.Screen,4_17_1,2023-05-03T20:10:28.073Z,,0,,,NaN,,,,,,false,,,,346506.7000000477,346506.5,,346505.59999990463,,346517.048,8,400,,,
break_continue,html.Screen,4_17_2,2023-05-03T20:10:28.074Z,,0,,,NaN,,,,,,false,,,,346507.2999999523,346507.09999990463,,346506.89999985695,,346517.048,8,400,,,
sequence,flow.Sequence,4_17,2023-05-03T20:10:28.074Z,,0,,,5273.577999904635,completion,,,,,false,,,,346507.5,346507.09999990463,341217.108,341222,341233.522,346517.048,8,400,,,
trial,html.Screen,4_18_0,2023-05-03T20:10:31.429Z,,0,1,,3345.152000047674,response,ISIC_9848743.JPG,,ISIC_0013084.JPG,ISIC_0013084.JPG,false,0,keypress(z),500,349862.39999985695,349862.2000000477,346500.476,346507.7000000477,346517.048,349866.81,8,400,19,,ISIC_9848743.JPG
break,html.Screen,4_18_1,2023-05-03T20:10:31.430Z,,0,,,NaN,,,,,,false,,,,349863.7999999523,349863.5,,349862.7999999523,,349866.81,8,400,,,
break_continue,html.Screen,4_18_2,2023-05-03T20:10:31.431Z,,0,,,NaN,,,,,,false,,,,349864.2000000477,349864.09999990463,,349863.89999985695,,349866.81,8,400,,,
sequence,flow.Sequence,4_18,2023-05-03T20:10:31.431Z,,0,,,3347.051999904623,completion,,,,,false,,,,349864.5,349864.09999990463,346500.476,346507.59999990463,346517.048,349866.81,8,400,,,
trial,html.Screen,4_19_0,2023-05-03T20:10:34.934Z,,0,1,,3499.789999904635,response,ISIC_0177304.JPG,,ISIC_2147549.JPG,ISIC_0177304.JPG,false,1,keypress(m),500,353367.2999999523,353366.59999990463,349850.461,349864.59999990463,349866.81,353383.655,8,400,20,,ISIC_2147549.JPG
break,html.Screen,4_19_1,2023-05-03T20:10:34.935Z,,0,,,NaN,,,,,,false,,,,353368.89999985695,353368.59999990463,,353367.59999990463,,353383.655,8,400,,,
break_continue,html.Screen,4_19_2,2023-05-03T20:10:34.936Z,,0,,,NaN,,,,,,false,,,,353369.39999985695,353369.2999999523,,353369,,353383.655,8,400,,,
sequence,flow.Sequence,4_19,2023-05-03T20:10:34.936Z,,0,,,3502.4899999523186,completion,,,,,false,,,,353369.59999990463,353369.2999999523,349850.461,349864.59999990463,349866.81,353383.655,8,400,,,
trial,html.Screen,4_20_0,2023-05-03T20:10:40.250Z,,0,1,,5300.844999999972,response,ISIC_6780662.JPG,,ISIC_0026685.JPG,ISIC_0026685.JPG,false,0,keypress(z),500,358684.7999999523,358684.5,353367.242,353369.7000000477,353383.655,358700.446,8,400,21,,ISIC_6780662.JPG
break,html.Screen,4_20_1,2023-05-03T20:10:40.252Z,,0,,,NaN,,,,,,false,,,,358686,358685.7000000477,,358685.09999990463,,358700.446,8,400,,,
break_continue,html.Screen,4_20_2,2023-05-03T20:10:40.252Z,,0,,,NaN,,,,,,false,,,,358686.59999990463,358686.5,,358686.2000000477,,358700.446,8,400,,,
sequence,flow.Sequence,4_20,2023-05-03T20:10:40.252Z,,0,,,5302.844999999972,completion,,,,,false,,,,358686.7999999523,358686.5,353367.242,353369.7000000477,353383.655,358700.446,8,400,,,
trial,html.Screen,4_21_0,2023-05-03T20:10:43.493Z,,0,1,,3226.2540000476874,response,ISIC_7492530.JPG,,ISIC_7409889.JPG,ISIC_7492530.JPG,false,1,keypress(m),500,361927,361926.7000000477,358683.931,358687,358700.446,361933.549,8,400,22,,ISIC_7409889.JPG
break,html.Screen,4_21_1,2023-05-03T20:10:43.494Z,,0,,,NaN,,,,,,false,,,,361928.39999985695,361927.89999985695,,361927.2000000477,,361933.549,8,400,,,
break_continue,html.Screen,4_21_2,2023-05-03T20:10:43.495Z,,0,,,NaN,,,,,,false,,,,361929,361928.7999999523,,361928.59999990463,,361933.549,8,400,,,
sequence,flow.Sequence,4_21,2023-05-03T20:10:43.495Z,,0,,,3228.35399995232,completion,,,,,false,,,,361929.2999999523,361928.7999999523,358683.931,358686.89999985695,358700.446,361933.549,8,400,,,
trial,html.Screen,4_22_0,2023-05-03T20:10:47.072Z,,0,1,,3572.5509999046335,response,ISIC_9513808.JPG,,ISIC_0031517.JPG,ISIC_9513808.JPG,false,1,keypress(m),500,365506.39999985695,365506.09999990463,361916.992,361929.39999985695,361933.549,365517.092,8,400,23,,ISIC_0031517.JPG
break,html.Screen,4_22_1,2023-05-03T20:10:47.073Z,,0,,,NaN,,,,,,false,,,,365507.89999985695,365507.5,,365506.7000000477,,365517.092,8,400,,,
break_continue,html.Screen,4_22_2,2023-05-03T20:10:47.074Z,,0,,,NaN,,,,,,false,,,,365508.2999999523,365508.2000000477,,365508,,365517.092,8,400,,,
sequence,flow.Sequence,4_22,2023-05-03T20:10:47.074Z,,0,,,3574.6510000476846,completion,,,,,false,,,,365508.5,365508.2000000477,361916.992,361929.39999985695,361933.549,365517.092,8,400,,,
trial,html.Screen,4_23_0,2023-05-03T20:10:50.317Z,,0,1,,3233.6080000476795,response,ISIC_0016131.JPG,,ISIC_0081584.JPG,ISIC_0016131.JPG,false,1,keypress(m),500,368751.09999990463,368750.7000000477,365500.485,365508.7000000477,365517.092,368766.953,8,400,24,,ISIC_0081584.JPG
break,html.Screen,4_23_1,2023-05-03T20:10:50.318Z,,0,,,NaN,,,,,,false,,,,368752.59999990463,368752.2999999523,,368751.39999985695,,368766.953,8,400,,,
break_continue,html.Screen,4_23_2,2023-05-03T20:10:50.319Z,,0,,,NaN,,,,,,false,,,,368753.09999990463,368752.89999985695,,368752.7000000477,,368766.953,8,400,,,
sequence,flow.Sequence,4_23,2023-05-03T20:10:50.319Z,,0,,,3235.8079998569447,completion,,,,,false,,,,368753.2999999523,368752.89999985695,365500.485,365508.59999990463,365517.092,368766.953,8,400,,,
trial,html.Screen,4_24_0,2023-05-03T20:10:54.833Z,,0,1,,4499.946999856969,response,ISIC_0010304.JPG,,ISIC_1217314.JPG,ISIC_0010304.JPG,false,1,keypress(m),500,373267.59999990463,373266.89999985695,368750.486,368753.39999985695,368766.953,373283.643,8,400,25,,ISIC_1217314.JPG
break,html.Screen,4_24_1,2023-05-03T20:10:54.836Z,,0,,,NaN,,,,,,false,,,,373270.2000000477,373269.7000000477,,373268.7000000477,,373283.643,8,400,,,
break_continue,html.Screen,4_24_2,2023-05-03T20:10:54.836Z,,0,,,NaN,,,,,,false,,,,373270.7000000477,373270.5,,373270.2999999523,,373283.643,8,400,,,
sequence,flow.Sequence,4_24,2023-05-03T20:10:54.836Z,,0,,,4503.5470000000205,completion,,,,,false,,,,373270.89999985695,373270.5,368750.486,368753.39999985695,368766.953,373283.643,8,400,,,
trial,html.Screen,4_25_0,2023-05-03T20:10:58.016Z,,0,1,,3166.4569999046507,response,ISIC_8497457.JPG,,ISIC_0056546.JPG,ISIC_8497457.JPG,false,1,keypress(m),500,376450.89999985695,376450.09999990463,373267.423,373271.09999990463,373283.643,376467.068,8,400,26,,ISIC_0056546.JPG
break,html.Screen,4_25_1,2023-05-03T20:10:58.018Z,,0,,,NaN,,,,,,false,,,,376452.2999999523,376452,,376451.2000000477,,376467.068,8,400,,,
break_continue,html.Screen,4_25_2,2023-05-03T20:10:58.018Z,,0,,,NaN,,,,,,false,,,,376452.7999999523,376452.7000000477,,376452.5,,376467.068,8,400,,,
sequence,flow.Sequence,4_25,2023-05-03T20:10:58.019Z,,0,,,3169.057000047702,completion,,,,,false,,,,376453.2999999523,376452.7000000477,373267.423,373271.09999990463,373283.643,376467.068,8,400,,,
trial,html.Screen,4_26_0,2023-05-03T20:11:01.804Z,,0,1,,3770.531999904604,response,ISIC_0653706.JPG,,ISIC_0010546.JPG,ISIC_0653706.JPG,false,1,keypress(m),500,380238,380237.59999990463,376450.687,376453.59999990463,376467.068,380250.253,8,400,27,,ISIC_0010546.JPG
break,html.Screen,4_26_1,2023-05-03T20:11:01.805Z,,0,,,NaN,,,,,,false,,,,380239.39999985695,380239,,380238.2000000477,,380250.253,8,400,,,
break_continue,html.Screen,4_26_2,2023-05-03T20:11:01.806Z,,0,,,NaN,,,,,,false,,,,380240.89999985695,380240.59999990463,,380240.2999999523,,380250.253,8,400,,,
sequence,flow.Sequence,4_26,2023-05-03T20:11:01.807Z,,0,,,3773.531999904604,completion,,,,,false,,,,380241.2000000477,380240.59999990463,376450.687,376453.5,376467.068,380250.253,8,400,,,
trial,html.Screen,4_27_0,2023-05-03T20:11:05.453Z,,0,1,,3637.04699995229,response,ISIC_9588279.JPG,,ISIC_0072507.JPG,ISIC_0072507.JPG,false,0,keypress(z),500,383887.59999990463,383887.2999999523,380234.176,380241.39999985695,380250.253,383900.354,8,400,28,,ISIC_9588279.JPG
break,html.Screen,4_27_1,2023-05-03T20:11:05.454Z,,0,,,NaN,,,,,,false,,,,383888.59999990463,383888.2999999523,,383887.7999999523,,383900.354,8,400,,,
break_continue,html.Screen,4_27_2,2023-05-03T20:11:05.455Z,,0,,,NaN,,,,,,false,,,,383889.2000000477,383889,,383888.89999985695,,383900.354,8,400,,,
sequence,flow.Sequence,4_27,2023-05-03T20:11:05.455Z,,0,,,3638.746999999974,completion,,,,,false,,,,383889.2999999523,383889,380234.176,380241.39999985695,380250.253,383900.354,8,400,,,
trial,html.Screen,4_28_0,2023-05-03T20:11:08.233Z,,0,1,,2766.445999952324,response,ISIC_0239178.JPG,,ISIC_0024846.JPG,ISIC_0239178.JPG,false,1,keypress(m),500,386667.5,386666.7999999523,383883.899,383889.5,383900.354,386683.774,8,400,29,,ISIC_0024846.JPG
break,html.Screen,4_28_1,2023-05-03T20:11:08.234Z,,0,,,NaN,,,,,,false,,,,386668.7999999523,386668.5,,386667.7000000477,,386683.774,8,400,,,
break_continue,html.Screen,4_28_2,2023-05-03T20:11:08.235Z,,0,,,NaN,,,,,,false,,,,386669.2999999523,386669.2999999523,,386668.89999985695,,386683.774,8,400,,,
sequence,flow.Sequence,4_28,2023-05-03T20:11:08.235Z,,0,,,2768.945999952324,completion,,,,,false,,,,386669.7000000477,386669.2999999523,383883.899,383889.5,383900.354,386683.774,8,400,,,
trial,html.Screen,4_29_0,2023-05-03T20:11:11.457Z,,0,1,,3207.226000000024,response,ISIC_0062031.JPG,,ISIC_8359258.JPG,ISIC_8359258.JPG,false,0,keypress(z),500,389891.39999985695,389891,386667.011,386669.7999999523,386683.774,389900.53,8,400,30,,ISIC_0062031.JPG
break,html.Screen,4_29_1,2023-05-03T20:11:11.458Z,,0,,,NaN,,,,,,false,,,,389892.7000000477,389892.2000000477,,389891.59999990463,,389900.53,8,400,,,
break_continue,html.Screen,4_29_2,2023-05-03T20:11:11.459Z,,0,,,NaN,,,,,,false,,,,389893.2000000477,389893.09999990463,,389892.7999999523,,389900.53,8,400,,,
sequence,flow.Sequence,4_29,2023-05-03T20:11:11.459Z,,0,,,3209.325999904657,completion,,,,,false,,,,389893.39999985695,389893.09999990463,386667.011,386669.7999999523,386683.774,389900.53,8,400,,,
trial,html.Screen,4_30_0,2023-05-03T20:11:15.817Z,,0,1,,4351.069999904605,response,ISIC_5287748.JPG,,ISIC_6778515.JPG,ISIC_6778515.JPG,false,0,keypress(z),500,394251.89999985695,394251.59999990463,389883.608,389893.59999990463,389900.53,394267.2,8,400,31,,ISIC_5287748.JPG
break,html.Screen,4_30_1,2023-05-03T20:11:15.819Z,,0,,,NaN,,,,,,false,,,,394253.2000000477,394252.89999985695,,394252.2000000477,,394267.2,8,400,,,
break_continue,html.Screen,4_30_2,2023-05-03T20:11:15.819Z,,0,,,NaN,,,,,,false,,,,394253.7000000477,394253.5,,394253.39999985695,,394267.2,8,400,,,
sequence,flow.Sequence,4_30,2023-05-03T20:11:15.819Z,,0,,,4352.969999999972,completion,,,,,false,,,,394253.7999999523,394253.5,389883.608,389893.59999990463,389900.53,394267.2,8,400,,,
trial,html.Screen,4_31_0,2023-05-03T20:11:19.379Z,,0,1,,3545.500000047672,response,ISIC_2394181.JPG,,ISIC_4518384.JPG,ISIC_4518384.JPG,false,0,keypress(z),500,397812.89999985695,397812.7000000477,394250.88,394254,394267.2,397817.062,8,400,32,,ISIC_2394181.JPG
break,html.Screen,4_31_1,2023-05-03T20:11:19.380Z,,0,,,NaN,,,,,,false,,,,397814.2000000477,397813.89999985695,,397813.09999990463,,397817.062,8,400,,,
break_continue,html.Screen,4_31_2,2023-05-03T20:11:19.381Z,,0,,,NaN,,,,,,false,,,,397815.09999990463,397815,,397814.7000000477,,397817.062,8,400,,,
sequence,flow.Sequence,4_31,2023-05-03T20:11:19.381Z,,0,,,3547.7999999999884,completion,,,,,false,,,,397815.2999999523,397815,394250.88,394254,394267.2,397817.062,8,400,,,
trial,html.Screen,4_32_0,2023-05-03T20:11:22.836Z,,0,1,,3452.9380000000237,response,ISIC_8007849.JPG,,ISIC_5282642.JPG,ISIC_5282642.JPG,false,0,keypress(z),500,401270.2000000477,401270,397800.694,397815.5,397817.062,401283.669,8,400,33,,ISIC_8007849.JPG
break,html.Screen,4_32_1,2023-05-03T20:11:22.837Z,,0,,,NaN,,,,,,false,,,,401271.5,401271.2000000477,,401270.5,,401283.669,8,400,,,
break_continue,html.Screen,4_32_2,2023-05-03T20:11:22.838Z,,0,,,NaN,,,,,,false,,,,401272.09999990463,401271.89999985695,,401271.7999999523,,401283.669,8,400,,,
sequence,flow.Sequence,4_32,2023-05-03T20:11:22.838Z,,0,,,3454.8379998569726,completion,,,,,false,,,,401272.39999985695,401271.89999985695,397800.694,397815.39999985695,397817.062,401283.669,8,400,,,
trial,html.Screen,4_33_0,2023-05-03T20:11:26.237Z,,0,1,,3387.7309998569544,response,ISIC_3897960.JPG,,ISIC_9008026.JPG,ISIC_9008026.JPG,false,0,keypress(z),500,404671.7999999523,404671.39999985695,401266.998,401272.59999990463,401283.669,404683.699,8,400,34,,ISIC_3897960.JPG
break,html.Screen,4_33_1,2023-05-03T20:11:26.239Z,,0,,,NaN,,,,,,false,,,,404673,404672.7000000477,,404672,,404683.699,8,400,,,
break_continue,html.Screen,4_33_2,2023-05-03T20:11:26.239Z,,0,,,NaN,,,,,,false,,,,404673.5,404673.39999985695,,404673.2000000477,,404683.699,8,400,,,
sequence,flow.Sequence,4_33,2023-05-03T20:11:26.239Z,,0,,,3389.7309998569544,completion,,,,,false,,,,404673.7000000477,404673.39999985695,401266.998,401272.5,401283.669,404683.699,8,400,,,
trial,html.Screen,4_34_0,2023-05-03T20:11:29.505Z,,0,1,,3254.90099990461,response,ISIC_0059294.JPG,,ISIC_0071180.JPG,ISIC_0059294.JPG,false,1,keypress(m),500,407938.89999985695,407938.59999990463,404666.995,404673.7999999523,404683.699,407950.35,8,400,35,,ISIC_0071180.JPG
break,html.Screen,4_34_1,2023-05-03T20:11:29.506Z,,0,,,NaN,,,,,,false,,,,407940.59999990463,407940.2000000477,,407939.2000000477,,407950.35,8,400,,,
break_continue,html.Screen,4_34_2,2023-05-03T20:11:29.507Z,,0,,,NaN,,,,,,false,,,,407941,407941,,407940.7000000477,,407950.35,8,400,,,
sequence,flow.Sequence,4_34,2023-05-03T20:11:29.507Z,,0,,,3257.3009999999776,completion,,,,,false,,,,407941.2999999523,407941,404666.995,404673.7999999523,404683.699,407950.35,8,400,,,
trial,html.Screen,4_35_0,2023-05-03T20:11:33.006Z,,0,1,,3489.6500000000233,response,ISIC_0959863.JPG,,ISIC_9433473.JPG,ISIC_0959863.JPG,false,1,keypress(m),500,411440.2999999523,411440,407934.285,407941.5,407950.35,411450.413,8,400,36,,ISIC_9433473.JPG
break,html.Screen,4_35_1,2023-05-03T20:11:33.007Z,,0,,,NaN,,,,,,false,,,,411441.7000000477,411441.5,,411440.59999990463,,411450.413,8,400,,,
break_continue,html.Screen,4_35_2,2023-05-03T20:11:33.008Z,,0,,,NaN,,,,,,false,,,,411442.2999999523,411442.2000000477,,411441.89999985695,,411450.413,8,400,,,
sequence,flow.Sequence,4_35,2023-05-03T20:11:33.008Z,,0,,,3491.850000047707,completion,,,,,false,,,,411442.5,411442.2000000477,407934.285,407941.39999985695,407950.35,411450.413,8,400,,,
trial,html.Screen,4_36_0,2023-05-03T20:11:36.135Z,,0,1,,3118.186999904632,response,ISIC_4033676.JPG,,ISIC_6440229.JPG,ISIC_6440229.JPG,false,0,keypress(z),500,414568.89999985695,414568.59999990463,411434.036,411442.7000000477,411450.413,414583.708,8,400,37,,ISIC_4033676.JPG
break,html.Screen,4_36_1,2023-05-03T20:11:36.136Z,,0,,,NaN,,,,,,false,,,,414570.39999985695,414569.89999985695,,414569.09999990463,,414583.708,8,400,,,
break_continue,html.Screen,4_36_2,2023-05-03T20:11:36.137Z,,0,,,NaN,,,,,,false,,,,414571.09999990463,414570.7999999523,,414570.59999990463,,414583.708,8,400,,,
sequence,flow.Sequence,4_36,2023-05-03T20:11:36.137Z,,0,,,3120.386999952316,completion,,,,,false,,,,414571.2999999523,414570.7999999523,411434.036,411442.59999990463,411450.413,414583.708,8,400,,,
trial,html.Screen,4_37_0,2023-05-03T20:11:41.069Z,,0,1,,4919.091999952332,response,ISIC_0057286.JPG,,ISIC_0033678.JPG,ISIC_0033678.JPG,false,0,keypress(z),500,419503.09999990463,419502.7999999523,414567.069,414571.59999990463,414583.708,419533.924,8,400,38,,ISIC_0057286.JPG
break,html.Screen,4_37_1,2023-05-03T20:11:41.072Z,,0,,,NaN,,,,,,false,,,,419505.89999985695,419505.5,,419503.39999985695,,419533.924,8,400,,,
break_continue,html.Screen,4_37_2,2023-05-03T20:11:41.073Z,,0,,,NaN,,,,,,false,,,,419506.39999985695,419506.2999999523,,419506.09999990463,,419533.924,8,400,,,
sequence,flow.Sequence,4_37,2023-05-03T20:11:41.073Z,,0,,,4922.591999952332,completion,,,,,false,,,,419506.7000000477,419506.2999999523,414567.069,414571.5,414583.708,419533.924,8,400,,,
trial,html.Screen,4_38_0,2023-05-03T20:11:45.260Z,,0,1,,4160.1759999046335,response,ISIC_0072001.JPG,,ISIC_0010729.JPG,ISIC_0010729.JPG,false,0,keypress(z),500,423694.2999999523,423694.09999990463,419517.276,419506.89999985695,419533.924,423700.442,8,400,39,,ISIC_0072001.JPG
break,html.Screen,4_38_1,2023-05-03T20:11:45.262Z,,0,,,NaN,,,,,,false,,,,423695.7000000477,423695.39999985695,,423694.59999990463,,423700.442,8,400,,,
break_continue,html.Screen,4_38_2,2023-05-03T20:11:45.262Z,,0,,,NaN,,,,,,false,,,,423696.2000000477,423696,,423695.89999985695,,423700.442,8,400,,,
sequence,flow.Sequence,4_38,2023-05-03T20:11:45.263Z,,0,,,4162.076000000001,completion,,,,,false,,,,423696.5,423696,419517.276,419506.7999999523,419533.924,423700.442,8,400,,,
trial,html.Screen,4_39_0,2023-05-03T20:11:51.136Z,,0,1,,5868.758000047703,response,ISIC_9096302.JPG,,ISIC_9169586.JPG,ISIC_9096302.JPG,false,1,keypress(m),500,429569.5,429569.2000000477,423684.215,423696.59999990463,423700.442,429583.768,8,400,40,,ISIC_9169586.JPG
break,html.Screen,4_39_1,2023-05-03T20:11:51.137Z,,0,,,NaN,,,,,,false,,,,429570.7999999523,429570.5,,429569.7000000477,,429583.768,8,400,,,
break_continue,html.Screen,4_39_2,2023-05-03T20:11:51.137Z,,0,,,NaN,,,,,,false,,,,429571.39999985695,429571.2000000477,,429570.89999985695,,429583.768,8,400,,,
sequence,flow.Sequence,4_39,2023-05-03T20:11:51.138Z,,0,,,5870.758000047703,completion,,,,,false,,,,429571.5,429571.2000000477,423684.215,423696.5,423700.442,429583.768,8,400,,,
trial,html.Screen,4_40_0,2023-05-03T20:11:55.075Z,,0,1,,3925.131999856967,response,ISIC_0010023.JPG,,ISIC_0010965.JPG,ISIC_0010965.JPG,false,0,keypress(z),500,433509.2000000477,433508.89999985695,429567.417,429571.7000000477,429583.768,433517.199,8,400,41,,ISIC_0010023.JPG
break,html.Screen,4_40_1,2023-05-03T20:11:55.077Z,,0,,,NaN,,,,,,false,,,,433510.59999990463,433510.2999999523,,433509.39999985695,,433517.199,8,400,,,
break_continue,html.Screen,4_40_2,2023-05-03T20:11:55.077Z,,0,,,NaN,,,,,,false,,,,433511.2000000477,433511.09999990463,,433510.7000000477,,433517.199,8,400,,,
sequence,flow.Sequence,4_40,2023-05-03T20:11:55.078Z,,0,,,3927.3319999046507,completion,,,,,false,,,,433511.5,433511.09999990463,429567.417,429571.59999990463,429583.768,433517.199,8,400,,,
trial,html.Screen,4_41_0,2023-05-03T20:11:58.577Z,,0,1,,3493.5010000476614,response,ISIC_8910589.JPG,,ISIC_0061336.JPG,ISIC_8910589.JPG,false,1,keypress(m),500,437010.89999985695,437010.7000000477,433500.439,433511.5,433517.199,437017.13,8,400,42,,ISIC_0061336.JPG
break,html.Screen,4_41_1,2023-05-03T20:11:58.578Z,,0,,,NaN,,,,,,false,,,,437012.2999999523,437012.09999990463,,437011.09999990463,,437017.13,8,400,,,
break_continue,html.Screen,4_41_2,2023-05-03T20:11:58.579Z,,0,,,NaN,,,,,,false,,,,437012.89999985695,437012.7000000477,,437012.5,,437017.13,8,400,,,
sequence,flow.Sequence,4_41,2023-05-03T20:11:58.579Z,,0,,,3495.5010000476614,completion,,,,,false,,,,437013,437012.7000000477,433500.439,433511.5,433517.199,437017.13,8,400,,,
trial,html.Screen,4_42_0,2023-05-03T20:12:02.054Z,,0,1,,3470.070000047679,response,ISIC_0065313.JPG,,ISIC_1327515.JPG,ISIC_1327515.JPG,false,0,keypress(z),500,440487.5,440487.2000000477,437000.535,437013.2000000477,437017.13,440500.542,8,400,43,,ISIC_0065313.JPG
break,html.Screen,4_42_1,2023-05-03T20:12:02.055Z,,0,,,NaN,,,,,,false,,,,440488.89999985695,440488.39999985695,,440487.7000000477,,440500.542,8,400,,,
break_continue,html.Screen,4_42_2,2023-05-03T20:12:02.056Z,,0,,,NaN,,,,,,false,,,,440489.59999990463,440489.5,,440489.2000000477,,440500.542,8,400,,,
sequence,flow.Sequence,4_42,2023-05-03T20:12:02.056Z,,0,,,3472.3699999999953,completion,,,,,false,,,,440490.2000000477,440489.5,437000.535,437013.2000000477,437017.13,440500.542,8,400,,,
trial,html.Screen,4_43_0,2023-05-03T20:12:04.722Z,,0,1,,2654.957999999984,response,ISIC_9130157.JPG,,ISIC_0061183.JPG,ISIC_9130157.JPG,false,1,keypress(m),500,443155.7999999523,443155.5,440484.925,440490.39999985695,440500.542,443167.137,8,400,44,,ISIC_0061183.JPG
break,html.Screen,4_43_1,2023-05-03T20:12:04.723Z,,0,,,NaN,,,,,,false,,,,443157,443156.7999999523,,443156,,443167.137,8,400,,,
break_continue,html.Screen,4_43_2,2023-05-03T20:12:04.724Z,,0,,,NaN,,,,,,false,,,,443157.5,443157.39999985695,,443157.2000000477,,443167.137,8,400,,,
sequence,flow.Sequence,4_43,2023-05-03T20:12:04.724Z,,0,,,2656.857999856933,completion,,,,,false,,,,443157.7000000477,443157.39999985695,440484.925,440490.39999985695,440500.542,443167.137,8,400,,,
trial,html.Screen,4_44_0,2023-05-03T20:12:08.024Z,,0,1,,3290.4629999046447,response,ISIC_6694724.JPG,,ISIC_0024586.JPG,ISIC_0024586.JPG,false,0,keypress(z),500,446458,446457.59999990463,443150.743,443157.7999999523,443167.137,446467.263,8,400,45,,ISIC_6694724.JPG
break,html.Screen,4_44_1,2023-05-03T20:12:08.026Z,,0,,,NaN,,,,,,false,,,,446459.5,446459.2000000477,,446458.2999999523,,446467.263,8,400,,,
break_continue,html.Screen,4_44_2,2023-05-03T20:12:08.026Z,,0,,,NaN,,,,,,false,,,,446459.89999985695,446459.7999999523,,446459.59999990463,,446467.263,8,400,,,
sequence,flow.Sequence,4_44,2023-05-03T20:12:08.026Z,,0,,,3292.6629999523284,completion,,,,,false,,,,446460.09999990463,446459.7999999523,443150.743,443157.7999999523,443167.137,446467.263,8,400,,,
trial,html.Screen,4_45_0,2023-05-03T20:12:10.921Z,,0,1,,2887.536999952339,response,ISIC_3389695.JPG,,ISIC_0030833.JPG,ISIC_3389695.JPG,false,1,keypress(m),500,449355.09999990463,449354.7999999523,446450.647,446460.39999985695,446467.263,449367.187,8,400,46,,ISIC_0030833.JPG
break,html.Screen,4_45_1,2023-05-03T20:12:10.923Z,,0,,,NaN,,,,,,false,,,,449356.39999985695,449356.09999990463,,449355.2999999523,,449367.187,8,400,,,
break_continue,html.Screen,4_45_2,2023-05-03T20:12:10.923Z,,0,,,NaN,,,,,,false,,,,449356.89999985695,449356.7000000477,,449356.59999990463,,449367.187,8,400,,,
sequence,flow.Sequence,4_45,2023-05-03T20:12:10.923Z,,0,,,2889.4370000477065,completion,,,,,false,,,,449357,449356.7000000477,446450.647,446460.2000000477,446467.263,449367.187,8,400,,,
trial,html.Screen,4_46_0,2023-05-03T20:12:14.241Z,,0,1,,3306.9129999046563,response,ISIC_0009993.JPG,,ISIC_7759913.JPG,ISIC_7759913.JPG,false,0,keypress(z),500,452674.39999985695,452674.09999990463,449350.616,449357.2000000477,449367.187,452683.854,8,400,47,,ISIC_0009993.JPG
break,html.Screen,4_46_1,2023-05-03T20:12:14.242Z,,0,,,NaN,,,,,,false,,,,452675.7999999523,452675.39999985695,,452674.59999990463,,452683.854,8,400,,,
break_continue,html.Screen,4_46_2,2023-05-03T20:12:14.242Z,,0,,,NaN,,,,,,false,,,,452676.2999999523,452676.09999990463,,452675.89999985695,,452683.854,8,400,,,
sequence,flow.Sequence,4_46,2023-05-03T20:12:14.243Z,,0,,,3308.9129999046563,completion,,,,,false,,,,452676.5,452676.09999990463,449350.616,449357.09999990463,449367.187,452683.854,8,400,,,
trial,html.Screen,4_47_0,2023-05-03T20:12:17.938Z,,0,1,,3688.0459998569568,response,ISIC_1306790.JPG,,ISIC_0033204.JPG,ISIC_1306790.JPG,false,1,keypress(m),500,456372.2999999523,456371.89999985695,452667.796,452676.7000000477,452683.854,456383.935,8,400,48,,ISIC_0033204.JPG
break,html.Screen,4_47_1,2023-05-03T20:12:17.940Z,,0,,,NaN,,,,,,false,,,,456373.7000000477,456373.2999999523,,456372.59999990463,,456383.935,8,400,,,
break_continue,html.Screen,4_47_2,2023-05-03T20:12:17.940Z,,0,,,NaN,,,,,,false,,,,456374.2000000477,456374,,456373.7999999523,,456383.935,8,400,,,
sequence,flow.Sequence,4_47,2023-05-03T20:12:17.940Z,,0,,,3690.146000000008,completion,,,,,false,,,,456374.2999999523,456374,452667.796,452676.59999990463,452683.854,456383.935,8,400,,,
trial,html.Screen,4_48_0,2023-05-03T20:12:20.843Z,,0,1,,2892.164999904635,response,ISIC_3819893.JPG,,ISIC_0056330.JPG,ISIC_3819893.JPG,false,1,keypress(m),500,459276.59999990463,459276.09999990463,456367.328,456374.5,456383.935,459283.919,8,400,49,,ISIC_0056330.JPG
break,html.Screen,4_48_1,2023-05-03T20:12:20.844Z,,0,,,NaN,,,,,,false,,,,459278,459277.7999999523,,459276.89999985695,,459283.919,8,400,,,
break_continue,html.Screen,4_48_2,2023-05-03T20:12:20.845Z,,0,,,NaN,,,,,,false,,,,459278.59999990463,459278.5,,459278.2000000477,,459283.919,8,400,,,
sequence,flow.Sequence,4_48,2023-05-03T20:12:20.845Z,,0,,,2894.5650000000023,completion,,,,,false,,,,459278.7999999523,459278.5,456367.328,456374.5,456383.935,459283.919,8,400,,,
trial,html.Screen,4_49_0,2023-05-03T20:12:24.099Z,,0,1,,3248.4809998569544,response,ISIC_0032052.JPG,,ISIC_0026244.JPG,ISIC_0032052.JPG,false,1,keypress(m),500,462532.7000000477,462532.39999985695,459267.393,459279,459283.919,462551.464,8,400,50,,ISIC_0026244.JPG
break,html.Screen,4_49_1,2023-05-03T20:12:29.102Z,,0,,,4999.119999999995,timeout,,,,,false,,,,467535.39999985695,467534.606,462517.166,462532.7999999523,462551.464,467550.584,8,400,,,
break_continue,html.Screen,4_49_2,2023-05-03T20:12:29.978Z,,0,,,844.5159999046591,response,,,,,false,continue,keypress(Space),,468411.7000000477,468395.09999990463,467534.606,467535.59999990463,467550.584,468417.234,8,400,,,
sequence,flow.Sequence,4_49,2023-05-03T20:12:29.978Z,,0,,,9111.180999904638,completion,,,,,false,,,,468411.7999999523,468395.09999990463,459267.393,459278.89999985695,459283.919,468417.234,8,400,,,
trial,html.Screen,4_50_0,2023-05-03T20:12:33.411Z,,0,2,,3426.865999904636,response,ISIC_9547089.JPG,,ISIC_3513367.JPG,ISIC_9547089.JPG,false,1,keypress(m),500,471844.39999985695,471844.09999990463,468400.645,468411.89999985695,468417.234,471850.633,8,400,1,,ISIC_3513367.JPG
break,html.Screen,4_50_1,2023-05-03T20:12:33.413Z,,0,,,NaN,,,,,,false,,,,471846.7999999523,471846.39999985695,,471844.59999990463,,471850.633,8,400,,,
break_continue,html.Screen,4_50_2,2023-05-03T20:12:33.414Z,,0,,,NaN,,,,,,false,,,,471847.39999985695,471847.2000000477,,471847,,471850.633,8,400,,,
sequence,flow.Sequence,4_50,2023-05-03T20:12:33.414Z,,0,,,3429.966000047687,completion,,,,,false,,,,471847.5,471847.2000000477,468400.645,468411.89999985695,468417.234,471850.633,8,400,,,
trial,html.Screen,4_51_0,2023-05-03T20:12:36.503Z,,0,2,,3085.7669998569763,response,ISIC_0026272.JPG,,ISIC_0000046.JPG,ISIC_0000046.JPG,false,0,keypress(z),500,474936.7000000477,474936.39999985695,471834.056,471847.7000000477,471850.633,474950.9,8,400,2,,ISIC_0026272.JPG
break,html.Screen,4_51_1,2023-05-03T20:12:36.504Z,,0,,,NaN,,,,,,false,,,,474938.2000000477,474937.89999985695,,474937,,474950.9,8,400,,,
break_continue,html.Screen,4_51_2,2023-05-03T20:12:36.505Z,,0,,,NaN,,,,,,false,,,,474938.7999999523,474938.59999990463,,474938.39999985695,,474950.9,8,400,,,
sequence,flow.Sequence,4_51,2023-05-03T20:12:36.505Z,,0,,,3087.96699990466,completion,,,,,false,,,,474939,474938.59999990463,471834.056,471847.7000000477,471850.633,474950.9,8,400,,,
trial,html.Screen,4_52_0,2023-05-03T20:12:39.191Z,,0,2,,2673.5999999999767,response,ISIC_0010960.JPG,,ISIC_0000159.JPG,ISIC_0010960.JPG,false,1,keypress(m),500,477624.7000000477,477624.5,474934.17,474939.2000000477,474950.9,477634.17,8,400,3,,ISIC_0000159.JPG
break,html.Screen,4_52_1,2023-05-03T20:12:39.192Z,,0,,,NaN,,,,,,false,,,,477626,477625.7999999523,,477624.89999985695,,477634.17,8,400,,,
break_continue,html.Screen,4_52_2,2023-05-03T20:12:39.193Z,,0,,,NaN,,,,,,false,,,,477626.5,477626.39999985695,,477626.2000000477,,477634.17,8,400,,,
sequence,flow.Sequence,4_52,2023-05-03T20:12:39.193Z,,0,,,2675.4999998569256,completion,,,,,false,,,,477626.7000000477,477626.39999985695,474934.17,474939.09999990463,474950.9,477634.17,8,400,,,
trial,html.Screen,4_53_0,2023-05-03T20:12:43.380Z,,0,2,,4179.729999856965,response,ISIC_1452549.JPG,,ISIC_0009738.JPG,ISIC_0009738.JPG,false,0,keypress(z),500,481814.09999990463,481813.89999985695,477617.436,477626.7999999523,477634.17,481817.352,8,400,4,,ISIC_1452549.JPG
break,html.Screen,4_53_1,2023-05-03T20:12:43.381Z,,0,,,NaN,,,,,,false,,,,481815.09999990463,481814.7999999523,,481814.2999999523,,481817.352,8,400,,,
break_continue,html.Screen,4_53_2,2023-05-03T20:12:43.382Z,,0,,,NaN,,,,,,false,,,,481815.5,481815.5,,481815.2999999523,,481817.352,8,400,,,
sequence,flow.Sequence,4_53,2023-05-03T20:12:43.382Z,,0,,,4181.330000000016,completion,,,,,false,,,,481815.7000000477,481815.5,477617.436,477626.7999999523,477634.17,481817.352,8,400,,,
trial,html.Screen,4_54_0,2023-05-03T20:12:46.501Z,,0,2,,3116.447999952303,response,ISIC_0072837.JPG,,ISIC_9087221.JPG,ISIC_9087221.JPG,false,0,keypress(z),500,484934.59999990463,484933.7999999523,481800.678,481816.39999985695,481817.352,484950.718,8,400,5,,ISIC_0072837.JPG
break,html.Screen,4_54_1,2023-05-03T20:12:46.502Z,,0,,,NaN,,,,,,false,,,,484935.89999985695,484935.59999990463,,484934.89999985695,,484950.718,8,400,,,
break_continue,html.Screen,4_54_2,2023-05-03T20:12:46.502Z,,0,,,NaN,,,,,,false,,,,484936.2999999523,484936.2999999523,,484936,,484950.718,8,400,,,
sequence,flow.Sequence,4_54,2023-05-03T20:12:46.503Z,,0,,,3118.947999952303,completion,,,,,false,,,,484936.59999990463,484936.2999999523,481800.678,481816.2999999523,481817.352,484950.718,8,400,,,
trial,html.Screen,4_55_0,2023-05-03T20:12:49.862Z,,0,2,,3345.2820000000065,response,ISIC_5738369.JPG,,ISIC_0057307.JPG,ISIC_5738369.JPG,false,1,keypress(m),500,488296.2999999523,488296,484933.917,484936.59999990463,484950.718,488300.652,8,400,6,,ISIC_0057307.JPG
break,html.Screen,4_55_1,2023-05-03T20:12:49.864Z,,0,,,NaN,,,,,,false,,,,488297.5,488297.2999999523,,488296.5,,488300.652,8,400,,,
break_continue,html.Screen,4_55_2,2023-05-03T20:12:49.864Z,,0,,,NaN,,,,,,false,,,,488298.09999990463,488297.89999985695,,488297.7000000477,,488300.652,8,400,,,
sequence,flow.Sequence,4_55,2023-05-03T20:12:49.864Z,,0,,,3347.1819998569554,completion,,,,,false,,,,488298.2000000477,488297.89999985695,484933.917,484936.59999990463,484950.718,488300.652,8,400,,,
trial,html.Screen,4_56_0,2023-05-03T20:12:53.108Z,,0,2,,3240.548000047682,response,ISIC_8095877.JPG,,ISIC_0034090.JPG,ISIC_0034090.JPG,false,0,keypress(z),500,491541.39999985695,491541.2000000477,488284.335,488298.39999985695,488300.652,491551.227,8,400,7,,ISIC_8095877.JPG
break,html.Screen,4_56_1,2023-05-03T20:12:53.109Z,,0,,,NaN,,,,,,false,,,,491542.7999999523,491542.59999990463,,491541.7000000477,,491551.227,8,400,,,
break_continue,html.Screen,4_56_2,2023-05-03T20:12:53.111Z,,0,,,NaN,,,,,,false,,,,491544.59999990463,491544.2000000477,,491543.39999985695,,491551.227,8,400,,,
sequence,flow.Sequence,4_56,2023-05-03T20:12:53.111Z,,0,,,3243.548000047682,completion,,,,,false,,,,491545,491544.2000000477,488284.335,488298.2999999523,488300.652,491551.227,8,400,,,
trial,html.Screen,4_57_0,2023-05-03T20:12:55.074Z,,0,2,,1956.372999904619,response,ISIC_2231191.JPG,,ISIC_0029913.JPG,ISIC_0029913.JPG,false,0,keypress(z),500,493507.89999985695,493507.59999990463,491534.093,491545.2000000477,491551.227,493534.089,8,400,8,,ISIC_2231191.JPG
break,html.Screen,4_57_1,2023-05-03T20:12:55.075Z,,0,,,NaN,,,,,,false,,,,493508.89999985695,493508.59999990463,,493508.09999990463,,493534.089,8,400,,,
break_continue,html.Screen,4_57_2,2023-05-03T20:12:55.075Z,,0,,,NaN,,,,,,false,,,,493509.39999985695,493509.2999999523,,493509,,493534.089,8,400,,,
sequence,flow.Sequence,4_57,2023-05-03T20:12:55.076Z,,0,,,1958.0729999523028,completion,,,,,false,,,,493509.59999990463,493509.2999999523,491534.093,491545.2000000477,491551.227,493534.089,8,400,,,
trial,html.Screen,4_58_0,2023-05-03T20:12:57.821Z,,0,2,,2720.911000000022,response,ISIC_0028175.JPG,,ISIC_0001104.JPG,ISIC_0028175.JPG,false,1,keypress(m),500,496255.2000000477,496255,493517.418,493509.7999999523,493534.089,496267.478,8,400,9,,ISIC_0001104.JPG
break,html.Screen,4_58_1,2023-05-03T20:12:57.823Z,,0,,,NaN,,,,,,false,,,,496256.5,496256.2000000477,,496255.59999990463,,496267.478,8,400,,,
break_continue,html.Screen,4_58_2,2023-05-03T20:12:57.823Z,,0,,,NaN,,,,,,false,,,,496257.09999990463,496256.89999985695,,496256.7000000477,,496267.478,8,400,,,
sequence,flow.Sequence,4_58,2023-05-03T20:12:57.823Z,,0,,,2722.8109998569707,completion,,,,,false,,,,496257.2999999523,496256.89999985695,493517.418,493509.7000000477,493534.089,496267.478,8,400,,,
trial,html.Screen,4_59_0,2023-05-03T20:13:03.012Z,,0,2,,5178.12199990463,response,ISIC_0862350.JPG,,ISIC_5238649.JPG,ISIC_0862350.JPG,false,1,keypress(m),500,501445.7999999523,501445.59999990463,496250.813,496257.39999985695,496267.478,501450.717,8,400,10,,ISIC_5238649.JPG
break,html.Screen,4_59_1,2023-05-03T20:13:03.013Z,,0,,,NaN,,,,,,false,,,,501447.09999990463,501446.89999985695,,501446.09999990463,,501450.717,8,400,,,
break_continue,html.Screen,4_59_2,2023-05-03T20:13:03.014Z,,0,,,NaN,,,,,,false,,,,501447.7000000477,501447.59999990463,,501447.2999999523,,501450.717,8,400,,,
sequence,flow.Sequence,4_59,2023-05-03T20:13:03.014Z,,0,,,5180.12199990463,completion,,,,,false,,,,501447.89999985695,501447.59999990463,496250.813,496257.39999985695,496267.478,501450.717,8,400,,,
trial,html.Screen,4_60_0,2023-05-03T20:13:05.703Z,,0,2,,2685.582999952312,response,ISIC_0033619.JPG,,ISIC_7484771.JPG,ISIC_0033619.JPG,false,1,keypress(m),500,504136.7000000477,504136.2999999523,501434.228,501448,501450.717,504150.954,8,400,11,,ISIC_7484771.JPG
break,html.Screen,4_60_1,2023-05-03T20:13:05.704Z,,0,,,NaN,,,,,,false,,,,504137.89999985695,504137.59999990463,,504137,,504150.954,8,400,,,
break_continue,html.Screen,4_60_2,2023-05-03T20:13:05.705Z,,0,,,NaN,,,,,,false,,,,504138.5,504138.39999985695,,504138.2000000477,,504150.954,8,400,,,
sequence,flow.Sequence,4_60,2023-05-03T20:13:05.705Z,,0,,,2687.6829998569447,completion,,,,,false,,,,504138.7000000477,504138.39999985695,501434.228,501448,501450.717,504150.954,8,400,,,
trial,html.Screen,4_61_0,2023-05-03T20:13:12.387Z,,0,2,,6669.345999952289,response,ISIC_0065264.JPG,,ISIC_0009882.JPG,ISIC_0065264.JPG,false,1,keypress(m),500,510820.59999990463,510820.2999999523,504134.227,504138.7999999523,504150.954,510834.151,8,400,12,,ISIC_0009882.JPG
break,html.Screen,4_61_1,2023-05-03T20:13:12.388Z,,0,,,NaN,,,,,,false,,,,510821.89999985695,510821.7000000477,,510820.89999985695,,510834.151,8,400,,,
break_continue,html.Screen,4_61_2,2023-05-03T20:13:12.389Z,,0,,,NaN,,,,,,false,,,,510822.5,510822.39999985695,,510822.09999990463,,510834.151,8,400,,,
sequence,flow.Sequence,4_61,2023-05-03T20:13:12.389Z,,0,,,6671.445999856922,completion,,,,,false,,,,510822.7000000477,510822.39999985695,504134.227,504138.7999999523,504150.954,510834.151,8,400,,,
trial,html.Screen,4_62_0,2023-05-03T20:13:18.485Z,,0,2,,6084.148999952304,response,ISIC_5675703.JPG,,ISIC_7732765.JPG,ISIC_5675703.JPG,false,1,keypress(m),500,516918.7000000477,516918.2999999523,510817.66,510822.89999985695,510834.151,516934.201,8,400,13,,ISIC_7732765.JPG
break,html.Screen,4_62_1,2023-05-03T20:13:18.486Z,,0,,,NaN,,,,,,false,,,,516920.2999999523,516920.09999990463,,516919,,516934.201,8,400,,,
break_continue,html.Screen,4_62_2,2023-05-03T20:13:18.487Z,,0,,,NaN,,,,,,false,,,,516920.89999985695,516920.7000000477,,516920.5,,516934.201,8,400,,,
sequence,flow.Sequence,4_62,2023-05-03T20:13:18.487Z,,0,,,6086.549000047671,completion,,,,,false,,,,516921.2000000477,516920.7000000477,510817.66,510822.7999999523,510834.151,516934.201,8,400,,,
trial,html.Screen,4_63_0,2023-05-03T20:13:21.202Z,,0,2,,2701.298999999999,response,ISIC_0064907.JPG,,ISIC_4241907.JPG,ISIC_4241907.JPG,false,0,keypress(z),500,519635.7999999523,519635.5,516917.524,516921.2999999523,516934.201,519650.855,8,400,14,,ISIC_0064907.JPG
break,html.Screen,4_63_1,2023-05-03T20:13:21.203Z,,0,,,NaN,,,,,,false,,,,519637.2999999523,519637,,519636.09999990463,,519650.855,8,400,,,
break_continue,html.Screen,4_63_2,2023-05-03T20:13:21.204Z,,0,,,NaN,,,,,,false,,,,519637.89999985695,519637.59999990463,,519637.39999985695,,519650.855,8,400,,,
sequence,flow.Sequence,4_63,2023-05-03T20:13:21.204Z,,0,,,2703.3989999046316,completion,,,,,false,,,,519638,519637.59999990463,516917.524,516921.2999999523,516934.201,519650.855,8,400,,,
trial,html.Screen,4_64_0,2023-05-03T20:13:24.724Z,,0,2,,3506.8450000477023,response,ISIC_3989526.JPG,,ISIC_9788174.JPG,ISIC_3989526.JPG,false,1,keypress(m),500,523158.09999990463,523157.7000000477,519634.424,519638.2999999523,519650.855,523167.62,8,400,15,,ISIC_9788174.JPG
break,html.Screen,4_64_1,2023-05-03T20:13:24.726Z,,0,,,NaN,,,,,,false,,,,523159.39999985695,523159.09999990463,,523158.2999999523,,523167.62,8,400,,,
break_continue,html.Screen,4_64_2,2023-05-03T20:13:24.726Z,,0,,,NaN,,,,,,false,,,,523160.09999990463,523159.89999985695,,523159.7000000477,,523167.62,8,400,,,
sequence,flow.Sequence,4_64,2023-05-03T20:13:24.726Z,,0,,,3509.0449998569675,completion,,,,,false,,,,523160.2000000477,523159.89999985695,519634.424,519638.2000000477,519650.855,523167.62,8,400,,,
trial,html.Screen,4_65_0,2023-05-03T20:13:27.390Z,,0,2,,2655.7799998569535,response,ISIC_0024894.JPG,,ISIC_2331656.JPG,ISIC_2331656.JPG,false,0,keypress(z),500,525823.5999999046,525823.399999857,523151.092,523160.39999985695,523167.62,525834.357,8,400,16,,ISIC_0024894.JPG
break,html.Screen,4_65_1,2023-05-03T20:13:27.391Z,,0,,,NaN,,,,,,false,,,,525825,525824.7999999523,,525823.899999857,,525834.357,8,400,,,
break_continue,html.Screen,4_65_2,2023-05-03T20:13:27.392Z,,0,,,NaN,,,,,,false,,,,525826.2000000477,525825.899999857,,525825.2000000477,,525834.357,8,400,,,
sequence,flow.Sequence,4_65,2023-05-03T20:13:27.392Z,,0,,,2658.2799998569535,completion,,,,,false,,,,525826.399999857,525825.899999857,523151.092,523160.39999985695,523167.62,525834.357,8,400,,,
trial,html.Screen,4_66_0,2023-05-03T20:13:29.992Z,,0,2,,2590.64300000004,response,ISIC_0027822.JPG,,ISIC_0026993.JPG,ISIC_0027822.JPG,false,1,keypress(m),500,528425.399999857,528425,525817.659,525826.5,525834.357,528434.158,8,400,17,,ISIC_0026993.JPG
break,html.Screen,4_66_1,2023-05-03T20:13:29.993Z,,0,,,NaN,,,,,,false,,,,528427,528426.7000000477,,528425.899999857,,528434.158,8,400,,,
break_continue,html.Screen,4_66_2,2023-05-03T20:13:29.994Z,,0,,,NaN,,,,,,false,,,,528427.5999999046,528427.5,,528427.2000000477,,528434.158,8,400,,,
sequence,flow.Sequence,4_66,2023-05-03T20:13:29.994Z,,0,,,2593.14300000004,completion,,,,,false,,,,528427.7999999523,528427.5,525817.659,525826.5,525834.357,528434.158,8,400,,,
trial,html.Screen,4_67_0,2023-05-03T20:13:33.116Z,,0,2,,3115.1419999522623,response,ISIC_7798403.JPG,,ISIC_1159891.JPG,ISIC_1159891.JPG,false,0,keypress(z),500,531549.5999999046,531549.2999999523,528417.655,528428,528434.158,531573.592,8,400,18,,ISIC_7798403.JPG
break,html.Screen,4_67_1,2023-05-03T20:13:33.117Z,,0,,,NaN,,,,,,false,,,,531551.0999999046,531550.5999999046,,531549.7000000477,,531573.592,8,400,,,
break_continue,html.Screen,4_67_2,2023-05-03T20:13:33.118Z,,0,,,NaN,,,,,,false,,,,531552,531551.7999999523,,531551.399999857,,531573.592,8,400,,,
sequence,flow.Sequence,4_67,2023-05-03T20:13:33.118Z,,0,,,3117.6419999522623,completion,,,,,false,,,,531552.2999999523,531551.7999999523,528417.655,528428,528434.158,531573.592,8,400,,,
trial,html.Screen,4_68_0,2023-05-03T20:13:37.904Z,,0,2,,4763.908000000054,response,ISIC_0033640.JPG,,ISIC_0010478.JPG,ISIC_0010478.JPG,false,0,keypress(z),500,536337.7999999523,536337.5,531534.371,531552.399999857,531573.592,536351.082,8,400,19,,ISIC_0033640.JPG
break,html.Screen,4_68_1,2023-05-03T20:13:37.905Z,,0,,,NaN,,,,,,false,,,,536339.0999999046,536338.7999999523,,536338,,536351.082,8,400,,,
break_continue,html.Screen,4_68_2,2023-05-03T20:13:37.906Z,,0,,,NaN,,,,,,false,,,,536339.5,536339.399999857,,536339.2000000477,,536351.082,8,400,,,
sequence,flow.Sequence,4_68,2023-05-03T20:13:37.906Z,,0,,,4765.807999857003,completion,,,,,false,,,,536339.7000000477,536339.399999857,531534.371,531552.399999857,531573.592,536351.082,8,400,,,
trial,html.Screen,4_69_0,2023-05-03T20:13:40.887Z,,0,2,,2969.0179999045795,response,ISIC_2768787.JPG,,ISIC_0063655.JPG,ISIC_2768787.JPG,false,1,keypress(m),500,539320.5,539320.0999999046,536334.33,536339.899999857,536351.082,539334.175,8,400,20,,ISIC_0063655.JPG
break,html.Screen,4_69_1,2023-05-03T20:13:40.888Z,,0,,,NaN,,,,,,false,,,,539322,539321.7000000477,,539320.7999999523,,539334.175,8,400,,,
break_continue,html.Screen,4_69_2,2023-05-03T20:13:40.889Z,,0,,,NaN,,,,,,false,,,,539322.7999999523,539322.5999999046,,539322.2999999523,,539334.175,8,400,,,
sequence,flow.Sequence,4_69,2023-05-03T20:13:40.889Z,,0,,,2971.5179999045795,completion,,,,,false,,,,539323.0999999046,539322.5999999046,536334.33,536339.899999857,536351.082,539334.175,8,400,,,
trial,html.Screen,4_70_0,2023-05-03T20:13:43.987Z,,0,2,,3086.424999904586,response,ISIC_2152875.JPG,,ISIC_0032968.JPG,ISIC_2152875.JPG,false,1,keypress(m),500,542420.899999857,542420.5999999046,539317.851,539323.2999999523,539334.175,542434.427,8,400,21,,ISIC_0032968.JPG
break,html.Screen,4_70_1,2023-05-03T20:13:43.988Z,,0,,,NaN,,,,,,false,,,,542422.2000000477,542421.899999857,,542421.2000000477,,542434.427,8,400,,,
break_continue,html.Screen,4_70_2,2023-05-03T20:13:43.989Z,,0,,,NaN,,,,,,false,,,,542422.5999999046,542422.5,,542422.2999999523,,542434.427,8,400,,,
sequence,flow.Sequence,4_70,2023-05-03T20:13:43.989Z,,0,,,3088.3249999999534,completion,,,,,false,,,,542422.7999999523,542422.5,539317.851,539323.2000000477,539334.175,542434.427,8,400,,,
trial,html.Screen,4_71_0,2023-05-03T20:13:47.263Z,,0,2,,3261.9729998569237,response,ISIC_0068776.JPG,,ISIC_2050638.JPG,ISIC_2050638.JPG,false,0,keypress(z),500,545696.7000000477,545696.399999857,542417.654,542423,542434.427,545700.892,8,400,22,,ISIC_0068776.JPG
break,html.Screen,4_71_1,2023-05-03T20:13:47.264Z,,0,,,NaN,,,,,,false,,,,545698,545697.7000000477,,545697,,545700.892,8,400,,,
break_continue,html.Screen,4_71_2,2023-05-03T20:13:47.265Z,,0,,,NaN,,,,,,false,,,,545698.5,545698.399999857,,545698.2000000477,,545700.892,8,400,,,
sequence,flow.Sequence,4_71,2023-05-03T20:13:47.265Z,,0,,,3263.9729998569237,completion,,,,,false,,,,545698.7000000477,545698.399999857,542417.654,542422.899999857,542434.427,545700.892,8,400,,,
trial,html.Screen,4_72_0,2023-05-03T20:13:50.258Z,,0,2,,2990.20799990464,response,ISIC_6019374.JPG,,ISIC_0525687.JPG,ISIC_0525687.JPG,false,0,keypress(z),500,548691.399999857,548691.0999999046,545684.439,545698.7999999523,545700.892,548700.975,8,400,23,,ISIC_6019374.JPG
break,html.Screen,4_72_1,2023-05-03T20:13:50.259Z,,0,,,NaN,,,,,,false,,,,548692.5,548692.2000000477,,548691.5999999046,,548700.975,8,400,,,
break_continue,html.Screen,4_72_2,2023-05-03T20:13:50.259Z,,0,,,NaN,,,,,,false,,,,548692.899999857,548692.7999999523,,548692.7000000477,,548700.975,8,400,,,
sequence,flow.Sequence,4_72,2023-05-03T20:13:50.259Z,,0,,,2991.9079999523237,completion,,,,,false,,,,548693.0999999046,548692.7999999523,545684.439,545698.7999999523,545700.892,548700.975,8,400,,,
trial,html.Screen,4_73_0,2023-05-03T20:13:53.253Z,,0,2,,2985.624999904656,response,ISIC_0919467.JPG,,ISIC_0027060.JPG,ISIC_0919467.JPG,false,1,keypress(m),500,551686.7999999523,551686.5999999046,548684.403,548693.2000000477,548700.975,551700.938,8,400,24,,ISIC_0027060.JPG
break,html.Screen,4_73_1,2023-05-03T20:13:53.254Z,,0,,,NaN,,,,,,false,,,,551687.899999857,551687.7000000477,,551687.0999999046,,551700.938,8,400,,,
break_continue,html.Screen,4_73_2,2023-05-03T20:13:53.255Z,,0,,,NaN,,,,,,false,,,,551688.2999999523,551688.2000000477,,551688,,551700.938,8,400,,,
sequence,flow.Sequence,4_73,2023-05-03T20:13:53.255Z,,0,,,2987.225000047707,completion,,,,,false,,,,551688.5,551688.2000000477,548684.403,548693.2000000477,548700.975,551700.938,8,400,,,
trial,html.Screen,4_74_0,2023-05-03T20:13:56.087Z,,0,2,,2819.762000047718,response,ISIC_0053742.JPG,,ISIC_1189461.JPG,ISIC_1189461.JPG,false,0,keypress(z),500,554521,554520.7000000477,551684.51,551688.5999999046,551700.938,554534.428,8,400,25,,ISIC_0053742.JPG
break,html.Screen,4_74_1,2023-05-03T20:13:56.089Z,,0,,,NaN,,,,,,false,,,,554522.5999999046,554522.2000000477,,554521.399999857,,554534.428,8,400,,,
break_continue,html.Screen,4_74_2,2023-05-03T20:13:56.090Z,,0,,,NaN,,,,,,false,,,,554523.399999857,554523.2000000477,,554522.899999857,,554534.428,8,400,,,
sequence,flow.Sequence,4_74,2023-05-03T20:13:56.090Z,,0,,,2822.262000047718,completion,,,,,false,,,,554523.5999999046,554523.2000000477,551684.51,551688.5,551700.938,554534.428,8,400,,,
trial,html.Screen,4_75_0,2023-05-03T20:13:59.450Z,,0,2,,3349.2720000477275,response,ISIC_8139762.JPG,,ISIC_4288845.JPG,ISIC_4288845.JPG,false,0,keypress(z),500,557883.899999857,557883.7000000477,554517.748,554523.7000000477,554534.428,557900.943,8,400,26,,ISIC_8139762.JPG
break,html.Screen,4_75_1,2023-05-03T20:13:59.451Z,,0,,,NaN,,,,,,false,,,,557884.899999857,557884.7000000477,,557884,,557900.943,8,400,,,
break_continue,html.Screen,4_75_2,2023-05-03T20:13:59.452Z,,0,,,NaN,,,,,,false,,,,557885.2999999523,557885.2000000477,,557885,,557900.943,8,400,,,
sequence,flow.Sequence,4_75,2023-05-03T20:13:59.452Z,,0,,,3350.7720000477275,completion,,,,,false,,,,557885.399999857,557885.2000000477,554517.748,554523.7000000477,554534.428,557900.943,8,400,,,
trial,html.Screen,4_76_0,2023-05-03T20:14:03.332Z,,0,2,,3864.9569998569787,response,ISIC_0033171.JPG,,ISIC_0010358.JPG,ISIC_0010358.JPG,false,0,keypress(z),500,561766.2000000477,561765.899999857,557867.768,557885.399999857,557900.943,561784.389,8,400,27,,ISIC_0033171.JPG
break,html.Screen,4_76_1,2023-05-03T20:14:03.335Z,,0,,,NaN,,,,,,false,,,,561768.7999999523,561768.399999857,,561766.5,,561784.389,8,400,,,
break_continue,html.Screen,4_76_2,2023-05-03T20:14:03.336Z,,0,,,NaN,,,,,,false,,,,561769.2999999523,561769.2000000477,,561768.899999857,,561784.389,8,400,,,
sequence,flow.Sequence,4_76,2023-05-03T20:14:03.336Z,,0,,,3868.2570000477135,completion,,,,,false,,,,561769.5,561769.2000000477,557867.768,557885.399999857,557900.943,561784.389,8,400,,,
trial,html.Screen,4_77_0,2023-05-03T20:14:06.303Z,,0,2,,2952.5109998569824,response,ISIC_5179884.JPG,,ISIC_0060832.JPG,ISIC_5179884.JPG,false,1,keypress(m),500,564737.0999999046,564736.899999857,561767.694,561769.7000000477,561784.389,564750.944,8,400,28,,ISIC_0060832.JPG
break,html.Screen,4_77_1,2023-05-03T20:14:06.305Z,,0,,,NaN,,,,,,false,,,,564738.399999857,564738.0999999046,,564737.399999857,,564750.944,8,400,,,
break_continue,html.Screen,4_77_2,2023-05-03T20:14:06.305Z,,0,,,NaN,,,,,,false,,,,564739,564738.7999999523,,564738.5999999046,,564750.944,8,400,,,
sequence,flow.Sequence,4_77,2023-05-03T20:14:06.305Z,,0,,,2954.41099995235,completion,,,,,false,,,,564739.0999999046,564738.7999999523,561767.694,561769.5,561784.389,564750.944,8,400,,,
trial,html.Screen,4_78_0,2023-05-03T20:14:10.706Z,,0,2,,4388.155999904615,response,ISIC_0012107.JPG,,ISIC_0011693.JPG,ISIC_0012107.JPG,false,1,keypress(m),500,569139.5999999046,569139.0999999046,564734.556,564739.2000000477,564750.944,569150.937,8,400,29,,ISIC_0011693.JPG
break,html.Screen,4_78_1,2023-05-03T20:14:10.707Z,,0,,,NaN,,,,,,false,,,,569141.0999999046,569140.7000000477,,569139.899999857,,569150.937,8,400,,,
break_continue,html.Screen,4_78_2,2023-05-03T20:14:10.708Z,,0,,,NaN,,,,,,false,,,,569141.5999999046,569141.399999857,,569141.2000000477,,569150.937,8,400,,,
sequence,flow.Sequence,4_78,2023-05-03T20:14:10.708Z,,0,,,4390.455999856931,completion,,,,,false,,,,569141.7999999523,569141.399999857,564734.556,564739.2000000477,564750.944,569150.937,8,400,,,
trial,html.Screen,4_79_0,2023-05-03T20:14:15.121Z,,0,2,,4403.763000047649,response,ISIC_2670619.JPG,,ISIC_8153123.JPG,ISIC_8153123.JPG,false,0,keypress(z),500,573555,573554.7000000477,569134.623,569141.899999857,569150.937,573567.64,8,400,30,,ISIC_2670619.JPG
break,html.Screen,4_79_1,2023-05-03T20:14:15.123Z,,0,,,NaN,,,,,,false,,,,573556.5,573556.2000000477,,573555.2999999523,,573567.64,8,400,,,
break_continue,html.Screen,4_79_2,2023-05-03T20:14:15.123Z,,0,,,NaN,,,,,,false,,,,573557,573556.899999857,,573556.5999999046,,573567.64,8,400,,,
sequence,flow.Sequence,4_79,2023-05-03T20:14:15.123Z,,0,,,4405.962999856914,completion,,,,,false,,,,573557.2000000477,573556.899999857,569134.623,569141.899999857,569150.937,573567.64,8,400,,,
trial,html.Screen,4_80_0,2023-05-03T20:14:17.773Z,,0,2,,2638.359999999986,response,ISIC_6546903.JPG,,ISIC_8064866.JPG,ISIC_6546903.JPG,false,1,keypress(m),500,576206.2999999523,576206,573551.233,573557.399999857,573567.64,576217.67,8,400,31,,ISIC_8064866.JPG
break,html.Screen,4_80_1,2023-05-03T20:14:17.774Z,,0,,,NaN,,,,,,false,,,,576207.5999999046,576207.2999999523,,576206.5999999046,,576217.67,8,400,,,
break_continue,html.Screen,4_80_2,2023-05-03T20:14:17.774Z,,0,,,NaN,,,,,,false,,,,576208.0999999046,576208,,576207.7999999523,,576217.67,8,400,,,
sequence,flow.Sequence,4_80,2023-05-03T20:14:17.775Z,,0,,,2640.359999999986,completion,,,,,false,,,,576208.2999999523,576208,573551.233,573557.2999999523,573567.64,576217.67,8,400,,,
trial,html.Screen,4_81_0,2023-05-03T20:14:20.731Z,,0,2,,2946.729999856907,response,ISIC_0014973.JPG,,ISIC_0032484.JPG,ISIC_0032484.JPG,false,0,keypress(z),500,579164.7000000477,579164.399999857,576201.691,576208.5,576217.67,579184.496,8,400,32,,ISIC_0014973.JPG
break,html.Screen,4_81_1,2023-05-03T20:14:20.732Z,,0,,,NaN,,,,,,false,,,,579165.7000000477,579165.2999999523,,579164.899999857,,579184.496,8,400,,,
break_continue,html.Screen,4_81_2,2023-05-03T20:14:20.732Z,,0,,,NaN,,,,,,false,,,,579166.0999999046,579166,,579165.7999999523,,579184.496,8,400,,,
sequence,flow.Sequence,4_81,2023-05-03T20:14:20.733Z,,0,,,2948.329999999958,completion,,,,,false,,,,579166.2000000477,579166,576201.691,576208.399999857,576217.67,579184.496,8,400,,,
trial,html.Screen,4_82_0,2023-05-03T20:14:23.971Z,,0,2,,3220.3039999522734,response,ISIC_3800974.JPG,,ISIC_8010862.JPG,ISIC_3800974.JPG,false,1,keypress(m),500,582405.0999999046,582404.7999999523,579167.701,579166.5,579184.496,582417.822,8,400,33,,ISIC_8010862.JPG
break,html.Screen,4_82_1,2023-05-03T20:14:23.973Z,,0,,,NaN,,,,,,false,,,,582406.5,582406.0999999046,,582405.399999857,,582417.822,8,400,,,
break_continue,html.Screen,4_82_2,2023-05-03T20:14:23.973Z,,0,,,NaN,,,,,,false,,,,582406.899999857,582406.7000000477,,582406.5,,582417.822,8,400,,,
sequence,flow.Sequence,4_82,2023-05-03T20:14:23.973Z,,0,,,3222.204000047641,completion,,,,,false,,,,582407.0999999046,582406.7000000477,579167.701,579166.399999857,579184.496,582417.822,8,400,,,
trial,html.Screen,4_83_0,2023-05-03T20:14:29.649Z,,0,2,,5664.677999999956,response,ISIC_0030235.JPG,,ISIC_5736979.JPG,ISIC_5736979.JPG,false,0,keypress(z),500,588082.7000000477,588082.5,582401.34,582407.2000000477,582417.822,588102.941,8,400,34,,ISIC_0030235.JPG
break,html.Screen,4_83_1,2023-05-03T20:14:29.650Z,,0,,,NaN,,,,,,false,,,,588084.0999999046,588083.7999999523,,588083,,588102.941,8,400,,,
break_continue,html.Screen,4_83_2,2023-05-03T20:14:29.651Z,,0,,,NaN,,,,,,false,,,,588085.0999999046,588084.899999857,,588084.2999999523,,588102.941,8,400,,,
sequence,flow.Sequence,4_83,2023-05-03T20:14:29.651Z,,0,,,5667.077999856905,completion,,,,,false,,,,588085.2000000477,588084.899999857,582401.34,582407.2000000477,582417.822,588102.941,8,400,,,
trial,html.Screen,4_84_0,2023-05-03T20:14:33.524Z,,0,2,,3854.259000047692,response,ISIC_0011994.JPG,,ISIC_3116288.JPG,ISIC_3116288.JPG,false,0,keypress(z),500,591957.5,591957.2000000477,588067.987,588085.5,588102.941,591967.749,8,400,35,,ISIC_0011994.JPG
break,html.Screen,4_84_1,2023-05-03T20:14:33.525Z,,0,,,NaN,,,,,,false,,,,591958.7999999523,591958.5999999046,,591957.7000000477,,591967.749,8,400,,,
break_continue,html.Screen,4_84_2,2023-05-03T20:14:33.526Z,,0,,,NaN,,,,,,false,,,,591959.399999857,591959.2999999523,,591959.0999999046,,591967.749,8,400,,,
sequence,flow.Sequence,4_84,2023-05-03T20:14:33.526Z,,0,,,3856.3589999523247,completion,,,,,false,,,,591959.5999999046,591959.2999999523,588067.987,588085.399999857,588102.941,591967.749,8,400,,,
trial,html.Screen,4_85_0,2023-05-03T20:14:37.686Z,,0,2,,4151.650999856996,response,ISIC_1850674.JPG,,ISIC_9690263.JPG,ISIC_1850674.JPG,false,1,keypress(m),500,596119.7000000477,596119.399999857,591951.299,591959.7999999523,591967.749,596134.399,8,400,36,,ISIC_9690263.JPG
break,html.Screen,4_85_1,2023-05-03T20:14:37.687Z,,0,,,NaN,,,,,,false,,,,596121.2000000477,596120.7999999523,,596119.899999857,,596134.399,8,400,,,
break_continue,html.Screen,4_85_2,2023-05-03T20:14:37.688Z,,0,,,NaN,,,,,,false,,,,596122,596121.7000000477,,596121.399999857,,596134.399,8,400,,,
sequence,flow.Sequence,4_85,2023-05-03T20:14:37.688Z,,0,,,4153.951000047731,completion,,,,,false,,,,596122.2999999523,596121.7000000477,591951.299,591959.7000000477,591967.749,596134.399,8,400,,,
trial,html.Screen,4_86_0,2023-05-03T20:14:44.313Z,,0,2,,6612.601000000024,response,ISIC_1150482.JPG,,ISIC_5433087.JPG,ISIC_5433087.JPG,false,0,keypress(z),500,602747.2000000477,602747,596117.844,596122.399999857,596134.399,602751.117,8,400,37,,ISIC_1150482.JPG
break,html.Screen,4_86_1,2023-05-03T20:14:44.315Z,,0,,,NaN,,,,,,false,,,,602748.5999999046,602748.2999999523,,602747.5999999046,,602751.117,8,400,,,
break_continue,html.Screen,4_86_2,2023-05-03T20:14:44.315Z,,0,,,NaN,,,,,,false,,,,602749.0999999046,602749,,602748.7999999523,,602751.117,8,400,,,
sequence,flow.Sequence,4_86,2023-05-03T20:14:44.315Z,,0,,,6614.601000000024,completion,,,,,false,,,,602749.2999999523,602749,596117.844,596122.399999857,596134.399,602751.117,8,400,,,
trial,html.Screen,4_87_0,2023-05-03T20:14:54.441Z,,0,2,,10123.28299985698,response,ISIC_4750271.JPG,,ISIC_0027214.JPG,ISIC_4750271.JPG,false,1,keypress(m),500,612874.7000000477,612874.399999857,602734.511,602749.5999999046,602751.117,612884.978,8,400,38,,ISIC_0027214.JPG
break,html.Screen,4_87_1,2023-05-03T20:14:54.443Z,,0,,,NaN,,,,,,false,,,,612876.5,612876.0999999046,,612875.2000000477,,612884.978,8,400,,,
break_continue,html.Screen,4_87_2,2023-05-03T20:14:54.443Z,,0,,,NaN,,,,,,false,,,,612877.2999999523,612877.0999999046,,612876.7000000477,,612884.978,8,400,,,
sequence,flow.Sequence,4_87,2023-05-03T20:14:54.444Z,,0,,,10125.982999904663,completion,,,,,false,,,,612877.7000000477,612877.0999999046,602734.511,602749.399999857,602751.117,612884.978,8,400,,,
trial,html.Screen,4_88_0,2023-05-03T20:14:57.505Z,,0,2,,3052.722000047681,response,ISIC_1002979.JPG,,ISIC_9047184.JPG,ISIC_9047184.JPG,false,0,keypress(z),500,615938.7999999523,615937.7000000477,612867.987,612877.899999857,612884.978,615951.191,8,400,39,,ISIC_1002979.JPG
break,html.Screen,4_88_1,2023-05-03T20:14:57.506Z,,0,,,NaN,,,,,,false,,,,615940.2999999523,615940.0999999046,,615939.2000000477,,615951.191,8,400,,,
break_continue,html.Screen,4_88_2,2023-05-03T20:14:57.507Z,,0,,,NaN,,,,,,false,,,,615940.899999857,615940.7000000477,,615940.5,,615951.191,8,400,,,
sequence,flow.Sequence,4_88,2023-05-03T20:14:57.507Z,,0,,,3055.722000047681,completion,,,,,false,,,,615941,615940.7000000477,612867.987,612877.899999857,612884.978,615951.191,8,400,,,
trial,html.Screen,4_89_0,2023-05-03T20:15:00.566Z,,0,2,,3048.1089999523247,response,ISIC_2312766.JPG,,ISIC_7763831.JPG,ISIC_7763831.JPG,false,0,keypress(z),500,618999.5,618999.2999999523,615934.606,615941.2999999523,615951.191,619024.213,8,400,40,,ISIC_2312766.JPG
break,html.Screen,4_89_1,2023-05-03T20:15:00.567Z,,0,,,NaN,,,,,,false,,,,619000.899999857,619000.5,,618999.7000000477,,619024.213,8,400,,,
break_continue,html.Screen,4_89_2,2023-05-03T20:15:00.568Z,,0,,,NaN,,,,,,false,,,,619001.7999999523,619001.5999999046,,619001.0999999046,,619024.213,8,400,,,
sequence,flow.Sequence,4_89,2023-05-03T20:15:00.568Z,,0,,,3050.408999904641,completion,,,,,false,,,,619002,619001.5999999046,615934.606,615941.2000000477,615951.191,619024.213,8,400,,,
trial,html.Screen,4_90_0,2023-05-03T20:15:03.368Z,,0,2,,2777.5869999523275,response,ISIC_0185547.JPG,,ISIC_2717192.JPG,ISIC_0185547.JPG,false,1,keypress(m),500,621802.0999999046,621801.7999999523,618984.642,619002.2999999523,619024.213,621818.095,8,400,41,,ISIC_2717192.JPG
break,html.Screen,4_90_1,2023-05-03T20:15:03.370Z,,0,,,NaN,,,,,,false,,,,621803.5,621803.2999999523,,621802.5,,621818.095,8,400,,,
break_continue,html.Screen,4_90_2,2023-05-03T20:15:03.370Z,,0,,,NaN,,,,,,false,,,,621804.0999999046,621803.899999857,,621803.7999999523,,621818.095,8,400,,,
sequence,flow.Sequence,4_90,2023-05-03T20:15:03.370Z,,0,,,2779.68699985696,completion,,,,,false,,,,621804.2000000477,621803.899999857,618984.642,619002.2999999523,619024.213,621818.095,8,400,,,
trial,html.Screen,4_91_0,2023-05-03T20:15:08.162Z,,0,2,,4778.0049999046605,response,ISIC_8708106.JPG,,ISIC_1104374.JPG,ISIC_1104374.JPG,false,0,keypress(z),500,626596.5,626596.0999999046,621801.219,621804.399999857,621818.095,626601.189,8,400,42,,ISIC_8708106.JPG
break,html.Screen,4_91_1,2023-05-03T20:15:08.164Z,,0,,,NaN,,,,,,false,,,,626597.7999999523,626597.5999999046,,626596.7000000477,,626601.189,8,400,,,
break_continue,html.Screen,4_91_2,2023-05-03T20:15:08.164Z,,0,,,NaN,,,,,,false,,,,626598.2999999523,626598.2000000477,,626598,,626601.189,8,400,,,
sequence,flow.Sequence,4_91,2023-05-03T20:15:08.165Z,,0,,,4780.105000047712,completion,,,,,false,,,,626598.5,626598.2000000477,621801.219,621804.399999857,621818.095,626601.189,8,400,,,
trial,html.Screen,4_92_0,2023-05-03T20:15:13.008Z,,0,2,,4840.310999999987,response,ISIC_2750230.JPG,,ISIC_2206284.JPG,ISIC_2206284.JPG,false,0,keypress(z),500,631441.7999999523,631441.5,626584.503,626598.7000000477,626601.189,631467.992,8,400,43,,ISIC_2750230.JPG
break,html.Screen,4_92_1,2023-05-03T20:15:13.009Z,,0,,,NaN,,,,,,false,,,,631442.7999999523,631442.5,,631442.0999999046,,631467.992,8,400,,,
break_continue,html.Screen,4_92_2,2023-05-03T20:15:13.009Z,,0,,,NaN,,,,,,false,,,,631443.2000000477,631443.0999999046,,631442.899999857,,631467.992,8,400,,,
sequence,flow.Sequence,4_92,2023-05-03T20:15:13.009Z,,0,,,4841.9109999046195,completion,,,,,false,,,,631443.399999857,631443.0999999046,626584.503,626598.5,626601.189,631467.992,8,400,,,
trial,html.Screen,4_93_0,2023-05-03T20:15:15.646Z,,0,2,,2612.1079999046633,response,ISIC_0057759.JPG,,ISIC_9718067.JPG,ISIC_9718067.JPG,false,0,keypress(z),500,634080.399999857,634080.0999999046,631451.35,631443.5999999046,631467.992,634084.634,8,400,44,,ISIC_0057759.JPG
break,html.Screen,4_93_1,2023-05-03T20:15:15.648Z,,0,,,NaN,,,,,,false,,,,634081.7000000477,634081.0999999046,,634080.5999999046,,634084.634,8,400,,,
break_continue,html.Screen,4_93_2,2023-05-03T20:15:15.648Z,,0,,,NaN,,,,,,false,,,,634082.2999999523,634082.0999999046,,634081.7999999523,,634084.634,8,400,,,
sequence,flow.Sequence,4_93,2023-05-03T20:15:15.648Z,,0,,,2614.1079999046633,completion,,,,,false,,,,634082.399999857,634082.0999999046,631451.35,631443.5,631467.992,634084.634,8,400,,,
trial,html.Screen,4_94_0,2023-05-03T20:15:18.991Z,,0,2,,3340.366000000038,response,ISIC_3869533.JPG,,ISIC_8911740.JPG,ISIC_3869533.JPG,false,1,keypress(m),500,637425.399999857,637425,634068.042,634082.5999999046,634084.634,637434.728,8,400,45,,ISIC_8911740.JPG
break,html.Screen,4_94_1,2023-05-03T20:15:18.993Z,,0,,,NaN,,,,,,false,,,,637426.7999999523,637426.2000000477,,637425.7000000477,,637434.728,8,400,,,
break_continue,html.Screen,4_94_2,2023-05-03T20:15:18.994Z,,0,,,NaN,,,,,,false,,,,637427.5,637427.2999999523,,637427.0999999046,,637434.728,8,400,,,
sequence,flow.Sequence,4_94,2023-05-03T20:15:18.994Z,,0,,,3342.6659999523545,completion,,,,,false,,,,637427.7000000477,637427.2999999523,634068.042,634082.5999999046,634084.634,637434.728,8,400,,,
trial,html.Screen,4_95_0,2023-05-03T20:15:22.950Z,,0,2,,3948.771999999997,response,ISIC_0031784.JPG,,ISIC_0024221.JPG,ISIC_0031784.JPG,false,1,keypress(m),500,641383.7999999523,641383.5,637418.592,637427.899999857,637434.728,641417.921,8,400,46,,ISIC_0024221.JPG
break,html.Screen,4_95_1,2023-05-03T20:15:22.952Z,,0,,,NaN,,,,,,false,,,,641385.5999999046,641385.2999999523,,641384,,641417.921,8,400,,,
break_continue,html.Screen,4_95_2,2023-05-03T20:15:22.952Z,,0,,,NaN,,,,,,false,,,,641386.0999999046,641385.899999857,,641385.7999999523,,641417.921,8,400,,,
sequence,flow.Sequence,4_95,2023-05-03T20:15:22.952Z,,0,,,3951.171999856946,completion,,,,,false,,,,641386.2999999523,641385.899999857,637418.592,637427.7999999523,637434.728,641417.921,8,400,,,
trial,html.Screen,4_96_0,2023-05-03T20:15:27.197Z,,0,2,,4212.779000047711,response,ISIC_0000446.JPG,,ISIC_9418196.JPG,ISIC_9418196.JPG,false,0,keypress(z),500,645631,645630.7000000477,641409.77,641386.399999857,641417.921,645634.66,8,400,47,,ISIC_0000446.JPG
break,html.Screen,4_96_1,2023-05-03T20:15:27.198Z,,0,,,NaN,,,,,,false,,,,645632.2999999523,645631.899999857,,645631.2000000477,,645634.66,8,400,,,
break_continue,html.Screen,4_96_2,2023-05-03T20:15:27.199Z,,0,,,NaN,,,,,,false,,,,645632.7999999523,645632.5999999046,,645632.5,,645634.66,8,400,,,
sequence,flow.Sequence,4_96,2023-05-03T20:15:27.199Z,,0,,,4214.67899990466,completion,,,,,false,,,,645633,645632.5999999046,641409.77,641386.399999857,641417.921,645634.66,8,400,,,
trial,html.Screen,4_97_0,2023-05-03T20:15:32.418Z,,0,2,,5217.239999856916,response,ISIC_0055314.JPG,,ISIC_0028152.JPG,ISIC_0028152.JPG,false,0,keypress(z),500,650852.2000000477,650851.899999857,645618.204,645633.0999999046,645634.66,650868.602,8,400,48,,ISIC_0055314.JPG
break,html.Screen,4_97_1,2023-05-03T20:15:32.420Z,,0,,,NaN,,,,,,false,,,,650853.7000000477,650853.2999999523,,650852.399999857,,650868.602,8,400,,,
break_continue,html.Screen,4_97_2,2023-05-03T20:15:32.420Z,,0,,,NaN,,,,,,false,,,,650854.399999857,650854.0999999046,,650853.7999999523,,650868.602,8,400,,,
sequence,flow.Sequence,4_97,2023-05-03T20:15:32.421Z,,0,,,5219.4399999046,completion,,,,,false,,,,650854.7000000477,650854.0999999046,645618.204,645633.0999999046,645634.66,650868.602,8,400,,,
trial,html.Screen,4_98_0,2023-05-03T20:15:39.951Z,,0,2,,7515.797999856994,response,ISIC_5287748.JPG,,ISIC_9876004.JPG,ISIC_9876004.JPG,false,0,keypress(z),500,658385.899999857,658384.399999857,650851.372,650855,650868.602,658401.295,8,400,49,,ISIC_5287748.JPG
break,html.Screen,4_98_1,2023-05-03T20:15:39.953Z,,0,,,NaN,,,,,,false,,,,658387.5,658387.0999999046,,658386.2999999523,,658401.295,8,400,,,
break_continue,html.Screen,4_98_2,2023-05-03T20:15:39.953Z,,0,,,NaN,,,,,,false,,,,658388,658387.7999999523,,658387.7000000477,,658401.295,8,400,,,
sequence,flow.Sequence,4_98,2023-05-03T20:15:39.954Z,,0,,,7519.197999952361,completion,,,,,false,,,,658388.2999999523,658387.7999999523,650851.372,650854.899999857,650868.602,658401.295,8,400,,,
trial,html.Screen,4_99_0,2023-05-03T20:15:46.594Z,,0,2,,6626.604999856907,response,ISIC_6985114.JPG,,ISIC_5315486.JPG,ISIC_5315486.JPG,false,0,keypress(z),500,665028.2000000477,665027.899999857,658384.582,658388.399999857,658401.295,665034.658,8,400,50,,ISIC_6985114.JPG
break,html.Screen,4_99_1,2023-05-03T20:15:51.585Z,,0,,,5000.267999999924,timeout,,,,,false,,,,670019.5,670018.26,665018.171,665028.399999857,665034.658,670034.926,8,400,,,
break_continue,html.Screen,4_99_2,2023-05-03T20:22:50.081Z,,0,,,418463.17399990465,response,,,,,false,continue,keypress(Space),,1088514.5,1088498.0999999046,670018.26,670019.7000000477,670034.926,1088534.951,8,400,,,
sequence,flow.Sequence,4_99,2023-05-03T20:22:50.081Z,,0,,,430096.8049999046,completion,,,,,false,,,,1088514.7999999523,1088498.0999999046,658384.582,658388.2999999523,658401.295,1088534.951,8,400,,,
trial,html.Screen,4_100_0,2023-05-03T20:22:52.872Z,,0,3,,2769.8489999524318,response,ISIC_0260316.JPG,,ISIC_6777714.JPG,ISIC_6777714.JPG,false,0,keypress(z),500,1091305.2999999523,1091304.7999999523,1088518.267,1088514.899999857,1088534.951,1091318.198,8,400,1,,ISIC_0260316.JPG
break,html.Screen,4_100_1,2023-05-03T20:22:52.874Z,,0,,,NaN,,,,,,false,,,,1091307.399999857,1091307,,1091305.5999999046,,1091318.198,8,400,,,
break_continue,html.Screen,4_100_2,2023-05-03T20:22:52.875Z,,0,,,NaN,,,,,,false,,,,1091308.399999857,1091308.2000000477,,1091307.7000000477,,1091318.198,8,400,,,
sequence,flow.Sequence,4_100,2023-05-03T20:22:52.875Z,,0,,,2773.249000047799,completion,,,,,false,,,,1091308.5999999046,1091308.2000000477,1088518.267,1088514.7999999523,1088534.951,1091318.198,8,400,,,
trial,html.Screen,4_101_0,2023-05-03T20:22:56.386Z,,0,3,,3501.2019998568576,response,ISIC_0331124.JPG,,ISIC_2948896.JPG,ISIC_0331124.JPG,false,1,keypress(m),500,1094819.7000000477,1094819.399999857,1091301.641,1091308.7999999523,1091318.198,1094834.905,8,400,2,,ISIC_2948896.JPG
break,html.Screen,4_101_1,2023-05-03T20:22:56.388Z,,0,,,NaN,,,,,,false,,,,1094821.2000000477,1094820.899999857,,1094819.899999857,,1094834.905,8,400,,,
break_continue,html.Screen,4_101_2,2023-05-03T20:22:56.388Z,,0,,,NaN,,,,,,false,,,,1094821.7999999523,1094821.5999999046,,1094821.399999857,,1094834.905,8,400,,,
sequence,flow.Sequence,4_101,2023-05-03T20:22:56.389Z,,0,,,3503.4019999045413,completion,,,,,false,,,,1094821.899999857,1094821.5999999046,1091301.641,1091308.7999999523,1091318.198,1094834.905,8,400,,,
trial,html.Screen,4_102_0,2023-05-03T20:23:00.866Z,,0,3,,4464.394999952288,response,ISIC_7517082.JPG,,ISIC_0029441.JPG,ISIC_7517082.JPG,false,1,keypress(m),500,1099299.5999999046,1099299.2999999523,1094818.246,1094822.2000000477,1094834.905,1099301.619,8,400,3,,ISIC_0029441.JPG
break,html.Screen,4_102_1,2023-05-03T20:23:00.868Z,,0,,,NaN,,,,,,false,,,,1099301.0999999046,1099300.5999999046,,1099299.7999999523,,1099301.619,8,400,,,
break_continue,html.Screen,4_102_2,2023-05-03T20:23:00.869Z,,0,,,NaN,,,,,,false,,,,1099302.5,1099302.2000000477,,1099301.5,,1099301.619,8,400,,,
sequence,flow.Sequence,4_102,2023-05-03T20:23:00.869Z,,0,,,4467.295000047656,completion,,,,,false,,,,1099302.7999999523,1099302.2000000477,1094818.246,1094822.0999999046,1094834.905,1099301.619,8,400,,,
trial,html.Screen,4_103_0,2023-05-03T20:23:04.312Z,,0,3,,3443.780999857001,response,ISIC_3238687.JPG,,ISIC_6809191.JPG,ISIC_3238687.JPG,false,1,keypress(m),500,1102745.5999999046,1102745.399999857,1099284.907,1099303.2000000477,1099301.619,1102751.602,8,400,4,,ISIC_6809191.JPG
break,html.Screen,4_103_1,2023-05-03T20:23:04.314Z,,0,,,NaN,,,,,,false,,,,1102747.0999999046,1102746.7999999523,,1102745.899999857,,1102751.602,8,400,,,
break_continue,html.Screen,4_103_2,2023-05-03T20:23:04.314Z,,0,,,NaN,,,,,,false,,,,1102747.5999999046,1102747.399999857,,1102747.2000000477,,1102751.602,8,400,,,
sequence,flow.Sequence,4_103,2023-05-03T20:23:04.314Z,,0,,,3445.780999857001,completion,,,,,false,,,,1102747.7999999523,1102747.399999857,1099284.907,1099303.0999999046,1099301.619,1102751.602,8,400,,,
trial,html.Screen,4_104_0,2023-05-03T20:23:07.254Z,,0,3,,2935.7979998569936,response,ISIC_0031629.JPG,,ISIC_0024891.JPG,ISIC_0031629.JPG,false,1,keypress(m),500,1105687.7000000477,1105687.399999857,1102735.137,1102748,1102751.602,1105701.794,8,400,5,,ISIC_0024891.JPG
break,html.Screen,4_104_1,2023-05-03T20:23:07.256Z,,0,,,NaN,,,,,,false,,,,1105689,1105688.7000000477,,1105688,,1105701.794,8,400,,,
break_continue,html.Screen,4_104_2,2023-05-03T20:23:07.256Z,,0,,,NaN,,,,,,false,,,,1105689.5,1105689.2999999523,,1105689.0999999046,,1105701.794,8,400,,,
sequence,flow.Sequence,4_104,2023-05-03T20:23:07.256Z,,0,,,2937.697999952361,completion,,,,,false,,,,1105689.7999999523,1105689.2999999523,1102735.137,1102747.899999857,1102751.602,1105701.794,8,400,,,
trial,html.Screen,4_105_0,2023-05-03T20:23:16.477Z,,0,3,,9208.706000000006,response,ISIC_0061581.JPG,,ISIC_9130157.JPG,ISIC_0061581.JPG,false,1,keypress(m),500,1114910.7999999523,1114910.5,1105684.999,1105690.0999999046,1105701.794,1114918.308,8,400,6,,ISIC_9130157.JPG
break,html.Screen,4_105_1,2023-05-03T20:23:16.479Z,,0,,,NaN,,,,,,false,,,,1114912.2999999523,1114912,,1114911.2000000477,,1114918.308,8,400,,,
break_continue,html.Screen,4_105_2,2023-05-03T20:23:16.479Z,,0,,,NaN,,,,,,false,,,,1114912.899999857,1114912.7000000477,,1114912.5,,1114918.308,8,400,,,
sequence,flow.Sequence,4_105,2023-05-03T20:23:16.480Z,,0,,,9210.90600004769,completion,,,,,false,,,,1114913,1114912.7000000477,1105684.999,1105690,1105701.794,1114918.308,8,400,,,
trial,html.Screen,4_106_0,2023-05-03T20:23:21.270Z,,0,3,,4784.392000047723,response,ISIC_7783346.JPG,,ISIC_7530414.JPG,ISIC_7530414.JPG,false,0,keypress(z),500,1119703,1119702.7000000477,1114901.775,1114913.2000000477,1114918.308,1119718.487,8,400,7,,ISIC_7783346.JPG
break,html.Screen,4_106_1,2023-05-03T20:23:21.271Z,,0,,,NaN,,,,,,false,,,,1119704.2999999523,1119704.0999999046,,1119703.2999999523,,1119718.487,8,400,,,
break_continue,html.Screen,4_106_2,2023-05-03T20:23:21.272Z,,0,,,NaN,,,,,,false,,,,1119705,1119704.7999999523,,1119704.5999999046,,1119718.487,8,400,,,
sequence,flow.Sequence,4_106,2023-05-03T20:23:21.272Z,,0,,,4786.491999952355,completion,,,,,false,,,,1119705.2999999523,1119704.7999999523,1114901.775,1114913.2000000477,1114918.308,1119718.487,8,400,,,
trial,html.Screen,4_107_0,2023-05-03T20:23:26.164Z,,0,3,,4878.912999856984,response,ISIC_0031356.JPG,,ISIC_7351939.JPG,ISIC_7351939.JPG,false,0,keypress(z),500,1124597.7000000477,1124597.399999857,1119701.615,1119705.399999857,1119718.487,1124618.376,8,400,8,,ISIC_0031356.JPG
break,html.Screen,4_107_1,2023-05-03T20:23:26.165Z,,0,,,NaN,,,,,,false,,,,1124598.7999999523,1124598.5999999046,,1124598,,1124618.376,8,400,,,
break_continue,html.Screen,4_107_2,2023-05-03T20:23:26.166Z,,0,,,NaN,,,,,,false,,,,1124599.399999857,1124599.2000000477,,1124599,,1124618.376,8,400,,,
sequence,flow.Sequence,4_107,2023-05-03T20:23:26.166Z,,0,,,4880.713000047719,completion,,,,,false,,,,1124599.5999999046,1124599.2000000477,1119701.615,1119705.399999857,1119718.487,1124618.376,8,400,,,
trial,html.Screen,4_108_0,2023-05-03T20:23:32.016Z,,0,3,,5830.324000047753,response,ISIC_0030296.JPG,,ISIC_0034061.JPG,ISIC_0030296.JPG,false,1,keypress(m),500,1130449.0999999046,1130448.7000000477,1124601.68,1124599.7000000477,1124618.376,1130451.667,8,400,9,,ISIC_0034061.JPG
break,html.Screen,4_108_1,2023-05-03T20:23:32.017Z,,0,,,NaN,,,,,,false,,,,1130450.5,1130450.2999999523,,1130449.399999857,,1130451.667,8,400,,,
break_continue,html.Screen,4_108_2,2023-05-03T20:23:32.018Z,,0,,,NaN,,,,,,false,,,,1130451,1130450.899999857,,1130450.5999999046,,1130451.667,8,400,,,
sequence,flow.Sequence,4_108,2023-05-03T20:23:32.018Z,,0,,,5832.523999857018,completion,,,,,false,,,,1130451.0999999046,1130450.899999857,1124601.68,1124599.7000000477,1124618.376,1130451.667,8,400,,,
trial,html.Screen,4_109_0,2023-05-03T20:23:35.383Z,,0,3,,3364.432999904733,response,ISIC_9005623.JPG,,ISIC_2056104.JPG,ISIC_9005623.JPG,false,1,keypress(m),500,1133816.399999857,1133816.0999999046,1130435.022,1130451.399999857,1130451.667,1133818.383,8,400,10,,ISIC_2056104.JPG
break,html.Screen,4_109_1,2023-05-03T20:23:35.385Z,,0,,,NaN,,,,,,false,,,,1133818.0999999046,1133817.7000000477,,1133816.7000000477,,1133818.383,8,400,,,
break_continue,html.Screen,4_109_2,2023-05-03T20:23:35.387Z,,0,,,NaN,,,,,,false,,,,1133820.0999999046,1133819.399999857,,1133818.2999999523,,1133818.383,8,400,,,
sequence,flow.Sequence,4_109,2023-05-03T20:23:35.387Z,,0,,,3367.7329998570494,completion,,,,,false,,,,1133820.2999999523,1133819.399999857,1130435.022,1130451.2999999523,1130451.667,1133818.383,8,400,,,
trial,html.Screen,4_110_0,2023-05-03T20:23:39.055Z,,0,3,,3669.7169999047183,response,ISIC_5420979.JPG,,ISIC_0012538.JPG,ISIC_5420979.JPG,false,1,keypress(m),500,1137488.399999857,1137488.0999999046,1133801.832,1133820.5999999046,1133818.383,1137501.794,8,400,11,,ISIC_0012538.JPG
break,html.Screen,4_110_1,2023-05-03T20:23:39.056Z,,0,,,NaN,,,,,,false,,,,1137489.7999999523,1137489.5,,1137488.5999999046,,1137501.794,8,400,,,
break_continue,html.Screen,4_110_2,2023-05-03T20:23:39.057Z,,0,,,NaN,,,,,,false,,,,1137490.2999999523,1137490.2000000477,,1137489.899999857,,1137501.794,8,400,,,
sequence,flow.Sequence,4_110,2023-05-03T20:23:39.057Z,,0,,,3671.8170000477694,completion,,,,,false,,,,1137490.7000000477,1137490.2000000477,1133801.832,1133820.5,1133818.383,1137501.794,8,400,,,
trial,html.Screen,4_111_0,2023-05-03T20:23:41.720Z,,0,3,,2651.805999904638,response,ISIC_7777873.JPG,,ISIC_7839712.JPG,ISIC_7777873.JPG,false,1,keypress(m),500,1140154,1140153.5999999046,1137485.055,1137490.7999999523,1137501.794,1140168.576,8,400,12,,ISIC_7839712.JPG
break,html.Screen,4_111_1,2023-05-03T20:23:41.722Z,,0,,,NaN,,,,,,false,,,,1140155.2000000477,1140154.899999857,,1140154.2000000477,,1140168.576,8,400,,,
break_continue,html.Screen,4_111_2,2023-05-03T20:23:41.722Z,,0,,,NaN,,,,,,false,,,,1140155.7000000477,1140155.5999999046,,1140155.2999999523,,1140168.576,8,400,,,
sequence,flow.Sequence,4_111,2023-05-03T20:23:41.722Z,,0,,,2653.805999904638,completion,,,,,false,,,,1140155.899999857,1140155.5999999046,1137485.055,1137490.7999999523,1137501.794,1140168.576,8,400,,,
trial,html.Screen,4_112_0,2023-05-03T20:23:46.256Z,,0,3,,4521.223999952432,response,ISIC_8690205.JPG,,ISIC_0069351.JPG,ISIC_8690205.JPG,false,1,keypress(m),500,1144690.2000000477,1144689.7999999523,1140151.898,1140156,1140168.576,1144701.803,8,400,13,,ISIC_0069351.JPG
break,html.Screen,4_112_1,2023-05-03T20:23:46.258Z,,0,,,NaN,,,,,,false,,,,1144691.5,1144691.2000000477,,1144690.5,,1144701.803,8,400,,,
break_continue,html.Screen,4_112_2,2023-05-03T20:23:46.258Z,,0,,,NaN,,,,,,false,,,,1144692,1144691.899999857,,1144691.7000000477,,1144701.803,8,400,,,
sequence,flow.Sequence,4_112,2023-05-03T20:23:46.259Z,,0,,,4523.323999857064,completion,,,,,false,,,,1144692.2000000477,1144691.899999857,1140151.898,1140156,1140168.576,1144701.803,8,400,,,
trial,html.Screen,4_113_0,2023-05-03T20:23:50.720Z,,0,3,,4451.29699990456,response,ISIC_0007808.JPG,,ISIC_0057539.JPG,ISIC_0007808.JPG,false,1,keypress(m),500,1149153.399999857,1149153.0999999046,1144685.123,1144692.399999857,1144701.803,1149168.684,8,400,14,,ISIC_0057539.JPG
break,html.Screen,4_113_1,2023-05-03T20:23:50.721Z,,0,,,NaN,,,,,,false,,,,1149154.7000000477,1149154.2000000477,,1149153.7000000477,,1149168.684,8,400,,,
break_continue,html.Screen,4_113_2,2023-05-03T20:23:50.722Z,,0,,,NaN,,,,,,false,,,,1149155.2999999523,1149155.0999999046,,1149154.899999857,,1149168.684,8,400,,,
sequence,flow.Sequence,4_113,2023-05-03T20:23:50.722Z,,0,,,4453.29699990456,completion,,,,,false,,,,1149155.399999857,1149155.0999999046,1144685.123,1144692.2999999523,1144701.803,1149168.684,8,400,,,
trial,html.Screen,4_114_0,2023-05-03T20:23:58.811Z,,0,3,,8075.415999904741,response,ISIC_0032369.JPG,,ISIC_3743283.JPG,ISIC_3743283.JPG,false,0,keypress(z),500,1157244.2999999523,1157244.0999999046,1149151.82,1149155.5999999046,1149168.684,1157251.805,8,400,15,,ISIC_0032369.JPG
break,html.Screen,4_114_1,2023-05-03T20:23:58.812Z,,0,,,NaN,,,,,,false,,,,1157245.5999999046,1157245.2999999523,,1157244.5,,1157251.805,8,400,,,
break_continue,html.Screen,4_114_2,2023-05-03T20:23:58.812Z,,0,,,NaN,,,,,,false,,,,1157246.0999999046,1157246,,1157245.7000000477,,1157251.805,8,400,,,
sequence,flow.Sequence,4_114,2023-05-03T20:23:58.813Z,,0,,,8077.316000000108,completion,,,,,false,,,,1157246.2000000477,1157246,1149151.82,1149155.5999999046,1149168.684,1157251.805,8,400,,,
trial,html.Screen,4_115_0,2023-05-03T20:24:02.250Z,,0,3,,3431.594999857014,response,ISIC_0069121.JPG,,ISIC_0066213.JPG,ISIC_0069121.JPG,false,1,keypress(m),500,1160683.7999999523,1160683.399999857,1157235.242,1157246.399999857,1157251.805,1160714.211,8,400,16,,ISIC_0066213.JPG
break,html.Screen,4_115_1,2023-05-03T20:24:02.251Z,,0,,,NaN,,,,,,false,,,,1160685,1160684.7000000477,,1160684,,1160714.211,8,400,,,
break_continue,html.Screen,4_115_2,2023-05-03T20:24:02.252Z,,0,,,NaN,,,,,,false,,,,1160686.0999999046,1160686,,1160685.5999999046,,1160714.211,8,400,,,
sequence,flow.Sequence,4_115,2023-05-03T20:24:02.253Z,,0,,,3434.195000000065,completion,,,,,false,,,,1160686.2999999523,1160686,1157235.242,1157246.2999999523,1157251.805,1160714.211,8,400,,,
trial,html.Screen,4_116_0,2023-05-03T20:24:13.769Z,,0,3,,11521.080000000075,timeout,ISIC_0060390.JPG,,ISIC_0055438.JPG,ISIC_0055438.JPG,false,,,500,1172202.899999857,1172202.5,1160668.581,1160686.399999857,1160714.211,1172235.291,8,400,17,,ISIC_0060390.JPG
break,html.Screen,4_116_1,2023-05-03T20:24:13.770Z,,0,,,NaN,,,,,,false,,,,1172203.899999857,1172203.5999999046,,1172203.0999999046,,1172235.291,8,400,,,
break_continue,html.Screen,4_116_2,2023-05-03T20:24:13.771Z,,0,,,NaN,,,,,,false,,,,1172204.399999857,1172204.2999999523,,1172204.0999999046,,1172235.291,8,400,,,
sequence,flow.Sequence,4_116,2023-05-03T20:24:13.771Z,,0,,,11490.088999952422,completion,,,,,false,,,,1172204.7000000477,1172204.2999999523,1160668.581,1160686.399999857,1160714.211,1172235.291,8,400,,,
trial,html.Screen,4_117_0,2023-05-03T20:24:17.031Z,,0,3,,3228.7090000000317,response,ISIC_2126084.JPG,,ISIC_0024275.JPG,ISIC_2126084.JPG,false,1,keypress(m),500,1175464.2999999523,1175464,1172218.624,1172204.899999857,1172235.291,1175468.574,8,400,18,,ISIC_0024275.JPG
break,html.Screen,4_117_1,2023-05-03T20:24:17.032Z,,0,,,NaN,,,,,,false,,,,1175465.7000000477,1175465.2000000477,,1175464.5999999046,,1175468.574,8,400,,,
break_continue,html.Screen,4_117_2,2023-05-03T20:24:17.033Z,,0,,,NaN,,,,,,false,,,,1175466.2000000477,1175466.0999999046,,1175465.899999857,,1175468.574,8,400,,,
sequence,flow.Sequence,4_117,2023-05-03T20:24:17.033Z,,0,,,3230.8089999046642,completion,,,,,false,,,,1175466.399999857,1175466.0999999046,1172218.624,1172204.7999999523,1172235.291,1175468.574,8,400,,,
trial,html.Screen,4_118_0,2023-05-03T20:24:19.850Z,,0,3,,2814.8259998569265,response,ISIC_0066053.JPG,,ISIC_0030818.JPG,ISIC_0030818.JPG,false,0,keypress(z),500,1178283.5999999046,1178283.399999857,1175451.995,1175466.5,1175468.574,1178285.156,8,400,19,,ISIC_0066053.JPG
break,html.Screen,4_118_1,2023-05-03T20:24:19.851Z,,0,,,NaN,,,,,,false,,,,1178284.2999999523,1178284.0999999046,,1178283.7000000477,,1178285.156,8,400,,,
break_continue,html.Screen,4_118_2,2023-05-03T20:24:19.851Z,,0,,,NaN,,,,,,false,,,,1178284.5,1178284.5,,1178284.399999857,,1178285.156,8,400,,,
sequence,flow.Sequence,4_118,2023-05-03T20:24:19.851Z,,0,,,2815.9259999999776,completion,,,,,false,,,,1178284.7000000477,1178284.5,1175451.995,1175466.5,1175468.574,1178285.156,8,400,,,
trial,html.Screen,4_119_0,2023-05-03T20:24:22.998Z,,0,3,,3146.344000000041,response,ISIC_6683370.JPG,,ISIC_0060979.JPG,ISIC_6683370.JPG,false,1,keypress(m),500,1181431.899999857,1181431.5,1178268.751,1178284.7000000477,1178285.156,1181435.232,8,400,20,,ISIC_0060979.JPG
break,html.Screen,4_119_1,2023-05-03T20:24:23.000Z,,0,,,NaN,,,,,,false,,,,1181433.2000000477,1181432.899999857,,1181432.0999999046,,1181435.232,8,400,,,
break_continue,html.Screen,4_119_2,2023-05-03T20:24:23.000Z,,0,,,NaN,,,,,,false,,,,1181433.7000000477,1181433.5999999046,,1181433.399999857,,1181435.232,8,400,,,
sequence,flow.Sequence,4_119,2023-05-03T20:24:23.000Z,,0,,,3148.4439999046735,completion,,,,,false,,,,1181434,1181433.5999999046,1178268.751,1178284.7000000477,1178285.156,1181435.232,8,400,,,
trial,html.Screen,4_120_0,2023-05-03T20:24:31.671Z,,0,3,,8669.56799995224,response,ISIC_9034574.JPG,,ISIC_0059264.JPG,ISIC_9034574.JPG,false,1,keypress(m),500,1190105,1190104.7999999523,1181418.626,1181434.0999999046,1181435.232,1190118.661,8,400,21,,ISIC_0059264.JPG
break,html.Screen,4_120_1,2023-05-03T20:24:31.672Z,,0,,,NaN,,,,,,false,,,,1190106.0999999046,1190105.7000000477,,1190105.2000000477,,1190118.661,8,400,,,
break_continue,html.Screen,4_120_2,2023-05-03T20:24:31.673Z,,0,,,NaN,,,,,,false,,,,1190106.5999999046,1190106.399999857,,1190106.2999999523,,1190118.661,8,400,,,
sequence,flow.Sequence,4_120,2023-05-03T20:24:31.673Z,,0,,,8671.167999856872,completion,,,,,false,,,,1190106.7000000477,1190106.399999857,1181418.626,1181434,1181435.232,1190118.661,8,400,,,
trial,html.Screen,4_121_0,2023-05-03T20:24:41.072Z,,0,3,,9386.438999904552,response,ISIC_0002288.JPG,,ISIC_6657600.JPG,ISIC_0002288.JPG,false,1,keypress(m),500,1199505.5,1199505.0999999046,1190102.082,1190107,1190118.661,1199518.579,8,400,22,,ISIC_6657600.JPG
break,html.Screen,4_121_1,2023-05-03T20:24:41.073Z,,0,,,NaN,,,,,,false,,,,1199506.7000000477,1199506.399999857,,1199505.5999999046,,1199518.579,8,400,,,
break_continue,html.Screen,4_121_2,2023-05-03T20:24:41.073Z,,0,,,NaN,,,,,,false,,,,1199507.0999999046,1199507,,1199506.7999999523,,1199518.579,8,400,,,
sequence,flow.Sequence,4_121,2023-05-03T20:24:41.074Z,,0,,,9388.33899999992,completion,,,,,false,,,,1199507.2999999523,1199507,1190102.082,1190106.899999857,1190118.661,1199518.579,8,400,,,
trial,html.Screen,4_122_0,2023-05-03T20:24:50.942Z,,0,3,,9857.42100000009,response,ISIC_0070593.JPG,,ISIC_0262770.JPG,ISIC_0262770.JPG,false,0,keypress(z),500,1209376.2000000477,1209376,1199495.499,1199507.399999857,1199518.579,1209385.438,8,400,23,,ISIC_0070593.JPG
break,html.Screen,4_122_1,2023-05-03T20:24:50.943Z,,0,,,NaN,,,,,,false,,,,1209377.0999999046,1209376.899999857,,1209376.399999857,,1209385.438,8,400,,,
break_continue,html.Screen,4_122_2,2023-05-03T20:24:50.943Z,,0,,,NaN,,,,,,false,,,,1209377.5,1209377.5,,1209377.2999999523,,1209385.438,8,400,,,
sequence,flow.Sequence,4_122,2023-05-03T20:24:50.943Z,,0,,,9858.92100000009,completion,,,,,false,,,,1209377.7000000477,1209377.5,1199495.499,1199507.399999857,1199518.579,1209385.438,8,400,,,
trial,html.Screen,4_123_0,2023-05-03T20:24:55.934Z,,0,3,,4982.661999904551,response,ISIC_4728968.JPG,,ISIC_0014932.JPG,ISIC_4728968.JPG,false,1,keypress(m),500,1214368.5,1214368.0999999046,1209368.705,1209377.7000000477,1209385.438,1214385.326,8,400,24,,ISIC_0014932.JPG
break,html.Screen,4_123_1,2023-05-03T20:24:55.936Z,,0,,,NaN,,,,,,false,,,,1214369.899999857,1214369.7999999523,,1214369.2999999523,,1214385.326,8,400,,,
break_continue,html.Screen,4_123_2,2023-05-03T20:24:55.936Z,,0,,,NaN,,,,,,false,,,,1214370.399999857,1214370.2999999523,,1214370.0999999046,,1214385.326,8,400,,,
sequence,flow.Sequence,4_123,2023-05-03T20:24:55.936Z,,0,,,4984.861999952234,completion,,,,,false,,,,1214370.5999999046,1214370.2999999523,1209368.705,1209377.7000000477,1209385.438,1214385.326,8,400,,,
trial,html.Screen,4_124_0,2023-05-03T20:24:59.812Z,,0,3,,3860.374000047799,response,ISIC_4961708.JPG,,ISIC_0413154.JPG,ISIC_4961708.JPG,false,1,keypress(m),500,1218245.899999857,1218245.7000000477,1214368.663,1214370.5999999046,1214385.326,1218252.022,8,400,25,,ISIC_0413154.JPG
break,html.Screen,4_124_1,2023-05-03T20:24:59.813Z,,0,,,NaN,,,,,,false,,,,1218247.2000000477,1218247,,1218246.0999999046,,1218252.022,8,400,,,
break_continue,html.Screen,4_124_2,2023-05-03T20:24:59.813Z,,0,,,NaN,,,,,,false,,,,1218247.5999999046,1218247.5999999046,,1218247.399999857,,1218252.022,8,400,,,
sequence,flow.Sequence,4_124,2023-05-03T20:24:59.814Z,,0,,,3862.273999904748,completion,,,,,false,,,,1218247.899999857,1218247.5999999046,1214368.663,1214370.5999999046,1214385.326,1218252.022,8,400,,,
trial,html.Screen,4_125_0,2023-05-03T20:25:02.942Z,,0,3,,3123.7779999522027,response,ISIC_0033876.JPG,,ISIC_4224064.JPG,ISIC_4224064.JPG,false,0,keypress(z),500,1221376,1221375.7999999523,1218235.468,1218248.0999999046,1218252.022,1221385.598,8,400,26,,ISIC_0033876.JPG
break,html.Screen,4_125_1,2023-05-03T20:25:02.943Z,,0,,,NaN,,,,,,false,,,,1221377.2999999523,1221377.0999999046,,1221376.2000000477,,1221385.598,8,400,,,
break_continue,html.Screen,4_125_2,2023-05-03T20:25:02.944Z,,0,,,NaN,,,,,,false,,,,1221377.7999999523,1221377.7000000477,,1221377.5,,1221385.598,8,400,,,
