sender,sender_type,sender_id,timestamp,meta,,blockNo,condition,duration,ended_on,img_left,img_reveal,img_right,loser,practice,response,response_action,selection_duration,time_commit,time_end,time_render,time_run,time_show,time_switch,total_blocks,total_trials,trialNo,url,winner
informed_consent,html.Screen,0,2023-11-01T18:26:15.775Z,"{""labjs_version"":""20.2.4"",""labjs_build"":{""flavor"":""production"",""commit"":""f5b4a49f956347addd546a832a3327688c2c0fef""},""location"":""https://run.pavlovia.org/MurrayBennett/melanoma-2afc/?participant=66939&platform=sona"",""userAgent"":""Mozilla/5.0 (Macintosh; Intel Mac OS X 10_15_7) AppleWebKit/605.1.15 (KHTML, like Gecko) Version/14.1.2 Safari/605.1.15"",""platform"":""MacIntel"",""language"":""en-us"",""locale"":""en-US"",""timeZone"":""America/Chicago"",""timezoneOffset"":300,""screen_width"":1440,""screen_height"":900,""scroll_width"":1440,""scroll_height"":852,""window_innerWidth"":1440,""window_innerHeight"":900,""devicePixelRatio"":2}",,,,27591,response,,,,,,consent,click button,,34445,34444,6853,6740,6875,34470,,,,"{""participant"":""66939"",""platform"":""sona""}",
Welcome,html.Screen,1,2023-11-01T18:26:18.798Z,,,,symmetry,3011,response,,,,,,continue,click button,,37468,37467,34456,34445,34470,37487,,,,,
trial,html.Screen,2_0_0,2023-11-01T18:26:30.302Z,,0,0,,11518,timeout,ISIC_0069348.JPG,,ISIC_6997061.JPG,,true,,,500,48973,48972,37471,37468,37487,49005,1,6,1,,
sequence,flow.Sequence,2_0,2023-11-01T18:26:30.303Z,,0,,,11485,completion,,,,,true,,,,48974.00000000001,48972,37471,37468,37487,49005,1,6,,,
trial,html.Screen,2_1_0,2023-11-01T18:26:38.269Z,,0,0,,7949,response,ISIC_0009529.JPG,,ISIC_0057368.JPG,ISIC_0057368.JPG,true,0,keypress(z),500,56939,56939,48990,48974.00000000001,49005,56971,1,6,2,,ISIC_0009529.JPG
sequence,flow.Sequence,2_1,2023-11-01T18:26:38.269Z,,0,,,7934,completion,,,,,true,,,,56940,56939,48990,48974.00000000001,49005,56971,1,6,,,
trial,html.Screen,2_2_0,2023-11-01T18:26:44.639Z,,0,0,,6355,response,ISIC_9758671.JPG,,ISIC_0064954.JPG,ISIC_0064954.JPG,true,0,keypress(z),500,63310,63310,56955,56941,56971,63355,1,6,3,,ISIC_9758671.JPG
sequence,flow.Sequence,2_2,2023-11-01T18:26:44.640Z,,0,,,6339,completion,,,,,true,,,,63311,63310,56955,56941,56971,63355,1,6,,,
trial,html.Screen,2_3_0,2023-11-01T18:26:48.482Z,,0,0,,3815,response,ISIC_0000080.JPG,,ISIC_0005785.JPG,ISIC_0005785.JPG,true,0,keypress(z),500,67154,67153,63338,63312.00000000001,63355,67189,1,6,4,,ISIC_0000080.JPG
sequence,flow.Sequence,2_3,2023-11-01T18:26:48.483Z,,0,,,3798,completion,,,,,true,,,,67154,67153,63338,63311,63355,67189,1,6,,,
trial,html.Screen,2_4_0,2023-11-01T18:26:52.854Z,,0,0,,4352,response,ISIC_7944028.JPG,,ISIC_5390060.JPG,ISIC_5390060.JPG,true,0,keypress(z),500,71525,71524,67172,67155,67189,71555,1,6,5,,ISIC_7944028.JPG
sequence,flow.Sequence,2_4,2023-11-01T18:26:52.854Z,,0,,,4335,completion,,,,,true,,,,71526,71524,67172,67154,67189,71555,1,6,,,
trial,html.Screen,2_5_0,2023-11-01T18:26:56.486Z,,0,0,,3618,response,ISIC_0794216.JPG,,ISIC_0010188.JPG,ISIC_0010188.JPG,true,0,keypress(z),500,75158,75157,71539,71526,71555,75188,1,6,6,,ISIC_0794216.JPG
sequence,flow.Sequence,2_5,2023-11-01T18:26:56.486Z,,0,,,3602,completion,,,,,true,,,,75158,75157,71539,71526,71555,75188,1,6,,,
loop,flow.Loop,2,2023-11-01T18:26:56.487Z,,,,,37670,completion,,,,,true,,,,75159,75157,37471,37468,37487,75188,1,6,,,
exp_instructions,html.Screen,3,2023-11-01T18:27:07.395Z,,,,,10896,response,,,,,,continue,keypress(Space),,86067,86068,75172,75159,75188,86106,,,,,
trial,html.Screen,4_0_0,2023-11-01T18:27:12.432Z,,0,1,,5014.000000000015,response,ISIC_8241457.JPG,9,ISIC_7080584.JPG,ISIC_8241457.JPG,false,1,keypress(m),500,91104,91103.00000000001,86089,86067,86106,91138,8,400,1,,ISIC_7080584.JPG
break,html.Screen,4_0_1,2023-11-01T18:27:12.434Z,,0,,,NaN,,,,,,false,,,,91107,91106.00000000001,,91105,,91138,8,400,,,
break_continue,html.Screen,4_0_2,2023-11-01T18:27:12.436Z,,0,,,NaN,,,,,,false,,,,91108,91108,,91108,,91138,8,400,,,
sequence,flow.Sequence,4_0,2023-11-01T18:27:12.436Z,,0,,,5002,completion,,,,,false,,,,91109.00000000001,91108,86089,86067,86106,91138,8,400,,,
trial,html.Screen,4_1_0,2023-11-01T18:27:15.731Z,,0,1,,3281,response,ISIC_0055608.JPG,10,ISIC_0029374.JPG,ISIC_0055608.JPG,false,1,keypress(m),500,94404,94404,91123,91109.00000000001,91138,94439,8,400,2,,ISIC_0029374.JPG
break,html.Screen,4_1_1,2023-11-01T18:27:15.734Z,,0,,,NaN,,,,,,false,,,,94406,94405,,94405,,94439,8,400,,,
break_continue,html.Screen,4_1_2,2023-11-01T18:27:15.734Z,,0,,,NaN,,,,,,false,,,,94407,94407,,94407,,94439,8,400,,,
sequence,flow.Sequence,4_1,2023-11-01T18:27:15.734Z,,0,,,3269,completion,,,,,false,,,,94407,94407,91123,91109.00000000001,91138,94439,8,400,,,
trial,html.Screen,4_2_0,2023-11-01T18:27:21.253Z,,0,1,,5502,response,ISIC_4798962.JPG,12,ISIC_0015455.JPG,ISIC_0015455.JPG,false,0,keypress(z),500,99926,99925,94423,94407,94439,99956,8,400,3,,ISIC_4798962.JPG
break,html.Screen,4_2_1,2023-11-01T18:27:21.255Z,,0,,,NaN,,,,,,false,,,,99928,99927,,99927,,99956,8,400,,,
break_continue,html.Screen,4_2_2,2023-11-01T18:27:21.256Z,,0,,,NaN,,,,,,false,,,,99928,99928,,99928,,99956,8,400,,,
sequence,flow.Sequence,4_2,2023-11-01T18:27:21.256Z,,0,,,5489,completion,,,,,false,,,,99929,99928,94423,94407,94439,99956,8,400,,,
trial,html.Screen,4_3_0,2023-11-01T18:27:25.319Z,,0,1,,4052,response,ISIC_0029531.JPG,1,ISIC_0029056.JPG,ISIC_0029531.JPG,false,1,keypress(m),500,103992,103991,99939,99929,99956,104023,8,400,4,,ISIC_0029056.JPG
break,html.Screen,4_3_1,2023-11-01T18:27:25.320Z,,0,,,NaN,,,,,,false,,,,103993.00000000001,103993.00000000001,,103992,,104023,8,400,,,
break_continue,html.Screen,4_3_2,2023-11-01T18:27:25.321Z,,0,,,NaN,,,,,,false,,,,103994,103994,,103994,,104023,8,400,,,
sequence,flow.Sequence,4_3,2023-11-01T18:27:25.321Z,,0,,,4038,completion,,,,,false,,,,103994,103994,99939,99929,99956,104023,8,400,,,
trial,html.Screen,4_4_0,2023-11-01T18:27:28.577Z,,0,1,,3242,response,ISIC_0046741.JPG,8,ISIC_0027327.JPG,ISIC_0046741.JPG,false,1,keypress(m),500,107250,107249,104007,103995,104023,107290,8,400,5,,ISIC_0027327.JPG
break,html.Screen,4_4_1,2023-11-01T18:27:28.579Z,,0,,,NaN,,,,,,false,,,,107252,107252,,107251,,107290,8,400,,,
break_continue,html.Screen,4_4_2,2023-11-01T18:27:28.580Z,,0,,,NaN,,,,,,false,,,,107253,107252,,107252,,107290,8,400,,,
sequence,flow.Sequence,4_4,2023-11-01T18:27:28.580Z,,0,,,3229,completion,,,,,false,,,,107253,107252,104007,103995,104023,107290,8,400,,,
trial,html.Screen,4_5_0,2023-11-01T18:27:32.141Z,,0,1,,3541,response,ISIC_0034104.JPG,4,ISIC_1231722.JPG,ISIC_1231722.JPG,false,0,keypress(z),500,110814,110814,107273,107253,107290,110857,8,400,6,,ISIC_0034104.JPG
break,html.Screen,4_5_1,2023-11-01T18:27:32.142Z,,0,,,NaN,,,,,,false,,,,110815,110815,,110814,,110857,8,400,,,
break_continue,html.Screen,4_5_2,2023-11-01T18:27:32.142Z,,0,,,NaN,,,,,,false,,,,110815,110815,,110815,,110857,8,400,,,
sequence,flow.Sequence,4_5,2023-11-01T18:27:32.142Z,,0,,,3525,completion,,,,,false,,,,110816,110815,107273,107253,107290,110857,8,400,,,
trial,html.Screen,4_6_0,2023-11-01T18:27:36.457Z,,0,1,,4290,response,ISIC_1883330.JPG,6,ISIC_3352799.JPG,ISIC_1883330.JPG,false,1,keypress(m),500,115130,115130,110840,110816,110857,115173,8,400,7,,ISIC_3352799.JPG
break,html.Screen,4_6_1,2023-11-01T18:27:36.458Z,,0,,,NaN,,,,,,false,,,,115132,115131,,115131,,115173,8,400,,,
break_continue,html.Screen,4_6_2,2023-11-01T18:27:36.458Z,,0,,,NaN,,,,,,false,,,,115132,115132,,115132,,115173,8,400,,,
sequence,flow.Sequence,4_6,2023-11-01T18:27:36.459Z,,0,,,4275,completion,,,,,false,,,,115132,115132,110840,110816,110857,115173,8,400,,,
trial,html.Screen,4_7_0,2023-11-01T18:27:40.475Z,,0,1,,3991,response,ISIC_0063473.JPG,3,ISIC_2560463.JPG,ISIC_2560463.JPG,false,0,keypress(z),500,119149,119148,115157,115133,115173,119190,8,400,8,,ISIC_0063473.JPG
break,html.Screen,4_7_1,2023-11-01T18:27:40.477Z,,0,,,NaN,,,,,,false,,,,119151,119151,,119150,,119190,8,400,,,
break_continue,html.Screen,4_7_2,2023-11-01T18:27:40.478Z,,0,,,NaN,,,,,,false,,,,119152,119152,,119151,,119190,8,400,,,
sequence,flow.Sequence,4_7,2023-11-01T18:27:40.478Z,,0,,,3979,completion,,,,,false,,,,119152,119152,115157,115132,115173,119190,8,400,,,
trial,html.Screen,4_8_0,2023-11-01T18:27:45.076Z,,0,1,,4575.000000000015,response,ISIC_0032960.JPG,0,ISIC_0065390.JPG,ISIC_0065390.JPG,false,0,keypress(z),500,123750,123749.00000000001,119174,119152,119190,123791,8,400,9,,ISIC_0032960.JPG
break,html.Screen,4_8_1,2023-11-01T18:27:45.077Z,,0,,,NaN,,,,,,false,,,,123751,123751,,123751,,123791,8,400,,,
break_continue,html.Screen,4_8_2,2023-11-01T18:27:45.078Z,,0,,,NaN,,,,,,false,,,,123752.00000000001,123752.00000000001,,123752.00000000001,,123791,8,400,,,
sequence,flow.Sequence,4_8,2023-11-01T18:27:45.078Z,,0,,,4562.000000000015,completion,,,,,false,,,,123752.00000000001,123752.00000000001,119174,119152,119190,123791,8,400,,,
trial,html.Screen,4_9_0,2023-11-01T18:27:48.212Z,,0,1,,3111,response,ISIC_0033830.JPG,2,ISIC_0032033.JPG,ISIC_0033830.JPG,false,1,keypress(m),500,126886,126885,123774,123753,123791,126923,8,400,10,,ISIC_0032033.JPG
break,html.Screen,4_9_1,2023-11-01T18:27:48.213Z,,0,,,NaN,,,,,,false,,,,126887,126887,,126886,,126923,8,400,,,
break_continue,html.Screen,4_9_2,2023-11-01T18:27:48.214Z,,0,,,NaN,,,,,,false,,,,126888,126888,,126888,,126923,8,400,,,
sequence,flow.Sequence,4_9,2023-11-01T18:27:48.214Z,,0,,,3097,completion,,,,,false,,,,126888,126888,123774,123752.00000000001,123791,126923,8,400,,,
trial,html.Screen,4_10_0,2023-11-01T18:27:51.212Z,,0,1,,2979,response,ISIC_0055783.JPG,3,ISIC_0032226.JPG,ISIC_0032226.JPG,false,0,keypress(z),500,129887,129886,126907,126888,126923,129923,8,400,11,,ISIC_0055783.JPG
break,html.Screen,4_10_1,2023-11-01T18:27:51.214Z,,0,,,NaN,,,,,,false,,,,129888,129888,,129887,,129923,8,400,,,
break_continue,html.Screen,4_10_2,2023-11-01T18:27:51.214Z,,0,,,NaN,,,,,,false,,,,129888,129888,,129888,,129923,8,400,,,
sequence,flow.Sequence,4_10,2023-11-01T18:27:51.214Z,,0,,,2965,completion,,,,,false,,,,129889.00000000001,129888,126907,126888,126923,129923,8,400,,,
trial,html.Screen,4_11_0,2023-11-01T18:27:54.165Z,,0,1,,2932,response,ISIC_9130157.JPG,6,ISIC_0007760.JPG,ISIC_9130157.JPG,false,1,keypress(m),500,132839,132839,129907,129889.00000000001,129923,132874,8,400,12,,ISIC_0007760.JPG
break,html.Screen,4_11_1,2023-11-01T18:27:54.166Z,,0,,,NaN,,,,,,false,,,,132841,132840,,132840,,132874,8,400,,,
break_continue,html.Screen,4_11_2,2023-11-01T18:27:54.167Z,,0,,,NaN,,,,,,false,,,,132841,132841,,132841,,132874,8,400,,,
sequence,flow.Sequence,4_11,2023-11-01T18:27:54.167Z,,0,,,2918,completion,,,,,false,,,,132842,132841,129907,129889.00000000001,129923,132874,8,400,,,
trial,html.Screen,4_12_0,2023-11-01T18:27:57.405Z,,0,1,,3221,response,ISIC_5390932.JPG,15,ISIC_4541530.JPG,ISIC_5390932.JPG,false,1,keypress(m),500,136080,136079,132858,132842,132874,136108,8,400,13,,ISIC_4541530.JPG
break,html.Screen,4_12_1,2023-11-01T18:27:57.407Z,,0,,,NaN,,,,,,false,,,,136082,136081,,136081,,136108,8,400,,,
break_continue,html.Screen,4_12_2,2023-11-01T18:27:57.408Z,,0,,,NaN,,,,,,false,,,,136082,136082,,136082,,136108,8,400,,,
sequence,flow.Sequence,4_12,2023-11-01T18:27:57.408Z,,0,,,3208,completion,,,,,false,,,,136083,136082,132858,132842,132874,136108,8,400,,,
trial,html.Screen,4_13_0,2023-11-01T18:28:01.089Z,,0,1,,3672,response,ISIC_3750329.JPG,6,ISIC_8401332.JPG,ISIC_8401332.JPG,false,0,keypress(z),500,139764,139763,136091,136083,136108,139790,8,400,14,,ISIC_3750329.JPG
break,html.Screen,4_13_1,2023-11-01T18:28:01.091Z,,0,,,NaN,,,,,,false,,,,139766,139765.00000000003,,139765.00000000003,,139790,8,400,,,
break_continue,html.Screen,4_13_2,2023-11-01T18:28:01.091Z,,0,,,NaN,,,,,,false,,,,139766,139766,,139766,,139790,8,400,,,
sequence,flow.Sequence,4_13,2023-11-01T18:28:01.092Z,,0,,,3658,completion,,,,,false,,,,139767,139766,136091,136083,136108,139790,8,400,,,
trial,html.Screen,4_14_0,2023-11-01T18:28:04.966Z,,0,1,,3865.000000000029,response,ISIC_0000419.JPG,6,ISIC_3649113.JPG,ISIC_3649113.JPG,false,0,keypress(z),500,143641,143640.00000000003,139775,139767,139790,143675,8,400,15,,ISIC_0000419.JPG
break,html.Screen,4_14_1,2023-11-01T18:28:04.967Z,,0,,,NaN,,,,,,false,,,,143642,143642,,143641,,143675,8,400,,,
break_continue,html.Screen,4_14_2,2023-11-01T18:28:04.968Z,,0,,,NaN,,,,,,false,,,,143643,143643,,143643,,143675,8,400,,,
sequence,flow.Sequence,4_14,2023-11-01T18:28:04.968Z,,0,,,3853,completion,,,,,false,,,,143643,143643,139775,139767,139790,143675,8,400,,,
trial,html.Screen,4_15_0,2023-11-01T18:28:08.110Z,,0,1,,3126,response,ISIC_0024607.JPG,10,ISIC_1413242.JPG,ISIC_0024607.JPG,false,1,keypress(m),500,146785,146784,143658,143643,143675,146824,8,400,16,,ISIC_1413242.JPG
break,html.Screen,4_15_1,2023-11-01T18:28:08.111Z,,0,,,NaN,,,,,,false,,,,146786,146786,,146785,,146824,8,400,,,
break_continue,html.Screen,4_15_2,2023-11-01T18:28:08.112Z,,0,,,NaN,,,,,,false,,,,146787,146787,,146787,,146824,8,400,,,
sequence,flow.Sequence,4_15,2023-11-01T18:28:08.112Z,,0,,,3112,completion,,,,,false,,,,146787,146787,143658,143643,143675,146824,8,400,,,
trial,html.Screen,4_16_0,2023-11-01T18:28:11.115Z,,0,1,,2982,response,ISIC_0024840.JPG,7,ISIC_0029777.JPG,ISIC_0024840.JPG,false,1,keypress(m),500,149791,149790,146808,146788,146824,149808,8,400,17,,ISIC_0029777.JPG
break,html.Screen,4_16_1,2023-11-01T18:28:11.117Z,,0,,,NaN,,,,,,false,,,,149792,149792,,149791,,149808,8,400,,,
break_continue,html.Screen,4_16_2,2023-11-01T18:28:11.117Z,,0,,,NaN,,,,,,false,,,,149793,149792,,149792,,149808,8,400,,,
sequence,flow.Sequence,4_16,2023-11-01T18:28:11.118Z,,0,,,2968,completion,,,,,false,,,,149793,149792,146808,146788,146824,149808,8,400,,,
trial,html.Screen,4_17_0,2023-11-01T18:28:14.141Z,,0,1,,3020,response,ISIC_3541663.JPG,11,ISIC_0659400.JPG,ISIC_3541663.JPG,false,1,keypress(m),500,152816,152816,149796,149793,149808,152857,8,400,18,,ISIC_0659400.JPG
break,html.Screen,4_17_1,2023-11-01T18:28:14.142Z,,0,,,NaN,,,,,,false,,,,152818,152818,,152817,,152857,8,400,,,
break_continue,html.Screen,4_17_2,2023-11-01T18:28:14.143Z,,0,,,NaN,,,,,,false,,,,152818,152818,,152818,,152857,8,400,,,
sequence,flow.Sequence,4_17,2023-11-01T18:28:14.143Z,,0,,,3010,completion,,,,,false,,,,152818,152818,149796,149793,149808,152857,8,400,,,
trial,html.Screen,4_18_0,2023-11-01T18:28:18.966Z,,0,1,,4799,response,ISIC_7287303.JPG,7,ISIC_0011128.JPG,ISIC_0011128.JPG,false,0,keypress(z),500,157642,157641,152842,152819.00000000003,152857,157675,8,400,19,,ISIC_7287303.JPG
break,html.Screen,4_18_1,2023-11-01T18:28:18.968Z,,0,,,NaN,,,,,,false,,,,157644,157643,,157643,,157675,8,400,,,
break_continue,html.Screen,4_18_2,2023-11-01T18:28:18.968Z,,0,,,NaN,,,,,,false,,,,157644,157644,,157644,,157675,8,400,,,
sequence,flow.Sequence,4_18,2023-11-01T18:28:18.969Z,,0,,,4787,completion,,,,,false,,,,157644,157644,152842,152819.00000000003,152857,157675,8,400,,,
trial,html.Screen,4_19_0,2023-11-01T18:28:22.802Z,,0,1,,3818,response,ISIC_0046921.JPG,9,ISIC_5357288.JPG,ISIC_0046921.JPG,false,1,keypress(m),500,161478,161477,157659,157645,157675,161509,8,400,20,,ISIC_5357288.JPG
break,html.Screen,4_19_1,2023-11-01T18:28:22.803Z,,0,,,NaN,,,,,,false,,,,161479,161479,,161478,,161509,8,400,,,
break_continue,html.Screen,4_19_2,2023-11-01T18:28:22.804Z,,0,,,NaN,,,,,,false,,,,161480,161480,,161479,,161509,8,400,,,
sequence,flow.Sequence,4_19,2023-11-01T18:28:22.804Z,,0,,,3805,completion,,,,,false,,,,161480,161480,157659,157645,157675,161509,8,400,,,
trial,html.Screen,4_20_0,2023-11-01T18:28:26.168Z,,0,1,,3351,response,ISIC_6931712.JPG,10,ISIC_9406275.JPG,ISIC_9406275.JPG,false,0,keypress(z),500,164844,164843,161492,161480,161509,164876,8,400,21,,ISIC_6931712.JPG
break,html.Screen,4_20_1,2023-11-01T18:28:26.169Z,,0,,,NaN,,,,,,false,,,,164845,164845,,164844,,164876,8,400,,,
break_continue,html.Screen,4_20_2,2023-11-01T18:28:26.170Z,,0,,,NaN,,,,,,false,,,,164846,164846,,164846,,164876,8,400,,,
sequence,flow.Sequence,4_20,2023-11-01T18:28:26.170Z,,0,,,3337,completion,,,,,false,,,,164846,164846,161492,161480,161509,164876,8,400,,,
trial,html.Screen,4_21_0,2023-11-01T18:28:29.379Z,,0,1,,3196,response,ISIC_0033980.JPG,8,ISIC_0013579.JPG,ISIC_0013579.JPG,false,0,keypress(z),500,168056,168055,164859,164846,164876,168092,8,400,22,,ISIC_0033980.JPG
break,html.Screen,4_21_1,2023-11-01T18:28:29.381Z,,0,,,NaN,,,,,,false,,,,168057.00000000003,168057.00000000003,,168056,,168092,8,400,,,
break_continue,html.Screen,4_21_2,2023-11-01T18:28:29.382Z,,0,,,NaN,,,,,,false,,,,168058,168058,,168058,,168092,8,400,,,
sequence,flow.Sequence,4_21,2023-11-01T18:28:29.382Z,,0,,,3182,completion,,,,,false,,,,168058,168058,164859,164846,164876,168092,8,400,,,
trial,html.Screen,4_22_0,2023-11-01T18:28:33.329Z,,0,1,,3929,response,ISIC_0027100.JPG,15,ISIC_0011972.JPG,ISIC_0011972.JPG,false,0,keypress(z),500,172005,172005,168076,168058,168092,172043,8,400,23,,ISIC_0027100.JPG
break,html.Screen,4_22_1,2023-11-01T18:28:33.330Z,,0,,,NaN,,,,,,false,,,,172006,172006,,172006,,172043,8,400,,,
break_continue,html.Screen,4_22_2,2023-11-01T18:28:33.331Z,,0,,,NaN,,,,,,false,,,,172007,172007,,172007,,172043,8,400,,,
sequence,flow.Sequence,4_22,2023-11-01T18:28:33.331Z,,0,,,3915,completion,,,,,false,,,,172007,172007,168076,168058,168092,172043,8,400,,,
trial,html.Screen,4_23_0,2023-11-01T18:28:37.402Z,,0,1,,4048,response,ISIC_0065597.JPG,9,ISIC_8161933.JPG,ISIC_0065597.JPG,false,1,keypress(m),500,176079,176073,172025,172008,172043,176109,8,400,24,,ISIC_8161933.JPG
break,html.Screen,4_23_1,2023-11-01T18:28:37.404Z,,0,,,NaN,,,,,,false,,,,176081.00000000003,176080,,176080,,176109,8,400,,,
break_continue,html.Screen,4_23_2,2023-11-01T18:28:37.405Z,,0,,,NaN,,,,,,false,,,,176081.00000000003,176081.00000000003,,176081.00000000003,,176109,8,400,,,
sequence,flow.Sequence,4_23,2023-11-01T18:28:37.405Z,,0,,,4038.000000000029,completion,,,,,false,,,,176081.00000000003,176081.00000000003,172025,172007,172043,176109,8,400,,,
trial,html.Screen,4_24_0,2023-11-01T18:28:43.060Z,,0,1,,5644,response,ISIC_9546876.JPG,7,ISIC_5857303.JPG,ISIC_5857303.JPG,false,0,keypress(z),500,181737,181736,176092,176082,176109,181776,8,400,25,,ISIC_9546876.JPG
break,html.Screen,4_24_1,2023-11-01T18:28:43.062Z,,0,,,NaN,,,,,,false,,,,181738,181738,,181738,,181776,8,400,,,
break_continue,html.Screen,4_24_2,2023-11-01T18:28:43.062Z,,0,,,NaN,,,,,,false,,,,181739,181739,,181739,,181776,8,400,,,
sequence,flow.Sequence,4_24,2023-11-01T18:28:43.063Z,,0,,,5630,completion,,,,,false,,,,181740,181739,176092,176081.00000000003,176109,181776,8,400,,,
trial,html.Screen,4_25_0,2023-11-01T18:28:46.953Z,,0,1,,3869,response,ISIC_5732374.JPG,2,ISIC_0015412.JPG,ISIC_0015412.JPG,false,0,keypress(z),500,185630,185629,181760,181740,181776,185660,8,400,26,,ISIC_5732374.JPG
break,html.Screen,4_25_1,2023-11-01T18:28:46.954Z,,0,,,NaN,,,,,,false,,,,185631,185631,,185630,,185660,8,400,,,
break_continue,html.Screen,4_25_2,2023-11-01T18:28:46.955Z,,0,,,NaN,,,,,,false,,,,185632,185632,,185631,,185660,8,400,,,
sequence,flow.Sequence,4_25,2023-11-01T18:28:46.955Z,,0,,,3856,completion,,,,,false,,,,185632,185632,181760,181740,181776,185660,8,400,,,
trial,html.Screen,4_26_0,2023-11-01T18:28:51.036Z,,0,1,,4069.000000000029,response,ISIC_5747486.JPG,8,ISIC_1605629.JPG,ISIC_5747486.JPG,false,1,keypress(m),500,189713,189712.00000000003,185643,185632,185660,189743,8,400,27,,ISIC_1605629.JPG
break,html.Screen,4_26_1,2023-11-01T18:28:51.038Z,,0,,,NaN,,,,,,false,,,,189715,189715,,189714,,189743,8,400,,,
break_continue,html.Screen,4_26_2,2023-11-01T18:28:51.038Z,,0,,,NaN,,,,,,false,,,,189715,189715,,189715,,189743,8,400,,,
sequence,flow.Sequence,4_26,2023-11-01T18:28:51.038Z,,0,,,4055,completion,,,,,false,,,,189716,189715,185643,185632,185660,189743,8,400,,,
trial,html.Screen,4_27_0,2023-11-01T18:28:55.317Z,,0,1,,4268,response,ISIC_5284935.JPG,7,ISIC_1398618.JPG,ISIC_1398618.JPG,false,0,keypress(z),500,193994,193994,189726,189716,189743,194027,8,400,28,,ISIC_5284935.JPG
break,html.Screen,4_27_1,2023-11-01T18:28:55.317Z,,0,,,NaN,,,,,,false,,,,193995,193995,,193994,,194027,8,400,,,
break_continue,html.Screen,4_27_2,2023-11-01T18:28:55.317Z,,0,,,NaN,,,,,,false,,,,193995,193995,,193995,,194027,8,400,,,
sequence,flow.Sequence,4_27,2023-11-01T18:28:55.318Z,,0,,,4252,completion,,,,,false,,,,193995,193995,189726,189716,189743,194027,8,400,,,
trial,html.Screen,4_28_0,2023-11-01T18:28:58.743Z,,0,1,,3411.000000000029,response,ISIC_7680333.JPG,10,ISIC_3446357.JPG,ISIC_7680333.JPG,false,1,keypress(m),500,197421,197420.00000000003,194009,193995,194027,197460,8,400,29,,ISIC_3446357.JPG
break,html.Screen,4_28_1,2023-11-01T18:28:58.744Z,,0,,,NaN,,,,,,false,,,,197422,197422,,197421,,197460,8,400,,,
break_continue,html.Screen,4_28_2,2023-11-01T18:28:58.745Z,,0,,,NaN,,,,,,false,,,,197423,197423,,197422,,197460,8,400,,,
sequence,flow.Sequence,4_28,2023-11-01T18:28:58.745Z,,0,,,3396,completion,,,,,false,,,,197423,197423,194009,193995,194027,197460,8,400,,,
trial,html.Screen,4_29_0,2023-11-01T18:29:02.104Z,,0,1,,3339,response,ISIC_0073119.JPG,2,ISIC_0061583.JPG,ISIC_0073119.JPG,false,1,keypress(m),500,200782,200782,197443,197423,197460,200810,8,400,30,,ISIC_0061583.JPG
break,html.Screen,4_29_1,2023-11-01T18:29:02.106Z,,0,,,NaN,,,,,,false,,,,200783.00000000003,200783.00000000003,,200783.00000000003,,200810,8,400,,,
break_continue,html.Screen,4_29_2,2023-11-01T18:29:02.106Z,,0,,,NaN,,,,,,false,,,,200784,200784,,200784,,200810,8,400,,,
sequence,flow.Sequence,4_29,2023-11-01T18:29:02.106Z,,0,,,3324,completion,,,,,false,,,,200784,200784,197443,197423,197460,200810,8,400,,,
trial,html.Screen,4_30_0,2023-11-01T18:29:06.688Z,,0,1,,4571,response,ISIC_3552318.JPG,3,ISIC_7820005.JPG,ISIC_7820005.JPG,false,0,keypress(z),500,205366,205365,200794,200784,200810,205394,8,400,31,,ISIC_3552318.JPG
break,html.Screen,4_30_1,2023-11-01T18:29:06.689Z,,0,,,NaN,,,,,,false,,,,205368,205367,,205367,,205394,8,400,,,
break_continue,html.Screen,4_30_2,2023-11-01T18:29:06.690Z,,0,,,NaN,,,,,,false,,,,205368,205368,,205368,,205394,8,400,,,
sequence,flow.Sequence,4_30,2023-11-01T18:29:06.691Z,,0,,,4558,completion,,,,,false,,,,205369,205368,200794,200784,200810,205394,8,400,,,
trial,html.Screen,4_31_0,2023-11-01T18:29:10.405Z,,0,1,,3703,response,ISIC_0030481.JPG,7,ISIC_0024246.JPG,ISIC_0030481.JPG,false,1,keypress(m),500,209083,209079,205376,205369,205394,209110,8,400,32,,ISIC_0024246.JPG
break,html.Screen,4_31_1,2023-11-01T18:29:10.406Z,,0,,,NaN,,,,,,false,,,,209084,209084,,209083,,209110,8,400,,,
break_continue,html.Screen,4_31_2,2023-11-01T18:29:10.406Z,,0,,,NaN,,,,,,false,,,,209084,209084,,209084,,209110,8,400,,,
sequence,flow.Sequence,4_31,2023-11-01T18:29:10.406Z,,0,,,3690,completion,,,,,false,,,,209085,209084,205376,205369,205394,209110,8,400,,,
trial,html.Screen,4_32_0,2023-11-01T18:29:14.226Z,,0,1,,3810,response,ISIC_7452410.JPG,4,ISIC_7976934.JPG,ISIC_7452410.JPG,false,1,keypress(m),500,212905,212904,209094,209085,209110,212944,8,400,33,,ISIC_7976934.JPG
break,html.Screen,4_32_1,2023-11-01T18:29:14.227Z,,0,,,NaN,,,,,,false,,,,212906,212905,,212905,,212944,8,400,,,
break_continue,html.Screen,4_32_2,2023-11-01T18:29:14.228Z,,0,,,NaN,,,,,,false,,,,212906,212906,,212906,,212944,8,400,,,
sequence,flow.Sequence,4_32,2023-11-01T18:29:14.228Z,,0,,,3796,completion,,,,,false,,,,212907,212906,209094,209085,209110,212944,8,400,,,
trial,html.Screen,4_33_0,2023-11-01T18:29:18.732Z,,0,1,,4483,response,ISIC_7071944.JPG,9,ISIC_0002853.JPG,ISIC_0002853.JPG,false,0,keypress(z),500,217411,217410,212927,212907,212944,217444,8,400,34,,ISIC_7071944.JPG
break,html.Screen,4_33_1,2023-11-01T18:29:18.733Z,,0,,,NaN,,,,,,false,,,,217412,217412,,217411,,217444,8,400,,,
break_continue,html.Screen,4_33_2,2023-11-01T18:29:18.734Z,,0,,,NaN,,,,,,false,,,,217412,217412,,217412,,217444,8,400,,,
sequence,flow.Sequence,4_33,2023-11-01T18:29:18.734Z,,0,,,4468,completion,,,,,false,,,,217412,217412,212927,212907,212944,217444,8,400,,,
trial,html.Screen,4_34_0,2023-11-01T18:29:24.707Z,,0,1,,5958,response,ISIC_9028726.JPG,12,ISIC_0029937.JPG,ISIC_9028726.JPG,false,1,keypress(m),500,223386,223385,217427,217413,217444,223427,8,400,35,,ISIC_0029937.JPG
break,html.Screen,4_34_1,2023-11-01T18:29:24.708Z,,0,,,NaN,,,,,,false,,,,223387,223386,,223386,,223427,8,400,,,
break_continue,html.Screen,4_34_2,2023-11-01T18:29:24.708Z,,0,,,NaN,,,,,,false,,,,223387,223387,,223387,,223427,8,400,,,
sequence,flow.Sequence,4_34,2023-11-01T18:29:24.708Z,,0,,,5943,completion,,,,,false,,,,223387,223387,217427,217412,217444,223427,8,400,,,
trial,html.Screen,4_35_0,2023-11-01T18:29:28.043Z,,0,1,,3311,response,ISIC_3686329.JPG,8,ISIC_2007396.JPG,ISIC_2007396.JPG,false,0,keypress(z),500,226722,226722,223411,223388,223427,226761,8,400,36,,ISIC_3686329.JPG
break,html.Screen,4_35_1,2023-11-01T18:29:28.045Z,,0,,,NaN,,,,,,false,,,,226724.00000000003,226724.00000000003,,226723,,226761,8,400,,,
break_continue,html.Screen,4_35_2,2023-11-01T18:29:28.045Z,,0,,,NaN,,,,,,false,,,,226724.00000000003,226724.00000000003,,226724.00000000003,,226761,8,400,,,
sequence,flow.Sequence,4_35,2023-11-01T18:29:28.045Z,,0,,,3297.000000000029,completion,,,,,false,,,,226725,226724.00000000003,223411,223388,223427,226761,8,400,,,
trial,html.Screen,4_36_0,2023-11-01T18:29:32.637Z,,0,1,,4571,response,ISIC_3704157.JPG,10,ISIC_9058340.JPG,ISIC_9058340.JPG,false,0,keypress(z),500,231316,231316,226745,226725,226761,231345,8,400,37,,ISIC_3704157.JPG
break,html.Screen,4_36_1,2023-11-01T18:29:32.638Z,,0,,,NaN,,,,,,false,,,,231317,231317,,231317,,231345,8,400,,,
break_continue,html.Screen,4_36_2,2023-11-01T18:29:32.638Z,,0,,,NaN,,,,,,false,,,,231318,231318,,231317,,231345,8,400,,,
sequence,flow.Sequence,4_36,2023-11-01T18:29:32.639Z,,0,,,4557,completion,,,,,false,,,,231318,231318,226745,226725,226761,231345,8,400,,,
trial,html.Screen,4_37_0,2023-11-01T18:29:35.825Z,,0,1,,3176,response,ISIC_0034052.JPG,9,ISIC_9667908.JPG,ISIC_9667908.JPG,false,0,keypress(z),500,234504,234504,231328,231318,231345,234545,8,400,38,,ISIC_0034052.JPG
break,html.Screen,4_37_1,2023-11-01T18:29:35.826Z,,0,,,NaN,,,,,,false,,,,234506,234505,,234505,,234545,8,400,,,
break_continue,html.Screen,4_37_2,2023-11-01T18:29:35.827Z,,0,,,NaN,,,,,,false,,,,234506,234506,,234506,,234545,8,400,,,
sequence,flow.Sequence,4_37,2023-11-01T18:29:35.827Z,,0,,,3161,completion,,,,,false,,,,234507,234506,231328,231318,231345,234545,8,400,,,
trial,html.Screen,4_38_0,2023-11-01T18:29:39.475Z,,0,1,,3627,response,ISIC_2518672.JPG,9,ISIC_6358752.JPG,ISIC_6358752.JPG,false,0,keypress(z),500,238155,238154,234527,234507,234545,238195,8,400,39,,ISIC_2518672.JPG
break,html.Screen,4_38_1,2023-11-01T18:29:39.477Z,,0,,,NaN,,,,,,false,,,,238156,238156,,238155,,238195,8,400,,,
break_continue,html.Screen,4_38_2,2023-11-01T18:29:39.478Z,,0,,,NaN,,,,,,false,,,,238157,238157,,238157,,238195,8,400,,,
sequence,flow.Sequence,4_38,2023-11-01T18:29:39.478Z,,0,,,3612,completion,,,,,false,,,,238157,238157,234527,234507,234545,238195,8,400,,,
trial,html.Screen,4_39_0,2023-11-01T18:29:42.742Z,,0,1,,3243,response,ISIC_5333058.JPG,4,ISIC_4231346.JPG,ISIC_5333058.JPG,false,1,keypress(m),500,241422,241421,238178,238158.00000000003,238195,241445,8,400,40,,ISIC_4231346.JPG
break,html.Screen,4_39_1,2023-11-01T18:29:42.743Z,,0,,,NaN,,,,,,false,,,,241423,241423,,241422,,241445,8,400,,,
break_continue,html.Screen,4_39_2,2023-11-01T18:29:42.744Z,,0,,,NaN,,,,,,false,,,,241423,241423,,241423,,241445,8,400,,,
sequence,flow.Sequence,4_39,2023-11-01T18:29:42.744Z,,0,,,3228,completion,,,,,false,,,,241424,241423,238178,238158.00000000003,238195,241445,8,400,,,
trial,html.Screen,4_40_0,2023-11-01T18:29:46.182Z,,0,1,,3433.000000000029,response,ISIC_0024900.JPG,9,ISIC_5821131.JPG,ISIC_0024900.JPG,false,1,keypress(m),500,244862,244861.00000000003,241428,241424,241445,244895,8,400,41,,ISIC_5821131.JPG
break,html.Screen,4_40_1,2023-11-01T18:29:46.183Z,,0,,,NaN,,,,,,false,,,,244863,244863,,244862,,244895,8,400,,,
break_continue,html.Screen,4_40_2,2023-11-01T18:29:46.184Z,,0,,,NaN,,,,,,false,,,,244864,244864,,244863,,244895,8,400,,,
sequence,flow.Sequence,4_40,2023-11-01T18:29:46.184Z,,0,,,3419,completion,,,,,false,,,,244864,244864,241428,241424,241445,244895,8,400,,,
trial,html.Screen,4_41_0,2023-11-01T18:29:51.712Z,,0,1,,5513,response,ISIC_0000148.JPG,13,ISIC_5823292.JPG,ISIC_0000148.JPG,false,1,keypress(m),500,250393,250392,244879,244864,244895,250429,8,400,42,,ISIC_5823292.JPG
break,html.Screen,4_41_1,2023-11-01T18:29:51.714Z,,0,,,NaN,,,,,,false,,,,250394,250394,,250393,,250429,8,400,,,
break_continue,html.Screen,4_41_2,2023-11-01T18:29:51.714Z,,0,,,NaN,,,,,,false,,,,250395,250394,,250394,,250429,8,400,,,
sequence,flow.Sequence,4_41,2023-11-01T18:29:51.715Z,,0,,,5499,completion,,,,,false,,,,250395,250394,244879,244864,244895,250429,8,400,,,
trial,html.Screen,4_42_0,2023-11-01T18:29:55.445Z,,0,1,,3713,response,ISIC_0063753.JPG,12,ISIC_0064879.JPG,ISIC_0063753.JPG,false,1,keypress(m),500,254126,254125,250412,250395,250429,254162,8,400,43,,ISIC_0064879.JPG
break,html.Screen,4_42_1,2023-11-01T18:29:55.447Z,,0,,,NaN,,,,,,false,,,,254127,254127,,254126,,254162,8,400,,,
break_continue,html.Screen,4_42_2,2023-11-01T18:29:55.448Z,,0,,,NaN,,,,,,false,,,,254128,254128,,254128,,254162,8,400,,,
sequence,flow.Sequence,4_42,2023-11-01T18:29:55.448Z,,0,,,3699,completion,,,,,false,,,,254128,254128,250412,250395,250429,254162,8,400,,,
trial,html.Screen,4_43_0,2023-11-01T18:29:58.860Z,,0,1,,3394.000000000029,response,ISIC_2051278.JPG,15,ISIC_0000056.JPG,ISIC_0000056.JPG,false,0,keypress(z),500,257540.00000000003,257540.00000000003,254146,254129.00000000003,254162,257579,8,400,44,,ISIC_2051278.JPG
break,html.Screen,4_43_1,2023-11-01T18:29:58.861Z,,0,,,NaN,,,,,,false,,,,257542.00000000003,257542.00000000003,,257541,,257579,8,400,,,
break_continue,html.Screen,4_43_2,2023-11-01T18:29:58.862Z,,0,,,NaN,,,,,,false,,,,257543,257543,,257542.00000000003,,257579,8,400,,,
sequence,flow.Sequence,4_43,2023-11-01T18:29:58.863Z,,0,,,3381,completion,,,,,false,,,,257543,257543,254146,254129.00000000003,254162,257579,8,400,,,
trial,html.Screen,4_44_0,2023-11-01T18:30:02.330Z,,0,1,,3448,response,ISIC_0010014.JPG,15,ISIC_9950866.JPG,ISIC_0010014.JPG,false,1,keypress(m),500,261010,261010,257562,257543,257579,261046,8,400,45,,ISIC_9950866.JPG
break,html.Screen,4_44_1,2023-11-01T18:30:02.331Z,,0,,,NaN,,,,,,false,,,,261011.00000000003,261011.00000000003,,261011.00000000003,,261046,8,400,,,
break_continue,html.Screen,4_44_2,2023-11-01T18:30:02.331Z,,0,,,NaN,,,,,,false,,,,261012,261012,,261011.00000000003,,261046,8,400,,,
sequence,flow.Sequence,4_44,2023-11-01T18:30:02.331Z,,0,,,3433,completion,,,,,false,,,,261012,261012,257562,257543,257579,261046,8,400,,,
trial,html.Screen,4_45_0,2023-11-01T18:30:08.046Z,,0,1,,5698.000000000058,response,ISIC_0056389.JPG,13,ISIC_9887341.JPG,ISIC_0056389.JPG,false,1,keypress(m),500,266727.00000000006,266727.00000000006,261029,261012,261046,266763,8,400,46,,ISIC_9887341.JPG
break,html.Screen,4_45_1,2023-11-01T18:30:08.048Z,,0,,,NaN,,,,,,false,,,,266729,266729,,266728,,266763,8,400,,,
break_continue,html.Screen,4_45_2,2023-11-01T18:30:08.050Z,,0,,,NaN,,,,,,false,,,,266731,266731,,266731,,266763,8,400,,,
sequence,flow.Sequence,4_45,2023-11-01T18:30:08.050Z,,0,,,5685,completion,,,,,false,,,,266731,266731,261029,261012,261046,266763,8,400,,,
trial,html.Screen,4_46_0,2023-11-01T18:30:11.425Z,,0,1,,3359,response,ISIC_0031208.JPG,11,ISIC_7215208.JPG,ISIC_0031208.JPG,false,1,keypress(m),500,270106,270105,266746,266732,266763,270146,8,400,47,,ISIC_7215208.JPG
break,html.Screen,4_46_1,2023-11-01T18:30:11.426Z,,0,,,NaN,,,,,,false,,,,270107,270107,,270106,,270146,8,400,,,
break_continue,html.Screen,4_46_2,2023-11-01T18:30:11.427Z,,0,,,NaN,,,,,,false,,,,270108,270108,,270108,,270146,8,400,,,
sequence,flow.Sequence,4_46,2023-11-01T18:30:11.427Z,,0,,,3345,completion,,,,,false,,,,270108,270108,266746,266732,266763,270146,8,400,,,
trial,html.Screen,4_47_0,2023-11-01T18:30:14.418Z,,0,1,,2969,response,ISIC_0069504.JPG,5,ISIC_0027225.JPG,ISIC_0069504.JPG,false,1,keypress(m),500,273099,273098,270129,270108,270146,273129,8,400,48,,ISIC_0027225.JPG
break,html.Screen,4_47_1,2023-11-01T18:30:14.419Z,,0,,,NaN,,,,,,false,,,,273100,273100,,273099,,273129,8,400,,,
break_continue,html.Screen,4_47_2,2023-11-01T18:30:14.420Z,,0,,,NaN,,,,,,false,,,,273101,273101,,273101,,273129,8,400,,,
sequence,flow.Sequence,4_47,2023-11-01T18:30:14.420Z,,0,,,2955,completion,,,,,false,,,,273101,273101,270129,270108,270146,273129,8,400,,,
trial,html.Screen,4_48_0,2023-11-01T18:30:17.573Z,,0,1,,3141,response,ISIC_7956417.JPG,9,ISIC_0031717.JPG,ISIC_7956417.JPG,false,1,keypress(m),500,276255,276254,273113,273102.00000000006,273129,276296,8,400,49,,ISIC_0031717.JPG
break,html.Screen,4_48_1,2023-11-01T18:30:17.575Z,,0,,,NaN,,,,,,false,,,,276256,276256,,276255,,276296,8,400,,,
break_continue,html.Screen,4_48_2,2023-11-01T18:30:17.575Z,,0,,,NaN,,,,,,false,,,,276257,276257,,276257,,276296,8,400,,,
sequence,flow.Sequence,4_48,2023-11-01T18:30:17.576Z,,0,,,3128,completion,,,,,false,,,,276257,276257,273113,273102.00000000006,273129,276296,8,400,,,
trial,html.Screen,4_49_0,2023-11-01T18:30:22.784Z,,0,1,,5185.000000000058,response,ISIC_3952694.JPG,8,ISIC_1957685.JPG,ISIC_3952694.JPG,false,1,keypress(m),500,281465.00000000006,281465.00000000006,276280,276257,276296,281496,8,400,50,,ISIC_1957685.JPG
break,html.Screen,4_49_1,2023-11-01T18:30:32.800Z,,0,,,10001,timeout,,,,,false,,,,291482,291481,281480,281466,281496,291497,8,400,,,
break_continue,html.Screen,4_49_2,2023-11-01T18:30:34.817Z,,0,,,2025,response,,,,,false,continue,keypress(Space),,293499,293506,291481,291482,291497,293531,8,400,,,
sequence,flow.Sequence,4_49,2023-11-01T18:30:34.817Z,,0,,,17210,completion,,,,,false,,,,293500,293506,276280,276257,276296,293531,8,400,,,
trial,html.Screen,4_50_0,2023-11-01T18:30:38.312Z,,0,2,,3479,response,ISIC_6373500.JPG,9,ISIC_0054080.JPG,ISIC_6373500.JPG,false,1,keypress(m),500,296994,296994,293515,293500,293531,297031,8,400,1,,ISIC_0054080.JPG
break,html.Screen,4_50_1,2023-11-01T18:30:38.313Z,,0,,,NaN,,,,,,false,,,,296996,296995,,296995,,297031,8,400,,,
break_continue,html.Screen,4_50_2,2023-11-01T18:30:38.313Z,,0,,,NaN,,,,,,false,,,,296996,296996,,296996,,297031,8,400,,,
sequence,flow.Sequence,4_50,2023-11-01T18:30:38.314Z,,0,,,3465,completion,,,,,false,,,,296996,296996,293515,293500,293531,297031,8,400,,,
trial,html.Screen,4_51_0,2023-11-01T18:30:41.436Z,,0,2,,3103,response,ISIC_0027627.JPG,4,ISIC_0010879.JPG,ISIC_0027627.JPG,false,1,keypress(m),500,300119,300118,297015,296996,297031,300148,8,400,2,,ISIC_0010879.JPG
break,html.Screen,4_51_1,2023-11-01T18:30:41.437Z,,0,,,NaN,,,,,,false,,,,300120,300120,,300119,,300148,8,400,,,
break_continue,html.Screen,4_51_2,2023-11-01T18:30:41.438Z,,0,,,NaN,,,,,,false,,,,300121,300120,,300120,,300148,8,400,,,
sequence,flow.Sequence,4_51,2023-11-01T18:30:41.438Z,,0,,,3089,completion,,,,,false,,,,300121,300120,297015,296996,297031,300148,8,400,,,
trial,html.Screen,4_52_0,2023-11-01T18:30:46.085Z,,0,2,,4636,response,ISIC_9543945.JPG,7,ISIC_9335652.JPG,ISIC_9335652.JPG,false,0,keypress(z),500,304767,304767,300131,300121,300148,304798,8,400,3,,ISIC_9543945.JPG
break,html.Screen,4_52_1,2023-11-01T18:30:46.086Z,,0,,,NaN,,,,,,false,,,,304769,304768,,304768,,304798,8,400,,,
break_continue,html.Screen,4_52_2,2023-11-01T18:30:46.086Z,,0,,,NaN,,,,,,false,,,,304769,304769,,304769,,304798,8,400,,,
sequence,flow.Sequence,4_52,2023-11-01T18:30:46.086Z,,0,,,4621,completion,,,,,false,,,,304769,304769,300131,300121,300148,304798,8,400,,,
trial,html.Screen,4_53_0,2023-11-01T18:30:49.741Z,,0,2,,3642,response,ISIC_0033166.JPG,8,ISIC_0056055.JPG,ISIC_0056055.JPG,false,0,keypress(z),500,308424,308423,304781,304769,304798,308464,8,400,4,,ISIC_0033166.JPG
break,html.Screen,4_53_1,2023-11-01T18:30:49.742Z,,0,,,NaN,,,,,,false,,,,308425,308424,,308424,,308464,8,400,,,
break_continue,html.Screen,4_53_2,2023-11-01T18:30:49.742Z,,0,,,NaN,,,,,,false,,,,308425,308425,,308425,,308464,8,400,,,
sequence,flow.Sequence,4_53,2023-11-01T18:30:49.742Z,,0,,,3627,completion,,,,,false,,,,308425,308425,304781,304769,304798,308464,8,400,,,
trial,html.Screen,4_54_0,2023-11-01T18:30:54.992Z,,0,2,,5227,response,ISIC_6831108.JPG,3,ISIC_9210086.JPG,ISIC_6831108.JPG,false,1,keypress(m),500,313675,313675,308448,308426,308464,313715,8,400,5,,ISIC_9210086.JPG
break,html.Screen,4_54_1,2023-11-01T18:30:54.993Z,,0,,,NaN,,,,,,false,,,,313677,313676,,313676,,313715,8,400,,,
break_continue,html.Screen,4_54_2,2023-11-01T18:30:54.994Z,,0,,,NaN,,,,,,false,,,,313677,313677,,313677,,313715,8,400,,,
sequence,flow.Sequence,4_54,2023-11-01T18:30:54.994Z,,0,,,5213,completion,,,,,false,,,,313677,313677,308448,308426,308464,313715,8,400,,,
trial,html.Screen,4_55_0,2023-11-01T18:30:58.676Z,,0,2,,3661,response,ISIC_0032938.JPG,6,ISIC_0069395.JPG,ISIC_0069395.JPG,false,0,keypress(z),500,317360,317359,313698,313677,313715,317399,8,400,6,,ISIC_0032938.JPG
break,html.Screen,4_55_1,2023-11-01T18:30:58.678Z,,0,,,NaN,,,,,,false,,,,317361,317361,,317360,,317399,8,400,,,
break_continue,html.Screen,4_55_2,2023-11-01T18:30:58.678Z,,0,,,NaN,,,,,,false,,,,317362,317361,,317361,,317399,8,400,,,
sequence,flow.Sequence,4_55,2023-11-01T18:30:58.678Z,,0,,,3646,completion,,,,,false,,,,317362,317361,313698,313677,313715,317399,8,400,,,
trial,html.Screen,4_56_0,2023-11-01T18:31:01.669Z,,0,2,,2971,response,ISIC_0034046.JPG,6,ISIC_7806926.JPG,ISIC_7806926.JPG,false,0,keypress(z),500,320353,320353,317382,317362,317399,320382,8,400,7,,ISIC_0034046.JPG
break,html.Screen,4_56_1,2023-11-01T18:31:01.671Z,,0,,,NaN,,,,,,false,,,,320354,320354,,320353,,320382,8,400,,,
break_continue,html.Screen,4_56_2,2023-11-01T18:31:01.671Z,,0,,,NaN,,,,,,false,,,,320355,320355,,320354,,320382,8,400,,,
sequence,flow.Sequence,4_56,2023-11-01T18:31:01.671Z,,0,,,2956,completion,,,,,false,,,,320355,320355,317382,317362,317399,320382,8,400,,,
trial,html.Screen,4_57_0,2023-11-01T18:31:07.062Z,,0,2,,5380,response,ISIC_0801281.JPG,15,ISIC_0063872.JPG,ISIC_0063872.JPG,false,0,keypress(z),500,325746,325745,320365,320355,320382,325782,8,400,8,,ISIC_0801281.JPG
break,html.Screen,4_57_1,2023-11-01T18:31:07.064Z,,0,,,NaN,,,,,,false,,,,325747,325747,,325746,,325782,8,400,,,
break_continue,html.Screen,4_57_2,2023-11-01T18:31:07.064Z,,0,,,NaN,,,,,,false,,,,325748,325748,,325748,,325782,8,400,,,
sequence,flow.Sequence,4_57,2023-11-01T18:31:07.064Z,,0,,,5366,completion,,,,,false,,,,325748,325748,320365,320355,320382,325782,8,400,,,
trial,html.Screen,4_58_0,2023-11-01T18:31:10.482Z,,0,2,,3401,response,ISIC_0031985.JPG,13,ISIC_0012211.JPG,ISIC_0031985.JPG,false,1,keypress(m),500,329166,329166,325765,325749,325782,329199,8,400,9,,ISIC_0012211.JPG
break,html.Screen,4_58_1,2023-11-01T18:31:10.484Z,,0,,,NaN,,,,,,false,,,,329168,329167.00000000006,,329167.00000000006,,329199,8,400,,,
break_continue,html.Screen,4_58_2,2023-11-01T18:31:10.484Z,,0,,,NaN,,,,,,false,,,,329168,329168,,329168,,329199,8,400,,,
sequence,flow.Sequence,4_58,2023-11-01T18:31:10.484Z,,0,,,3386,completion,,,,,false,,,,329168,329168,325765,325749,325782,329199,8,400,,,
trial,html.Screen,4_59_0,2023-11-01T18:31:13.830Z,,0,2,,3331.000000000058,response,ISIC_0000166.JPG,2,ISIC_8566006.JPG,ISIC_0000166.JPG,false,1,keypress(m),500,332514,332513.00000000006,329182,329168,329199,332549,8,400,10,,ISIC_8566006.JPG
break,html.Screen,4_59_1,2023-11-01T18:31:13.831Z,,0,,,NaN,,,,,,false,,,,332515,332515,,332514,,332549,8,400,,,
break_continue,html.Screen,4_59_2,2023-11-01T18:31:13.832Z,,0,,,NaN,,,,,,false,,,,332516,332516,,332516,,332549,8,400,,,
sequence,flow.Sequence,4_59,2023-11-01T18:31:13.832Z,,0,,,3317,completion,,,,,false,,,,332516,332516,329182,329168,329199,332549,8,400,,,
trial,html.Screen,4_60_0,2023-11-01T18:31:17.129Z,,0,2,,3280,response,ISIC_1373468.JPG,12,ISIC_2784664.JPG,ISIC_2784664.JPG,false,0,keypress(z),500,335813,335813,332533,332517,332549,335849,8,400,11,,ISIC_1373468.JPG
break,html.Screen,4_60_1,2023-11-01T18:31:17.130Z,,0,,,NaN,,,,,,false,,,,335815,335814,,335814,,335849,8,400,,,
break_continue,html.Screen,4_60_2,2023-11-01T18:31:17.131Z,,0,,,NaN,,,,,,false,,,,335815,335815,,335815,,335849,8,400,,,
sequence,flow.Sequence,4_60,2023-11-01T18:31:17.131Z,,0,,,3266,completion,,,,,false,,,,335816.00000000006,335815,332533,332516,332549,335849,8,400,,,
trial,html.Screen,4_61_0,2023-11-01T18:31:20.979Z,,0,2,,3830,response,ISIC_7284399.JPG,11,ISIC_3922602.JPG,ISIC_3922602.JPG,false,0,keypress(z),500,339664,339663,335833,335816.00000000006,335849,339699,8,400,12,,ISIC_7284399.JPG
break,html.Screen,4_61_1,2023-11-01T18:31:20.980Z,,0,,,NaN,,,,,,false,,,,339665,339665,,339664,,339699,8,400,,,
break_continue,html.Screen,4_61_2,2023-11-01T18:31:20.981Z,,0,,,NaN,,,,,,false,,,,339665,339665,,339665,,339699,8,400,,,
sequence,flow.Sequence,4_61,2023-11-01T18:31:20.981Z,,0,,,3816,completion,,,,,false,,,,339666,339665,335833,335816.00000000006,335849,339699,8,400,,,
trial,html.Screen,4_62_0,2023-11-01T18:31:24.051Z,,0,2,,3052,response,ISIC_9660528.JPG,13,ISIC_5386244.JPG,ISIC_5386244.JPG,false,0,keypress(z),500,342736,342735,339683,339666,339699,342766,8,400,13,,ISIC_9660528.JPG
break,html.Screen,4_62_1,2023-11-01T18:31:24.053Z,,0,,,NaN,,,,,,false,,,,342737,342737,,342736,,342766,8,400,,,
break_continue,html.Screen,4_62_2,2023-11-01T18:31:24.053Z,,0,,,NaN,,,,,,false,,,,342738,342738,,342738,,342766,8,400,,,
sequence,flow.Sequence,4_62,2023-11-01T18:31:24.054Z,,0,,,3039,completion,,,,,false,,,,342738,342738,339683,339666,339699,342766,8,400,,,
trial,html.Screen,4_63_0,2023-11-01T18:31:27.407Z,,0,2,,3342,response,ISIC_0072173.JPG,5,ISIC_8077943.JPG,ISIC_0072173.JPG,false,1,keypress(m),500,346092,346091,342749,342739.00000000006,342766,346116,8,400,14,,ISIC_8077943.JPG
break,html.Screen,4_63_1,2023-11-01T18:31:27.408Z,,0,,,NaN,,,,,,false,,,,346093,346092,,346092,,346116,8,400,,,
break_continue,html.Screen,4_63_2,2023-11-01T18:31:27.408Z,,0,,,NaN,,,,,,false,,,,346093,346093,,346093,,346116,8,400,,,
sequence,flow.Sequence,4_63,2023-11-01T18:31:27.409Z,,0,,,3327,completion,,,,,false,,,,346093,346093,342749,342738,342766,346116,8,400,,,
trial,html.Screen,4_64_0,2023-11-01T18:31:31.390Z,,0,2,,3975,response,ISIC_0011268.JPG,8,ISIC_0011729.JPG,ISIC_0011268.JPG,false,1,keypress(m),500,350075,350074,346099,346094,346116,350117,8,400,15,,ISIC_0011729.JPG
break,html.Screen,4_64_1,2023-11-01T18:31:31.391Z,,0,,,NaN,,,,,,false,,,,350076,350076,,350075,,350117,8,400,,,
break_continue,html.Screen,4_64_2,2023-11-01T18:31:31.392Z,,0,,,NaN,,,,,,false,,,,350077,350076,,350076,,350117,8,400,,,
sequence,flow.Sequence,4_64,2023-11-01T18:31:31.392Z,,0,,,3960,completion,,,,,false,,,,350077,350076,346099,346094,346116,350117,8,400,,,
trial,html.Screen,4_65_0,2023-11-01T18:31:34.916Z,,0,2,,3500,response,ISIC_7059794.JPG,6,ISIC_1566428.JPG,ISIC_7059794.JPG,false,1,keypress(m),500,353601,353600,350100,350077,350117,353633,8,400,16,,ISIC_1566428.JPG
break,html.Screen,4_65_1,2023-11-01T18:31:34.917Z,,0,,,NaN,,,,,,false,,,,353603,353602.00000000006,,353601,,353633,8,400,,,
break_continue,html.Screen,4_65_2,2023-11-01T18:31:34.918Z,,0,,,NaN,,,,,,false,,,,353603,353603,,353603,,353633,8,400,,,
sequence,flow.Sequence,4_65,2023-11-01T18:31:34.918Z,,0,,,3486,completion,,,,,false,,,,353603,353603,350100,350077,350117,353633,8,400,,,
trial,html.Screen,4_66_0,2023-11-01T18:31:38.848Z,,0,2,,3917,response,ISIC_0010142.JPG,8,ISIC_0057016.JPG,ISIC_0057016.JPG,false,0,keypress(z),500,357534,357533,353616,353604,353633,357567,8,400,17,,ISIC_0010142.JPG
break,html.Screen,4_66_1,2023-11-01T18:31:38.849Z,,0,,,NaN,,,,,,false,,,,357535,357534,,357534,,357567,8,400,,,
break_continue,html.Screen,4_66_2,2023-11-01T18:31:38.850Z,,0,,,NaN,,,,,,false,,,,357535,357535,,357535,,357567,8,400,,,
sequence,flow.Sequence,4_66,2023-11-01T18:31:38.850Z,,0,,,3902,completion,,,,,false,,,,357535,357535,353616,353604,353633,357567,8,400,,,
trial,html.Screen,4_67_0,2023-11-01T18:31:42.168Z,,0,2,,3303,response,ISIC_0068080.JPG,9,ISIC_4620053.JPG,ISIC_0068080.JPG,false,1,keypress(m),500,360854,360853,357550,357536,357567,360884,8,400,18,,ISIC_4620053.JPG
break,html.Screen,4_67_1,2023-11-01T18:31:42.169Z,,0,,,NaN,,,,,,false,,,,360855,360855,,360854,,360884,8,400,,,
break_continue,html.Screen,4_67_2,2023-11-01T18:31:42.170Z,,0,,,NaN,,,,,,false,,,,360856,360855,,360855,,360884,8,400,,,
sequence,flow.Sequence,4_67,2023-11-01T18:31:42.170Z,,0,,,3288,completion,,,,,false,,,,360856,360855,357550,357536,357567,360884,8,400,,,
trial,html.Screen,4_68_0,2023-11-01T18:31:45.650Z,,0,2,,3469,response,ISIC_0011626.JPG,7,ISIC_0026685.JPG,ISIC_0011626.JPG,false,1,keypress(m),500,364336,364336,360867,360856,360884,364366,8,400,19,,ISIC_0026685.JPG
break,html.Screen,4_68_1,2023-11-01T18:31:45.652Z,,0,,,NaN,,,,,,false,,,,364338,364337,,364337,,364366,8,400,,,
break_continue,html.Screen,4_68_2,2023-11-01T18:31:45.652Z,,0,,,NaN,,,,,,false,,,,364338,364338,,364338,,364366,8,400,,,
sequence,flow.Sequence,4_68,2023-11-01T18:31:45.652Z,,0,,,3454,completion,,,,,false,,,,364338,364338,360867,360856,360884,364366,8,400,,,
trial,html.Screen,4_69_0,2023-11-01T18:31:50.920Z,,0,2,,5255,response,ISIC_0026879.JPG,9,ISIC_2072219.JPG,ISIC_0026879.JPG,false,1,keypress(m),500,369606,369605,364350,364338,364366,369634,8,400,20,,ISIC_2072219.JPG
break,html.Screen,4_69_1,2023-11-01T18:31:50.921Z,,0,,,NaN,,,,,,false,,,,369607,369607,,369606,,369634,8,400,,,
break_continue,html.Screen,4_69_2,2023-11-01T18:31:50.921Z,,0,,,NaN,,,,,,false,,,,369607,369607,,369607,,369634,8,400,,,
sequence,flow.Sequence,4_69,2023-11-01T18:31:50.921Z,,0,,,5241,completion,,,,,false,,,,369607,369607,364350,364338,364366,369634,8,400,,,
trial,html.Screen,4_70_0,2023-11-01T18:31:54.589Z,,0,2,,3658.000000000058,response,ISIC_0058946.JPG,2,ISIC_0056937.JPG,ISIC_0056937.JPG,false,0,keypress(z),500,373275.00000000006,373275.00000000006,369617,369608,369634,373317,8,400,21,,ISIC_0058946.JPG
break,html.Screen,4_70_1,2023-11-01T18:31:54.590Z,,0,,,NaN,,,,,,false,,,,373276,373276,,373276,,373317,8,400,,,
break_continue,html.Screen,4_70_2,2023-11-01T18:31:54.590Z,,0,,,NaN,,,,,,false,,,,373277,373277,,373276,,373317,8,400,,,
sequence,flow.Sequence,4_70,2023-11-01T18:31:54.591Z,,0,,,3643,completion,,,,,false,,,,373277,373277,369617,369608,369634,373317,8,400,,,
trial,html.Screen,4_71_0,2023-11-01T18:31:58.917Z,,0,2,,4302,response,ISIC_0061848.JPG,10,ISIC_4810485.JPG,ISIC_4810485.JPG,false,0,keypress(z),500,377604,377603,373301,373277,373317,377634,8,400,22,,ISIC_0061848.JPG
break,html.Screen,4_71_1,2023-11-01T18:31:58.919Z,,0,,,NaN,,,,,,false,,,,377605,377605,,377604,,377634,8,400,,,
break_continue,html.Screen,4_71_2,2023-11-01T18:31:58.919Z,,0,,,NaN,,,,,,false,,,,377606,377606,,377605,,377634,8,400,,,
sequence,flow.Sequence,4_71,2023-11-01T18:31:58.920Z,,0,,,4289,completion,,,,,false,,,,377606,377606,373301,373277,373317,377634,8,400,,,
trial,html.Screen,4_72_0,2023-11-01T18:32:02.000Z,,0,2,,3069.000000000058,response,ISIC_5923430.JPG,8,ISIC_0056246.JPG,ISIC_0056246.JPG,false,0,keypress(z),500,380687,380686.00000000006,377617,377606,377634,380717,8,400,23,,ISIC_5923430.JPG
break,html.Screen,4_72_1,2023-11-01T18:32:02.001Z,,0,,,NaN,,,,,,false,,,,380688,380688,,380687,,380717,8,400,,,
break_continue,html.Screen,4_72_2,2023-11-01T18:32:02.002Z,,0,,,NaN,,,,,,false,,,,380688,380688,,380688,,380717,8,400,,,
sequence,flow.Sequence,4_72,2023-11-01T18:32:02.002Z,,0,,,3054,completion,,,,,false,,,,380689,380688,377617,377606,377634,380717,8,400,,,
trial,html.Screen,4_73_0,2023-11-01T18:32:05.136Z,,0,2,,3121,response,ISIC_8425541.JPG,7,ISIC_8197240.JPG,ISIC_8425541.JPG,false,1,keypress(m),500,383822,383822,380701,380689,380717,383851,8,400,24,,ISIC_8197240.JPG
break,html.Screen,4_73_1,2023-11-01T18:32:05.137Z,,0,,,NaN,,,,,,false,,,,383823.00000000006,383823.00000000006,,383823.00000000006,,383851,8,400,,,
break_continue,html.Screen,4_73_2,2023-11-01T18:32:05.137Z,,0,,,NaN,,,,,,false,,,,383824,383824,,383824,,383851,8,400,,,
sequence,flow.Sequence,4_73,2023-11-01T18:32:05.137Z,,0,,,3107,completion,,,,,false,,,,383824,383824,380701,380689,380717,383851,8,400,,,
trial,html.Screen,4_74_0,2023-11-01T18:32:08.065Z,,0,2,,2917.000000000058,response,ISIC_9764973.JPG,5,ISIC_0011398.JPG,ISIC_0011398.JPG,false,0,keypress(z),500,386752,386751.00000000006,383834,383824,383851,386785,8,400,25,,ISIC_9764973.JPG
break,html.Screen,4_74_1,2023-11-01T18:32:08.067Z,,0,,,NaN,,,,,,false,,,,386753,386753,,386752,,386785,8,400,,,
break_continue,html.Screen,4_74_2,2023-11-01T18:32:08.067Z,,0,,,NaN,,,,,,false,,,,386754,386754,,386754,,386785,8,400,,,
sequence,flow.Sequence,4_74,2023-11-01T18:32:08.067Z,,0,,,2903,completion,,,,,false,,,,386754,386754,383834,383824,383851,386785,8,400,,,
trial,html.Screen,4_75_0,2023-11-01T18:32:11.291Z,,0,2,,3208,response,ISIC_0025964.JPG,6,ISIC_0034051.JPG,ISIC_0034051.JPG,false,0,keypress(z),500,389978,389975,386767,386754,386785,390018,8,400,26,,ISIC_0025964.JPG
break,html.Screen,4_75_1,2023-11-01T18:32:11.293Z,,0,,,NaN,,,,,,false,,,,389980,389979,,389979,,390018,8,400,,,
break_continue,html.Screen,4_75_2,2023-11-01T18:32:11.293Z,,0,,,NaN,,,,,,false,,,,389980,389980,,389980,,390018,8,400,,,
sequence,flow.Sequence,4_75,2023-11-01T18:32:11.293Z,,0,,,3195,completion,,,,,false,,,,389980,389980,386767,386754,386785,390018,8,400,,,
trial,html.Screen,4_76_0,2023-11-01T18:32:14.693Z,,0,2,,3378,response,ISIC_2463014.JPG,0,ISIC_2714907.JPG,ISIC_2714907.JPG,false,0,keypress(z),500,393380,393379,390001,389980,390018,393418,8,400,27,,ISIC_2463014.JPG
break,html.Screen,4_76_1,2023-11-01T18:32:14.694Z,,0,,,NaN,,,,,,false,,,,393381,393381,,393380,,393418,8,400,,,
break_continue,html.Screen,4_76_2,2023-11-01T18:32:14.694Z,,0,,,NaN,,,,,,false,,,,393382,393381,,393381,,393418,8,400,,,
sequence,flow.Sequence,4_76,2023-11-01T18:32:14.695Z,,0,,,3363,completion,,,,,false,,,,393382,393381,390001,389980,390018,393418,8,400,,,
trial,html.Screen,4_77_0,2023-11-01T18:32:18.089Z,,0,2,,3374,response,ISIC_6028082.JPG,0,ISIC_7562175.JPG,ISIC_7562175.JPG,false,0,keypress(z),500,396776,396776,393402,393382,393418,396802,8,400,28,,ISIC_6028082.JPG
break,html.Screen,4_77_1,2023-11-01T18:32:18.090Z,,0,,,NaN,,,,,,false,,,,396778,396777,,396777,,396802,8,400,,,
break_continue,html.Screen,4_77_2,2023-11-01T18:32:18.091Z,,0,,,NaN,,,,,,false,,,,396778,396778,,396778,,396802,8,400,,,
sequence,flow.Sequence,4_77,2023-11-01T18:32:18.091Z,,0,,,3360,completion,,,,,false,,,,396778,396778,393402,393382,393418,396802,8,400,,,
trial,html.Screen,4_78_0,2023-11-01T18:32:22.979Z,,0,2,,4881,response,ISIC_1368336.JPG,5,ISIC_0008881.JPG,ISIC_0008881.JPG,false,0,keypress(z),500,401666,401666,396785,396779,396802,401702,8,400,29,,ISIC_1368336.JPG
break,html.Screen,4_78_1,2023-11-01T18:32:22.980Z,,0,,,NaN,,,,,,false,,,,401668,401667.00000000006,,401667.00000000006,,401702,8,400,,,
break_continue,html.Screen,4_78_2,2023-11-01T18:32:22.981Z,,0,,,NaN,,,,,,false,,,,401669,401668,,401668,,401702,8,400,,,
sequence,flow.Sequence,4_78,2023-11-01T18:32:22.981Z,,0,,,4866,completion,,,,,false,,,,401669,401668,396785,396779,396802,401702,8,400,,,
trial,html.Screen,4_79_0,2023-11-01T18:32:26.253Z,,0,2,,3255,response,ISIC_0011763.JPG,3,ISIC_0046315.JPG,ISIC_0011763.JPG,false,1,keypress(m),500,404940,404940,401685,401669,401702,404968,8,400,30,,ISIC_0046315.JPG
break,html.Screen,4_79_1,2023-11-01T18:32:26.254Z,,0,,,NaN,,,,,,false,,,,404942,404941.00000000006,,404941.00000000006,,404968,8,400,,,
break_continue,html.Screen,4_79_2,2023-11-01T18:32:26.254Z,,0,,,NaN,,,,,,false,,,,404942,404942,,404942,,404968,8,400,,,
sequence,flow.Sequence,4_79,2023-11-01T18:32:26.255Z,,0,,,3240,completion,,,,,false,,,,404943,404942,401685,401669,401702,404968,8,400,,,
trial,html.Screen,4_80_0,2023-11-01T18:32:30.310Z,,0,2,,4045,response,ISIC_5568834.JPG,0,ISIC_0028444.JPG,ISIC_0028444.JPG,false,0,keypress(z),500,408998,408997,404952,404943,404968,409035,8,400,31,,ISIC_5568834.JPG
break,html.Screen,4_80_1,2023-11-01T18:32:30.311Z,,0,,,NaN,,,,,,false,,,,408999,408999,,408998,,409035,8,400,,,
break_continue,html.Screen,4_80_2,2023-11-01T18:32:30.312Z,,0,,,NaN,,,,,,false,,,,409000,409000,,408999,,409035,8,400,,,
sequence,flow.Sequence,4_80,2023-11-01T18:32:30.312Z,,0,,,4032,completion,,,,,false,,,,409000,409000,404952,404943,404968,409035,8,400,,,
trial,html.Screen,4_81_0,2023-11-01T18:32:33.608Z,,0,2,,3277,response,ISIC_1949126.JPG,15,ISIC_0024208.JPG,ISIC_1949126.JPG,false,1,keypress(m),500,412296,412296,409019,409000,409035,412336,8,400,32,,ISIC_0024208.JPG
break,html.Screen,4_81_1,2023-11-01T18:32:33.610Z,,0,,,NaN,,,,,,false,,,,412298,412297,,412297,,412336,8,400,,,
break_continue,html.Screen,4_81_2,2023-11-01T18:32:33.610Z,,0,,,NaN,,,,,,false,,,,412298,412298,,412298,,412336,8,400,,,
sequence,flow.Sequence,4_81,2023-11-01T18:32:33.610Z,,0,,,3263,completion,,,,,false,,,,412298,412298,409019,409000,409035,412336,8,400,,,
trial,html.Screen,4_82_0,2023-11-01T18:32:37.642Z,,0,2,,4011,response,ISIC_0069189.JPG,2,ISIC_0014541.JPG,ISIC_0014541.JPG,false,0,keypress(z),500,416330,416330,412319,412299.00000000006,412336,416369,8,400,33,,ISIC_0069189.JPG
break,html.Screen,4_82_1,2023-11-01T18:32:37.643Z,,0,,,NaN,,,,,,false,,,,416331,416331,,416331,,416369,8,400,,,
break_continue,html.Screen,4_82_2,2023-11-01T18:32:37.644Z,,0,,,NaN,,,,,,false,,,,416332,416332,,416332,,416369,8,400,,,
sequence,flow.Sequence,4_82,2023-11-01T18:32:37.644Z,,0,,,3996,completion,,,,,false,,,,416332,416332,412319,412299.00000000006,412336,416369,8,400,,,
trial,html.Screen,4_83_0,2023-11-01T18:32:41.533Z,,0,2,,3869,response,ISIC_7776719.JPG,2,ISIC_1615485.JPG,ISIC_7776719.JPG,false,1,keypress(m),500,420222.00000000006,420221,416352,416333,416369,420253,8,400,34,,ISIC_1615485.JPG
break,html.Screen,4_83_1,2023-11-01T18:32:41.535Z,,0,,,NaN,,,,,,false,,,,420223,420223,,420222.00000000006,,420253,8,400,,,
break_continue,html.Screen,4_83_2,2023-11-01T18:32:41.535Z,,0,,,NaN,,,,,,false,,,,420223,420223,,420223,,420253,8,400,,,
sequence,flow.Sequence,4_83,2023-11-01T18:32:41.535Z,,0,,,3854,completion,,,,,false,,,,420224,420223,416352,416333,416369,420253,8,400,,,
trial,html.Screen,4_84_0,2023-11-01T18:32:44.659Z,,0,2,,3111.000000000058,response,ISIC_0013141.JPG,11,ISIC_3820669.JPG,ISIC_3820669.JPG,false,0,keypress(z),500,423348,423347.00000000006,420236,420224,420253,423386,8,400,35,,ISIC_0013141.JPG
break,html.Screen,4_84_1,2023-11-01T18:32:44.661Z,,0,,,NaN,,,,,,false,,,,423349,423349,,423348,,423386,8,400,,,
break_continue,html.Screen,4_84_2,2023-11-01T18:32:44.661Z,,0,,,NaN,,,,,,false,,,,423350,423350,,423349,,423386,8,400,,,
sequence,flow.Sequence,4_84,2023-11-01T18:32:44.662Z,,0,,,3097,completion,,,,,false,,,,423350,423350,420236,420224,420253,423386,8,400,,,
trial,html.Screen,4_85_0,2023-11-01T18:32:48.192Z,,0,2,,3511,response,ISIC_0014826.JPG,15,ISIC_0034022.JPG,ISIC_0034022.JPG,false,0,keypress(z),500,426881,426880,423369,423350,423386,426919,8,400,36,,ISIC_0014826.JPG
break,html.Screen,4_85_1,2023-11-01T18:32:48.194Z,,0,,,NaN,,,,,,false,,,,426882,426882,,426881,,426919,8,400,,,
break_continue,html.Screen,4_85_2,2023-11-01T18:32:48.194Z,,0,,,NaN,,,,,,false,,,,426883,426883,,426883,,426919,8,400,,,
sequence,flow.Sequence,4_85,2023-11-01T18:32:48.194Z,,0,,,3497,completion,,,,,false,,,,426883,426883,423369,423350,423386,426919,8,400,,,
trial,html.Screen,4_86_0,2023-11-01T18:32:51.591Z,,0,2,,3377.000000000058,response,ISIC_5459256.JPG,9,ISIC_9694867.JPG,ISIC_5459256.JPG,false,1,keypress(m),500,430280.00000000006,430280.00000000006,426903,426883,426919,430303,8,400,37,,ISIC_9694867.JPG
break,html.Screen,4_86_1,2023-11-01T18:32:51.592Z,,0,,,NaN,,,,,,false,,,,430281,430281,,430281,,430303,8,400,,,
break_continue,html.Screen,4_86_2,2023-11-01T18:32:51.593Z,,0,,,NaN,,,,,,false,,,,430282,430282,,430281,,430303,8,400,,,
sequence,flow.Sequence,4_86,2023-11-01T18:32:51.593Z,,0,,,3363,completion,,,,,false,,,,430282,430282,426903,426883,426919,430303,8,400,,,
trial,html.Screen,4_87_0,2023-11-01T18:32:55.281Z,,0,2,,3683,response,ISIC_5149162.JPG,6,ISIC_0268701.JPG,ISIC_5149162.JPG,false,1,keypress(m),500,433970,433969,430286,430282,430303,434003,8,400,38,,ISIC_0268701.JPG
break,html.Screen,4_87_1,2023-11-01T18:32:55.282Z,,0,,,NaN,,,,,,false,,,,433971,433971,,433970,,434003,8,400,,,
break_continue,html.Screen,4_87_2,2023-11-01T18:32:55.282Z,,0,,,NaN,,,,,,false,,,,433971,433971,,433971,,434003,8,400,,,
sequence,flow.Sequence,4_87,2023-11-01T18:32:55.283Z,,0,,,3668,completion,,,,,false,,,,433972.00000000006,433971,430286,430282,430303,434003,8,400,,,
trial,html.Screen,4_88_0,2023-11-01T18:32:58.347Z,,0,2,,3050,response,ISIC_7102028.JPG,9,ISIC_7057495.JPG,ISIC_7057495.JPG,false,0,keypress(z),500,437036,437036,433986,433972.00000000006,434003,437070,8,400,39,,ISIC_7102028.JPG
break,html.Screen,4_88_1,2023-11-01T18:32:58.348Z,,0,,,NaN,,,,,,false,,,,437037.00000000006,437037.00000000006,,437036,,437070,8,400,,,
break_continue,html.Screen,4_88_2,2023-11-01T18:32:58.349Z,,0,,,NaN,,,,,,false,,,,437038,437038,,437038,,437070,8,400,,,
sequence,flow.Sequence,4_88,2023-11-01T18:32:58.349Z,,0,,,3035,completion,,,,,false,,,,437038,437038,433986,433972.00000000006,434003,437070,8,400,,,
trial,html.Screen,4_89_0,2023-11-01T18:33:01.718Z,,0,2,,3354,response,ISIC_0026360.JPG,11,ISIC_6469202.JPG,ISIC_0026360.JPG,false,1,keypress(m),500,440407,440407,437053,437038,437070,440437,8,400,40,,ISIC_6469202.JPG
break,html.Screen,4_89_1,2023-11-01T18:33:01.719Z,,0,,,NaN,,,,,,false,,,,440409,440408,,440408,,440437,8,400,,,
break_continue,html.Screen,4_89_2,2023-11-01T18:33:01.720Z,,0,,,NaN,,,,,,false,,,,440409,440409,,440409,,440437,8,400,,,
sequence,flow.Sequence,4_89,2023-11-01T18:33:01.720Z,,0,,,3339,completion,,,,,false,,,,440409,440409,437053,437038,437070,440437,8,400,,,
trial,html.Screen,4_90_0,2023-11-01T18:33:04.617Z,,0,2,,2886,response,ISIC_0012070.JPG,7,ISIC_0201767.JPG,ISIC_0012070.JPG,false,1,keypress(m),500,443306,443306,440420,440409,440437,443337,8,400,41,,ISIC_0201767.JPG
break,html.Screen,4_90_1,2023-11-01T18:33:04.618Z,,0,,,NaN,,,,,,false,,,,443307,443307,,443306,,443337,8,400,,,
break_continue,html.Screen,4_90_2,2023-11-01T18:33:04.618Z,,0,,,NaN,,,,,,false,,,,443308,443307,,443307,,443337,8,400,,,
sequence,flow.Sequence,4_90,2023-11-01T18:33:04.618Z,,0,,,2870,completion,,,,,false,,,,443308,443307,440420,440409,440437,443337,8,400,,,
trial,html.Screen,4_91_0,2023-11-01T18:33:07.588Z,,0,2,,2957,response,ISIC_0011177.JPG,6,ISIC_0059897.JPG,ISIC_0059897.JPG,false,0,keypress(z),500,446277,446277,443320,443308,443337,446320,8,400,42,,ISIC_0011177.JPG
break,html.Screen,4_91_1,2023-11-01T18:33:07.589Z,,0,,,NaN,,,,,,false,,,,446279,446278,,446278,,446320,8,400,,,
break_continue,html.Screen,4_91_2,2023-11-01T18:33:07.589Z,,0,,,NaN,,,,,,false,,,,446279,446279,,446279,,446320,8,400,,,
sequence,flow.Sequence,4_91,2023-11-01T18:33:07.589Z,,0,,,2942,completion,,,,,false,,,,446279,446279,443320,443308,443337,446320,8,400,,,
trial,html.Screen,4_92_0,2023-11-01T18:33:11.716Z,,0,2,,4103,response,ISIC_0016081.JPG,8,ISIC_0033265.JPG,ISIC_0016081.JPG,false,1,keypress(m),500,450406,450406,446303,446279,446320,450437,8,400,43,,ISIC_0033265.JPG
break,html.Screen,4_92_1,2023-11-01T18:33:11.717Z,,0,,,NaN,,,,,,false,,,,450407,450407,,450406,,450437,8,400,,,
break_continue,html.Screen,4_92_2,2023-11-01T18:33:11.718Z,,0,,,NaN,,,,,,false,,,,450407,450407,,450407,,450437,8,400,,,
sequence,flow.Sequence,4_92,2023-11-01T18:33:11.718Z,,0,,,4087,completion,,,,,false,,,,450408,450407,446303,446279,446320,450437,8,400,,,
trial,html.Screen,4_93_0,2023-11-01T18:33:14.725Z,,0,2,,2995,response,ISIC_0034039.JPG,8,ISIC_0032844.JPG,ISIC_0032844.JPG,false,0,keypress(z),500,453415,453415,450420,450408,450437,453437,8,400,44,,ISIC_0034039.JPG
break,html.Screen,4_93_1,2023-11-01T18:33:14.726Z,,0,,,NaN,,,,,,false,,,,453416,453416,,453416,,453437,8,400,,,
break_continue,html.Screen,4_93_2,2023-11-01T18:33:14.727Z,,0,,,NaN,,,,,,false,,,,453417.00000000006,453417.00000000006,,453417.00000000006,,453437,8,400,,,
sequence,flow.Sequence,4_93,2023-11-01T18:33:14.727Z,,0,,,2980.000000000058,completion,,,,,false,,,,453417.00000000006,453417.00000000006,450420,450408,450437,453437,8,400,,,
trial,html.Screen,4_94_0,2023-11-01T18:33:17.621Z,,0,2,,2891.000000000058,response,ISIC_0008251.JPG,15,ISIC_1937197.JPG,ISIC_1937197.JPG,false,0,keypress(z),500,456311.00000000006,456311.00000000006,453420,453417.00000000006,453437,456337,8,400,45,,ISIC_0008251.JPG
break,html.Screen,4_94_1,2023-11-01T18:33:17.622Z,,0,,,NaN,,,,,,false,,,,456313,456312,,456312,,456337,8,400,,,
break_continue,html.Screen,4_94_2,2023-11-01T18:33:17.623Z,,0,,,NaN,,,,,,false,,,,456313,456313,,456313,,456337,8,400,,,
sequence,flow.Sequence,4_94,2023-11-01T18:33:17.623Z,,0,,,2876,completion,,,,,false,,,,456313,456313,453420,453417.00000000006,453437,456337,8,400,,,
trial,html.Screen,4_95_0,2023-11-01T18:33:20.764Z,,0,2,,3134,response,ISIC_0645454.JPG,3,ISIC_1413242.JPG,ISIC_0645454.JPG,false,1,keypress(m),500,459455,459454,456320,456314,456337,459487,8,400,46,,ISIC_1413242.JPG
break,html.Screen,4_95_1,2023-11-01T18:33:20.765Z,,0,,,NaN,,,,,,false,,,,459456,459456,,459455,,459487,8,400,,,
break_continue,html.Screen,4_95_2,2023-11-01T18:33:20.766Z,,0,,,NaN,,,,,,false,,,,459456,459456,,459456,,459487,8,400,,,
sequence,flow.Sequence,4_95,2023-11-01T18:33:20.766Z,,0,,,3119,completion,,,,,false,,,,459456,459456,456320,456314,456337,459487,8,400,,,
trial,html.Screen,4_96_0,2023-11-01T18:33:23.754Z,,0,2,,2973,response,ISIC_1838888.JPG,10,ISIC_0034090.JPG,ISIC_0034090.JPG,false,0,keypress(z),500,462445,462444,459471,459456,459487,462487,8,400,47,,ISIC_1838888.JPG
break,html.Screen,4_96_1,2023-11-01T18:33:23.756Z,,0,,,NaN,,,,,,false,,,,462446,462446,,462445,,462487,8,400,,,
break_continue,html.Screen,4_96_2,2023-11-01T18:33:23.756Z,,0,,,NaN,,,,,,false,,,,462447,462446,,462446,,462487,8,400,,,
sequence,flow.Sequence,4_96,2023-11-01T18:33:23.756Z,,0,,,2959,completion,,,,,false,,,,462447,462446,459471,459456,459487,462487,8,400,,,
trial,html.Screen,4_97_0,2023-11-01T18:33:26.716Z,,0,2,,2935,response,ISIC_0031752.JPG,4,ISIC_0000429.JPG,ISIC_0000429.JPG,false,0,keypress(z),500,465407,465406,462471,462447,462487,465438,8,400,48,,ISIC_0031752.JPG
break,html.Screen,4_97_1,2023-11-01T18:33:26.717Z,,0,,,NaN,,,,,,false,,,,465408,465408,,465407,,465438,8,400,,,
break_continue,html.Screen,4_97_2,2023-11-01T18:33:26.718Z,,0,,,NaN,,,,,,false,,,,465408,465408,,465408,,465438,8,400,,,
sequence,flow.Sequence,4_97,2023-11-01T18:33:26.718Z,,0,,,2921,completion,,,,,false,,,,465408,465408,462471,462447,462487,465438,8,400,,,
trial,html.Screen,4_98_0,2023-11-01T18:33:30.886Z,,0,2,,4156,response,ISIC_1137915.JPG,3,ISIC_0027561.JPG,ISIC_0027561.JPG,false,0,keypress(z),500,469577,469577,465421,465409,465438,469604,8,400,49,,ISIC_1137915.JPG
break,html.Screen,4_98_1,2023-11-01T18:33:30.888Z,,0,,,NaN,,,,,,false,,,,469579,469578.00000000006,,469578.00000000006,,469604,8,400,,,
break_continue,html.Screen,4_98_2,2023-11-01T18:33:30.888Z,,0,,,NaN,,,,,,false,,,,469579,469579,,469579,,469604,8,400,,,
sequence,flow.Sequence,4_98,2023-11-01T18:33:30.889Z,,0,,,4141,completion,,,,,false,,,,469579,469579,465421,465409,465438,469604,8,400,,,
trial,html.Screen,4_99_0,2023-11-01T18:33:35.106Z,,0,2,,4207,response,ISIC_0059707.JPG,7,ISIC_0001157.JPG,ISIC_0001157.JPG,false,0,keypress(z),500,473797,473794,469587,469580,469604,473838,8,400,50,,ISIC_0059707.JPG
break,html.Screen,4_99_1,2023-11-01T18:33:45.131Z,,0,,,10001,timeout,,,,,false,,,,483823.00000000006,483822,473821,473797,473838,483839,8,400,,,
break_continue,html.Screen,4_99_2,2023-11-01T18:33:46.372Z,,0,,,1256.0000000000582,response,,,,,false,continue,keypress(Space),,485063,485078.00000000006,483822,483823.00000000006,483839,485105,8,400,,,
sequence,flow.Sequence,4_99,2023-11-01T18:33:46.372Z,,0,,,15474.000000000058,completion,,,,,false,,,,485064,485078.00000000006,469587,469580,469604,485105,8,400,,,
trial,html.Screen,4_100_0,2023-11-01T18:33:50.430Z,,0,3,,4032.000000000058,response,ISIC_0010308.JPG,4,ISIC_1241817.JPG,ISIC_1241817.JPG,false,0,keypress(z),500,489122,489121.00000000006,485089,485064,485105,489156,8,400,1,,ISIC_0010308.JPG
break,html.Screen,4_100_1,2023-11-01T18:33:50.432Z,,0,,,NaN,,,,,,false,,,,489123,489123,,489123,,489156,8,400,,,
break_continue,html.Screen,4_100_2,2023-11-01T18:33:50.432Z,,0,,,NaN,,,,,,false,,,,489124,489124,,489124,,489156,8,400,,,
sequence,flow.Sequence,4_100,2023-11-01T18:33:50.432Z,,0,,,4019,completion,,,,,false,,,,489124,489124,485089,485064,485105,489156,8,400,,,
trial,html.Screen,4_101_0,2023-11-01T18:33:53.688Z,,0,3,,3241,response,ISIC_5415749.JPG,12,ISIC_2058516.JPG,ISIC_5415749.JPG,false,1,keypress(m),500,492380,492380,489139,489124,489156,492422,8,400,2,,ISIC_2058516.JPG
break,html.Screen,4_101_1,2023-11-01T18:33:53.689Z,,0,,,NaN,,,,,,false,,,,492381,492381,,492380,,492422,8,400,,,
break_continue,html.Screen,4_101_2,2023-11-01T18:33:53.690Z,,0,,,NaN,,,,,,false,,,,492382,492381,,492381,,492422,8,400,,,
sequence,flow.Sequence,4_101,2023-11-01T18:33:53.690Z,,0,,,3225,completion,,,,,false,,,,492382,492381,489139,489124,489156,492422,8,400,,,
trial,html.Screen,4_102_0,2023-11-01T18:33:56.847Z,,0,3,,3133,response,ISIC_0028230.JPG,9,ISIC_8803600.JPG,ISIC_0028230.JPG,false,1,keypress(m),500,495539,495538,492405,492382,492422,495572,8,400,3,,ISIC_8803600.JPG
break,html.Screen,4_102_1,2023-11-01T18:33:56.851Z,,0,,,NaN,,,,,,false,,,,495543,495543,,495542.00000000006,,495572,8,400,,,
break_continue,html.Screen,4_102_2,2023-11-01T18:33:56.851Z,,0,,,NaN,,,,,,false,,,,495544,495543,,495543,,495572,8,400,,,
sequence,flow.Sequence,4_102,2023-11-01T18:33:56.852Z,,0,,,3121,completion,,,,,false,,,,495544,495543,492405,492382,492422,495572,8,400,,,
trial,html.Screen,4_103_0,2023-11-01T18:33:59.849Z,,0,3,,2986,response,ISIC_4692567.JPG,5,ISIC_0030481.JPG,ISIC_0030481.JPG,false,0,keypress(z),500,498541,498541,495555,495544,495572,498573,8,400,4,,ISIC_4692567.JPG
break,html.Screen,4_103_1,2023-11-01T18:33:59.850Z,,0,,,NaN,,,,,,false,,,,498542.00000000006,498542.00000000006,,498542.00000000006,,498573,8,400,,,
break_continue,html.Screen,4_103_2,2023-11-01T18:33:59.850Z,,0,,,NaN,,,,,,false,,,,498543,498543,,498542.00000000006,,498573,8,400,,,
sequence,flow.Sequence,4_103,2023-11-01T18:33:59.851Z,,0,,,2971,completion,,,,,false,,,,498543,498543,495555,495544,495572,498573,8,400,,,
trial,html.Screen,4_104_0,2023-11-01T18:34:02.756Z,,0,3,,2893.000000000058,response,ISIC_0033463.JPG,7,ISIC_9767255.JPG,ISIC_9767255.JPG,false,0,keypress(z),500,501448.00000000006,501448.00000000006,498555,498543,498573,501489,8,400,5,,ISIC_0033463.JPG
break,html.Screen,4_104_1,2023-11-01T18:34:02.757Z,,0,,,NaN,,,,,,false,,,,501450,501449,,501449,,501489,8,400,,,
break_continue,html.Screen,4_104_2,2023-11-01T18:34:02.757Z,,0,,,NaN,,,,,,false,,,,501450,501450,,501450,,501489,8,400,,,
sequence,flow.Sequence,4_104,2023-11-01T18:34:02.758Z,,0,,,2877,completion,,,,,false,,,,501450,501450,498555,498543,498573,501489,8,400,,,
trial,html.Screen,4_105_0,2023-11-01T18:34:06.546Z,,0,3,,3765,response,ISIC_0063061.JPG,2,ISIC_0011951.JPG,ISIC_0011951.JPG,false,0,keypress(z),500,505239.00000000006,505238,501473,501450,501489,505273,8,400,6,,ISIC_0063061.JPG
break,html.Screen,4_105_1,2023-11-01T18:34:06.548Z,,0,,,NaN,,,,,,false,,,,505241,505240,,505239.00000000006,,505273,8,400,,,
break_continue,html.Screen,4_105_2,2023-11-01T18:34:06.548Z,,0,,,NaN,,,,,,false,,,,505241,505241,,505241,,505273,8,400,,,
sequence,flow.Sequence,4_105,2023-11-01T18:34:06.549Z,,0,,,3752,completion,,,,,false,,,,505241,505241,501473,501450,501489,505273,8,400,,,
trial,html.Screen,4_106_0,2023-11-01T18:34:10.647Z,,0,3,,4083,response,ISIC_0033710.JPG,14,ISIC_0021271.JPG,ISIC_0033710.JPG,false,1,keypress(m),500,509340.00000000006,509339,505256,505241,505273,509373,8,400,7,,ISIC_0021271.JPG
break,html.Screen,4_106_1,2023-11-01T18:34:10.648Z,,0,,,NaN,,,,,,false,,,,509341,509341,,509340.00000000006,,509373,8,400,,,
break_continue,html.Screen,4_106_2,2023-11-01T18:34:10.649Z,,0,,,NaN,,,,,,false,,,,509342,509341,,509341,,509373,8,400,,,
sequence,flow.Sequence,4_106,2023-11-01T18:34:10.649Z,,0,,,4068,completion,,,,,false,,,,509342,509341,505256,505241,505273,509373,8,400,,,
trial,html.Screen,4_107_0,2023-11-01T18:34:14.088Z,,0,3,,3424,response,ISIC_9116323.JPG,7,ISIC_8153123.JPG,ISIC_8153123.JPG,false,0,keypress(z),500,512781.00000000006,512780,509356,509342,509373,512823,8,400,8,,ISIC_9116323.JPG
break,html.Screen,4_107_1,2023-11-01T18:34:14.090Z,,0,,,NaN,,,,,,false,,,,512783,512782.00000000006,,512782.00000000006,,512823,8,400,,,
break_continue,html.Screen,4_107_2,2023-11-01T18:34:14.091Z,,0,,,NaN,,,,,,false,,,,512784,512783,,512783,,512823,8,400,,,
sequence,flow.Sequence,4_107,2023-11-01T18:34:14.091Z,,0,,,3410,completion,,,,,false,,,,512784,512783,509356,509342,509373,512823,8,400,,,
trial,html.Screen,4_108_0,2023-11-01T18:34:17.403Z,,0,3,,3288,response,ISIC_0026963.JPG,4,ISIC_0015132.JPG,ISIC_0026963.JPG,false,1,keypress(m),500,516096,516095,512807,512784,512823,516140,8,400,9,,ISIC_0015132.JPG
break,html.Screen,4_108_1,2023-11-01T18:34:17.404Z,,0,,,NaN,,,,,,false,,,,516097,516097,,516096,,516140,8,400,,,
break_continue,html.Screen,4_108_2,2023-11-01T18:34:17.405Z,,0,,,NaN,,,,,,false,,,,516097.99999999994,516097.99999999994,,516097.99999999994,,516140,8,400,,,
sequence,flow.Sequence,4_108,2023-11-01T18:34:17.405Z,,0,,,3274.999999999942,completion,,,,,false,,,,516097.99999999994,516097.99999999994,512807,512784,512823,516140,8,400,,,
trial,html.Screen,4_109_0,2023-11-01T18:34:20.566Z,,0,3,,3135.000000000058,response,ISIC_0011481.JPG,4,ISIC_5565517.JPG,ISIC_0011481.JPG,false,1,keypress(m),500,519259,519258.00000000006,516123,516099.00000000006,516140,519290,8,400,10,,ISIC_5565517.JPG
break,html.Screen,4_109_1,2023-11-01T18:34:20.567Z,,0,,,NaN,,,,,,false,,,,519260,519260,,519259,,519290,8,400,,,
break_continue,html.Screen,4_109_2,2023-11-01T18:34:20.568Z,,0,,,NaN,,,,,,false,,,,519260.99999999994,519260.99999999994,,519260.99999999994,,519290,8,400,,,
sequence,flow.Sequence,4_109,2023-11-01T18:34:20.568Z,,0,,,3120.999999999942,completion,,,,,false,,,,519260.99999999994,519260.99999999994,516123,516097.99999999994,516140,519290,8,400,,,
trial,html.Screen,4_110_0,2023-11-01T18:34:23.247Z,,0,3,,2667.000000000058,response,ISIC_8356468.JPG,2,ISIC_5568834.JPG,ISIC_5568834.JPG,false,0,keypress(z),500,521940.00000000006,521940.00000000006,519273,519262.00000000006,519290,521974,8,400,11,,ISIC_8356468.JPG
break,html.Screen,4_110_1,2023-11-01T18:34:23.248Z,,0,,,NaN,,,,,,false,,,,521941.00000000006,521941.00000000006,,521941.00000000006,,521974,8,400,,,
break_continue,html.Screen,4_110_2,2023-11-01T18:34:23.248Z,,0,,,NaN,,,,,,false,,,,521942,521942,,521942,,521974,8,400,,,
sequence,flow.Sequence,4_110,2023-11-01T18:34:23.249Z,,0,,,2652,completion,,,,,false,,,,521942,521942,519273,519260.99999999994,519290,521974,8,400,,,
trial,html.Screen,4_111_0,2023-11-01T18:34:26.352Z,,0,3,,3089,response,ISIC_7333928.JPG,10,ISIC_0072030.JPG,ISIC_0072030.JPG,false,0,keypress(z),500,525046,525045,521956,521942,521974,525074,8,400,12,,ISIC_7333928.JPG
break,html.Screen,4_111_1,2023-11-01T18:34:26.354Z,,0,,,NaN,,,,,,false,,,,525047,525047,,525046,,525074,8,400,,,
break_continue,html.Screen,4_111_2,2023-11-01T18:34:26.354Z,,0,,,NaN,,,,,,false,,,,525048,525048,,525048,,525074,8,400,,,
sequence,flow.Sequence,4_111,2023-11-01T18:34:26.355Z,,0,,,3074,completion,,,,,false,,,,525048,525048,521956,521942,521974,525074,8,400,,,
trial,html.Screen,4_112_0,2023-11-01T18:34:29.586Z,,0,3,,3222,response,ISIC_7109582.JPG,2,ISIC_0024423.JPG,ISIC_0024423.JPG,false,0,keypress(z),500,528280,528279,525057,525049,525074,528324,8,400,13,,ISIC_7109582.JPG
break,html.Screen,4_112_1,2023-11-01T18:34:29.588Z,,0,,,NaN,,,,,,false,,,,528282,528281.0000000001,,528281.0000000001,,528324,8,400,,,
break_continue,html.Screen,4_112_2,2023-11-01T18:34:29.588Z,,0,,,NaN,,,,,,false,,,,528282,528282,,528282,,528324,8,400,,,
sequence,flow.Sequence,4_112,2023-11-01T18:34:29.589Z,,0,,,3208,completion,,,,,false,,,,528282,528282,525057,525048,525074,528324,8,400,,,
trial,html.Screen,4_113_0,2023-11-01T18:34:33.071Z,,0,3,,3457,response,ISIC_2131962.JPG,5,ISIC_0008162.JPG,ISIC_0008162.JPG,false,0,keypress(z),500,531765,531764,528307,528283,528324,531807,8,400,14,,ISIC_2131962.JPG
break,html.Screen,4_113_1,2023-11-01T18:34:33.073Z,,0,,,NaN,,,,,,false,,,,531767,531767,,531766,,531807,8,400,,,
break_continue,html.Screen,4_113_2,2023-11-01T18:34:33.074Z,,0,,,NaN,,,,,,false,,,,531768,531768,,531767,,531807,8,400,,,
sequence,flow.Sequence,4_113,2023-11-01T18:34:33.074Z,,0,,,3444,completion,,,,,false,,,,531768,531768,528307,528283,528324,531807,8,400,,,
trial,html.Screen,4_114_0,2023-11-01T18:34:36.048Z,,0,3,,2950,response,ISIC_1948545.JPG,6,ISIC_5546806.JPG,ISIC_1948545.JPG,false,1,keypress(m),500,534742,534741,531791,531768,531807,534774,8,400,15,,ISIC_5546806.JPG
break,html.Screen,4_114_1,2023-11-01T18:34:36.049Z,,0,,,NaN,,,,,,false,,,,534743,534742,,534742,,534774,8,400,,,
break_continue,html.Screen,4_114_2,2023-11-01T18:34:36.049Z,,0,,,NaN,,,,,,false,,,,534743,534743,,534743,,534774,8,400,,,
sequence,flow.Sequence,4_114,2023-11-01T18:34:36.049Z,,0,,,2936,completion,,,,,false,,,,534743,534743,531791,531768,531807,534774,8,400,,,
trial,html.Screen,4_115_0,2023-11-01T18:34:39.487Z,,0,3,,3424,response,ISIC_1344537.JPG,12,ISIC_0011510.JPG,ISIC_1344537.JPG,false,1,keypress(m),500,538181,538181,534757,534743,534774,538207,8,400,16,,ISIC_0011510.JPG
break,html.Screen,4_115_1,2023-11-01T18:34:39.489Z,,0,,,NaN,,,,,,false,,,,538183,538183,,538182,,538207,8,400,,,
break_continue,html.Screen,4_115_2,2023-11-01T18:34:39.490Z,,0,,,NaN,,,,,,false,,,,538184,538184,,538183,,538207,8,400,,,
sequence,flow.Sequence,4_115,2023-11-01T18:34:39.490Z,,0,,,3410,completion,,,,,false,,,,538184,538184,534757,534743,534774,538207,8,400,,,
trial,html.Screen,4_116_0,2023-11-01T18:34:43.900Z,,0,3,,4403,response,ISIC_2798803.JPG,6,ISIC_4884394.JPG,ISIC_4884394.JPG,false,0,keypress(z),500,542595,542594,538191,538185.0000000001,538207,542624,8,400,17,,ISIC_2798803.JPG
break,html.Screen,4_116_1,2023-11-01T18:34:43.902Z,,0,,,NaN,,,,,,false,,,,542596,542596,,542595,,542624,8,400,,,
break_continue,html.Screen,4_116_2,2023-11-01T18:34:43.902Z,,0,,,NaN,,,,,,false,,,,542596,542596,,542596,,542624,8,400,,,
sequence,flow.Sequence,4_116,2023-11-01T18:34:43.902Z,,0,,,4389,completion,,,,,false,,,,542597,542596,538191,538185.0000000001,538207,542624,8,400,,,
trial,html.Screen,4_117_0,2023-11-01T18:34:47.652Z,,0,3,,3738,response,ISIC_6982386.JPG,9,ISIC_7521698.JPG,ISIC_6982386.JPG,false,1,keypress(m),500,546347,546346,542608,542597,542624,546374,8,400,18,,ISIC_7521698.JPG
break,html.Screen,4_117_1,2023-11-01T18:34:47.653Z,,0,,,NaN,,,,,,false,,,,546348,546347,,546347,,546374,8,400,,,
break_continue,html.Screen,4_117_2,2023-11-01T18:34:47.653Z,,0,,,NaN,,,,,,false,,,,546348,546348,,546348,,546374,8,400,,,
sequence,flow.Sequence,4_117,2023-11-01T18:34:47.654Z,,0,,,3724,completion,,,,,false,,,,546348,546348,542608,542597,542624,546374,8,400,,,
trial,html.Screen,4_118_0,2023-11-01T18:34:53.057Z,,0,3,,5393,response,ISIC_0046449.JPG,5,ISIC_8539990.JPG,ISIC_0046449.JPG,false,1,keypress(m),500,551751,551751,546358,546348,546374,551791,8,400,19,,ISIC_8539990.JPG
break,html.Screen,4_118_1,2023-11-01T18:34:53.058Z,,0,,,NaN,,,,,,false,,,,551753,551752.0000000001,,551752.0000000001,,551791,8,400,,,
break_continue,html.Screen,4_118_2,2023-11-01T18:34:53.058Z,,0,,,NaN,,,,,,false,,,,551753,551753,,551753,,551791,8,400,,,
sequence,flow.Sequence,4_118,2023-11-01T18:34:53.059Z,,0,,,5379,completion,,,,,false,,,,551753,551753,546358,546348,546374,551791,8,400,,,
trial,html.Screen,4_119_0,2023-11-01T18:34:56.083Z,,0,3,,3002,response,ISIC_0000002.JPG,6,ISIC_8535943.JPG,ISIC_0000002.JPG,false,1,keypress(m),500,554778,554777,551775,551754,551791,554808,8,400,20,,ISIC_8535943.JPG
break,html.Screen,4_119_1,2023-11-01T18:34:56.084Z,,0,,,NaN,,,,,,false,,,,554779,554779,,554778,,554808,8,400,,,
break_continue,html.Screen,4_119_2,2023-11-01T18:34:56.084Z,,0,,,NaN,,,,,,false,,,,554779,554779,,554779,,554808,8,400,,,
sequence,flow.Sequence,4_119,2023-11-01T18:34:56.085Z,,0,,,2988,completion,,,,,false,,,,554780,554779,551775,551754,551791,554808,8,400,,,
trial,html.Screen,4_120_0,2023-11-01T18:35:00.005Z,,0,3,,3907,response,ISIC_0063258.JPG,6,ISIC_5031549.JPG,ISIC_0063258.JPG,false,1,keypress(m),500,558700,558699,554792,554780,554808,558742,8,400,21,,ISIC_5031549.JPG
break,html.Screen,4_120_1,2023-11-01T18:35:00.006Z,,0,,,NaN,,,,,,false,,,,558701,558701,,558700,,558742,8,400,,,
break_continue,html.Screen,4_120_2,2023-11-01T18:35:00.007Z,,0,,,NaN,,,,,,false,,,,558702,558702,,558702,,558742,8,400,,,
sequence,flow.Sequence,4_120,2023-11-01T18:35:00.007Z,,0,,,3894,completion,,,,,false,,,,558702,558702,554792,554780,554808,558742,8,400,,,
trial,html.Screen,4_121_0,2023-11-01T18:35:03.108Z,,0,3,,3078,response,ISIC_4116224.JPG,7,ISIC_9409255.JPG,ISIC_9409255.JPG,false,0,keypress(z),500,561804,561803,558725,558702,558742,561825,8,400,22,,ISIC_4116224.JPG
break,html.Screen,4_121_1,2023-11-01T18:35:03.110Z,,0,,,NaN,,,,,,false,,,,561805.0000000001,561805.0000000001,,561804,,561825,8,400,,,
break_continue,html.Screen,4_121_2,2023-11-01T18:35:03.111Z,,0,,,NaN,,,,,,false,,,,561806,561806,,561805.0000000001,,561825,8,400,,,
sequence,flow.Sequence,4_121,2023-11-01T18:35:03.111Z,,0,,,3064,completion,,,,,false,,,,561806,561806,558725,558702,558742,561825,8,400,,,
trial,html.Screen,4_122_0,2023-11-01T18:35:06.413Z,,0,3,,3298,response,ISIC_6541615.JPG,0,ISIC_0062077.JPG,ISIC_0062077.JPG,false,0,keypress(z),500,565108.0000000001,565107,561809,561806,561825,565142,8,400,23,,ISIC_6541615.JPG
break,html.Screen,4_122_1,2023-11-01T18:35:06.415Z,,0,,,NaN,,,,,,false,,,,565110,565110,,565109,,565142,8,400,,,
break_continue,html.Screen,4_122_2,2023-11-01T18:35:06.415Z,,0,,,NaN,,,,,,false,,,,565111,565110,,565110,,565142,8,400,,,
sequence,flow.Sequence,4_122,2023-11-01T18:35:06.415Z,,0,,,3285,completion,,,,,false,,,,565111,565110,561809,561806,561825,565142,8,400,,,
trial,html.Screen,4_123_0,2023-11-01T18:35:09.564Z,,0,3,,3134,response,ISIC_0068616.JPG,10,ISIC_6758042.JPG,ISIC_0068616.JPG,false,1,keypress(m),500,568260,568259,565125,565111,565142,568292,8,400,24,,ISIC_6758042.JPG
break,html.Screen,4_123_1,2023-11-01T18:35:09.565Z,,0,,,NaN,,,,,,false,,,,568261,568261,,568260,,568292,8,400,,,
break_continue,html.Screen,4_123_2,2023-11-01T18:35:09.566Z,,0,,,NaN,,,,,,false,,,,568262,568261,,568261,,568292,8,400,,,
sequence,flow.Sequence,4_123,2023-11-01T18:35:09.566Z,,0,,,3119,completion,,,,,false,,,,568262,568261,565125,565111,565142,568292,8,400,,,
trial,html.Screen,4_124_0,2023-11-01T18:35:12.776Z,,0,3,,3196,response,ISIC_0064606.JPG,10,ISIC_0029906.JPG,ISIC_0064606.JPG,false,1,keypress(m),500,571472,571471,568275,568262,568292,571508,8,400,25,,ISIC_0029906.JPG
break,html.Screen,4_124_1,2023-11-01T18:35:12.778Z,,0,,,NaN,,,,,,false,,,,571473,571473,,571472,,571508,8,400,,,
break_continue,html.Screen,4_124_2,2023-11-01T18:35:12.778Z,,0,,,NaN,,,,,,false,,,,571474,571474,,571473,,571508,8,400,,,
sequence,flow.Sequence,4_124,2023-11-01T18:35:12.778Z,,0,,,3182,completion,,,,,false,,,,571474,571474,568275,568262,568292,571508,8,400,,,
trial,html.Screen,4_125_0,2023-11-01T18:35:16.023Z,,0,3,,3226,response,ISIC_0025313.JPG,3,ISIC_0062517.JPG,ISIC_0062517.JPG,false,0,keypress(z),500,574719,574718,571492,571474,571508,574759,8,400,26,,ISIC_0025313.JPG
break,html.Screen,4_125_1,2023-11-01T18:35:16.025Z,,0,,,NaN,,,,,,false,,,,574721,574720,,574720,,574759,8,400,,,
break_continue,html.Screen,4_125_2,2023-11-01T18:35:16.025Z,,0,,,NaN,,,,,,false,,,,574721,574721,,574721,,574759,8,400,,,
sequence,flow.Sequence,4_125,2023-11-01T18:35:16.026Z,,0,,,3213,completion,,,,,false,,,,574722,574721,571492,571474,571508,574759,8,400,,,
trial,html.Screen,4_126_0,2023-11-01T18:35:19.624Z,,0,3,,3578,response,ISIC_3209501.JPG,4,ISIC_9119549.JPG,ISIC_3209501.JPG,false,1,keypress(m),500,578320,578320,574742,574722,574759,578342,8,400,27,,ISIC_9119549.JPG
break,html.Screen,4_126_1,2023-11-01T18:35:19.625Z,,0,,,NaN,,,,,,false,,,,578321,578321,,578321,,578342,8,400,,,
break_continue,html.Screen,4_126_2,2023-11-01T18:35:19.626Z,,0,,,NaN,,,,,,false,,,,578322,578322,,578322,,578342,8,400,,,
sequence,flow.Sequence,4_126,2023-11-01T18:35:19.626Z,,0,,,3563,completion,,,,,false,,,,578322,578322,574742,574722,574759,578342,8,400,,,
trial,html.Screen,4_127_0,2023-11-01T18:35:22.731Z,,0,3,,3100,response,ISIC_4252285.JPG,7,ISIC_9358630.JPG,ISIC_4252285.JPG,false,1,keypress(m),500,581427,581426,578326,578322,578342,581459,8,400,28,,ISIC_9358630.JPG
break,html.Screen,4_127_1,2023-11-01T18:35:22.732Z,,0,,,NaN,,,,,,false,,,,581428,581428,,581427,,581459,8,400,,,
break_continue,html.Screen,4_127_2,2023-11-01T18:35:22.732Z,,0,,,NaN,,,,,,false,,,,581429,581429,,581428,,581459,8,400,,,
sequence,flow.Sequence,4_127,2023-11-01T18:35:22.733Z,,0,,,3087,completion,,,,,false,,,,581429,581429,578326,578322,578342,581459,8,400,,,
trial,html.Screen,4_128_0,2023-11-01T18:35:25.838Z,,0,3,,3092,response,ISIC_9126992.JPG,10,ISIC_0058035.JPG,ISIC_0058035.JPG,false,0,keypress(z),500,584535,584534,581442,581429,581459,584576,8,400,29,,ISIC_9126992.JPG
break,html.Screen,4_128_1,2023-11-01T18:35:25.840Z,,0,,,NaN,,,,,,false,,,,584536,584536,,584535,,584576,8,400,,,
break_continue,html.Screen,4_128_2,2023-11-01T18:35:25.841Z,,0,,,NaN,,,,,,false,,,,584537,584537,,584537,,584576,8,400,,,
sequence,flow.Sequence,4_128,2023-11-01T18:35:25.841Z,,0,,,3078,completion,,,,,false,,,,584537,584537,581442,581429,581459,584576,8,400,,,
trial,html.Screen,4_129_0,2023-11-01T18:35:31.056Z,,0,3,,5189,response,ISIC_8990907.JPG,6,ISIC_2833213.JPG,ISIC_2833213.JPG,false,0,keypress(z),500,589753,589748,584559,584537,584576,589793,8,400,30,,ISIC_8990907.JPG
break,html.Screen,4_129_1,2023-11-01T18:35:31.058Z,,0,,,NaN,,,,,,false,,,,589754,589754,,589753,,589793,8,400,,,
break_continue,html.Screen,4_129_2,2023-11-01T18:35:31.058Z,,0,,,NaN,,,,,,false,,,,589755,589755,,589754,,589793,8,400,,,
sequence,flow.Sequence,4_129,2023-11-01T18:35:31.058Z,,0,,,5179,completion,,,,,false,,,,589755,589755,584559,584537,584576,589793,8,400,,,
trial,html.Screen,4_130_0,2023-11-01T18:35:34.662Z,,0,3,,3582.0000000001164,response,ISIC_0014598.JPG,1,ISIC_6380209.JPG,ISIC_6380209.JPG,false,0,keypress(z),500,593358.0000000001,593358.0000000001,589776,589755,589793,593392,8,400,31,,ISIC_0014598.JPG
break,html.Screen,4_130_1,2023-11-01T18:35:34.663Z,,0,,,NaN,,,,,,false,,,,593360,593359,,593359,,593392,8,400,,,
break_continue,html.Screen,4_130_2,2023-11-01T18:35:34.663Z,,0,,,NaN,,,,,,false,,,,593360,593360,,593360,,593392,8,400,,,
sequence,flow.Sequence,4_130,2023-11-01T18:35:34.663Z,,0,,,3567,completion,,,,,false,,,,593360,593360,589776,589755,589793,593392,8,400,,,
trial,html.Screen,4_131_0,2023-11-01T18:35:38.238Z,,0,3,,3558,response,ISIC_1925623.JPG,7,ISIC_4049598.JPG,ISIC_1925623.JPG,false,1,keypress(m),500,596935.0000000001,596934,593376,593360,593392,596976,8,400,32,,ISIC_4049598.JPG
break,html.Screen,4_131_1,2023-11-01T18:35:38.239Z,,0,,,NaN,,,,,,false,,,,596936,596936,,596935.0000000001,,596976,8,400,,,
break_continue,html.Screen,4_131_2,2023-11-01T18:35:38.240Z,,0,,,NaN,,,,,,false,,,,596937,596937,,596936,,596976,8,400,,,
sequence,flow.Sequence,4_131,2023-11-01T18:35:38.240Z,,0,,,3545,completion,,,,,false,,,,596937,596937,593376,593360,593392,596976,8,400,,,
trial,html.Screen,4_132_0,2023-11-01T18:35:41.653Z,,0,3,,3390,response,ISIC_8024841.JPG,7,ISIC_0026484.JPG,ISIC_8024841.JPG,false,1,keypress(m),500,600351,600350,596960,596937,596976,600393,8,400,33,,ISIC_0026484.JPG
break,html.Screen,4_132_1,2023-11-01T18:35:41.655Z,,0,,,NaN,,,,,,false,,,,600352,600352,,600351,,600393,8,400,,,
break_continue,html.Screen,4_132_2,2023-11-01T18:35:41.655Z,,0,,,NaN,,,,,,false,,,,600352,600352,,600352,,600393,8,400,,,
sequence,flow.Sequence,4_132,2023-11-01T18:35:41.655Z,,0,,,3376,completion,,,,,false,,,,600352,600352,596960,596937,596976,600393,8,400,,,
trial,html.Screen,4_133_0,2023-11-01T18:35:45.237Z,,0,3,,3557,response,ISIC_0011612.JPG,8,ISIC_5468164.JPG,ISIC_5468164.JPG,false,0,keypress(z),500,603935.0000000001,603934,600377,600353.0000000001,600393,603976,8,400,34,,ISIC_0011612.JPG
break,html.Screen,4_133_1,2023-11-01T18:35:45.239Z,,0,,,NaN,,,,,,false,,,,603936,603936,,603935.0000000001,,603976,8,400,,,
break_continue,html.Screen,4_133_2,2023-11-01T18:35:45.240Z,,0,,,NaN,,,,,,false,,,,603937,603937,,603937,,603976,8,400,,,
sequence,flow.Sequence,4_133,2023-11-01T18:35:45.240Z,,0,,,3544,completion,,,,,false,,,,603937,603937,600377,600353.0000000001,600393,603976,8,400,,,
trial,html.Screen,4_134_0,2023-11-01T18:35:48.652Z,,0,3,,3389,response,ISIC_0060893.JPG,3,ISIC_2822622.JPG,ISIC_0060893.JPG,false,1,keypress(m),500,607350,607349,603960,603938,603976,607393,8,400,35,,ISIC_2822622.JPG
break,html.Screen,4_134_1,2023-11-01T18:35:48.654Z,,0,,,NaN,,,,,,false,,,,607352,607351,,607350,,607393,8,400,,,
break_continue,html.Screen,4_134_2,2023-11-01T18:35:48.655Z,,0,,,NaN,,,,,,false,,,,607352,607352,,607352,,607393,8,400,,,
sequence,flow.Sequence,4_134,2023-11-01T18:35:48.655Z,,0,,,3376,completion,,,,,false,,,,607352,607352,603960,603937,603976,607393,8,400,,,
trial,html.Screen,4_135_0,2023-11-01T18:35:51.831Z,,0,3,,3151,response,ISIC_9579922.JPG,1,ISIC_2161864.JPG,ISIC_9579922.JPG,false,1,keypress(m),500,610529,610528,607377,607353.0000000001,607393,610560,8,400,36,,ISIC_2161864.JPG
break,html.Screen,4_135_1,2023-11-01T18:35:51.832Z,,0,,,NaN,,,,,,false,,,,610530,610530,,610529,,610560,8,400,,,
break_continue,html.Screen,4_135_2,2023-11-01T18:35:51.833Z,,0,,,NaN,,,,,,false,,,,610531.0000000001,610530,,610530,,610560,8,400,,,
sequence,flow.Sequence,4_135,2023-11-01T18:35:51.833Z,,0,,,3137,completion,,,,,false,,,,610531.0000000001,610530,607377,607352,607393,610560,8,400,,,
trial,html.Screen,4_136_0,2023-11-01T18:35:56.392Z,,0,3,,4546,response,ISIC_0010550.JPG,9,ISIC_0066429.JPG,ISIC_0010550.JPG,false,1,keypress(m),500,615090,615090,610544,610531.0000000001,610560,615127,8,400,37,,ISIC_0066429.JPG
break,html.Screen,4_136_1,2023-11-01T18:35:56.394Z,,0,,,NaN,,,,,,false,,,,615092,615091,,615091,,615127,8,400,,,
break_continue,html.Screen,4_136_2,2023-11-01T18:35:56.394Z,,0,,,NaN,,,,,,false,,,,615092,615092,,615092,,615127,8,400,,,
sequence,flow.Sequence,4_136,2023-11-01T18:35:56.395Z,,0,,,4532,completion,,,,,false,,,,615093,615092,610544,610531.0000000001,610560,615127,8,400,,,
trial,html.Screen,4_137_0,2023-11-01T18:35:59.833Z,,0,3,,3421,response,ISIC_7415335.JPG,14,ISIC_8468512.JPG,ISIC_8468512.JPG,false,0,keypress(z),500,618531.0000000001,618530,615109,615093,615127,618561,8,400,38,,ISIC_7415335.JPG
break,html.Screen,4_137_1,2023-11-01T18:35:59.834Z,,0,,,NaN,,,,,,false,,,,618532,618532,,618531.0000000001,,618561,8,400,,,
break_continue,html.Screen,4_137_2,2023-11-01T18:35:59.835Z,,0,,,NaN,,,,,,false,,,,618533,618533,,618533,,618561,8,400,,,
sequence,flow.Sequence,4_137,2023-11-01T18:35:59.835Z,,0,,,3406,completion,,,,,false,,,,618533,618533,615109,615093,615127,618561,8,400,,,
trial,html.Screen,4_138_0,2023-11-01T18:36:02.758Z,,0,3,,2913,response,ISIC_0055526.JPG,6,ISIC_0183290.JPG,ISIC_0055526.JPG,false,1,keypress(m),500,621456,621456,618543,618534,618561,621494,8,400,39,,ISIC_0183290.JPG
break,html.Screen,4_138_1,2023-11-01T18:36:02.760Z,,0,,,NaN,,,,,,false,,,,621458,621458,,621457,,621494,8,400,,,
break_continue,html.Screen,4_138_2,2023-11-01T18:36:02.760Z,,0,,,NaN,,,,,,false,,,,621459.0000000001,621458,,621458,,621494,8,400,,,
sequence,flow.Sequence,4_138,2023-11-01T18:36:02.761Z,,0,,,2897,completion,,,,,false,,,,621459.0000000001,621458,618543,618533,618561,621494,8,400,,,
trial,html.Screen,4_139_0,2023-11-01T18:36:05.793Z,,0,3,,3013,response,ISIC_2647643.JPG,13,ISIC_9542544.JPG,ISIC_9542544.JPG,false,0,keypress(z),500,624491,624491,621478,621459.0000000001,621494,624527,8,400,40,,ISIC_2647643.JPG
break,html.Screen,4_139_1,2023-11-01T18:36:05.795Z,,0,,,NaN,,,,,,false,,,,624493,624492,,624492,,624527,8,400,,,
break_continue,html.Screen,4_139_2,2023-11-01T18:36:05.795Z,,0,,,NaN,,,,,,false,,,,624494,624494,,624493,,624527,8,400,,,
sequence,flow.Sequence,4_139,2023-11-01T18:36:05.796Z,,0,,,3000,completion,,,,,false,,,,624494,624494,621478,621459.0000000001,621494,624527,8,400,,,
trial,html.Screen,4_140_0,2023-11-01T18:36:09.482Z,,0,3,,3668,response,ISIC_0027541.JPG,12,ISIC_1676261.JPG,ISIC_0027541.JPG,false,1,keypress(m),500,628180.0000000001,628179,624511,624494,624527,628211,8,400,41,,ISIC_1676261.JPG
break,html.Screen,4_140_1,2023-11-01T18:36:09.483Z,,0,,,NaN,,,,,,false,,,,628182,628182,,628181,,628211,8,400,,,
break_continue,html.Screen,4_140_2,2023-11-01T18:36:09.484Z,,0,,,NaN,,,,,,false,,,,628182,628182,,628182,,628211,8,400,,,
sequence,flow.Sequence,4_140,2023-11-01T18:36:09.484Z,,0,,,3655,completion,,,,,false,,,,628183,628182,624511,624494,624527,628211,8,400,,,
trial,html.Screen,4_141_0,2023-11-01T18:36:12.489Z,,0,3,,2993,response,ISIC_3046905.JPG,10,ISIC_0030596.JPG,ISIC_3046905.JPG,false,1,keypress(m),500,631188,631187,628194,628183,628211,631228,8,400,42,,ISIC_0030596.JPG
break,html.Screen,4_141_1,2023-11-01T18:36:12.490Z,,0,,,NaN,,,,,,false,,,,631189,631189,,631188,,631228,8,400,,,
break_continue,html.Screen,4_141_2,2023-11-01T18:36:12.491Z,,0,,,NaN,,,,,,false,,,,631190,631190,,631189,,631228,8,400,,,
sequence,flow.Sequence,4_141,2023-11-01T18:36:12.491Z,,0,,,2979,completion,,,,,false,,,,631190,631190,628194,628183,628211,631228,8,400,,,
trial,html.Screen,4_142_0,2023-11-01T18:36:15.372Z,,0,3,,2859,response,ISIC_3941147.JPG,5,ISIC_7319169.JPG,ISIC_3941147.JPG,false,1,keypress(m),500,634070,634070,631211,631190,631228,634111,8,400,43,,ISIC_7319169.JPG
break,html.Screen,4_142_1,2023-11-01T18:36:15.373Z,,0,,,NaN,,,,,,false,,,,634072,634072,,634071,,634111,8,400,,,
break_continue,html.Screen,4_142_2,2023-11-01T18:36:15.374Z,,0,,,NaN,,,,,,false,,,,634073,634072,,634072,,634111,8,400,,,
sequence,flow.Sequence,4_142,2023-11-01T18:36:15.374Z,,0,,,2844,completion,,,,,false,,,,634073,634072,631211,631190,631228,634111,8,400,,,
trial,html.Screen,4_143_0,2023-11-01T18:36:19.075Z,,0,3,,3679,response,ISIC_4590810.JPG,3,ISIC_7888517.JPG,ISIC_7888517.JPG,false,0,keypress(z),500,637774,637773,634094,634073,634111,637811,8,400,44,,ISIC_4590810.JPG
break,html.Screen,4_143_1,2023-11-01T18:36:19.077Z,,0,,,NaN,,,,,,false,,,,637776.0000000001,637775,,637774,,637811,8,400,,,
break_continue,html.Screen,4_143_2,2023-11-01T18:36:19.077Z,,0,,,NaN,,,,,,false,,,,637776.0000000001,637776.0000000001,,637776.0000000001,,637811,8,400,,,
sequence,flow.Sequence,4_143,2023-11-01T18:36:19.078Z,,0,,,3665.0000000001164,completion,,,,,false,,,,637777,637776.0000000001,634094,634073,634111,637811,8,400,,,
trial,html.Screen,4_144_0,2023-11-01T18:36:22.481Z,,0,3,,3384,response,ISIC_0011073.JPG,1,ISIC_7185036.JPG,ISIC_0011073.JPG,false,1,keypress(m),500,641180.0000000001,641179,637795,637777,637811,641211,8,400,45,,ISIC_7185036.JPG
break,html.Screen,4_144_1,2023-11-01T18:36:22.482Z,,0,,,NaN,,,,,,false,,,,641181,641181,,641180.0000000001,,641211,8,400,,,
break_continue,html.Screen,4_144_2,2023-11-01T18:36:22.482Z,,0,,,NaN,,,,,,false,,,,641181,641181,,641181,,641211,8,400,,,
sequence,flow.Sequence,4_144,2023-11-01T18:36:22.483Z,,0,,,3370,completion,,,,,false,,,,641182,641181,637795,637777,637811,641211,8,400,,,
trial,html.Screen,4_145_0,2023-11-01T18:36:26.059Z,,0,3,,3562.0000000001164,response,ISIC_2513933.JPG,9,ISIC_0046449.JPG,ISIC_2513933.JPG,false,1,keypress(m),500,644758,644757.0000000001,641195,641182,641211,644794,8,400,46,,ISIC_0046449.JPG
break,html.Screen,4_145_1,2023-11-01T18:36:26.060Z,,0,,,NaN,,,,,,false,,,,644759,644759,,644758,,644794,8,400,,,
break_continue,html.Screen,4_145_2,2023-11-01T18:36:26.061Z,,0,,,NaN,,,,,,false,,,,644760,644760,,644760,,644794,8,400,,,
sequence,flow.Sequence,4_145,2023-11-01T18:36:26.061Z,,0,,,3549,completion,,,,,false,,,,644760,644760,641195,641182,641211,644794,8,400,,,
trial,html.Screen,4_146_0,2023-11-01T18:36:29.328Z,,0,3,,3248,response,ISIC_6483504.JPG,6,ISIC_0009894.JPG,ISIC_0009894.JPG,false,0,keypress(z),500,648027,648027,644779,644761,644794,648062,8,400,47,,ISIC_6483504.JPG
break,html.Screen,4_146_1,2023-11-01T18:36:29.329Z,,0,,,NaN,,,,,,false,,,,648029,648028,,648028,,648062,8,400,,,
break_continue,html.Screen,4_146_2,2023-11-01T18:36:29.329Z,,0,,,NaN,,,,,,false,,,,648029,648029,,648029,,648062,8,400,,,
sequence,flow.Sequence,4_146,2023-11-01T18:36:29.330Z,,0,,,3235,completion,,,,,false,,,,648029,648029,644779,644760,644794,648062,8,400,,,
trial,html.Screen,4_147_0,2023-11-01T18:36:32.057Z,,0,3,,2711,response,ISIC_0014867.JPG,11,ISIC_9402324.JPG,ISIC_9402324.JPG,false,0,keypress(z),500,650756,650756,648045,648029,648062,650795,8,400,48,,ISIC_0014867.JPG
break,html.Screen,4_147_1,2023-11-01T18:36:32.058Z,,0,,,NaN,,,,,,false,,,,650758,650758,,650757.0000000001,,650795,8,400,,,
break_continue,html.Screen,4_147_2,2023-11-01T18:36:32.059Z,,0,,,NaN,,,,,,false,,,,650758,650758,,650758,,650795,8,400,,,
sequence,flow.Sequence,4_147,2023-11-01T18:36:32.059Z,,0,,,2696,completion,,,,,false,,,,650759,650758,648045,648029,648062,650795,8,400,,,
trial,html.Screen,4_148_0,2023-11-01T18:36:35.798Z,,0,3,,3719,response,ISIC_3952694.JPG,14,ISIC_0058649.JPG,ISIC_0058649.JPG,false,0,keypress(z),500,654498,654497,650778,650759,650795,654528,8,400,49,,ISIC_3952694.JPG
break,html.Screen,4_148_1,2023-11-01T18:36:35.800Z,,0,,,NaN,,,,,,false,,,,654500,654499,,654498,,654528,8,400,,,
break_continue,html.Screen,4_148_2,2023-11-01T18:36:35.800Z,,0,,,NaN,,,,,,false,,,,654500,654500,,654500,,654528,8,400,,,
sequence,flow.Sequence,4_148,2023-11-01T18:36:35.801Z,,0,,,3705,completion,,,,,false,,,,654500,654500,650778,650759,650795,654528,8,400,,,
trial,html.Screen,4_149_0,2023-11-01T18:36:38.968Z,,0,3,,3156,response,ISIC_0063655.JPG,8,ISIC_0009488.JPG,ISIC_0009488.JPG,false,0,keypress(z),500,657668,657668,654512,654501,654528,657712,8,400,50,,ISIC_0063655.JPG
break,html.Screen,4_149_1,2023-11-01T18:36:48.996Z,,0,,,10001,timeout,,,,,false,,,,667697,667696,657695,657669,657712,667713,8,400,,,
break_continue,html.Screen,4_149_2,2023-11-01T18:36:54.763Z,,0,,,5790,response,,,,,false,continue,keypress(Space),,673464,673486,667696,667697,667713,673496,8,400,,,
sequence,flow.Sequence,4_149,2023-11-01T18:36:54.764Z,,0,,,18958,completion,,,,,false,,,,673464,673486,654512,654500,654528,673496,8,400,,,
trial,html.Screen,4_150_0,2023-11-01T18:36:59.029Z,,0,4,,4249,response,ISIC_0028716.JPG,14,ISIC_0061475.JPG,ISIC_0061475.JPG,false,0,keypress(z),500,677730,677729,673480,673464,673496,677763,8,400,1,,ISIC_0028716.JPG
break,html.Screen,4_150_1,2023-11-01T18:36:59.030Z,,0,,,NaN,,,,,,false,,,,677731,677731,,677730,,677763,8,400,,,
break_continue,html.Screen,4_150_2,2023-11-01T18:36:59.031Z,,0,,,NaN,,,,,,false,,,,677732,677732,,677731,,677763,8,400,,,
sequence,flow.Sequence,4_150,2023-11-01T18:36:59.031Z,,0,,,4236,completion,,,,,false,,,,677732,677732,673480,673464,673496,677763,8,400,,,
trial,html.Screen,4_151_0,2023-11-01T18:37:02.347Z,,0,4,,3301,response,ISIC_0028759.JPG,13,ISIC_0001126.JPG,ISIC_0028759.JPG,false,1,keypress(m),500,681048,681048,677747,677732,677763,681080,8,400,2,,ISIC_0001126.JPG
break,html.Screen,4_151_1,2023-11-01T18:37:02.348Z,,0,,,NaN,,,,,,false,,,,681050.0000000001,681049,,681049,,681080,8,400,,,
break_continue,html.Screen,4_151_2,2023-11-01T18:37:02.349Z,,0,,,NaN,,,,,,false,,,,681050.0000000001,681050.0000000001,,681050.0000000001,,681080,8,400,,,
sequence,flow.Sequence,4_151,2023-11-01T18:37:02.349Z,,0,,,3287.0000000001164,completion,,,,,false,,,,681050.0000000001,681050.0000000001,677747,677732,677763,681080,8,400,,,
trial,html.Screen,4_152_0,2023-11-01T18:37:04.714Z,,0,4,,2352,response,ISIC_5029636.JPG,9,ISIC_0060153.JPG,ISIC_0060153.JPG,false,0,keypress(z),500,683416,683415,681063,681050.0000000001,681080,683447,8,400,3,,ISIC_5029636.JPG
break,html.Screen,4_152_1,2023-11-01T18:37:04.716Z,,0,,,NaN,,,,,,false,,,,683417,683417,,683416,,683447,8,400,,,
break_continue,html.Screen,4_152_2,2023-11-01T18:37:04.716Z,,0,,,NaN,,,,,,false,,,,683418,683417,,683417,,683447,8,400,,,
sequence,flow.Sequence,4_152,2023-11-01T18:37:04.717Z,,0,,,2337,completion,,,,,false,,,,683418,683417,681063,681050.0000000001,681080,683447,8,400,,,
trial,html.Screen,4_153_0,2023-11-01T18:37:07.075Z,,0,4,,2346.0000000001164,response,ISIC_9934037.JPG,10,ISIC_7412559.JPG,ISIC_7412559.JPG,false,0,keypress(z),500,685777,685776.0000000001,683430,683418,683447,685814,8,400,4,,ISIC_9934037.JPG
break,html.Screen,4_153_1,2023-11-01T18:37:07.076Z,,0,,,NaN,,,,,,false,,,,685778,685778,,685777,,685814,8,400,,,
break_continue,html.Screen,4_153_2,2023-11-01T18:37:07.077Z,,0,,,NaN,,,,,,false,,,,685779,685778,,685778,,685814,8,400,,,
sequence,flow.Sequence,4_153,2023-11-01T18:37:07.077Z,,0,,,2331,completion,,,,,false,,,,685779,685778,683430,683418,683447,685814,8,400,,,
trial,html.Screen,4_154_0,2023-11-01T18:37:09.580Z,,0,4,,2483.0000000001164,response,ISIC_7539727.JPG,6,ISIC_0061067.JPG,ISIC_0061067.JPG,false,0,keypress(z),500,688282,688281.0000000001,685798,685779,685814,688314,8,400,5,,ISIC_7539727.JPG
break,html.Screen,4_154_1,2023-11-01T18:37:09.582Z,,0,,,NaN,,,,,,false,,,,688283,688283,,688282,,688314,8,400,,,
break_continue,html.Screen,4_154_2,2023-11-01T18:37:09.582Z,,0,,,NaN,,,,,,false,,,,688284,688283,,688283,,688314,8,400,,,
sequence,flow.Sequence,4_154,2023-11-01T18:37:09.583Z,,0,,,2469,completion,,,,,false,,,,688284,688283,685798,685779,685814,688314,8,400,,,
trial,html.Screen,4_155_0,2023-11-01T18:37:11.903Z,,0,4,,2307,response,ISIC_7129901.JPG,9,ISIC_0027095.JPG,ISIC_7129901.JPG,false,1,keypress(m),500,690604,690604,688297,688284,688314,690647,8,400,6,,ISIC_0027095.JPG
break,html.Screen,4_155_1,2023-11-01T18:37:11.904Z,,0,,,NaN,,,,,,false,,,,690606,690605,,690605,,690647,8,400,,,
break_continue,html.Screen,4_155_2,2023-11-01T18:37:11.905Z,,0,,,NaN,,,,,,false,,,,690606,690606,,690606,,690647,8,400,,,
sequence,flow.Sequence,4_155,2023-11-01T18:37:11.905Z,,0,,,2292,completion,,,,,false,,,,690606,690606,688297,688284,688314,690647,8,400,,,
trial,html.Screen,4_156_0,2023-11-01T18:37:14.835Z,,0,4,,2905,response,ISIC_0031325.JPG,4,ISIC_8790198.JPG,ISIC_8790198.JPG,false,0,keypress(z),500,693536,693536,690631,690606,690647,693564,8,400,7,,ISIC_0031325.JPG
break,html.Screen,4_156_1,2023-11-01T18:37:14.836Z,,0,,,NaN,,,,,,false,,,,693538,693538,,693537,,693564,8,400,,,
break_continue,html.Screen,4_156_2,2023-11-01T18:37:14.837Z,,0,,,NaN,,,,,,false,,,,693539,693538,,693538,,693564,8,400,,,
sequence,flow.Sequence,4_156,2023-11-01T18:37:14.837Z,,0,,,2891,completion,,,,,false,,,,693539,693538,690631,690606,690647,693564,8,400,,,
trial,html.Screen,4_157_0,2023-11-01T18:37:17.785Z,,0,4,,2939,response,ISIC_6056121.JPG,9,ISIC_9219356.JPG,ISIC_9219356.JPG,false,0,keypress(z),500,696487,696486,693547,693539,693564,696531,8,400,8,,ISIC_6056121.JPG
break,html.Screen,4_157_1,2023-11-01T18:37:17.787Z,,0,,,NaN,,,,,,false,,,,696488,696488,,696487,,696531,8,400,,,
break_continue,html.Screen,4_157_2,2023-11-01T18:37:17.787Z,,0,,,NaN,,,,,,false,,,,696489,696489,,696489,,696531,8,400,,,
sequence,flow.Sequence,4_157,2023-11-01T18:37:17.787Z,,0,,,2925,completion,,,,,false,,,,696489,696489,693547,693539,693564,696531,8,400,,,
trial,html.Screen,4_158_0,2023-11-01T18:37:22.513Z,,0,4,,4701,response,ISIC_0033178.JPG,6,ISIC_0962787.JPG,ISIC_0033178.JPG,false,1,keypress(m),500,701215,701214,696513,696489,696531,701248,8,400,9,,ISIC_0962787.JPG
break,html.Screen,4_158_1,2023-11-01T18:37:22.515Z,,0,,,NaN,,,,,,false,,,,701217,701216,,701216,,701248,8,400,,,
break_continue,html.Screen,4_158_2,2023-11-01T18:37:22.515Z,,0,,,NaN,,,,,,false,,,,701217,701217,,701217,,701248,8,400,,,
sequence,flow.Sequence,4_158,2023-11-01T18:37:22.516Z,,0,,,4686,completion,,,,,false,,,,701218,701217,696513,696489,696531,701248,8,400,,,
