sender,sender_type,sender_id,timestamp,meta,,blockNo,condition,duration,ended_on,img_left,img_reveal,img_right,loser,practice,response,response_action,selection_duration,time_commit,time_end,time_render,time_run,time_show,time_switch,total_blocks,total_trials,trialNo,url,winner
informed_consent,html.Screen,0,2023-09-16T22:18:31.269Z,"{""labjs_version"":""20.2.4"",""labjs_build"":{""flavor"":""production"",""commit"":""f5b4a49f956347addd546a832a3327688c2c0fef""},""location"":""https://run.pavlovia.org/MurrayBennett/melanoma-2afc/?participant=66753&platform=sona"",""userAgent"":""Mozilla/5.0 (Windows NT 10.0; Win64; x64) AppleWebKit/537.36 (KHTML, like Gecko) Chrome/117.0.0.0 Safari/537.36"",""platform"":""Win32"",""language"":""en-US"",""locale"":""en-US"",""timeZone"":""America/Chicago"",""timezoneOffset"":300,""screen_width"":1280,""screen_height"":800,""scroll_width"":1280,""scroll_height"":627,""window_innerWidth"":1280,""window_innerHeight"":675,""devicePixelRatio"":1.5}",,,,6295.267,response,,,,,,consent,click button,,9262.80000000447,9261,2949.093,2942.60000000149,2965.733,9265.689,,,,"{""participant"":""66753"",""platform"":""sona""}",
Welcome,html.Screen,1,2023-09-16T22:18:40.283Z,,,,regular,9010.61100000447,response,,,,,,continue,click button,,18277.5,18276.30000000447,9248.978,9263,9265.689,18282.303,,,,,
trial,html.Screen,2_0_0,2023-09-16T22:18:45.781Z,,0,0,,5492.29700000149,response,ISIC_4679428.JPG,,ISIC_0061792.JPG,ISIC_0061792.JPG,true,0,keypress(z),500,23774.80000000447,23774.60000000149,18265.542,18277.80000000447,18282.303,23782.265,1,6,1,,ISIC_4679428.JPG
sequence,flow.Sequence,2_0,2023-09-16T22:18:45.781Z,,0,,,5492.29700000149,completion,,,,,true,,,,23775.20000000298,23774.60000000149,18265.542,18277.80000000447,18282.303,23782.265,1,6,,,
trial,html.Screen,2_1_0,2023-09-16T22:18:51.740Z,,0,0,,5951.435000002981,response,ISIC_0776486.JPG,,ISIC_5199497.JPG,ISIC_0776486.JPG,true,1,keypress(m),500,29734,29733.70000000298,23765.481,23775.30000000447,23782.265,29748.775,1,6,2,,ISIC_5199497.JPG
sequence,flow.Sequence,2_1,2023-09-16T22:18:51.740Z,,0,,,5951.435000002981,completion,,,,,true,,,,29734.20000000298,29733.70000000298,23765.481,23775.30000000447,23782.265,29748.775,1,6,,,
trial,html.Screen,2_2_0,2023-09-16T22:18:59.112Z,,0,0,,7350.2249999999985,response,ISIC_2556187.JPG,,ISIC_8575776.JPG,ISIC_2556187.JPG,true,1,keypress(m),500,37099.40000000596,37099,29732.263,29734.40000000596,29748.775,37115.41,1,6,3,,ISIC_8575776.JPG
sequence,flow.Sequence,2_2,2023-09-16T22:18:59.112Z,,0,,,7350.2249999999985,completion,,,,,true,,,,37099.70000000298,37099,29732.263,29734.30000000447,29748.775,37115.41,1,6,,,
trial,html.Screen,2_3_0,2023-09-16T22:19:02.975Z,,0,0,,3846.6900000014866,response,ISIC_9238366.JPG,,ISIC_8141769.JPG,ISIC_8141769.JPG,true,0,keypress(z),500,40962.5,40962.10000000149,37098.676,37099.80000000447,37115.41,40965.282,1,6,4,,ISIC_9238366.JPG
sequence,flow.Sequence,2_3,2023-09-16T22:19:02.975Z,,0,,,3846.6900000014866,completion,,,,,true,,,,40962.80000000447,40962.10000000149,37098.676,37099.80000000447,37115.41,40965.282,1,6,,,
trial,html.Screen,2_4_0,2023-09-16T22:19:06.789Z,,0,0,,3810.918000002981,response,ISIC_8949026.JPG,,ISIC_9959593.JPG,ISIC_8949026.JPG,true,1,keypress(m),500,44776.5,44776.20000000298,40948.683,40962.90000000596,40965.282,44781.923,1,6,5,,ISIC_9959593.JPG
sequence,flow.Sequence,2_4,2023-09-16T22:19:06.789Z,,0,,,3810.918000002981,completion,,,,,true,,,,44776.80000000447,44776.20000000298,40948.683,40962.90000000596,40965.282,44781.923,1,6,,,
trial,html.Screen,2_5_0,2023-09-16T22:19:10.344Z,,0,0,,3550.0769999999975,response,ISIC_0460240.JPG,,ISIC_0010479.JPG,ISIC_0010479.JPG,true,0,keypress(z),500,48332.30000000447,48332,44765.22,44777,44781.923,48348.518,1,6,6,,ISIC_0460240.JPG
sequence,flow.Sequence,2_5,2023-09-16T22:19:10.345Z,,0,,,3550.0769999999975,completion,,,,,true,,,,48332.5,48332,44765.22,44777,44781.923,48348.518,1,6,,,
loop,flow.Loop,2,2023-09-16T22:19:10.345Z,,,,,30049.697,completion,,,,,true,,,,48332.70000000298,48332,18265.542,18277.70000000298,18282.303,48348.518,1,6,,,
exp_instructions,html.Screen,3,2023-09-16T22:19:18.964Z,,,,,8602.182000002984,response,,,,,,continue,keypress(Space),,56951.40000000596,56950.70000000298,48331.915,48332.70000000298,48348.518,56965.11,,,,,
trial,html.Screen,4_0_0,2023-09-16T22:19:24.845Z,,0,1,,5867.19000000447,response,ISIC_9905633.JPG,7,ISIC_0015180.JPG,ISIC_0015180.JPG,false,0,keypress(z),500,62832.60000000149,62832.30000000447,56948.36,56951.70000000298,56965.11,62848.329,8,400,1,,ISIC_9905633.JPG
break,html.Screen,4_0_1,2023-09-16T22:19:24.846Z,,0,,,NaN,,,,,,false,,,,62833.70000000298,62833.5,,62832.80000000447,,62848.329,8,400,,,
break_continue,html.Screen,4_0_2,2023-09-16T22:19:24.846Z,,0,,,NaN,,,,,,false,,,,62834.20000000298,62834.10000000149,,62833.90000000596,,62848.329,8,400,,,
sequence,flow.Sequence,4_0,2023-09-16T22:19:24.847Z,,0,,,5868.9900000014895,completion,,,,,false,,,,62834.40000000596,62834.10000000149,56948.36,56951.60000000149,56965.11,62848.329,8,400,,,
trial,html.Screen,4_1_0,2023-09-16T22:19:29.924Z,,0,1,,5063.371000002982,response,ISIC_0054974.JPG,10,ISIC_8869929.JPG,ISIC_0054974.JPG,false,1,keypress(m),500,67912,67911.70000000298,62831.689,62834.5,62848.329,67914.968,8,400,2,,ISIC_8869929.JPG
break,html.Screen,4_1_1,2023-09-16T22:19:29.925Z,,0,,,NaN,,,,,,false,,,,67912.80000000447,67912.70000000298,,67912.20000000298,,67914.968,8,400,,,
break_continue,html.Screen,4_1_2,2023-09-16T22:19:29.925Z,,0,,,NaN,,,,,,false,,,,67913.10000000149,67913,,67913,,67914.968,8,400,,,
sequence,flow.Sequence,4_1,2023-09-16T22:19:29.925Z,,0,,,5064.671000000002,completion,,,,,false,,,,67913.20000000298,67913,62831.689,62834.40000000596,62848.329,67914.968,8,400,,,
trial,html.Screen,4_2_0,2023-09-16T22:19:35.149Z,,0,1,,5221.232000002987,response,ISIC_6531118.JPG,12,ISIC_0063748.JPG,ISIC_0063748.JPG,false,0,keypress(z),500,73136.60000000149,73136.20000000298,67898.251,67913.30000000447,67914.968,73148.568,8,400,3,,ISIC_6531118.JPG
break,html.Screen,4_2_1,2023-09-16T22:19:35.150Z,,0,,,NaN,,,,,,false,,,,73137.60000000149,73137.20000000298,,73136.90000000596,,73148.568,8,400,,,
break_continue,html.Screen,4_2_2,2023-09-16T22:19:35.151Z,,0,,,NaN,,,,,,false,,,,73139,73138.80000000447,,73138.70000000298,,73148.568,8,400,,,
sequence,flow.Sequence,4_2,2023-09-16T22:19:35.151Z,,0,,,5223.832000004477,completion,,,,,false,,,,73139.20000000298,73138.80000000447,67898.251,67913.30000000447,67914.968,73148.568,8,400,,,
trial,html.Screen,4_3_0,2023-09-16T22:19:39.921Z,,0,1,,4760.232000004471,response,ISIC_4950467.JPG,9,ISIC_4770073.JPG,ISIC_4770073.JPG,false,0,keypress(z),500,77909.20000000298,77908.80000000447,73131.602,73139.40000000596,73148.568,77931.792,8,400,4,,ISIC_4950467.JPG
break,html.Screen,4_3_1,2023-09-16T22:19:39.922Z,,0,,,NaN,,,,,,false,,,,77910,77909.80000000447,,77909.40000000596,,77931.792,8,400,,,
break_continue,html.Screen,4_3_2,2023-09-16T22:19:39.922Z,,0,,,NaN,,,,,,false,,,,77910.20000000298,77910.20000000298,,77910,,77931.792,8,400,,,
sequence,flow.Sequence,4_3,2023-09-16T22:19:39.923Z,,0,,,4761.632000002981,completion,,,,,false,,,,77910.30000000447,77910.20000000298,73131.602,73139.30000000447,73148.568,77931.792,8,400,,,
trial,html.Screen,4_4_0,2023-09-16T22:19:44.986Z,,0,1,,5042.008000004469,response,ISIC_4882123.JPG,9,ISIC_8357679.JPG,ISIC_8357679.JPG,false,0,keypress(z),500,82974,82973.80000000447,77915.322,77910.5,77931.792,82981.591,8,400,5,,ISIC_4882123.JPG
break,html.Screen,4_4_1,2023-09-16T22:19:44.987Z,,0,,,NaN,,,,,,false,,,,82974.70000000298,82974.5,,82974.10000000149,,82981.591,8,400,,,
break_continue,html.Screen,4_4_2,2023-09-16T22:19:44.987Z,,0,,,NaN,,,,,,false,,,,82975.10000000149,82974.90000000596,,82974.80000000447,,82981.591,8,400,,,
sequence,flow.Sequence,4_4,2023-09-16T22:19:44.987Z,,0,,,5043.108000005959,completion,,,,,false,,,,82975.30000000447,82974.90000000596,77915.322,77910.5,77931.792,82981.591,8,400,,,
trial,html.Screen,4_5_0,2023-09-16T22:19:52.174Z,,0,1,,7180.10900000298,response,ISIC_0010251.JPG,6,ISIC_7011122.JPG,ISIC_7011122.JPG,false,0,keypress(z),500,90162,90161.70000000298,82964.777,82975.40000000596,82981.591,90164.775,8,400,6,,ISIC_0010251.JPG
break,html.Screen,4_5_1,2023-09-16T22:19:52.175Z,,0,,,NaN,,,,,,false,,,,90162.90000000596,90162.60000000149,,90162.10000000149,,90164.775,8,400,,,
break_continue,html.Screen,4_5_2,2023-09-16T22:19:52.175Z,,0,,,NaN,,,,,,false,,,,90163.10000000149,90163.10000000149,,90162.90000000596,,90164.775,8,400,,,
sequence,flow.Sequence,4_5,2023-09-16T22:19:52.176Z,,0,,,7181.50900000149,completion,,,,,false,,,,90163.40000000596,90163.10000000149,82964.777,82975.30000000447,82981.591,90164.775,8,400,,,
trial,html.Screen,4_6_0,2023-09-16T22:19:56.642Z,,0,1,,4464.625000005966,response,ISIC_0066149.JPG,8,ISIC_9317929.JPG,ISIC_9317929.JPG,false,0,keypress(z),500,94629.60000000149,94629.40000000596,90148.021,90163.60000000149,90164.775,94631.33,8,400,7,,ISIC_0066149.JPG
break,html.Screen,4_6_1,2023-09-16T22:19:56.643Z,,0,,,NaN,,,,,,false,,,,94630.30000000447,94630.10000000149,,94629.80000000447,,94631.33,8,400,,,
break_continue,html.Screen,4_6_2,2023-09-16T22:19:56.643Z,,0,,,NaN,,,,,,false,,,,94630.60000000149,94630.5,,94630.40000000596,,94631.33,8,400,,,
sequence,flow.Sequence,4_6,2023-09-16T22:19:56.643Z,,0,,,4465.725000000006,completion,,,,,false,,,,94630.70000000298,94630.5,90148.021,90163.5,90164.775,94631.33,8,400,,,
trial,html.Screen,4_7_0,2023-09-16T22:20:01.259Z,,0,1,,4614.770000001488,response,ISIC_0055731.JPG,8,ISIC_7520843.JPG,ISIC_7520843.JPG,false,0,keypress(z),500,99246.40000000596,99246.10000000149,94614.691,94630.80000000447,94631.33,99270.407,8,400,8,,ISIC_0055731.JPG
break,html.Screen,4_7_1,2023-09-16T22:20:01.259Z,,0,,,NaN,,,,,,false,,,,99247.20000000298,99246.90000000596,,99246.5,,99270.407,8,400,,,
break_continue,html.Screen,4_7_2,2023-09-16T22:20:01.260Z,,0,,,NaN,,,,,,false,,,,99247.5,99247.40000000596,,99247.20000000298,,99270.407,8,400,,,
sequence,flow.Sequence,4_7,2023-09-16T22:20:01.260Z,,0,,,4616.070000005959,completion,,,,,false,,,,99247.70000000298,99247.40000000596,94614.691,94630.80000000447,94631.33,99270.407,8,400,,,
trial,html.Screen,4_8_0,2023-09-16T22:20:05.234Z,,0,1,,3951.393000004464,response,ISIC_8159779.JPG,7,ISIC_6899527.JPG,ISIC_6899527.JPG,false,0,keypress(z),500,103222,103221.80000000447,99231.271,99247.90000000596,99270.407,103231.278,8,400,9,,ISIC_8159779.JPG
break,html.Screen,4_8_1,2023-09-16T22:20:05.235Z,,0,,,NaN,,,,,,false,,,,103222.90000000596,103222.70000000298,,103222.20000000298,,103231.278,8,400,,,
break_continue,html.Screen,4_8_2,2023-09-16T22:20:05.235Z,,0,,,NaN,,,,,,false,,,,103223.20000000298,103223.10000000149,,103223,,103231.278,8,400,,,
sequence,flow.Sequence,4_8,2023-09-16T22:20:05.235Z,,0,,,3952.6930000014836,completion,,,,,false,,,,103223.30000000447,103223.10000000149,99231.271,99247.80000000447,99270.407,103231.278,8,400,,,
trial,html.Screen,4_9_0,2023-09-16T22:20:11.478Z,,0,1,,6234.522000004465,response,ISIC_5754023.JPG,8,ISIC_0066105.JPG,ISIC_0066105.JPG,false,0,keypress(z),500,109466.20000000298,109465.80000000447,103214.589,103223.30000000447,103231.278,109481.197,8,400,10,,ISIC_5754023.JPG
break,html.Screen,4_9_1,2023-09-16T22:20:11.479Z,,0,,,NaN,,,,,,false,,,,109467.10000000149,109466.80000000447,,109466.5,,109481.197,8,400,,,
break_continue,html.Screen,4_9_2,2023-09-16T22:20:11.480Z,,0,,,NaN,,,,,,false,,,,109467.5,109467.5,,109467.20000000298,,109481.197,8,400,,,
sequence,flow.Sequence,4_9,2023-09-16T22:20:11.480Z,,0,,,6236.221999999994,completion,,,,,false,,,,109467.70000000298,109467.5,103214.589,103223.30000000447,103231.278,109481.197,8,400,,,
trial,html.Screen,4_10_0,2023-09-16T22:20:15.661Z,,0,1,,4167.303,response,ISIC_0031224.JPG,5,ISIC_7438013.JPG,ISIC_0031224.JPG,false,1,keypress(m),500,113648.80000000447,113648.5,109464.581,109467.80000000447,109481.197,113664.394,8,400,11,,ISIC_7438013.JPG
break,html.Screen,4_10_1,2023-09-16T22:20:15.662Z,,0,,,NaN,,,,,,false,,,,113649.80000000447,113649.5,,113649.10000000149,,113664.394,8,400,,,
break_continue,html.Screen,4_10_2,2023-09-16T22:20:15.662Z,,0,,,NaN,,,,,,false,,,,113650.30000000447,113650.20000000298,,113650,,113664.394,8,400,,,
sequence,flow.Sequence,4_10,2023-09-16T22:20:15.663Z,,0,,,4169.00300000298,completion,,,,,false,,,,113650.40000000596,113650.20000000298,109464.581,109467.80000000447,109481.197,113664.394,8,400,,,
trial,html.Screen,4_11_0,2023-09-16T22:20:19.508Z,,0,1,,3831.40600000447,response,ISIC_0010360.JPG,7,ISIC_0000522.JPG,ISIC_0000522.JPG,false,0,keypress(z),500,117496.10000000149,117495.80000000447,113647.765,113650.5,113664.394,117520.214,8,400,12,,ISIC_0010360.JPG
break,html.Screen,4_11_1,2023-09-16T22:20:19.509Z,,0,,,NaN,,,,,,false,,,,117496.80000000447,117496.60000000149,,117496.30000000447,,117520.214,8,400,,,
break_continue,html.Screen,4_11_2,2023-09-16T22:20:19.509Z,,0,,,NaN,,,,,,false,,,,117497.20000000298,117497,,117496.90000000596,,117520.214,8,400,,,
sequence,flow.Sequence,4_11,2023-09-16T22:20:19.510Z,,0,,,3832.6059999999998,completion,,,,,false,,,,117497.40000000596,117497,113647.765,113650.5,113664.394,117520.214,8,400,,,
trial,html.Screen,4_12_0,2023-09-16T22:20:23.469Z,,0,1,,3936.285999999993,response,ISIC_9161341.JPG,12,ISIC_0000520.JPG,ISIC_0000520.JPG,false,0,keypress(z),500,121456.90000000596,121456.5,117481.043,117497.5,117520.214,121464.427,8,400,13,,ISIC_9161341.JPG
break,html.Screen,4_12_1,2023-09-16T22:20:23.470Z,,0,,,NaN,,,,,,false,,,,121457.80000000447,121457.5,,121457.10000000149,,121464.427,8,400,,,
break_continue,html.Screen,4_12_2,2023-09-16T22:20:23.470Z,,0,,,NaN,,,,,,false,,,,121458.10000000149,121458.10000000149,,121457.90000000596,,121464.427,8,400,,,
sequence,flow.Sequence,4_12,2023-09-16T22:20:23.470Z,,0,,,3937.886000001483,completion,,,,,false,,,,121458.30000000447,121458.10000000149,117481.043,117497.40000000596,117520.214,121464.427,8,400,,,
trial,html.Screen,4_13_0,2023-09-16T22:20:27.847Z,,0,1,,4369.773000002984,response,ISIC_0034172.JPG,11,ISIC_0357043.JPG,ISIC_0357043.JPG,false,0,keypress(z),500,125834.5,125834.20000000298,121447.681,121458.30000000447,121464.427,125847.654,8,400,14,,ISIC_0034172.JPG
break,html.Screen,4_13_1,2023-09-16T22:20:27.847Z,,0,,,NaN,,,,,,false,,,,125835.10000000149,125835,,125834.70000000298,,125847.654,8,400,,,
break_continue,html.Screen,4_13_2,2023-09-16T22:20:27.848Z,,0,,,NaN,,,,,,false,,,,125835.5,125835.40000000596,,125835.20000000298,,125847.654,8,400,,,
sequence,flow.Sequence,4_13,2023-09-16T22:20:27.848Z,,0,,,4370.973000005964,completion,,,,,false,,,,125835.60000000149,125835.40000000596,121447.681,121458.30000000447,121464.427,125847.654,8,400,,,
trial,html.Screen,4_14_0,2023-09-16T22:20:32.204Z,,0,1,,4343.7460000059655,response,ISIC_6127074.JPG,5,ISIC_0062559.JPG,ISIC_0062559.JPG,false,0,keypress(z),500,130191.60000000149,130191.40000000596,125830.974,125835.70000000298,125847.654,130197.655,8,400,15,,ISIC_6127074.JPG
break,html.Screen,4_14_1,2023-09-16T22:20:32.205Z,,0,,,NaN,,,,,,false,,,,130192.30000000447,130192,,130191.80000000447,,130197.655,8,400,,,
break_continue,html.Screen,4_14_2,2023-09-16T22:20:32.205Z,,0,,,NaN,,,,,,false,,,,130192.60000000149,130192.5,,130192.40000000596,,130197.655,8,400,,,
sequence,flow.Sequence,4_14,2023-09-16T22:20:32.205Z,,0,,,4344.846000000005,completion,,,,,false,,,,130192.70000000298,130192.5,125830.974,125835.70000000298,125847.654,130197.655,8,400,,,
trial,html.Screen,4_15_0,2023-09-16T22:20:35.553Z,,0,1,,3342.845000000001,response,ISIC_6201695.JPG,14,ISIC_0027193.JPG,ISIC_6201695.JPG,false,1,keypress(m),500,133540.90000000596,133540.5,130181.301,130192.80000000447,130197.655,133547.584,8,400,16,,ISIC_0027193.JPG
break,html.Screen,4_15_1,2023-09-16T22:20:35.554Z,,0,,,NaN,,,,,,false,,,,133541.90000000596,133541.6000000015,,133541.1000000015,,133547.584,8,400,,,
break_continue,html.Screen,4_15_2,2023-09-16T22:20:35.554Z,,0,,,NaN,,,,,,false,,,,133542.30000000447,133542.20000000298,,133542,,133547.584,8,400,,,
sequence,flow.Sequence,4_15,2023-09-16T22:20:35.555Z,,0,,,3344.5450000029814,completion,,,,,false,,,,133542.40000000596,133542.20000000298,130181.301,130192.70000000298,130197.655,133547.584,8,400,,,
trial,html.Screen,4_16_0,2023-09-16T22:20:39.019Z,,0,1,,3459.216000004468,response,ISIC_2445475.JPG,7,ISIC_8064866.JPG,ISIC_2445475.JPG,false,1,keypress(m),500,137007.20000000298,137006.80000000447,133530.992,133542.5,133547.584,137014.225,8,400,17,,ISIC_8064866.JPG
break,html.Screen,4_16_1,2023-09-16T22:20:39.020Z,,0,,,NaN,,,,,,false,,,,137008.20000000298,137007.70000000298,,137007.40000000596,,137014.225,8,400,,,
break_continue,html.Screen,4_16_2,2023-09-16T22:20:39.021Z,,0,,,NaN,,,,,,false,,,,137008.5,137008.40000000596,,137008.30000000447,,137014.225,8,400,,,
sequence,flow.Sequence,4_16,2023-09-16T22:20:39.021Z,,0,,,3460.816000005958,completion,,,,,false,,,,137008.6000000015,137008.40000000596,133530.992,133542.5,133547.584,137014.225,8,400,,,
trial,html.Screen,4_17_0,2023-09-16T22:20:43.445Z,,0,1,,4418.0750000044645,response,ISIC_0031482.JPG,6,ISIC_0012107.JPG,ISIC_0012107.JPG,false,0,keypress(z),500,141432.5,141432.30000000447,136997.603,137008.70000000298,137014.225,141447.547,8,400,18,,ISIC_0031482.JPG
break,html.Screen,4_17_1,2023-09-16T22:20:43.446Z,,0,,,NaN,,,,,,false,,,,141433.40000000596,141433.1000000015,,141432.70000000298,,141447.547,8,400,,,
break_continue,html.Screen,4_17_2,2023-09-16T22:20:43.446Z,,0,,,NaN,,,,,,false,,,,141433.70000000298,141433.70000000298,,141433.6000000015,,141447.547,8,400,,,
sequence,flow.Sequence,4_17,2023-09-16T22:20:43.446Z,,0,,,4419.475000002974,completion,,,,,false,,,,141433.80000000447,141433.70000000298,136997.603,137008.70000000298,137014.225,141447.547,8,400,,,
trial,html.Screen,4_18_0,2023-09-16T22:20:46.554Z,,0,1,,3094.253000004479,response,ISIC_0033081.JPG,5,ISIC_9829436.JPG,ISIC_9829436.JPG,false,0,keypress(z),500,144542,144541.80000000447,141430.806,141433.90000000596,141447.547,144547.501,8,400,19,,ISIC_0033081.JPG
break,html.Screen,4_18_1,2023-09-16T22:20:46.555Z,,0,,,NaN,,,,,,false,,,,144542.80000000447,144542.70000000298,,144542.30000000447,,144547.501,8,400,,,
break_continue,html.Screen,4_18_2,2023-09-16T22:20:46.555Z,,0,,,NaN,,,,,,false,,,,144543.20000000298,144543.1000000015,,144542.90000000596,,144547.501,8,400,,,
sequence,flow.Sequence,4_18,2023-09-16T22:20:46.555Z,,0,,,3095.5530000014987,completion,,,,,false,,,,144543.30000000447,144543.1000000015,141430.806,141433.90000000596,141447.547,144547.501,8,400,,,
trial,html.Screen,4_19_0,2023-09-16T22:20:49.697Z,,0,1,,3136.799000004481,response,ISIC_0026185.JPG,9,ISIC_7755875.JPG,ISIC_7755875.JPG,false,0,keypress(z),500,147684.6000000015,147684.30000000447,144530.854,144543.40000000596,144547.501,147697.385,8,400,20,,ISIC_0026185.JPG
break,html.Screen,4_19_1,2023-09-16T22:20:49.698Z,,0,,,NaN,,,,,,false,,,,147685.5,147685.30000000447,,147684.80000000447,,147697.385,8,400,,,
break_continue,html.Screen,4_19_2,2023-09-16T22:20:49.698Z,,0,,,NaN,,,,,,false,,,,147685.80000000447,147685.70000000298,,147685.6000000015,,147697.385,8,400,,,
sequence,flow.Sequence,4_19,2023-09-16T22:20:49.698Z,,0,,,3138.199000002991,completion,,,,,false,,,,147686,147685.70000000298,144530.854,144543.30000000447,144547.501,147697.385,8,400,,,
trial,html.Screen,4_20_0,2023-09-16T22:20:53.675Z,,0,1,,3964.515000005951,response,ISIC_0014221.JPG,7,ISIC_8690631.JPG,ISIC_0014221.JPG,false,1,keypress(m),500,151662.70000000298,151661.90000000596,147680.653,147686.1000000015,147697.385,151697.326,8,400,21,,ISIC_8690631.JPG
break,html.Screen,4_20_1,2023-09-16T22:20:53.676Z,,0,,,NaN,,,,,,false,,,,151663.30000000447,151663.20000000298,,151662.90000000596,,151697.326,8,400,,,
break_continue,html.Screen,4_20_2,2023-09-16T22:20:53.676Z,,0,,,NaN,,,,,,false,,,,151663.80000000447,151663.6000000015,,151663.5,,151697.326,8,400,,,
sequence,flow.Sequence,4_20,2023-09-16T22:20:53.676Z,,0,,,3966.215000001481,completion,,,,,false,,,,151664,151663.6000000015,147680.653,147686.1000000015,147697.385,151697.326,8,400,,,
trial,html.Screen,4_21_0,2023-09-16T22:20:57.121Z,,0,1,,3411.4740000044694,response,ISIC_3301933.JPG,13,ISIC_8207162.JPG,ISIC_3301933.JPG,false,1,keypress(m),500,155109,155108.80000000447,151686.558,151664.20000000298,151697.326,155113.976,8,400,22,,ISIC_8207162.JPG
break,html.Screen,4_21_1,2023-09-16T22:20:57.122Z,,0,,,NaN,,,,,,false,,,,155109.80000000447,155109.70000000298,,155109.20000000298,,155113.976,8,400,,,
break_continue,html.Screen,4_21_2,2023-09-16T22:20:57.122Z,,0,,,NaN,,,,,,false,,,,155110.1000000015,155110,,155110,,155113.976,8,400,,,
sequence,flow.Sequence,4_21,2023-09-16T22:20:57.123Z,,0,,,3412.673999999999,completion,,,,,false,,,,155110.40000000596,155110,151686.558,151664.20000000298,151697.326,155113.976,8,400,,,
trial,html.Screen,4_22_0,2023-09-16T22:21:00.793Z,,0,1,,3666.724000002985,response,ISIC_0067008.JPG,8,ISIC_0031401.JPG,ISIC_0031401.JPG,false,0,keypress(z),500,158781,158780.70000000298,155097.281,155110.5,155113.976,158797.262,8,400,23,,ISIC_0067008.JPG
break,html.Screen,4_22_1,2023-09-16T22:21:00.794Z,,0,,,NaN,,,,,,false,,,,158781.80000000447,158781.5,,158781.20000000298,,158797.262,8,400,,,
break_continue,html.Screen,4_22_2,2023-09-16T22:21:00.794Z,,0,,,NaN,,,,,,false,,,,158782.20000000298,158782.1000000015,,158781.90000000596,,158797.262,8,400,,,
sequence,flow.Sequence,4_22,2023-09-16T22:21:00.795Z,,0,,,3668.124000001495,completion,,,,,false,,,,158782.40000000596,158782.1000000015,155097.281,155110.5,155113.976,158797.262,8,400,,,
trial,html.Screen,4_23_0,2023-09-16T22:21:03.888Z,,0,1,,3078.338000001502,response,ISIC_0032001.JPG,13,ISIC_5353986.JPG,ISIC_5353986.JPG,false,0,keypress(z),500,161875.80000000447,161875.6000000015,158780.553,158782.6000000015,158797.262,161880.541,8,400,24,,ISIC_0032001.JPG
break,html.Screen,4_23_1,2023-09-16T22:21:03.889Z,,0,,,NaN,,,,,,false,,,,161876.6000000015,161876.40000000596,,161876.1000000015,,161880.541,8,400,,,
break_continue,html.Screen,4_23_2,2023-09-16T22:21:03.889Z,,0,,,NaN,,,,,,false,,,,161877,161876.90000000596,,161876.70000000298,,161880.541,8,400,,,
sequence,flow.Sequence,4_23,2023-09-16T22:21:03.889Z,,0,,,3079.6380000059726,completion,,,,,false,,,,161877.20000000298,161876.90000000596,158780.553,158782.5,158797.262,161880.541,8,400,,,
trial,html.Screen,4_24_0,2023-09-16T22:21:07.497Z,,0,1,,3603.9590000000026,response,ISIC_0031883.JPG,11,ISIC_4945233.JPG,ISIC_0031883.JPG,false,1,keypress(m),500,165484.80000000447,165484.5,161863.88,161877.30000000447,161880.541,165497.129,8,400,25,,ISIC_4945233.JPG
break,html.Screen,4_24_1,2023-09-16T22:21:07.498Z,,0,,,NaN,,,,,,false,,,,165485.6000000015,165485.40000000596,,165484.90000000596,,165497.129,8,400,,,
break_continue,html.Screen,4_24_2,2023-09-16T22:21:07.498Z,,0,,,NaN,,,,,,false,,,,165486,165485.80000000447,,165485.80000000447,,165497.129,8,400,,,
sequence,flow.Sequence,4_24,2023-09-16T22:21:07.498Z,,0,,,3605.259000004473,completion,,,,,false,,,,165486.1000000015,165485.80000000447,161863.88,161877.20000000298,161880.541,165497.129,8,400,,,
trial,html.Screen,4_25_0,2023-09-16T22:21:12.785Z,,0,1,,5275.671000004484,response,ISIC_5261146.JPG,13,ISIC_8319768.JPG,ISIC_5261146.JPG,false,1,keypress(m),500,170773.20000000298,170772.80000000447,165480.435,165486.20000000298,165497.129,170780.511,8,400,26,,ISIC_8319768.JPG
break,html.Screen,4_25_1,2023-09-16T22:21:12.786Z,,0,,,NaN,,,,,,false,,,,170773.90000000596,170773.70000000298,,170773.30000000447,,170780.511,8,400,,,
break_continue,html.Screen,4_25_2,2023-09-16T22:21:12.787Z,,0,,,NaN,,,,,,false,,,,170775.1000000015,170774.1000000015,,170774.1000000015,,170780.511,8,400,,,
sequence,flow.Sequence,4_25,2023-09-16T22:21:12.787Z,,0,,,5276.971000001504,completion,,,,,false,,,,170775.20000000298,170774.1000000015,165480.435,165486.20000000298,165497.129,170780.511,8,400,,,
trial,html.Screen,4_26_0,2023-09-16T22:21:18.760Z,,0,1,,5967.489000000001,response,ISIC_1042960.JPG,5,ISIC_0008768.JPG,ISIC_0008768.JPG,false,0,keypress(z),500,176748.30000000447,176748,170763.818,170775.30000000447,170780.511,176763.711,8,400,27,,ISIC_1042960.JPG
break,html.Screen,4_26_1,2023-09-16T22:21:18.761Z,,0,,,NaN,,,,,,false,,,,176749.20000000298,176748.80000000447,,176748.5,,176763.711,8,400,,,
break_continue,html.Screen,4_26_2,2023-09-16T22:21:18.762Z,,0,,,NaN,,,,,,false,,,,176749.5,176749.40000000596,,176749.30000000447,,176763.711,8,400,,,
sequence,flow.Sequence,4_26,2023-09-16T22:21:18.762Z,,0,,,5968.889000005962,completion,,,,,false,,,,176749.5,176749.40000000596,170763.818,170775.30000000447,170780.511,176763.711,8,400,,,
trial,html.Screen,4_27_0,2023-09-16T22:21:22.404Z,,0,1,,3627.38900000148,response,ISIC_5736292.JPG,6,ISIC_8158081.JPG,ISIC_5736292.JPG,false,1,keypress(m),500,180391.40000000596,180391.1000000015,176747.352,176749.6000000015,176763.711,180397.076,8,400,28,,ISIC_8158081.JPG
break,html.Screen,4_27_1,2023-09-16T22:21:22.404Z,,0,,,NaN,,,,,,false,,,,180392.1000000015,180391.90000000596,,180391.6000000015,,180397.076,8,400,,,
break_continue,html.Screen,4_27_2,2023-09-16T22:21:22.405Z,,0,,,NaN,,,,,,false,,,,180392.5,180392.30000000447,,180392.20000000298,,180397.076,8,400,,,
sequence,flow.Sequence,4_27,2023-09-16T22:21:22.405Z,,0,,,3628.58900000446,completion,,,,,false,,,,180392.6000000015,180392.30000000447,176747.352,176749.6000000015,176763.711,180397.076,8,400,,,
trial,html.Screen,4_28_0,2023-09-16T22:21:26.394Z,,0,1,,3984.1240000029793,response,ISIC_2200924.JPG,14,ISIC_4141315.JPG,ISIC_4141315.JPG,false,0,keypress(z),500,184381.40000000596,184381.20000000298,180380.347,180392.70000000298,180397.076,184397.366,8,400,29,,ISIC_2200924.JPG
break,html.Screen,4_28_1,2023-09-16T22:21:26.394Z,,0,,,NaN,,,,,,false,,,,184382.20000000298,184381.90000000596,,184381.6000000015,,184397.366,8,400,,,
break_continue,html.Screen,4_28_2,2023-09-16T22:21:26.395Z,,0,,,NaN,,,,,,false,,,,184382.5,184382.40000000596,,184382.40000000596,,184397.366,8,400,,,
sequence,flow.Sequence,4_28,2023-09-16T22:21:26.395Z,,0,,,3985.3240000059595,completion,,,,,false,,,,184382.6000000015,184382.40000000596,180380.347,180392.6000000015,180397.076,184397.366,8,400,,,
trial,html.Screen,4_29_0,2023-09-16T22:21:29.885Z,,0,1,,3474.834000002971,response,ISIC_5218773.JPG,8,ISIC_0031214.JPG,ISIC_0031214.JPG,false,0,keypress(z),500,187872.5,187872.20000000298,184380.287,184382.70000000298,184397.366,187880.387,8,400,30,,ISIC_5218773.JPG
break,html.Screen,4_29_1,2023-09-16T22:21:29.885Z,,0,,,NaN,,,,,,false,,,,187873.1000000015,187872.90000000596,,187872.6000000015,,187880.387,8,400,,,
break_continue,html.Screen,4_29_2,2023-09-16T22:21:29.886Z,,0,,,NaN,,,,,,false,,,,187873.5,187873.30000000447,,187873.30000000447,,187880.387,8,400,,,
sequence,flow.Sequence,4_29,2023-09-16T22:21:29.886Z,,0,,,3475.9340000044613,completion,,,,,false,,,,187873.6000000015,187873.30000000447,184380.287,184382.6000000015,184397.366,187880.387,8,400,,,
trial,html.Screen,4_30_0,2023-09-16T22:21:32.721Z,,0,1,,2827.9130000044825,response,ISIC_4591316.JPG,12,ISIC_0065597.JPG,ISIC_0065597.JPG,false,0,keypress(z),500,190708.6000000015,190708.30000000447,187863.684,187873.6000000015,187880.387,190713.604,8,400,31,,ISIC_4591316.JPG
break,html.Screen,4_30_1,2023-09-16T22:21:32.722Z,,0,,,NaN,,,,,,false,,,,190710.20000000298,190709.90000000596,,190709.6000000015,,190713.604,8,400,,,
break_continue,html.Screen,4_30_2,2023-09-16T22:21:32.723Z,,0,,,NaN,,,,,,false,,,,190710.40000000596,190710.40000000596,,190710.20000000298,,190713.604,8,400,,,
sequence,flow.Sequence,4_30,2023-09-16T22:21:32.723Z,,0,,,2830.0130000059726,completion,,,,,false,,,,190710.6000000015,190710.40000000596,187863.684,187873.6000000015,187880.387,190713.604,8,400,,,
trial,html.Screen,4_31_0,2023-09-16T22:21:37.081Z,,0,1,,4355.196000004478,response,ISIC_8798059.JPG,11,ISIC_0064033.JPG,ISIC_8798059.JPG,false,1,keypress(m),500,195069.20000000298,195068.80000000447,190697.284,190710.70000000298,190713.604,195080.185,8,400,32,,ISIC_0064033.JPG
break,html.Screen,4_31_1,2023-09-16T22:21:37.082Z,,0,,,NaN,,,,,,false,,,,195070,195069.80000000447,,195069.40000000596,,195080.185,8,400,,,
break_continue,html.Screen,4_31_2,2023-09-16T22:21:37.082Z,,0,,,NaN,,,,,,false,,,,195070.30000000447,195070.30000000447,,195070.20000000298,,195080.185,8,400,,,
sequence,flow.Sequence,4_31,2023-09-16T22:21:37.083Z,,0,,,4356.696000004478,completion,,,,,false,,,,195070.5,195070.30000000447,190697.284,190710.70000000298,190713.604,195080.185,8,400,,,
trial,html.Screen,4_32_0,2023-09-16T22:21:40.177Z,,0,1,,3084.215000005963,response,ISIC_9829805.JPG,10,ISIC_6854940.JPG,ISIC_9829805.JPG,false,1,keypress(m),500,198164.80000000447,198164.40000000596,195063.504,195070.5,195080.185,198180.388,8,400,33,,ISIC_6854940.JPG
break,html.Screen,4_32_1,2023-09-16T22:21:40.178Z,,0,,,NaN,,,,,,false,,,,198165.6000000015,198165.30000000447,,198165,,198180.388,8,400,,,
break_continue,html.Screen,4_32_2,2023-09-16T22:21:40.178Z,,0,,,NaN,,,,,,false,,,,198165.90000000596,198165.80000000447,,198165.70000000298,,198180.388,8,400,,,
sequence,flow.Sequence,4_32,2023-09-16T22:21:40.178Z,,0,,,3085.6150000044727,completion,,,,,false,,,,198166,198165.80000000447,195063.504,195070.5,195080.185,198180.388,8,400,,,
trial,html.Screen,4_33_0,2023-09-16T22:21:43.526Z,,0,1,,3332.912000004464,response,ISIC_3298596.JPG,10,ISIC_8082988.JPG,ISIC_3298596.JPG,false,1,keypress(m),500,201513.80000000447,201513.30000000447,198163.57,198166,198180.388,201530.335,8,400,34,,ISIC_8082988.JPG
break,html.Screen,4_33_1,2023-09-16T22:21:43.527Z,,0,,,NaN,,,,,,false,,,,201514.6000000015,201514.40000000596,,201513.90000000596,,201530.335,8,400,,,
break_continue,html.Screen,4_33_2,2023-09-16T22:21:43.527Z,,0,,,NaN,,,,,,false,,,,201514.90000000596,201514.80000000447,,201514.6000000015,,201530.335,8,400,,,
sequence,flow.Sequence,4_33,2023-09-16T22:21:43.527Z,,0,,,3334.412000004464,completion,,,,,false,,,,201515,201514.80000000447,198163.57,198166,198180.388,201530.335,8,400,,,
trial,html.Screen,4_34_0,2023-09-16T22:21:47.053Z,,0,1,,3510.5650000059686,response,ISIC_0013845.JPG,6,ISIC_2161819.JPG,ISIC_2161819.JPG,false,0,keypress(z),500,205041.30000000447,205040.90000000596,201513.436,201515.1000000015,201530.335,205063.449,8,400,35,,ISIC_0013845.JPG
break,html.Screen,4_34_1,2023-09-16T22:21:47.054Z,,0,,,NaN,,,,,,false,,,,205042,205041.80000000447,,205041.6000000015,,205063.449,8,400,,,
break_continue,html.Screen,4_34_2,2023-09-16T22:21:47.054Z,,0,,,NaN,,,,,,false,,,,205042.20000000298,205042.1000000015,,205042,,205063.449,8,400,,,
sequence,flow.Sequence,4_34,2023-09-16T22:21:47.054Z,,0,,,3511.7650000014983,completion,,,,,false,,,,205042.30000000447,205042.1000000015,201513.436,201515.1000000015,201530.335,205063.449,8,400,,,
trial,html.Screen,4_35_0,2023-09-16T22:21:50.743Z,,0,1,,3667.5510000000068,response,ISIC_0032516.JPG,4,ISIC_1525284.JPG,ISIC_0032516.JPG,false,1,keypress(m),500,208731.30000000447,208731,205046.821,205042.40000000596,205063.449,208747.034,8,400,36,,ISIC_1525284.JPG
break,html.Screen,4_35_1,2023-09-16T22:21:50.744Z,,0,,,NaN,,,,,,false,,,,208732,208731.70000000298,,208731.5,,208747.034,8,400,,,
break_continue,html.Screen,4_35_2,2023-09-16T22:21:50.745Z,,0,,,NaN,,,,,,false,,,,208732.30000000447,208732.30000000447,,208732.1000000015,,208747.034,8,400,,,
sequence,flow.Sequence,4_35,2023-09-16T22:21:50.745Z,,0,,,3668.851000004477,completion,,,,,false,,,,208732.40000000596,208732.30000000447,205046.821,205042.40000000596,205063.449,208747.034,8,400,,,
trial,html.Screen,4_36_0,2023-09-16T22:21:55.059Z,,0,1,,4299.366000005946,response,ISIC_0015206.JPG,6,ISIC_8650269.JPG,ISIC_8650269.JPG,false,0,keypress(z),500,213046.90000000596,213046.40000000596,208730.188,208732.5,208747.034,213063.638,8,400,37,,ISIC_0015206.JPG
break,html.Screen,4_36_1,2023-09-16T22:21:55.060Z,,0,,,NaN,,,,,,false,,,,213047.90000000596,213047.70000000298,,213047.20000000298,,213063.638,8,400,,,
break_continue,html.Screen,4_36_2,2023-09-16T22:21:55.060Z,,0,,,NaN,,,,,,false,,,,213048.1000000015,213048.1000000015,,213048,,213063.638,8,400,,,
sequence,flow.Sequence,4_36,2023-09-16T22:21:55.060Z,,0,,,4301.066000001476,completion,,,,,false,,,,213048.30000000447,213048.1000000015,208730.188,208732.5,208747.034,213063.638,8,400,,,
trial,html.Screen,4_37_0,2023-09-16T22:21:58.567Z,,0,1,,3491.562000002974,response,ISIC_3655327.JPG,5,ISIC_0010067.JPG,ISIC_0010067.JPG,false,0,keypress(z),500,216555.5,216555.20000000298,213046.721,213048.30000000447,213063.638,216563.344,8,400,38,,ISIC_3655327.JPG
break,html.Screen,4_37_1,2023-09-16T22:21:58.568Z,,0,,,NaN,,,,,,false,,,,216556.30000000447,216556.20000000298,,216555.70000000298,,216563.344,8,400,,,
break_continue,html.Screen,4_37_2,2023-09-16T22:21:58.568Z,,0,,,NaN,,,,,,false,,,,216556.6000000015,216556.5,,216556.40000000596,,216563.344,8,400,,,
sequence,flow.Sequence,4_37,2023-09-16T22:21:58.569Z,,0,,,3492.8619999999937,completion,,,,,false,,,,216556.70000000298,216556.5,213046.721,213048.30000000447,213063.638,216563.344,8,400,,,
trial,html.Screen,4_38_0,2023-09-16T22:22:02.092Z,,0,1,,3516.2560000014782,response,ISIC_2131962.JPG,13,ISIC_8901133.JPG,ISIC_8901133.JPG,false,0,keypress(z),500,220080.20000000298,220079.6000000015,216546.595,216556.80000000447,216563.344,220096.63,8,400,39,,ISIC_2131962.JPG
break,html.Screen,4_38_1,2023-09-16T22:22:02.093Z,,0,,,NaN,,,,,,false,,,,220081.1000000015,220080.80000000447,,220080.40000000596,,220096.63,8,400,,,
break_continue,html.Screen,4_38_2,2023-09-16T22:22:02.093Z,,0,,,NaN,,,,,,false,,,,220081.40000000596,220081.30000000447,,220081.20000000298,,220096.63,8,400,,,
sequence,flow.Sequence,4_38,2023-09-16T22:22:02.093Z,,0,,,3517.9560000044585,completion,,,,,false,,,,220081.6000000015,220081.30000000447,216546.595,216556.70000000298,216563.344,220096.63,8,400,,,
trial,html.Screen,4_39_0,2023-09-16T22:22:06.976Z,,0,1,,4867.270000005956,response,ISIC_0015110.JPG,5,ISIC_0011422.JPG,ISIC_0011422.JPG,false,0,keypress(z),500,224964.20000000298,224963.90000000596,220079.869,220081.6000000015,220096.63,224980.278,8,400,40,,ISIC_0015110.JPG
break,html.Screen,4_39_1,2023-09-16T22:22:06.977Z,,0,,,NaN,,,,,,false,,,,224965,224964.80000000447,,224964.40000000596,,224980.278,8,400,,,
break_continue,html.Screen,4_39_2,2023-09-16T22:22:06.977Z,,0,,,NaN,,,,,,false,,,,224965.30000000447,224965.20000000298,,224965.1000000015,,224980.278,8,400,,,
sequence,flow.Sequence,4_39,2023-09-16T22:22:06.977Z,,0,,,4868.570000002976,completion,,,,,false,,,,224965.40000000596,224965.20000000298,220079.869,220081.6000000015,220096.63,224980.278,8,400,,,
trial,html.Screen,4_40_0,2023-09-16T22:22:10.165Z,,0,1,,3172.422000002989,response,ISIC_0032192.JPG,7,ISIC_0015251.JPG,ISIC_0032192.JPG,false,1,keypress(m),500,228153,228152.70000000298,224963.596,224965.5,224980.278,228163.171,8,400,41,,ISIC_0015251.JPG
break,html.Screen,4_40_1,2023-09-16T22:22:10.166Z,,0,,,NaN,,,,,,false,,,,228153.80000000447,228153.6000000015,,228153.20000000298,,228163.171,8,400,,,
break_continue,html.Screen,4_40_2,2023-09-16T22:22:10.166Z,,0,,,NaN,,,,,,false,,,,228154.20000000298,228154.1000000015,,228153.90000000596,,228163.171,8,400,,,
sequence,flow.Sequence,4_40,2023-09-16T22:22:10.166Z,,0,,,3173.822000001499,completion,,,,,false,,,,228154.40000000596,228154.1000000015,224963.596,224965.5,224980.278,228163.171,8,400,,,
trial,html.Screen,4_41_0,2023-09-16T22:22:15.051Z,,0,1,,4875.328999999998,response,ISIC_1962844.JPG,6,ISIC_7062293.JPG,ISIC_7062293.JPG,false,0,keypress(z),500,233038.80000000447,233038.5,228146.392,228154.6000000015,228163.171,233046.503,8,400,42,,ISIC_1962844.JPG
break,html.Screen,4_41_1,2023-09-16T22:22:15.051Z,,0,,,NaN,,,,,,false,,,,233039.6000000015,233039.30000000447,,233038.90000000596,,233046.503,8,400,,,
break_continue,html.Screen,4_41_2,2023-09-16T22:22:15.052Z,,0,,,NaN,,,,,,false,,,,233040,233039.80000000447,,233039.70000000298,,233046.503,8,400,,,
sequence,flow.Sequence,4_41,2023-09-16T22:22:15.052Z,,0,,,4876.629000004468,completion,,,,,false,,,,233040.20000000298,233039.80000000447,228146.392,228154.6000000015,228163.171,233046.503,8,400,,,
trial,html.Screen,4_42_0,2023-09-16T22:22:20.066Z,,0,1,,5007.3970000059635,response,ISIC_5951430.JPG,6,ISIC_6124481.JPG,ISIC_5951430.JPG,false,1,keypress(m),500,238054.1000000015,238053.90000000596,233029.831,233040.40000000596,233046.503,238079.696,8,400,43,,ISIC_6124481.JPG
break,html.Screen,4_42_1,2023-09-16T22:22:20.067Z,,0,,,NaN,,,,,,false,,,,238054.80000000447,238054.70000000298,,238054.30000000447,,238079.696,8,400,,,
break_continue,html.Screen,4_42_2,2023-09-16T22:22:20.067Z,,0,,,NaN,,,,,,false,,,,238055,238054.90000000596,,238054.90000000596,,238079.696,8,400,,,
sequence,flow.Sequence,4_42,2023-09-16T22:22:20.067Z,,0,,,5008.3970000059635,completion,,,,,false,,,,238055.1000000015,238054.90000000596,233029.831,233040.30000000447,233046.503,238079.696,8,400,,,
trial,html.Screen,4_43_0,2023-09-16T22:22:23.224Z,,0,1,,3132.604000004474,response,ISIC_0025531.JPG,9,ISIC_9100283.JPG,ISIC_0025531.JPG,false,1,keypress(m),500,241212.6000000015,241212.30000000447,238063.042,238055.20000000298,238079.696,241229.636,8,400,44,,ISIC_9100283.JPG
break,html.Screen,4_43_1,2023-09-16T22:22:23.225Z,,0,,,NaN,,,,,,false,,,,241213.30000000447,241213.1000000015,,241212.70000000298,,241229.636,8,400,,,
break_continue,html.Screen,4_43_2,2023-09-16T22:22:23.225Z,,0,,,NaN,,,,,,false,,,,241213.6000000015,241213.6000000015,,241213.40000000596,,241229.636,8,400,,,
sequence,flow.Sequence,4_43,2023-09-16T22:22:23.226Z,,0,,,3133.904000001494,completion,,,,,false,,,,241213.70000000298,241213.6000000015,238063.042,238055.20000000298,238079.696,241229.636,8,400,,,
trial,html.Screen,4_44_0,2023-09-16T22:22:26.066Z,,0,1,,2824.0640000029816,response,ISIC_0009666.JPG,7,ISIC_0068627.JPG,ISIC_0009666.JPG,false,1,keypress(m),500,244053.80000000447,244053.70000000298,241212.964,241213.80000000447,241229.636,244062.966,8,400,45,,ISIC_0068627.JPG
break,html.Screen,4_44_1,2023-09-16T22:22:26.066Z,,0,,,NaN,,,,,,false,,,,244054.30000000447,244054.20000000298,,244054,,244062.966,8,400,,,
break_continue,html.Screen,4_44_2,2023-09-16T22:22:26.067Z,,0,,,NaN,,,,,,false,,,,244054.70000000298,244054.6000000015,,244054.5,,244062.966,8,400,,,
sequence,flow.Sequence,4_44,2023-09-16T22:22:26.067Z,,0,,,2824.9640000014915,completion,,,,,false,,,,244054.80000000447,244054.6000000015,241212.964,241213.80000000447,241229.636,244062.966,8,400,,,
trial,html.Screen,4_45_0,2023-09-16T22:22:28.651Z,,0,1,,2575.534000000014,response,ISIC_3792196.JPG,7,ISIC_0028069.JPG,ISIC_3792196.JPG,false,1,keypress(m),500,246638.80000000447,246638.5,244046.267,244054.90000000596,244062.966,246646.273,8,400,46,,ISIC_0028069.JPG
break,html.Screen,4_45_1,2023-09-16T22:22:28.651Z,,0,,,NaN,,,,,,false,,,,246639.6000000015,246639.30000000447,,246639,,246646.273,8,400,,,
break_continue,html.Screen,4_45_2,2023-09-16T22:22:28.652Z,,0,,,NaN,,,,,,false,,,,246639.90000000596,246639.80000000447,,246639.70000000298,,246646.273,8,400,,,
sequence,flow.Sequence,4_45,2023-09-16T22:22:28.652Z,,0,,,2576.8340000044846,completion,,,,,false,,,,246640,246639.80000000447,244046.267,244054.80000000447,244062.966,246646.273,8,400,,,
trial,html.Screen,4_46_0,2023-09-16T22:22:32.817Z,,0,1,,4158.827000001504,response,ISIC_0027072.JPG,12,ISIC_0015411.JPG,ISIC_0027072.JPG,false,1,keypress(m),500,250805.40000000596,250805.1000000015,246629.567,246640.20000000298,246646.273,250812.946,8,400,47,,ISIC_0015411.JPG
break,html.Screen,4_46_1,2023-09-16T22:22:32.818Z,,0,,,NaN,,,,,,false,,,,250806.1000000015,250806,,250805.6000000015,,250812.946,8,400,,,
break_continue,html.Screen,4_46_2,2023-09-16T22:22:32.818Z,,0,,,NaN,,,,,,false,,,,250806.40000000596,250806.40000000596,,250806.30000000447,,250812.946,8,400,,,
sequence,flow.Sequence,4_46,2023-09-16T22:22:32.818Z,,0,,,4160.127000005974,completion,,,,,false,,,,250806.6000000015,250806.40000000596,246629.567,246640.20000000298,246646.273,250812.946,8,400,,,
trial,html.Screen,4_47_0,2023-09-16T22:22:36.824Z,,0,1,,3998.954000005964,response,ISIC_0005319.JPG,6,ISIC_0006331.JPG,ISIC_0005319.JPG,false,1,keypress(m),500,254812.20000000298,254811.90000000596,250796.678,250806.6000000015,250812.946,254846.173,8,400,48,,ISIC_0006331.JPG
break,html.Screen,4_47_1,2023-09-16T22:22:36.825Z,,0,,,NaN,,,,,,false,,,,254813.1000000015,254812.6000000015,,254812.30000000447,,254846.173,8,400,,,
break_continue,html.Screen,4_47_2,2023-09-16T22:22:36.825Z,,0,,,NaN,,,,,,false,,,,254813.40000000596,254813.30000000447,,254813.20000000298,,254846.173,8,400,,,
sequence,flow.Sequence,4_47,2023-09-16T22:22:36.825Z,,0,,,4000.354000004474,completion,,,,,false,,,,254813.70000000298,254813.30000000447,250796.678,250806.6000000015,250812.946,254846.173,8,400,,,
trial,html.Screen,4_48_0,2023-09-16T22:22:40.321Z,,0,1,,3462.32699999999,response,ISIC_5530598.JPG,5,ISIC_1440063.JPG,ISIC_1440063.JPG,false,0,keypress(z),500,258308.80000000447,258308.5,254837.43,254813.80000000447,254846.173,258312.808,8,400,49,,ISIC_5530598.JPG
break,html.Screen,4_48_1,2023-09-16T22:22:40.321Z,,0,,,NaN,,,,,,false,,,,258309.6000000015,258309.5,,258309,,258312.808,8,400,,,
break_continue,html.Screen,4_48_2,2023-09-16T22:22:40.322Z,,0,,,NaN,,,,,,false,,,,258310,258309.90000000596,,258309.70000000298,,258312.808,8,400,,,
sequence,flow.Sequence,4_48,2023-09-16T22:22:40.322Z,,0,,,3463.7270000059507,completion,,,,,false,,,,258310.1000000015,258309.90000000596,254837.43,254813.70000000298,254846.173,258312.808,8,400,,,
trial,html.Screen,4_49_0,2023-09-16T22:22:43.507Z,,0,1,,3182.4920000044804,response,ISIC_0059357.JPG,5,ISIC_0071647.JPG,ISIC_0071647.JPG,false,0,keypress(z),500,261495.5,261495.30000000447,258296.074,258310.20000000298,258312.808,261512.715,8,400,50,,ISIC_0059357.JPG
break,html.Screen,4_49_1,2023-09-16T22:22:53.510Z,,0,,,9999.93399999998,timeout,,,,,false,,,,271497.700000003,271496.412,261496.035,261495.70000000298,261512.715,271512.649,8,400,,,
break_continue,html.Screen,4_49_2,2023-09-16T22:22:59.517Z,,0,,,5980.851000000024,response,,,,,false,continue,keypress(Space),,277505.6000000015,277493.5,271496.412,271497.80000000447,271512.649,277512.568,8,400,,,
sequence,flow.Sequence,4_49,2023-09-16T22:22:59.518Z,,0,,,19180.69200000001,completion,,,,,false,,,,277505.80000000447,277493.5,258296.074,258310.20000000298,258312.808,277512.568,8,400,,,
trial,html.Screen,4_50_0,2023-09-16T22:23:04.550Z,,0,2,,5025.632000002952,response,ISIC_0016050.JPG,7,ISIC_0033239.JPG,ISIC_0016050.JPG,false,1,keypress(m),500,282538.40000000596,282538.200000003,277495.712,277506,277512.568,282545.917,8,400,1,,ISIC_0033239.JPG
break,html.Screen,4_50_1,2023-09-16T22:23:04.551Z,,0,,,NaN,,,,,,false,,,,282539.200000003,282538.90000000596,,282538.6000000015,,282545.917,8,400,,,
break_continue,html.Screen,4_50_2,2023-09-16T22:23:04.551Z,,0,,,NaN,,,,,,false,,,,282539.40000000596,282539.30000000447,,282539.200000003,,282545.917,8,400,,,
sequence,flow.Sequence,4_50,2023-09-16T22:23:04.551Z,,0,,,5026.732000004442,completion,,,,,false,,,,282539.6000000015,282539.30000000447,277495.712,277505.90000000596,277512.568,282545.917,8,400,,,
trial,html.Screen,4_51_0,2023-09-16T22:23:07.417Z,,0,2,,2859.082999999984,response,ISIC_9385996.JPG,10,ISIC_2631789.JPG,ISIC_2631789.JPG,false,0,keypress(z),500,285405.30000000447,285405,282529.164,282539.700000003,282545.917,285412.477,8,400,2,,ISIC_9385996.JPG
break,html.Screen,4_51_1,2023-09-16T22:23:07.418Z,,0,,,NaN,,,,,,false,,,,285405.90000000596,285405.80000000447,,285405.40000000596,,285412.477,8,400,,,
break_continue,html.Screen,4_51_2,2023-09-16T22:23:07.418Z,,0,,,NaN,,,,,,false,,,,285406.40000000596,285406.200000003,,285406.200000003,,285412.477,8,400,,,
sequence,flow.Sequence,4_51,2023-09-16T22:23:07.418Z,,0,,,2860.2830000029644,completion,,,,,false,,,,285406.40000000596,285406.200000003,282529.164,282539.6000000015,282545.917,285412.477,8,400,,,
trial,html.Screen,4_52_0,2023-09-16T22:23:10.975Z,,0,2,,3550.323000004457,response,ISIC_0033819.JPG,8,ISIC_0277705.JPG,ISIC_0277705.JPG,false,0,keypress(z),500,288963.1000000015,288962.80000000447,285395.747,285406.6000000015,285412.477,288979.649,8,400,3,,ISIC_0033819.JPG
break,html.Screen,4_52_1,2023-09-16T22:23:10.976Z,,0,,,NaN,,,,,,false,,,,288963.80000000447,288963.6000000015,,288963.200000003,,288979.649,8,400,,,
break_continue,html.Screen,4_52_2,2023-09-16T22:23:10.976Z,,0,,,NaN,,,,,,false,,,,288964.30000000447,288964.1000000015,,288964,,288979.649,8,400,,,
sequence,flow.Sequence,4_52,2023-09-16T22:23:10.976Z,,0,,,3551.6230000014766,completion,,,,,false,,,,288964.40000000596,288964.1000000015,285395.747,285406.5,285412.477,288979.649,8,400,,,
trial,html.Screen,4_53_0,2023-09-16T22:23:15.283Z,,0,2,,4291.251000005985,response,ISIC_0061531.JPG,13,ISIC_0072893.JPG,ISIC_0061531.JPG,false,1,keypress(m),500,293271.30000000447,293270.90000000596,288962.858,288964.5,288979.649,293279.16,8,400,4,,ISIC_0072893.JPG
break,html.Screen,4_53_1,2023-09-16T22:23:15.284Z,,0,,,NaN,,,,,,false,,,,293272.200000003,293271.90000000596,,293271.5,,293279.16,8,400,,,
break_continue,html.Screen,4_53_2,2023-09-16T22:23:15.284Z,,0,,,NaN,,,,,,false,,,,293272.6000000015,293272.5,,293272.40000000596,,293279.16,8,400,,,
sequence,flow.Sequence,4_53,2023-09-16T22:23:15.285Z,,0,,,4292.851000000024,completion,,,,,false,,,,293272.80000000447,293272.5,288962.858,288964.5,288979.649,293279.16,8,400,,,
trial,html.Screen,4_54_0,2023-09-16T22:23:18.423Z,,0,2,,3132.040000003006,response,ISIC_6917681.JPG,5,ISIC_3372750.JPG,ISIC_6917681.JPG,false,1,keypress(m),500,296411.40000000596,296411.200000003,293262.482,293273,293279.16,296437.663,8,400,5,,ISIC_3372750.JPG
break,html.Screen,4_54_1,2023-09-16T22:23:18.424Z,,0,,,NaN,,,,,,false,,,,296412.1000000015,296412,,296411.700000003,,296437.663,8,400,,,
break_continue,html.Screen,4_54_2,2023-09-16T22:23:18.424Z,,0,,,NaN,,,,,,false,,,,296412.40000000596,296412.30000000447,,296412.200000003,,296437.663,8,400,,,
sequence,flow.Sequence,4_54,2023-09-16T22:23:18.424Z,,0,,,3133.140000004496,completion,,,,,false,,,,296412.6000000015,296412.30000000447,293262.482,293272.90000000596,293279.16,296437.663,8,400,,,
trial,html.Screen,4_55_0,2023-09-16T22:23:21.742Z,,0,2,,3292.0370000029798,response,ISIC_3933658.JPG,8,ISIC_8484660.JPG,ISIC_8484660.JPG,false,0,keypress(z),500,299730,299729.700000003,296395.657,296412.700000003,296437.663,299746.034,8,400,6,,ISIC_3933658.JPG
break,html.Screen,4_55_1,2023-09-16T22:23:21.743Z,,0,,,NaN,,,,,,false,,,,299730.80000000447,299730.6000000015,,299730.200000003,,299746.034,8,400,,,
break_continue,html.Screen,4_55_2,2023-09-16T22:23:21.743Z,,0,,,NaN,,,,,,false,,,,299731.1000000015,299731,,299731,,299746.034,8,400,,,
sequence,flow.Sequence,4_55,2023-09-16T22:23:21.743Z,,0,,,3293.3369999999995,completion,,,,,false,,,,299731.200000003,299731,296395.657,296412.700000003,296437.663,299746.034,8,400,,,
trial,html.Screen,4_56_0,2023-09-16T22:23:24.500Z,,0,2,,2742.066000001505,response,ISIC_2784686.JPG,6,ISIC_0068530.JPG,ISIC_2784686.JPG,false,1,keypress(m),500,302488.30000000447,302488.1000000015,299728.951,299731.30000000447,299746.034,302496.167,8,400,7,,ISIC_0068530.JPG
break,html.Screen,4_56_1,2023-09-16T22:23:24.501Z,,0,,,NaN,,,,,,false,,,,302489,302488.80000000447,,302488.6000000015,,302496.167,8,400,,,
break_continue,html.Screen,4_56_2,2023-09-16T22:23:24.501Z,,0,,,NaN,,,,,,false,,,,302489.40000000596,302489.30000000447,,302489.1000000015,,302496.167,8,400,,,
sequence,flow.Sequence,4_56,2023-09-16T22:23:24.501Z,,0,,,2743.2660000044852,completion,,,,,false,,,,302489.40000000596,302489.30000000447,299728.951,299731.30000000447,299746.034,302496.167,8,400,,,
trial,html.Screen,4_57_0,2023-09-16T22:23:27.599Z,,0,2,,3090.9330000014743,response,ISIC_6285076.JPG,5,ISIC_1348843.JPG,ISIC_1348843.JPG,false,0,keypress(z),500,305587.30000000447,305587.1000000015,302478.95,302489.6000000015,302496.167,305595.678,8,400,8,,ISIC_6285076.JPG
break,html.Screen,4_57_1,2023-09-16T22:23:27.600Z,,0,,,NaN,,,,,,false,,,,305588.200000003,305587.90000000596,,305587.5,,305595.678,8,400,,,
break_continue,html.Screen,4_57_2,2023-09-16T22:23:27.600Z,,0,,,NaN,,,,,,false,,,,305588.5,305588.40000000596,,305588.30000000447,,305595.678,8,400,,,
sequence,flow.Sequence,4_57,2023-09-16T22:23:27.600Z,,0,,,3092.2330000059446,completion,,,,,false,,,,305588.6000000015,305588.40000000596,302478.95,302489.6000000015,302496.167,305595.678,8,400,,,
trial,html.Screen,4_58_0,2023-09-16T22:23:30.424Z,,0,2,,2815.8219999999856,response,ISIC_0033938.JPG,7,ISIC_0011641.JPG,ISIC_0011641.JPG,false,0,keypress(z),500,308411.80000000447,308411.5,305578.895,305588.700000003,305595.678,308428.865,8,400,9,,ISIC_0033938.JPG
break,html.Screen,4_58_1,2023-09-16T22:23:30.425Z,,0,,,NaN,,,,,,false,,,,308412.80000000447,308412.40000000596,,308411.90000000596,,308428.865,8,400,,,
break_continue,html.Screen,4_58_2,2023-09-16T22:23:30.425Z,,0,,,NaN,,,,,,false,,,,308413.1000000015,308412.90000000596,,308412.80000000447,,308428.865,8,400,,,
sequence,flow.Sequence,4_58,2023-09-16T22:23:30.425Z,,0,,,2817.222000005946,completion,,,,,false,,,,308413.200000003,308412.90000000596,305578.895,305588.6000000015,305595.678,308428.865,8,400,,,
trial,html.Screen,4_59_0,2023-09-16T22:23:33.650Z,,0,2,,3209.53500000597,response,ISIC_5278307.JPG,7,ISIC_0027881.JPG,ISIC_5278307.JPG,false,1,keypress(m),500,311638.700000003,311638.40000000596,308412.182,308413.30000000447,308428.865,311645.523,8,400,10,,ISIC_0027881.JPG
break,html.Screen,4_59_1,2023-09-16T22:23:33.651Z,,0,,,NaN,,,,,,false,,,,311639.40000000596,311639.200000003,,311638.90000000596,,311645.523,8,400,,,
break_continue,html.Screen,4_59_2,2023-09-16T22:23:33.652Z,,0,,,NaN,,,,,,false,,,,311639.80000000447,311639.6000000015,,311639.6000000015,,311645.523,8,400,,,
sequence,flow.Sequence,4_59,2023-09-16T22:23:33.652Z,,0,,,3210.7350000014994,completion,,,,,false,,,,311639.90000000596,311639.6000000015,308412.182,308413.200000003,308428.865,311645.523,8,400,,,
trial,html.Screen,4_60_0,2023-09-16T22:23:36.985Z,,0,2,,3327.4770000000135,response,ISIC_0014826.JPG,6,ISIC_8266094.JPG,ISIC_8266094.JPG,false,0,keypress(z),500,314973.30000000447,314973,311628.811,311640.1000000015,311645.523,314978.865,8,400,11,,ISIC_0014826.JPG
break,html.Screen,4_60_1,2023-09-16T22:23:36.986Z,,0,,,NaN,,,,,,false,,,,314974.1000000015,314973.80000000447,,314973.5,,314978.865,8,400,,,
break_continue,html.Screen,4_60_2,2023-09-16T22:23:36.986Z,,0,,,NaN,,,,,,false,,,,314974.40000000596,314974.30000000447,,314974.200000003,,314978.865,8,400,,,
sequence,flow.Sequence,4_60,2023-09-16T22:23:36.986Z,,0,,,3328.777000004484,completion,,,,,false,,,,314974.5,314974.30000000447,311628.811,311640,311645.523,314978.865,8,400,,,
trial,html.Screen,4_61_0,2023-09-16T22:23:40.417Z,,0,2,,3425.53500000597,response,ISIC_5552381.JPG,5,ISIC_9064823.JPG,ISIC_5552381.JPG,false,1,keypress(m),500,318404.80000000447,318404.40000000596,314962.579,314974.6000000015,314978.865,318430.477,8,400,12,,ISIC_9064823.JPG
break,html.Screen,4_61_1,2023-09-16T22:23:40.417Z,,0,,,NaN,,,,,,false,,,,318405.40000000596,318405.200000003,,318405,,318430.477,8,400,,,
break_continue,html.Screen,4_61_2,2023-09-16T22:23:40.417Z,,0,,,NaN,,,,,,false,,,,318405.6000000015,318405.5,,318405.5,,318430.477,8,400,,,
sequence,flow.Sequence,4_61,2023-09-16T22:23:40.418Z,,0,,,3426.6350000000093,completion,,,,,false,,,,318405.700000003,318405.5,314962.579,314974.5,314978.865,318430.477,8,400,,,
trial,html.Screen,4_62_0,2023-09-16T22:23:44.149Z,,0,2,,3706.423000005947,response,ISIC_0012406.JPG,13,ISIC_7806612.JPG,ISIC_7806612.JPG,false,0,keypress(z),500,322137.1000000015,322136.90000000596,318412.572,318405.90000000596,318430.477,322145.397,8,400,13,,ISIC_0012406.JPG
break,html.Screen,4_62_1,2023-09-16T22:23:44.150Z,,0,,,NaN,,,,,,false,,,,322137.80000000447,322137.6000000015,,322137.30000000447,,322145.397,8,400,,,
break_continue,html.Screen,4_62_2,2023-09-16T22:23:44.150Z,,0,,,NaN,,,,,,false,,,,322138.1000000015,322138,,322137.90000000596,,322145.397,8,400,,,
sequence,flow.Sequence,4_62,2023-09-16T22:23:44.150Z,,0,,,3707.5229999999865,completion,,,,,false,,,,322138.30000000447,322138,318412.572,318405.80000000447,318430.477,322145.397,8,400,,,
trial,html.Screen,4_63_0,2023-09-16T22:23:47.017Z,,0,2,,2859.203000001493,response,ISIC_2532039.JPG,8,ISIC_3289574.JPG,ISIC_3289574.JPG,false,0,keypress(z),500,325005,325004.6000000015,322128.702,322138.30000000447,322145.397,325029.073,8,400,14,,ISIC_2532039.JPG
break,html.Screen,4_63_1,2023-09-16T22:23:47.018Z,,0,,,NaN,,,,,,false,,,,325005.700000003,325005.5,,325005.200000003,,325029.073,8,400,,,
break_continue,html.Screen,4_63_2,2023-09-16T22:23:47.018Z,,0,,,NaN,,,,,,false,,,,325006,325006,,325005.80000000447,,325029.073,8,400,,,
sequence,flow.Sequence,4_63,2023-09-16T22:23:47.018Z,,0,,,2860.603000000003,completion,,,,,false,,,,325006.1000000015,325006,322128.702,322138.30000000447,322145.397,325029.073,8,400,,,
trial,html.Screen,4_64_0,2023-09-16T22:23:50.786Z,,0,2,,3744.7270000044955,response,ISIC_8013225.JPG,7,ISIC_0061972.JPG,ISIC_0061972.JPG,false,0,keypress(z),500,328774.200000003,328773.80000000447,325012.378,325006.200000003,325029.073,328778.654,8,400,15,,ISIC_8013225.JPG
break,html.Screen,4_64_1,2023-09-16T22:23:50.787Z,,0,,,NaN,,,,,,false,,,,328775,328774.700000003,,328774.40000000596,,328778.654,8,400,,,
break_continue,html.Screen,4_64_2,2023-09-16T22:23:50.787Z,,0,,,NaN,,,,,,false,,,,328775.30000000447,328775.200000003,,328775.1000000015,,328778.654,8,400,,,
sequence,flow.Sequence,4_64,2023-09-16T22:23:50.787Z,,0,,,3746.1270000030054,completion,,,,,false,,,,328775.5,328775.200000003,325012.378,325006.200000003,325029.073,328778.654,8,400,,,
trial,html.Screen,4_65_0,2023-09-16T22:23:53.693Z,,0,2,,2902.546000003,response,ISIC_0068975.JPG,9,ISIC_4042619.JPG,ISIC_4042619.JPG,false,0,keypress(z),500,331681.5,331681.200000003,328762.373,328775.5,328778.654,331695.653,8,400,16,,ISIC_0068975.JPG
break,html.Screen,4_65_1,2023-09-16T22:23:53.694Z,,0,,,NaN,,,,,,false,,,,331682.1000000015,331681.90000000596,,331681.6000000015,,331695.653,8,400,,,
break_continue,html.Screen,4_65_2,2023-09-16T22:23:53.694Z,,0,,,NaN,,,,,,false,,,,331682.5,331682.40000000596,,331682.200000003,,331695.653,8,400,,,
sequence,flow.Sequence,4_65,2023-09-16T22:23:53.694Z,,0,,,2903.74600000598,completion,,,,,false,,,,331682.6000000015,331682.40000000596,328762.373,328775.5,328778.654,331695.653,8,400,,,
trial,html.Screen,4_66_0,2023-09-16T22:23:56.417Z,,0,2,,2709.047000002989,response,ISIC_6954782.JPG,6,ISIC_4114269.JPG,ISIC_6954782.JPG,false,1,keypress(m),500,334405,334404.700000003,331678.609,331682.700000003,331695.653,334411.939,8,400,17,,ISIC_4114269.JPG
break,html.Screen,4_66_1,2023-09-16T22:23:56.418Z,,0,,,NaN,,,,,,false,,,,334405.80000000447,334405.5,,334405.200000003,,334411.939,8,400,,,
break_continue,html.Screen,4_66_2,2023-09-16T22:23:56.418Z,,0,,,NaN,,,,,,false,,,,334406.1000000015,334406.1000000015,,334405.90000000596,,334411.939,8,400,,,
sequence,flow.Sequence,4_66,2023-09-16T22:23:56.418Z,,0,,,2710.447000001499,completion,,,,,false,,,,334406.200000003,334406.1000000015,331678.609,331682.6000000015,331695.653,334411.939,8,400,,,
trial,html.Screen,4_67_0,2023-09-16T22:23:59.113Z,,0,2,,2689.3610000044573,response,ISIC_0013777.JPG,5,ISIC_6723937.JPG,ISIC_0013777.JPG,false,1,keypress(m),500,337101.5,337101.30000000447,334395.39,334406.40000000596,334411.939,337111.893,8,400,18,,ISIC_6723937.JPG
break,html.Screen,4_67_1,2023-09-16T22:23:59.114Z,,0,,,NaN,,,,,,false,,,,337102.40000000596,337102,,337101.700000003,,337111.893,8,400,,,
break_continue,html.Screen,4_67_2,2023-09-16T22:23:59.114Z,,0,,,NaN,,,,,,false,,,,337102.6000000015,337102.6000000015,,337102.5,,337111.893,8,400,,,
sequence,flow.Sequence,4_67,2023-09-16T22:23:59.115Z,,0,,,2690.661000001477,completion,,,,,false,,,,337102.90000000596,337102.6000000015,334395.39,334406.30000000447,334411.939,337111.893,8,400,,,
trial,html.Screen,4_68_0,2023-09-16T22:24:02.067Z,,0,2,,2942.607000000018,response,ISIC_1132496.JPG,10,ISIC_0951519.JPG,ISIC_1132496.JPG,false,1,keypress(m),500,340054.700000003,340054.5,337095.279,337102.90000000596,337111.893,340061.911,8,400,19,,ISIC_0951519.JPG
break,html.Screen,4_68_1,2023-09-16T22:24:02.068Z,,0,,,NaN,,,,,,false,,,,340055.5,340055.30000000447,,340055,,340061.911,8,400,,,
break_continue,html.Screen,4_68_2,2023-09-16T22:24:02.068Z,,0,,,NaN,,,,,,false,,,,340055.90000000596,340055.80000000447,,340055.700000003,,340061.911,8,400,,,
sequence,flow.Sequence,4_68,2023-09-16T22:24:02.068Z,,0,,,2943.9070000044885,completion,,,,,false,,,,340056,340055.80000000447,337095.279,337102.90000000596,337111.893,340061.911,8,400,,,
trial,html.Screen,4_69_0,2023-09-16T22:24:05.226Z,,0,2,,3151.9890000059386,response,ISIC_0027941.JPG,5,ISIC_6293107.JPG,ISIC_0027941.JPG,false,1,keypress(m),500,343214.30000000447,343213.90000000596,340045.161,340056.1000000015,340061.911,343228.838,8,400,20,,ISIC_6293107.JPG
break,html.Screen,4_69_1,2023-09-16T22:24:05.227Z,,0,,,NaN,,,,,,false,,,,343215,343214.80000000447,,343214.5,,343228.838,8,400,,,
break_continue,html.Screen,4_69_2,2023-09-16T22:24:05.227Z,,0,,,NaN,,,,,,false,,,,343215.40000000596,343215.30000000447,,343215.200000003,,343228.838,8,400,,,
sequence,flow.Sequence,4_69,2023-09-16T22:24:05.228Z,,0,,,3153.3890000044485,completion,,,,,false,,,,343215.5,343215.30000000447,340045.161,340056,340061.911,343228.838,8,400,,,
trial,html.Screen,4_70_0,2023-09-16T22:24:08.416Z,,0,2,,3175.0620000059716,response,ISIC_4692567.JPG,5,ISIC_0000002.JPG,ISIC_0000002.JPG,false,0,keypress(z),500,346404.200000003,346403.90000000596,343212.244,343215.5,343228.838,346411.781,8,400,21,,ISIC_4692567.JPG
break,html.Screen,4_70_1,2023-09-16T22:24:08.417Z,,0,,,NaN,,,,,,false,,,,346404.80000000447,346404.6000000015,,346404.30000000447,,346411.781,8,400,,,
break_continue,html.Screen,4_70_2,2023-09-16T22:24:08.417Z,,0,,,NaN,,,,,,false,,,,346405.200000003,346405.1000000015,,346405,,346411.781,8,400,,,
sequence,flow.Sequence,4_70,2023-09-16T22:24:08.417Z,,0,,,3176.2620000015013,completion,,,,,false,,,,346405.30000000447,346405.1000000015,343212.244,343215.5,343228.838,346411.781,8,400,,,
trial,html.Screen,4_71_0,2023-09-16T22:24:11.175Z,,0,2,,2750.819000001473,response,ISIC_7404937.JPG,7,ISIC_8440070.JPG,ISIC_7404937.JPG,false,1,keypress(m),500,349162.90000000596,349162.6000000015,346395.052,346405.40000000596,346411.781,349178.844,8,400,22,,ISIC_8440070.JPG
break,html.Screen,4_71_1,2023-09-16T22:24:11.176Z,,0,,,NaN,,,,,,false,,,,349163.6000000015,349163.30000000447,,349163.1000000015,,349178.844,8,400,,,
break_continue,html.Screen,4_71_2,2023-09-16T22:24:11.176Z,,0,,,NaN,,,,,,false,,,,349163.80000000447,349163.80000000447,,349163.700000003,,349178.844,8,400,,,
sequence,flow.Sequence,4_71,2023-09-16T22:24:11.176Z,,0,,,2752.019000004453,completion,,,,,false,,,,349164,349163.80000000447,346395.052,346405.40000000596,346411.781,349178.844,8,400,,,
trial,html.Screen,4_72_0,2023-09-16T22:24:14.176Z,,0,2,,2985.0560000059777,response,ISIC_0031077.JPG,7,ISIC_0030281.JPG,ISIC_0031077.JPG,false,1,keypress(m),500,352164.200000003,352163.90000000596,349161.751,349164,349178.844,352178.745,8,400,23,,ISIC_0030281.JPG
break,html.Screen,4_72_1,2023-09-16T22:24:14.177Z,,0,,,NaN,,,,,,false,,,,352164.90000000596,352164.700000003,,352164.30000000447,,352178.745,8,400,,,
break_continue,html.Screen,4_72_2,2023-09-16T22:24:14.177Z,,0,,,NaN,,,,,,false,,,,352165.1000000015,352165.1000000015,,352164.90000000596,,352178.745,8,400,,,
sequence,flow.Sequence,4_72,2023-09-16T22:24:14.177Z,,0,,,2986.2560000015073,completion,,,,,false,,,,352165.200000003,352165.1000000015,349161.751,349164,349178.844,352178.745,8,400,,,
trial,html.Screen,4_73_0,2023-09-16T22:24:17.142Z,,0,2,,2950.355000001495,response,ISIC_7323761.JPG,5,ISIC_7231192.JPG,ISIC_7231192.JPG,false,0,keypress(z),500,355129.5,355129.1000000015,352161.675,352165.30000000447,352178.745,355145.133,8,400,24,,ISIC_7323761.JPG
break,html.Screen,4_73_1,2023-09-16T22:24:17.142Z,,0,,,NaN,,,,,,false,,,,355130.30000000447,355130,,355129.700000003,,355145.133,8,400,,,
break_continue,html.Screen,4_73_2,2023-09-16T22:24:17.143Z,,0,,,NaN,,,,,,false,,,,355130.6000000015,355130.40000000596,,355130.30000000447,,355145.133,8,400,,,
sequence,flow.Sequence,4_73,2023-09-16T22:24:17.143Z,,0,,,2951.655000005965,completion,,,,,false,,,,355130.700000003,355130.40000000596,352161.675,352165.30000000447,352178.745,355145.133,8,400,,,
trial,html.Screen,4_74_0,2023-09-16T22:24:19.839Z,,0,2,,2681.4670000015176,response,ISIC_4208361.JPG,6,ISIC_0511526.JPG,ISIC_0511526.JPG,false,0,keypress(z),500,357826.90000000596,357826.6000000015,355128.375,355130.700000003,355145.133,357851.382,8,400,25,,ISIC_4208361.JPG
break,html.Screen,4_74_1,2023-09-16T22:24:19.840Z,,0,,,NaN,,,,,,false,,,,357827.5,357827.40000000596,,357827,,357851.382,8,400,,,
break_continue,html.Screen,4_74_2,2023-09-16T22:24:19.840Z,,0,,,NaN,,,,,,false,,,,357827.80000000447,357827.80000000447,,357827.700000003,,357851.382,8,400,,,
sequence,flow.Sequence,4_74,2023-09-16T22:24:19.840Z,,0,,,2682.667000004498,completion,,,,,false,,,,357828,357827.80000000447,355128.375,355130.700000003,355145.133,357851.382,8,400,,,
trial,html.Screen,4_75_0,2023-09-16T22:24:22.723Z,,0,2,,2859.318000002997,response,ISIC_3926305.JPG,10,ISIC_0066314.JPG,ISIC_3926305.JPG,false,1,keypress(m),500,360711,360710.700000003,357811.741,357828,357851.382,360744.936,8,400,26,,ISIC_0066314.JPG
break,html.Screen,4_75_1,2023-09-16T22:24:22.724Z,,0,,,NaN,,,,,,false,,,,360711.700000003,360711.5,,360711.1000000015,,360744.936,8,400,,,
break_continue,html.Screen,4_75_2,2023-09-16T22:24:22.724Z,,0,,,NaN,,,,,,false,,,,360712.200000003,360712,,360711.90000000596,,360744.936,8,400,,,
sequence,flow.Sequence,4_75,2023-09-16T22:24:22.724Z,,0,,,2860.6180000000168,completion,,,,,false,,,,360712.30000000447,360712,357811.741,357828,357851.382,360744.936,8,400,,,
trial,html.Screen,4_76_0,2023-09-16T22:24:26.587Z,,0,2,,3829.9640000059735,response,ISIC_1988058.JPG,8,ISIC_9974613.JPG,ISIC_9974613.JPG,false,0,keypress(z),500,364575.200000003,364574.90000000596,360728.339,360712.5,360744.936,364578.249,8,400,27,,ISIC_1988058.JPG
break,html.Screen,4_76_1,2023-09-16T22:24:26.588Z,,0,,,NaN,,,,,,false,,,,364576,364575.700000003,,364575.40000000596,,364578.249,8,400,,,
break_continue,html.Screen,4_76_2,2023-09-16T22:24:26.588Z,,0,,,NaN,,,,,,false,,,,364576.30000000447,364576.200000003,,364576.1000000015,,364578.249,8,400,,,
sequence,flow.Sequence,4_76,2023-09-16T22:24:26.589Z,,0,,,3831.2640000029933,completion,,,,,false,,,,364576.40000000596,364576.200000003,360728.339,360712.40000000596,360744.936,364578.249,8,400,,,
trial,html.Screen,4_77_0,2023-09-16T22:24:29.523Z,,0,2,,2932.4510000029695,response,ISIC_0000398.JPG,5,ISIC_2517072.JPG,ISIC_2517072.JPG,false,0,keypress(z),500,367510.90000000596,367510.700000003,364561.537,364576.40000000596,364578.249,367545.28,8,400,28,,ISIC_0000398.JPG
break,html.Screen,4_77_1,2023-09-16T22:24:29.524Z,,0,,,NaN,,,,,,false,,,,367511.6000000015,367511.40000000596,,367511.1000000015,,367545.28,8,400,,,
break_continue,html.Screen,4_77_2,2023-09-16T22:24:29.524Z,,0,,,NaN,,,,,,false,,,,367511.90000000596,367511.80000000447,,367511.80000000447,,367545.28,8,400,,,
sequence,flow.Sequence,4_77,2023-09-16T22:24:29.524Z,,0,,,2933.5510000044596,completion,,,,,false,,,,367512.1000000015,367511.80000000447,364561.537,364576.40000000596,364578.249,367545.28,8,400,,,
trial,html.Screen,4_78_0,2023-09-16T22:24:32.478Z,,0,2,,2920.0200000044424,response,ISIC_0070447.JPG,7,ISIC_0218575.JPG,ISIC_0218575.JPG,false,0,keypress(z),500,370465.5,370465.30000000447,367528.247,367512.200000003,367545.28,370478.704,8,400,29,,ISIC_0070447.JPG
break,html.Screen,4_78_1,2023-09-16T22:24:32.478Z,,0,,,NaN,,,,,,false,,,,370466.200000003,370466.1000000015,,370465.700000003,,370478.704,8,400,,,
break_continue,html.Screen,4_78_2,2023-09-16T22:24:32.479Z,,0,,,NaN,,,,,,false,,,,370466.700000003,370466.5,,370466.40000000596,,370478.704,8,400,,,
sequence,flow.Sequence,4_78,2023-09-16T22:24:32.479Z,,0,,,2921.219999999972,completion,,,,,false,,,,370466.80000000447,370466.5,367528.247,367512.1000000015,367545.28,370478.704,8,400,,,
trial,html.Screen,4_79_0,2023-09-16T22:24:35.330Z,,0,2,,2838.6960000059335,response,ISIC_0024307.JPG,12,ISIC_0346815.JPG,ISIC_0346815.JPG,false,0,keypress(z),500,373317.700000003,373317.40000000596,370461.906,370466.90000000596,370478.704,373328.142,8,400,30,,ISIC_0024307.JPG
break,html.Screen,4_79_1,2023-09-16T22:24:35.331Z,,0,,,NaN,,,,,,false,,,,373318.6000000015,373318.30000000447,,373317.90000000596,,373328.142,8,400,,,
break_continue,html.Screen,4_79_2,2023-09-16T22:24:35.331Z,,0,,,NaN,,,,,,false,,,,373319,373318.90000000596,,373318.80000000447,,373328.142,8,400,,,
sequence,flow.Sequence,4_79,2023-09-16T22:24:35.331Z,,0,,,2840.1960000059335,completion,,,,,false,,,,373319.30000000447,373318.90000000596,370461.906,370466.90000000596,370478.704,373328.142,8,400,,,
trial,html.Screen,4_80_0,2023-09-16T22:24:40.375Z,,0,2,,5033.858000000007,response,ISIC_9294799.JPG,7,ISIC_3505339.JPG,ISIC_9294799.JPG,false,1,keypress(m),500,378362.5,378362,373311.44,373319.40000000596,373328.142,378378.025,8,400,31,,ISIC_3505339.JPG
break,html.Screen,4_80_1,2023-09-16T22:24:40.375Z,,0,,,NaN,,,,,,false,,,,378363.200000003,378362.90000000596,,378362.6000000015,,378378.025,8,400,,,
break_continue,html.Screen,4_80_2,2023-09-16T22:24:40.376Z,,0,,,NaN,,,,,,false,,,,378363.5,378363.5,,378363.40000000596,,378378.025,8,400,,,
sequence,flow.Sequence,4_80,2023-09-16T22:24:40.376Z,,0,,,5035.358000000007,completion,,,,,false,,,,378363.700000003,378363.5,373311.44,373319.30000000447,373328.142,378378.025,8,400,,,
trial,html.Screen,4_81_0,2023-09-16T22:24:43.216Z,,0,2,,2825.075000001467,response,ISIC_0222117.JPG,6,ISIC_1161370.JPG,ISIC_1161370.JPG,false,0,keypress(z),500,381203.40000000596,381203.1000000015,378361.402,378363.700000003,378378.025,381212.03,8,400,32,,ISIC_0222117.JPG
break,html.Screen,4_81_1,2023-09-16T22:24:43.216Z,,0,,,NaN,,,,,,false,,,,381204.1000000015,381203.80000000447,,381203.6000000015,,381212.03,8,400,,,
break_continue,html.Screen,4_81_2,2023-09-16T22:24:43.217Z,,0,,,NaN,,,,,,false,,,,381204.40000000596,381204.30000000447,,381204.30000000447,,381212.03,8,400,,,
sequence,flow.Sequence,4_81,2023-09-16T22:24:43.217Z,,0,,,2826.275000004447,completion,,,,,false,,,,381204.5,381204.30000000447,378361.402,378363.700000003,378378.025,381212.03,8,400,,,
trial,html.Screen,4_82_0,2023-09-16T22:24:45.817Z,,0,2,,2592.469999999972,response,ISIC_9788545.JPG,7,ISIC_8969855.JPG,ISIC_9788545.JPG,false,1,keypress(m),500,383804.90000000596,383804.5,381194.798,381204.6000000015,381212.03,383811.346,8,400,33,,ISIC_8969855.JPG
break,html.Screen,4_82_1,2023-09-16T22:24:45.818Z,,0,,,NaN,,,,,,false,,,,383805.80000000447,383805.40000000596,,383805.1000000015,,383811.346,8,400,,,
break_continue,html.Screen,4_82_2,2023-09-16T22:24:45.818Z,,0,,,NaN,,,,,,false,,,,383806.1000000015,383805.90000000596,,383805.90000000596,,383811.346,8,400,,,
sequence,flow.Sequence,4_82,2023-09-16T22:24:45.818Z,,0,,,2593.8700000059325,completion,,,,,false,,,,383806.30000000447,383805.90000000596,381194.798,381204.6000000015,381212.03,383811.346,8,400,,,
trial,html.Screen,4_83_0,2023-09-16T22:24:48.525Z,,0,2,,2701.054000005941,response,ISIC_0024591.JPG,5,ISIC_0062649.JPG,ISIC_0062649.JPG,false,0,keypress(z),500,386512.700000003,386512.40000000596,383795.113,383806.40000000596,383811.346,386528.338,8,400,34,,ISIC_0024591.JPG
break,html.Screen,4_83_1,2023-09-16T22:24:48.526Z,,0,,,NaN,,,,,,false,,,,386513.40000000596,386513.200000003,,386512.90000000596,,386528.338,8,400,,,
break_continue,html.Screen,4_83_2,2023-09-16T22:24:48.526Z,,0,,,NaN,,,,,,false,,,,386513.6000000015,386513.6000000015,,386513.5,,386528.338,8,400,,,
sequence,flow.Sequence,4_83,2023-09-16T22:24:48.526Z,,0,,,2702.2540000014706,completion,,,,,false,,,,386513.700000003,386513.6000000015,383795.113,383806.40000000596,383811.346,386528.338,8,400,,,
trial,html.Screen,4_84_0,2023-09-16T22:24:51.762Z,,0,2,,3221.662000000011,response,ISIC_0065943.JPG,11,ISIC_5961619.JPG,ISIC_0065943.JPG,false,1,keypress(m),500,389750.200000003,389750,386511.372,386513.90000000596,386528.338,389761.673,8,400,35,,ISIC_5961619.JPG
break,html.Screen,4_84_1,2023-09-16T22:24:51.763Z,,0,,,NaN,,,,,,false,,,,389751,389750.700000003,,389750.30000000447,,389761.673,8,400,,,
break_continue,html.Screen,4_84_2,2023-09-16T22:24:51.763Z,,0,,,NaN,,,,,,false,,,,389751.30000000447,389751.1000000015,,389751,,389761.673,8,400,,,
sequence,flow.Sequence,4_84,2023-09-16T22:24:51.763Z,,0,,,3222.7620000015013,completion,,,,,false,,,,389751.40000000596,389751.1000000015,386511.372,386513.90000000596,386528.338,389761.673,8,400,,,
trial,html.Screen,4_85_0,2023-09-16T22:24:55.381Z,,0,2,,3607.32699999999,response,ISIC_3065253.JPG,12,ISIC_9684649.JPG,ISIC_3065253.JPG,false,1,keypress(m),500,393369.200000003,393369,389745.007,389751.40000000596,389761.673,393377.953,8,400,36,,ISIC_9684649.JPG
break,html.Screen,4_85_1,2023-09-16T22:24:55.382Z,,0,,,NaN,,,,,,false,,,,393370,393369.80000000447,,393369.40000000596,,393377.953,8,400,,,
break_continue,html.Screen,4_85_2,2023-09-16T22:24:55.383Z,,0,,,NaN,,,,,,false,,,,393370.30000000447,393370.200000003,,393370.1000000015,,393377.953,8,400,,,
sequence,flow.Sequence,4_85,2023-09-16T22:24:55.383Z,,0,,,3608.5270000029705,completion,,,,,false,,,,393370.5,393370.200000003,389745.007,389751.40000000596,389761.673,393377.953,8,400,,,
trial,html.Screen,4_86_0,2023-09-16T22:24:58.507Z,,0,2,,3116.347000004491,response,ISIC_0003703.JPG,10,ISIC_0064836.JPG,ISIC_0003703.JPG,false,1,keypress(m),500,396494.6000000015,396494.30000000447,393361.676,393370.6000000015,393377.953,396511.229,8,400,37,,ISIC_0064836.JPG
break,html.Screen,4_86_1,2023-09-16T22:24:58.508Z,,0,,,NaN,,,,,,false,,,,396495.40000000596,396495.200000003,,396494.80000000447,,396511.229,8,400,,,
break_continue,html.Screen,4_86_2,2023-09-16T22:24:58.508Z,,0,,,NaN,,,,,,false,,,,396495.6000000015,396495.5,,396495.5,,396511.229,8,400,,,
sequence,flow.Sequence,4_86,2023-09-16T22:24:58.508Z,,0,,,3117.5470000000205,completion,,,,,false,,,,396495.80000000447,396495.5,393361.676,393370.5,393377.953,396511.229,8,400,,,
trial,html.Screen,4_87_0,2023-09-16T22:25:01.541Z,,0,2,,3016.971000002988,response,ISIC_0953675.JPG,9,ISIC_0009927.JPG,ISIC_0009927.JPG,false,0,keypress(z),500,399528.5,399528.200000003,396494.595,396495.90000000596,396511.229,399544.656,8,400,38,,ISIC_0953675.JPG
break,html.Screen,4_87_1,2023-09-16T22:25:01.541Z,,0,,,NaN,,,,,,false,,,,399529.200000003,399529.1000000015,,399528.700000003,,399544.656,8,400,,,
break_continue,html.Screen,4_87_2,2023-09-16T22:25:01.542Z,,0,,,NaN,,,,,,false,,,,399529.700000003,399529.5,,399529.40000000596,,399544.656,8,400,,,
sequence,flow.Sequence,4_87,2023-09-16T22:25:01.542Z,,0,,,3018.271000000008,completion,,,,,false,,,,399529.80000000447,399529.5,396494.595,396495.90000000596,396511.229,399544.656,8,400,,,
trial,html.Screen,4_88_0,2023-09-16T22:25:04.302Z,,0,2,,2745.044000002963,response,ISIC_0032847.JPG,6,ISIC_0056155.JPG,ISIC_0056155.JPG,false,0,keypress(z),500,402289.90000000596,402289.700000003,399527.798,399529.90000000596,399544.656,402294.502,8,400,39,,ISIC_0032847.JPG
break,html.Screen,4_88_1,2023-09-16T22:25:04.303Z,,0,,,NaN,,,,,,false,,,,402290.700000003,402290.5,,402290.1000000015,,402294.502,8,400,,,
break_continue,html.Screen,4_88_2,2023-09-16T22:25:04.303Z,,0,,,NaN,,,,,,false,,,,402291,402290.90000000596,,402290.80000000447,,402294.502,8,400,,,
sequence,flow.Sequence,4_88,2023-09-16T22:25:04.303Z,,0,,,2746.2440000059432,completion,,,,,false,,,,402291.1000000015,402290.90000000596,399527.798,399529.90000000596,399544.656,402294.502,8,400,,,
trial,html.Screen,4_89_0,2023-09-16T22:25:07.160Z,,0,2,,2853.5980000015115,response,ISIC_0046458.JPG,12,ISIC_2151846.JPG,ISIC_2151846.JPG,false,0,keypress(z),500,405148.5,405148.1000000015,402278.396,402291.200000003,402294.502,405161.471,8,400,40,,ISIC_0046458.JPG
break,html.Screen,4_89_1,2023-09-16T22:25:07.161Z,,0,,,NaN,,,,,,false,,,,405149.200000003,405149,,405148.700000003,,405161.471,8,400,,,
break_continue,html.Screen,4_89_2,2023-09-16T22:25:07.162Z,,0,,,NaN,,,,,,false,,,,405149.5,405149.40000000596,,405149.30000000447,,405161.471,8,400,,,
sequence,flow.Sequence,4_89,2023-09-16T22:25:07.162Z,,0,,,2854.898000005982,completion,,,,,false,,,,405149.700000003,405149.40000000596,402278.396,402291.200000003,402294.502,405161.471,8,400,,,
trial,html.Screen,4_90_0,2023-09-16T22:25:10.814Z,,0,2,,3640.1290000014706,response,ISIC_0016128.JPG,13,ISIC_0006331.JPG,ISIC_0016128.JPG,false,1,keypress(m),500,408802,408801.6000000015,405144.365,405149.80000000447,405161.471,408811.048,8,400,41,,ISIC_0006331.JPG
break,html.Screen,4_90_1,2023-09-16T22:25:10.815Z,,0,,,NaN,,,,,,false,,,,408802.80000000447,408802.5,,408802.200000003,,408811.048,8,400,,,
break_continue,html.Screen,4_90_2,2023-09-16T22:25:10.815Z,,0,,,NaN,,,,,,false,,,,408803,408803,,408802.80000000447,,408811.048,8,400,,,
sequence,flow.Sequence,4_90,2023-09-16T22:25:10.815Z,,0,,,3641.5289999999804,completion,,,,,false,,,,408803.200000003,408803,405144.365,405149.80000000447,405161.471,408811.048,8,400,,,
trial,html.Screen,4_91_0,2023-09-16T22:25:16.260Z,,0,2,,5436.252000004461,response,ISIC_0032433.JPG,7,ISIC_6448312.JPG,ISIC_6448312.JPG,false,0,keypress(z),500,414247.5,414247.30000000447,408794.389,408803.30000000447,408811.048,414262.045,8,400,42,,ISIC_0032433.JPG
break,html.Screen,4_91_1,2023-09-16T22:25:16.260Z,,0,,,NaN,,,,,,false,,,,414248.40000000596,414248.200000003,,414247.80000000447,,414262.045,8,400,,,
break_continue,html.Screen,4_91_2,2023-09-16T22:25:16.261Z,,0,,,NaN,,,,,,false,,,,414248.700000003,414248.6000000015,,414248.5,,414262.045,8,400,,,
sequence,flow.Sequence,4_91,2023-09-16T22:25:16.261Z,,0,,,5437.55200000148,completion,,,,,false,,,,414248.80000000447,414248.6000000015,408794.389,408803.30000000447,408811.048,414262.045,8,400,,,
trial,html.Screen,4_92_0,2023-09-16T22:25:19.231Z,,0,2,,2956.2550000044866,response,ISIC_0010958.JPG,13,ISIC_9969907.JPG,ISIC_0010958.JPG,false,1,keypress(m),500,417218.6000000015,417218.30000000447,414244.824,414248.80000000447,414262.045,417227.598,8,400,43,,ISIC_9969907.JPG
break,html.Screen,4_92_1,2023-09-16T22:25:19.231Z,,0,,,NaN,,,,,,false,,,,417219.30000000447,417219.1000000015,,417218.80000000447,,417227.598,8,400,,,
break_continue,html.Screen,4_92_2,2023-09-16T22:25:19.232Z,,0,,,NaN,,,,,,false,,,,417219.700000003,417219.5,,417219.40000000596,,417227.598,8,400,,,
sequence,flow.Sequence,4_92,2023-09-16T22:25:19.232Z,,0,,,2957.4550000000163,completion,,,,,false,,,,417219.80000000447,417219.5,414244.824,414248.80000000447,414262.045,417227.598,8,400,,,
trial,html.Screen,4_93_0,2023-09-16T22:25:21.990Z,,0,2,,2750.402000000002,response,ISIC_0046394.JPG,8,ISIC_2371495.JPG,ISIC_0046394.JPG,false,1,keypress(m),500,419978.200000003,419978,417210.941,417219.90000000596,417227.598,419994.308,8,400,44,,ISIC_2371495.JPG
break,html.Screen,4_93_1,2023-09-16T22:25:21.991Z,,0,,,NaN,,,,,,false,,,,419979,419978.80000000447,,419978.5,,419994.308,8,400,,,
break_continue,html.Screen,4_93_2,2023-09-16T22:25:21.991Z,,0,,,NaN,,,,,,false,,,,419979.30000000447,419979.200000003,,419979.200000003,,419994.308,8,400,,,
sequence,flow.Sequence,4_93,2023-09-16T22:25:21.991Z,,0,,,2751.602000002982,completion,,,,,false,,,,419979.40000000596,419979.200000003,417210.941,417219.90000000596,417227.598,419994.308,8,400,,,
trial,html.Screen,4_94_0,2023-09-16T22:25:25.149Z,,0,2,,3142.191999999981,response,ISIC_0034217.JPG,7,ISIC_6023518.JPG,ISIC_0034217.JPG,false,1,keypress(m),500,423136.80000000447,423136.5,419978.049,419979.6000000015,419994.308,423144.196,8,400,45,,ISIC_6023518.JPG
break,html.Screen,4_94_1,2023-09-16T22:25:25.150Z,,0,,,NaN,,,,,,false,,,,423137.6000000015,423137.40000000596,,423137,,423144.196,8,400,,,
break_continue,html.Screen,4_94_2,2023-09-16T22:25:25.150Z,,0,,,NaN,,,,,,false,,,,423137.90000000596,423137.80000000447,,423137.80000000447,,423144.196,8,400,,,
sequence,flow.Sequence,4_94,2023-09-16T22:25:25.150Z,,0,,,3143.4920000044513,completion,,,,,false,,,,423138,423137.80000000447,419978.049,419979.6000000015,419994.308,423144.196,8,400,,,
trial,html.Screen,4_95_0,2023-09-16T22:25:28.181Z,,0,2,,3024.904000001494,response,ISIC_0865706.JPG,9,ISIC_6274085.JPG,ISIC_0865706.JPG,false,1,keypress(m),500,426169.40000000596,426169.1000000015,423127.95,423138.1000000015,423144.196,426177.554,8,400,46,,ISIC_6274085.JPG
break,html.Screen,4_95_1,2023-09-16T22:25:28.182Z,,0,,,NaN,,,,,,false,,,,426170.40000000596,426170.1000000015,,426169.700000003,,426177.554,8,400,,,
break_continue,html.Screen,4_95_2,2023-09-16T22:25:28.183Z,,0,,,NaN,,,,,,false,,,,426170.80000000447,426170.700000003,,426170.5,,426177.554,8,400,,,
sequence,flow.Sequence,4_95,2023-09-16T22:25:28.183Z,,0,,,3026.504000002984,completion,,,,,false,,,,426170.90000000596,426170.700000003,423127.95,423138.1000000015,423144.196,426177.554,8,400,,,
trial,html.Screen,4_96_0,2023-09-16T22:25:31.249Z,,0,2,,3058.8460000059567,response,ISIC_0011726.JPG,14,ISIC_4120174.JPG,ISIC_4120174.JPG,false,0,keypress(z),500,429236.700000003,429236.40000000596,426160.842,426171,426177.554,429244.163,8,400,47,,ISIC_0011726.JPG
break,html.Screen,4_96_1,2023-09-16T22:25:31.249Z,,0,,,NaN,,,,,,false,,,,429237.40000000596,429237.200000003,,429236.80000000447,,429244.163,8,400,,,
break_continue,html.Screen,4_96_2,2023-09-16T22:25:31.250Z,,0,,,NaN,,,,,,false,,,,429237.700000003,429237.6000000015,,429237.6000000015,,429244.163,8,400,,,
sequence,flow.Sequence,4_96,2023-09-16T22:25:31.250Z,,0,,,3060.0460000014864,completion,,,,,false,,,,429237.80000000447,429237.6000000015,426160.842,426170.90000000596,426177.554,429244.163,8,400,,,
trial,html.Screen,4_97_0,2023-09-16T22:25:33.925Z,,0,2,,2668.4370000014897,response,ISIC_1885174.JPG,5,ISIC_0060848.JPG,ISIC_1885174.JPG,false,1,keypress(m),500,431912.90000000596,431912.6000000015,429227.416,429237.90000000596,429244.163,431927.837,8,400,48,,ISIC_0060848.JPG
break,html.Screen,4_97_1,2023-09-16T22:25:33.926Z,,0,,,NaN,,,,,,false,,,,431913.5,431913.40000000596,,431913.1000000015,,431927.837,8,400,,,
break_continue,html.Screen,4_97_2,2023-09-16T22:25:33.926Z,,0,,,NaN,,,,,,false,,,,431913.80000000447,431913.700000003,,431913.700000003,,431927.837,8,400,,,
sequence,flow.Sequence,4_97,2023-09-16T22:25:33.926Z,,0,,,2669.5370000029798,completion,,,,,false,,,,431913.90000000596,431913.700000003,429227.416,429237.90000000596,429244.163,431927.837,8,400,,,
trial,html.Screen,4_98_0,2023-09-16T22:25:37.016Z,,0,2,,3076.3630000029807,response,ISIC_8133350.JPG,4,ISIC_3934537.JPG,ISIC_8133350.JPG,false,1,keypress(m),500,435004.5,435004.200000003,431910.746,431914.200000003,431927.837,435010.766,8,400,49,,ISIC_3934537.JPG
break,html.Screen,4_98_1,2023-09-16T22:25:37.017Z,,0,,,NaN,,,,,,false,,,,435005.30000000447,435005.1000000015,,435004.700000003,,435010.766,8,400,,,
break_continue,html.Screen,4_98_2,2023-09-16T22:25:37.018Z,,0,,,NaN,,,,,,false,,,,435005.6000000015,435005.5,,435005.40000000596,,435010.766,8,400,,,
sequence,flow.Sequence,4_98,2023-09-16T22:25:37.018Z,,0,,,3077.6630000000005,completion,,,,,false,,,,435005.700000003,435005.5,431910.746,431914,431927.837,435010.766,8,400,,,
trial,html.Screen,4_99_0,2023-09-16T22:25:41.582Z,,0,2,,4559.434000002977,response,ISIC_0066094.JPG,13,ISIC_0046340.JPG,ISIC_0046340.JPG,false,0,keypress(z),500,439570.40000000596,439570.200000003,434994.089,435005.80000000447,435010.766,439577.503,8,400,50,,ISIC_0066094.JPG
break,html.Screen,4_99_1,2023-09-16T22:25:51.573Z,,0,,,10000.283999999985,timeout,,,,,false,,,,449561.40000000596,449560.693,439560.745,439570.6000000015,439577.503,449577.787,8,400,,,
break_continue,html.Screen,4_99_2,2023-09-16T22:26:23.220Z,,0,,,31606.61300000595,response,,,,,false,continue,keypress(Space),,481207.80000000447,481184.40000000596,449560.693,449561.6000000015,449577.787,481210.189,8,400,,,
sequence,flow.Sequence,4_99,2023-09-16T22:26:23.220Z,,0,,,46173.63400000596,completion,,,,,false,,,,481208,481184.40000000596,434994.089,435005.80000000447,435010.766,481210.189,8,400,,,
trial,html.Screen,4_100_0,2023-09-16T22:26:29.046Z,,0,3,,5823.810999999987,response,ISIC_7811951.JPG,7,ISIC_6616542.JPG,ISIC_6616542.JPG,false,0,keypress(z),500,487034.30000000447,487034,481193.091,481208.1000000015,481210.189,487043.591,8,400,1,,ISIC_7811951.JPG
break,html.Screen,4_100_1,2023-09-16T22:26:29.047Z,,0,,,NaN,,,,,,false,,,,487035,487034.80000000447,,487034.5,,487043.591,8,400,,,
break_continue,html.Screen,4_100_2,2023-09-16T22:26:29.047Z,,0,,,NaN,,,,,,false,,,,487035.40000000596,487035.30000000447,,487035.200000003,,487043.591,8,400,,,
sequence,flow.Sequence,4_100,2023-09-16T22:26:29.047Z,,0,,,5825.111000004457,completion,,,,,false,,,,487035.6000000015,487035.30000000447,481193.091,481208.1000000015,481210.189,487043.591,8,400,,,
trial,html.Screen,4_101_0,2023-09-16T22:26:32.956Z,,0,3,,3900.7090000044554,response,ISIC_0033594.JPG,10,ISIC_0033157.JPG,ISIC_0033157.JPG,false,0,keypress(z),500,490944.700000003,490944.30000000447,487026.792,487035.700000003,487043.591,490960.079,8,400,2,,ISIC_0033594.JPG
break,html.Screen,4_101_1,2023-09-16T22:26:32.957Z,,0,,,NaN,,,,,,false,,,,490945.6000000015,490945.40000000596,,490945,,490960.079,8,400,,,
break_continue,html.Screen,4_101_2,2023-09-16T22:26:32.958Z,,0,,,NaN,,,,,,false,,,,490945.80000000447,490945.80000000447,,490945.700000003,,490960.079,8,400,,,
sequence,flow.Sequence,4_101,2023-09-16T22:26:32.958Z,,0,,,3902.2090000044554,completion,,,,,false,,,,490946,490945.80000000447,487026.792,487035.6000000015,487043.591,490960.079,8,400,,,
trial,html.Screen,4_102_0,2023-09-16T22:26:36.631Z,,0,3,,3658.7210000044433,response,ISIC_0025892.JPG,14,ISIC_0260316.JPG,ISIC_0025892.JPG,false,1,keypress(m),500,494619.1000000015,494618.80000000447,490943.448,490946.1000000015,490960.079,494627.328,8,400,3,,ISIC_0260316.JPG
break,html.Screen,4_102_1,2023-09-16T22:26:36.632Z,,0,,,NaN,,,,,,false,,,,494619.90000000596,494619.700000003,,494619.30000000447,,494627.328,8,400,,,
break_continue,html.Screen,4_102_2,2023-09-16T22:26:36.632Z,,0,,,NaN,,,,,,false,,,,494620.30000000447,494620.200000003,,494620.1000000015,,494627.328,8,400,,,
sequence,flow.Sequence,4_102,2023-09-16T22:26:36.632Z,,0,,,3660.121000002953,completion,,,,,false,,,,494620.40000000596,494620.200000003,490943.448,490946.1000000015,490960.079,494627.328,8,400,,,
trial,html.Screen,4_103_0,2023-09-16T22:26:40.226Z,,0,3,,3586.2720000015106,response,ISIC_0029214.JPG,8,ISIC_0024756.JPG,ISIC_0024756.JPG,false,0,keypress(z),500,498213.90000000596,498213.6000000015,494610.128,494620.5,494627.328,498226.657,8,400,4,,ISIC_0029214.JPG
break,html.Screen,4_103_1,2023-09-16T22:26:40.226Z,,0,,,NaN,,,,,,false,,,,498214.700000003,498214.5,,498214.1000000015,,498226.657,8,400,,,
break_continue,html.Screen,4_103_2,2023-09-16T22:26:40.227Z,,0,,,NaN,,,,,,false,,,,498215.1000000015,498214.90000000596,,498214.90000000596,,498226.657,8,400,,,
sequence,flow.Sequence,4_103,2023-09-16T22:26:40.227Z,,0,,,3587.572000005981,completion,,,,,false,,,,498215.1000000015,498214.90000000596,494610.128,494620.5,494627.328,498226.657,8,400,,,
trial,html.Screen,4_104_0,2023-09-16T22:26:42.888Z,,0,3,,2649.0430000029737,response,ISIC_0070888.JPG,6,ISIC_0207268.JPG,ISIC_0070888.JPG,false,1,keypress(m),500,500876.1000000015,500875.700000003,498209.993,498215.200000003,498226.657,500893.866,8,400,5,,ISIC_0207268.JPG
break,html.Screen,4_104_1,2023-09-16T22:26:42.888Z,,0,,,NaN,,,,,,false,,,,500876.6000000015,500876.5,,500876.200000003,,500893.866,8,400,,,
break_continue,html.Screen,4_104_2,2023-09-16T22:26:42.889Z,,0,,,NaN,,,,,,false,,,,500877,500876.90000000596,,500876.80000000447,,500893.866,8,400,,,
sequence,flow.Sequence,4_104,2023-09-16T22:26:42.889Z,,0,,,2650.243000005954,completion,,,,,false,,,,500877.1000000015,500876.90000000596,498209.993,498215.1000000015,498226.657,500893.866,8,400,,,
trial,html.Screen,4_105_0,2023-09-16T22:26:45.615Z,,0,3,,2708.63400000002,response,ISIC_0069865.JPG,8,ISIC_8397285.JPG,ISIC_8397285.JPG,false,0,keypress(z),500,503602.80000000447,503602.5,500876.707,500877.200000003,500893.866,503610.3,8,400,6,,ISIC_0069865.JPG
break,html.Screen,4_105_1,2023-09-16T22:26:45.615Z,,0,,,NaN,,,,,,false,,,,503603.5,503603.200000003,,503603,,503610.3,8,400,,,
break_continue,html.Screen,4_105_2,2023-09-16T22:26:45.616Z,,0,,,NaN,,,,,,false,,,,503603.80000000447,503603.700000003,,503603.6000000015,,503610.3,8,400,,,
sequence,flow.Sequence,4_105,2023-09-16T22:26:45.616Z,,0,,,2709.8340000030003,completion,,,,,false,,,,503603.90000000596,503603.700000003,500876.707,500877.200000003,500893.866,503610.3,8,400,,,
trial,html.Screen,4_106_0,2023-09-16T22:26:48.423Z,,0,3,,2800.100000005972,response,ISIC_0058033.JPG,6,ISIC_6767569.JPG,ISIC_6767569.JPG,false,0,keypress(z),500,506410.700000003,506410.40000000596,503593.23,503604,503610.3,506426.869,8,400,7,,ISIC_0058033.JPG
break,html.Screen,4_106_1,2023-09-16T22:26:48.423Z,,0,,,NaN,,,,,,false,,,,506411.5,506411.30000000447,,506411,,506426.869,8,400,,,
break_continue,html.Screen,4_106_2,2023-09-16T22:26:48.424Z,,0,,,NaN,,,,,,false,,,,506411.80000000447,506411.700000003,,506411.6000000015,,506426.869,8,400,,,
sequence,flow.Sequence,4_106,2023-09-16T22:26:48.424Z,,0,,,2801.400000002992,completion,,,,,false,,,,506411.90000000596,506411.700000003,503593.23,503604,503610.3,506426.869,8,400,,,
trial,html.Screen,4_107_0,2023-09-16T22:26:51.281Z,,0,3,,2842.130999999994,response,ISIC_8082460.JPG,12,ISIC_0351547.JPG,ISIC_0351547.JPG,false,0,keypress(z),500,509269.30000000447,509269,506410.281,506412,506426.869,509276.555,8,400,8,,ISIC_8082460.JPG
break,html.Screen,4_107_1,2023-09-16T22:26:51.282Z,,0,,,NaN,,,,,,false,,,,509270.200000003,509269.90000000596,,509269.5,,509276.555,8,400,,,
break_continue,html.Screen,4_107_2,2023-09-16T22:26:51.282Z,,0,,,NaN,,,,,,false,,,,509270.5,509270.5,,509270.30000000447,,509276.555,8,400,,,
sequence,flow.Sequence,4_107,2023-09-16T22:26:51.283Z,,0,,,2843.630999999994,completion,,,,,false,,,,509270.80000000447,509270.5,506410.281,506412,506426.869,509276.555,8,400,,,
trial,html.Screen,4_108_0,2023-09-16T22:26:54.344Z,,0,3,,3055.045000001497,response,ISIC_7938688.JPG,6,ISIC_6239663.JPG,ISIC_7938688.JPG,false,1,keypress(m),500,512331.90000000596,512331.6000000015,509260.27,509270.90000000596,509276.555,512343.207,8,400,9,,ISIC_6239663.JPG
break,html.Screen,4_108_1,2023-09-16T22:26:54.344Z,,0,,,NaN,,,,,,false,,,,512332.700000003,512332.5,,512332.1000000015,,512343.207,8,400,,,
break_continue,html.Screen,4_108_2,2023-09-16T22:26:54.345Z,,0,,,NaN,,,,,,false,,,,512333,512333,,512332.90000000596,,512343.207,8,400,,,
sequence,flow.Sequence,4_108,2023-09-16T22:26:54.345Z,,0,,,3056.445000000007,completion,,,,,false,,,,512333.200000003,512333,509260.27,509270.80000000447,509276.555,512343.207,8,400,,,
trial,html.Screen,4_109_0,2023-09-16T22:26:58.092Z,,0,3,,3736.8930000014952,response,ISIC_0072730.JPG,12,ISIC_8901784.JPG,ISIC_0072730.JPG,false,1,keypress(m),500,516080.30000000447,516080.1000000015,512326.524,512333.30000000447,512343.207,516093.49,8,400,10,,ISIC_8901784.JPG
break,html.Screen,4_109_1,2023-09-16T22:26:58.093Z,,0,,,NaN,,,,,,false,,,,516081.1000000015,516080.700000003,,516080.40000000596,,516093.49,8,400,,,
break_continue,html.Screen,4_109_2,2023-09-16T22:26:58.093Z,,0,,,NaN,,,,,,false,,,,516081.40000000596,516081.200000003,,516081.200000003,,516093.49,8,400,,,
sequence,flow.Sequence,4_109,2023-09-16T22:26:58.093Z,,0,,,3737.9930000029854,completion,,,,,false,,,,516081.6000000015,516081.200000003,512326.524,512333.30000000447,512343.207,516093.49,8,400,,,
trial,html.Screen,4_110_0,2023-09-16T22:27:01.223Z,,0,3,,3116.91000000597,response,ISIC_7012881.JPG,11,ISIC_5569568.JPG,ISIC_5569568.JPG,false,0,keypress(z),500,519210.700000003,519210.40000000596,516076.578,516081.700000003,516093.49,519227.204,8,400,11,,ISIC_7012881.JPG
break,html.Screen,4_110_1,2023-09-16T22:27:01.223Z,,0,,,NaN,,,,,,false,,,,519211.40000000596,519211.30000000447,,519211,,519227.204,8,400,,,
break_continue,html.Screen,4_110_2,2023-09-16T22:27:01.223Z,,0,,,NaN,,,,,,false,,,,519211.700000003,519211.6000000015,,519211.6000000015,,519227.204,8,400,,,
sequence,flow.Sequence,4_110,2023-09-16T22:27:01.224Z,,0,,,3118.1100000014994,completion,,,,,false,,,,519211.90000000596,519211.6000000015,516076.578,516081.6000000015,516093.49,519227.204,8,400,,,
trial,html.Screen,4_111_0,2023-09-16T22:27:04.189Z,,0,3,,2949.496000002953,response,ISIC_0012069.JPG,9,ISIC_3909039.JPG,ISIC_0012069.JPG,false,1,keypress(m),500,522177,522176.700000003,519210.248,519211.90000000596,519227.204,522193.41,8,400,12,,ISIC_3909039.JPG
break,html.Screen,4_111_1,2023-09-16T22:27:04.190Z,,0,,,NaN,,,,,,false,,,,522177.80000000447,522177.6000000015,,522177.200000003,,522193.41,8,400,,,
break_continue,html.Screen,4_111_2,2023-09-16T22:27:04.190Z,,0,,,NaN,,,,,,false,,,,522178.1000000015,522178,,522177.90000000596,,522193.41,8,400,,,
sequence,flow.Sequence,4_111,2023-09-16T22:27:04.190Z,,0,,,2950.795999999973,completion,,,,,false,,,,522178.200000003,522178,519210.248,519211.90000000596,519227.204,522193.41,8,400,,,
trial,html.Screen,4_112_0,2023-09-16T22:27:06.884Z,,0,3,,2678.0900000000256,response,ISIC_0010874.JPG,8,ISIC_0046683.JPG,ISIC_0010874.JPG,false,1,keypress(m),500,524871.8000000045,524871.5,522176.416,522178.30000000447,522193.41,524876.402,8,400,13,,ISIC_0046683.JPG
break,html.Screen,4_112_1,2023-09-16T22:27:06.884Z,,0,,,NaN,,,,,,false,,,,524872.5,524872.3000000045,,524871.900000006,,524876.402,8,400,,,
break_continue,html.Screen,4_112_2,2023-09-16T22:27:06.885Z,,0,,,NaN,,,,,,false,,,,524872.900000006,524872.8000000045,,524872.700000003,,524876.402,8,400,,,
sequence,flow.Sequence,4_112,2023-09-16T22:27:06.885Z,,0,,,2679.390000004496,completion,,,,,false,,,,524873,524872.8000000045,522176.416,522178.200000003,522193.41,524876.402,8,400,,,
trial,html.Screen,4_113_0,2023-09-16T22:27:09.709Z,,0,3,,2820.7980000029784,response,ISIC_1949126.JPG,9,ISIC_7927525.JPG,ISIC_7927525.JPG,false,0,keypress(z),500,527697.5,527697.200000003,524860.075,524873.1000000015,524876.402,527710.345,8,400,14,,ISIC_1949126.JPG
break,html.Screen,4_113_1,2023-09-16T22:27:09.710Z,,0,,,NaN,,,,,,false,,,,527698.3000000045,527698.1000000015,,527697.700000003,,527710.345,8,400,,,
break_continue,html.Screen,4_113_2,2023-09-16T22:27:09.710Z,,0,,,NaN,,,,,,false,,,,527698.6000000015,527698.6000000015,,527698.5,,527710.345,8,400,,,
sequence,flow.Sequence,4_113,2023-09-16T22:27:09.711Z,,0,,,2822.1980000014883,completion,,,,,false,,,,527698.700000003,527698.6000000015,524860.075,524873,524876.402,527710.345,8,400,,,
trial,html.Screen,4_114_0,2023-09-16T22:27:12.360Z,,0,3,,2637.4550000044983,response,ISIC_3305055.JPG,14,ISIC_1929937.JPG,ISIC_3305055.JPG,false,1,keypress(m),500,530348.1000000015,530347.8000000045,527692.982,527698.8000000045,527710.345,530359.614,8,400,15,,ISIC_1929937.JPG
break,html.Screen,4_114_1,2023-09-16T22:27:12.361Z,,0,,,NaN,,,,,,false,,,,530349,530348.700000003,,530348.3000000045,,530359.614,8,400,,,
break_continue,html.Screen,4_114_2,2023-09-16T22:27:12.361Z,,0,,,NaN,,,,,,false,,,,530349.3000000045,530349.1000000015,,530349.1000000015,,530359.614,8,400,,,
sequence,flow.Sequence,4_114,2023-09-16T22:27:12.361Z,,0,,,2638.755000001518,completion,,,,,false,,,,530349.400000006,530349.1000000015,527692.982,527698.8000000045,527710.345,530359.614,8,400,,,
trial,html.Screen,4_115_0,2023-09-16T22:27:15.264Z,,0,3,,2892.686000004527,response,ISIC_2736880.JPG,10,ISIC_2283628.JPG,ISIC_2283628.JPG,false,0,keypress(z),500,533252.700000003,533252.3000000045,530342.927,530349.400000006,530359.614,533259.608,8,400,16,,ISIC_2736880.JPG
break,html.Screen,4_115_1,2023-09-16T22:27:15.266Z,,0,,,NaN,,,,,,false,,,,533254,533253.200000003,,533252.8000000045,,533259.608,8,400,,,
break_continue,html.Screen,4_115_2,2023-09-16T22:27:15.266Z,,0,,,NaN,,,,,,false,,,,533254.200000003,533254.200000003,,533254.200000003,,533259.608,8,400,,,
sequence,flow.Sequence,4_115,2023-09-16T22:27:15.266Z,,0,,,2894.586000003037,completion,,,,,false,,,,533254.400000006,533254.200000003,530342.927,530349.400000006,530359.614,533259.608,8,400,,,
trial,html.Screen,4_116_0,2023-09-16T22:27:17.894Z,,0,3,,2622.292000005953,response,ISIC_0028338.JPG,5,ISIC_8510848.JPG,ISIC_8510848.JPG,false,0,keypress(z),500,535882.200000003,535881.900000006,533243.072,533254.400000006,533259.608,535893.071,8,400,17,,ISIC_0028338.JPG
break,html.Screen,4_116_1,2023-09-16T22:27:17.895Z,,0,,,NaN,,,,,,false,,,,535882.8000000045,535882.6000000015,,535882.3000000045,,535893.071,8,400,,,
break_continue,html.Screen,4_116_2,2023-09-16T22:27:17.895Z,,0,,,NaN,,,,,,false,,,,535883.200000003,535883.1000000015,,535883.1000000015,,535893.071,8,400,,,
sequence,flow.Sequence,4_116,2023-09-16T22:27:17.895Z,,0,,,2623.4920000014827,completion,,,,,false,,,,535883.400000006,535883.1000000015,533243.072,533254.400000006,533259.608,535893.071,8,400,,,
trial,html.Screen,4_117_0,2023-09-16T22:27:22.089Z,,0,3,,4183.729000004474,response,ISIC_5961333.JPG,8,ISIC_1698119.JPG,ISIC_5961333.JPG,false,1,keypress(m),500,540077.200000003,540076.8000000045,535876.184,535883.5,535893.071,540093.235,8,400,18,,ISIC_1698119.JPG
break,html.Screen,4_117_1,2023-09-16T22:27:22.090Z,,0,,,NaN,,,,,,false,,,,540078,540077.700000003,,540077.400000006,,540093.235,8,400,,,
break_continue,html.Screen,4_117_2,2023-09-16T22:27:22.090Z,,0,,,NaN,,,,,,false,,,,540078.3000000045,540078.200000003,,540078.1000000015,,540093.235,8,400,,,
sequence,flow.Sequence,4_117,2023-09-16T22:27:22.090Z,,0,,,4185.129000002984,completion,,,,,false,,,,540078.400000006,540078.200000003,535876.184,535883.5,535893.071,540093.235,8,400,,,
trial,html.Screen,4_118_0,2023-09-16T22:27:25.981Z,,0,3,,3874.965000002994,response,ISIC_2489146.JPG,6,ISIC_1737600.JPG,ISIC_1737600.JPG,false,0,keypress(z),500,543968.6000000015,543968.200000003,540076.603,540078.5,540093.235,543976.318,8,400,19,,ISIC_2489146.JPG
break,html.Screen,4_118_1,2023-09-16T22:27:25.982Z,,0,,,NaN,,,,,,false,,,,543969.3000000045,543969.1000000015,,543968.700000003,,543976.318,8,400,,,
break_continue,html.Screen,4_118_2,2023-09-16T22:27:25.982Z,,0,,,NaN,,,,,,false,,,,543969.6000000015,543969.6000000015,,543969.5,,543976.318,8,400,,,
sequence,flow.Sequence,4_118,2023-09-16T22:27:25.982Z,,0,,,3876.365000001504,completion,,,,,false,,,,543969.8000000045,543969.6000000015,540076.603,540078.5,540093.235,543976.318,8,400,,,
trial,html.Screen,4_119_0,2023-09-16T22:27:28.899Z,,0,3,,2909.9820000045,response,ISIC_0069705.JPG,12,ISIC_2513018.JPG,ISIC_2513018.JPG,false,0,keypress(z),500,546886.6000000015,546886.3000000045,543959.497,543969.900000006,543976.318,546892.767,8,400,20,,ISIC_0069705.JPG
break,html.Screen,4_119_1,2023-09-16T22:27:28.900Z,,0,,,NaN,,,,,,false,,,,546887.400000006,546887.1000000015,,546886.8000000045,,546892.767,8,400,,,
break_continue,html.Screen,4_119_2,2023-09-16T22:27:28.900Z,,0,,,NaN,,,,,,false,,,,546887.6000000015,546887.6000000015,,546887.5,,546892.767,8,400,,,
sequence,flow.Sequence,4_119,2023-09-16T22:27:28.900Z,,0,,,2911.28200000152,completion,,,,,false,,,,546887.700000003,546887.6000000015,543959.497,543969.900000006,543976.318,546892.767,8,400,,,
trial,html.Screen,4_120_0,2023-09-16T22:27:32.918Z,,0,3,,4012.8330000014976,response,ISIC_2977718.JPG,11,ISIC_0028788.JPG,ISIC_0028788.JPG,false,0,keypress(z),500,550906,550905.6000000015,546876.084,546887.900000006,546892.767,550909.45,8,400,21,,ISIC_2977718.JPG
break,html.Screen,4_120_1,2023-09-16T22:27:32.919Z,,0,,,NaN,,,,,,false,,,,550906.700000003,550906.6000000015,,550906.200000003,,550909.45,8,400,,,
break_continue,html.Screen,4_120_2,2023-09-16T22:27:32.919Z,,0,,,NaN,,,,,,false,,,,550907.1000000015,550907,,550907,,550909.45,8,400,,,
sequence,flow.Sequence,4_120,2023-09-16T22:27:32.919Z,,0,,,4014.2330000000075,completion,,,,,false,,,,550907.3000000045,550907,546876.084,546887.8000000045,546892.767,550909.45,8,400,,,
trial,html.Screen,4_121_0,2023-09-16T22:27:35.899Z,,0,3,,2977.450000006007,response,ISIC_0904712.JPG,9,ISIC_0013084.JPG,ISIC_0013084.JPG,false,0,keypress(z),500,553887.200000003,553886.900000006,550893.129,550907.400000006,550909.45,553909.349,8,400,22,,ISIC_0904712.JPG
break,html.Screen,4_121_1,2023-09-16T22:27:35.900Z,,0,,,NaN,,,,,,false,,,,553887.8000000045,553887.700000003,,553887.400000006,,553909.349,8,400,,,
break_continue,html.Screen,4_121_2,2023-09-16T22:27:35.900Z,,0,,,NaN,,,,,,false,,,,553888,553888,,553887.900000006,,553909.349,8,400,,,
sequence,flow.Sequence,4_121,2023-09-16T22:27:35.900Z,,0,,,2978.5500000000466,completion,,,,,false,,,,553888.200000003,553888,550893.129,550907.3000000045,550909.45,553909.349,8,400,,,
trial,html.Screen,4_122_0,2023-09-16T22:27:38.577Z,,0,3,,2655.051000005915,response,ISIC_9842269.JPG,6,ISIC_0071559.JPG,ISIC_9842269.JPG,false,1,keypress(m),500,556564.6000000015,556564.400000006,553893.1,553888.3000000045,553909.349,556576.023,8,400,23,,ISIC_0071559.JPG
break,html.Screen,4_122_1,2023-09-16T22:27:38.578Z,,0,,,NaN,,,,,,false,,,,556565.700000003,556565.3000000045,,556564.900000006,,556576.023,8,400,,,
break_continue,html.Screen,4_122_2,2023-09-16T22:27:38.578Z,,0,,,NaN,,,,,,false,,,,556566.200000003,556566,,556565.900000006,,556576.023,8,400,,,
sequence,flow.Sequence,4_122,2023-09-16T22:27:38.579Z,,0,,,2656.6509999999544,completion,,,,,false,,,,556566.3000000045,556566,553893.1,553888.3000000045,553909.349,556576.023,8,400,,,
trial,html.Screen,4_123_0,2023-09-16T22:27:41.273Z,,0,3,,2684.0770000014454,response,ISIC_1608727.JPG,6,ISIC_5931552.JPG,ISIC_5931552.JPG,false,0,keypress(z),500,559260.400000006,559260.1000000015,556559.456,556566.400000006,556576.023,559276.021,8,400,24,,ISIC_1608727.JPG
break,html.Screen,4_123_1,2023-09-16T22:27:41.274Z,,0,,,NaN,,,,,,false,,,,559261.200000003,559261,,559260.700000003,,559276.021,8,400,,,
break_continue,html.Screen,4_123_2,2023-09-16T22:27:41.274Z,,0,,,NaN,,,,,,false,,,,559261.700000003,559261.5,,559261.400000006,,559276.021,8,400,,,
sequence,flow.Sequence,4_123,2023-09-16T22:27:41.274Z,,0,,,2685.4769999999553,completion,,,,,false,,,,559261.8000000045,559261.5,556559.456,556566.400000006,556576.023,559276.021,8,400,,,
trial,html.Screen,4_124_0,2023-09-16T22:27:44.465Z,,0,3,,3176.0790000015404,response,ISIC_2139752.JPG,6,ISIC_3761253.JPG,ISIC_3761253.JPG,false,0,keypress(z),500,562452.5,562452.1000000015,559259.269,559261.900000006,559276.021,562459.314,8,400,25,,ISIC_2139752.JPG
break,html.Screen,4_124_1,2023-09-16T22:27:44.466Z,,0,,,NaN,,,,,,false,,,,562453.3000000045,562453.200000003,,562452.700000003,,562459.314,8,400,,,
break_continue,html.Screen,4_124_2,2023-09-16T22:27:44.466Z,,0,,,NaN,,,,,,false,,,,562453.700000003,562453.5,,562453.400000006,,562459.314,8,400,,,
sequence,flow.Sequence,4_124,2023-09-16T22:27:44.466Z,,0,,,3177.4790000000503,completion,,,,,false,,,,562453.8000000045,562453.5,559259.269,559261.900000006,559276.021,562459.314,8,400,,,
trial,html.Screen,4_125_0,2023-09-16T22:27:47.253Z,,0,3,,2781.4860000044573,response,ISIC_5204408.JPG,5,ISIC_0770920.JPG,ISIC_5204408.JPG,false,1,keypress(m),500,565241,565240.8000000045,562442.577,562453.900000006,562459.314,565267.689,8,400,26,,ISIC_0770920.JPG
break,html.Screen,4_125_1,2023-09-16T22:27:47.254Z,,0,,,NaN,,,,,,false,,,,565241.8000000045,565241.5,,565241.200000003,,565267.689,8,400,,,
break_continue,html.Screen,4_125_2,2023-09-16T22:27:47.254Z,,0,,,NaN,,,,,,false,,,,565242.1000000015,565242.1000000015,,565242,,565267.689,8,400,,,
sequence,flow.Sequence,4_125,2023-09-16T22:27:47.255Z,,0,,,2782.786000001477,completion,,,,,false,,,,565242.3000000045,565242.1000000015,562442.577,562453.8000000045,562459.314,565267.689,8,400,,,
