sender,sender_type,sender_id,timestamp,meta,,blockNo,condition,duration,ended_on,img_left,img_reveal,img_right,loser,practice,response,response_action,selection_duration,time_commit,time_end,time_render,time_run,time_show,time_switch,total_blocks,total_trials,trialNo,url,winner
informed_consent,html.Screen,0,2023-10-31T17:15:41.082Z,"{""labjs_version"":""20.2.4"",""labjs_build"":{""flavor"":""production"",""commit"":""f5b4a49f956347addd546a832a3327688c2c0fef""},""location"":""https://run.pavlovia.org/MurrayBennett/melanoma-2afc/?participant=67058&platform=sona"",""userAgent"":""Mozilla/5.0 (Windows NT 10.0; Win64; x64) AppleWebKit/537.36 (KHTML, like Gecko) Chrome/118.0.0.0 Safari/537.36 Edg/118.0.2088.69"",""platform"":""Win32"",""language"":""en-US"",""locale"":""en-US"",""timeZone"":""America/Chicago"",""timezoneOffset"":300,""screen_width"":1504,""screen_height"":1003,""scroll_width"":1496,""scroll_height"":799,""window_innerWidth"":1496,""window_innerHeight"":847,""devicePixelRatio"":1.5}",,,,8327.471999952317,response,,,,,,consent,click button,,11554.399999856949,11551.799999952316,3207.63,3202.199999809265,3224.328,11574.79,,,,"{""participant"":""67058"",""platform"":""sona""}",
Welcome,html.Screen,1,2023-10-31T17:16:03.216Z,,,,colourful,22112.21,response,,,,,,continue,click button,,33688.5,33687,11541.459,11554.699999809265,11574.79,33692.919,,,,,
trial,html.Screen,2_0_0,2023-10-31T17:16:08.205Z,,0,0,,4983.380999952315,response,ISIC_0063388.JPG,,ISIC_0025593.JPG,ISIC_0063388.JPG,true,1,keypress(m),500,38676.799999952316,38676.299999952316,33676.199,33688.799999952316,33692.919,38726.654,1,6,1,,ISIC_0025593.JPG
sequence,flow.Sequence,2_0,2023-10-31T17:16:08.205Z,,0,,,4983.380999952315,completion,,,,,true,,,,38677.199999809265,38676.299999952316,33676.199,33688.799999952316,33692.919,38726.654,1,6,,,
trial,html.Screen,2_1_0,2023-10-31T17:16:13.299Z,,0,0,,5044.545999809263,response,ISIC_1309015.JPG,,ISIC_0028178.JPG,ISIC_0028178.JPG,true,0,keypress(z),500,43771.5,43771.199999809265,38676.703,38677.299999952316,38726.654,43810.591,1,6,2,,ISIC_1309015.JPG
sequence,flow.Sequence,2_1,2023-10-31T17:16:13.300Z,,0,,,5044.545999809263,completion,,,,,true,,,,43772,43771.199999809265,38676.703,38677.199999809265,38726.654,43810.591,1,6,,,
trial,html.Screen,2_2_0,2023-10-31T17:16:19.001Z,,0,0,,5662.409,response,ISIC_3314853.JPG,,ISIC_0031128.JPG,ISIC_0031128.JPG,true,0,keypress(z),500,49473.39999985695,49473,43760.475,43772.199999809265,43810.591,49493.908,1,6,3,,ISIC_3314853.JPG
sequence,flow.Sequence,2_2,2023-10-31T17:16:19.001Z,,0,,,5662.409,completion,,,,,true,,,,49473.59999990463,49473,43760.475,43772.09999990463,43810.591,49493.908,1,6,,,
trial,html.Screen,2_3_0,2023-10-31T17:16:23.389Z,,0,0,,4366.491999856946,response,ISIC_8980141.JPG,,ISIC_0031612.JPG,ISIC_8980141.JPG,true,1,keypress(m),500,53860.89999985695,53860.39999985695,49460.914,49473.799999952316,49493.908,53911.775,1,6,4,,ISIC_0031612.JPG
sequence,flow.Sequence,2_3,2023-10-31T17:16:23.389Z,,0,,,4366.491999856946,completion,,,,,true,,,,53861.299999952316,53860.39999985695,49460.914,49473.799999952316,49493.908,53911.775,1,6,,,
trial,html.Screen,2_4_0,2023-10-31T17:16:26.918Z,,0,0,,3478.024999952315,response,ISIC_9721604.JPG,,ISIC_1197737.JPG,ISIC_9721604.JPG,true,1,keypress(m),500,57390.299999952316,57389.799999952316,53860.756,53861.299999952316,53911.775,57411.115,1,6,5,,ISIC_1197737.JPG
sequence,flow.Sequence,2_4,2023-10-31T17:16:26.918Z,,0,,,3478.024999952315,completion,,,,,true,,,,57390.59999990463,57389.799999952316,53860.756,53861.299999952316,53911.775,57411.115,1,6,,,
trial,html.Screen,2_5_0,2023-10-31T17:16:31.542Z,,0,0,,4602.584999809267,response,ISIC_0010681.JPG,,ISIC_0025346.JPG,ISIC_0010681.JPG,true,1,keypress(m),500,62014,62013.699999809265,57377.925,57390.699999809265,57411.115,62061.898,1,6,6,,ISIC_0025346.JPG
sequence,flow.Sequence,2_5,2023-10-31T17:16:31.542Z,,0,,,4602.584999809267,completion,,,,,true,,,,62014.299999952316,62013.699999809265,57377.925,57390.699999809265,57411.115,62061.898,1,6,,,
loop,flow.Loop,2,2023-10-31T17:16:31.542Z,,,,,28320.780999809263,completion,,,,,true,,,,62014.5,62013.699999809265,33676.199,33688.799999952316,33692.919,62061.898,1,6,,,
exp_instructions,html.Screen,3,2023-10-31T17:16:51.269Z,,,,,19678.401999952315,response,,,,,,continue,keypress(Space),,81741.59999990463,81740.29999995232,62011.581,62014.59999990463,62061.898,81779.558,,,,,
trial,html.Screen,4_0_0,2023-10-31T17:16:55.679Z,,0,1,,4371.241999952312,response,ISIC_0032187.JPG,10,ISIC_1781273.JPG,ISIC_1781273.JPG,false,0,keypress(z),500,86151.09999990463,86150.79999995232,81737.026,81741.89999985695,81779.558,86196.81,8,400,1,,ISIC_0032187.JPG
break,html.Screen,4_0_1,2023-10-31T17:16:55.681Z,,0,,,NaN,,,,,,false,,,,86153.19999980927,86152.19999980927,,86151.29999995232,,86196.81,8,400,,,
break_continue,html.Screen,4_0_2,2023-10-31T17:16:55.683Z,,0,,,NaN,,,,,,false,,,,86155.39999985695,86154.69999980927,,86153.79999995232,,86196.81,8,400,,,
sequence,flow.Sequence,4_0,2023-10-31T17:16:55.684Z,,0,,,4375.141999809261,completion,,,,,false,,,,86156.09999990463,86154.69999980927,81737.026,81741.89999985695,81779.558,86196.81,8,400,,,
trial,html.Screen,4_1_0,2023-10-31T17:17:02.864Z,,0,1,,7138.789999904635,response,ISIC_7984569.JPG,3,ISIC_8214287.JPG,ISIC_8214287.JPG,false,0,keypress(z),500,93336.09999990463,93335.59999990463,86147.198,86156.59999990463,86196.81,93380.285,8,400,2,,ISIC_7984569.JPG
break,html.Screen,4_1_1,2023-10-31T17:17:02.867Z,,0,,,NaN,,,,,,false,,,,93338.79999995232,93338.5,,93337.89999985695,,93380.285,8,400,,,
break_continue,html.Screen,4_1_2,2023-10-31T17:17:02.867Z,,0,,,NaN,,,,,,false,,,,93339.09999990463,93339.09999990463,,93338.89999985695,,93380.285,8,400,,,
sequence,flow.Sequence,4_1,2023-10-31T17:17:02.867Z,,0,,,7142.289999904635,completion,,,,,false,,,,93339.29999995232,93339.09999990463,86147.198,86156.5,86196.81,93380.285,8,400,,,
trial,html.Screen,4_2_0,2023-10-31T17:17:06.970Z,,0,1,,4061.4149998092616,response,ISIC_0067339.JPG,11,ISIC_0010883.JPG,ISIC_0067339.JPG,false,1,keypress(m),500,97442,97441.69999980927,93330.652,93339.39999985695,93380.285,97480.906,8,400,3,,ISIC_0010883.JPG
break,html.Screen,4_2_1,2023-10-31T17:17:06.971Z,,0,,,NaN,,,,,,false,,,,97443.09999990463,97442.79999995232,,97442.29999995232,,97480.906,8,400,,,
break_continue,html.Screen,4_2_2,2023-10-31T17:17:06.972Z,,0,,,NaN,,,,,,false,,,,97444.59999990463,97443.89999985695,,97443.5,,97480.906,8,400,,,
sequence,flow.Sequence,4_2,2023-10-31T17:17:06.973Z,,0,,,4063.6149998569454,completion,,,,,false,,,,97445.39999985695,97443.89999985695,93330.652,93339.39999985695,93380.285,97480.906,8,400,,,
trial,html.Screen,4_3_0,2023-10-31T17:17:10.197Z,,0,1,,3187.493999856946,response,ISIC_4764568.JPG,32,ISIC_2783450.JPG,ISIC_4764568.JPG,false,1,keypress(m),500,100668.79999995232,100668.39999985695,97430.762,97446,97480.906,100714.491,8,400,4,,ISIC_2783450.JPG
break,html.Screen,4_3_1,2023-10-31T17:17:10.198Z,,0,,,NaN,,,,,,false,,,,100669.79999995232,100669.59999990463,,100669,,100714.491,8,400,,,
break_continue,html.Screen,4_3_2,2023-10-31T17:17:10.198Z,,0,,,NaN,,,,,,false,,,,100670.19999980927,100670.09999990463,,100670,,100714.491,8,400,,,
sequence,flow.Sequence,4_3,2023-10-31T17:17:10.198Z,,0,,,3189.19399990463,completion,,,,,false,,,,100670.29999995232,100670.09999990463,97430.762,97445.79999995232,97480.906,100714.491,8,400,,,
trial,html.Screen,4_4_0,2023-10-31T17:17:14.463Z,,0,1,,4220.808999952322,response,ISIC_0033470.JPG,9,ISIC_0072157.JPG,ISIC_0033470.JPG,false,1,keypress(m),500,104935.59999990463,104935.29999995232,100664.489,100670.39999985695,100714.491,104981.35,8,400,5,,ISIC_0072157.JPG
break,html.Screen,4_4_1,2023-10-31T17:17:14.464Z,,0,,,NaN,,,,,,false,,,,104936.59999990463,104936.39999985695,,104935.79999995232,,104981.35,8,400,,,
break_continue,html.Screen,4_4_2,2023-10-31T17:17:14.465Z,,0,,,NaN,,,,,,false,,,,104937,104936.89999985695,,104936.69999980927,,104981.35,8,400,,,
sequence,flow.Sequence,4_4,2023-10-31T17:17:14.465Z,,0,,,4222.408999856954,completion,,,,,false,,,,104937.09999990463,104936.89999985695,100664.489,100670.39999985695,100714.491,104981.35,8,400,,,
trial,html.Screen,4_5_0,2023-10-31T17:17:18.297Z,,0,1,,3787.049999856943,response,ISIC_6452498.JPG,14,ISIC_0588322.JPG,ISIC_0588322.JPG,false,0,keypress(z),500,108768.79999995232,108768.39999985695,104930.962,104937.19999980927,104981.35,108815.102,8,400,6,,ISIC_6452498.JPG
break,html.Screen,4_5_1,2023-10-31T17:17:18.298Z,,0,,,NaN,,,,,,false,,,,108769.69999980927,108769.59999990463,,108769,,108815.102,8,400,,,
break_continue,html.Screen,4_5_2,2023-10-31T17:17:18.298Z,,0,,,NaN,,,,,,false,,,,108770.09999990463,108770,,108769.89999985695,,108815.102,8,400,,,
sequence,flow.Sequence,4_5,2023-10-31T17:17:18.298Z,,0,,,3788.649999999994,completion,,,,,false,,,,108770.29999995232,108770,104930.962,104937.19999980927,104981.35,108815.102,8,400,,,
trial,html.Screen,4_6_0,2023-10-31T17:17:22.707Z,,0,1,,4363.398000000001,response,ISIC_7633960.JPG,11,ISIC_6488658.JPG,ISIC_7633960.JPG,false,1,keypress(m),500,113178.79999995232,113178.5,108765.121,108770.29999995232,108815.102,113214.997,8,400,7,,ISIC_6488658.JPG
break,html.Screen,4_6_1,2023-10-31T17:17:22.708Z,,0,,,NaN,,,,,,false,,,,113179.89999985695,113179.69999980927,,113179.09999990463,,113214.997,8,400,,,
break_continue,html.Screen,4_6_2,2023-10-31T17:17:22.708Z,,0,,,NaN,,,,,,false,,,,113180.39999985695,113180.29999995232,,113180.19999980927,,113214.997,8,400,,,
sequence,flow.Sequence,4_6,2023-10-31T17:17:22.708Z,,0,,,4365.197999952317,completion,,,,,false,,,,113180.5,113180.29999995232,108765.121,108770.29999995232,108815.102,113214.997,8,400,,,
trial,html.Screen,4_7_0,2023-10-31T17:17:28.186Z,,0,1,,5442.6029999046295,response,ISIC_2457859.JPG,15,ISIC_3072311.JPG,ISIC_2457859.JPG,false,1,keypress(m),500,118657.89999985695,118657.59999990463,113165.294,113180.69999980927,113214.997,118698.632,8,400,8,,ISIC_3072311.JPG
break,html.Screen,4_7_1,2023-10-31T17:17:28.190Z,,0,,,NaN,,,,,,false,,,,118662,118661,,118658.39999985695,,118698.632,8,400,,,
break_continue,html.Screen,4_7_2,2023-10-31T17:17:28.191Z,,0,,,NaN,,,,,,false,,,,118663.69999980927,118663.19999980927,,118662.59999990463,,118698.632,8,400,,,
sequence,flow.Sequence,4_7,2023-10-31T17:17:28.192Z,,0,,,5448.202999809262,completion,,,,,false,,,,118664.5,118663.19999980927,113165.294,113180.59999990463,113214.997,118698.632,8,400,,,
trial,html.Screen,4_8_0,2023-10-31T17:17:33.045Z,,0,1,,4818.467999904635,response,ISIC_8417873.JPG,7,ISIC_0028173.JPG,ISIC_8417873.JPG,false,1,keypress(m),500,123517.59999990463,123517.09999990463,118648.825,118665.09999990463,118698.632,123565.708,8,400,9,,ISIC_0028173.JPG
break,html.Screen,4_8_1,2023-10-31T17:17:33.046Z,,0,,,NaN,,,,,,false,,,,123518.69999980927,123518.39999985695,,123517.69999980927,,123565.708,8,400,,,
break_continue,html.Screen,4_8_2,2023-10-31T17:17:33.048Z,,0,,,NaN,,,,,,false,,,,123520.39999985695,123519.79999995232,,123519.09999990463,,123565.708,8,400,,,
sequence,flow.Sequence,4_8,2023-10-31T17:17:33.049Z,,0,,,4821.1679999523185,completion,,,,,false,,,,123521.19999980927,123519.79999995232,118648.825,118665,118698.632,123565.708,8,400,,,
trial,html.Screen,4_9_0,2023-10-31T17:17:37.717Z,,0,1,,4623.292000000001,response,ISIC_0010912.JPG,18,ISIC_0009984.JPG,ISIC_0010912.JPG,false,1,keypress(m),500,128189.19999980927,128189,123515.893,123521.69999980927,123565.708,128232.96,8,400,10,,ISIC_0009984.JPG
break,html.Screen,4_9_1,2023-10-31T17:17:37.718Z,,0,,,NaN,,,,,,false,,,,128190.19999980927,128190,,128189.5,,128232.96,8,400,,,
break_continue,html.Screen,4_9_2,2023-10-31T17:17:37.720Z,,0,,,NaN,,,,,,false,,,,128191.79999995232,128191.29999995232,,128190.59999990463,,128232.96,8,400,,,
sequence,flow.Sequence,4_9,2023-10-31T17:17:37.720Z,,0,,,4625.591999952318,completion,,,,,false,,,,128192.59999990463,128191.29999995232,123515.893,123521.59999990463,123565.708,128232.96,8,400,,,
trial,html.Screen,4_10_0,2023-10-31T17:17:42.960Z,,0,1,,5199.039999999994,response,ISIC_0028230.JPG,9,ISIC_0034268.JPG,ISIC_0028230.JPG,false,1,keypress(m),500,133432.29999995232,133432,128182.941,128193.09999990463,128232.96,133466.195,8,400,11,,ISIC_0034268.JPG
break,html.Screen,4_10_1,2023-10-31T17:17:42.961Z,,0,,,NaN,,,,,,false,,,,133433.09999990463,133432.89999985695,,133432.39999985695,,133466.195,8,400,,,
break_continue,html.Screen,4_10_2,2023-10-31T17:17:42.961Z,,0,,,NaN,,,,,,false,,,,133433.29999995232,133433.29999995232,,133433.19999980927,,133466.195,8,400,,,
sequence,flow.Sequence,4_10,2023-10-31T17:17:42.961Z,,0,,,5200.33999995231,completion,,,,,false,,,,133433.39999985695,133433.29999995232,128182.941,128193,128232.96,133466.195,8,400,,,
trial,html.Screen,4_11_0,2023-10-31T17:17:47.956Z,,0,1,,4961.504999809258,response,ISIC_6731470.JPG,10,ISIC_5758316.JPG,ISIC_5758316.JPG,false,0,keypress(z),500,138428,138427.69999980927,133449.869,133433.5,133466.195,138449.921,8,400,12,,ISIC_6731470.JPG
break,html.Screen,4_11_1,2023-10-31T17:17:47.957Z,,0,,,NaN,,,,,,false,,,,138429.09999990463,138428.79999995232,,138428.19999980927,,138449.921,8,400,,,
break_continue,html.Screen,4_11_2,2023-10-31T17:17:47.957Z,,0,,,NaN,,,,,,false,,,,138429.59999990463,138429.5,,138429.39999985695,,138449.921,8,400,,,
sequence,flow.Sequence,4_11,2023-10-31T17:17:47.957Z,,0,,,4963.304999999993,completion,,,,,false,,,,138429.79999995232,138429.5,133449.869,133433.5,133466.195,138449.921,8,400,,,
trial,html.Screen,4_12_0,2023-10-31T17:17:51.902Z,,0,1,,3924.578999999998,response,ISIC_4938638.JPG,6,ISIC_0026586.JPG,ISIC_4938638.JPG,false,1,keypress(m),500,142374.69999980927,142374.5,138416.933,138429.89999985695,138449.921,142416.88,8,400,13,,ISIC_0026586.JPG
break,html.Screen,4_12_1,2023-10-31T17:17:51.904Z,,0,,,NaN,,,,,,false,,,,142375.79999995232,142375.59999990463,,142375,,142416.88,8,400,,,
break_continue,html.Screen,4_12_2,2023-10-31T17:17:51.904Z,,0,,,NaN,,,,,,false,,,,142376.39999985695,142376.19999980927,,142376.09999990463,,142416.88,8,400,,,
sequence,flow.Sequence,4_12,2023-10-31T17:17:51.904Z,,0,,,3926.278999809263,completion,,,,,false,,,,142376.59999990463,142376.19999980927,138416.933,138429.89999985695,138449.921,142416.88,8,400,,,
trial,html.Screen,4_13_0,2023-10-31T17:17:57.076Z,,0,1,,5130.919999952312,response,ISIC_3046905.JPG,11,ISIC_0013953.JPG,ISIC_0013953.JPG,false,0,keypress(z),500,147548.09999990463,147547.79999995232,142367.676,142376.59999990463,142416.88,147567.724,8,400,14,,ISIC_3046905.JPG
break,html.Screen,4_13_1,2023-10-31T17:17:57.077Z,,0,,,NaN,,,,,,false,,,,147549.29999995232,147549,,147548.39999985695,,147567.724,8,400,,,
break_continue,html.Screen,4_13_2,2023-10-31T17:17:57.077Z,,0,,,NaN,,,,,,false,,,,147549.59999990463,147549.5,,147549.39999985695,,147567.724,8,400,,,
sequence,flow.Sequence,4_13,2023-10-31T17:17:57.077Z,,0,,,5132.619999999995,completion,,,,,false,,,,147549.79999995232,147549.5,142367.676,142376.59999990463,142416.88,147567.724,8,400,,,
trial,html.Screen,4_14_0,2023-10-31T17:18:01.015Z,,0,1,,3919.7760000000126,response,ISIC_0011869.JPG,8,ISIC_9154716.JPG,ISIC_9154716.JPG,false,0,keypress(z),500,151487.69999980927,151487.5,147534.892,147549.89999985695,147567.724,151500.816,8,400,15,,ISIC_0011869.JPG
break,html.Screen,4_14_1,2023-10-31T17:18:01.016Z,,0,,,NaN,,,,,,false,,,,151488.79999995232,151488.59999990463,,151488,,151500.816,8,400,,,
break_continue,html.Screen,4_14_2,2023-10-31T17:18:01.017Z,,0,,,NaN,,,,,,false,,,,151489.09999990463,151489.09999990463,,151488.89999985695,,151500.816,8,400,,,
sequence,flow.Sequence,4_14,2023-10-31T17:18:01.017Z,,0,,,3921.375999904645,completion,,,,,false,,,,151489.29999995232,151489.09999990463,147534.892,147549.89999985695,147567.724,151500.816,8,400,,,
trial,html.Screen,4_15_0,2023-10-31T17:18:04.733Z,,0,1,,3703.9839999523247,response,ISIC_0029409.JPG,13,ISIC_8759726.JPG,ISIC_8759726.JPG,false,0,keypress(z),500,155205.09999990463,155204.79999995232,151484.002,151489.39999985695,151500.816,155251.032,8,400,16,,ISIC_0029409.JPG
break,html.Screen,4_15_1,2023-10-31T17:18:04.734Z,,0,,,NaN,,,,,,false,,,,155206.29999995232,155205.89999985695,,155205.39999985695,,155251.032,8,400,,,
break_continue,html.Screen,4_15_2,2023-10-31T17:18:04.734Z,,0,,,NaN,,,,,,false,,,,155206.59999990463,155206.5,,155206.39999985695,,155251.032,8,400,,,
sequence,flow.Sequence,4_15,2023-10-31T17:18:04.734Z,,0,,,3705.6840000000084,completion,,,,,false,,,,155206.69999980927,155206.5,151484.002,151489.39999985695,151500.816,155251.032,8,400,,,
trial,html.Screen,4_16_0,2023-10-31T17:18:09.015Z,,0,1,,4235.4679999999935,response,ISIC_0766328.JPG,8,ISIC_0026727.JPG,ISIC_0766328.JPG,false,1,keypress(m),500,159486.89999985695,159486.5,155202.246,155206.79999995232,155251.032,159534.685,8,400,17,,ISIC_0026727.JPG
break,html.Screen,4_16_1,2023-10-31T17:18:09.016Z,,0,,,NaN,,,,,,false,,,,159488,159487.79999995232,,159487.09999990463,,159534.685,8,400,,,
break_continue,html.Screen,4_16_2,2023-10-31T17:18:09.018Z,,0,,,NaN,,,,,,false,,,,159490,159489.69999980927,,159488.29999995232,,159534.685,8,400,,,
sequence,flow.Sequence,4_16,2023-10-31T17:18:09.019Z,,0,,,4238.667999809259,completion,,,,,false,,,,159491,159489.69999980927,155202.246,155206.79999995232,155251.032,159534.685,8,400,,,
trial,html.Screen,4_17_0,2023-10-31T17:18:12.197Z,,0,1,,3134.214999856951,response,ISIC_0025450.JPG,17,ISIC_7319686.JPG,ISIC_7319686.JPG,false,0,keypress(z),500,162669.09999990463,162668.89999985695,159485.191,159491.69999980927,159534.685,162718.281,8,400,18,,ISIC_0025450.JPG
break,html.Screen,4_17_1,2023-10-31T17:18:12.198Z,,0,,,NaN,,,,,,false,,,,162670.09999990463,162669.89999985695,,162669.39999985695,,162718.281,8,400,,,
break_continue,html.Screen,4_17_2,2023-10-31T17:18:12.198Z,,0,,,NaN,,,,,,false,,,,162670.39999985695,162670.29999995232,,162670.19999980927,,162718.281,8,400,,,
sequence,flow.Sequence,4_17,2023-10-31T17:18:12.198Z,,0,,,3135.6149999523186,completion,,,,,false,,,,162670.5,162670.29999995232,159485.191,159491.5,159534.685,162718.281,8,400,,,
trial,html.Screen,4_18_0,2023-10-31T17:18:15.278Z,,0,1,,3032.1189998569607,response,ISIC_8366864.JPG,5,ISIC_0033710.JPG,ISIC_8366864.JPG,false,1,keypress(m),500,165750.69999980927,165750.39999985695,162668.476,162670.59999990463,162718.281,165801.747,8,400,19,,ISIC_0033710.JPG
break,html.Screen,4_18_1,2023-10-31T17:18:15.280Z,,0,,,NaN,,,,,,false,,,,165752.09999990463,165751.5,,165750.89999985695,,165801.747,8,400,,,
break_continue,html.Screen,4_18_2,2023-10-31T17:18:15.282Z,,0,,,NaN,,,,,,false,,,,165753.89999985695,165753.29999995232,,165752.69999980927,,165801.747,8,400,,,
sequence,flow.Sequence,4_18,2023-10-31T17:18:15.282Z,,0,,,3035.018999952328,completion,,,,,false,,,,165754.69999980927,165753.29999995232,162668.476,162670.59999990463,162718.281,165801.747,8,400,,,
trial,html.Screen,4_19_0,2023-10-31T17:18:20.941Z,,0,1,,5610.952999809262,response,ISIC_0026141.JPG,0,ISIC_4614129.JPG,ISIC_0026141.JPG,false,1,keypress(m),500,171413,171412.69999980927,165735.19,165755.29999995232,165801.747,171435.407,8,400,20,,ISIC_4614129.JPG
break,html.Screen,4_19_1,2023-10-31T17:18:20.942Z,,0,,,NaN,,,,,,false,,,,171413.89999985695,171413.69999980927,,171413.09999990463,,171435.407,8,400,,,
break_continue,html.Screen,4_19_2,2023-10-31T17:18:20.942Z,,0,,,NaN,,,,,,false,,,,171414.19999980927,171414.09999990463,,171414,,171435.407,8,400,,,
sequence,flow.Sequence,4_19,2023-10-31T17:18:20.942Z,,0,,,5612.3529999046295,completion,,,,,false,,,,171414.29999995232,171414.09999990463,165735.19,165755.09999990463,165801.747,171435.407,8,400,,,
trial,html.Screen,4_20_0,2023-10-31T17:18:24.480Z,,0,1,,3516.192999904626,response,ISIC_6260969.JPG,8,ISIC_7008969.JPG,ISIC_6260969.JPG,false,1,keypress(m),500,174951.89999985695,174951.59999990463,171402.079,171414.5,171435.407,175002.441,8,400,21,,ISIC_7008969.JPG
break,html.Screen,4_20_1,2023-10-31T17:18:24.480Z,,0,,,NaN,,,,,,false,,,,174952.89999985695,174952.59999990463,,174952.09999990463,,175002.441,8,400,,,
break_continue,html.Screen,4_20_2,2023-10-31T17:18:24.482Z,,0,,,NaN,,,,,,false,,,,174954.5,174953.79999995232,,174953.19999980927,,175002.441,8,400,,,
sequence,flow.Sequence,4_20,2023-10-31T17:18:24.483Z,,0,,,3518.3929999523098,completion,,,,,false,,,,174955.19999980927,174953.79999995232,171402.079,171414.39999985695,171435.407,175002.441,8,400,,,
trial,html.Screen,4_21_0,2023-10-31T17:18:27.966Z,,0,1,,3435.5590000000084,response,ISIC_1412843.JPG,5,ISIC_8626941.JPG,ISIC_8626941.JPG,false,0,keypress(z),500,178438.39999985695,178438,174952.425,174955.79999995232,175002.441,178485.971,8,400,22,,ISIC_1412843.JPG
break,html.Screen,4_21_1,2023-10-31T17:18:27.967Z,,0,,,NaN,,,,,,false,,,,178439.19999980927,178439.09999990463,,178438.5,,178485.971,8,400,,,
break_continue,html.Screen,4_21_2,2023-10-31T17:18:27.968Z,,0,,,NaN,,,,,,false,,,,178440.69999980927,178440,,178439.39999985695,,178485.971,8,400,,,
sequence,flow.Sequence,4_21,2023-10-31T17:18:27.969Z,,0,,,3437.5590000000084,completion,,,,,false,,,,178441.29999995232,178440,174952.425,174955.59999990463,175002.441,178485.971,8,400,,,
trial,html.Screen,4_22_0,2023-10-31T17:18:31.007Z,,0,1,,2992.628999904642,response,ISIC_9546876.JPG,12,ISIC_0046626.JPG,ISIC_0046626.JPG,false,0,keypress(z),500,181478.79999995232,181478.59999990463,178435.95,178442.09999990463,178485.971,181486.18,8,400,23,,ISIC_9546876.JPG
break,html.Screen,4_22_1,2023-10-31T17:18:31.007Z,,0,,,NaN,,,,,,false,,,,181479.69999980927,181479.5,,181479.09999990463,,181486.18,8,400,,,
break_continue,html.Screen,4_22_2,2023-10-31T17:18:31.008Z,,0,,,NaN,,,,,,false,,,,181480.19999980927,181480,,181479.89999985695,,181486.18,8,400,,,
sequence,flow.Sequence,4_22,2023-10-31T17:18:31.008Z,,0,,,2994.0290000000095,completion,,,,,false,,,,181480.29999995232,181480,178435.95,178442,178485.971,181486.18,8,400,,,
trial,html.Screen,4_23_0,2023-10-31T17:18:35.018Z,,0,1,,4004.1199999523233,response,ISIC_4874581.JPG,28,ISIC_6888402.JPG,ISIC_4874581.JPG,false,1,keypress(m),500,185490.59999990463,185490.29999995232,181470.133,181480.39999985695,181486.18,185536.951,8,400,24,,ISIC_6888402.JPG
break,html.Screen,4_23_1,2023-10-31T17:18:35.019Z,,0,,,NaN,,,,,,false,,,,185491.59999990463,185491.29999995232,,185490.79999995232,,185536.951,8,400,,,
break_continue,html.Screen,4_23_2,2023-10-31T17:18:35.020Z,,0,,,NaN,,,,,,false,,,,185491.89999985695,185491.79999995232,,185491.69999980927,,185536.951,8,400,,,
sequence,flow.Sequence,4_23,2023-10-31T17:18:35.020Z,,0,,,4005.6199999523233,completion,,,,,false,,,,185492.09999990463,185491.79999995232,181470.133,181480.29999995232,181486.18,185536.951,8,400,,,
trial,html.Screen,4_24_0,2023-10-31T17:18:39.829Z,,0,1,,4763.948999856948,response,ISIC_5216586.JPG,13,ISIC_3597812.JPG,ISIC_3597812.JPG,false,0,keypress(z),500,190301.19999980927,190300.89999985695,185486.455,185492.19999980927,185536.951,190320.563,8,400,25,,ISIC_5216586.JPG
break,html.Screen,4_24_1,2023-10-31T17:18:39.830Z,,0,,,NaN,,,,,,false,,,,190302.09999990463,190301.89999985695,,190301.39999985695,,190320.563,8,400,,,
break_continue,html.Screen,4_24_2,2023-10-31T17:18:39.830Z,,0,,,NaN,,,,,,false,,,,190302.39999985695,190302.29999995232,,190302.29999995232,,190320.563,8,400,,,
sequence,flow.Sequence,4_24,2023-10-31T17:18:39.830Z,,0,,,4765.348999952315,completion,,,,,false,,,,190302.59999990463,190302.29999995232,185486.455,185492.09999990463,185536.951,190320.563,8,400,,,
trial,html.Screen,4_25_0,2023-10-31T17:18:44.091Z,,0,1,,4242.036999904638,response,ISIC_0011227.JPG,25,ISIC_0000814.JPG,ISIC_0011227.JPG,false,1,keypress(m),500,194562.89999985695,194562.59999990463,190286.759,190302.69999980927,190320.563,194603.728,8,400,26,,ISIC_0000814.JPG
break,html.Screen,4_25_1,2023-10-31T17:18:44.091Z,,0,,,NaN,,,,,,false,,,,194563.69999980927,194563.59999990463,,194563.09999990463,,194603.728,8,400,,,
break_continue,html.Screen,4_25_2,2023-10-31T17:18:44.092Z,,0,,,NaN,,,,,,false,,,,194564.09999990463,194563.89999985695,,194563.89999985695,,194603.728,8,400,,,
sequence,flow.Sequence,4_25,2023-10-31T17:18:44.092Z,,0,,,4243.336999856954,completion,,,,,false,,,,194564.09999990463,194563.89999985695,190286.759,190302.69999980927,190320.563,194603.728,8,400,,,
trial,html.Screen,4_26_0,2023-10-31T17:18:47.846Z,,0,1,,3714.4719998092623,response,ISIC_0032590.JPG,7,ISIC_0691454.JPG,ISIC_0032590.JPG,false,1,keypress(m),500,198318.39999985695,198318.19999980927,194554.022,194564.19999980927,194603.728,198337.278,8,400,27,,ISIC_0691454.JPG
break,html.Screen,4_26_1,2023-10-31T17:18:47.847Z,,0,,,NaN,,,,,,false,,,,198319.5,198319.19999980927,,198318.59999990463,,198337.278,8,400,,,
break_continue,html.Screen,4_26_2,2023-10-31T17:18:47.848Z,,0,,,NaN,,,,,,false,,,,198320.5,198320,,198319.59999990463,,198337.278,8,400,,,
sequence,flow.Sequence,4_26,2023-10-31T17:18:47.849Z,,0,,,3716.271999999997,completion,,,,,false,,,,198321.39999985695,198320,194554.022,194564.19999980927,194603.728,198337.278,8,400,,,
trial,html.Screen,4_27_0,2023-10-31T17:18:52.341Z,,0,1,,4475.521999952325,response,ISIC_0065480.JPG,16,ISIC_0011289.JPG,ISIC_0065480.JPG,false,1,keypress(m),500,202813.09999990463,202812.79999995232,198304.423,198322.19999980927,198337.278,202854.267,8,400,28,,ISIC_0011289.JPG
break,html.Screen,4_27_1,2023-10-31T17:18:52.342Z,,0,,,NaN,,,,,,false,,,,202814,202813.79999995232,,202813.29999995232,,202854.267,8,400,,,
break_continue,html.Screen,4_27_2,2023-10-31T17:18:52.344Z,,0,,,NaN,,,,,,false,,,,202815.79999995232,202815.19999980927,,202814.39999985695,,202854.267,8,400,,,
sequence,flow.Sequence,4_27,2023-10-31T17:18:52.344Z,,0,,,4477.921999809274,completion,,,,,false,,,,202816.59999990463,202815.19999980927,198304.423,198322,198337.278,202854.267,8,400,,,
trial,html.Screen,4_28_0,2023-10-31T17:18:58.158Z,,0,1,,5775.733000000007,response,ISIC_6829008.JPG,11,ISIC_0033024.JPG,ISIC_6829008.JPG,false,1,keypress(m),500,208630.39999985695,208630,202804.11,202817.19999980927,202854.267,208654.656,8,400,29,,ISIC_0033024.JPG
break,html.Screen,4_28_1,2023-10-31T17:18:58.159Z,,0,,,NaN,,,,,,false,,,,208631.29999995232,208631.19999980927,,208630.69999980927,,208654.656,8,400,,,
break_continue,html.Screen,4_28_2,2023-10-31T17:18:58.159Z,,0,,,NaN,,,,,,false,,,,208631.69999980927,208631.69999980927,,208631.5,,208654.656,8,400,,,
sequence,flow.Sequence,4_28,2023-10-31T17:18:58.160Z,,0,,,5777.432999809273,completion,,,,,false,,,,208631.79999995232,208631.69999980927,202804.11,202817,202854.267,208654.656,8,400,,,
trial,html.Screen,4_29_0,2023-10-31T17:19:03.267Z,,0,1,,5084.043999809277,response,ISIC_0067326.JPG,6,ISIC_0003159.JPG,ISIC_0003159.JPG,false,0,keypress(z),500,213739,213738.69999980927,208621.571,208631.89999985695,208654.656,213788.337,8,400,30,,ISIC_0067326.JPG
break,html.Screen,4_29_1,2023-10-31T17:19:03.268Z,,0,,,NaN,,,,,,false,,,,213740,213739.79999995232,,213739.19999980927,,213788.337,8,400,,,
break_continue,html.Screen,4_29_2,2023-10-31T17:19:03.269Z,,0,,,NaN,,,,,,false,,,,213741.5,213740.79999995232,,213740.19999980927,,213788.337,8,400,,,
sequence,flow.Sequence,4_29,2023-10-31T17:19:03.270Z,,0,,,5086.143999952328,completion,,,,,false,,,,213742.39999985695,213740.79999995232,208621.571,208631.89999985695,208654.656,213788.337,8,400,,,
trial,html.Screen,4_30_0,2023-10-31T17:19:07.187Z,,0,1,,3870.762999904633,response,ISIC_3114020.JPG,8,ISIC_5248948.JPG,ISIC_5248948.JPG,false,0,keypress(z),500,217659.39999985695,217659.09999990463,213738.696,213743.09999990463,213788.337,217705.22,8,400,31,,ISIC_3114020.JPG
break,html.Screen,4_30_1,2023-10-31T17:19:07.188Z,,0,,,NaN,,,,,,false,,,,217660.39999985695,217660.09999990463,,217659.59999990463,,217705.22,8,400,,,
break_continue,html.Screen,4_30_2,2023-10-31T17:19:07.189Z,,0,,,NaN,,,,,,false,,,,217660.79999995232,217660.69999980927,,217660.5,,217705.22,8,400,,,
sequence,flow.Sequence,4_30,2023-10-31T17:19:07.189Z,,0,,,3872.3629998092656,completion,,,,,false,,,,217660.79999995232,217660.69999980927,213738.696,213742.89999985695,213788.337,217705.22,8,400,,,
trial,html.Screen,4_31_0,2023-10-31T17:19:12.632Z,,0,1,,5398.779999999999,response,ISIC_0032089.JPG,25,ISIC_2071966.JPG,ISIC_0032089.JPG,false,1,keypress(m),500,223104.29999995232,223104,217655.442,217660.89999985695,217705.22,223155.821,8,400,32,,ISIC_2071966.JPG
break,html.Screen,4_31_1,2023-10-31T17:19:12.633Z,,0,,,NaN,,,,,,false,,,,223105.29999995232,223105,,223104.5,,223155.821,8,400,,,
break_continue,html.Screen,4_31_2,2023-10-31T17:19:12.633Z,,0,,,NaN,,,,,,false,,,,223105.59999990463,223105.5,,223105.39999985695,,223155.821,8,400,,,
sequence,flow.Sequence,4_31,2023-10-31T17:19:12.633Z,,0,,,5400.279999999999,completion,,,,,false,,,,223105.69999980927,223105.5,217655.442,217660.89999985695,217705.22,223155.821,8,400,,,
trial,html.Screen,4_32_0,2023-10-31T17:19:19.278Z,,0,1,,6593.679000000004,response,ISIC_3819893.JPG,6,ISIC_0013917.JPG,ISIC_0013917.JPG,false,0,keypress(z),500,229749.79999995232,229749.5,223089.442,223105.79999995232,223155.821,229789.422,8,400,33,,ISIC_3819893.JPG
break,html.Screen,4_32_1,2023-10-31T17:19:19.279Z,,0,,,NaN,,,,,,false,,,,229750.89999985695,229750.69999980927,,229750.09999990463,,229789.422,8,400,,,
break_continue,html.Screen,4_32_2,2023-10-31T17:19:19.280Z,,0,,,NaN,,,,,,false,,,,229752.5,229751.79999995232,,229751.19999980927,,229789.422,8,400,,,
sequence,flow.Sequence,4_32,2023-10-31T17:19:19.281Z,,0,,,6595.97899995232,completion,,,,,false,,,,229753.29999995232,229751.79999995232,223089.442,223105.69999980927,223155.821,229789.422,8,400,,,
trial,html.Screen,4_33_0,2023-10-31T17:19:24.168Z,,0,1,,4850.4779998569575,response,ISIC_8803600.JPG,7,ISIC_0025093.JPG,ISIC_8803600.JPG,false,1,keypress(m),500,234640.19999980927,234639.89999985695,229739.746,229753.69999980927,229789.422,234690.13,8,400,34,,ISIC_0025093.JPG
break,html.Screen,4_33_1,2023-10-31T17:19:24.169Z,,0,,,NaN,,,,,,false,,,,234641.29999995232,234641.09999990463,,234640.5,,234690.13,8,400,,,
break_continue,html.Screen,4_33_2,2023-10-31T17:19:24.170Z,,0,,,NaN,,,,,,false,,,,234642.5,234641.89999985695,,234641.39999985695,,234690.13,8,400,,,
sequence,flow.Sequence,4_33,2023-10-31T17:19:24.171Z,,0,,,4852.4779998569575,completion,,,,,false,,,,234643.29999995232,234641.89999985695,229739.746,229753.69999980927,229789.422,234690.13,8,400,,,
trial,html.Screen,4_34_0,2023-10-31T17:19:31.190Z,,0,1,,6972.169999952312,response,ISIC_3810274.JPG,9,ISIC_0011642.JPG,ISIC_3810274.JPG,false,1,keypress(m),500,241662.69999980927,241662.29999995232,234639.91,234644.09999990463,234690.13,241707.458,8,400,35,,ISIC_0011642.JPG
break,html.Screen,4_34_1,2023-10-31T17:19:31.192Z,,0,,,NaN,,,,,,false,,,,241663.79999995232,241663.59999990463,,241663,,241707.458,8,400,,,
break_continue,html.Screen,4_34_2,2023-10-31T17:19:31.193Z,,0,,,NaN,,,,,,false,,,,241665.29999995232,241664.69999980927,,241664.29999995232,,241707.458,8,400,,,
sequence,flow.Sequence,4_34,2023-10-31T17:19:31.194Z,,0,,,6974.5699998092605,completion,,,,,false,,,,241665.89999985695,241664.69999980927,234639.91,234643.89999985695,234690.13,241707.458,8,400,,,
trial,html.Screen,4_35_0,2023-10-31T17:19:34.725Z,,0,1,,3489.341999952303,response,ISIC_6469202.JPG,9,ISIC_1690909.JPG,ISIC_1690909.JPG,false,0,keypress(z),500,245197.19999980927,245196.79999995232,241656.708,241666.39999985695,241707.458,245240.704,8,400,36,,ISIC_6469202.JPG
break,html.Screen,4_35_1,2023-10-31T17:19:34.726Z,,0,,,NaN,,,,,,false,,,,245198.29999995232,245198,,245197.39999985695,,245240.704,8,400,,,
break_continue,html.Screen,4_35_2,2023-10-31T17:19:34.726Z,,0,,,NaN,,,,,,false,,,,245198.69999980927,245198.59999990463,,245198.39999985695,,245240.704,8,400,,,
sequence,flow.Sequence,4_35,2023-10-31T17:19:34.727Z,,0,,,3491.1419999046193,completion,,,,,false,,,,245198.79999995232,245198.59999990463,241656.708,241666.29999995232,241707.458,245240.704,8,400,,,
trial,html.Screen,4_36_0,2023-10-31T17:19:40.074Z,,0,1,,5305.595999952318,response,ISIC_3664380.JPG,1,ISIC_5555700.JPG,ISIC_5555700.JPG,false,0,keypress(z),500,250546.59999990463,250546.29999995232,245189.812,245198.89999985695,245240.704,250590.813,8,400,37,,ISIC_3664380.JPG
break,html.Screen,4_36_1,2023-10-31T17:19:40.075Z,,0,,,NaN,,,,,,false,,,,250547.5,250547.29999995232,,250546.89999985695,,250590.813,8,400,,,
break_continue,html.Screen,4_36_2,2023-10-31T17:19:40.077Z,,0,,,NaN,,,,,,false,,,,250549.59999990463,250548.89999985695,,250548.29999995232,,250590.813,8,400,,,
sequence,flow.Sequence,4_36,2023-10-31T17:19:40.078Z,,0,,,5308.195999856951,completion,,,,,false,,,,250550.59999990463,250548.89999985695,245189.812,245198.89999985695,245240.704,250590.813,8,400,,,
trial,html.Screen,4_37_0,2023-10-31T17:19:47.754Z,,0,1,,7634.786999904638,response,ISIC_0016131.JPG,9,ISIC_2006783.JPG,ISIC_0016131.JPG,false,1,keypress(m),500,258225.79999995232,258225.59999990463,250540.819,250551.19999980927,250590.813,258257.922,8,400,38,,ISIC_2006783.JPG
break,html.Screen,4_37_1,2023-10-31T17:19:47.755Z,,0,,,NaN,,,,,,false,,,,258226.89999985695,258226.69999980927,,258226.09999990463,,258257.922,8,400,,,
break_continue,html.Screen,4_37_2,2023-10-31T17:19:47.755Z,,0,,,NaN,,,,,,false,,,,258227.29999995232,258227.19999980927,,258227.09999990463,,258257.922,8,400,,,
sequence,flow.Sequence,4_37,2023-10-31T17:19:47.755Z,,0,,,7636.3869998092705,completion,,,,,false,,,,258227.39999985695,258227.19999980927,250540.819,250551.09999990463,250590.813,258257.922,8,400,,,
trial,html.Screen,4_38_0,2023-10-31T17:19:51.805Z,,0,1,,4019.4779998569575,response,ISIC_5468164.JPG,9,ISIC_1772828.JPG,ISIC_5468164.JPG,false,1,keypress(m),500,262277.59999990463,262277.39999985695,258224.668,258227.39999985695,258257.922,262324.916,8,400,39,,ISIC_1772828.JPG
break,html.Screen,4_38_1,2023-10-31T17:19:51.806Z,,0,,,NaN,,,,,,false,,,,262278.5,262278.2999999523,,262277.7999999523,,262324.916,8,400,,,
break_continue,html.Screen,4_38_2,2023-10-31T17:19:51.808Z,,0,,,NaN,,,,,,false,,,,262280.5,262279.59999990463,,262278.89999985695,,262324.916,8,400,,,
sequence,flow.Sequence,4_38,2023-10-31T17:19:51.809Z,,0,,,4021.677999904641,completion,,,,,false,,,,262281.39999985695,262279.59999990463,258224.668,258227.39999985695,258257.922,262324.916,8,400,,,
trial,html.Screen,4_39_0,2023-10-31T17:19:56.078Z,,0,1,,4224.783999809239,response,ISIC_8207162.JPG,14,ISIC_4071825.JPG,ISIC_8207162.JPG,false,1,keypress(m),500,266550,266549.69999980927,262275.02,262282,262324.916,266592.035,8,400,40,,ISIC_4071825.JPG
break,html.Screen,4_39_1,2023-10-31T17:19:56.079Z,,0,,,NaN,,,,,,false,,,,266550.89999985695,266550.69999980927,,266550.19999980927,,266592.035,8,400,,,
break_continue,html.Screen,4_39_2,2023-10-31T17:19:56.079Z,,0,,,NaN,,,,,,false,,,,266551.2999999523,266551.09999990463,,266551.09999990463,,266592.035,8,400,,,
sequence,flow.Sequence,4_39,2023-10-31T17:19:56.079Z,,0,,,4226.183999904606,completion,,,,,false,,,,266551.39999985695,266551.09999990463,262275.02,262281.7999999523,262324.916,266592.035,8,400,,,
trial,html.Screen,4_40_0,2023-10-31T17:20:00.036Z,,0,1,,3916.3649998569745,response,ISIC_5122220.JPG,8,ISIC_9448281.JPG,ISIC_9448281.JPG,false,0,keypress(z),500,270508.69999980927,270508.39999985695,266541.377,266551.5,266592.035,270558.721,8,400,41,,ISIC_5122220.JPG
break,html.Screen,4_40_1,2023-10-31T17:20:00.038Z,,0,,,NaN,,,,,,false,,,,270509.89999985695,270509.5,,270508.89999985695,,270558.721,8,400,,,
break_continue,html.Screen,4_40_2,2023-10-31T17:20:00.038Z,,0,,,NaN,,,,,,false,,,,270510.2999999523,270510.19999980927,,270510,,270558.721,8,400,,,
sequence,flow.Sequence,4_40,2023-10-31T17:20:00.038Z,,0,,,3918.1649998092907,completion,,,,,false,,,,270510.39999985695,270510.19999980927,266541.377,266551.5,266592.035,270558.721,8,400,,,
trial,html.Screen,4_41_0,2023-10-31T17:20:04.208Z,,0,1,,4121.378999904613,response,ISIC_0062547.JPG,9,ISIC_0028462.JPG,ISIC_0028462.JPG,false,0,keypress(z),500,274680.2999999523,274680.09999990463,270509.136,270510.5,270558.721,274725.788,8,400,42,,ISIC_0062547.JPG
break,html.Screen,4_41_1,2023-10-31T17:20:04.209Z,,0,,,NaN,,,,,,false,,,,274681.39999985695,274681.09999990463,,274680.5,,274725.788,8,400,,,
break_continue,html.Screen,4_41_2,2023-10-31T17:20:04.211Z,,0,,,NaN,,,,,,false,,,,274683.69999980927,274682.89999985695,,274682.09999990463,,274725.788,8,400,,,
sequence,flow.Sequence,4_41,2023-10-31T17:20:04.212Z,,0,,,4124.178999856929,completion,,,,,false,,,,274684.09999990463,274682.89999985695,270509.136,270510.5,270558.721,274725.788,8,400,,,
trial,html.Screen,4_42_0,2023-10-31T17:20:08.655Z,,0,1,,4401.611999856948,response,ISIC_0031935.JPG,12,ISIC_1461507.JPG,ISIC_1461507.JPG,false,0,keypress(z),500,279127.69999980927,279127.39999985695,274677.289,274684.39999985695,274725.788,279176.362,8,400,43,,ISIC_0031935.JPG
break,html.Screen,4_42_1,2023-10-31T17:20:08.657Z,,0,,,NaN,,,,,,false,,,,279129,279128.5,,279127.89999985695,,279176.362,8,400,,,
break_continue,html.Screen,4_42_2,2023-10-31T17:20:08.657Z,,0,,,NaN,,,,,,false,,,,279129.39999985695,279129.19999980927,,279129.09999990463,,279176.362,8,400,,,
sequence,flow.Sequence,4_42,2023-10-31T17:20:08.657Z,,0,,,4403.411999809265,completion,,,,,false,,,,279129.5,279129.19999980927,274677.289,274684.19999980927,274725.788,279176.362,8,400,,,
trial,html.Screen,4_43_0,2023-10-31T17:20:12.728Z,,0,1,,4023.137999999977,response,ISIC_0067979.JPG,7,ISIC_6828892.JPG,ISIC_0067979.JPG,false,1,keypress(m),500,283199.7999999523,283199.5,279126.339,279129.59999990463,279176.362,283243.031,8,400,44,,ISIC_6828892.JPG
break,html.Screen,4_43_1,2023-10-31T17:20:12.729Z,,0,,,NaN,,,,,,false,,,,283200.69999980927,283200.5,,283200,,283243.031,8,400,,,
break_continue,html.Screen,4_43_2,2023-10-31T17:20:12.729Z,,0,,,NaN,,,,,,false,,,,283201.09999990463,283201,,283200.89999985695,,283243.031,8,400,,,
sequence,flow.Sequence,4_43,2023-10-31T17:20:12.729Z,,0,,,4024.637999999977,completion,,,,,false,,,,283201.19999980927,283201,279126.339,279129.59999990463,279176.362,283243.031,8,400,,,
trial,html.Screen,4_44_0,2023-10-31T17:20:16.237Z,,0,1,,3466.268999952299,response,ISIC_5755836.JPG,0,ISIC_9024724.JPG,ISIC_9024724.JPG,false,0,keypress(z),500,286709.59999990463,286709.2999999523,283192.868,283201.2999999523,283243.031,286759.892,8,400,45,,ISIC_5755836.JPG
break,html.Screen,4_44_1,2023-10-31T17:20:16.239Z,,0,,,NaN,,,,,,false,,,,286711.2999999523,286710.69999980927,,286710,,286759.892,8,400,,,
break_continue,html.Screen,4_44_2,2023-10-31T17:20:16.241Z,,0,,,NaN,,,,,,false,,,,286713.5,286712.7999999523,,286712.19999980927,,286759.892,8,400,,,
sequence,flow.Sequence,4_44,2023-10-31T17:20:16.242Z,,0,,,3469.768999952299,completion,,,,,false,,,,286714.39999985695,286712.7999999523,283192.868,283201.19999980927,283243.031,286759.892,8,400,,,
trial,html.Screen,4_45_0,2023-10-31T17:20:20.077Z,,0,1,,3788.70799990464,response,ISIC_0055289.JPG,8,ISIC_0063493.JPG,ISIC_0063493.JPG,false,0,keypress(z),500,290548.7999999523,290548.59999990463,286709.977,286715.09999990463,286759.892,290594.115,8,400,46,,ISIC_0055289.JPG
break,html.Screen,4_45_1,2023-10-31T17:20:20.078Z,,0,,,NaN,,,,,,false,,,,290550.2999999523,290550,,290549.39999985695,,290594.115,8,400,,,
break_continue,html.Screen,4_45_2,2023-10-31T17:20:20.078Z,,0,,,NaN,,,,,,false,,,,290550.59999990463,290550.5,,290550.39999985695,,290594.115,8,400,,,
sequence,flow.Sequence,4_45,2023-10-31T17:20:20.079Z,,0,,,3790.6080000000075,completion,,,,,false,,,,290550.69999980927,290550.5,286709.977,286714.89999985695,286759.892,290594.115,8,400,,,
trial,html.Screen,4_46_0,2023-10-31T17:20:25.416Z,,0,1,,5294.084999809274,response,ISIC_8521610.JPG,7,ISIC_4216750.JPG,ISIC_8521610.JPG,false,1,keypress(m),500,295888.59999990463,295888.19999980927,290543.839,290550.7999999523,290594.115,295927.16,8,400,47,,ISIC_4216750.JPG
break,html.Screen,4_46_1,2023-10-31T17:20:25.418Z,,0,,,NaN,,,,,,false,,,,295889.7999999523,295889.59999990463,,295888.7999999523,,295927.16,8,400,,,
break_continue,html.Screen,4_46_2,2023-10-31T17:20:25.418Z,,0,,,NaN,,,,,,false,,,,295890.09999990463,295890.09999990463,,295890,,295927.16,8,400,,,
sequence,flow.Sequence,4_46,2023-10-31T17:20:25.418Z,,0,,,5295.984999904642,completion,,,,,false,,,,295890.19999980927,295890.09999990463,290543.839,290550.7999999523,290594.115,295927.16,8,400,,,
trial,html.Screen,4_47_0,2023-10-31T17:20:28.622Z,,0,1,,3167.2399998569745,response,ISIC_0028415.JPG,5,ISIC_0031013.JPG,ISIC_0031013.JPG,false,0,keypress(z),500,299094.59999990463,299094.39999985695,295876.631,295890.2999999523,295927.16,299144.076,8,400,48,,ISIC_0028415.JPG
break,html.Screen,4_47_1,2023-10-31T17:20:28.624Z,,0,,,NaN,,,,,,false,,,,299095.89999985695,299095.5,,299094.7999999523,,299144.076,8,400,,,
break_continue,html.Screen,4_47_2,2023-10-31T17:20:28.624Z,,0,,,NaN,,,,,,false,,,,299096.19999980927,299096.09999990463,,299095.89999985695,,299144.076,8,400,,,
sequence,flow.Sequence,4_47,2023-10-31T17:20:28.624Z,,0,,,3168.939999904658,completion,,,,,false,,,,299096.19999980927,299096.09999990463,295876.631,295890.2999999523,295927.16,299144.076,8,400,,,
trial,html.Screen,4_48_0,2023-10-31T17:20:32.549Z,,0,1,,3876.923999999999,response,ISIC_2937407.JPG,6,ISIC_7680333.JPG,ISIC_7680333.JPG,false,0,keypress(z),500,303021.2999999523,303021,299094.665,299096.2999999523,299144.076,303061.478,8,400,49,,ISIC_2937407.JPG
break,html.Screen,4_48_1,2023-10-31T17:20:32.550Z,,0,,,NaN,,,,,,false,,,,303022.2999999523,303022,,303021.59999990463,,303061.478,8,400,,,
break_continue,html.Screen,4_48_2,2023-10-31T17:20:32.550Z,,0,,,NaN,,,,,,false,,,,303022.5,303022.5,,303022.39999985695,,303061.478,8,400,,,
sequence,flow.Sequence,4_48,2023-10-31T17:20:32.550Z,,0,,,3878.423999999999,completion,,,,,false,,,,303022.59999990463,303022.5,299094.665,299096.19999980927,299144.076,303061.478,8,400,,,
trial,html.Screen,4_49_0,2023-10-31T17:20:41.196Z,,0,1,,8606.821999952313,response,ISIC_0034239.JPG,5,ISIC_1193108.JPG,ISIC_1193108.JPG,false,0,keypress(z),500,311668.69999980927,311668.2999999523,303011.488,303022.69999980927,303061.478,311711.888,8,400,50,,ISIC_0034239.JPG
break,html.Screen,4_49_1,2023-10-31T17:20:51.225Z,,0,,,10000.26900000003,timeout,,,,,false,,,,321697.2999999523,321695.924,311661.668,311668.89999985695,311711.888,321712.157,8,400,,,
break_continue,html.Screen,4_49_2,2023-10-31T17:20:53.823Z,,0,,,2570.1429999523098,response,,,,,false,continue,keypress(Space),,324295.19999980927,324282.2999999523,321695.924,321697.39999985695,321712.157,324345.737,8,400,,,
sequence,flow.Sequence,4_49,2023-10-31T17:20:53.823Z,,0,,,21220.821999952313,completion,,,,,false,,,,324295.5,324282.2999999523,303011.488,303022.69999980927,303061.478,324345.737,8,400,,,
trial,html.Screen,4_50_0,2023-10-31T17:20:59.054Z,,0,2,,5180.86299990461,response,ISIC_0327225.JPG,8,ISIC_0034052.JPG,ISIC_0327225.JPG,false,1,keypress(m),500,329526.7999999523,329526.59999990463,324295.917,324295.59999990463,324345.737,329562.609,8,400,1,,ISIC_0034052.JPG
break,html.Screen,4_50_1,2023-10-31T17:20:59.056Z,,0,,,NaN,,,,,,false,,,,329528.19999980927,329527.69999980927,,329527.09999990463,,329562.609,8,400,,,
break_continue,html.Screen,4_50_2,2023-10-31T17:20:59.057Z,,0,,,NaN,,,,,,false,,,,329529.2999999523,329529.19999980927,,329528.7999999523,,329562.609,8,400,,,
sequence,flow.Sequence,4_50,2023-10-31T17:20:59.057Z,,0,,,5183.462999809242,completion,,,,,false,,,,329529.39999985695,329529.19999980927,324295.917,324295.5,324345.737,329562.609,8,400,,,
trial,html.Screen,4_51_0,2023-10-31T17:21:02.451Z,,0,2,,3360.790999856952,response,ISIC_5755836.JPG,28,ISIC_5055871.JPG,ISIC_5055871.JPG,false,0,keypress(z),500,332923.69999980927,332923.39999985695,329512.688,329529.39999985695,329562.609,332929.667,8,400,2,,ISIC_5755836.JPG
break,html.Screen,4_51_1,2023-10-31T17:21:02.453Z,,0,,,NaN,,,,,,false,,,,332924.89999985695,332924.59999990463,,332924,,332929.667,8,400,,,
break_continue,html.Screen,4_51_2,2023-10-31T17:21:02.453Z,,0,,,NaN,,,,,,false,,,,332925.39999985695,332925.19999980927,,332925,,332929.667,8,400,,,
sequence,flow.Sequence,4_51,2023-10-31T17:21:02.453Z,,0,,,3362.5909998092684,completion,,,,,false,,,,332925.5,332925.19999980927,329512.688,329529.39999985695,329562.609,332929.667,8,400,,,
trial,html.Screen,4_52_0,2023-10-31T17:21:07.306Z,,0,2,,4847.932999904617,response,ISIC_0026963.JPG,7,ISIC_9935444.JPG,ISIC_0026963.JPG,false,1,keypress(m),500,337777.89999985695,337777.59999990463,332913.115,332925.59999990463,332929.667,337780.023,8,400,3,,ISIC_9935444.JPG
break,html.Screen,4_52_1,2023-10-31T17:21:07.307Z,,0,,,NaN,,,,,,false,,,,337779,337778.7999999523,,337778.09999990463,,337780.023,8,400,,,
break_continue,html.Screen,4_52_2,2023-10-31T17:21:07.307Z,,0,,,NaN,,,,,,false,,,,337779.39999985695,337779.2999999523,,337779.19999980927,,337780.023,8,400,,,
sequence,flow.Sequence,4_52,2023-10-31T17:21:07.307Z,,0,,,4849.6329999523,completion,,,,,false,,,,337779.5,337779.2999999523,332913.115,332925.59999990463,332929.667,337780.023,8,400,,,
trial,html.Screen,4_53_0,2023-10-31T17:21:11.006Z,,0,2,,3697.576999904646,response,ISIC_0066483.JPG,0,ISIC_0028612.JPG,ISIC_0028612.JPG,false,0,keypress(z),500,341477.89999985695,341477.59999990463,337763.057,337779.59999990463,337780.023,341530.194,8,400,4,,ISIC_0066483.JPG
break,html.Screen,4_53_1,2023-10-31T17:21:11.007Z,,0,,,NaN,,,,,,false,,,,341478.89999985695,341478.69999980927,,341478.09999990463,,341530.194,8,400,,,
break_continue,html.Screen,4_53_2,2023-10-31T17:21:11.007Z,,0,,,NaN,,,,,,false,,,,341479.39999985695,341479.2999999523,,341479.19999980927,,341530.194,8,400,,,
sequence,flow.Sequence,4_53,2023-10-31T17:21:11.007Z,,0,,,3699.27699995233,completion,,,,,false,,,,341479.59999990463,341479.2999999523,337763.057,337779.59999990463,337780.023,341530.194,8,400,,,
trial,html.Screen,4_54_0,2023-10-31T17:21:16.740Z,,0,2,,5681.905999904615,response,ISIC_0001102.JPG,10,ISIC_1788979.JPG,ISIC_1788979.JPG,false,0,keypress(z),500,347212.59999990463,347212.09999990463,341463.679,341479.59999990463,341530.194,347264.251,8,400,5,,ISIC_0001102.JPG
break,html.Screen,4_54_1,2023-10-31T17:21:16.741Z,,0,,,NaN,,,,,,false,,,,347213.5,347213.2999999523,,347212.69999980927,,347264.251,8,400,,,
break_continue,html.Screen,4_54_2,2023-10-31T17:21:16.742Z,,0,,,NaN,,,,,,false,,,,347213.89999985695,347213.7999999523,,347213.59999990463,,347264.251,8,400,,,
sequence,flow.Sequence,4_54,2023-10-31T17:21:16.742Z,,0,,,5683.605999952299,completion,,,,,false,,,,347214,347213.7999999523,341463.679,341479.59999990463,341530.194,347264.251,8,400,,,
trial,html.Screen,4_55_0,2023-10-31T17:21:21.209Z,,0,2,,4416.948999809276,response,ISIC_9613570.JPG,11,ISIC_9895436.JPG,ISIC_9895436.JPG,false,0,keypress(z),500,351681.5,351681.19999980927,347197.355,347214.09999990463,347264.251,351730.983,8,400,6,,ISIC_9613570.JPG
break,html.Screen,4_55_1,2023-10-31T17:21:21.210Z,,0,,,NaN,,,,,,false,,,,351682.59999990463,351682.2999999523,,351681.69999980927,,351730.983,8,400,,,
break_continue,html.Screen,4_55_2,2023-10-31T17:21:21.211Z,,0,,,NaN,,,,,,false,,,,351683,351682.89999985695,,351682.7999999523,,351730.983,8,400,,,
sequence,flow.Sequence,4_55,2023-10-31T17:21:21.211Z,,0,,,4418.64899985696,completion,,,,,false,,,,351683,351682.89999985695,347197.355,347214.09999990463,347264.251,351730.983,8,400,,,
trial,html.Screen,4_56_0,2023-10-31T17:21:25.138Z,,0,2,,3879.116999904625,response,ISIC_0056860.JPG,10,ISIC_0066379.JPG,ISIC_0066379.JPG,false,0,keypress(z),500,355610.5,355610.09999990463,351681.243,351683.09999990463,351730.983,355648.152,8,400,7,,ISIC_0056860.JPG
break,html.Screen,4_56_1,2023-10-31T17:21:25.139Z,,0,,,NaN,,,,,,false,,,,355611.5,355611.2999999523,,355610.69999980927,,355648.152,8,400,,,
break_continue,html.Screen,4_56_2,2023-10-31T17:21:25.140Z,,0,,,NaN,,,,,,false,,,,355612,355611.7999999523,,355611.69999980927,,355648.152,8,400,,,
sequence,flow.Sequence,4_56,2023-10-31T17:21:25.140Z,,0,,,3880.816999952309,completion,,,,,false,,,,355612.09999990463,355611.7999999523,351681.243,351683.09999990463,351730.983,355648.152,8,400,,,
trial,html.Screen,4_57_0,2023-10-31T17:21:29.597Z,,0,2,,4420.547999809263,response,ISIC_0011177.JPG,9,ISIC_7680333.JPG,ISIC_7680333.JPG,false,0,keypress(z),500,360069.09999990463,360068.69999980927,355598.007,355612.19999980927,355648.152,360114.802,8,400,8,,ISIC_0011177.JPG
break,html.Screen,4_57_1,2023-10-31T17:21:29.598Z,,0,,,NaN,,,,,,false,,,,360070,360069.7999999523,,360069.19999980927,,360114.802,8,400,,,
break_continue,html.Screen,4_57_2,2023-10-31T17:21:29.599Z,,0,,,NaN,,,,,,false,,,,360071.59999990463,360070.89999985695,,360070.2999999523,,360114.802,8,400,,,
sequence,flow.Sequence,4_57,2023-10-31T17:21:29.600Z,,0,,,4422.747999856947,completion,,,,,false,,,,360072.5,360070.89999985695,355598.007,355612.19999980927,355648.152,360114.802,8,400,,,
trial,html.Screen,4_58_0,2023-10-31T17:21:35.065Z,,0,2,,5421.89799980924,response,ISIC_6020636.JPG,21,ISIC_3188062.JPG,ISIC_6020636.JPG,false,1,keypress(m),500,365537,365536.69999980927,360065.3,360073,360114.802,365565.087,8,400,9,,ISIC_3188062.JPG
break,html.Screen,4_58_1,2023-10-31T17:21:35.065Z,,0,,,NaN,,,,,,false,,,,365537.7999999523,365537.69999980927,,365537.19999980927,,365565.087,8,400,,,
break_continue,html.Screen,4_58_2,2023-10-31T17:21:35.066Z,,0,,,NaN,,,,,,false,,,,365538.09999990463,365538,,365537.89999985695,,365565.087,8,400,,,
sequence,flow.Sequence,4_58,2023-10-31T17:21:35.066Z,,0,,,5423.197999999975,completion,,,,,false,,,,365538.19999980927,365538,360065.3,360072.7999999523,360114.802,365565.087,8,400,,,
trial,html.Screen,4_59_0,2023-10-31T17:21:39.570Z,,0,2,,4476.612999809266,response,ISIC_4894929.JPG,9,ISIC_8588033.JPG,ISIC_4894929.JPG,false,1,keypress(m),500,370042,370041.69999980927,365548.811,365538.2999999523,365565.087,370065.507,8,400,10,,ISIC_8588033.JPG
break,html.Screen,4_59_1,2023-10-31T17:21:39.570Z,,0,,,NaN,,,,,,false,,,,370042.7999999523,370042.69999980927,,370042.19999980927,,370065.507,8,400,,,
break_continue,html.Screen,4_59_2,2023-10-31T17:21:39.571Z,,0,,,NaN,,,,,,false,,,,370043.09999990463,370043,,370043,,370065.507,8,400,,,
sequence,flow.Sequence,4_59,2023-10-31T17:21:39.571Z,,0,,,4477.9130000000005,completion,,,,,false,,,,370043.2999999523,370043,365548.811,365538.2999999523,365565.087,370065.507,8,400,,,
trial,html.Screen,4_60_0,2023-10-31T17:21:43.415Z,,0,2,,3821.192999809282,response,ISIC_0025755.JPG,11,ISIC_0007029.JPG,ISIC_0007029.JPG,false,0,keypress(z),500,373886.89999985695,373886.69999980927,370049.141,370043.39999985695,370065.507,373915.62,8,400,11,,ISIC_0025755.JPG
break,html.Screen,4_60_1,2023-10-31T17:21:43.415Z,,0,,,NaN,,,,,,false,,,,373887.89999985695,373887.69999980927,,373887.19999980927,,373915.62,8,400,,,
break_continue,html.Screen,4_60_2,2023-10-31T17:21:43.417Z,,0,,,NaN,,,,,,false,,,,373889.09999990463,373888.5,,373888,,373915.62,8,400,,,
sequence,flow.Sequence,4_60,2023-10-31T17:21:43.417Z,,0,,,3822.9930000000168,completion,,,,,false,,,,373889.7999999523,373888.5,370049.141,370043.39999985695,370065.507,373915.62,8,400,,,
trial,html.Screen,4_61_0,2023-10-31T17:21:48.136Z,,0,2,,4692.57999980927,response,ISIC_0013651.JPG,8,ISIC_8190708.JPG,ISIC_8190708.JPG,false,0,keypress(z),500,378608.5,378608.19999980927,373882.399,373890.39999985695,373915.62,378649.652,8,400,12,,ISIC_0013651.JPG
break,html.Screen,4_61_1,2023-10-31T17:21:48.137Z,,0,,,NaN,,,,,,false,,,,378609.59999990463,378609.39999985695,,378608.7999999523,,378649.652,8,400,,,
break_continue,html.Screen,4_61_2,2023-10-31T17:21:48.139Z,,0,,,NaN,,,,,,false,,,,378611.2999999523,378610.59999990463,,378610.19999980927,,378649.652,8,400,,,
sequence,flow.Sequence,4_61,2023-10-31T17:21:48.140Z,,0,,,4694.979999904637,completion,,,,,false,,,,378612.19999980927,378610.59999990463,373882.399,373890.19999980927,373915.62,378649.652,8,400,,,
trial,html.Screen,4_62_0,2023-10-31T17:21:52.711Z,,0,2,,4533.547999809263,response,ISIC_2457859.JPG,18,ISIC_0014325.JPG,ISIC_2457859.JPG,false,1,keypress(m),500,383183.5,383183.19999980927,378599.488,378612.69999980927,378649.652,383233.27,8,400,13,,ISIC_0014325.JPG
break,html.Screen,4_62_1,2023-10-31T17:21:52.712Z,,0,,,NaN,,,,,,false,,,,383184.2999999523,383184.09999990463,,383183.59999990463,,383233.27,8,400,,,
break_continue,html.Screen,4_62_2,2023-10-31T17:21:52.712Z,,0,,,NaN,,,,,,false,,,,383184.59999990463,383184.59999990463,,383184.5,,383233.27,8,400,,,
sequence,flow.Sequence,4_62,2023-10-31T17:21:52.712Z,,0,,,4534.947999904631,completion,,,,,false,,,,383184.7999999523,383184.59999990463,378599.488,378612.5,378649.652,383233.27,8,400,,,
trial,html.Screen,4_63_0,2023-10-31T17:21:57.779Z,,0,2,,5017.4299998092465,response,ISIC_0027155.JPG,5,ISIC_0000538.JPG,ISIC_0000538.JPG,false,0,keypress(z),500,388251,388250.69999980927,383183.59,383184.89999985695,383233.27,388300.017,8,400,14,,ISIC_0027155.JPG
break,html.Screen,4_63_1,2023-10-31T17:21:57.780Z,,0,,,NaN,,,,,,false,,,,388252.09999990463,388251.89999985695,,388251.19999980927,,388300.017,8,400,,,
break_continue,html.Screen,4_63_2,2023-10-31T17:21:57.781Z,,0,,,NaN,,,,,,false,,,,388253.39999985695,388252.7999999523,,388252.2999999523,,388300.017,8,400,,,
sequence,flow.Sequence,4_63,2023-10-31T17:21:57.782Z,,0,,,5019.529999952298,completion,,,,,false,,,,388254.39999985695,388252.7999999523,383183.59,383184.7999999523,383233.27,388300.017,8,400,,,
trial,html.Screen,4_64_0,2023-10-31T17:22:02.930Z,,0,2,,5102.282999952324,response,ISIC_6870208.JPG,7,ISIC_1144024.JPG,ISIC_6870208.JPG,false,1,keypress(m),500,393402.59999990463,393402.2999999523,388250.62,388255.09999990463,388300.017,393450.346,8,400,15,,ISIC_1144024.JPG
break,html.Screen,4_64_1,2023-10-31T17:22:02.931Z,,0,,,NaN,,,,,,false,,,,393403.69999980927,393403.39999985695,,393402.89999985695,,393450.346,8,400,,,
break_continue,html.Screen,4_64_2,2023-10-31T17:22:02.932Z,,0,,,NaN,,,,,,false,,,,393404.19999980927,393404,,393403.89999985695,,393450.346,8,400,,,
sequence,flow.Sequence,4_64,2023-10-31T17:22:02.932Z,,0,,,5103.983000000007,completion,,,,,false,,,,393404.2999999523,393404,388250.62,388254.89999985695,388300.017,393450.346,8,400,,,
trial,html.Screen,4_65_0,2023-10-31T17:22:07.853Z,,0,2,,4874.753999904613,response,ISIC_4643298.JPG,7,ISIC_0012082.JPG,ISIC_0012082.JPG,false,0,keypress(z),500,398325.39999985695,398325.09999990463,393400.686,393404.39999985695,393450.346,398350.569,8,400,16,,ISIC_4643298.JPG
break,html.Screen,4_65_1,2023-10-31T17:22:07.854Z,,0,,,NaN,,,,,,false,,,,398326.5,398326.2999999523,,398325.59999990463,,398350.569,8,400,,,
break_continue,html.Screen,4_65_2,2023-10-31T17:22:07.854Z,,0,,,NaN,,,,,,false,,,,398326.7999999523,398326.7999999523,,398326.69999980927,,398350.569,8,400,,,
sequence,flow.Sequence,4_65,2023-10-31T17:22:07.855Z,,0,,,4876.453999952297,completion,,,,,false,,,,398327,398326.7999999523,393400.686,393404.2999999523,393450.346,398350.569,8,400,,,
trial,html.Screen,4_66_0,2023-10-31T17:22:12.197Z,,0,2,,4318.930999999982,response,ISIC_0030107.JPG,7,ISIC_6255494.JPG,ISIC_6255494.JPG,false,0,keypress(z),500,402669.69999980927,402669.5,398334.587,398327.09999990463,398350.569,402718.486,8,400,17,,ISIC_0030107.JPG
break,html.Screen,4_66_1,2023-10-31T17:22:12.198Z,,0,,,NaN,,,,,,false,,,,402670.59999990463,402670.39999985695,,402669.89999985695,,402718.486,8,400,,,
break_continue,html.Screen,4_66_2,2023-10-31T17:22:12.199Z,,0,,,NaN,,,,,,false,,,,402671.09999990463,402671,,402670.7999999523,,402718.486,8,400,,,
sequence,flow.Sequence,4_66,2023-10-31T17:22:12.199Z,,0,,,4320.430999999982,completion,,,,,false,,,,402671.2999999523,402671,398334.587,398327.09999990463,398350.569,402718.486,8,400,,,
trial,html.Screen,4_67_0,2023-10-31T17:22:16.093Z,,0,2,,3846.71399980929,response,ISIC_0027126.JPG,22,ISIC_4136591.JPG,ISIC_4136591.JPG,false,0,keypress(z),500,406565.5,406565.19999980927,402668.251,402671.2999999523,402718.486,406584.454,8,400,18,,ISIC_0027126.JPG
break,html.Screen,4_67_1,2023-10-31T17:22:16.094Z,,0,,,NaN,,,,,,false,,,,406566.59999990463,406566.19999980927,,406565.69999980927,,406584.454,8,400,,,
break_continue,html.Screen,4_67_2,2023-10-31T17:22:16.096Z,,0,,,NaN,,,,,,false,,,,406568.2999999523,406567.69999980927,,406566.89999985695,,406584.454,8,400,,,
sequence,flow.Sequence,4_67,2023-10-31T17:22:16.097Z,,0,,,3849.21399980929,completion,,,,,false,,,,406569.2999999523,406567.69999980927,402668.251,402671.2999999523,402718.486,406584.454,8,400,,,
trial,html.Screen,4_68_0,2023-10-31T17:22:21.801Z,,0,2,,5688.845999952289,response,ISIC_5964676.JPG,10,ISIC_2198823.JPG,ISIC_2198823.JPG,false,0,keypress(z),500,412273.69999980927,412273.2999999523,406551.284,406570.09999990463,406584.454,412318.291,8,400,19,,ISIC_5964676.JPG
break,html.Screen,4_68_1,2023-10-31T17:22:21.802Z,,0,,,NaN,,,,,,false,,,,412274.7999999523,412274.59999990463,,412273.89999985695,,412318.291,8,400,,,
break_continue,html.Screen,4_68_2,2023-10-31T17:22:21.804Z,,0,,,NaN,,,,,,false,,,,412276.59999990463,412275.89999985695,,412275.2999999523,,412318.291,8,400,,,
sequence,flow.Sequence,4_68,2023-10-31T17:22:21.805Z,,0,,,5691.445999856922,completion,,,,,false,,,,412277.59999990463,412275.89999985695,406551.284,406569.89999985695,406584.454,412318.291,8,400,,,
trial,html.Screen,4_69_0,2023-10-31T17:22:24.904Z,,0,2,,3058.0089999522897,response,ISIC_4692454.JPG,11,ISIC_0060297.JPG,ISIC_4692454.JPG,false,1,keypress(m),500,415376.5,415376.2999999523,412269.14,412278.2999999523,412318.291,415418.858,8,400,20,,ISIC_0060297.JPG
break,html.Screen,4_69_1,2023-10-31T17:22:24.905Z,,0,,,NaN,,,,,,false,,,,415377.5,415377.39999985695,,415376.69999980927,,415418.858,8,400,,,
break_continue,html.Screen,4_69_2,2023-10-31T17:22:24.905Z,,0,,,NaN,,,,,,false,,,,415377.89999985695,415377.7999999523,,415377.59999990463,,415418.858,8,400,,,
sequence,flow.Sequence,4_69,2023-10-31T17:22:24.906Z,,0,,,3059.5089999522897,completion,,,,,false,,,,415378,415377.7999999523,412269.14,412278.09999990463,412318.291,415418.858,8,400,,,
trial,html.Screen,4_70_0,2023-10-31T17:22:27.902Z,,0,2,,2954.8419998092577,response,ISIC_3520750.JPG,12,ISIC_0032516.JPG,ISIC_3520750.JPG,false,1,keypress(m),500,418374.09999990463,418373.69999980927,415368.619,415378.09999990463,415418.858,418419.028,8,400,21,,ISIC_0032516.JPG
break,html.Screen,4_70_1,2023-10-31T17:22:27.903Z,,0,,,NaN,,,,,,false,,,,418375,418374.7999999523,,418374.2999999523,,418419.028,8,400,,,
break_continue,html.Screen,4_70_2,2023-10-31T17:22:27.904Z,,0,,,NaN,,,,,,false,,,,418376.39999985695,418375.59999990463,,418375.09999990463,,418419.028,8,400,,,
sequence,flow.Sequence,4_70,2023-10-31T17:22:27.905Z,,0,,,2956.741999904625,completion,,,,,false,,,,418377.2999999523,418375.59999990463,415368.619,415378.09999990463,415418.858,418419.028,8,400,,,
trial,html.Screen,4_71_0,2023-10-31T17:22:34.062Z,,0,2,,6114.472000000009,response,ISIC_0072694.JPG,10,ISIC_0026890.JPG,ISIC_0026890.JPG,false,0,keypress(z),500,424533.89999985695,424533.5,418369.019,418377.7999999523,418419.028,424558.828,8,400,22,,ISIC_0072694.JPG
break,html.Screen,4_71_1,2023-10-31T17:22:34.063Z,,0,,,NaN,,,,,,false,,,,424535.19999980927,424534.7999999523,,424534.19999980927,,424558.828,8,400,,,
break_continue,html.Screen,4_71_2,2023-10-31T17:22:34.063Z,,0,,,NaN,,,,,,false,,,,424535.69999980927,424535.59999990463,,424535.39999985695,,424558.828,8,400,,,
sequence,flow.Sequence,4_71,2023-10-31T17:22:34.064Z,,0,,,6116.571999904641,completion,,,,,false,,,,424535.7999999523,424535.59999990463,418369.019,418377.69999980927,418419.028,424558.828,8,400,,,
trial,html.Screen,4_72_0,2023-10-31T17:22:37.242Z,,0,2,,3155.0719998569693,response,ISIC_0633835.JPG,10,ISIC_7973598.JPG,ISIC_0633835.JPG,false,1,keypress(m),500,427714.19999980927,427713.89999985695,424519.024,424536,424558.828,427752.647,8,400,23,,ISIC_7973598.JPG
break,html.Screen,4_72_1,2023-10-31T17:22:37.243Z,,0,,,NaN,,,,,,false,,,,427715.2999999523,427715.09999990463,,427714.39999985695,,427752.647,8,400,,,
break_continue,html.Screen,4_72_2,2023-10-31T17:22:37.243Z,,0,,,NaN,,,,,,false,,,,427715.69999980927,427715.5,,427715.5,,427752.647,8,400,,,
sequence,flow.Sequence,4_72,2023-10-31T17:22:37.244Z,,0,,,3156.6720000000205,completion,,,,,false,,,,427715.7999999523,427715.5,424519.024,424535.89999985695,424558.828,427752.647,8,400,,,
trial,html.Screen,4_73_0,2023-10-31T17:22:40.308Z,,0,2,,3027.7529998569516,response,ISIC_0097500.JPG,32,ISIC_4554381.JPG,ISIC_0097500.JPG,false,1,keypress(m),500,430780.69999980927,430780.39999985695,427703.394,427716,427752.647,430819.549,8,400,24,,ISIC_4554381.JPG
break,html.Screen,4_73_1,2023-10-31T17:22:40.309Z,,0,,,NaN,,,,,,false,,,,430781.69999980927,430781.5,,430780.89999985695,,430819.549,8,400,,,
break_continue,html.Screen,4_73_2,2023-10-31T17:22:40.310Z,,0,,,NaN,,,,,,false,,,,430782,430781.89999985695,,430781.7999999523,,430819.549,8,400,,,
sequence,flow.Sequence,4_73,2023-10-31T17:22:40.310Z,,0,,,3029.2529998569516,completion,,,,,false,,,,430782.09999990463,430781.89999985695,427703.394,427716,427752.647,430819.549,8,400,,,
trial,html.Screen,4_74_0,2023-10-31T17:22:45.868Z,,0,2,,5520.35099985695,response,ISIC_2524005.JPG,13,ISIC_0003851.JPG,ISIC_2524005.JPG,false,1,keypress(m),500,436340.19999980927,436339.89999985695,430769.7,430782.19999980927,430819.549,436386.545,8,400,25,,ISIC_0003851.JPG
break,html.Screen,4_74_1,2023-10-31T17:22:45.869Z,,0,,,NaN,,,,,,false,,,,436341.09999990463,436340.7999999523,,436340.2999999523,,436386.545,8,400,,,
break_continue,html.Screen,4_74_2,2023-10-31T17:22:45.871Z,,0,,,NaN,,,,,,false,,,,436342.7999999523,436342.09999990463,,436341.5,,436386.545,8,400,,,
sequence,flow.Sequence,4_74,2023-10-31T17:22:45.871Z,,0,,,5522.5509999046335,completion,,,,,false,,,,436343.59999990463,436342.09999990463,430769.7,430782.19999980927,430819.549,436386.545,8,400,,,
trial,html.Screen,4_75_0,2023-10-31T17:22:50.795Z,,0,2,,4880.754999952333,response,ISIC_4684860.JPG,8,ISIC_0030373.JPG,ISIC_0030373.JPG,false,0,keypress(z),500,441267.7999999523,441267.2999999523,436336.832,436343.69999980927,436386.545,441303.804,8,400,26,,ISIC_4684860.JPG
break,html.Screen,4_75_1,2023-10-31T17:22:50.796Z,,0,,,NaN,,,,,,false,,,,441268.7999999523,441268.5,,441267.89999985695,,441303.804,8,400,,,
break_continue,html.Screen,4_75_2,2023-10-31T17:22:50.797Z,,0,,,NaN,,,,,,false,,,,441269.19999980927,441269.09999990463,,441269,,441303.804,8,400,,,
sequence,flow.Sequence,4_75,2023-10-31T17:22:50.797Z,,0,,,4882.554999904649,completion,,,,,false,,,,441269.19999980927,441269.09999990463,436336.832,436343.69999980927,436386.545,441303.804,8,400,,,
trial,html.Screen,4_76_0,2023-10-31T17:22:54.545Z,,0,2,,3713.1959999999963,response,ISIC_6210962.JPG,10,ISIC_2259861.JPG,ISIC_2259861.JPG,false,0,keypress(z),500,445017.2999999523,445017,441253.673,441269.2999999523,441303.804,445020.404,8,400,27,,ISIC_6210962.JPG
break,html.Screen,4_76_1,2023-10-31T17:22:54.546Z,,0,,,NaN,,,,,,false,,,,445018.39999985695,445018.09999990463,,445017.5,,445020.404,8,400,,,
break_continue,html.Screen,4_76_2,2023-10-31T17:22:54.547Z,,0,,,NaN,,,,,,false,,,,445018.89999985695,445018.7999999523,,445018.59999990463,,445020.404,8,400,,,
sequence,flow.Sequence,4_76,2023-10-31T17:22:54.547Z,,0,,,3714.9959999523126,completion,,,,,false,,,,445019,445018.7999999523,441253.673,441269.2999999523,441303.804,445020.404,8,400,,,
trial,html.Screen,4_77_0,2023-10-31T17:22:59.160Z,,0,2,,4611.795999809285,response,ISIC_0025835.JPG,7,ISIC_0033059.JPG,ISIC_0033059.JPG,false,0,keypress(z),500,449632.59999990463,449632.19999980927,445004.301,445019.09999990463,445020.404,449670.702,8,400,28,,ISIC_0025835.JPG
break,html.Screen,4_77_1,2023-10-31T17:22:59.161Z,,0,,,NaN,,,,,,false,,,,449633.69999980927,449633.5,,449632.7999999523,,449670.702,8,400,,,
break_continue,html.Screen,4_77_2,2023-10-31T17:22:59.162Z,,0,,,NaN,,,,,,false,,,,449634.19999980927,449634.09999990463,,449633.89999985695,,449670.702,8,400,,,
sequence,flow.Sequence,4_77,2023-10-31T17:22:59.162Z,,0,,,4613.695999904652,completion,,,,,false,,,,449634.2999999523,449634.09999990463,445004.301,445019.09999990463,445020.404,449670.702,8,400,,,
trial,html.Screen,4_78_0,2023-10-31T17:23:02.451Z,,0,2,,3252.497999809275,response,ISIC_2784965.JPG,13,ISIC_0069475.JPG,ISIC_2784965.JPG,false,1,keypress(m),500,452923.5,452923.19999980927,449620.69,449634.39999985695,449670.702,452970.994,8,400,29,,ISIC_0069475.JPG
break,html.Screen,4_78_1,2023-10-31T17:23:02.453Z,,0,,,NaN,,,,,,false,,,,452925.09999990463,452924.39999985695,,452923.7999999523,,452970.994,8,400,,,
break_continue,html.Screen,4_78_2,2023-10-31T17:23:02.454Z,,0,,,NaN,,,,,,false,,,,452926.59999990463,452925.7999999523,,452925.39999985695,,452970.994,8,400,,,
sequence,flow.Sequence,4_78,2023-10-31T17:23:02.455Z,,0,,,3255.097999952326,completion,,,,,false,,,,452927.39999985695,452925.7999999523,449620.69,449634.39999985695,449670.702,452970.994,8,400,,,
trial,html.Screen,4_79_0,2023-10-31T17:23:06.975Z,,0,2,,4476.30599995231,response,ISIC_1595325.JPG,17,ISIC_6697013.JPG,ISIC_1595325.JPG,false,1,keypress(m),500,457447.59999990463,457447.2999999523,452921.019,452928,452970.994,457488.243,8,400,30,,ISIC_6697013.JPG
break,html.Screen,4_79_1,2023-10-31T17:23:06.976Z,,0,,,NaN,,,,,,false,,,,457448.39999985695,457448.19999980927,,457447.69999980927,,457488.243,8,400,,,
break_continue,html.Screen,4_79_2,2023-10-31T17:23:06.977Z,,0,,,NaN,,,,,,false,,,,457449.5,457449.19999980927,,457448.7999999523,,457488.243,8,400,,,
sequence,flow.Sequence,4_79,2023-10-31T17:23:06.978Z,,0,,,4478.205999809259,completion,,,,,false,,,,457450.5,457449.19999980927,452921.019,452927.7999999523,452970.994,457488.243,8,400,,,
trial,html.Screen,4_80_0,2023-10-31T17:23:10.799Z,,0,2,,3782.7569999999832,response,ISIC_3687259.JPG,8,ISIC_3506204.JPG,ISIC_3687259.JPG,false,1,keypress(m),500,461271.39999985695,461271,457438.418,457451,457488.243,461321.536,8,400,31,,ISIC_3506204.JPG
break,html.Screen,4_80_1,2023-10-31T17:23:10.800Z,,0,,,NaN,,,,,,false,,,,461272.39999985695,461272.19999980927,,461271.59999990463,,461321.536,8,400,,,
break_continue,html.Screen,4_80_2,2023-10-31T17:23:10.800Z,,0,,,NaN,,,,,,false,,,,461272.7999999523,461272.69999980927,,461272.5,,461321.536,8,400,,,
sequence,flow.Sequence,4_80,2023-10-31T17:23:10.801Z,,0,,,3784.4569998092484,completion,,,,,false,,,,461272.89999985695,461272.69999980927,457438.418,457451,457488.243,461321.536,8,400,,,
trial,html.Screen,4_81_0,2023-10-31T17:23:15.193Z,,0,2,,4343.763999952294,response,ISIC_0046222.JPG,10,ISIC_6813359.JPG,ISIC_0046222.JPG,false,1,keypress(m),500,465665.59999990463,465665.2999999523,461271.588,461272.89999985695,461321.536,465705.202,8,400,32,,ISIC_6813359.JPG
break,html.Screen,4_81_1,2023-10-31T17:23:15.194Z,,0,,,NaN,,,,,,false,,,,465666.59999990463,465666.39999985695,,465665.7999999523,,465705.202,8,400,,,
break_continue,html.Screen,4_81_2,2023-10-31T17:23:15.197Z,,0,,,NaN,,,,,,false,,,,465669.2999999523,465668.5,,465667.89999985695,,465705.202,8,400,,,
sequence,flow.Sequence,4_81,2023-10-31T17:23:15.198Z,,0,,,4346.963999999978,completion,,,,,false,,,,465670.2999999523,465668.5,461271.588,461272.89999985695,461321.536,465705.202,8,400,,,
trial,html.Screen,4_82_0,2023-10-31T17:23:18.899Z,,0,2,,3665.497999809275,response,ISIC_5758316.JPG,6,ISIC_3965087.JPG,ISIC_3965087.JPG,false,0,keypress(z),500,469371.09999990463,469370.69999980927,465655.324,465670.89999985695,465705.202,469388.728,8,400,33,,ISIC_5758316.JPG
break,html.Screen,4_82_1,2023-10-31T17:23:18.900Z,,0,,,NaN,,,,,,false,,,,469372.5,469372.09999990463,,469371.2999999523,,469388.728,8,400,,,
break_continue,html.Screen,4_82_2,2023-10-31T17:23:18.901Z,,0,,,NaN,,,,,,false,,,,469372.89999985695,469372.69999980927,,469372.69999980927,,469388.728,8,400,,,
sequence,flow.Sequence,4_82,2023-10-31T17:23:18.901Z,,0,,,3667.497999809275,completion,,,,,false,,,,469373.09999990463,469372.69999980927,465655.324,465670.7999999523,465705.202,469388.728,8,400,,,
trial,html.Screen,4_83_0,2023-10-31T17:23:22.553Z,,0,2,,3636.5719999523135,response,ISIC_0062537.JPG,10,ISIC_0054239.JPG,ISIC_0062537.JPG,false,1,keypress(m),500,473025.59999990463,473025.2999999523,469372.048,469373.19999980927,469388.728,473072.842,8,400,34,,ISIC_0054239.JPG
break,html.Screen,4_83_1,2023-10-31T17:23:22.554Z,,0,,,NaN,,,,,,false,,,,473026.5,473026.2999999523,,473025.7999999523,,473072.842,8,400,,,
break_continue,html.Screen,4_83_2,2023-10-31T17:23:22.555Z,,0,,,NaN,,,,,,false,,,,473027,473026.7999999523,,473026.69999980927,,473072.842,8,400,,,
sequence,flow.Sequence,4_83,2023-10-31T17:23:22.555Z,,0,,,3638.0719999523135,completion,,,,,false,,,,473027.09999990463,473026.7999999523,469372.048,469373.09999990463,469388.728,473072.842,8,400,,,
trial,html.Screen,4_84_0,2023-10-31T17:23:26.815Z,,0,2,,4214.157999999996,response,ISIC_4692454.JPG,5,ISIC_0030596.JPG,ISIC_0030596.JPG,false,0,keypress(z),500,477287.2999999523,477287,473022.33,473027.09999990463,473072.842,477289.191,8,400,35,,ISIC_4692454.JPG
break,html.Screen,4_84_1,2023-10-31T17:23:26.816Z,,0,,,NaN,,,,,,false,,,,477288.2999999523,477288,,477287.59999990463,,477289.191,8,400,,,
break_continue,html.Screen,4_84_2,2023-10-31T17:23:26.816Z,,0,,,NaN,,,,,,false,,,,477288.69999980927,477288.59999990463,,477288.5,,477289.191,8,400,,,
sequence,flow.Sequence,4_84,2023-10-31T17:23:26.817Z,,0,,,4215.757999904628,completion,,,,,false,,,,477288.89999985695,477288.59999990463,473022.33,473027.09999990463,473072.842,477289.191,8,400,,,
trial,html.Screen,4_85_0,2023-10-31T17:23:32.199Z,,0,2,,5381.608999952325,response,ISIC_6626544.JPG,14,ISIC_8211214.JPG,ISIC_8211214.JPG,false,0,keypress(z),500,482671.19999980927,482670.7999999523,477272.627,477289,477289.191,482722.997,8,400,36,,ISIC_6626544.JPG
break,html.Screen,4_85_1,2023-10-31T17:23:32.200Z,,0,,,NaN,,,,,,false,,,,482672,482671.89999985695,,482671.39999985695,,482722.997,8,400,,,
break_continue,html.Screen,4_85_2,2023-10-31T17:23:32.200Z,,0,,,NaN,,,,,,false,,,,482672.39999985695,482672.19999980927,,482672.09999990463,,482722.997,8,400,,,
sequence,flow.Sequence,4_85,2023-10-31T17:23:32.200Z,,0,,,5383.0089998092735,completion,,,,,false,,,,482672.59999990463,482672.19999980927,477272.627,477288.89999985695,477289.191,482722.997,8,400,,,
trial,html.Screen,4_86_0,2023-10-31T17:23:38.190Z,,0,2,,5939.503000000026,response,ISIC_9067033.JPG,8,ISIC_0033775.JPG,ISIC_0033775.JPG,false,0,keypress(z),500,488662.7999999523,488662.5,482656.797,482672.59999990463,482722.997,488673.458,8,400,37,,ISIC_9067033.JPG
break,html.Screen,4_86_1,2023-10-31T17:23:38.191Z,,0,,,NaN,,,,,,false,,,,488663.7999999523,488663.59999990463,,488663.09999990463,,488673.458,8,400,,,
break_continue,html.Screen,4_86_2,2023-10-31T17:23:38.192Z,,0,,,NaN,,,,,,false,,,,488664.19999980927,488664.09999990463,,488664,,488673.458,8,400,,,
sequence,flow.Sequence,4_86,2023-10-31T17:23:38.192Z,,0,,,5941.102999904659,completion,,,,,false,,,,488664.39999985695,488664.09999990463,482656.797,482672.59999990463,482722.997,488673.458,8,400,,,
trial,html.Screen,4_87_0,2023-10-31T17:23:42.022Z,,0,2,,3820.6419999046484,response,ISIC_3312201.JPG,4,ISIC_0069475.JPG,ISIC_3312201.JPG,false,1,keypress(m),500,492494.5,492494.09999990463,488656.654,488664.5,488673.458,492507.183,8,400,38,,ISIC_0069475.JPG
break,html.Screen,4_87_1,2023-10-31T17:23:42.023Z,,0,,,NaN,,,,,,false,,,,492495.5,492495.2999999523,,492494.59999990463,,492507.183,8,400,,,
break_continue,html.Screen,4_87_2,2023-10-31T17:23:42.024Z,,0,,,NaN,,,,,,false,,,,492496,492495.89999985695,,492495.69999980927,,492507.183,8,400,,,
sequence,flow.Sequence,4_87,2023-10-31T17:23:42.024Z,,0,,,3822.4419998569647,completion,,,,,false,,,,492496.19999980927,492495.89999985695,488656.654,488664.5,488673.458,492507.183,8,400,,,
trial,html.Screen,4_88_0,2023-10-31T17:23:46.096Z,,0,2,,4061.016999809246,response,ISIC_0255997.JPG,18,ISIC_0826998.JPG,ISIC_0255997.JPG,false,1,keypress(m),500,496568.5,496568.19999980927,492490.356,492496.19999980927,492507.183,496607.249,8,400,39,,ISIC_0826998.JPG
break,html.Screen,4_88_1,2023-10-31T17:23:46.097Z,,0,,,NaN,,,,,,false,,,,496569.39999985695,496569.09999990463,,496568.69999980927,,496607.249,8,400,,,
break_continue,html.Screen,4_88_2,2023-10-31T17:23:46.099Z,,0,,,NaN,,,,,,false,,,,496571,496570.2999999523,,496569.69999980927,,496607.249,8,400,,,
sequence,flow.Sequence,4_88,2023-10-31T17:23:46.099Z,,0,,,4063.116999952297,completion,,,,,false,,,,496571.69999980927,496570.2999999523,492490.356,492496.19999980927,492507.183,496607.249,8,400,,,
trial,html.Screen,4_89_0,2023-10-31T17:23:51.613Z,,0,2,,5477.350999904622,response,ISIC_0004728.JPG,8,ISIC_0029363.JPG,ISIC_0004728.JPG,false,1,keypress(m),500,502085,502084.59999990463,496557.233,496572.2999999523,496607.249,502091.016,8,400,40,,ISIC_0029363.JPG
break,html.Screen,4_89_1,2023-10-31T17:23:51.614Z,,0,,,NaN,,,,,,false,,,,502086,502085.7999999523,,502085.19999980927,,502091.016,8,400,,,
break_continue,html.Screen,4_89_2,2023-10-31T17:23:51.614Z,,0,,,NaN,,,,,,false,,,,502086.2999999523,502086.19999980927,,502086.09999990463,,502091.016,8,400,,,
sequence,flow.Sequence,4_89,2023-10-31T17:23:51.614Z,,0,,,5478.950999809254,completion,,,,,false,,,,502086.5,502086.19999980927,496557.233,496572.09999990463,496607.249,502091.016,8,400,,,
trial,html.Screen,4_90_0,2023-10-31T17:23:55.537Z,,0,2,,3917.683999809262,response,ISIC_0060719.JPG,7,ISIC_5363229.JPG,ISIC_5363229.JPG,false,0,keypress(z),500,506009,506008.69999980927,502074.281,502086.5,502091.016,506024.574,8,400,41,,ISIC_0060719.JPG
break,html.Screen,4_90_1,2023-10-31T17:23:55.538Z,,0,,,NaN,,,,,,false,,,,506010.19999980927,506009.7999999523,,506009.2999999523,,506024.574,8,400,,,
break_continue,html.Screen,4_90_2,2023-10-31T17:23:55.538Z,,0,,,NaN,,,,,,false,,,,506010.59999990463,506010.5,,506010.2999999523,,506024.574,8,400,,,
sequence,flow.Sequence,4_90,2023-10-31T17:23:55.538Z,,0,,,3919.4839999999967,completion,,,,,false,,,,506010.59999990463,506010.5,502074.281,502086.5,502091.016,506024.574,8,400,,,
trial,html.Screen,4_91_0,2023-10-31T17:23:59.305Z,,0,2,,3752.3259998569265,response,ISIC_0032419.JPG,4,ISIC_0032425.JPG,ISIC_0032425.JPG,false,0,keypress(z),500,509777.19999980927,509776.89999985695,506007.874,506010.7999999523,506024.574,509808.001,8,400,42,,ISIC_0032419.JPG
break,html.Screen,4_91_1,2023-10-31T17:23:59.306Z,,0,,,NaN,,,,,,false,,,,509778.19999980927,509778,,509777.2999999523,,509808.001,8,400,,,
break_continue,html.Screen,4_91_2,2023-10-31T17:23:59.306Z,,0,,,NaN,,,,,,false,,,,509778.59999990463,509778.39999985695,,509778.2999999523,,509808.001,8,400,,,
sequence,flow.Sequence,4_91,2023-10-31T17:23:59.306Z,,0,,,3753.8259998569265,completion,,,,,false,,,,509778.69999980927,509778.39999985695,506007.874,506010.69999980927,506024.574,509808.001,8,400,,,
trial,html.Screen,4_92_0,2023-10-31T17:24:04.127Z,,0,2,,4791.499000000011,response,ISIC_3452564.JPG,10,ISIC_0029157.JPG,ISIC_3452564.JPG,false,1,keypress(m),500,514599.7999999523,514599.5,509792.039,509778.7999999523,509808.001,514625.125,8,400,43,,ISIC_0029157.JPG
break,html.Screen,4_92_1,2023-10-31T17:24:04.128Z,,0,,,NaN,,,,,,false,,,,514600.69999980927,514600.59999990463,,514600,,514625.125,8,400,,,
break_continue,html.Screen,4_92_2,2023-10-31T17:24:04.129Z,,0,,,NaN,,,,,,false,,,,514601.09999990463,514601,,514600.89999985695,,514625.125,8,400,,,
sequence,flow.Sequence,4_92,2023-10-31T17:24:04.129Z,,0,,,4792.999000000011,completion,,,,,false,,,,514601.19999980927,514601,509792.039,509778.7999999523,509808.001,514625.125,8,400,,,
trial,html.Screen,4_93_0,2023-10-31T17:24:07.572Z,,0,2,,3418.6749999523163,response,ISIC_9382494.JPG,22,ISIC_0013733.JPG,ISIC_0013733.JPG,false,0,keypress(z),500,518044,518043.7999999523,514592.127,514601.2999999523,514625.125,518091.971,8,400,44,,ISIC_9382494.JPG
break,html.Screen,4_93_1,2023-10-31T17:24:07.573Z,,0,,,NaN,,,,,,false,,,,518045.39999985695,518044.89999985695,,518044.2999999523,,518091.971,8,400,,,
break_continue,html.Screen,4_93_2,2023-10-31T17:24:07.575Z,,0,,,NaN,,,,,,false,,,,518047.5,518046.7999999523,,518046.09999990463,,518091.971,8,400,,,
sequence,flow.Sequence,4_93,2023-10-31T17:24:07.576Z,,0,,,3421.6749999523163,completion,,,,,false,,,,518048.5,518046.7999999523,514592.127,514601.19999980927,514625.125,518091.971,8,400,,,
trial,html.Screen,4_94_0,2023-10-31T17:24:11.038Z,,0,2,,3418.3289999522967,response,ISIC_4646815.JPG,12,ISIC_3761253.JPG,ISIC_3761253.JPG,false,0,keypress(z),500,521510.5,521510.2999999523,518041.94,518049.19999980927,518091.971,521542.144,8,400,45,,ISIC_4646815.JPG
break,html.Screen,4_94_1,2023-10-31T17:24:11.039Z,,0,,,NaN,,,,,,false,,,,521511.39999985695,521511.2999999523,,521510.69999980927,,521542.144,8,400,,,
break_continue,html.Screen,4_94_2,2023-10-31T17:24:11.039Z,,0,,,NaN,,,,,,false,,,,521511.7999999523,521511.69999980927,,521511.59999990463,,521542.144,8,400,,,
sequence,flow.Sequence,4_94,2023-10-31T17:24:11.040Z,,0,,,3419.7289998092456,completion,,,,,false,,,,521511.89999985695,521511.69999980927,518041.94,518048.89999985695,518091.971,521542.144,8,400,,,
trial,html.Screen,4_95_0,2023-10-31T17:24:14.229Z,,0,2,,3158.4559999046614,response,ISIC_4679971.JPG,10,ISIC_7296201.JPG,ISIC_4679971.JPG,false,1,keypress(m),500,524700.899999857,524700.5999999046,521509.006,521512,521542.144,524709.172,8,400,46,,ISIC_7296201.JPG
break,html.Screen,4_95_1,2023-10-31T17:24:14.230Z,,0,,,NaN,,,,,,false,,,,524702,524701.6999998093,,524701.1999998093,,524709.172,8,400,,,
break_continue,html.Screen,4_95_2,2023-10-31T17:24:14.230Z,,0,,,NaN,,,,,,false,,,,524702.5,524702.5,,524702.1999998093,,524709.172,8,400,,,
sequence,flow.Sequence,4_95,2023-10-31T17:24:14.230Z,,0,,,3160.356000000029,completion,,,,,false,,,,524702.7999999523,524702.5,521509.006,521512,521542.144,524709.172,8,400,,,
trial,html.Screen,4_96_0,2023-10-31T17:24:19.038Z,,0,2,,4800.627999952296,response,ISIC_0011546.JPG,5,ISIC_0010768.JPG,ISIC_0010768.JPG,false,0,keypress(z),500,529510.1999998093,529509.7999999523,524692.397,524702.7999999523,524709.172,529526.084,8,400,47,,ISIC_0011546.JPG
break,html.Screen,4_96_1,2023-10-31T17:24:19.039Z,,0,,,NaN,,,,,,false,,,,529511.0999999046,529510.899999857,,529510.399999857,,529526.084,8,400,,,
break_continue,html.Screen,4_96_2,2023-10-31T17:24:19.039Z,,0,,,NaN,,,,,,false,,,,529511.5999999046,529511.5,,529511.2999999523,,529526.084,8,400,,,
sequence,flow.Sequence,4_96,2023-10-31T17:24:19.039Z,,0,,,4802.3279999999795,completion,,,,,false,,,,529511.6999998093,529511.5,524692.397,524702.7999999523,524709.172,529526.084,8,400,,,
trial,html.Screen,4_97_0,2023-10-31T17:24:23.989Z,,0,2,,4934.915999999968,response,ISIC_8068693.JPG,10,ISIC_3179296.JPG,ISIC_8068693.JPG,false,1,keypress(m),500,534461.2999999523,534461,529509.515,529511.7999999523,529526.084,534510.065,8,400,48,,ISIC_3179296.JPG
break,html.Screen,4_97_1,2023-10-31T17:24:23.990Z,,0,,,NaN,,,,,,false,,,,534462.6999998093,534462.5,,534461.5,,534510.065,8,400,,,
break_continue,html.Screen,4_97_2,2023-10-31T17:24:23.991Z,,0,,,NaN,,,,,,false,,,,534463.0999999046,534462.899999857,,534462.7999999523,,534510.065,8,400,,,
sequence,flow.Sequence,4_97,2023-10-31T17:24:23.991Z,,0,,,4936.815999856917,completion,,,,,false,,,,534463.1999998093,534462.899999857,529509.515,529511.7999999523,529526.084,534510.065,8,400,,,
trial,html.Screen,4_98_0,2023-10-31T17:24:28.319Z,,0,2,,4281.435000000056,response,ISIC_0061643.JPG,20,ISIC_0062133.JPG,ISIC_0062133.JPG,false,0,keypress(z),500,538791.899999857,538791.5,534459.961,534463.2999999523,534510.065,538809.929,8,400,49,,ISIC_0061643.JPG
break,html.Screen,4_98_1,2023-10-31T17:24:28.321Z,,0,,,NaN,,,,,,false,,,,538792.899999857,538792.6999998093,,538792.1999998093,,538809.929,8,400,,,
break_continue,html.Screen,4_98_2,2023-10-31T17:24:28.321Z,,0,,,NaN,,,,,,false,,,,538793.1999998093,538793.0999999046,,538793,,538809.929,8,400,,,
sequence,flow.Sequence,4_98,2023-10-31T17:24:28.321Z,,0,,,4283.034999904688,completion,,,,,false,,,,538793.399999857,538793.0999999046,534459.961,534463.1999998093,534510.065,538809.929,8,400,,,
trial,html.Screen,4_99_0,2023-10-31T17:24:31.972Z,,0,2,,3634.170999904629,response,ISIC_0000000.JPG,7,ISIC_0014926.JPG,ISIC_0000000.JPG,false,1,keypress(m),500,542444.5,542444.0999999046,538793.371,538793.5,538809.929,542494.025,8,400,50,,ISIC_0014926.JPG
break,html.Screen,4_99_1,2023-10-31T17:24:42.007Z,,0,,,10000.342999999993,timeout,,,,,false,,,,552479.5999999046,552478.058,542443.211,542444.6999998093,542494.025,552494.368,8,400,,,
break_continue,html.Screen,4_99_2,2023-10-31T17:24:42.987Z,,0,,,947.0319998569321,response,,,,,false,continue,keypress(Space),,553459.5,553441.399999857,552478.058,552479.6999998093,552494.368,553461.079,8,400,,,
sequence,flow.Sequence,4_99,2023-10-31T17:24:42.987Z,,0,,,14631.470999856945,completion,,,,,false,,,,553459.6999998093,553441.399999857,538793.371,538793.399999857,538809.929,553461.079,8,400,,,
trial,html.Screen,4_100_0,2023-10-31T17:24:46.224Z,,0,3,,3234.2209999522893,response,ISIC_8837443.JPG,8,ISIC_0029028.JPG,ISIC_8837443.JPG,false,1,keypress(m),500,556695.6999998093,556695.2999999523,553444.311,553459.6999998093,553461.079,556744.609,8,400,1,,ISIC_0029028.JPG
break,html.Screen,4_100_1,2023-10-31T17:24:46.225Z,,0,,,NaN,,,,,,false,,,,556697.0999999046,556696.6999998093,,556695.899999857,,556744.609,8,400,,,
break_continue,html.Screen,4_100_2,2023-10-31T17:24:46.225Z,,0,,,NaN,,,,,,false,,,,556697.399999857,556697.1999998093,,556697.1999998093,,556744.609,8,400,,,
sequence,flow.Sequence,4_100,2023-10-31T17:24:46.225Z,,0,,,3236.120999809238,completion,,,,,false,,,,556697.5,556697.1999998093,553444.311,553459.6999998093,553461.079,556744.609,8,400,,,
trial,html.Screen,4_101_0,2023-10-31T17:24:50.165Z,,0,3,,3892.4909999045776,response,ISIC_5805349.JPG,5,ISIC_3436139.JPG,ISIC_3436139.JPG,false,0,keypress(z),500,560637.399999857,560637.0999999046,556694.6,556697.5999999046,556744.609,560644.898,8,400,2,,ISIC_5805349.JPG
break,html.Screen,4_101_1,2023-10-31T17:24:50.166Z,,0,,,NaN,,,,,,false,,,,560638.5,560638.1999998093,,560637.5999999046,,560644.898,8,400,,,
break_continue,html.Screen,4_101_2,2023-10-31T17:24:50.167Z,,0,,,NaN,,,,,,false,,,,560638.899999857,560638.7999999523,,560638.6999998093,,560644.898,8,400,,,
sequence,flow.Sequence,4_101,2023-10-31T17:24:50.167Z,,0,,,3894.1909999522613,completion,,,,,false,,,,560639.0999999046,560638.7999999523,556694.6,556697.5999999046,556744.609,560644.898,8,400,,,
trial,html.Screen,4_102_0,2023-10-31T17:24:54.073Z,,0,3,,3899.9019999522716,response,ISIC_7536704.JPG,7,ISIC_5481211.JPG,ISIC_5481211.JPG,false,0,keypress(z),500,564545.399999857,564544.7999999523,560628.244,560639.1999998093,560644.898,564578.358,8,400,3,,ISIC_7536704.JPG
break,html.Screen,4_102_1,2023-10-31T17:24:54.074Z,,0,,,NaN,,,,,,false,,,,564546.5,564546.2999999523,,564545.6999998093,,564578.358,8,400,,,
break_continue,html.Screen,4_102_2,2023-10-31T17:24:54.075Z,,0,,,NaN,,,,,,false,,,,564546.899999857,564546.7999999523,,564546.6999998093,,564578.358,8,400,,,
sequence,flow.Sequence,4_102,2023-10-31T17:24:54.075Z,,0,,,3901.9019999522716,completion,,,,,false,,,,564547,564546.7999999523,560628.244,560639.1999998093,560644.898,564578.358,8,400,,,
trial,html.Screen,4_103_0,2023-10-31T17:24:57.438Z,,0,3,,3332.0419998569414,response,ISIC_4038618.JPG,26,ISIC_0033562.JPG,ISIC_4038618.JPG,false,1,keypress(m),500,567910.6999998093,567910.399999857,564561.736,564547.1999998093,564578.358,567928.544,8,400,4,,ISIC_0033562.JPG
break,html.Screen,4_103_1,2023-10-31T17:24:57.439Z,,0,,,NaN,,,,,,false,,,,567911.5999999046,567911.399999857,,567910.899999857,,567928.544,8,400,,,
break_continue,html.Screen,4_103_2,2023-10-31T17:24:57.440Z,,0,,,NaN,,,,,,false,,,,567911.899999857,567911.7999999523,,567911.6999998093,,567928.544,8,400,,,
sequence,flow.Sequence,4_103,2023-10-31T17:24:57.440Z,,0,,,3333.441999952309,completion,,,,,false,,,,567912,567911.7999999523,564561.736,564547.0999999046,564578.358,567928.544,8,400,,,
trial,html.Screen,4_104_0,2023-10-31T17:25:02.821Z,,0,3,,5364.555999904638,response,ISIC_0028967.JPG,9,ISIC_0032462.JPG,ISIC_0032462.JPG,false,0,keypress(z),500,573293.399999857,573293.0999999046,567912.042,567912.1999998093,567928.544,573295.697,8,400,5,,ISIC_0028967.JPG
break,html.Screen,4_104_1,2023-10-31T17:25:02.822Z,,0,,,NaN,,,,,,false,,,,573294.399999857,573294.0999999046,,573293.5999999046,,573295.697,8,400,,,
break_continue,html.Screen,4_104_2,2023-10-31T17:25:02.823Z,,0,,,NaN,,,,,,false,,,,573294.7999999523,573294.5999999046,,573294.5,,573295.697,8,400,,,
sequence,flow.Sequence,4_104,2023-10-31T17:25:02.823Z,,0,,,5366.055999904638,completion,,,,,false,,,,573294.899999857,573294.5999999046,567912.042,567912.0999999046,567928.544,573295.697,8,400,,,
trial,html.Screen,4_105_0,2023-10-31T17:25:07.150Z,,0,3,,4325.902999904589,response,ISIC_0011530.JPG,7,ISIC_1110583.JPG,ISIC_0011530.JPG,false,1,keypress(m),500,577621.899999857,577621.5999999046,573279.342,573295,573295.697,577662.669,8,400,6,,ISIC_1110583.JPG
break,html.Screen,4_105_1,2023-10-31T17:25:07.151Z,,0,,,NaN,,,,,,false,,,,577623,577622.6999998093,,577622.0999999046,,577662.669,8,400,,,
break_continue,html.Screen,4_105_2,2023-10-31T17:25:07.153Z,,0,,,NaN,,,,,,false,,,,577625.1999998093,577624.399999857,,577623.6999998093,,577662.669,8,400,,,
sequence,flow.Sequence,4_105,2023-10-31T17:25:07.154Z,,0,,,4328.702999856905,completion,,,,,false,,,,577626.1999998093,577624.399999857,573279.342,573294.899999857,573295.697,577662.669,8,400,,,
trial,html.Screen,4_106_0,2023-10-31T17:25:10.646Z,,0,3,,3455.2309998569544,response,ISIC_2221217.JPG,24,ISIC_0055081.JPG,ISIC_0055081.JPG,false,0,keypress(z),500,581118.0999999046,581117.899999857,577613.126,577626.899999857,577662.669,581146.191,8,400,7,,ISIC_2221217.JPG
break,html.Screen,4_106_1,2023-10-31T17:25:10.647Z,,0,,,NaN,,,,,,false,,,,581118.899999857,581118.6999998093,,581118.1999998093,,581146.191,8,400,,,
break_continue,html.Screen,4_106_2,2023-10-31T17:25:10.648Z,,0,,,NaN,,,,,,false,,,,581120.0999999046,581119,,581119,,581146.191,8,400,,,
sequence,flow.Sequence,4_106,2023-10-31T17:25:10.648Z,,0,,,3456.3310000000056,completion,,,,,false,,,,581120.399999857,581119,577613.126,577626.6999998093,577662.669,581146.191,8,400,,,
trial,html.Screen,4_107_0,2023-10-31T17:25:14.752Z,,0,3,,4077.5089998092735,response,ISIC_0033643.JPG,6,ISIC_6258744.JPG,ISIC_6258744.JPG,false,0,keypress(z),500,585223.899999857,585223.6999998093,581129.562,581120.399999857,581146.191,585263.49,8,400,8,,ISIC_0033643.JPG
break,html.Screen,4_107_1,2023-10-31T17:25:14.753Z,,0,,,NaN,,,,,,false,,,,585224.7999999523,585224.5999999046,,585224.0999999046,,585263.49,8,400,,,
break_continue,html.Screen,4_107_2,2023-10-31T17:25:14.755Z,,0,,,NaN,,,,,,false,,,,585226.6999998093,585225.899999857,,585225.2999999523,,585263.49,8,400,,,
sequence,flow.Sequence,4_107,2023-10-31T17:25:14.755Z,,0,,,4079.7089998569572,completion,,,,,false,,,,585227.5999999046,585225.899999857,581129.562,581120.399999857,581146.191,585263.49,8,400,,,
trial,html.Screen,4_108_0,2023-10-31T17:25:22.333Z,,0,3,,7541.709999809274,response,ISIC_0028764.JPG,18,ISIC_0025105.JPG,ISIC_0028764.JPG,false,1,keypress(m),500,592805.5999999046,592805.1999998093,585213.444,585228.1999998093,585263.49,592846.943,8,400,9,,ISIC_0025105.JPG
break,html.Screen,4_108_1,2023-10-31T17:25:22.334Z,,0,,,NaN,,,,,,false,,,,592806.5,592806.2999999523,,592805.7999999523,,592846.943,8,400,,,
break_continue,html.Screen,4_108_2,2023-10-31T17:25:22.336Z,,0,,,NaN,,,,,,false,,,,592808.399999857,592807.1999998093,,592806.6999998093,,592846.943,8,400,,,
sequence,flow.Sequence,4_108,2023-10-31T17:25:22.337Z,,0,,,7543.709999809274,completion,,,,,false,,,,592809,592807.1999998093,585213.444,585228.0999999046,585263.49,592846.943,8,400,,,
trial,html.Screen,4_109_0,2023-10-31T17:25:26.328Z,,0,3,,3953.356999952346,response,ISIC_0061751.JPG,21,ISIC_0073032.JPG,ISIC_0061751.JPG,false,1,keypress(m),500,596800.5999999046,596800.2999999523,592797.035,592809.0999999046,592846.943,596847.799,8,400,10,,ISIC_0073032.JPG
break,html.Screen,4_109_1,2023-10-31T17:25:26.329Z,,0,,,NaN,,,,,,false,,,,596801.6999998093,596801.399999857,,596800.899999857,,596847.799,8,400,,,
break_continue,html.Screen,4_109_2,2023-10-31T17:25:26.330Z,,0,,,NaN,,,,,,false,,,,596802,596801.7999999523,,596801.7999999523,,596847.799,8,400,,,
sequence,flow.Sequence,4_109,2023-10-31T17:25:26.330Z,,0,,,3954.856999952346,completion,,,,,false,,,,596802.0999999046,596801.7999999523,592797.035,592809,592846.943,596847.799,8,400,,,
trial,html.Screen,4_110_0,2023-10-31T17:25:35.763Z,,0,3,,9387.701000000001,response,ISIC_0061188.JPG,13,ISIC_5671175.JPG,ISIC_5671175.JPG,false,0,keypress(z),500,606235.6999998093,606235.5,596797.758,596802.1999998093,596847.799,606281.572,8,400,11,,ISIC_0061188.JPG
break,html.Screen,4_110_1,2023-10-31T17:25:35.764Z,,0,,,NaN,,,,,,false,,,,606236.5999999046,606236.5,,606235.899999857,,606281.572,8,400,,,
break_continue,html.Screen,4_110_2,2023-10-31T17:25:35.765Z,,0,,,NaN,,,,,,false,,,,606236.899999857,606236.899999857,,606236.6999998093,,606281.572,8,400,,,
sequence,flow.Sequence,4_110,2023-10-31T17:25:35.765Z,,0,,,9389.10099985695,completion,,,,,false,,,,606237.0999999046,606236.899999857,596797.758,596802.0999999046,596847.799,606281.572,8,400,,,
trial,html.Screen,4_111_0,2023-10-31T17:25:39.358Z,,0,3,,3548.327999856905,response,ISIC_0072174.JPG,7,ISIC_0067697.JPG,ISIC_0067697.JPG,false,0,keypress(z),500,609830.1999998093,609829.899999857,606232.467,606237.1999998093,606281.572,609881.823,8,400,12,,ISIC_0072174.JPG
break,html.Screen,4_111_1,2023-10-31T17:25:39.359Z,,0,,,NaN,,,,,,false,,,,609831.399999857,609831.0999999046,,609830.5,,609881.823,8,400,,,
break_continue,html.Screen,4_111_2,2023-10-31T17:25:39.359Z,,0,,,NaN,,,,,,false,,,,609831.7999999523,609831.5999999046,,609831.5999999046,,609881.823,8,400,,,
sequence,flow.Sequence,4_111,2023-10-31T17:25:39.360Z,,0,,,3550.027999904589,completion,,,,,false,,,,609831.899999857,609831.5999999046,606232.467,606237.1999998093,606281.572,609881.823,8,400,,,
trial,html.Screen,4_112_0,2023-10-31T17:25:42.724Z,,0,3,,3314.177000000025,response,ISIC_0010597.JPG,12,ISIC_9153619.JPG,ISIC_9153619.JPG,false,0,keypress(z),500,613196.399999857,613196,609814.831,609832,609881.823,613248.342,8,400,13,,ISIC_0010597.JPG
break,html.Screen,4_112_1,2023-10-31T17:25:42.725Z,,0,,,NaN,,,,,,false,,,,613197.399999857,613197.0999999046,,613196.5999999046,,613248.342,8,400,,,
break_continue,html.Screen,4_112_2,2023-10-31T17:25:42.727Z,,0,,,NaN,,,,,,false,,,,613199.1999998093,613198.5,,613197.7999999523,,613248.342,8,400,,,
sequence,flow.Sequence,4_112,2023-10-31T17:25:42.728Z,,0,,,3316.677000000025,completion,,,,,false,,,,613200,613198.5,609814.831,609832,609881.823,613248.342,8,400,,,
trial,html.Screen,4_113_0,2023-10-31T17:25:47.902Z,,0,3,,5125.95799995237,response,ISIC_7544537.JPG,11,ISIC_5362869.JPG,ISIC_7544537.JPG,false,1,keypress(m),500,618374.6999998093,618374.2999999523,613182.363,613200.1999998093,613248.342,618415.312,8,400,14,,ISIC_5362869.JPG
break,html.Screen,4_113_1,2023-10-31T17:25:47.903Z,,0,,,NaN,,,,,,false,,,,618375.6999998093,618375.5,,618375,,618415.312,8,400,,,
break_continue,html.Screen,4_113_2,2023-10-31T17:25:47.905Z,,0,,,NaN,,,,,,false,,,,618377.399999857,618376.5,,618375.899999857,,618415.312,8,400,,,
sequence,flow.Sequence,4_113,2023-10-31T17:25:47.906Z,,0,,,5128.158000000054,completion,,,,,false,,,,618378.5,618376.5,613182.363,613200.1999998093,613248.342,618415.312,8,400,,,
trial,html.Screen,4_114_0,2023-10-31T17:25:52.877Z,,0,3,,4933.887999809231,response,ISIC_0068798.JPG,5,ISIC_3000569.JPG,ISIC_3000569.JPG,false,0,keypress(z),500,623349.6999998093,623349.1999998093,618365.695,618378.6999998093,618415.312,623365.75,8,400,15,,ISIC_0068798.JPG
break,html.Screen,4_114_1,2023-10-31T17:25:52.878Z,,0,,,NaN,,,,,,false,,,,623350.6999998093,623350.5,,623350,,623365.75,8,400,,,
break_continue,html.Screen,4_114_2,2023-10-31T17:25:52.879Z,,0,,,NaN,,,,,,false,,,,623351,623350.899999857,,623350.7999999523,,623365.75,8,400,,,
sequence,flow.Sequence,4_114,2023-10-31T17:25:52.879Z,,0,,,4935.587999856914,completion,,,,,false,,,,623351.0999999046,623350.899999857,618365.695,618378.5999999046,618415.312,623365.75,8,400,,,
trial,html.Screen,4_115_0,2023-10-31T17:25:57.976Z,,0,3,,5081.75,response,ISIC_0024421.JPG,5,ISIC_1700051.JPG,ISIC_0024421.JPG,false,1,keypress(m),500,628448,628447.5,623349.076,623351.1999998093,623365.75,628471.007,8,400,16,,ISIC_1700051.JPG
break,html.Screen,4_115_1,2023-10-31T17:25:57.977Z,,0,,,NaN,,,,,,false,,,,628448.899999857,628448.6999998093,,628448.1999998093,,628471.007,8,400,,,
break_continue,html.Screen,4_115_2,2023-10-31T17:25:57.977Z,,0,,,NaN,,,,,,false,,,,628449.2999999523,628449.1999998093,,628449.0999999046,,628471.007,8,400,,,
sequence,flow.Sequence,4_115,2023-10-31T17:25:57.977Z,,0,,,5083.449999809265,completion,,,,,false,,,,628449.399999857,628449.1999998093,623349.076,623351.0999999046,623365.75,628471.007,8,400,,,
trial,html.Screen,4_116_0,2023-10-31T17:26:01.772Z,,0,3,,3773.0929999046493,response,ISIC_0315631.JPG,11,ISIC_0032019.JPG,ISIC_0315631.JPG,false,1,keypress(m),500,632244.399999857,632244.0999999046,628432.657,628449.5999999046,628471.007,632249.774,8,400,17,,ISIC_0032019.JPG
break,html.Screen,4_116_1,2023-10-31T17:26:01.773Z,,0,,,NaN,,,,,,false,,,,632245.2999999523,632245,,632244.5999999046,,632249.774,8,400,,,
break_continue,html.Screen,4_116_2,2023-10-31T17:26:01.773Z,,0,,,NaN,,,,,,false,,,,632245.6999998093,632245.5999999046,,632245.5,,632249.774,8,400,,,
sequence,flow.Sequence,4_116,2023-10-31T17:26:01.774Z,,0,,,3774.5929999046493,completion,,,,,false,,,,632245.899999857,632245.5999999046,628432.657,628449.5,628471.007,632249.774,8,400,,,
trial,html.Screen,4_117_0,2023-10-31T17:26:07.154Z,,0,3,,5376.125999856973,response,ISIC_6908183.JPG,12,ISIC_0030911.JPG,ISIC_0030911.JPG,false,0,keypress(z),500,637626.2999999523,637625.899999857,632232.995,632245.899999857,632249.774,637633.268,8,400,18,,ISIC_6908183.JPG
break,html.Screen,4_117_1,2023-10-31T17:26:07.155Z,,0,,,NaN,,,,,,false,,,,637627.399999857,637627,,637626.399999857,,637633.268,8,400,,,
break_continue,html.Screen,4_117_2,2023-10-31T17:26:07.155Z,,0,,,NaN,,,,,,false,,,,637627.6999998093,637627.5999999046,,637627.5999999046,,637633.268,8,400,,,
sequence,flow.Sequence,4_117,2023-10-31T17:26:07.156Z,,0,,,5377.825999904657,completion,,,,,false,,,,637627.7999999523,637627.5999999046,632232.995,632245.899999857,632249.774,637633.268,8,400,,,
trial,html.Screen,4_118_0,2023-10-31T17:26:13.117Z,,0,3,,5956.031999952276,response,ISIC_0010581.JPG,12,ISIC_3016754.JPG,ISIC_0010581.JPG,false,1,keypress(m),500,643589.7999999523,643589.2999999523,637616.609,637628,637633.268,643616.97,8,400,19,,ISIC_3016754.JPG
break,html.Screen,4_118_1,2023-10-31T17:26:13.118Z,,0,,,NaN,,,,,,false,,,,643590.7999999523,643590.5,,643590,,643616.97,8,400,,,
break_continue,html.Screen,4_118_2,2023-10-31T17:26:13.119Z,,0,,,NaN,,,,,,false,,,,643591.0999999046,643591,,643590.7999999523,,643616.97,8,400,,,
sequence,flow.Sequence,4_118,2023-10-31T17:26:13.119Z,,0,,,5957.73199999996,completion,,,,,false,,,,643591.1999998093,643591,637616.609,637627.899999857,637633.268,643616.97,8,400,,,
trial,html.Screen,4_119_0,2023-10-31T17:26:17.772Z,,0,3,,4627.229999809293,response,ISIC_0011931.JPG,13,ISIC_0029777.JPG,ISIC_0011931.JPG,false,1,keypress(m),500,648244.5,648244.1999998093,643600.731,643591.2999999523,643616.97,648250.723,8,400,20,,ISIC_0029777.JPG
break,html.Screen,4_119_1,2023-10-31T17:26:17.773Z,,0,,,NaN,,,,,,false,,,,648245.2999999523,648245.0999999046,,648244.5999999046,,648250.723,8,400,,,
break_continue,html.Screen,4_119_2,2023-10-31T17:26:17.773Z,,0,,,NaN,,,,,,false,,,,648245.6999998093,648245.5999999046,,648245.5,,648250.723,8,400,,,
sequence,flow.Sequence,4_119,2023-10-31T17:26:17.774Z,,0,,,4628.6299999046605,completion,,,,,false,,,,648245.7999999523,648245.5999999046,643600.731,643591.2999999523,643616.97,648250.723,8,400,,,
trial,html.Screen,4_120_0,2023-10-31T17:26:20.467Z,,0,3,,2687.976999809267,response,ISIC_0027804.JPG,28,ISIC_0073136.JPG,ISIC_0027804.JPG,false,1,keypress(m),500,650939.0999999046,650938.6999998093,648234.096,648245.899999857,648250.723,650984.258,8,400,21,,ISIC_0073136.JPG
break,html.Screen,4_120_1,2023-10-31T17:26:20.468Z,,0,,,NaN,,,,,,false,,,,650940.2999999523,650940,,650939.399999857,,650984.258,8,400,,,
break_continue,html.Screen,4_120_2,2023-10-31T17:26:20.468Z,,0,,,NaN,,,,,,false,,,,650940.5999999046,650940.5999999046,,650940.399999857,,650984.258,8,400,,,
sequence,flow.Sequence,4_120,2023-10-31T17:26:20.468Z,,0,,,2689.8769999046344,completion,,,,,false,,,,650940.7999999523,650940.5999999046,648234.096,648245.899999857,648250.723,650984.258,8,400,,,
trial,html.Screen,4_121_0,2023-10-31T17:26:24.395Z,,0,3,,3883.0419999522856,response,ISIC_0001134.JPG,5,ISIC_0001103.JPG,ISIC_0001134.JPG,false,1,keypress(m),500,654867.6999998093,654867.2999999523,650934.631,650940.899999857,650984.258,654917.773,8,400,22,,ISIC_0001103.JPG
break,html.Screen,4_121_1,2023-10-31T17:26:24.396Z,,0,,,NaN,,,,,,false,,,,654868.5999999046,654868.2999999523,,654867.7999999523,,654917.773,8,400,,,
break_continue,html.Screen,4_121_2,2023-10-31T17:26:24.398Z,,0,,,NaN,,,,,,false,,,,654870.5999999046,654870,,654869.5,,654917.773,8,400,,,
sequence,flow.Sequence,4_121,2023-10-31T17:26:24.399Z,,0,,,3885.7419999999693,completion,,,,,false,,,,654871.5999999046,654870,650934.631,650940.899999857,650984.258,654917.773,8,400,,,
trial,html.Screen,4_122_0,2023-10-31T17:26:29.352Z,,0,3,,4906.726999999955,response,ISIC_6533176.JPG,32,ISIC_0024911.JPG,ISIC_6533176.JPG,false,1,keypress(m),500,659824.6999998093,659824.5,654868.002,654872.1999998093,654917.773,659868.097,8,400,23,,ISIC_0024911.JPG
break,html.Screen,4_122_1,2023-10-31T17:26:29.354Z,,0,,,NaN,,,,,,false,,,,659825.7999999523,659825.5,,659825,,659868.097,8,400,,,
break_continue,html.Screen,4_122_2,2023-10-31T17:26:29.356Z,,0,,,NaN,,,,,,false,,,,659828.7999999523,659827.399999857,,659826.2999999523,,659868.097,8,400,,,
sequence,flow.Sequence,4_122,2023-10-31T17:26:29.357Z,,0,,,4909.626999856904,completion,,,,,false,,,,659829.7999999523,659827.399999857,654868.002,654872,654917.773,659868.097,8,400,,,
trial,html.Screen,4_123_0,2023-10-31T17:26:33.155Z,,0,3,,3759.302999856998,response,ISIC_0024315.JPG,8,ISIC_4247149.JPG,ISIC_4247149.JPG,false,0,keypress(z),500,663627.6999998093,663627.399999857,659818.137,659830.2999999523,659868.097,663635.066,8,400,24,,ISIC_0024315.JPG
break,html.Screen,4_123_1,2023-10-31T17:26:33.156Z,,0,,,NaN,,,,,,false,,,,663628.7999999523,663628.5,,663627.899999857,,663635.066,8,400,,,
break_continue,html.Screen,4_123_2,2023-10-31T17:26:33.157Z,,0,,,NaN,,,,,,false,,,,663629.0999999046,663629.0999999046,,663629,,663635.066,8,400,,,
sequence,flow.Sequence,4_123,2023-10-31T17:26:33.157Z,,0,,,3761.002999904682,completion,,,,,false,,,,663629.399999857,663629.0999999046,659818.137,659830.1999998093,659868.097,663635.066,8,400,,,
trial,html.Screen,4_124_0,2023-10-31T17:26:36.654Z,,0,3,,3491.4340000000084,response,ISIC_3213469.JPG,10,ISIC_6875745.JPG,ISIC_3213469.JPG,false,1,keypress(m),500,667126.7999999523,667126.5,663618.362,663629.5,663635.066,667168.996,8,400,25,,ISIC_6875745.JPG
break,html.Screen,4_124_1,2023-10-31T17:26:36.655Z,,0,,,NaN,,,,,,false,,,,667127.6999998093,667127.5,,667126.899999857,,667168.996,8,400,,,
break_continue,html.Screen,4_124_2,2023-10-31T17:26:36.657Z,,0,,,NaN,,,,,,false,,,,667129.2999999523,667128.5,,667127.7999999523,,667168.996,8,400,,,
sequence,flow.Sequence,4_124,2023-10-31T17:26:36.658Z,,0,,,3493.4340000000084,completion,,,,,false,,,,667130.399999857,667128.5,663618.362,663629.5,663635.066,667168.996,8,400,,,
trial,html.Screen,4_125_0,2023-10-31T17:26:40.447Z,,0,3,,3749.503999999957,response,ISIC_5312584.JPG,13,ISIC_0003117.JPG,ISIC_0003117.JPG,false,0,keypress(z),500,670919,670918.5,667118.611,667131.0999999046,667168.996,670952.209,8,400,26,,ISIC_5312584.JPG
break,html.Screen,4_125_1,2023-10-31T17:26:40.448Z,,0,,,NaN,,,,,,false,,,,670920.1999998093,670919.7999999523,,670919.1999998093,,670952.209,8,400,,,
