sender,sender_type,sender_id,timestamp,meta,,blockNo,condition,duration,ended_on,img_left,img_reveal,img_right,loser,practice,response,response_action,selection_duration,time_commit,time_end,time_render,time_run,time_show,time_switch,total_blocks,total_trials,trialNo,url,winner
informed_consent,html.Screen,0,2023-11-01T00:59:56.659Z,"{""labjs_version"":""20.2.4"",""labjs_build"":{""flavor"":""production"",""commit"":""f5b4a49f956347addd546a832a3327688c2c0fef""},""location"":""https://run.pavlovia.org/MurrayBennett/melanoma-2afc/?participant=65906&platform=sona"",""userAgent"":""Mozilla/5.0 (X11; CrOS x86_64 14541.0.0) AppleWebKit/537.36 (KHTML, like Gecko) Chrome/116.0.0.0 Safari/537.36"",""platform"":""Linux x86_64"",""language"":""en-US"",""locale"":""en-US"",""timeZone"":""America/Chicago"",""timezoneOffset"":300,""screen_width"":1366,""screen_height"":768,""scroll_width"":1366,""scroll_height"":596,""window_innerWidth"":1366,""window_innerHeight"":644,""devicePixelRatio"":1}",,,,38356.23600001788,response,,,,,,consent,click button,,43836.70000001788,43818.70000001788,5445.799,5440.700000017881,5462.464,43876.952,,,,"{""participant"":""65906"",""platform"":""sona""}",
Welcome,html.Screen,1,2023-11-01T01:00:51.016Z,,,,uniform,54308.648000023844,response,,,,,,continue,click button,,98193.30000001192,98185.60000002384,43810.292,43838,43876.952,98205.169,,,,,
trial,html.Screen,2_0_0,2023-11-01T01:01:02.515Z,,0,0,,11502.996,timeout,ISIC_0063388.JPG,,ISIC_0025593.JPG,ISIC_0025593.JPG,true,,,500,109692.20000001788,109691.5,98188.504,98193.80000001192,98205.169,,1,6,1,,ISIC_0063388.JPG
sequence,flow.Sequence,2_0,2023-11-01T01:01:02.516Z,,0,,,11486.331000000006,completion,,,,,true,,,,109693.10000002384,109691.5,98188.504,98193.70000001788,98205.169,109723.43,1,6,,,
trial,html.Screen,2_0_0,2023-11-01T01:01:02.539Z,,0,0,,11509.931000023847,response,ISIC_0063388.JPG,,ISIC_0025593.JPG,ISIC_0025593.JPG,true,0,keypress(z),500,109716.60000002384,109715.10000002384,98188.504,98193.80000001192,98205.169,109723.43,1,6,1,,ISIC_0063388.JPG
trial,html.Screen,2_1_0,2023-11-01T01:01:08.808Z,,0,0,,6261.270000017888,response,ISIC_1309015.JPG,,ISIC_0028178.JPG,ISIC_1309015.JPG,true,1,keypress(m),500,115985.40000000596,115984.70000001788,109706.742,109693.60000002384,109723.43,115989.732,1,6,2,,ISIC_0028178.JPG
sequence,flow.Sequence,2_1,2023-11-01T01:01:08.809Z,,0,,,6261.270000017888,completion,,,,,true,,,,115986.20000001788,115984.70000001788,109706.742,109693.40000000596,109723.43,115989.732,1,6,,,
trial,html.Screen,2_2_0,2023-11-01T01:01:13.255Z,,0,0,,4441.368000023838,response,ISIC_0031128.JPG,,ISIC_3314853.JPG,ISIC_0031128.JPG,true,1,keypress(m),500,120431.80000001192,120431.10000002384,115973.067,115986.70000001788,115989.732,120439.472,1,6,3,,ISIC_3314853.JPG
sequence,flow.Sequence,2_2,2023-11-01T01:01:13.256Z,,0,,,4441.368000023838,completion,,,,,true,,,,120433,120431.10000002384,115973.067,115986.60000002384,115989.732,120439.472,1,6,,,
trial,html.Screen,2_3_0,2023-11-01T01:01:17.948Z,,0,0,,4684.728000017887,response,ISIC_0031612.JPG,,ISIC_8980141.JPG,ISIC_0031612.JPG,true,1,keypress(m),500,125125,125124.20000001788,120422.807,120433.60000002384,120439.472,125139.227,1,6,4,,ISIC_8980141.JPG
sequence,flow.Sequence,2_3,2023-11-01T01:01:17.949Z,,0,,,4684.728000017887,completion,,,,,true,,,,125125.90000000596,125124.20000001788,120422.807,120433.5,120439.472,125139.227,1,6,,,
trial,html.Screen,2_4_0,2023-11-01T01:01:22.880Z,,0,0,,4918.073000011922,response,ISIC_1197737.JPG,,ISIC_9721604.JPG,ISIC_1197737.JPG,true,1,keypress(m),500,130057.40000000596,130057.30000001192,125122.562,125126.60000002384,125139.227,130072.308,1,6,5,,ISIC_9721604.JPG
sequence,flow.Sequence,2_4,2023-11-01T01:01:22.880Z,,0,,,4918.073000011922,completion,,,,,true,,,,130057.70000001788,130057.30000001192,125122.562,125126.30000001192,125139.227,130072.308,1,6,,,
trial,html.Screen,2_5_0,2023-11-01T01:01:28.030Z,,0,0,,5134.392000017877,response,ISIC_0025346.JPG,,ISIC_0010681.JPG,ISIC_0025346.JPG,true,1,keypress(m),500,135207.40000000596,135206.70000001788,130055.617,130057.90000000596,130072.308,135222.007,1,6,6,,ISIC_0010681.JPG
sequence,flow.Sequence,2_5,2023-11-01T01:01:28.031Z,,0,,,5134.392000017877,completion,,,,,true,,,,135208,135206.70000001788,130055.617,130057.80000001192,130072.308,135222.007,1,6,,,
loop,flow.Loop,2,2023-11-01T01:01:28.031Z,,,,,37001.53100001789,completion,,,,,true,,,,135208.60000002384,135206.70000001788,98188.504,98193.60000002384,98205.169,135222.007,1,6,,,
exp_instructions,html.Screen,3,2023-11-01T01:01:46.717Z,,,,,18659.79300001191,response,,,,,,continue,keypress(Space),,153894.20000001788,153881.80000001192,135205.342,135208.90000000596,135222.007,153903.496,,,,,
trial,html.Screen,4_0_0,2023-11-01T01:01:51.670Z,,0,1,,4943.404000005947,response,ISIC_0060351.JPG,5,ISIC_0032160.JPG,ISIC_0032160.JPG,false,0,keypress(z),500,158847.5,158846.90000000596,153886.831,153894.90000000596,153903.496,158854.041,8,400,1,,ISIC_0060351.JPG
break,html.Screen,4_0_1,2023-11-01T01:01:51.673Z,,0,,,NaN,,,,,,false,,,,158850.5,158849.60000002384,,158847.90000000596,,158854.041,8,400,,,
break_continue,html.Screen,4_0_2,2023-11-01T01:01:51.675Z,,0,,,NaN,,,,,,false,,,,158851.90000000596,158851.5,,158850.80000001192,,158854.041,8,400,,,
sequence,flow.Sequence,4_0,2023-11-01T01:01:51.676Z,,0,,,4948.003999999986,completion,,,,,false,,,,158853,158851.5,153886.831,153894.80000001192,153903.496,158854.041,8,400,,,
trial,html.Screen,4_1_0,2023-11-01T01:01:55.024Z,,0,1,,3347.159000017884,response,ISIC_4686317.JPG,5,ISIC_2245325.JPG,ISIC_2245325.JPG,false,0,keypress(z),500,162201.70000001788,162201.20000001788,158837.376,158853.40000000596,158854.041,162203.858,8,400,2,,ISIC_4686317.JPG
break,html.Screen,4_1_1,2023-11-01T01:01:55.027Z,,0,,,NaN,,,,,,false,,,,162204.60000002384,162203.60000002384,,162202.20000001788,,162203.858,8,400,,,
break_continue,html.Screen,4_1_2,2023-11-01T01:01:55.029Z,,0,,,NaN,,,,,,false,,,,162205.80000001192,162205.5,,162204.90000000596,,162203.858,8,400,,,
sequence,flow.Sequence,4_1,2023-11-01T01:01:55.029Z,,0,,,3351.4590000000026,completion,,,,,false,,,,162206.20000001788,162205.5,158837.376,158853.40000000596,158854.041,162203.858,8,400,,,
trial,html.Screen,4_2_0,2023-11-01T01:01:58.844Z,,0,1,,3813.6419999999925,response,ISIC_1328804.JPG,5,ISIC_2559074.JPG,ISIC_2559074.JPG,false,0,keypress(z),500,166021.10000002384,166017.5,162187.193,162206.70000001788,162203.858,166036.979,8,400,3,,ISIC_1328804.JPG
break,html.Screen,4_2_1,2023-11-01T01:01:58.847Z,,0,,,NaN,,,,,,false,,,,166023.90000000596,166023.20000001788,,166021.70000001788,,166036.979,8,400,,,
break_continue,html.Screen,4_2_2,2023-11-01T01:01:58.848Z,,0,,,NaN,,,,,,false,,,,166025,166024.70000001788,,166024.20000001788,,166036.979,8,400,,,
sequence,flow.Sequence,4_2,2023-11-01T01:01:58.848Z,,0,,,3820.842000017874,completion,,,,,false,,,,166025.5,166024.70000001788,162187.193,162206.60000002384,162203.858,166036.979,8,400,,,
trial,html.Screen,4_3_0,2023-11-01T01:02:02.132Z,,0,1,,3271.7210000178893,response,ISIC_1977315.JPG,5,ISIC_0026558.JPG,ISIC_1977315.JPG,false,1,keypress(m),500,169309.30000001192,169308.70000001788,166020.314,166025.90000000596,166036.979,169320.152,8,400,4,,ISIC_0026558.JPG
break,html.Screen,4_3_1,2023-11-01T01:02:02.135Z,,0,,,NaN,,,,,,false,,,,169312.40000000596,169311.90000000596,,169309.80000001192,,169320.152,8,400,,,
break_continue,html.Screen,4_3_2,2023-11-01T01:02:02.136Z,,0,,,NaN,,,,,,false,,,,169313.40000000596,169313.20000001788,,169312.70000001788,,169320.152,8,400,,,
sequence,flow.Sequence,4_3,2023-11-01T01:02:02.137Z,,0,,,3276.2210000178893,completion,,,,,false,,,,169313.90000000596,169313.20000001788,166020.314,166025.80000001192,166036.979,169320.152,8,400,,,
trial,html.Screen,4_4_0,2023-11-01T01:02:08.700Z,,0,1,,6556.648000011919,response,ISIC_4927943.JPG,4,ISIC_7340926.JPG,ISIC_4927943.JPG,false,1,keypress(m),500,175877.20000001788,175876.80000001192,169303.487,169314.20000001788,169320.152,175903.107,8,400,5,,ISIC_7340926.JPG
break,html.Screen,4_4_1,2023-11-01T01:02:08.702Z,,0,,,NaN,,,,,,false,,,,175879.60000002384,175878.80000001192,,175877.70000001788,,175903.107,8,400,,,
break_continue,html.Screen,4_4_2,2023-11-01T01:02:08.704Z,,0,,,NaN,,,,,,false,,,,175881.20000001788,175880.80000001192,,175880,,175903.107,8,400,,,
sequence,flow.Sequence,4_4,2023-11-01T01:02:08.704Z,,0,,,6560.648000011919,completion,,,,,false,,,,175881.60000002384,175880.80000001192,169303.487,169314.20000001788,169320.152,175903.107,8,400,,,
trial,html.Screen,4_5_0,2023-11-01T01:02:13.014Z,,0,1,,4287.993000023853,response,ISIC_0057858.JPG,5,ISIC_0000043.JPG,ISIC_0057858.JPG,false,1,keypress(m),500,180191.70000001788,180191.10000002384,175886.442,175882.10000002384,175903.107,180202.869,8,400,6,,ISIC_0000043.JPG
break,html.Screen,4_5_1,2023-11-01T01:02:13.017Z,,0,,,NaN,,,,,,false,,,,180194.70000001788,180194,,180192.40000000596,,180202.869,8,400,,,
break_continue,html.Screen,4_5_2,2023-11-01T01:02:13.019Z,,0,,,NaN,,,,,,false,,,,180195.90000000596,180195.60000002384,,180195.10000002384,,180202.869,8,400,,,
sequence,flow.Sequence,4_5,2023-11-01T01:02:13.019Z,,0,,,4292.493000023853,completion,,,,,false,,,,180196.40000000596,180195.60000002384,175886.442,175881.90000000596,175903.107,180202.869,8,400,,,
trial,html.Screen,4_6_0,2023-11-01T01:02:16.207Z,,0,1,,3180.630999999994,response,ISIC_0004558.JPG,5,ISIC_8624186.JPG,ISIC_8624186.JPG,false,0,keypress(z),500,183384.10000002384,183383.5,180186.204,180196.80000001192,180202.869,183386.039,8,400,7,,ISIC_0004558.JPG
break,html.Screen,4_6_1,2023-11-01T01:02:16.210Z,,0,,,NaN,,,,,,false,,,,183386.80000001192,183386.20000001788,,183384.5,,183386.039,8,400,,,
break_continue,html.Screen,4_6_2,2023-11-01T01:02:16.211Z,,0,,,NaN,,,,,,false,,,,183388.10000002384,183387.80000001192,,183387.20000001788,,183386.039,8,400,,,
sequence,flow.Sequence,4_6,2023-11-01T01:02:16.211Z,,0,,,3184.931000011915,completion,,,,,false,,,,183388.60000002384,183387.80000001192,180186.204,180196.60000002384,180202.869,183386.039,8,400,,,
trial,html.Screen,4_7_0,2023-11-01T01:02:22.542Z,,0,1,,6332.661000017892,response,ISIC_0054355.JPG,5,ISIC_0012047.JPG,ISIC_0054355.JPG,false,1,keypress(m),500,189719.5,189718.70000001788,183369.374,183388.90000000596,183386.039,189735.686,8,400,8,,ISIC_0012047.JPG
break,html.Screen,4_7_1,2023-11-01T01:02:22.546Z,,0,,,NaN,,,,,,false,,,,189723.10000002384,189722.40000000596,,189720,,189735.686,8,400,,,
break_continue,html.Screen,4_7_2,2023-11-01T01:02:22.547Z,,0,,,NaN,,,,,,false,,,,189724.20000001788,189723.90000000596,,189723.40000000596,,189735.686,8,400,,,
sequence,flow.Sequence,4_7,2023-11-01T01:02:22.547Z,,0,,,6337.861000005971,completion,,,,,false,,,,189724.60000002384,189723.90000000596,183369.374,183388.90000000596,183386.039,189735.686,8,400,,,
trial,html.Screen,4_8_0,2023-11-01T01:02:26.238Z,,0,1,,3679.314000000013,response,ISIC_0031233.JPG,5,ISIC_0032598.JPG,ISIC_0031233.JPG,false,1,keypress(m),500,193415.60000002384,193415,189719.021,189724.80000001192,189735.686,193435.478,8,400,9,,ISIC_0032598.JPG
break,html.Screen,4_8_1,2023-11-01T01:02:26.241Z,,0,,,NaN,,,,,,false,,,,193418.30000001192,193417.60000002384,,193416.10000002384,,193435.478,8,400,,,
break_continue,html.Screen,4_8_2,2023-11-01T01:02:26.242Z,,0,,,NaN,,,,,,false,,,,193419.70000001788,193419.40000000596,,193418.60000002384,,193435.478,8,400,,,
sequence,flow.Sequence,4_8,2023-11-01T01:02:26.243Z,,0,,,3683.7140000059735,completion,,,,,false,,,,193420.20000001788,193419.40000000596,189719.021,189724.80000001192,189735.686,193435.478,8,400,,,
trial,html.Screen,4_9_0,2023-11-01T01:02:33.639Z,,0,1,,7380.422000005958,response,ISIC_0002878.JPG,5,ISIC_0010734.JPG,ISIC_0010734.JPG,false,0,keypress(z),500,200816.40000000596,200815.90000000596,193418.813,193420.60000002384,193435.478,200818.407,8,400,10,,ISIC_0002878.JPG
break,html.Screen,4_9_1,2023-11-01T01:02:33.642Z,,0,,,NaN,,,,,,false,,,,200819.10000002384,200818.30000001192,,200816.80000001192,,200818.407,8,400,,,
break_continue,html.Screen,4_9_2,2023-11-01T01:02:33.643Z,,0,,,NaN,,,,,,false,,,,200820.30000001192,200820,,200819.40000000596,,200818.407,8,400,,,
sequence,flow.Sequence,4_9,2023-11-01T01:02:33.644Z,,0,,,7384.521999999997,completion,,,,,false,,,,200820.80000001192,200820,193418.813,193420.5,193435.478,200818.407,8,400,,,
trial,html.Screen,4_10_0,2023-11-01T01:02:37.983Z,,0,1,,4341.193000023835,response,ISIC_0033042.JPG,4,ISIC_8009880.JPG,ISIC_0033042.JPG,false,1,keypress(m),500,205160.20000001788,205159.60000002384,200801.742,200821.20000001788,200818.407,205168.17,8,400,11,,ISIC_8009880.JPG
break,html.Screen,4_10_1,2023-11-01T01:02:37.985Z,,0,,,NaN,,,,,,false,,,,205162.70000001788,205162.20000001788,,205160.70000001788,,205168.17,8,400,,,
break_continue,html.Screen,4_10_2,2023-11-01T01:02:37.987Z,,0,,,NaN,,,,,,false,,,,205163.90000000596,205163.5,,205163.10000002384,,205168.17,8,400,,,
sequence,flow.Sequence,4_10,2023-11-01T01:02:37.987Z,,0,,,4345.0929999999935,completion,,,,,false,,,,205164.30000001192,205163.5,200801.742,200821.10000002384,200818.407,205168.17,8,400,,,
trial,html.Screen,4_11_0,2023-11-01T01:02:40.950Z,,0,1,,2958.930000023829,response,ISIC_6723937.JPG,5,ISIC_0010433.JPG,ISIC_0010433.JPG,false,0,keypress(z),500,208127.70000001788,208127.10000002384,205151.505,205164.70000001788,205168.17,208134.675,8,400,12,,ISIC_6723937.JPG
break,html.Screen,4_11_1,2023-11-01T01:02:40.953Z,,0,,,NaN,,,,,,false,,,,208130.60000002384,208130,,208128.10000002384,,208134.675,8,400,,,
break_continue,html.Screen,4_11_2,2023-11-01T01:02:40.955Z,,0,,,NaN,,,,,,false,,,,208131.80000001192,208131.5,,208131,,208134.675,8,400,,,
sequence,flow.Sequence,4_11,2023-11-01T01:02:40.955Z,,0,,,2963.329999999987,completion,,,,,false,,,,208132.30000001192,208131.5,205151.505,205164.60000002384,205168.17,208134.675,8,400,,,
trial,html.Screen,4_12_0,2023-11-01T01:02:46.047Z,,0,1,,5089.025000017893,response,ISIC_2312766.JPG,5,ISIC_0065477.JPG,ISIC_2312766.JPG,false,1,keypress(m),500,213224.40000000596,213223.70000001788,208118.01,208132.70000001788,208134.675,213234.414,8,400,13,,ISIC_0065477.JPG
break,html.Screen,4_12_1,2023-11-01T01:02:46.050Z,,0,,,NaN,,,,,,false,,,,213227.10000002384,213226.5,,213224.90000000596,,213234.414,8,400,,,
break_continue,html.Screen,4_12_2,2023-11-01T01:02:46.052Z,,0,,,NaN,,,,,,false,,,,213228.80000001192,213228.40000000596,,213227.80000001192,,213234.414,8,400,,,
sequence,flow.Sequence,4_12,2023-11-01T01:02:46.052Z,,0,,,5093.725000005972,completion,,,,,false,,,,213229.20000001788,213228.40000000596,208118.01,208132.5,208134.675,213234.414,8,400,,,
trial,html.Screen,4_13_0,2023-11-01T01:02:49.816Z,,0,1,,3758.0860000000102,response,ISIC_0032587.JPG,5,ISIC_6446779.JPG,ISIC_6446779.JPG,false,0,keypress(z),500,216993,216992.5,213217.749,213229.60000002384,213234.414,217000.862,8,400,14,,ISIC_0032587.JPG
break,html.Screen,4_13_1,2023-11-01T01:02:49.818Z,,0,,,NaN,,,,,,false,,,,216995.70000001788,216995.10000002384,,216993.5,,217000.862,8,400,,,
break_continue,html.Screen,4_13_2,2023-11-01T01:02:49.820Z,,0,,,NaN,,,,,,false,,,,216997,216996.70000001788,,216996.20000001788,,217000.862,8,400,,,
sequence,flow.Sequence,4_13,2023-11-01T01:02:49.820Z,,0,,,3762.2860000178916,completion,,,,,false,,,,216997.40000000596,216996.70000001788,213217.749,213229.5,213234.414,217000.862,8,400,,,
trial,html.Screen,4_14_0,2023-11-01T01:02:53.904Z,,0,1,,4079.738000023848,response,ISIC_0032044.JPG,5,ISIC_0053659.JPG,ISIC_0032044.JPG,false,1,keypress(m),500,221081.20000001788,221080.60000002384,216984.197,216997.90000000596,217000.862,221083.965,8,400,15,,ISIC_0053659.JPG
break,html.Screen,4_14_1,2023-11-01T01:02:53.907Z,,0,,,NaN,,,,,,false,,,,221083.90000000596,221083.20000001788,,221081.70000001788,,221083.965,8,400,,,
break_continue,html.Screen,4_14_2,2023-11-01T01:02:53.908Z,,0,,,NaN,,,,,,false,,,,221085.70000001788,221085.30000001192,,221084.60000002384,,221083.965,8,400,,,
sequence,flow.Sequence,4_14,2023-11-01T01:02:53.909Z,,0,,,4084.438000011927,completion,,,,,false,,,,221086.10000002384,221085.30000001192,216984.197,216997.80000001192,217000.862,221083.965,8,400,,,
trial,html.Screen,4_15_0,2023-11-01T01:02:56.686Z,,0,1,,2779.1350000238454,response,ISIC_0066784.JPG,5,ISIC_1426331.JPG,ISIC_1426331.JPG,false,0,keypress(z),500,223863.60000002384,223863.10000002384,221067.3,221086.5,221083.965,223867.158,8,400,16,,ISIC_0066784.JPG
break,html.Screen,4_15_1,2023-11-01T01:02:56.689Z,,0,,,NaN,,,,,,false,,,,223866.80000001192,223866.10000002384,,223864.10000002384,,223867.158,8,400,,,
break_continue,html.Screen,4_15_2,2023-11-01T01:02:56.691Z,,0,,,NaN,,,,,,false,,,,223868.10000002384,223867.80000001192,,223867,,223867.158,8,400,,,
sequence,flow.Sequence,4_15,2023-11-01T01:02:56.691Z,,0,,,2783.8350000119244,completion,,,,,false,,,,223868.60000002384,223867.80000001192,221067.3,221086.40000000596,221083.965,223867.158,8,400,,,
trial,html.Screen,4_16_0,2023-11-01T01:03:00.039Z,,0,1,,3348.142000011925,response,ISIC_0030985.JPG,5,ISIC_4648593.JPG,ISIC_4648593.JPG,false,0,keypress(z),500,227215.90000000596,227215.30000001192,223850.493,223869.10000002384,223867.158,227233.631,8,400,17,,ISIC_0030985.JPG
break,html.Screen,4_16_1,2023-11-01T01:03:00.041Z,,0,,,NaN,,,,,,false,,,,227218,227217.5,,227216.30000001192,,227233.631,8,400,,,
break_continue,html.Screen,4_16_2,2023-11-01T01:03:00.042Z,,0,,,NaN,,,,,,false,,,,227219.80000001192,227219.40000000596,,227218.80000001192,,227233.631,8,400,,,
sequence,flow.Sequence,4_16,2023-11-01T01:03:00.043Z,,0,,,3352.2420000059647,completion,,,,,false,,,,227220.10000002384,227219.40000000596,223850.493,223868.90000000596,223867.158,227233.631,8,400,,,
trial,html.Screen,4_17_0,2023-11-01T01:03:04.127Z,,0,1,,4069.869000000006,response,ISIC_7912104.JPG,5,ISIC_4529092.JPG,ISIC_7912104.JPG,false,1,keypress(m),500,231304,231303.5,227216.966,227220.60000002384,227233.631,231316.741,8,400,18,,ISIC_4529092.JPG
break,html.Screen,4_17_1,2023-11-01T01:03:04.129Z,,0,,,NaN,,,,,,false,,,,231306.5,231305.90000000596,,231304.60000002384,,231316.741,8,400,,,
break_continue,html.Screen,4_17_2,2023-11-01T01:03:04.130Z,,0,,,NaN,,,,,,false,,,,231307.70000001788,231307.40000000596,,231306.90000000596,,231316.741,8,400,,,
sequence,flow.Sequence,4_17,2023-11-01T01:03:04.131Z,,0,,,4073.7690000059665,completion,,,,,false,,,,231308.20000001788,231307.40000000596,227216.966,227220.5,227233.631,231316.741,8,400,,,
trial,html.Screen,4_18_0,2023-11-01T01:03:08.583Z,,0,1,,4442.659000005951,response,ISIC_7071944.JPG,5,ISIC_0027641.JPG,ISIC_7071944.JPG,false,1,keypress(m),500,235759.90000000596,235759.40000000596,231300.076,231308.5,231316.741,235766.49,8,400,19,,ISIC_0027641.JPG
break,html.Screen,4_18_1,2023-11-01T01:03:08.585Z,,0,,,NaN,,,,,,false,,,,235762.70000001788,235762,,235760.40000000596,,235766.49,8,400,,,
break_continue,html.Screen,4_18_2,2023-11-01T01:03:08.587Z,,0,,,NaN,,,,,,false,,,,235763.80000001192,235763.5,,235762.90000000596,,235766.49,8,400,,,
sequence,flow.Sequence,4_18,2023-11-01T01:03:08.587Z,,0,,,4446.758999999991,completion,,,,,false,,,,235764.20000001788,235763.5,231300.076,231308.5,231316.741,235766.49,8,400,,,
trial,html.Screen,4_19_0,2023-11-01T01:03:15.334Z,,0,1,,6744.41000000597,response,ISIC_0030592.JPG,5,ISIC_3218227.JPG,ISIC_3218227.JPG,false,0,keypress(z),500,242511.5,242510.90000000596,235749.825,235764.60000002384,235766.49,242516.124,8,400,20,,ISIC_0030592.JPG
break,html.Screen,4_19_1,2023-11-01T01:03:15.337Z,,0,,,NaN,,,,,,false,,,,242514.20000001788,242513.5,,242512,,242516.124,8,400,,,
break_continue,html.Screen,4_19_2,2023-11-01T01:03:15.338Z,,0,,,NaN,,,,,,false,,,,242515.40000000596,242515,,242514.5,,242516.124,8,400,,,
sequence,flow.Sequence,4_19,2023-11-01T01:03:15.339Z,,0,,,6748.510000000009,completion,,,,,false,,,,242515.80000001192,242515,235749.825,235764.5,235766.49,242516.124,8,400,,,
trial,html.Screen,4_20_0,2023-11-01T01:03:18.262Z,,0,1,,2923.0760000178707,response,ISIC_0031406.JPG,5,ISIC_0055737.JPG,ISIC_0031406.JPG,false,1,keypress(m),500,245439.5,245439.20000001788,242499.459,242516.70000001788,242516.124,245449.292,8,400,21,,ISIC_0055737.JPG
break,html.Screen,4_20_1,2023-11-01T01:03:18.263Z,,0,,,NaN,,,,,,false,,,,245440.60000002384,245440.10000002384,,245439.70000001788,,245449.292,8,400,,,
break_continue,html.Screen,4_20_2,2023-11-01T01:03:18.264Z,,0,,,NaN,,,,,,false,,,,245441.10000002384,245441,,245440.80000001192,,245449.292,8,400,,,
sequence,flow.Sequence,4_20,2023-11-01T01:03:18.268Z,,0,,,2924.8759999999893,completion,,,,,false,,,,245445.60000002384,245441,242499.459,242516.10000002384,242516.124,245449.292,8,400,,,
trial,html.Screen,4_21_0,2023-11-01T01:03:21.999Z,,0,1,,3726.308000023855,response,ISIC_7641956.JPG,5,ISIC_0025093.JPG,ISIC_7641956.JPG,false,1,keypress(m),500,249176.20000001788,249175.60000002384,245432.627,245445.80000001192,245449.292,249182.421,8,400,22,,ISIC_0025093.JPG
break,html.Screen,4_21_1,2023-11-01T01:03:22.002Z,,0,,,NaN,,,,,,false,,,,249179.10000002384,249178.5,,249176.70000001788,,249182.421,8,400,,,
break_continue,html.Screen,4_21_2,2023-11-01T01:03:22.003Z,,0,,,NaN,,,,,,false,,,,249180.20000001788,249179.90000000596,,249179.40000000596,,249182.421,8,400,,,
sequence,flow.Sequence,4_21,2023-11-01T01:03:22.003Z,,0,,,3730.6080000059737,completion,,,,,false,,,,249180.70000001788,249179.90000000596,245432.627,245445.80000001192,245449.292,249182.421,8,400,,,
trial,html.Screen,4_22_0,2023-11-01T01:03:26.207Z,,0,1,,4200.779000017879,response,ISIC_4793961.JPG,5,ISIC_0025708.JPG,ISIC_0025708.JPG,false,0,keypress(z),500,253384,253383.20000001788,249165.756,249181,249182.421,253398.857,8,400,23,,ISIC_4793961.JPG
break,html.Screen,4_22_1,2023-11-01T01:03:26.209Z,,0,,,NaN,,,,,,false,,,,253386.40000000596,253385.80000001192,,253384.5,,253398.857,8,400,,,
break_continue,html.Screen,4_22_2,2023-11-01T01:03:26.210Z,,0,,,NaN,,,,,,false,,,,253387.5,253387.20000001788,,253386.80000001192,,253398.857,8,400,,,
sequence,flow.Sequence,4_22,2023-11-01T01:03:26.211Z,,0,,,4204.779000017879,completion,,,,,false,,,,253388,253387.20000001788,249165.756,249180.90000000596,249182.421,253398.857,8,400,,,
trial,html.Screen,4_23_0,2023-11-01T01:03:30.598Z,,0,1,,4376.243000023853,response,ISIC_0029328.JPG,5,ISIC_2969968.JPG,ISIC_0029328.JPG,false,1,keypress(m),500,257775.70000001788,257775.10000002384,253382.192,253388.40000000596,253398.857,257781.955,8,400,24,,ISIC_2969968.JPG
break,html.Screen,4_23_1,2023-11-01T01:03:30.601Z,,0,,,NaN,,,,,,false,,,,257778.60000002384,257777.90000000596,,257776.20000001788,,257781.955,8,400,,,
break_continue,html.Screen,4_23_2,2023-11-01T01:03:30.602Z,,0,,,NaN,,,,,,false,,,,257779.70000001788,257779.40000000596,,257778.90000000596,,257781.955,8,400,,,
sequence,flow.Sequence,4_23,2023-11-01T01:03:30.603Z,,0,,,4380.543000005971,completion,,,,,false,,,,257780.20000001788,257779.40000000596,253382.192,253388.20000001788,253398.857,257781.955,8,400,,,
trial,html.Screen,4_24_0,2023-11-01T01:03:33.519Z,,0,1,,2913.745000017894,response,ISIC_4314089.JPG,5,ISIC_0024631.JPG,ISIC_4314089.JPG,false,1,keypress(m),500,260696.20000001788,260695.70000001788,257765.29,257780.5,257781.955,260698.46,8,400,25,,ISIC_0024631.JPG
break,html.Screen,4_24_1,2023-11-01T01:03:33.523Z,,0,,,NaN,,,,,,false,,,,260699.80000001192,260699.20000001788,,260696.70000001788,,260698.46,8,400,,,
break_continue,html.Screen,4_24_2,2023-11-01T01:03:33.524Z,,0,,,NaN,,,,,,false,,,,260701,260700.80000001192,,260700.20000001788,,260698.46,8,400,,,
sequence,flow.Sequence,4_24,2023-11-01T01:03:33.525Z,,0,,,2918.8450000119337,completion,,,,,false,,,,260701.80000001192,260700.80000001192,257765.29,257780.5,257781.955,260698.46,8,400,,,
trial,html.Screen,4_25_0,2023-11-01T01:03:37.720Z,,0,1,,4198.64000002385,response,ISIC_1334438.JPG,5,ISIC_0069669.JPG,ISIC_0069669.JPG,false,0,keypress(z),500,264897.8000000119,264897.10000002384,260681.795,260702.30000001192,260698.46,264914.89,8,400,26,,ISIC_1334438.JPG
break,html.Screen,4_25_1,2023-11-01T01:03:37.723Z,,0,,,NaN,,,,,,false,,,,264900.5,264899.8000000119,,264898.2000000179,,264914.89,8,400,,,
break_continue,html.Screen,4_25_2,2023-11-01T01:03:37.725Z,,0,,,NaN,,,,,,false,,,,264901.90000000596,264901.5,,264900.8000000119,,264914.89,8,400,,,
sequence,flow.Sequence,4_25,2023-11-01T01:03:37.725Z,,0,,,4203.040000000008,completion,,,,,false,,,,264902.40000000596,264901.5,260681.795,260702.20000001788,260698.46,264914.89,8,400,,,
trial,html.Screen,4_26_0,2023-11-01T01:03:41.590Z,,0,1,,3851.710000023828,response,ISIC_5386244.JPG,5,ISIC_5457889.JPG,ISIC_5386244.JPG,false,1,keypress(m),500,268767.10000002384,268766.60000002384,264898.225,264902.8000000119,264914.89,268781.355,8,400,27,,ISIC_5457889.JPG
break,html.Screen,4_26_1,2023-11-01T01:03:41.592Z,,0,,,NaN,,,,,,false,,,,268769.60000002384,268769,,268767.60000002384,,268781.355,8,400,,,
break_continue,html.Screen,4_26_2,2023-11-01T01:03:41.593Z,,0,,,NaN,,,,,,false,,,,268770.8000000119,268770.40000000596,,268769.90000000596,,268781.355,8,400,,,
sequence,flow.Sequence,4_26,2023-11-01T01:03:41.594Z,,0,,,3855.5100000059465,completion,,,,,false,,,,268771.10000002384,268770.40000000596,264898.225,264902.7000000179,264914.89,268781.355,8,400,,,
trial,html.Screen,4_27_0,2023-11-01T01:03:46.109Z,,0,1,,4504.8450000179,response,ISIC_0009984.JPG,5,ISIC_0027541.JPG,ISIC_0009984.JPG,false,1,keypress(m),500,273286.60000002384,273286.2000000179,268764.69,268771.8000000119,268781.355,273297.783,8,400,28,,ISIC_0027541.JPG
break,html.Screen,4_27_1,2023-11-01T01:03:46.111Z,,0,,,NaN,,,,,,false,,,,273288.8000000119,273288.2000000179,,273287,,273297.783,8,400,,,
break_continue,html.Screen,4_27_2,2023-11-01T01:03:46.112Z,,0,,,NaN,,,,,,false,,,,273289.7000000179,273289.40000000596,,273288.90000000596,,273297.783,8,400,,,
sequence,flow.Sequence,4_27,2023-11-01T01:03:46.113Z,,0,,,4508.045000005979,completion,,,,,false,,,,273289.90000000596,273289.40000000596,268764.69,268771.7000000179,268781.355,273297.783,8,400,,,
trial,html.Screen,4_28_0,2023-11-01T01:03:49.214Z,,0,1,,3093.1170000059647,response,ISIC_3664380.JPG,5,ISIC_8477065.JPG,ISIC_8477065.JPG,false,0,keypress(z),500,276391.5,276390.90000000596,273281.118,273290.3000000119,273297.783,276397.604,8,400,29,,ISIC_3664380.JPG
break,html.Screen,4_28_1,2023-11-01T01:03:49.217Z,,0,,,NaN,,,,,,false,,,,276394.40000000596,276393.8000000119,,276392,,276397.604,8,400,,,
break_continue,html.Screen,4_28_2,2023-11-01T01:03:49.218Z,,0,,,NaN,,,,,,false,,,,276395.60000002384,276395.2000000179,,276394.7000000179,,276397.604,8,400,,,
sequence,flow.Sequence,4_28,2023-11-01T01:03:49.219Z,,0,,,3097.4170000178856,completion,,,,,false,,,,276396,276395.2000000179,273281.118,273290.10000002384,273297.783,276397.604,8,400,,,
trial,html.Screen,4_29_0,2023-11-01T01:03:56.087Z,,0,1,,6865.796000005968,response,ISIC_1166522.JPG,5,ISIC_0031717.JPG,ISIC_1166522.JPG,false,1,keypress(m),500,283264.10000002384,283263.40000000596,276380.939,276396.40000000596,276397.604,283280.559,8,400,30,,ISIC_0031717.JPG
break,html.Screen,4_29_1,2023-11-01T01:03:56.089Z,,0,,,NaN,,,,,,false,,,,283266.5,283265.90000000596,,283264.90000000596,,283280.559,8,400,,,
break_continue,html.Screen,4_29_2,2023-11-01T01:03:56.091Z,,0,,,NaN,,,,,,false,,,,283267.90000000596,283267.60000002384,,283266.90000000596,,283280.559,8,400,,,
sequence,flow.Sequence,4_29,2023-11-01T01:03:56.091Z,,0,,,6869.99600002385,completion,,,,,false,,,,283268.40000000596,283267.60000002384,276380.939,276396.2000000179,276397.604,283280.559,8,400,,,
trial,html.Screen,4_30_0,2023-11-01T01:03:59.655Z,,0,1,,3550.7410000119125,response,ISIC_9694867.JPG,5,ISIC_0011460.JPG,ISIC_0011460.JPG,false,0,keypress(z),500,286831.90000000596,286831.3000000119,283263.894,283268.8000000119,283280.559,286847.029,8,400,31,,ISIC_9694867.JPG
break,html.Screen,4_30_1,2023-11-01T01:03:59.657Z,,0,,,NaN,,,,,,false,,,,286834.2000000179,286833.7000000179,,286832.5,,286847.029,8,400,,,
break_continue,html.Screen,4_30_2,2023-11-01T01:03:59.658Z,,0,,,NaN,,,,,,false,,,,286835.40000000596,286835,,286834.60000002384,,286847.029,8,400,,,
sequence,flow.Sequence,4_30,2023-11-01T01:03:59.659Z,,0,,,3554.4409999999916,completion,,,,,false,,,,286835.8000000119,286835,283263.894,283268.7000000179,283280.559,286847.029,8,400,,,
trial,html.Screen,4_31_0,2023-11-01T01:04:03.542Z,,0,1,,3871.7710000119405,response,ISIC_0002622.JPG,5,ISIC_1929937.JPG,ISIC_1929937.JPG,false,0,keypress(z),500,290719.40000000596,290718.8000000119,286830.364,286836.2000000179,286847.029,290730.155,8,400,32,,ISIC_0002622.JPG
break,html.Screen,4_31_1,2023-11-01T01:04:03.545Z,,0,,,NaN,,,,,,false,,,,290722.3000000119,290721.60000002384,,290719.8000000119,,290730.155,8,400,,,
break_continue,html.Screen,4_31_2,2023-11-01T01:04:03.546Z,,0,,,NaN,,,,,,false,,,,290723.40000000596,290723,,290722.60000002384,,290730.155,8,400,,,
sequence,flow.Sequence,4_31,2023-11-01T01:04:03.547Z,,0,,,3875.9710000000196,completion,,,,,false,,,,290723.90000000596,290723,286830.364,286836.10000002384,286847.029,290730.155,8,400,,,
trial,html.Screen,4_32_0,2023-11-01T01:04:08.806Z,,0,1,,5252.945000023814,response,ISIC_0644590.JPG,4,ISIC_0028397.JPG,ISIC_0644590.JPG,false,1,keypress(m),500,295983.7000000179,295983.10000002384,290713.49,290724.2000000179,290730.155,295996.529,8,400,33,,ISIC_0028397.JPG
break,html.Screen,4_32_1,2023-11-01T01:04:08.809Z,,0,,,NaN,,,,,,false,,,,295986.40000000596,295985.8000000119,,295984.2000000179,,295996.529,8,400,,,
break_continue,html.Screen,4_32_2,2023-11-01T01:04:08.810Z,,0,,,NaN,,,,,,false,,,,295987.5,295987.2000000179,,295986.7000000179,,295996.529,8,400,,,
sequence,flow.Sequence,4_32,2023-11-01T01:04:08.811Z,,0,,,5257.045000017853,completion,,,,,false,,,,295987.90000000596,295987.2000000179,290713.49,290724.10000002384,290730.155,295996.529,8,400,,,
trial,html.Screen,4_33_0,2023-11-01T01:04:13.478Z,,0,1,,4658.171000017901,response,ISIC_8106899.JPG,5,ISIC_6559840.JPG,ISIC_8106899.JPG,false,1,keypress(m),500,300655.5,300654.7000000179,295979.864,295988.40000000596,295996.529,300679.63,8,400,34,,ISIC_6559840.JPG
break,html.Screen,4_33_1,2023-11-01T01:04:13.480Z,,0,,,NaN,,,,,,false,,,,300657.60000002384,300657,,300656,,300679.63,8,400,,,
break_continue,html.Screen,4_33_2,2023-11-01T01:04:13.481Z,,0,,,NaN,,,,,,false,,,,300658.7000000179,300658.5,,300657.90000000596,,300679.63,8,400,,,
sequence,flow.Sequence,4_33,2023-11-01T01:04:13.482Z,,0,,,4661.97100000002,completion,,,,,false,,,,300659.2000000179,300658.5,295979.864,295988.2000000179,295996.529,300679.63,8,400,,,
trial,html.Screen,4_34_0,2023-11-01T01:04:18.430Z,,0,1,,4926.770000005956,response,ISIC_0032342.JPG,5,ISIC_4882389.JPG,ISIC_4882389.JPG,false,0,keypress(z),500,305607,305606.40000000596,300662.947,300659.5,300679.63,305612.677,8,400,35,,ISIC_0032342.JPG
break,html.Screen,4_34_1,2023-11-01T01:04:18.432Z,,0,,,NaN,,,,,,false,,,,305609.2000000179,305608.60000002384,,305607.5,,305612.677,8,400,,,
break_continue,html.Screen,4_34_2,2023-11-01T01:04:18.433Z,,0,,,NaN,,,,,,false,,,,305610.40000000596,305610,,305609.5,,305612.677,8,400,,,
sequence,flow.Sequence,4_34,2023-11-01T01:04:18.434Z,,0,,,4930.369999999995,completion,,,,,false,,,,305610.8000000119,305610,300662.947,300659.5,300679.63,305612.677,8,400,,,
trial,html.Screen,4_35_0,2023-11-01T01:04:23.371Z,,0,1,,4934.822999999975,response,ISIC_5772938.JPG,5,ISIC_4624973.JPG,ISIC_4624973.JPG,false,0,keypress(z),500,310548.10000002384,310547.5,305596.012,305611.2000000179,305612.677,310579.062,8,400,36,,ISIC_5772938.JPG
break,html.Screen,4_35_1,2023-11-01T01:04:23.373Z,,0,,,NaN,,,,,,false,,,,310550.3000000119,310549.5,,310548.5,,310579.062,8,400,,,
break_continue,html.Screen,4_35_2,2023-11-01T01:04:23.374Z,,0,,,NaN,,,,,,false,,,,310551.40000000596,310551.10000002384,,310550.60000002384,,310579.062,8,400,,,
sequence,flow.Sequence,4_35,2023-11-01T01:04:23.375Z,,0,,,4938.423000023817,completion,,,,,false,,,,310551.8000000119,310551.10000002384,305596.012,305611,305612.677,310579.062,8,400,,,
trial,html.Screen,4_36_0,2023-11-01T01:04:27.074Z,,0,1,,3672.0380000238656,response,ISIC_1945381.JPG,5,ISIC_0064463.JPG,ISIC_0064463.JPG,false,0,keypress(z),500,314251.8000000119,314251.10000002384,310562.397,310552.2000000179,310579.062,314262.198,8,400,37,,ISIC_1945381.JPG
break,html.Screen,4_36_1,2023-11-01T01:04:27.077Z,,0,,,NaN,,,,,,false,,,,314254.7000000179,314254.10000002384,,314252.2000000179,,314262.198,8,400,,,
break_continue,html.Screen,4_36_2,2023-11-01T01:04:27.079Z,,0,,,NaN,,,,,,false,,,,314256,314255.60000002384,,314255,,314262.198,8,400,,,
sequence,flow.Sequence,4_36,2023-11-01T01:04:27.079Z,,0,,,3676.5380000238656,completion,,,,,false,,,,314256.40000000596,314255.60000002384,310562.397,310552.10000002384,310579.062,314262.198,8,400,,,
trial,html.Screen,4_37_0,2023-11-01T01:04:30.550Z,,0,1,,3464.902000023867,response,ISIC_0030002.JPG,5,ISIC_3932879.JPG,ISIC_0030002.JPG,false,1,keypress(m),500,317727.8000000119,317727.10000002384,314245.533,314256.8000000119,314262.198,317745.344,8,400,38,,ISIC_3932879.JPG
break,html.Screen,4_37_1,2023-11-01T01:04:30.554Z,,0,,,NaN,,,,,,false,,,,317730.8000000119,317730.10000002384,,317728.2000000179,,317745.344,8,400,,,
break_continue,html.Screen,4_37_2,2023-11-01T01:04:30.555Z,,0,,,NaN,,,,,,false,,,,317731.90000000596,317731.60000002384,,317731.10000002384,,317745.344,8,400,,,
sequence,flow.Sequence,4_37,2023-11-01T01:04:30.555Z,,0,,,3469.402000023867,completion,,,,,false,,,,317732.5,317731.60000002384,314245.533,314256.7000000179,314262.198,317745.344,8,400,,,
trial,html.Screen,4_38_0,2023-11-01T01:04:33.494Z,,0,1,,2925.6560000000172,response,ISIC_0032615.JPG,5,ISIC_0776189.JPG,ISIC_0776189.JPG,false,0,keypress(z),500,320671.7000000179,320671,317728.679,317732.8000000119,317745.344,320678.512,8,400,39,,ISIC_0032615.JPG
break,html.Screen,4_38_1,2023-11-01T01:04:33.497Z,,0,,,NaN,,,,,,false,,,,320673.8000000119,320673.2000000179,,320672.10000002384,,320678.512,8,400,,,
break_continue,html.Screen,4_38_2,2023-11-01T01:04:33.498Z,,0,,,NaN,,,,,,false,,,,320674.90000000596,320674.7000000179,,320674.10000002384,,320678.512,8,400,,,
sequence,flow.Sequence,4_38,2023-11-01T01:04:33.498Z,,0,,,2929.3560000178986,completion,,,,,false,,,,320675.40000000596,320674.7000000179,317728.679,317732.7000000179,317745.344,320678.512,8,400,,,
trial,html.Screen,4_39_0,2023-11-01T01:04:36.902Z,,0,1,,3400.088000023854,response,ISIC_0032033.JPG,5,ISIC_0000349.JPG,ISIC_0000349.JPG,false,0,keypress(z),500,324078.90000000596,324078.60000002384,320661.847,320675.8000000119,320678.512,324095.021,8,400,40,,ISIC_0032033.JPG
break,html.Screen,4_39_1,2023-11-01T01:04:36.903Z,,0,,,NaN,,,,,,false,,,,324079.8000000119,324079.60000002384,,324079,,324095.021,8,400,,,
break_continue,html.Screen,4_39_2,2023-11-01T01:04:36.903Z,,0,,,NaN,,,,,,false,,,,324080.10000002384,324080.10000002384,,324079.90000000596,,324095.021,8,400,,,
sequence,flow.Sequence,4_39,2023-11-01T01:04:36.903Z,,0,,,3401.588000023854,completion,,,,,false,,,,324080.3000000119,324080.10000002384,320661.847,320675.7000000179,320678.512,324095.021,8,400,,,
trial,html.Screen,4_40_0,2023-11-01T01:04:43.270Z,,0,1,,6351.579000023834,response,ISIC_0059597.JPG,4,ISIC_0029283.JPG,ISIC_0059597.JPG,false,1,keypress(m),500,330447.10000002384,330446.60000002384,324078.33,324080.5,324095.021,330461.306,8,400,41,,ISIC_0029283.JPG
break,html.Screen,4_40_1,2023-11-01T01:04:43.273Z,,0,,,NaN,,,,,,false,,,,330449.90000000596,330449.3000000119,,330447.60000002384,,330461.306,8,400,,,
break_continue,html.Screen,4_40_2,2023-11-01T01:04:43.274Z,,0,,,NaN,,,,,,false,,,,330451,330450.8000000119,,330450.2000000179,,330461.306,8,400,,,
sequence,flow.Sequence,4_40,2023-11-01T01:04:43.274Z,,0,,,6355.779000011913,completion,,,,,false,,,,330451.5,330450.8000000119,324078.33,324080.40000000596,324095.021,330461.306,8,400,,,
trial,html.Screen,4_41_0,2023-11-01T01:04:46.766Z,,0,1,,3481.2940000238596,response,ISIC_4803943.JPG,5,ISIC_0072136.JPG,ISIC_0072136.JPG,false,0,keypress(z),500,333943.10000002384,333942.60000002384,330444.641,330451.90000000596,330461.306,333961.119,8,400,42,,ISIC_4803943.JPG
break,html.Screen,4_41_1,2023-11-01T01:04:46.768Z,,0,,,NaN,,,,,,false,,,,333945.60000002384,333945,,333943.60000002384,,333961.119,8,400,,,
break_continue,html.Screen,4_41_2,2023-11-01T01:04:46.770Z,,0,,,NaN,,,,,,false,,,,333946.90000000596,333946.60000002384,,333945.90000000596,,333961.119,8,400,,,
sequence,flow.Sequence,4_41,2023-11-01T01:04:46.770Z,,0,,,3485.2940000238596,completion,,,,,false,,,,333947.3000000119,333946.60000002384,330444.641,330451.8000000119,330461.306,333961.119,8,400,,,
trial,html.Screen,4_42_0,2023-11-01T01:04:52.934Z,,0,1,,6149.681000011915,response,ISIC_0000553.JPG,5,ISIC_0060342.JPG,ISIC_0000553.JPG,false,1,keypress(m),500,340111.40000000596,340110.8000000119,333944.454,333947.7000000179,333961.119,340127.45,8,400,43,,ISIC_0060342.JPG
break,html.Screen,4_42_1,2023-11-01T01:04:52.936Z,,0,,,NaN,,,,,,false,,,,340113.7000000179,340113,,340111.8000000119,,340127.45,8,400,,,
break_continue,html.Screen,4_42_2,2023-11-01T01:04:52.938Z,,0,,,NaN,,,,,,false,,,,340114.8000000119,340114.5,,340113.90000000596,,340127.45,8,400,,,
sequence,flow.Sequence,4_42,2023-11-01T01:04:52.938Z,,0,,,6153.380999999994,completion,,,,,false,,,,340115.2000000179,340114.5,333944.454,333947.60000002384,333961.119,340127.45,8,400,,,
trial,html.Screen,4_43_0,2023-11-01T01:04:56.342Z,,0,1,,3391.5499999999884,response,ISIC_8051628.JPG,5,ISIC_0011256.JPG,ISIC_8051628.JPG,false,1,keypress(m),500,343519.60000002384,343519,340110.785,340115.60000002384,340127.45,343527.268,8,400,44,,ISIC_0011256.JPG
break,html.Screen,4_43_1,2023-11-01T01:04:56.345Z,,0,,,NaN,,,,,,false,,,,343522,343521.40000000596,,343520.10000002384,,343527.268,8,400,,,
break_continue,html.Screen,4_43_2,2023-11-01T01:04:56.346Z,,0,,,NaN,,,,,,false,,,,343523.10000002384,343522.8000000119,,343522.3000000119,,343527.268,8,400,,,
sequence,flow.Sequence,4_43,2023-11-01T01:04:56.346Z,,0,,,3395.3500000119093,completion,,,,,false,,,,343523.5,343522.8000000119,340110.785,340115.5,340127.45,343527.268,8,400,,,
trial,html.Screen,4_44_0,2023-11-01T01:05:00.086Z,,0,1,,3735.732000000018,response,ISIC_6613150.JPG,5,ISIC_0013277.JPG,ISIC_6613150.JPG,false,1,keypress(m),500,347263.7000000179,347263,343510.603,343523.90000000596,343527.268,347277.055,8,400,45,,ISIC_0013277.JPG
break,html.Screen,4_44_1,2023-11-01T01:05:00.089Z,,0,,,NaN,,,,,,false,,,,347266.5,347265.90000000596,,347264.2000000179,,347277.055,8,400,,,
break_continue,html.Screen,4_44_2,2023-11-01T01:05:00.091Z,,0,,,NaN,,,,,,false,,,,347267.90000000596,347267.60000002384,,347266.8000000119,,347277.055,8,400,,,
sequence,flow.Sequence,4_44,2023-11-01T01:05:00.091Z,,0,,,3740.33200002386,completion,,,,,false,,,,347268.40000000596,347267.60000002384,343510.603,343523.8000000119,343527.268,347277.055,8,400,,,
trial,html.Screen,4_45_0,2023-11-01T01:05:06.678Z,,0,1,,6577.945000000007,response,ISIC_0068528.JPG,5,ISIC_5391758.JPG,ISIC_5391758.JPG,false,0,keypress(z),500,353855.7000000179,353855,347260.39,347268.90000000596,347277.055,353860.034,8,400,46,,ISIC_0068528.JPG
break,html.Screen,4_45_1,2023-11-01T01:05:06.681Z,,0,,,NaN,,,,,,false,,,,353858.3000000119,353857.7000000179,,353856.10000002384,,353860.034,8,400,,,
break_continue,html.Screen,4_45_2,2023-11-01T01:05:06.682Z,,0,,,NaN,,,,,,false,,,,353859.5,353859.2000000179,,353858.60000002384,,353860.034,8,400,,,
sequence,flow.Sequence,4_45,2023-11-01T01:05:06.683Z,,0,,,6582.145000017888,completion,,,,,false,,,,353859.90000000596,353859.2000000179,347260.39,347268.8000000119,347277.055,353860.034,8,400,,,
trial,html.Screen,4_46_0,2023-11-01T01:05:13.645Z,,0,1,,6961.766000011936,response,ISIC_0066382.JPG,4,ISIC_0072843.JPG,ISIC_0072843.JPG,false,0,keypress(z),500,360822.40000000596,360821.8000000119,353843.369,353860.40000000596,353860.034,360826.312,8,400,47,,ISIC_0066382.JPG
break,html.Screen,4_46_1,2023-11-01T01:05:13.648Z,,0,,,NaN,,,,,,false,,,,360824.90000000596,360824.3000000119,,360822.90000000596,,360826.312,8,400,,,
break_continue,html.Screen,4_46_2,2023-11-01T01:05:13.649Z,,0,,,NaN,,,,,,false,,,,360826.2000000179,360825.90000000596,,360825.3000000119,,360826.312,8,400,,,
sequence,flow.Sequence,4_46,2023-11-01T01:05:13.650Z,,0,,,6965.866000005975,completion,,,,,false,,,,360827,360825.90000000596,353843.369,353860.3000000119,353860.034,360826.312,8,400,,,
trial,html.Screen,4_47_0,2023-11-01T01:05:18.550Z,,0,1,,4900.288000023866,response,ISIC_0072418.JPG,5,ISIC_1985436.JPG,ISIC_0072418.JPG,false,1,keypress(m),500,365727.2000000179,365726.60000002384,360809.647,360827.5,360826.312,365742.71,8,400,48,,ISIC_1985436.JPG
break,html.Screen,4_47_1,2023-11-01T01:05:18.553Z,,0,,,NaN,,,,,,false,,,,365730.7000000179,365728.90000000596,,365727.60000002384,,365742.71,8,400,,,
break_continue,html.Screen,4_47_2,2023-11-01T01:05:18.555Z,,0,,,NaN,,,,,,false,,,,365731.8000000119,365731.40000000596,,365730.90000000596,,365742.71,8,400,,,
sequence,flow.Sequence,4_47,2023-11-01T01:05:18.555Z,,0,,,4905.088000005984,completion,,,,,false,,,,365732.5,365731.40000000596,360809.647,360827.3000000119,360826.312,365742.71,8,400,,,
trial,html.Screen,4_48_0,2023-11-01T01:05:23.648Z,,0,1,,5082.390000023821,response,ISIC_1661837.JPG,5,ISIC_6326803.JPG,ISIC_1661837.JPG,false,1,keypress(m),500,370825.60000002384,370825.10000002384,365726.045,365732.90000000596,365742.71,370842.428,8,400,49,,ISIC_6326803.JPG
break,html.Screen,4_48_1,2023-11-01T01:05:23.654Z,,0,,,NaN,,,,,,false,,,,370831.10000002384,370827.8000000119,,370826.60000002384,,370842.428,8,400,,,
break_continue,html.Screen,4_48_2,2023-11-01T01:05:23.655Z,,0,,,NaN,,,,,,false,,,,370832.5,370832.10000002384,,370831.5,,370842.428,8,400,,,
sequence,flow.Sequence,4_48,2023-11-01T01:05:23.656Z,,0,,,5089.390000023821,completion,,,,,false,,,,370832.90000000596,370832.10000002384,365726.045,365732.7000000179,365742.71,370842.428,8,400,,,
trial,html.Screen,4_49_0,2023-11-01T01:05:27.388Z,,0,1,,3721.6720000238274,response,ISIC_1532684.JPG,5,ISIC_4644299.JPG,ISIC_4644299.JPG,false,0,keypress(z),500,374564.8000000119,374564.10000002384,370825.763,370833.40000000596,370842.428,374575.566,8,400,50,,ISIC_1532684.JPG
break,html.Screen,4_49_1,2023-11-01T01:05:37.383Z,,0,,,9999.473999999987,timeout,,,,,false,,,,384559.90000000596,384558.375,374558.901,374565.3000000119,374575.566,384575.04,8,400,,,
break_continue,html.Screen,4_49_2,2023-11-01T01:05:39.257Z,,0,,,1835.5600000238628,response,,,,,false,continue,keypress(Space),,386434.60000002384,386410.60000002384,384558.375,384560.10000002384,384575.04,386441.519,8,400,,,
sequence,flow.Sequence,4_49,2023-11-01T01:05:39.258Z,,0,,,15568.172000023827,completion,,,,,false,,,,386434.8000000119,386410.60000002384,370825.763,370833.2000000179,370842.428,386441.519,8,400,,,
trial,html.Screen,4_50_0,2023-11-01T01:05:46.284Z,,0,2,,7019.18100001791,response,ISIC_7621412.JPG,4,ISIC_7511557.JPG,ISIC_7511557.JPG,false,0,keypress(z),500,393461.3000000119,393460.7000000179,386424.854,386435,386441.519,393474.52,8,400,1,,ISIC_7621412.JPG
break,html.Screen,4_50_1,2023-11-01T01:05:46.290Z,,0,,,NaN,,,,,,false,,,,393467.40000000596,393466.60000002384,,393461.8000000119,,393474.52,8,400,,,
break_continue,html.Screen,4_50_2,2023-11-01T01:05:46.291Z,,0,,,NaN,,,,,,false,,,,393468.7000000179,393468.3000000119,,393467.7000000179,,393474.52,8,400,,,
sequence,flow.Sequence,4_50,2023-11-01T01:05:46.292Z,,0,,,7026.78100001195,completion,,,,,false,,,,393469.10000002384,393468.3000000119,386424.854,386434.90000000596,386441.519,393474.52,8,400,,,
trial,html.Screen,4_51_0,2023-11-01T01:05:49.150Z,,0,2,,2852.380000005942,response,ISIC_0063369.JPG,4,ISIC_0071111.JPG,ISIC_0063369.JPG,false,1,keypress(m),500,396327.60000002384,396326.90000000596,393457.855,393469.5,393474.52,396341.035,8,400,2,,ISIC_0071111.JPG
break,html.Screen,4_51_1,2023-11-01T01:05:49.153Z,,0,,,NaN,,,,,,false,,,,396330.60000002384,396330.10000002384,,396328.10000002384,,396341.035,8,400,,,
break_continue,html.Screen,4_51_2,2023-11-01T01:05:49.155Z,,0,,,NaN,,,,,,false,,,,396331.8000000119,396331.5,,396331,,396341.035,8,400,,,
sequence,flow.Sequence,4_51,2023-11-01T01:05:49.155Z,,0,,,2856.9799999999814,completion,,,,,false,,,,396332.2000000179,396331.5,393457.855,393469.40000000596,393474.52,396341.035,8,400,,,
trial,html.Screen,4_52_0,2023-11-01T01:05:52.302Z,,0,2,,3137.9650000000256,response,ISIC_6888402.JPG,5,ISIC_0064979.JPG,ISIC_6888402.JPG,false,1,keypress(m),500,399479.60000002384,399479,396324.37,396332.7000000179,396341.035,399490.86,8,400,3,,ISIC_0064979.JPG
break,html.Screen,4_52_1,2023-11-01T01:05:52.305Z,,0,,,NaN,,,,,,false,,,,399482.3000000119,399481.7000000179,,399480.10000002384,,399490.86,8,400,,,
break_continue,html.Screen,4_52_2,2023-11-01T01:05:52.313Z,,0,,,NaN,,,,,,false,,,,399490.60000002384,399490.10000002384,,399489.40000000596,,399490.86,8,400,,,
sequence,flow.Sequence,4_52,2023-11-01T01:05:52.315Z,,0,,,3149.0650000238675,completion,,,,,false,,,,399492.5,399490.10000002384,396324.37,396332.5,396341.035,399490.86,8,400,,,
trial,html.Screen,4_53_0,2023-11-01T01:05:56.806Z,,0,2,,4491.840000017895,response,ISIC_0013707.JPG,5,ISIC_7563744.JPG,ISIC_0013707.JPG,false,1,keypress(m),500,403983.3000000119,403982.7000000179,399474.195,399493,399490.86,403990.62,8,400,4,,ISIC_7563744.JPG
break,html.Screen,4_53_1,2023-11-01T01:05:56.809Z,,0,,,NaN,,,,,,false,,,,403985.90000000596,403985.3000000119,,403984,,403990.62,8,400,,,
break_continue,html.Screen,4_53_2,2023-11-01T01:05:56.810Z,,0,,,NaN,,,,,,false,,,,403987.10000002384,403986.8000000119,,403986.3000000119,,403990.62,8,400,,,
sequence,flow.Sequence,4_53,2023-11-01T01:05:56.810Z,,0,,,4495.940000011935,completion,,,,,false,,,,403987.5,403986.8000000119,399474.195,399492.90000000596,399490.86,403990.62,8,400,,,
trial,html.Screen,4_54_0,2023-11-01T01:06:00.926Z,,0,2,,4111.880000000005,response,ISIC_0072496.JPG,5,ISIC_3688407.JPG,ISIC_3688407.JPG,false,0,keypress(z),500,408103.2000000179,408102.5,403973.955,403987.90000000596,403990.62,408107.057,8,400,5,,ISIC_0072496.JPG
break,html.Screen,4_54_1,2023-11-01T01:06:00.928Z,,0,,,NaN,,,,,,false,,,,408105.5,408104.90000000596,,408103.8000000119,,408107.057,8,400,,,
break_continue,html.Screen,4_54_2,2023-11-01T01:06:00.929Z,,0,,,NaN,,,,,,false,,,,408106.60000002384,408106.3000000119,,408105.8000000119,,408107.057,8,400,,,
sequence,flow.Sequence,4_54,2023-11-01T01:06:00.930Z,,0,,,4115.680000011926,completion,,,,,false,,,,408107,408106.3000000119,403973.955,403987.7000000179,403990.62,408107.057,8,400,,,
trial,html.Screen,4_55_0,2023-11-01T01:06:03.686Z,,0,2,,2755.0430000238703,response,ISIC_0057949.JPG,5,ISIC_0029944.JPG,ISIC_0057949.JPG,false,1,keypress(m),500,410862.8000000119,410862.10000002384,408090.392,408107.5,408107.057,410873.568,8,400,6,,ISIC_0029944.JPG
break,html.Screen,4_55_1,2023-11-01T01:06:03.689Z,,0,,,NaN,,,,,,false,,,,410865.8000000119,410865.2000000179,,410863.5,,410873.568,8,400,,,
break_continue,html.Screen,4_55_2,2023-11-01T01:06:03.690Z,,0,,,NaN,,,,,,false,,,,410866.90000000596,410866.60000002384,,410866.10000002384,,410873.568,8,400,,,
sequence,flow.Sequence,4_55,2023-11-01T01:06:03.690Z,,0,,,2759.5430000238703,completion,,,,,false,,,,410867.3000000119,410866.60000002384,408090.392,408107.40000000596,408107.057,410873.568,8,400,,,
trial,html.Screen,4_56_0,2023-11-01T01:06:07.709Z,,0,2,,4012.332000005932,response,ISIC_0010241.JPG,5,ISIC_5557025.JPG,ISIC_0010241.JPG,false,1,keypress(m),500,414886.40000000596,414885.90000000596,410856.903,410867.7000000179,410873.568,414890.02,8,400,7,,ISIC_5557025.JPG
break,html.Screen,4_56_1,2023-11-01T01:06:07.712Z,,0,,,NaN,,,,,,false,,,,414889.10000002384,414888.60000002384,,414886.8000000119,,414890.02,8,400,,,
break_continue,html.Screen,4_56_2,2023-11-01T01:06:07.714Z,,0,,,NaN,,,,,,false,,,,414891,414889.90000000596,,414889.5,,414890.02,8,400,,,
sequence,flow.Sequence,4_56,2023-11-01T01:06:07.714Z,,0,,,4016.332000005932,completion,,,,,false,,,,414891.5,414889.90000000596,410856.903,410867.5,410873.568,414890.02,8,400,,,
trial,html.Screen,4_57_0,2023-11-01T01:06:11.006Z,,0,2,,3292.6800000178628,response,ISIC_8551124.JPG,5,ISIC_0056710.JPG,ISIC_0056710.JPG,false,0,keypress(z),500,418183.2000000179,418182.7000000179,414873.355,414891.90000000596,414890.02,418189.843,8,400,8,,ISIC_8551124.JPG
break,html.Screen,4_57_1,2023-11-01T01:06:11.008Z,,0,,,NaN,,,,,,false,,,,418185.60000002384,418185,,418183.7000000179,,418189.843,8,400,,,
break_continue,html.Screen,4_57_2,2023-11-01T01:06:11.009Z,,0,,,NaN,,,,,,false,,,,418186.7000000179,418186.40000000596,,418185.90000000596,,418189.843,8,400,,,
sequence,flow.Sequence,4_57,2023-11-01T01:06:11.010Z,,0,,,3296.380000005942,completion,,,,,false,,,,418187.10000002384,418186.40000000596,414873.355,414891.8000000119,414890.02,418189.843,8,400,,,
trial,html.Screen,4_58_0,2023-11-01T01:06:14.358Z,,0,2,,3344.357000017888,response,ISIC_7702483.JPG,5,ISIC_0033119.JPG,ISIC_0033119.JPG,false,0,keypress(z),500,421534.8000000119,421534.2000000179,418173.178,418187.5,418189.843,421539.652,8,400,9,,ISIC_7702483.JPG
break,html.Screen,4_58_1,2023-11-01T01:06:14.360Z,,0,,,NaN,,,,,,false,,,,421537.2000000179,421536.60000002384,,421535.2000000179,,421539.652,8,400,,,
break_continue,html.Screen,4_58_2,2023-11-01T01:06:14.361Z,,0,,,NaN,,,,,,false,,,,421538.40000000596,421538,,421537.60000002384,,421539.652,8,400,,,
sequence,flow.Sequence,4_58,2023-11-01T01:06:14.362Z,,0,,,3348.1570000000065,completion,,,,,false,,,,421538.8000000119,421538,418173.178,418187.40000000596,418189.843,421539.652,8,400,,,
trial,html.Screen,4_59_0,2023-11-01T01:06:19.326Z,,0,2,,4962.847999999998,response,ISIC_0899961.JPG,4,ISIC_0032565.JPG,ISIC_0899961.JPG,false,1,keypress(m),500,426503.10000002384,426502.5,421522.987,421539.10000002384,421539.652,426506.039,8,400,10,,ISIC_0032565.JPG
break,html.Screen,4_59_1,2023-11-01T01:06:19.329Z,,0,,,NaN,,,,,,false,,,,426506.2000000179,426505.5,,426504,,426506.039,8,400,,,
break_continue,html.Screen,4_59_2,2023-11-01T01:06:19.330Z,,0,,,NaN,,,,,,false,,,,426507.60000002384,426507.3000000119,,426506.7000000179,,426506.039,8,400,,,
sequence,flow.Sequence,4_59,2023-11-01T01:06:19.334Z,,0,,,4967.648000011919,completion,,,,,false,,,,426511.10000002384,426507.3000000119,421522.987,421539,421539.652,426506.039,8,400,,,
trial,html.Screen,4_60_0,2023-11-01T01:06:21.855Z,,0,2,,2525.1610000178916,response,ISIC_0069743.JPG,5,ISIC_0030695.JPG,ISIC_0030695.JPG,false,0,keypress(z),500,429031.90000000596,429031.2000000179,426489.374,426511.5,426506.039,429039.239,8,400,11,,ISIC_0069743.JPG
break,html.Screen,4_60_1,2023-11-01T01:06:21.857Z,,0,,,NaN,,,,,,false,,,,429034.2000000179,429033.60000002384,,429032.40000000596,,429039.239,8,400,,,
break_continue,html.Screen,4_60_2,2023-11-01T01:06:21.858Z,,0,,,NaN,,,,,,false,,,,429035.3000000119,429035,,429034.5,,429039.239,8,400,,,
sequence,flow.Sequence,4_60,2023-11-01T01:06:21.859Z,,0,,,2528.9610000000102,completion,,,,,false,,,,429035.8000000119,429035,426489.374,426511.40000000596,426506.039,429039.239,8,400,,,
trial,html.Screen,4_61_0,2023-11-01T01:06:25.238Z,,0,2,,3375.7609999999986,response,ISIC_7482149.JPG,5,ISIC_3494219.JPG,ISIC_7482149.JPG,false,1,keypress(m),500,432415.60000002384,432415,429022.574,429036.10000002384,429039.239,432422.396,8,400,12,,ISIC_3494219.JPG
break,html.Screen,4_61_1,2023-11-01T01:06:25.241Z,,0,,,NaN,,,,,,false,,,,432418,432417.40000000596,,432416.10000002384,,432422.396,8,400,,,
break_continue,html.Screen,4_61_2,2023-11-01T01:06:25.242Z,,0,,,NaN,,,,,,false,,,,432419.10000002384,432418.8000000119,,432418.3000000119,,432422.396,8,400,,,
sequence,flow.Sequence,4_61,2023-11-01T01:06:25.242Z,,0,,,3379.5610000119195,completion,,,,,false,,,,432419.60000002384,432418.8000000119,429022.574,429036,429039.239,432422.396,8,400,,,
trial,html.Screen,4_62_0,2023-11-01T01:06:28.510Z,,0,2,,3264.204000023834,response,ISIC_0033463.JPG,5,ISIC_0065477.JPG,ISIC_0065477.JPG,false,0,keypress(z),500,435687.60000002384,435686.60000002384,432405.731,432420,432422.396,435705.547,8,400,13,,ISIC_0033463.JPG
break,html.Screen,4_62_1,2023-11-01T01:06:28.513Z,,0,,,NaN,,,,,,false,,,,435689.7000000179,435689.10000002384,,435688,,435705.547,8,400,,,
break_continue,html.Screen,4_62_2,2023-11-01T01:06:28.514Z,,0,,,NaN,,,,,,false,,,,435690.90000000596,435690.60000002384,,435690.10000002384,,435705.547,8,400,,,
sequence,flow.Sequence,4_62,2023-11-01T01:06:28.514Z,,0,,,3268.204000023834,completion,,,,,false,,,,435691.40000000596,435690.60000002384,432405.731,432419.90000000596,432422.396,435705.547,8,400,,,
trial,html.Screen,4_63_0,2023-11-01T01:06:32.190Z,,0,2,,3661.4529999999795,response,ISIC_7600621.JPG,5,ISIC_5879789.JPG,ISIC_5879789.JPG,false,0,keypress(z),500,439367.60000002384,439367,435688.882,435691.7000000179,435705.547,439372.014,8,400,14,,ISIC_7600621.JPG
break,html.Screen,4_63_1,2023-11-01T01:06:32.193Z,,0,,,NaN,,,,,,false,,,,439369.90000000596,439369.3000000119,,439368,,439372.014,8,400,,,
break_continue,html.Screen,4_63_2,2023-11-01T01:06:32.194Z,,0,,,NaN,,,,,,false,,,,439371,439370.7000000179,,439370.2000000179,,439372.014,8,400,,,
sequence,flow.Sequence,4_63,2023-11-01T01:06:32.194Z,,0,,,3665.153000017861,completion,,,,,false,,,,439371.40000000596,439370.7000000179,435688.882,435691.7000000179,435705.547,439372.014,8,400,,,
trial,html.Screen,4_64_0,2023-11-01T01:06:35.190Z,,0,2,,2994.586000023817,response,ISIC_2508901.JPG,5,ISIC_6617840.JPG,ISIC_2508901.JPG,false,1,keypress(m),500,442367.10000002384,442366.60000002384,439355.349,439371.7000000179,439372.014,442388.514,8,400,15,,ISIC_6617840.JPG
break,html.Screen,4_64_1,2023-11-01T01:06:35.192Z,,0,,,NaN,,,,,,false,,,,442369.40000000596,442368.7000000179,,442367.60000002384,,442388.514,8,400,,,
break_continue,html.Screen,4_64_2,2023-11-01T01:06:35.193Z,,0,,,NaN,,,,,,false,,,,442370.5,442370.2000000179,,442369.7000000179,,442388.514,8,400,,,
sequence,flow.Sequence,4_64,2023-11-01T01:06:35.194Z,,0,,,2998.1860000178567,completion,,,,,false,,,,442370.90000000596,442370.2000000179,439355.349,439371.7000000179,439372.014,442388.514,8,400,,,
trial,html.Screen,4_65_0,2023-11-01T01:06:38.094Z,,0,2,,2882.586000023817,response,ISIC_5486725.JPG,5,ISIC_0000013.JPG,ISIC_5486725.JPG,false,1,keypress(m),500,445271.60000002384,445271.10000002384,442371.849,442371.2000000179,442388.514,445288.35,8,400,16,,ISIC_0000013.JPG
break,html.Screen,4_65_1,2023-11-01T01:06:38.097Z,,0,,,NaN,,,,,,false,,,,445273.90000000596,445273.2000000179,,445271.8000000119,,445288.35,8,400,,,
break_continue,html.Screen,4_65_2,2023-11-01T01:06:38.098Z,,0,,,NaN,,,,,,false,,,,445275.2000000179,445275,,445274.10000002384,,445288.35,8,400,,,
sequence,flow.Sequence,4_65,2023-11-01T01:06:38.098Z,,0,,,2886.4859999999753,completion,,,,,false,,,,445275.7000000179,445275,442371.849,442371.10000002384,442388.514,445288.35,8,400,,,
trial,html.Screen,4_66_0,2023-11-01T01:06:44.702Z,,0,2,,6590.650000000023,response,ISIC_0004564.JPG,5,ISIC_8866896.JPG,ISIC_8866896.JPG,false,0,keypress(z),500,451879.60000002384,451879,445271.685,445276,445288.35,451887.989,8,400,17,,ISIC_0004564.JPG
break,html.Screen,4_66_1,2023-11-01T01:06:44.705Z,,0,,,NaN,,,,,,false,,,,451882,451881.40000000596,,451880.10000002384,,451887.989,8,400,,,
break_continue,html.Screen,4_66_2,2023-11-01T01:06:44.706Z,,0,,,NaN,,,,,,false,,,,451883,451882.7000000179,,451882.3000000119,,451887.989,8,400,,,
sequence,flow.Sequence,4_66,2023-11-01T01:06:44.706Z,,0,,,6594.350000017905,completion,,,,,false,,,,451883.40000000596,451882.7000000179,445271.685,445275.90000000596,445288.35,451887.989,8,400,,,
trial,html.Screen,4_67_0,2023-11-01T01:06:47.312Z,,0,2,,2600.21100001788,response,ISIC_5422940.JPG,5,ISIC_8040024.JPG,ISIC_5422940.JPG,false,1,keypress(m),500,454488.90000000596,454488.2000000179,451871.324,451883.8000000119,451887.989,454504.514,8,400,18,,ISIC_8040024.JPG
break,html.Screen,4_67_1,2023-11-01T01:06:47.314Z,,0,,,NaN,,,,,,false,,,,454491.5,454490.90000000596,,454489.3000000119,,454504.514,8,400,,,
break_continue,html.Screen,4_67_2,2023-11-01T01:06:47.315Z,,0,,,NaN,,,,,,false,,,,454492.7000000179,454492.3000000119,,454491.8000000119,,454504.514,8,400,,,
sequence,flow.Sequence,4_67,2023-11-01T01:06:47.316Z,,0,,,2604.3110000119195,completion,,,,,false,,,,454493,454492.3000000119,451871.324,451883.7000000179,451887.989,454504.514,8,400,,,
trial,html.Screen,4_68_0,2023-11-01T01:06:50.855Z,,0,2,,3526.9859999999753,response,ISIC_0031958.JPG,4,ISIC_0033687.JPG,ISIC_0031958.JPG,false,1,keypress(m),500,458032,458031.5,454487.849,454493.40000000596,454504.514,458037.657,8,400,19,,ISIC_0033687.JPG
break,html.Screen,4_68_1,2023-11-01T01:06:50.858Z,,0,,,NaN,,,,,,false,,,,458035.60000002384,458034.8000000119,,458032.5,,458037.657,8,400,,,
break_continue,html.Screen,4_68_2,2023-11-01T01:06:50.860Z,,0,,,NaN,,,,,,false,,,,458037.3000000119,458036.60000002384,,458035.90000000596,,458037.657,8,400,,,
sequence,flow.Sequence,4_68,2023-11-01T01:06:50.861Z,,0,,,3532.086000023817,completion,,,,,false,,,,458037.90000000596,458036.60000002384,454487.849,454493.2000000179,454504.514,458037.657,8,400,,,
trial,html.Screen,4_69_0,2023-11-01T01:06:53.383Z,,0,2,,2521.543000017875,response,ISIC_0068048.JPG,5,ISIC_2679689.JPG,ISIC_2679689.JPG,false,0,keypress(z),500,460559.8000000119,460559.2000000179,458020.992,458038.2000000179,458037.657,460570.845,8,400,20,,ISIC_0068048.JPG
break,html.Screen,4_69_1,2023-11-01T01:06:53.385Z,,0,,,NaN,,,,,,false,,,,460562,460561.40000000596,,460560.2000000179,,460570.845,8,400,,,
break_continue,html.Screen,4_69_2,2023-11-01T01:06:53.386Z,,0,,,NaN,,,,,,false,,,,460563.40000000596,460562.90000000596,,460562.5,,460570.845,8,400,,,
sequence,flow.Sequence,4_69,2023-11-01T01:06:53.390Z,,0,,,2525.243000005954,completion,,,,,false,,,,460566.90000000596,460562.90000000596,458020.992,458038.10000002384,458037.657,460570.845,8,400,,,
trial,html.Screen,4_70_0,2023-11-01T01:06:57.713Z,,0,2,,4319.055000005988,response,ISIC_0016013.JPG,4,ISIC_0034166.JPG,ISIC_0016013.JPG,false,1,keypress(m),500,464890.5,464889.90000000596,460554.18,460567.40000000596,460570.845,464903.937,8,400,21,,ISIC_0034166.JPG
break,html.Screen,4_70_1,2023-11-01T01:06:57.716Z,,0,,,NaN,,,,,,false,,,,464893.10000002384,464892.60000002384,,464890.90000000596,,464903.937,8,400,,,
break_continue,html.Screen,4_70_2,2023-11-01T01:06:57.717Z,,0,,,NaN,,,,,,false,,,,464894.2000000179,464893.90000000596,,464893.5,,464903.937,8,400,,,
sequence,flow.Sequence,4_70,2023-11-01T01:06:57.717Z,,0,,,4323.055000005988,completion,,,,,false,,,,464894.7000000179,464893.90000000596,460554.18,460567.2000000179,460570.845,464903.937,8,400,,,
trial,html.Screen,4_71_0,2023-11-01T01:07:06.585Z,,0,2,,8857.763000017905,response,ISIC_1590829.JPG,5,ISIC_0004907.JPG,ISIC_0004907.JPG,false,0,keypress(z),500,473762.3000000119,473761.7000000179,464887.272,464895.10000002384,464903.937,473770.119,8,400,22,,ISIC_1590829.JPG
break,html.Screen,4_71_1,2023-11-01T01:07:06.588Z,,0,,,NaN,,,,,,false,,,,473765.10000002384,473764.5,,473762.8000000119,,473770.119,8,400,,,
break_continue,html.Screen,4_71_2,2023-11-01T01:07:06.589Z,,0,,,NaN,,,,,,false,,,,473766.3000000119,473766,,473765.5,,473770.119,8,400,,,
sequence,flow.Sequence,4_71,2023-11-01T01:07:06.589Z,,0,,,8862.063000000024,completion,,,,,false,,,,473766.7000000179,473766,464887.272,464894.90000000596,464903.937,473770.119,8,400,,,
trial,html.Screen,4_72_0,2023-11-01T01:07:09.681Z,,0,2,,3087.380999999994,response,ISIC_9860255.JPG,6,ISIC_0062367.JPG,ISIC_9860255.JPG,false,1,keypress(m),500,476858.10000002384,476857.5,473753.454,473767.10000002384,473770.119,476869.951,8,400,23,,ISIC_0062367.JPG
break,html.Screen,4_72_1,2023-11-01T01:07:09.683Z,,0,,,NaN,,,,,,false,,,,476860.60000002384,476860,,476858.5,,476869.951,8,400,,,
break_continue,html.Screen,4_72_2,2023-11-01T01:07:09.684Z,,0,,,NaN,,,,,,false,,,,476861.7000000179,476861.3000000119,,476860.90000000596,,476869.951,8,400,,,
sequence,flow.Sequence,4_72,2023-11-01T01:07:09.685Z,,0,,,3091.181000011915,completion,,,,,false,,,,476862.10000002384,476861.3000000119,473753.454,473767,473770.119,476869.951,8,400,,,
trial,html.Screen,4_73_0,2023-11-01T01:07:13.256Z,,0,2,,3563.149000023841,response,ISIC_5415749.JPG,5,ISIC_4052597.JPG,ISIC_5415749.JPG,false,1,keypress(m),500,480433.7000000179,480433.10000002384,476853.286,476862.5,476869.951,480436.429,8,400,24,,ISIC_4052597.JPG
break,html.Screen,4_73_1,2023-11-01T01:07:13.259Z,,0,,,NaN,,,,,,false,,,,480436.3000000119,480435.8000000119,,480434.2000000179,,480436.429,8,400,,,
break_continue,html.Screen,4_73_2,2023-11-01T01:07:13.261Z,,0,,,NaN,,,,,,false,,,,480438,480437.7000000179,,480437.10000002384,,480436.429,8,400,,,
sequence,flow.Sequence,4_73,2023-11-01T01:07:13.261Z,,0,,,3567.7490000178805,completion,,,,,false,,,,480438.5,480437.7000000179,476853.286,476862.40000000596,476869.951,480436.429,8,400,,,
trial,html.Screen,4_74_0,2023-11-01T01:07:15.841Z,,0,2,,2581.171000023838,response,ISIC_5840341.JPG,5,ISIC_0027085.JPG,ISIC_0027085.JPG,false,0,keypress(z),500,483018.10000002384,483017.60000002384,480419.764,480438.8000000119,480436.429,483036.29,8,400,25,,ISIC_5840341.JPG
break,html.Screen,4_74_1,2023-11-01T01:07:15.844Z,,0,,,NaN,,,,,,false,,,,483020.90000000596,483020.3000000119,,483018.60000002384,,483036.29,8,400,,,
break_continue,html.Screen,4_74_2,2023-11-01T01:07:15.845Z,,0,,,NaN,,,,,,false,,,,483022,483021.7000000179,,483021.2000000179,,483036.29,8,400,,,
sequence,flow.Sequence,4_74,2023-11-01T01:07:15.845Z,,0,,,2585.2710000178777,completion,,,,,false,,,,483022.60000002384,483021.7000000179,480419.764,480438.8000000119,480436.429,483036.29,8,400,,,
trial,html.Screen,4_75_0,2023-11-01T01:07:19.998Z,,0,2,,4138.510000011942,response,ISIC_1017377.JPG,5,ISIC_0024781.JPG,ISIC_0024781.JPG,false,0,keypress(z),500,487175.5,487174.8000000119,483019.625,483023,483036.29,487186.08,8,400,26,,ISIC_1017377.JPG
break,html.Screen,4_75_1,2023-11-01T01:07:20.001Z,,0,,,NaN,,,,,,false,,,,487177.90000000596,487177.2000000179,,487175.90000000596,,487186.08,8,400,,,
break_continue,html.Screen,4_75_2,2023-11-01T01:07:20.002Z,,0,,,NaN,,,,,,false,,,,487178.90000000596,487178.60000002384,,487178.2000000179,,487186.08,8,400,,,
sequence,flow.Sequence,4_75,2023-11-01T01:07:20.002Z,,0,,,4142.310000023863,completion,,,,,false,,,,487179.40000000596,487178.60000002384,483019.625,483022.90000000596,483036.29,487186.08,8,400,,,
trial,html.Screen,4_76_0,2023-11-01T01:07:31.493Z,,0,2,,11515.593999999983,timeout,ISIC_0027636.JPG,5,ISIC_0027214.JPG,,false,,,500,498670.3000000119,498669.7000000179,487169.415,487179.7000000179,487186.08,498701.674,8,400,27,,
break,html.Screen,4_76_1,2023-11-01T01:07:31.495Z,,0,,,NaN,,,,,,false,,,,498672.2000000179,498671.60000002384,,498670.7000000179,,498701.674,8,400,,,
break_continue,html.Screen,4_76_2,2023-11-01T01:07:31.496Z,,0,,,NaN,,,,,,false,,,,498673.3000000119,498673.10000002384,,498672.60000002384,,498701.674,8,400,,,
sequence,flow.Sequence,4_76,2023-11-01T01:07:31.497Z,,0,,,11487.020000023826,completion,,,,,false,,,,498673.8000000119,498673.10000002384,487169.415,487179.7000000179,487186.08,498701.674,8,400,,,
trial,html.Screen,4_77_0,2023-11-01T01:07:35.692Z,,0,2,,4166.726000005961,response,ISIC_0068847.JPG,5,ISIC_4966865.JPG,ISIC_0068847.JPG,false,1,keypress(m),500,502869.40000000596,502868.40000000596,498685.009,498674.2000000179,498701.674,502885.2,8,400,28,,ISIC_4966865.JPG
break,html.Screen,4_77_1,2023-11-01T01:07:35.695Z,,0,,,NaN,,,,,,false,,,,502871.8000000119,502871.2000000179,,502869.8000000119,,502885.2,8,400,,,
break_continue,html.Screen,4_77_2,2023-11-01T01:07:35.696Z,,0,,,NaN,,,,,,false,,,,502873,502872.7000000179,,502872.10000002384,,502885.2,8,400,,,
sequence,flow.Sequence,4_77,2023-11-01T01:07:35.696Z,,0,,,4171.026000017882,completion,,,,,false,,,,502873.5,502872.7000000179,498685.009,498674.10000002384,498701.674,502885.2,8,400,,,
trial,html.Screen,4_78_0,2023-11-01T01:07:38.231Z,,0,2,,2521.7999999999884,response,ISIC_1615485.JPG,5,ISIC_0011437.JPG,ISIC_1615485.JPG,false,1,keypress(m),500,505407.8000000119,505407,502868.535,502873.8000000119,502885.2,505418.398,8,400,29,,ISIC_0011437.JPG
break,html.Screen,4_78_1,2023-11-01T01:07:38.233Z,,0,,,NaN,,,,,,false,,,,505410.10000002384,505409.5,,505408.2000000179,,505418.398,8,400,,,
break_continue,html.Screen,4_78_2,2023-11-01T01:07:38.234Z,,0,,,NaN,,,,,,false,,,,505411.2000000179,505411,,505410.40000000596,,505418.398,8,400,,,
sequence,flow.Sequence,4_78,2023-11-01T01:07:38.234Z,,0,,,2525.7999999999884,completion,,,,,false,,,,505411.7000000179,505411,502868.535,502873.7000000179,502885.2,505418.398,8,400,,,
trial,html.Screen,4_79_0,2023-11-01T01:07:41.078Z,,0,2,,2836.6020000000135,response,ISIC_0000444.JPG,5,ISIC_4735959.JPG,ISIC_0000444.JPG,false,1,keypress(m),500,508255.60000002384,508255,505401.733,505412,505418.398,508268.238,8,400,30,,ISIC_4735959.JPG
break,html.Screen,4_79_1,2023-11-01T01:07:41.081Z,,0,,,NaN,,,,,,false,,,,508258.10000002384,508257.40000000596,,508256.10000002384,,508268.238,8,400,,,
break_continue,html.Screen,4_79_2,2023-11-01T01:07:41.082Z,,0,,,NaN,,,,,,false,,,,508259.10000002384,508258.8000000119,,508258.40000000596,,508268.238,8,400,,,
sequence,flow.Sequence,4_79,2023-11-01T01:07:41.083Z,,0,,,2840.4020000119344,completion,,,,,false,,,,508259.90000000596,508258.8000000119,505401.733,505412,505418.398,508268.238,8,400,,,
trial,html.Screen,4_80_0,2023-11-01T01:07:43.710Z,,0,2,,2618.261999999988,response,ISIC_3952030.JPG,4,ISIC_9140779.JPG,ISIC_9140779.JPG,false,0,keypress(z),500,510887.10000002384,510886.5,508251.573,508260.3000000119,508268.238,510901.426,8,400,31,,ISIC_3952030.JPG
break,html.Screen,4_80_1,2023-11-01T01:07:43.712Z,,0,,,NaN,,,,,,false,,,,510889.40000000596,510888.8000000119,,510887.5,,510901.426,8,400,,,
break_continue,html.Screen,4_80_2,2023-11-01T01:07:43.713Z,,0,,,NaN,,,,,,false,,,,510890.5,510890.2000000179,,510889.8000000119,,510901.426,8,400,,,
sequence,flow.Sequence,4_80,2023-11-01T01:07:43.714Z,,0,,,2621.9620000178693,completion,,,,,false,,,,510891,510890.2000000179,508251.573,508260.2000000179,508268.238,510901.426,8,400,,,
trial,html.Screen,4_81_0,2023-11-01T01:07:47.781Z,,0,2,,4056.5740000000224,response,ISIC_3171104.JPG,4,ISIC_6258744.JPG,ISIC_3171104.JPG,false,1,keypress(m),500,514958.60000002384,514958,510884.761,510891.40000000596,510901.426,514967.885,8,400,32,,ISIC_6258744.JPG
break,html.Screen,4_81_1,2023-11-01T01:07:47.784Z,,0,,,NaN,,,,,,false,,,,514960.90000000596,514960.3000000119,,514959.10000002384,,514967.885,8,400,,,
break_continue,html.Screen,4_81_2,2023-11-01T01:07:47.785Z,,0,,,NaN,,,,,,false,,,,514962.10000002384,514961.7000000179,,514961.2000000179,,514967.885,8,400,,,
sequence,flow.Sequence,4_81,2023-11-01T01:07:47.785Z,,0,,,4060.2740000179037,completion,,,,,false,,,,514962.5,514961.7000000179,510884.761,510891.2000000179,510901.426,514967.885,8,400,,,
trial,html.Screen,4_82_0,2023-11-01T01:07:51.782Z,,0,2,,3990.7150000238325,response,ISIC_0027406.JPG,5,ISIC_0054364.JPG,ISIC_0027406.JPG,false,1,keypress(m),500,518959.2000000179,518958.60000002384,514951.22,514962.90000000596,514967.885,518967.642,8,400,33,,ISIC_0054364.JPG
break,html.Screen,4_82_1,2023-11-01T01:07:51.784Z,,0,,,NaN,,,,,,false,,,,518961.7000000179,518961,,518959.8000000119,,518967.642,8,400,,,
break_continue,html.Screen,4_82_2,2023-11-01T01:07:51.785Z,,0,,,NaN,,,,,,false,,,,518962.8000000119,518962.5,,518961.90000000596,,518967.642,8,400,,,
sequence,flow.Sequence,4_82,2023-11-01T01:07:51.786Z,,0,,,3994.6149999999907,completion,,,,,false,,,,518963.2000000179,518962.5,514951.22,514962.7000000179,514967.885,518967.642,8,400,,,
trial,html.Screen,4_83_0,2023-11-01T01:07:55.895Z,,0,2,,4103.358000000007,response,ISIC_8792007.JPG,4,ISIC_0034188.JPG,ISIC_0034188.JPG,false,0,keypress(z),500,523071.8000000119,523071,518950.977,518963.5,518967.642,523084.094,8,400,34,,ISIC_8792007.JPG
break,html.Screen,4_83_1,2023-11-01T01:07:55.897Z,,0,,,NaN,,,,,,false,,,,523074.3000000119,523073.60000002384,,523072.2000000179,,523084.094,8,400,,,
break_continue,html.Screen,4_83_2,2023-11-01T01:07:55.898Z,,0,,,NaN,,,,,,false,,,,523075.40000000596,523075.10000002384,,523074.60000002384,,523084.094,8,400,,,
sequence,flow.Sequence,4_83,2023-11-01T01:07:55.899Z,,0,,,4107.458000023849,completion,,,,,false,,,,523076.10000002384,523075.10000002384,518950.977,518963.5,518967.642,523084.094,8,400,,,
trial,html.Screen,4_84_0,2023-11-01T01:08:00.278Z,,0,2,,4370.906000000017,response,ISIC_0059330.JPG,6,ISIC_0024952.JPG,ISIC_0024952.JPG,false,0,keypress(z),500,527455.7000000179,527455,523067.429,523076.5,523084.094,527467.184,8,400,35,,ISIC_0059330.JPG
break,html.Screen,4_84_1,2023-11-01T01:08:00.281Z,,0,,,NaN,,,,,,false,,,,527458.5,527457.900000006,,527456.1000000238,,527467.184,8,400,,,
break_continue,html.Screen,4_84_2,2023-11-01T01:08:00.283Z,,0,,,NaN,,,,,,false,,,,527459.900000006,527459.6000000238,,527458.8000000119,,527467.184,8,400,,,
sequence,flow.Sequence,4_84,2023-11-01T01:08:00.283Z,,0,,,4375.506000023859,completion,,,,,false,,,,527460.400000006,527459.6000000238,523067.429,523076.40000000596,523084.094,527467.184,8,400,,,
trial,html.Screen,4_85_0,2023-11-01T01:08:04.015Z,,0,2,,3724.216000005952,response,ISIC_1790808.JPG,5,ISIC_4614129.JPG,ISIC_1790808.JPG,false,1,keypress(m),500,531192,531191.400000006,527450.519,527460.7000000179,527467.184,531200.323,8,400,36,,ISIC_4614129.JPG
break,html.Screen,4_85_1,2023-11-01T01:08:04.018Z,,0,,,NaN,,,,,,false,,,,531194.7000000179,531194.1000000238,,531192.5,,531200.323,8,400,,,
break_continue,html.Screen,4_85_2,2023-11-01T01:08:04.019Z,,0,,,NaN,,,,,,false,,,,531195.900000006,531195.6000000238,,531195.1000000238,,531200.323,8,400,,,
sequence,flow.Sequence,4_85,2023-11-01T01:08:04.019Z,,0,,,3728.4160000238335,completion,,,,,false,,,,531196.3000000119,531195.6000000238,527450.519,527460.6000000238,527467.184,531200.323,8,400,,,
trial,html.Screen,4_86_0,2023-11-01T01:08:10.375Z,,0,2,,6351.077000005986,response,ISIC_6754835.JPG,5,ISIC_7440724.JPG,ISIC_7440724.JPG,false,0,keypress(z),500,537552,537551.400000006,531183.658,531196.7000000179,531200.323,537566.625,8,400,37,,ISIC_6754835.JPG
break,html.Screen,4_86_1,2023-11-01T01:08:10.378Z,,0,,,NaN,,,,,,false,,,,537555,537554.5,,537552.7000000179,,537566.625,8,400,,,
break_continue,html.Screen,4_86_2,2023-11-01T01:08:10.379Z,,0,,,NaN,,,,,,false,,,,537556.1000000238,537555.8000000119,,537555.3000000119,,537566.625,8,400,,,
sequence,flow.Sequence,4_86,2023-11-01T01:08:10.379Z,,0,,,6355.477000011946,completion,,,,,false,,,,537556.5,537555.8000000119,531183.658,531196.6000000238,531200.323,537566.625,8,400,,,
trial,html.Screen,4_87_0,2023-11-01T01:08:13.774Z,,0,2,,3384.475000023842,response,ISIC_0066401.JPG,5,ISIC_3509838.JPG,ISIC_0066401.JPG,false,1,keypress(m),500,540951.7000000179,540951.1000000238,537549.96,537556.900000006,537566.625,540966.442,8,400,38,,ISIC_3509838.JPG
break,html.Screen,4_87_1,2023-11-01T01:08:13.777Z,,0,,,NaN,,,,,,false,,,,540954.1000000238,540953.5,,540952,,540966.442,8,400,,,
break_continue,html.Screen,4_87_2,2023-11-01T01:08:13.778Z,,0,,,NaN,,,,,,false,,,,540955.3000000119,540955,,540954.5,,540966.442,8,400,,,
sequence,flow.Sequence,4_87,2023-11-01T01:08:13.778Z,,0,,,3388.375,completion,,,,,false,,,,540955.7000000179,540955,537549.96,537556.8000000119,537566.625,540966.442,8,400,,,
trial,html.Screen,4_88_0,2023-11-01T01:08:17.814Z,,0,2,,4024.1580000238027,response,ISIC_9542544.JPG,5,ISIC_0031214.JPG,ISIC_0031214.JPG,false,0,keypress(z),500,544991.2000000179,544990.6000000238,540949.777,540956.1000000238,540966.442,544999.562,8,400,39,,ISIC_9542544.JPG
break,html.Screen,4_88_1,2023-11-01T01:08:17.817Z,,0,,,NaN,,,,,,false,,,,544993.7000000179,544993.1000000238,,544991.900000006,,544999.562,8,400,,,
break_continue,html.Screen,4_88_2,2023-11-01T01:08:17.818Z,,0,,,NaN,,,,,,false,,,,544994.900000006,544994.6000000238,,544994,,544999.562,8,400,,,
sequence,flow.Sequence,4_88,2023-11-01T01:08:17.818Z,,0,,,4028.1580000238027,completion,,,,,false,,,,544995.400000006,544994.6000000238,540949.777,540955.900000006,540966.442,544999.562,8,400,,,
trial,html.Screen,4_89_0,2023-11-01T01:08:20.886Z,,0,2,,3063.4379999999655,response,ISIC_0060621.JPG,5,ISIC_0030519.JPG,ISIC_0060621.JPG,false,1,keypress(m),500,548063.6000000238,548063,544982.897,544995.8000000119,544999.562,548066.052,8,400,40,,ISIC_0030519.JPG
break,html.Screen,4_89_1,2023-11-01T01:08:20.889Z,,0,,,NaN,,,,,,false,,,,548066.1000000238,548065.400000006,,548064.1000000238,,548066.052,8,400,,,
break_continue,html.Screen,4_89_2,2023-11-01T01:08:20.890Z,,0,,,NaN,,,,,,false,,,,548067.3000000119,548067,,548066.400000006,,548066.052,8,400,,,
sequence,flow.Sequence,4_89,2023-11-01T01:08:20.891Z,,0,,,3067.4379999999655,completion,,,,,false,,,,548068.1000000238,548067,544982.897,544995.7000000179,544999.562,548066.052,8,400,,,
trial,html.Screen,4_90_0,2023-11-01T01:08:24.518Z,,0,2,,3628.5480000238167,response,ISIC_5484086.JPG,5,ISIC_9241732.JPG,ISIC_5484086.JPG,false,1,keypress(m),500,551695.3000000119,551694.6000000238,548049.387,548068.400000006,548066.052,551699.189,8,400,41,,ISIC_9241732.JPG
break,html.Screen,4_90_1,2023-11-01T01:08:24.520Z,,0,,,NaN,,,,,,false,,,,551697.6000000238,551696.900000006,,551695.7000000179,,551699.189,8,400,,,
break_continue,html.Screen,4_90_2,2023-11-01T01:08:24.521Z,,0,,,NaN,,,,,,false,,,,551698.8000000119,551698.400000006,,551697.900000006,,551699.189,8,400,,,
sequence,flow.Sequence,4_90,2023-11-01T01:08:24.522Z,,0,,,3632.3480000059353,completion,,,,,false,,,,551699.2000000179,551698.400000006,548049.387,548068.3000000119,548066.052,551699.189,8,400,,,
trial,html.Screen,4_91_0,2023-11-01T01:08:27.661Z,,0,2,,3138.911000023829,response,ISIC_0000078.JPG,5,ISIC_1069587.JPG,ISIC_1069587.JPG,false,0,keypress(z),500,554838.7000000179,554838.1000000238,551682.524,551699.6000000238,551699.189,554865.707,8,400,42,,ISIC_0000078.JPG
break,html.Screen,4_91_1,2023-11-01T01:08:27.664Z,,0,,,NaN,,,,,,false,,,,554840.900000006,554840.3000000119,,554839.2000000179,,554865.707,8,400,,,
break_continue,html.Screen,4_91_2,2023-11-01T01:08:27.665Z,,0,,,NaN,,,,,,false,,,,554842.1000000238,554841.7000000179,,554841.2000000179,,554865.707,8,400,,,
sequence,flow.Sequence,4_91,2023-11-01T01:08:27.665Z,,0,,,3142.5110000178684,completion,,,,,false,,,,554842.5,554841.7000000179,551682.524,551699.5,551699.189,554865.707,8,400,,,
trial,html.Screen,4_92_0,2023-11-01T01:08:30.245Z,,0,2,,2555.8930000237888,response,ISIC_2011145.JPG,5,ISIC_5651106.JPG,ISIC_5651106.JPG,false,0,keypress(z),500,557422.3000000119,557421.6000000238,554849.014,554842.900000006,554865.707,557432.207,8,400,43,,ISIC_2011145.JPG
break,html.Screen,4_92_1,2023-11-01T01:08:30.248Z,,0,,,NaN,,,,,,false,,,,557425.1000000238,557424.5,,557422.8000000119,,557432.207,8,400,,,
break_continue,html.Screen,4_92_2,2023-11-01T01:08:30.249Z,,0,,,NaN,,,,,,false,,,,557426.5,557426,,557425.5,,557432.207,8,400,,,
sequence,flow.Sequence,4_92,2023-11-01T01:08:30.250Z,,0,,,2560.292999999947,completion,,,,,false,,,,557427,557426,554849.014,554842.7000000179,554865.707,557432.207,8,400,,,
trial,html.Screen,4_93_0,2023-11-01T01:08:34.710Z,,0,2,,4454.493000017828,response,ISIC_0032917.JPG,4,ISIC_8214287.JPG,ISIC_0032917.JPG,false,1,keypress(m),500,561887.5,561886.7000000179,557415.542,557427.3000000119,557432.207,561898.624,8,400,44,,ISIC_8214287.JPG
break,html.Screen,4_93_1,2023-11-01T01:08:34.713Z,,0,,,NaN,,,,,,false,,,,561890.1000000238,561889.3000000119,,561887.900000006,,561898.624,8,400,,,
break_continue,html.Screen,4_93_2,2023-11-01T01:08:34.714Z,,0,,,NaN,,,,,,false,,,,561891.3000000119,561890.900000006,,561890.400000006,,561898.624,8,400,,,
sequence,flow.Sequence,4_93,2023-11-01T01:08:34.715Z,,0,,,4458.693000005907,completion,,,,,false,,,,561891.900000006,561890.900000006,557415.542,557427.1000000238,557432.207,561898.624,8,400,,,
trial,html.Screen,4_94_0,2023-11-01T01:08:37.966Z,,0,2,,3244.3760000000475,response,ISIC_4128342.JPG,5,ISIC_0000475.JPG,ISIC_4128342.JPG,false,1,keypress(m),500,565143.6000000238,565143,561881.959,561892.3000000119,561898.624,565148.459,8,400,45,,ISIC_0000475.JPG
break,html.Screen,4_94_1,2023-11-01T01:08:37.969Z,,0,,,NaN,,,,,,false,,,,565146.6000000238,565146,,565144.1000000238,,565148.459,8,400,,,
break_continue,html.Screen,4_94_2,2023-11-01T01:08:37.970Z,,0,,,NaN,,,,,,false,,,,565147.7000000179,565147.400000006,,565146.900000006,,565148.459,8,400,,,
sequence,flow.Sequence,4_94,2023-11-01T01:08:37.971Z,,0,,,3248.776000006008,completion,,,,,false,,,,565148.2000000179,565147.400000006,561881.959,561892.2000000179,561898.624,565148.459,8,400,,,
trial,html.Screen,4_95_0,2023-11-01T01:08:42.487Z,,0,2,,4515.040999999968,response,ISIC_0826998.JPG,5,ISIC_0000024.JPG,ISIC_0000024.JPG,false,0,keypress(z),500,569664.6000000238,569663.5,565131.794,565148.7000000179,565148.459,569681.541,8,400,46,,ISIC_0826998.JPG
break,html.Screen,4_95_1,2023-11-01T01:08:42.490Z,,0,,,NaN,,,,,,false,,,,569667.400000006,569666.6000000238,,569665.3000000119,,569681.541,8,400,,,
break_continue,html.Screen,4_95_2,2023-11-01T01:08:42.492Z,,0,,,NaN,,,,,,false,,,,569668.900000006,569668.5,,569668,,569681.541,8,400,,,
sequence,flow.Sequence,4_95,2023-11-01T01:08:42.492Z,,0,,,4520.040999999968,completion,,,,,false,,,,569669.3000000119,569668.5,565131.794,565148.400000006,565148.459,569681.541,8,400,,,
trial,html.Screen,4_96_0,2023-11-01T01:08:45.312Z,,0,2,,2806.5590000238735,response,ISIC_3791309.JPG,5,ISIC_0029056.JPG,ISIC_3791309.JPG,false,1,keypress(m),500,572488.8000000119,572488.1000000238,569664.876,569669.7000000179,569681.541,572498.046,8,400,47,,ISIC_0029056.JPG
break,html.Screen,4_96_1,2023-11-01T01:08:45.314Z,,0,,,NaN,,,,,,false,,,,572490.900000006,572490.2000000179,,572489.2000000179,,572498.046,8,400,,,
break_continue,html.Screen,4_96_2,2023-11-01T01:08:45.315Z,,0,,,NaN,,,,,,false,,,,572492.1000000238,572491.8000000119,,572491.2000000179,,572498.046,8,400,,,
sequence,flow.Sequence,4_96,2023-11-01T01:08:45.315Z,,0,,,2810.2590000119526,completion,,,,,false,,,,572492.5,572491.8000000119,569664.876,569669.6000000238,569681.541,572498.046,8,400,,,
trial,html.Screen,4_97_0,2023-11-01T01:08:48.215Z,,0,2,,2893.8540000059875,response,ISIC_1711185.JPG,4,ISIC_0060321.JPG,ISIC_1711185.JPG,false,1,keypress(m),500,575392.400000006,575391.900000006,572481.381,572493,572498.046,575397.889,8,400,48,,ISIC_0060321.JPG
break,html.Screen,4_97_1,2023-11-01T01:08:48.218Z,,0,,,NaN,,,,,,false,,,,575395.3000000119,575394.7000000179,,575392.900000006,,575397.889,8,400,,,
break_continue,html.Screen,4_97_2,2023-11-01T01:08:48.219Z,,0,,,NaN,,,,,,false,,,,575396.7000000179,575396.400000006,,575395.6000000238,,575397.889,8,400,,,
sequence,flow.Sequence,4_97,2023-11-01T01:08:48.220Z,,0,,,2898.3540000059875,completion,,,,,false,,,,575397.2000000179,575396.400000006,572481.381,572492.900000006,572498.046,575397.889,8,400,,,
trial,html.Screen,4_98_0,2023-11-01T01:08:52.528Z,,0,2,,4306.511000005994,response,ISIC_0031021.JPG,5,ISIC_4879187.JPG,ISIC_0031021.JPG,false,1,keypress(m),500,579704.900000006,579704.400000006,575381.224,575397.6000000238,575397.889,579730.985,8,400,49,,ISIC_4879187.JPG
break,html.Screen,4_98_1,2023-11-01T01:08:52.530Z,,0,,,NaN,,,,,,false,,,,579707.6000000238,579706.900000006,,579705.6000000238,,579730.985,8,400,,,
break_continue,html.Screen,4_98_2,2023-11-01T01:08:52.531Z,,0,,,NaN,,,,,,false,,,,579708.8000000119,579708.400000006,,579707.900000006,,579730.985,8,400,,,
sequence,flow.Sequence,4_98,2023-11-01T01:08:52.532Z,,0,,,4310.511000005994,completion,,,,,false,,,,579709.2000000179,579708.400000006,575381.224,575397.400000006,575397.889,579730.985,8,400,,,
trial,html.Screen,4_99_0,2023-11-01T01:08:55.223Z,,0,2,,2668.7150000178954,response,ISIC_0025369.JPG,4,ISIC_0884550.JPG,ISIC_0884550.JPG,false,0,keypress(z),500,582400.2000000179,582399.7000000179,579714.32,579709.5,579730.985,582430.858,8,400,50,,ISIC_0025369.JPG
break,html.Screen,4_99_1,2023-11-01T01:09:05.238Z,,0,,,9999.449000000022,timeout,,,,,false,,,,592415.1000000238,592413.655,582414.168,582400.6000000238,582430.858,592430.307,8,400,,,
break_continue,html.Screen,4_99_2,2023-11-01T01:10:12.311Z,,0,,,67016.19299999997,response,,,,,false,continue,keypress(Space),,659488.2000000179,659446.5,592413.655,592415.400000006,592430.307,659492.807,8,400,,,
sequence,flow.Sequence,4_99,2023-11-01T01:10:12.311Z,,0,,,79715.51500000001,completion,,,,,false,,,,659488.5,659446.5,579714.32,579709.400000006,579730.985,659492.807,8,400,,,
trial,html.Screen,4_100_0,2023-11-01T01:10:18.491Z,,0,3,,6175.293000023812,response,ISIC_0602494.JPG,4,ISIC_0032550.JPG,ISIC_0602494.JPG,false,1,keypress(m),500,665668.8000000119,665668.1000000238,659476.142,659488.6000000238,659492.807,665676.275,8,400,1,,ISIC_0032550.JPG
break,html.Screen,4_100_1,2023-11-01T01:10:18.494Z,,0,,,NaN,,,,,,false,,,,665671.2000000179,665670.6000000238,,665669.1000000238,,665676.275,8,400,,,
break_continue,html.Screen,4_100_2,2023-11-01T01:10:18.495Z,,0,,,NaN,,,,,,false,,,,665672.400000006,665672,,665671.5,,665676.275,8,400,,,
sequence,flow.Sequence,4_100,2023-11-01T01:10:18.496Z,,0,,,6179.19299999997,completion,,,,,false,,,,665672.8000000119,665672,659476.142,659488.5,659492.807,665676.275,8,400,,,
trial,html.Screen,4_101_0,2023-11-01T01:10:21.523Z,,0,3,,3023.425000017858,response,ISIC_0005264.JPG,5,ISIC_0033923.JPG,ISIC_0033923.JPG,false,0,keypress(z),500,668700.3000000119,668699.7000000179,665659.61,665673.1000000238,665676.275,668709.444,8,400,2,,ISIC_0005264.JPG
break,html.Screen,4_101_1,2023-11-01T01:10:21.526Z,,0,,,NaN,,,,,,false,,,,668703.2000000179,668702.6000000238,,668700.7000000179,,668709.444,8,400,,,
break_continue,html.Screen,4_101_2,2023-11-01T01:10:21.527Z,,0,,,NaN,,,,,,false,,,,668704.400000006,668704,,668703.5,,668709.444,8,400,,,
sequence,flow.Sequence,4_101,2023-11-01T01:10:21.528Z,,0,,,3027.7249999999767,completion,,,,,false,,,,668704.8000000119,668704,665659.61,665673,665676.275,668709.444,8,400,,,
trial,html.Screen,4_102_0,2023-11-01T01:10:24.438Z,,0,3,,2905.5559999999823,response,ISIC_0030150.JPG,5,ISIC_0059041.JPG,ISIC_0030150.JPG,false,1,keypress(m),500,671615.6000000238,671615,668692.779,668705.1000000238,668709.444,671625.963,8,400,3,,ISIC_0059041.JPG
break,html.Screen,4_102_1,2023-11-01T01:10:24.441Z,,0,,,NaN,,,,,,false,,,,671618.5,671617.900000006,,671616.1000000238,,671625.963,8,400,,,
break_continue,html.Screen,4_102_2,2023-11-01T01:10:24.442Z,,0,,,NaN,,,,,,false,,,,671619.7000000179,671619.400000006,,671618.900000006,,671625.963,8,400,,,
sequence,flow.Sequence,4_102,2023-11-01T01:10:24.443Z,,0,,,2909.9560000059428,completion,,,,,false,,,,671620.400000006,671619.400000006,668692.779,668705.1000000238,668709.444,671625.963,8,400,,,
trial,html.Screen,4_103_0,2023-11-01T01:10:27.071Z,,0,3,,2621.337000011932,response,ISIC_0032549.JPG,5,ISIC_1732527.JPG,ISIC_1732527.JPG,false,0,keypress(z),500,674248.1000000238,674247.3000000119,671609.298,671620.8000000119,671625.963,674259.148,8,400,4,,ISIC_0032549.JPG
break,html.Screen,4_103_1,2023-11-01T01:10:27.073Z,,0,,,NaN,,,,,,false,,,,674250.7000000179,674249.900000006,,674248.6000000238,,674259.148,8,400,,,
break_continue,html.Screen,4_103_2,2023-11-01T01:10:27.075Z,,0,,,NaN,,,,,,false,,,,674251.8000000119,674251.400000006,,674250.900000006,,674259.148,8,400,,,
sequence,flow.Sequence,4_103,2023-11-01T01:10:27.075Z,,0,,,2625.4370000059716,completion,,,,,false,,,,674252.2000000179,674251.400000006,671609.298,671620.6000000238,671625.963,674259.148,8,400,,,
trial,html.Screen,4_104_0,2023-11-01T01:10:29.790Z,,0,3,,2707.5520000178367,response,ISIC_0010746.JPG,5,ISIC_3730327.JPG,ISIC_0010746.JPG,false,1,keypress(m),500,676967.2000000179,676966.7000000179,674242.483,674252.7000000179,674259.148,676975.656,8,400,5,,ISIC_3730327.JPG
break,html.Screen,4_104_1,2023-11-01T01:10:29.792Z,,0,,,NaN,,,,,,false,,,,676969.7000000179,676969.1000000238,,676967.900000006,,676975.656,8,400,,,
break_continue,html.Screen,4_104_2,2023-11-01T01:10:29.794Z,,0,,,NaN,,,,,,false,,,,676970.8000000119,676970.5,,676970,,676975.656,8,400,,,
sequence,flow.Sequence,4_104,2023-11-01T01:10:29.794Z,,0,,,2711.3519999999553,completion,,,,,false,,,,676971.2000000179,676970.5,674242.483,674252.5,674259.148,676975.656,8,400,,,
trial,html.Screen,4_105_0,2023-11-01T01:10:32.799Z,,0,3,,3000.344000000041,response,ISIC_8814672.JPG,5,ISIC_7694069.JPG,ISIC_8814672.JPG,false,1,keypress(m),500,679976.6000000238,679976,676958.991,676971.6000000238,676975.656,679992.162,8,400,6,,ISIC_7694069.JPG
break,html.Screen,4_105_1,2023-11-01T01:10:32.802Z,,0,,,NaN,,,,,,false,,,,679979.400000006,679978.8000000119,,679977.2000000179,,679992.162,8,400,,,
break_continue,html.Screen,4_105_2,2023-11-01T01:10:32.803Z,,0,,,NaN,,,,,,false,,,,679980.6000000238,679980.2000000179,,679979.7000000179,,679992.162,8,400,,,
sequence,flow.Sequence,4_105,2023-11-01T01:10:32.804Z,,0,,,3004.5440000179224,completion,,,,,false,,,,679981,679980.2000000179,676958.991,676971.5,676975.656,679992.162,8,400,,,
trial,html.Screen,4_106_0,2023-11-01T01:10:39.278Z,,0,3,,6462.837999999989,response,ISIC_0031204.JPG,4,ISIC_0301568.JPG,ISIC_0031204.JPG,false,1,keypress(m),500,686455.6000000238,686455,679975.497,679981.3000000119,679992.162,686458.475,8,400,7,,ISIC_0301568.JPG
break,html.Screen,4_106_1,2023-11-01T01:10:39.282Z,,0,,,NaN,,,,,,false,,,,686459.2000000179,686458,,686456.1000000238,,686458.475,8,400,,,
break_continue,html.Screen,4_106_2,2023-11-01T01:10:39.283Z,,0,,,NaN,,,,,,false,,,,686460.5,686460.1000000238,,686459.6000000238,,686458.475,8,400,,,
sequence,flow.Sequence,4_106,2023-11-01T01:10:39.284Z,,0,,,6467.938000023831,completion,,,,,false,,,,686461,686460.1000000238,679975.497,679981.2000000179,679992.162,686458.475,8,400,,,
trial,html.Screen,4_107_0,2023-11-01T01:10:42.232Z,,0,3,,2949.625000023865,response,ISIC_0032892.JPG,6,ISIC_3978280.JPG,ISIC_0032892.JPG,false,1,keypress(m),500,689408.8000000119,689408.1000000238,686441.81,686461.3000000119,686458.475,689424.982,8,400,8,,ISIC_3978280.JPG
break,html.Screen,4_107_1,2023-11-01T01:10:42.235Z,,0,,,NaN,,,,,,false,,,,689412.400000006,689411.6000000238,,689409.2000000179,,689424.982,8,400,,,
break_continue,html.Screen,4_107_2,2023-11-01T01:10:42.237Z,,0,,,NaN,,,,,,false,,,,689413.8000000119,689413.400000006,,689412.8000000119,,689424.982,8,400,,,
sequence,flow.Sequence,4_107,2023-11-01T01:10:42.237Z,,0,,,2954.9250000059837,completion,,,,,false,,,,689414.7000000179,689413.400000006,686441.81,686461.2000000179,686458.475,689424.982,8,400,,,
trial,html.Screen,4_108_0,2023-11-01T01:10:44.819Z,,0,3,,2570.9180000060005,response,ISIC_0032996.JPG,5,ISIC_6498634.JPG,ISIC_6498634.JPG,false,0,keypress(z),500,691996.5,691995.900000006,689408.317,689415.2000000179,689424.982,692008.169,8,400,9,,ISIC_0032996.JPG
break,html.Screen,4_108_1,2023-11-01T01:10:44.822Z,,0,,,NaN,,,,,,false,,,,691998.900000006,691998.3000000119,,691997,,692008.169,8,400,,,
break_continue,html.Screen,4_108_2,2023-11-01T01:10:44.823Z,,0,,,NaN,,,,,,false,,,,692000,691999.8000000119,,691999.2000000179,,692008.169,8,400,,,
sequence,flow.Sequence,4_108,2023-11-01T01:10:44.823Z,,0,,,2574.818000011961,completion,,,,,false,,,,692000.5,691999.8000000119,689408.317,689415.1000000238,689424.982,692008.169,8,400,,,
trial,html.Screen,4_109_0,2023-11-01T01:10:47.627Z,,0,3,,2795.3310000000056,response,ISIC_7727830.JPG,5,ISIC_9100933.JPG,ISIC_9100933.JPG,false,0,keypress(z),500,694804.1000000238,694803.5,691991.504,692000.900000006,692008.169,694808.024,8,400,10,,ISIC_7727830.JPG
break,html.Screen,4_109_1,2023-11-01T01:10:47.629Z,,0,,,NaN,,,,,,false,,,,694806.2000000179,694805.6000000238,,694804.6000000238,,694808.024,8,400,,,
break_continue,html.Screen,4_109_2,2023-11-01T01:10:47.630Z,,0,,,NaN,,,,,,false,,,,694807.400000006,694807.1000000238,,694806.5,,694808.024,8,400,,,
sequence,flow.Sequence,4_109,2023-11-01T01:10:47.631Z,,0,,,2798.9310000238474,completion,,,,,false,,,,694807.8000000119,694807.1000000238,691991.504,692000.7000000179,692008.169,694808.024,8,400,,,
trial,html.Screen,4_110_0,2023-11-01T01:10:50.178Z,,0,3,,2546.8760000059847,response,ISIC_9764024.JPG,5,ISIC_7936755.JPG,ISIC_7936755.JPG,false,0,keypress(z),500,697355.5,697354.900000006,694791.359,694808.2000000179,694808.024,697374.538,8,400,11,,ISIC_9764024.JPG
break,html.Screen,4_110_1,2023-11-01T01:10:50.181Z,,0,,,NaN,,,,,,false,,,,697358.7000000179,697357.3000000119,,697356,,697374.538,8,400,,,
break_continue,html.Screen,4_110_2,2023-11-01T01:10:50.183Z,,0,,,NaN,,,,,,false,,,,697360.1000000238,697359.7000000179,,697359.1000000238,,697374.538,8,400,,,
sequence,flow.Sequence,4_110,2023-11-01T01:10:50.183Z,,0,,,2551.6760000179056,completion,,,,,false,,,,697360.5,697359.7000000179,694791.359,694808,694808.024,697374.538,8,400,,,
trial,html.Screen,4_111_0,2023-11-01T01:10:53.686Z,,0,3,,3488.4620000000577,response,ISIC_1194944.JPG,5,ISIC_0522926.JPG,ISIC_1194944.JPG,false,1,keypress(m),500,700863.7000000179,700863,697357.873,697360.900000006,697374.538,700874.356,8,400,12,,ISIC_0522926.JPG
break,html.Screen,4_111_1,2023-11-01T01:10:53.689Z,,0,,,NaN,,,,,,false,,,,700866.400000006,700865.8000000119,,700864.1000000238,,700874.356,8,400,,,
break_continue,html.Screen,4_111_2,2023-11-01T01:10:53.690Z,,0,,,NaN,,,,,,false,,,,700867.5,700867.2000000179,,700866.7000000179,,700874.356,8,400,,,
sequence,flow.Sequence,4_111,2023-11-01T01:10:53.691Z,,0,,,3492.662000017939,completion,,,,,false,,,,700868,700867.2000000179,697357.873,697360.8000000119,697374.538,700874.356,8,400,,,
trial,html.Screen,4_112_0,2023-11-01T01:10:56.990Z,,0,3,,3292.5440000059316,response,ISIC_6126554.JPG,5,ISIC_0001139.JPG,ISIC_6126554.JPG,false,1,keypress(m),500,704167.6000000238,704166.900000006,700857.691,700868.3000000119,700874.356,704174.175,8,400,13,,ISIC_0001139.JPG
break,html.Screen,4_112_1,2023-11-01T01:10:56.993Z,,0,,,NaN,,,,,,false,,,,704170.7000000179,704170,,704168.1000000238,,704174.175,8,400,,,
break_continue,html.Screen,4_112_2,2023-11-01T01:10:56.995Z,,0,,,NaN,,,,,,false,,,,704172.1000000238,704171.7000000179,,704171.2000000179,,704174.175,8,400,,,
sequence,flow.Sequence,4_112,2023-11-01T01:10:56.995Z,,0,,,3297.3440000178525,completion,,,,,false,,,,704172.7000000179,704171.7000000179,700857.691,700868.2000000179,700874.356,704174.175,8,400,,,
trial,html.Screen,4_113_0,2023-11-01T01:11:01.214Z,,0,3,,4216.824999999953,response,ISIC_0070927.JPG,5,ISIC_7454679.JPG,ISIC_0070927.JPG,false,1,keypress(m),500,708391.7000000179,708391,704157.51,704173,704174.175,708407.296,8,400,14,,ISIC_7454679.JPG
break,html.Screen,4_113_1,2023-11-01T01:11:01.217Z,,0,,,NaN,,,,,,false,,,,708393.900000006,708393.2000000179,,708392.2000000179,,708407.296,8,400,,,
break_continue,html.Screen,4_113_2,2023-11-01T01:11:01.218Z,,0,,,NaN,,,,,,false,,,,708395,708394.8000000119,,708394.3000000119,,708407.296,8,400,,,
sequence,flow.Sequence,4_113,2023-11-01T01:11:01.218Z,,0,,,4220.625000011874,completion,,,,,false,,,,708395.5,708394.8000000119,704157.51,704172.900000006,704174.175,708407.296,8,400,,,
trial,html.Screen,4_114_0,2023-11-01T01:11:04.502Z,,0,3,,3271.4040000179084,response,ISIC_5793600.JPG,5,ISIC_7295035.JPG,ISIC_7295035.JPG,false,0,keypress(z),500,711679.400000006,711678.7000000179,708390.631,708395.900000006,708407.296,711690.421,8,400,15,,ISIC_5793600.JPG
break,html.Screen,4_114_1,2023-11-01T01:11:04.505Z,,0,,,NaN,,,,,,false,,,,711682.2000000179,711681.6000000238,,711679.8000000119,,711690.421,8,400,,,
break_continue,html.Screen,4_114_2,2023-11-01T01:11:04.506Z,,0,,,NaN,,,,,,false,,,,711683.3000000119,711683,,711682.5,,711690.421,8,400,,,
sequence,flow.Sequence,4_114,2023-11-01T01:11:04.507Z,,0,,,3275.704000000027,completion,,,,,false,,,,711683.8000000119,711683,708390.631,708395.8000000119,708407.296,711690.421,8,400,,,
trial,html.Screen,4_115_0,2023-11-01T01:11:08.222Z,,0,3,,3708.2790000179084,response,ISIC_4136591.JPG,5,ISIC_0026115.JPG,ISIC_0026115.JPG,false,0,keypress(z),500,715399.2000000179,715398.7000000179,711673.756,711684.1000000238,711690.421,715406.896,8,400,16,,ISIC_4136591.JPG
break,html.Screen,4_115_1,2023-11-01T01:11:08.230Z,,0,,,NaN,,,,,,false,,,,715406.8000000119,715400.8000000119,,715399.7000000179,,715406.896,8,400,,,
break_continue,html.Screen,4_115_2,2023-11-01T01:11:08.231Z,,0,,,NaN,,,,,,false,,,,715408.3000000119,715408,,715407.400000006,,715406.896,8,400,,,
sequence,flow.Sequence,4_115,2023-11-01T01:11:08.232Z,,0,,,3717.579000000027,completion,,,,,false,,,,715408.8000000119,715408,711673.756,711684,711690.421,715406.896,8,400,,,
trial,html.Screen,4_116_0,2023-11-01T01:11:11.958Z,,0,3,,3728.0040000060108,response,ISIC_0032901.JPG,5,ISIC_0030060.JPG,ISIC_0030060.JPG,false,0,keypress(z),500,719135.5,719134.900000006,715390.231,715409.1000000238,715406.896,719140.018,8,400,17,,ISIC_0032901.JPG
break,html.Screen,4_116_1,2023-11-01T01:11:11.961Z,,0,,,NaN,,,,,,false,,,,719138.5,719137.8000000119,,719135.900000006,,719140.018,8,400,,,
break_continue,html.Screen,4_116_2,2023-11-01T01:11:11.966Z,,0,,,NaN,,,,,,false,,,,719142.900000006,719142.5,,719141.7000000179,,719140.018,8,400,,,
sequence,flow.Sequence,4_116,2023-11-01T01:11:11.966Z,,0,,,3735.6040000000503,completion,,,,,false,,,,719143.5,719142.5,715390.231,715409,715406.896,719140.018,8,400,,,
trial,html.Screen,4_117_0,2023-11-01T01:11:15.054Z,,0,3,,3090.98199999996,response,ISIC_0054954.JPG,5,ISIC_3211915.JPG,ISIC_0054954.JPG,false,1,keypress(m),500,722231.7000000179,722231,719123.353,719143.8000000119,719140.018,722239.839,8,400,18,,ISIC_3211915.JPG
break,html.Screen,4_117_1,2023-11-01T01:11:15.057Z,,0,,,NaN,,,,,,false,,,,722234.1000000238,722233.5,,722232.1000000238,,722239.839,8,400,,,
break_continue,html.Screen,4_117_2,2023-11-01T01:11:15.058Z,,0,,,NaN,,,,,,false,,,,722235.3000000119,722234.900000006,,722234.5,,722239.839,8,400,,,
sequence,flow.Sequence,4_117,2023-11-01T01:11:15.058Z,,0,,,3094.8820000059204,completion,,,,,false,,,,722235.7000000179,722234.900000006,719123.353,719143.7000000179,719140.018,722239.839,8,400,,,
trial,html.Screen,4_118_0,2023-11-01T01:11:19.431Z,,0,3,,4367.561000005924,response,ISIC_3521671.JPG,5,ISIC_0029639.JPG,ISIC_0029639.JPG,false,0,keypress(z),500,726608,726607.400000006,722223.174,722236.1000000238,722239.839,726622.938,8,400,19,,ISIC_3521671.JPG
break,html.Screen,4_118_1,2023-11-01T01:11:19.433Z,,0,,,NaN,,,,,,false,,,,726610.1000000238,726609.6000000238,,726608.400000006,,726622.938,8,400,,,
break_continue,html.Screen,4_118_2,2023-11-01T01:11:19.434Z,,0,,,NaN,,,,,,false,,,,726611.2000000179,726610.900000006,,726610.400000006,,726622.938,8,400,,,
sequence,flow.Sequence,4_118,2023-11-01T01:11:19.434Z,,0,,,4371.061000005924,completion,,,,,false,,,,726611.7000000179,726610.900000006,722223.174,722236,722239.839,726622.938,8,400,,,
trial,html.Screen,4_119_0,2023-11-01T01:11:22.422Z,,0,3,,2976.0620000000345,response,ISIC_0010611.JPG,5,ISIC_6685513.JPG,ISIC_0010611.JPG,false,1,keypress(m),500,729599.6000000238,729599,726606.273,726612,726622.938,729606.113,8,400,20,,ISIC_6685513.JPG
break,html.Screen,4_119_1,2023-11-01T01:11:22.425Z,,0,,,NaN,,,,,,false,,,,729602.3000000119,729601.7000000179,,729600.1000000238,,729606.113,8,400,,,
break_continue,html.Screen,4_119_2,2023-11-01T01:11:22.426Z,,0,,,NaN,,,,,,false,,,,729603.400000006,729603,,729602.6000000238,,729606.113,8,400,,,
sequence,flow.Sequence,4_119,2023-11-01T01:11:22.427Z,,0,,,2980.0620000000345,completion,,,,,false,,,,729603.8000000119,729603,726606.273,726612,726622.938,729606.113,8,400,,,
trial,html.Screen,4_120_0,2023-11-01T01:11:25.214Z,,0,3,,2784.4870000238298,response,ISIC_3541663.JPG,5,ISIC_0069056.JPG,ISIC_3541663.JPG,false,1,keypress(m),500,732391.1000000238,732390.6000000238,729589.448,729604.2000000179,729606.113,732405.953,8,400,21,,ISIC_0069056.JPG
break,html.Screen,4_120_1,2023-11-01T01:11:25.217Z,,0,,,NaN,,,,,,false,,,,732394.400000006,732393.7000000179,,732392.400000006,,732405.953,8,400,,,
break_continue,html.Screen,4_120_2,2023-11-01T01:11:25.218Z,,0,,,NaN,,,,,,false,,,,732395.7000000179,732395.3000000119,,732394.7000000179,,732405.953,8,400,,,
sequence,flow.Sequence,4_120,2023-11-01T01:11:25.219Z,,0,,,2789.187000011909,completion,,,,,false,,,,732396.1000000238,732395.3000000119,729589.448,729604,729606.113,732405.953,8,400,,,
trial,html.Screen,4_121_0,2023-11-01T01:11:27.766Z,,0,3,,2537.0470000000205,response,ISIC_0032783.JPG,5,ISIC_7011122.JPG,ISIC_7011122.JPG,false,0,keypress(z),500,734943.7000000179,734943,732389.288,732396.400000006,732405.953,734955.821,8,400,22,,ISIC_0032783.JPG
break,html.Screen,4_121_1,2023-11-01T01:11:27.769Z,,0,,,NaN,,,,,,false,,,,734946.3000000119,734945.6000000238,,734944.1000000238,,734955.821,8,400,,,
break_continue,html.Screen,4_121_2,2023-11-01T01:11:27.770Z,,0,,,NaN,,,,,,false,,,,734947.6000000238,734947,,734946.6000000238,,734955.821,8,400,,,
sequence,flow.Sequence,4_121,2023-11-01T01:11:27.771Z,,0,,,2541.0470000000205,completion,,,,,false,,,,734948.1000000238,734947,732389.288,732396.400000006,732405.953,734955.821,8,400,,,
trial,html.Screen,4_122_0,2023-11-01T01:11:30.638Z,,0,3,,2859.2790000238456,response,ISIC_7212271.JPG,4,ISIC_8689112.JPG,ISIC_8689112.JPG,false,0,keypress(z),500,737815.8000000119,737815.1000000238,734939.156,734948.5,734955.821,737822.332,8,400,23,,ISIC_7212271.JPG
break,html.Screen,4_122_1,2023-11-01T01:11:30.641Z,,0,,,NaN,,,,,,false,,,,737818.1000000238,737817.400000006,,737816.1000000238,,737822.332,8,400,,,
break_continue,html.Screen,4_122_2,2023-11-01T01:11:30.642Z,,0,,,NaN,,,,,,false,,,,737819.2000000179,737818.900000006,,737818.400000006,,737822.332,8,400,,,
sequence,flow.Sequence,4_122,2023-11-01T01:11:30.642Z,,0,,,2863.079000005964,completion,,,,,false,,,,737819.6000000238,737818.900000006,734939.156,734948.400000006,734955.821,737822.332,8,400,,,
trial,html.Screen,4_123_0,2023-11-01T01:11:33.502Z,,0,3,,2856.667999999947,response,ISIC_0065351.JPG,5,ISIC_3948754.JPG,ISIC_0065351.JPG,false,1,keypress(m),500,740679.7000000179,740679,737805.667,737820,737822.332,740688.842,8,400,24,,ISIC_3948754.JPG
break,html.Screen,4_123_1,2023-11-01T01:11:33.505Z,,0,,,NaN,,,,,,false,,,,740682.5,740682,,740680.2000000179,,740688.842,8,400,,,
break_continue,html.Screen,4_123_2,2023-11-01T01:11:33.506Z,,0,,,NaN,,,,,,false,,,,740683.6000000238,740683.3000000119,,740682.8000000119,,740688.842,8,400,,,
sequence,flow.Sequence,4_123,2023-11-01T01:11:33.507Z,,0,,,2860.968000011868,completion,,,,,false,,,,740684,740683.3000000119,737805.667,737819.900000006,737822.332,740688.842,8,400,,,
trial,html.Screen,4_124_0,2023-11-01T01:11:36.224Z,,0,3,,2711.658000000054,response,ISIC_7590292.JPG,4,ISIC_7806612.JPG,ISIC_7590292.JPG,false,1,keypress(m),500,743401,743400.5,740672.177,740684.5,740688.842,743405.357,8,400,25,,ISIC_7806612.JPG
break,html.Screen,4_124_1,2023-11-01T01:11:36.226Z,,0,,,NaN,,,,,,false,,,,743403.5,743402.900000006,,743401.400000006,,743405.357,8,400,,,
break_continue,html.Screen,4_124_2,2023-11-01T01:11:36.227Z,,0,,,NaN,,,,,,false,,,,743404.6000000238,743404.2000000179,,743403.8000000119,,743405.357,8,400,,,
sequence,flow.Sequence,4_124,2023-11-01T01:11:36.228Z,,0,,,2715.3580000179354,completion,,,,,false,,,,743405,743404.2000000179,740672.177,740684.3000000119,740688.842,743405.357,8,400,,,
trial,html.Screen,4_125_0,2023-11-01T01:11:40.472Z,,0,3,,4243.0430000060005,response,ISIC_0028152.JPG,5,ISIC_8566006.JPG,ISIC_0028152.JPG,false,1,keypress(m),500,747648.900000006,747648.400000006,743388.692,743405.400000006,743405.357,747655.124,8,400,26,,ISIC_8566006.JPG
break,html.Screen,4_125_1,2023-11-01T01:11:40.474Z,,0,,,NaN,,,,,,false,,,,747650.900000006,747650.3000000119,,747649.3000000119,,747655.124,8,400,,,
break_continue,html.Screen,4_125_2,2023-11-01T01:11:40.475Z,,0,,,NaN,,,,,,false,,,,747652.1000000238,747651.7000000179,,747651.2000000179,,747655.124,8,400,,,
sequence,flow.Sequence,4_125,2023-11-01T01:11:40.475Z,,0,,,4246.343000017921,completion,,,,,false,,,,747652.6000000238,747651.7000000179,743388.692,743405.2000000179,743405.357,747655.124,8,400,,,
