sender,sender_type,sender_id,timestamp,meta,,blockNo,condition,duration,ended_on,img_left,img_reveal,img_right,loser,practice,response,response_action,selection_duration,time_commit,time_end,time_render,time_run,time_show,time_switch,total_blocks,total_trials,trialNo,url,winner
informed_consent,html.Screen,0,2023-05-02T17:43:24.630Z,"{""labjs_version"":""20.2.4"",""labjs_build"":{""flavor"":""production"",""commit"":""f5b4a49f956347addd546a832a3327688c2c0fef""},""location"":""https://run.pavlovia.org/MurrayBennett/melanoma-2afc/?participant=64921"",""userAgent"":""Mozilla/5.0 (Macintosh; Intel Mac OS X 10_15_7) AppleWebKit/537.36 (KHTML, like Gecko) Chrome/112.0.0.0 Safari/537.36"",""platform"":""MacIntel"",""language"":""en-US"",""locale"":""en-US"",""timeZone"":""America/Chicago"",""timezoneOffset"":300,""screen_width"":1440,""screen_height"":900,""scroll_width"":1440,""scroll_height"":741,""window_innerWidth"":1440,""window_innerHeight"":789,""devicePixelRatio"":2}",,,,3555.4170000007452,response,,,,,,consent,click button,,6017.5999999996275,5996.300000000745,2424.228,2438.9000000003725,2440.883,6038.363,,,,"{""participant"":""64921""}",
Welcome,html.Screen,1,2023-05-02T17:43:25.460Z,,,,irregular,786.4370000007448,response,,,,,,continue,click button,,6847.5,6824.800000000745,6005.053,6017.9000000003725,6038.363,6854.458,,,,,
trial,html.Screen,2_0_0,2023-05-02T17:43:36.626Z,,0,0,,11159.141999999629,response,ISIC_0061792.JPG,,ISIC_4679428.JPG,ISIC_4679428.JPG,true,0,keypress(z),500,18014,18013.599999999627,6837.803,6847.5999999996275,6854.458,18030.349,1,6,1,,ISIC_0061792.JPG
sequence,flow.Sequence,2_0,2023-05-02T17:43:36.627Z,,0,,,11159.141999999629,completion,,,,,true,,,,18015,18013.599999999627,6837.803,6847.5999999996275,6854.458,18030.349,1,6,,,
trial,html.Screen,2_1_0,2023-05-02T17:43:40.465Z,,0,0,,3822.6510000000017,response,ISIC_0776486.JPG,,ISIC_5199497.JPG,ISIC_5199497.JPG,true,0,keypress(z),500,21853.599999999627,21853,18013.694,18015.599999999627,18030.349,21861.381,1,6,2,,ISIC_0776486.JPG
sequence,flow.Sequence,2_1,2023-05-02T17:43:40.466Z,,0,,,3822.6510000000017,completion,,,,,true,,,,21854,21853,18013.694,18015.599999999627,18030.349,21861.381,1,6,,,
trial,html.Screen,2_2_0,2023-05-02T17:43:48.305Z,,0,0,,7831.419000000744,response,ISIC_2556187.JPG,,ISIC_8575776.JPG,ISIC_2556187.JPG,true,1,keypress(m),500,29693.300000000745,29692.800000000745,21844.726,21854.199999999255,21861.381,29706.305,1,6,3,,ISIC_8575776.JPG
sequence,flow.Sequence,2_2,2023-05-02T17:43:48.305Z,,0,,,7831.419000000744,completion,,,,,true,,,,29693.699999999255,29692.800000000745,21844.726,21854.199999999255,21861.381,29706.305,1,6,,,
trial,html.Screen,2_3_0,2023-05-02T17:43:51.353Z,,0,0,,3035.1949999999997,response,ISIC_8141769.JPG,,ISIC_9238366.JPG,ISIC_9238366.JPG,true,0,keypress(z),500,32742.199999999255,32741.5,29689.65,29694,29706.305,32754.17,1,6,4,,ISIC_8141769.JPG
sequence,flow.Sequence,2_3,2023-05-02T17:43:51.354Z,,0,,,3035.1949999999997,completion,,,,,true,,,,32742.800000000745,32741.5,29689.65,29693.900000000373,29706.305,32754.17,1,6,,,
trial,html.Screen,2_4_0,2023-05-02T17:43:55.144Z,,0,0,,3778.7300000003743,response,ISIC_8949026.JPG,,ISIC_9959593.JPG,ISIC_8949026.JPG,true,1,keypress(m),500,36533.40000000037,36532.90000000037,32737.515,32743.099999999627,32754.17,36551.51,1,6,5,,ISIC_9959593.JPG
sequence,flow.Sequence,2_4,2023-05-02T17:43:55.145Z,,0,,,3778.7300000003743,completion,,,,,true,,,,36533.90000000037,36532.90000000037,32737.515,32743,32754.17,36551.51,1,6,,,
trial,html.Screen,2_5_0,2023-05-02T17:43:57.955Z,,0,0,,2791.790000000743,response,ISIC_0010479.JPG,,ISIC_0460240.JPG,ISIC_0460240.JPG,true,0,keypress(z),500,39343.800000000745,39343.300000000745,36534.855,36534.199999999255,36551.51,39349.55,1,6,6,,ISIC_0010479.JPG
sequence,flow.Sequence,2_5,2023-05-02T17:43:57.955Z,,0,,,2791.790000000743,completion,,,,,true,,,,39344.40000000037,39343.300000000745,36534.855,36534.09999999963,36551.51,39349.55,1,6,,,
loop,flow.Loop,2,2023-05-02T17:43:57.955Z,,,,,32488.842000000746,completion,,,,,true,,,,39344.699999999255,39343.300000000745,6837.803,6847.5999999996275,6854.458,39349.55,1,6,,,
exp_instructions,html.Screen,3,2023-05-02T17:44:05.880Z,,,,,7909.750000000742,response,,,,,,continue,keypress(Space),,47269.699999999255,47259.300000000745,39332.895,39344.90000000037,39349.55,47277.712,,,,,
trial,html.Screen,4_0_0,2023-05-02T17:44:08.802Z,,0,1,,2913.387999999628,response,ISIC_0011137.JPG,,ISIC_0025783.JPG,ISIC_0011137.JPG,false,1,keypress(m),500,50191.40000000037,50191.09999999963,47261.057,47269.90000000037,47277.712,50209.38,8,400,1,,ISIC_0025783.JPG
break,html.Screen,4_0_1,2023-05-02T17:44:08.803Z,,0,,,NaN,,,,,,false,,,,50192.800000000745,50192.300000000745,,50191.699999999255,,50209.38,8,400,,,
break_continue,html.Screen,4_0_2,2023-05-02T17:44:08.804Z,,0,,,NaN,,,,,,false,,,,50193.40000000037,50193.199999999255,,50193,,50209.38,8,400,,,
sequence,flow.Sequence,4_0,2023-05-02T17:44:08.804Z,,0,,,2915.4879999992554,completion,,,,,false,,,,50193.59999999963,50193.199999999255,47261.057,47269.90000000037,47277.712,50209.38,8,400,,,
trial,html.Screen,4_1_0,2023-05-02T17:44:11.578Z,,0,1,,2758.3199999992576,response,ISIC_0064941.JPG,,ISIC_0773096.JPG,ISIC_0773096.JPG,false,0,keypress(z),500,52968,52967.699999999255,50192.725,50193.800000000745,50209.38,52974.11,8,400,2,,ISIC_0064941.JPG
break,html.Screen,4_1_1,2023-05-02T17:44:11.579Z,,0,,,NaN,,,,,,false,,,,52969.199999999255,52968.90000000037,,52968.40000000037,,52974.11,8,400,,,
break_continue,html.Screen,4_1_2,2023-05-02T17:44:11.580Z,,0,,,NaN,,,,,,false,,,,52969.699999999255,52969.59999999963,,52969.40000000037,,52974.11,8,400,,,
sequence,flow.Sequence,4_1,2023-05-02T17:44:11.580Z,,0,,,2760.21999999963,completion,,,,,false,,,,52969.90000000037,52969.59999999963,50192.725,50193.800000000745,50209.38,52974.11,8,400,,,
trial,html.Screen,4_2_0,2023-05-02T17:44:14.631Z,,0,1,,3046.3899999999994,response,ISIC_9525136.JPG,,ISIC_0013688.JPG,ISIC_0013688.JPG,false,0,keypress(z),500,56021,56020.5,52957.455,52970.199999999255,52974.11,56038.63,8,400,3,,ISIC_9525136.JPG
break,html.Screen,4_2_1,2023-05-02T17:44:14.632Z,,0,,,NaN,,,,,,false,,,,56022.09999999963,56021.800000000745,,56021.300000000745,,56038.63,8,400,,,
break_continue,html.Screen,4_2_2,2023-05-02T17:44:14.633Z,,0,,,NaN,,,,,,false,,,,56022.699999999255,56022.5,,56022.40000000037,,56038.63,8,400,,,
sequence,flow.Sequence,4_2,2023-05-02T17:44:14.633Z,,0,,,3048.3899999999994,completion,,,,,false,,,,56023,56022.5,52957.455,52970,52974.11,56038.63,8,400,,,
trial,html.Screen,4_3_0,2023-05-02T17:44:17.728Z,,0,1,,3079.3700000000026,response,ISIC_3902917.JPG,,ISIC_6722934.JPG,ISIC_3902917.JPG,false,1,keypress(m),500,59118.5,59118,56021.975,56023.09999999963,56038.63,59136.46,8,400,4,,ISIC_6722934.JPG
break,html.Screen,4_3_1,2023-05-02T17:44:17.729Z,,0,,,NaN,,,,,,false,,,,59119.59999999963,59119.300000000745,,59118.90000000037,,59136.46,8,400,,,
break_continue,html.Screen,4_3_2,2023-05-02T17:44:17.730Z,,0,,,NaN,,,,,,false,,,,59120.09999999963,59120,,59119.699999999255,,59136.46,8,400,,,
sequence,flow.Sequence,4_3,2023-05-02T17:44:17.730Z,,0,,,3081.3700000000026,completion,,,,,false,,,,59120.300000000745,59120,56021.975,56023.09999999963,56038.63,59136.46,8,400,,,
trial,html.Screen,4_4_0,2023-05-02T17:44:20.479Z,,0,1,,2732.4400000003734,response,ISIC_0060968.JPG,,ISIC_0057716.JPG,ISIC_0057716.JPG,false,0,keypress(z),500,61869.300000000745,61868.90000000037,59119.805,59120.5,59136.46,61884.925,8,400,5,,ISIC_0060968.JPG
break,html.Screen,4_4_1,2023-05-02T17:44:20.480Z,,0,,,NaN,,,,,,false,,,,61870.40000000037,61870,,61869.699999999255,,61884.925,8,400,,,
break_continue,html.Screen,4_4_2,2023-05-02T17:44:20.481Z,,0,,,NaN,,,,,,false,,,,61870.90000000037,61870.699999999255,,61870.5,,61884.925,8,400,,,
sequence,flow.Sequence,4_4,2023-05-02T17:44:20.481Z,,0,,,2734.239999999256,completion,,,,,false,,,,61871.09999999963,61870.699999999255,59119.805,59120.40000000037,59136.46,61884.925,8,400,,,
trial,html.Screen,4_5_0,2023-05-02T17:44:23.110Z,,0,1,,2615.574999999997,response,ISIC_2324728.JPG,,ISIC_0056364.JPG,ISIC_2324728.JPG,false,1,keypress(m),500,64500.699999999255,64500.5,61868.27,61871.40000000037,61884.925,64516.415,8,400,6,,ISIC_0056364.JPG
break,html.Screen,4_5_1,2023-05-02T17:44:23.111Z,,0,,,NaN,,,,,,false,,,,64501.199999999255,64501.09999999963,,64500.800000000745,,64516.415,8,400,,,
break_continue,html.Screen,4_5_2,2023-05-02T17:44:23.111Z,,0,,,NaN,,,,,,false,,,,64501.5,64501.5,,64501.40000000037,,64516.415,8,400,,,
sequence,flow.Sequence,4_5,2023-05-02T17:44:23.111Z,,0,,,2616.574999999997,completion,,,,,false,,,,64501.699999999255,64501.5,61868.27,61871.199999999255,61884.925,64516.415,8,400,,,
trial,html.Screen,4_6_0,2023-05-02T17:44:25.777Z,,0,1,,2650.584999999999,response,ISIC_7717907.JPG,,ISIC_9860895.JPG,ISIC_9860895.JPG,false,0,keypress(z),500,67167.40000000037,67167,64499.76,64501.90000000037,64516.415,67181.215,8,400,7,,ISIC_7717907.JPG
break,html.Screen,4_6_1,2023-05-02T17:44:25.778Z,,0,,,NaN,,,,,,false,,,,67168.80000000075,67168.5,,67167.69999999925,,67181.215,8,400,,,
break_continue,html.Screen,4_6_2,2023-05-02T17:44:25.780Z,,0,,,NaN,,,,,,false,,,,67170.5,67170.30000000075,,67170.09999999963,,67181.215,8,400,,,
sequence,flow.Sequence,4_6,2023-05-02T17:44:25.780Z,,0,,,2653.885000000744,completion,,,,,false,,,,67170.80000000075,67170.30000000075,64499.76,64501.90000000037,64516.415,67181.215,8,400,,,
trial,html.Screen,4_7_0,2023-05-02T17:44:28.390Z,,0,1,,2599.4849999992584,response,ISIC_0027234.JPG,,ISIC_0057307.JPG,ISIC_0057307.JPG,false,0,keypress(z),500,69781.09999999963,69780.69999999925,67164.56,67171,67181.215,69796.05,8,400,8,,ISIC_0027234.JPG
break,html.Screen,4_7_1,2023-05-02T17:44:28.391Z,,0,,,NaN,,,,,,false,,,,69782.19999999925,69781.90000000037,,69781.40000000037,,69796.05,8,400,,,
break_continue,html.Screen,4_7_2,2023-05-02T17:44:28.392Z,,0,,,NaN,,,,,,false,,,,69782.59999999963,69782.5,,69782.40000000037,,69796.05,8,400,,,
sequence,flow.Sequence,4_7,2023-05-02T17:44:28.392Z,,0,,,2601.2850000000035,completion,,,,,false,,,,69782.90000000037,69782.5,67164.56,67170.90000000037,67181.215,69796.05,8,400,,,
trial,html.Screen,4_8_0,2023-05-02T17:44:30.929Z,,0,1,,2523.0499999996246,response,ISIC_9076021.JPG,,ISIC_0014181.JPG,ISIC_9076021.JPG,false,1,keypress(m),500,72319.5,72319.09999999963,69779.395,69783.09999999963,69796.05,72328.01,8,400,9,,ISIC_0014181.JPG
break,html.Screen,4_8_1,2023-05-02T17:44:30.930Z,,0,,,NaN,,,,,,false,,,,72320.69999999925,72320.40000000037,,72319.80000000075,,72328.01,8,400,,,
break_continue,html.Screen,4_8_2,2023-05-02T17:44:30.931Z,,0,,,NaN,,,,,,false,,,,72321.40000000037,72321.09999999963,,72320.90000000037,,72328.01,8,400,,,
sequence,flow.Sequence,4_8,2023-05-02T17:44:30.931Z,,0,,,2525.0499999996246,completion,,,,,false,,,,72321.80000000075,72321.09999999963,69779.395,69782.90000000037,69796.05,72328.01,8,400,,,
trial,html.Screen,4_9_0,2023-05-02T17:44:33.574Z,,0,1,,2636.3900000003778,response,ISIC_2077116.JPG,,ISIC_4177450.JPG,ISIC_2077116.JPG,false,1,keypress(m),500,74964.80000000075,74964.40000000037,72311.355,72321.90000000037,72328.01,74976.155,8,400,10,,ISIC_4177450.JPG
break,html.Screen,4_9_1,2023-05-02T17:44:33.575Z,,0,,,NaN,,,,,,false,,,,74965.69999999925,74965.40000000037,,74965,,74976.155,8,400,,,
break_continue,html.Screen,4_9_2,2023-05-02T17:44:33.576Z,,0,,,NaN,,,,,,false,,,,74966.5,74966,,74965.90000000037,,74976.155,8,400,,,
sequence,flow.Sequence,4_9,2023-05-02T17:44:33.576Z,,0,,,2637.9900000000052,completion,,,,,false,,,,74967,74966,72311.355,72321.90000000037,72328.01,74976.155,8,400,,,
trial,html.Screen,4_10_0,2023-05-02T17:44:36.240Z,,0,1,,2654.845000000001,response,ISIC_0536321.JPG,,ISIC_3934537.JPG,ISIC_3934537.JPG,false,0,keypress(z),500,77631.30000000075,77631,74959.5,74967.19999999925,74976.155,77640.955,8,400,11,,ISIC_0536321.JPG
break,html.Screen,4_10_1,2023-05-02T17:44:36.241Z,,0,,,NaN,,,,,,false,,,,77632.30000000075,77632,,77631.59999999963,,77640.955,8,400,,,
break_continue,html.Screen,4_10_2,2023-05-02T17:44:36.242Z,,0,,,NaN,,,,,,false,,,,77633,77632.59999999963,,77632.5,,77640.955,8,400,,,
sequence,flow.Sequence,4_10,2023-05-02T17:44:36.242Z,,0,,,2656.4449999996286,completion,,,,,false,,,,77633.40000000037,77632.59999999963,74959.5,74967.19999999925,74976.155,77640.955,8,400,,,
trial,html.Screen,4_11_0,2023-05-02T17:44:38.862Z,,0,1,,2611.5449999999983,response,ISIC_0000414.JPG,,ISIC_3430447.JPG,ISIC_3430447.JPG,false,0,keypress(z),500,80252.90000000037,80252.5,77624.3,77633.5,77640.955,80255.79,8,400,12,,ISIC_0000414.JPG
break,html.Screen,4_11_1,2023-05-02T17:44:38.863Z,,0,,,NaN,,,,,,false,,,,80253.80000000075,80253.69999999925,,80253.19999999925,,80255.79,8,400,,,
break_continue,html.Screen,4_11_2,2023-05-02T17:44:38.863Z,,0,,,NaN,,,,,,false,,,,80254.30000000075,80254.09999999963,,80254,,80255.79,8,400,,,
sequence,flow.Sequence,4_11,2023-05-02T17:44:38.863Z,,0,,,2613.1449999996257,completion,,,,,false,,,,80254.59999999963,80254.09999999963,77624.3,77633.5,77640.955,80255.79,8,400,,,
trial,html.Screen,4_12_0,2023-05-02T17:44:41.983Z,,0,1,,3118.4099999992613,response,ISIC_3148533.JPG,,ISIC_4536407.JPG,ISIC_4536407.JPG,false,0,keypress(z),500,83374.59999999963,83374.19999999925,80239.135,80254.69999999925,80255.79,83387.324,8,400,13,,ISIC_3148533.JPG
break,html.Screen,4_12_1,2023-05-02T17:44:41.984Z,,0,,,NaN,,,,,,false,,,,83375.69999999925,83375.40000000037,,83374.90000000037,,83387.324,8,400,,,
break_continue,html.Screen,4_12_2,2023-05-02T17:44:41.985Z,,0,,,NaN,,,,,,false,,,,83376.19999999925,83376,,83375.90000000037,,83387.324,8,400,,,
sequence,flow.Sequence,4_12,2023-05-02T17:44:41.985Z,,0,,,3120.2100000000064,completion,,,,,false,,,,83376.40000000037,83376,80239.135,80254.69999999925,80255.79,83387.324,8,400,,,
trial,html.Screen,4_13_0,2023-05-02T17:44:44.614Z,,0,1,,2617.3759999992617,response,ISIC_0070992.JPG,,ISIC_0059412.JPG,ISIC_0059412.JPG,false,0,keypress(z),500,86005.19999999925,86004.69999999925,83370.669,83376.59999999963,83387.324,86018.814,8,400,14,,ISIC_0070992.JPG
break,html.Screen,4_13_1,2023-05-02T17:44:44.615Z,,0,,,NaN,,,,,,false,,,,86006.59999999963,86006.09999999963,,86005.40000000037,,86018.814,8,400,,,
break_continue,html.Screen,4_13_2,2023-05-02T17:44:44.616Z,,0,,,NaN,,,,,,false,,,,86007.19999999925,86007.09999999963,,86006.80000000075,,86018.814,8,400,,,
sequence,flow.Sequence,4_13,2023-05-02T17:44:44.616Z,,0,,,2619.775999999634,completion,,,,,false,,,,86007.5,86007.09999999963,83370.669,83376.5,83387.324,86018.814,8,400,,,
trial,html.Screen,4_14_0,2023-05-02T17:44:47.456Z,,0,1,,2828.086000000374,response,ISIC_0029481.JPG,,ISIC_2059085.JPG,ISIC_0029481.JPG,false,1,keypress(m),500,88847.30000000075,88846.90000000037,86002.159,86007.69999999925,86018.814,88850.164,8,400,15,,ISIC_2059085.JPG
break,html.Screen,4_14_1,2023-05-02T17:44:47.457Z,,0,,,NaN,,,,,,false,,,,88848.30000000075,88848,,88847.59999999963,,88850.164,8,400,,,
break_continue,html.Screen,4_14_2,2023-05-02T17:44:47.457Z,,0,,,NaN,,,,,,false,,,,88848.80000000075,88848.69999999925,,88848.5,,88850.164,8,400,,,
sequence,flow.Sequence,4_14,2023-05-02T17:44:47.457Z,,0,,,2829.8859999992565,completion,,,,,false,,,,88849.09999999963,88848.69999999925,86002.159,86007.69999999925,86018.814,88850.164,8,400,,,
trial,html.Screen,4_15_0,2023-05-02T17:44:49.998Z,,0,1,,2539.3359999999957,response,ISIC_4924690.JPG,,ISIC_2620357.JPG,ISIC_2620357.JPG,false,0,keypress(z),500,91389.80000000075,91389.5,88833.509,88849.19999999925,88850.164,91398.379,8,400,16,,ISIC_4924690.JPG
break,html.Screen,4_15_1,2023-05-02T17:44:49.999Z,,0,,,NaN,,,,,,false,,,,91390.80000000075,91390.5,,91390.09999999963,,91398.379,8,400,,,
break_continue,html.Screen,4_15_2,2023-05-02T17:44:50.000Z,,0,,,NaN,,,,,,false,,,,91391.40000000037,91391.19999999925,,91391,,91398.379,8,400,,,
sequence,flow.Sequence,4_15,2023-05-02T17:44:50.000Z,,0,,,2541.0359999992506,completion,,,,,false,,,,91391.59999999963,91391.19999999925,88833.509,88849.19999999925,88850.164,91398.379,8,400,,,
trial,html.Screen,4_16_0,2023-05-02T17:44:52.696Z,,0,1,,2688.620999999999,response,ISIC_0011628.JPG,,ISIC_0475506.JPG,ISIC_0475506.JPG,false,0,keypress(z),500,94087.40000000037,94087,91381.724,91391.80000000075,91398.379,94096.87,8,400,17,,ISIC_0011628.JPG
break,html.Screen,4_16_1,2023-05-02T17:44:52.697Z,,0,,,NaN,,,,,,false,,,,94088.59999999963,94088.30000000075,,94087.80000000075,,94096.87,8,400,,,
break_continue,html.Screen,4_16_2,2023-05-02T17:44:52.697Z,,0,,,NaN,,,,,,false,,,,94089.09999999963,94088.90000000037,,94088.69999999925,,94096.87,8,400,,,
sequence,flow.Sequence,4_16,2023-05-02T17:44:52.698Z,,0,,,2690.5210000003717,completion,,,,,false,,,,94089.40000000037,94088.90000000037,91381.724,91391.69999999925,91398.379,94096.87,8,400,,,
trial,html.Screen,4_17_0,2023-05-02T17:44:55.295Z,,0,1,,2589.729999999632,response,ISIC_0070651.JPG,,ISIC_0056811.JPG,ISIC_0056811.JPG,false,0,keypress(z),500,96687,96686.59999999963,94080.215,94089.59999999963,94096.87,96695.05,8,400,18,,ISIC_0070651.JPG
break,html.Screen,4_17_1,2023-05-02T17:44:55.296Z,,0,,,NaN,,,,,,false,,,,96688,96687.59999999963,,96687.19999999925,,96695.05,8,400,,,
break_continue,html.Screen,4_17_2,2023-05-02T17:44:55.296Z,,0,,,NaN,,,,,,false,,,,96688.5,96688.30000000075,,96688.09999999963,,96695.05,8,400,,,
sequence,flow.Sequence,4_17,2023-05-02T17:44:55.297Z,,0,,,2591.4300000007497,completion,,,,,false,,,,96688.69999999925,96688.30000000075,94080.215,94089.59999999963,94096.87,96695.05,8,400,,,
trial,html.Screen,4_18_0,2023-05-02T17:44:58.008Z,,0,1,,2704.3500000003696,response,ISIC_0026655.JPG,,ISIC_0056799.JPG,ISIC_0026655.JPG,false,1,keypress(m),500,99399.69999999925,99399.40000000037,96678.395,96688.90000000037,96695.05,99409.815,8,400,19,,ISIC_0056799.JPG
break,html.Screen,4_18_1,2023-05-02T17:44:58.009Z,,0,,,NaN,,,,,,false,,,,99400.80000000075,99400.59999999963,,99400.09999999963,,99409.815,8,400,,,
break_continue,html.Screen,4_18_2,2023-05-02T17:44:58.009Z,,0,,,NaN,,,,,,false,,,,99401.30000000075,99401.09999999963,,99400.90000000037,,99409.815,8,400,,,
sequence,flow.Sequence,4_18,2023-05-02T17:44:58.009Z,,0,,,2706.0499999996246,completion,,,,,false,,,,99401.5,99401.09999999963,96678.395,96688.90000000037,96695.05,99409.815,8,400,,,
trial,html.Screen,4_19_0,2023-05-02T17:45:00.662Z,,0,1,,2643.8849999992526,response,ISIC_2075546.JPG,,ISIC_0068184.JPG,ISIC_0068184.JPG,false,0,keypress(z),500,102054.09999999963,102053.69999999925,99393.16,99401.69999999925,99409.815,102058.341,8,400,20,,ISIC_2075546.JPG
break,html.Screen,4_19_1,2023-05-02T17:45:00.663Z,,0,,,NaN,,,,,,false,,,,102055.09999999963,102054.80000000075,,102054.30000000075,,102058.341,8,400,,,
break_continue,html.Screen,4_19_2,2023-05-02T17:45:00.663Z,,0,,,NaN,,,,,,false,,,,102055.59999999963,102055.40000000037,,102055.19999999925,,102058.341,8,400,,,
sequence,flow.Sequence,4_19,2023-05-02T17:45:00.664Z,,0,,,2645.58500000037,completion,,,,,false,,,,102055.80000000075,102055.40000000037,99393.16,99401.59999999963,99409.815,102058.341,8,400,,,
trial,html.Screen,4_20_0,2023-05-02T17:45:03.407Z,,0,1,,2740.758999999627,response,ISIC_0059976.JPG,,ISIC_0033073.JPG,ISIC_0059976.JPG,false,1,keypress(m),500,104799.5,104799.09999999963,102041.686,102056,102058.341,104806.416,8,400,21,,ISIC_0033073.JPG
break,html.Screen,4_20_1,2023-05-02T17:45:03.408Z,,0,,,NaN,,,,,,false,,,,104800.59999999963,104800.40000000037,,104799.80000000075,,104806.416,8,400,,,
break_continue,html.Screen,4_20_2,2023-05-02T17:45:03.409Z,,0,,,NaN,,,,,,false,,,,104801.09999999963,104800.90000000037,,104800.69999999925,,104806.416,8,400,,,
sequence,flow.Sequence,4_20,2023-05-02T17:45:03.409Z,,0,,,2742.559000000372,completion,,,,,false,,,,104801.19999999925,104800.90000000037,102041.686,102055.90000000037,102058.341,104806.416,8,400,,,
trial,html.Screen,4_21_0,2023-05-02T17:45:06.318Z,,0,1,,2903.8840000007476,response,ISIC_6652978.JPG,,ISIC_0071783.JPG,ISIC_6652978.JPG,false,1,keypress(m),500,107710.59999999963,107710.30000000075,104789.761,104801.30000000075,104806.416,107721.041,8,400,22,,ISIC_0071783.JPG
break,html.Screen,4_21_1,2023-05-02T17:45:06.319Z,,0,,,NaN,,,,,,false,,,,107711.69999999925,107711.40000000037,,107710.90000000037,,107721.041,8,400,,,
break_continue,html.Screen,4_21_2,2023-05-02T17:45:06.320Z,,0,,,NaN,,,,,,false,,,,107712.30000000075,107712,,107711.90000000037,,107721.041,8,400,,,
sequence,flow.Sequence,4_21,2023-05-02T17:45:06.320Z,,0,,,2905.5840000000026,completion,,,,,false,,,,107712.5,107712,104789.761,104801.30000000075,104806.416,107721.041,8,400,,,
trial,html.Screen,4_22_0,2023-05-02T17:45:09.111Z,,0,1,,2782.4590000000026,response,ISIC_0014093.JPG,,ISIC_3649632.JPG,ISIC_3649632.JPG,false,0,keypress(z),500,110503.80000000075,110503.5,107704.386,107712.69999999925,107721.041,110519.081,8,400,23,,ISIC_0014093.JPG
break,html.Screen,4_22_1,2023-05-02T17:45:09.112Z,,0,,,NaN,,,,,,false,,,,110504.40000000037,110504.30000000075,,110504,,110519.081,8,400,,,
break_continue,html.Screen,4_22_2,2023-05-02T17:45:09.112Z,,0,,,NaN,,,,,,false,,,,110504.80000000075,110504.69999999925,,110504.59999999963,,110519.081,8,400,,,
sequence,flow.Sequence,4_22,2023-05-02T17:45:09.112Z,,0,,,2783.6589999992575,completion,,,,,false,,,,110505,110504.69999999925,107704.386,107712.59999999963,107721.041,110519.081,8,400,,,
trial,html.Screen,4_23_0,2023-05-02T17:45:11.812Z,,0,1,,2685.2190000007395,response,ISIC_3601224.JPG,,ISIC_0011505.JPG,ISIC_3601224.JPG,false,1,keypress(m),500,113204.69999999925,113204.30000000075,110502.426,110505.09999999963,110519.081,113217.582,8,400,24,,ISIC_0011505.JPG
break,html.Screen,4_23_1,2023-05-02T17:45:11.813Z,,0,,,NaN,,,,,,false,,,,113205.69999999925,113205.5,,113205,,113217.582,8,400,,,
break_continue,html.Screen,4_23_2,2023-05-02T17:45:11.813Z,,0,,,NaN,,,,,,false,,,,113206.19999999925,113206,,113205.80000000075,,113217.582,8,400,,,
sequence,flow.Sequence,4_23,2023-05-02T17:45:11.814Z,,0,,,2686.9189999999944,completion,,,,,false,,,,113206.5,113206,110502.426,110505,110519.081,113217.582,8,400,,,
trial,html.Screen,4_24_0,2023-05-02T17:45:14.735Z,,0,1,,2909.71800000075,response,ISIC_1115013.JPG,,ISIC_0998962.JPG,ISIC_0998962.JPG,false,0,keypress(z),500,116127.69999999925,116127.30000000075,113200.927,113206.59999999963,113217.582,116132.207,8,400,25,,ISIC_1115013.JPG
break,html.Screen,4_24_1,2023-05-02T17:45:14.736Z,,0,,,NaN,,,,,,false,,,,116128.80000000075,116128.5,,116128.09999999963,,116132.207,8,400,,,
break_continue,html.Screen,4_24_2,2023-05-02T17:45:14.736Z,,0,,,NaN,,,,,,false,,,,116129.30000000075,116129.19999999925,,116129,,116132.207,8,400,,,
sequence,flow.Sequence,4_24,2023-05-02T17:45:14.737Z,,0,,,2911.61799999926,completion,,,,,false,,,,116129.59999999963,116129.19999999925,113200.927,113206.59999999963,113217.582,116132.207,8,400,,,
trial,html.Screen,4_25_0,2023-05-02T17:45:17.284Z,,0,1,,2544.3929999996326,response,ISIC_7860137.JPG,,ISIC_0010227.JPG,ISIC_7860137.JPG,false,1,keypress(m),500,118677,118676.59999999963,116115.552,116129.69999999925,116132.207,118680.422,8,400,26,,ISIC_0010227.JPG
break,html.Screen,4_25_1,2023-05-02T17:45:17.285Z,,0,,,NaN,,,,,,false,,,,118678.09999999963,118677.90000000037,,118677.40000000037,,118680.422,8,400,,,
break_continue,html.Screen,4_25_2,2023-05-02T17:45:17.286Z,,0,,,NaN,,,,,,false,,,,118678.69999999925,118678.5,,118678.30000000075,,118680.422,8,400,,,
sequence,flow.Sequence,4_25,2023-05-02T17:45:17.286Z,,0,,,2546.293000000005,completion,,,,,false,,,,118678.90000000037,118678.5,116115.552,116129.69999999925,116132.207,118680.422,8,400,,,
trial,html.Screen,4_26_0,2023-05-02T17:45:19.829Z,,0,1,,2541.277999999249,response,ISIC_0028173.JPG,,ISIC_0067274.JPG,ISIC_0067274.JPG,false,0,keypress(z),500,121222,121221.69999999925,118663.767,118679,118680.422,121228.637,8,400,27,,ISIC_0028173.JPG
break,html.Screen,4_26_1,2023-05-02T17:45:19.830Z,,0,,,NaN,,,,,,false,,,,121223.09999999963,121222.80000000075,,121222.30000000075,,121228.637,8,400,,,
break_continue,html.Screen,4_26_2,2023-05-02T17:45:19.830Z,,0,,,NaN,,,,,,false,,,,121223.5,121223.40000000037,,121223.19999999925,,121228.637,8,400,,,
sequence,flow.Sequence,4_26,2023-05-02T17:45:19.831Z,,0,,,2542.9780000003666,completion,,,,,false,,,,121223.80000000075,121223.40000000037,118663.767,118679,118680.422,121228.637,8,400,,,
trial,html.Screen,4_27_0,2023-05-02T17:45:22.461Z,,0,1,,2625.6630000007426,response,ISIC_5502342.JPG,,ISIC_4738636.JPG,ISIC_4738636.JPG,false,0,keypress(z),500,123854.59999999963,123854.30000000075,121211.982,121224,121228.637,123860.511,8,400,28,,ISIC_5502342.JPG
break,html.Screen,4_27_1,2023-05-02T17:45:22.462Z,,0,,,NaN,,,,,,false,,,,123855.69999999925,123855.5,,123854.90000000037,,123860.511,8,400,,,
break_continue,html.Screen,4_27_2,2023-05-02T17:45:22.463Z,,0,,,NaN,,,,,,false,,,,123856.19999999925,123856.09999999963,,123855.80000000075,,123860.511,8,400,,,
sequence,flow.Sequence,4_27,2023-05-02T17:45:22.463Z,,0,,,2627.462999999625,completion,,,,,false,,,,123856.40000000037,123856.09999999963,121211.982,121223.90000000037,121228.637,123860.511,8,400,,,
trial,html.Screen,4_28_0,2023-05-02T17:45:25.094Z,,0,1,,2626.1889999992563,response,ISIC_6023504.JPG,,ISIC_0063742.JPG,ISIC_6023504.JPG,false,1,keypress(m),500,126487,126486.69999999925,123843.856,123856.59999999963,123860.511,126492.001,8,400,29,,ISIC_0063742.JPG
break,html.Screen,4_28_1,2023-05-02T17:45:25.094Z,,0,,,NaN,,,,,,false,,,,126487.90000000037,126487.5,,126487.19999999925,,126492.001,8,400,,,
break_continue,html.Screen,4_28_2,2023-05-02T17:45:25.095Z,,0,,,NaN,,,,,,false,,,,126488.19999999925,126488.09999999963,,126488,,126492.001,8,400,,,
sequence,flow.Sequence,4_28,2023-05-02T17:45:25.095Z,,0,,,2627.588999999629,completion,,,,,false,,,,126488.5,126488.09999999963,123843.856,123856.59999999963,123860.511,126492.001,8,400,,,
trial,html.Screen,4_29_0,2023-05-02T17:45:27.613Z,,0,1,,2514.0989999996236,response,ISIC_0070447.JPG,,ISIC_0012049.JPG,ISIC_0070447.JPG,false,1,keypress(m),500,129006.30000000075,129006.09999999963,126475.346,126488.59999999963,126492.001,129023.561,8,400,30,,ISIC_0012049.JPG
break,html.Screen,4_29_1,2023-05-02T17:45:27.613Z,,0,,,NaN,,,,,,false,,,,129007,129006.80000000075,,129006.5,,129023.561,8,400,,,
break_continue,html.Screen,4_29_2,2023-05-02T17:45:27.614Z,,0,,,NaN,,,,,,false,,,,129007.40000000037,129007.30000000075,,129007.09999999963,,129023.561,8,400,,,
sequence,flow.Sequence,4_29,2023-05-02T17:45:27.614Z,,0,,,2515.299000000741,completion,,,,,false,,,,129007.5,129007.30000000075,126475.346,126488.59999999963,126492.001,129023.561,8,400,,,
trial,html.Screen,4_30_0,2023-05-02T17:45:30.259Z,,0,1,,2629.1389999992534,response,ISIC_0013232.JPG,,ISIC_0026694.JPG,ISIC_0013232.JPG,false,1,keypress(m),500,131653,131652.69999999925,129006.906,129007.69999999925,129023.561,131655.051,8,400,31,,ISIC_0026694.JPG
break,html.Screen,4_30_1,2023-05-02T17:45:30.260Z,,0,,,NaN,,,,,,false,,,,131654,131653.69999999925,,131653.30000000075,,131655.051,8,400,,,
break_continue,html.Screen,4_30_2,2023-05-02T17:45:30.261Z,,0,,,NaN,,,,,,false,,,,131654.5,131654.40000000037,,131654.19999999925,,131655.051,8,400,,,
sequence,flow.Sequence,4_30,2023-05-02T17:45:30.261Z,,0,,,2630.839000000371,completion,,,,,false,,,,131654.69999999925,131654.40000000037,129006.906,129007.59999999963,129023.561,131655.051,8,400,,,
trial,html.Screen,4_31_0,2023-05-02T17:45:32.829Z,,0,1,,2567.5489999996207,response,ISIC_0071678.JPG,,ISIC_0014133.JPG,ISIC_0014133.JPG,false,0,keypress(z),500,134223,134222.59999999963,131638.396,131654.90000000037,131655.051,134236.967,8,400,32,,ISIC_0071678.JPG
break,html.Screen,4_31_1,2023-05-02T17:45:32.830Z,,0,,,NaN,,,,,,false,,,,134224,134223.69999999925,,134223.30000000075,,134236.967,8,400,,,
break_continue,html.Screen,4_31_2,2023-05-02T17:45:32.831Z,,0,,,NaN,,,,,,false,,,,134224.5,134224.30000000075,,134224.19999999925,,134236.967,8,400,,,
sequence,flow.Sequence,4_31,2023-05-02T17:45:32.831Z,,0,,,2569.2490000007383,completion,,,,,false,,,,134224.69999999925,134224.30000000075,131638.396,131654.80000000075,131655.051,134236.967,8,400,,,
trial,html.Screen,4_32_0,2023-05-02T17:45:35.532Z,,0,1,,2688.9330000003683,response,ISIC_7765349.JPG,,ISIC_0000420.JPG,ISIC_0000420.JPG,false,0,keypress(z),500,136926.30000000075,136925.90000000037,134220.312,134224.90000000037,134236.967,136935.077,8,400,33,,ISIC_7765349.JPG
break,html.Screen,4_32_1,2023-05-02T17:45:35.533Z,,0,,,NaN,,,,,,false,,,,136927.30000000075,136927,,136926.5,,136935.077,8,400,,,
break_continue,html.Screen,4_32_2,2023-05-02T17:45:35.534Z,,0,,,NaN,,,,,,false,,,,136927.90000000037,136927.69999999925,,136927.5,,136935.077,8,400,,,
sequence,flow.Sequence,4_32,2023-05-02T17:45:35.534Z,,0,,,2690.7329999992508,completion,,,,,false,,,,136928,136927.69999999925,134220.312,134224.80000000075,134236.967,136935.077,8,400,,,
trial,html.Screen,4_33_0,2023-05-02T17:45:38.100Z,,0,1,,2559.223000000755,response,ISIC_0072612.JPG,,ISIC_0033232.JPG,ISIC_0033232.JPG,false,0,keypress(z),500,139494.5,139494.30000000075,136918.422,136928.30000000075,136935.077,139499.947,8,400,34,,ISIC_0072612.JPG
break,html.Screen,4_33_1,2023-05-02T17:45:38.101Z,,0,,,NaN,,,,,,false,,,,139495.19999999925,139495.09999999963,,139494.59999999963,,139499.947,8,400,,,
break_continue,html.Screen,4_33_2,2023-05-02T17:45:38.101Z,,0,,,NaN,,,,,,false,,,,139495.40000000037,139495.40000000037,,139495.30000000075,,139499.947,8,400,,,
sequence,flow.Sequence,4_33,2023-05-02T17:45:38.101Z,,0,,,2560.3230000003823,completion,,,,,false,,,,139495.5,139495.40000000037,136918.422,136928.19999999925,136935.077,139499.947,8,400,,,
trial,html.Screen,4_34_0,2023-05-02T17:45:40.723Z,,0,1,,2616.453000000387,response,ISIC_0072612.JPG,,ISIC_0034202.JPG,ISIC_0072612.JPG,false,1,keypress(m),500,142116.69999999925,142116.40000000037,139483.292,139495.69999999925,139499.947,142131.437,8,400,35,,ISIC_0034202.JPG
break,html.Screen,4_34_1,2023-05-02T17:45:40.724Z,,0,,,NaN,,,,,,false,,,,142117.80000000075,142117.5,,142117.09999999963,,142131.437,8,400,,,
break_continue,html.Screen,4_34_2,2023-05-02T17:45:40.724Z,,0,,,NaN,,,,,,false,,,,142118.30000000075,142118.09999999963,,142118,,142131.437,8,400,,,
sequence,flow.Sequence,4_34,2023-05-02T17:45:40.724Z,,0,,,2618.152999999642,completion,,,,,false,,,,142118.5,142118.09999999963,139483.292,139495.59999999963,139499.947,142131.437,8,400,,,
trial,html.Screen,4_35_0,2023-05-02T17:45:43.603Z,,0,1,,2865.2629999992496,response,ISIC_6663112.JPG,,ISIC_2161819.JPG,ISIC_6663112.JPG,false,1,keypress(m),500,144997,144996.69999999925,142114.782,142118.69999999925,142131.437,145013.145,8,400,36,,ISIC_2161819.JPG
break,html.Screen,4_35_1,2023-05-02T17:45:43.604Z,,0,,,NaN,,,,,,false,,,,144998,144997.80000000075,,144997.30000000075,,145013.145,8,400,,,
break_continue,html.Screen,4_35_2,2023-05-02T17:45:43.604Z,,0,,,NaN,,,,,,false,,,,144998.59999999963,144998.40000000037,,144998.19999999925,,145013.145,8,400,,,
sequence,flow.Sequence,4_35,2023-05-02T17:45:43.604Z,,0,,,2866.963000000367,completion,,,,,false,,,,144998.80000000075,144998.40000000037,142114.782,142118.69999999925,142131.437,145013.145,8,400,,,
trial,html.Screen,4_36_0,2023-05-02T17:45:47.005Z,,0,1,,3386.1550000007555,response,ISIC_0012150.JPG,,ISIC_0000167.JPG,ISIC_0012150.JPG,false,1,keypress(m),500,148399.40000000037,148399.30000000075,144996.49,144999,145013.145,148410.765,8,400,37,,ISIC_0000167.JPG
break,html.Screen,4_36_1,2023-05-02T17:45:47.005Z,,0,,,NaN,,,,,,false,,,,148399.80000000075,148399.69999999925,,148399.59999999963,,148410.765,8,400,,,
break_continue,html.Screen,4_36_2,2023-05-02T17:45:47.006Z,,0,,,NaN,,,,,,false,,,,148400,148400,,148399.90000000037,,148410.765,8,400,,,
sequence,flow.Sequence,4_36,2023-05-02T17:45:47.006Z,,0,,,3386.8550000000105,completion,,,,,false,,,,148400,148400,144996.49,144998.90000000037,145013.145,148410.765,8,400,,,
trial,html.Screen,4_37_0,2023-05-02T17:45:49.867Z,,0,1,,2850.3349999996135,response,ISIC_7057495.JPG,,ISIC_8002729.JPG,ISIC_8002729.JPG,false,0,keypress(z),500,151261.59999999963,151261.09999999963,148394.11,148400.09999999963,148410.765,151275.425,8,400,38,,ISIC_7057495.JPG
break,html.Screen,4_37_1,2023-05-02T17:45:49.868Z,,0,,,NaN,,,,,,false,,,,151263,151262.5,,151262,,151275.425,8,400,,,
break_continue,html.Screen,4_37_2,2023-05-02T17:45:49.869Z,,0,,,NaN,,,,,,false,,,,151263.80000000075,151263.40000000037,,151263.30000000075,,151275.425,8,400,,,
sequence,flow.Sequence,4_37,2023-05-02T17:45:49.870Z,,0,,,2852.6350000003586,completion,,,,,false,,,,151264.19999999925,151263.40000000037,148394.11,148400.09999999963,148410.765,151275.425,8,400,,,
trial,html.Screen,4_38_0,2023-05-02T17:45:52.882Z,,0,1,,3000.8750000007567,response,ISIC_9063429.JPG,,ISIC_9544832.JPG,ISIC_9063429.JPG,false,1,keypress(m),500,154276.69999999925,154276.30000000075,151258.77,151264.40000000037,151275.425,154290.38,8,400,39,,ISIC_9544832.JPG
break,html.Screen,4_38_1,2023-05-02T17:45:52.883Z,,0,,,NaN,,,,,,false,,,,154277.80000000075,154277.5,,154277,,154290.38,8,400,,,
break_continue,html.Screen,4_38_2,2023-05-02T17:45:52.883Z,,0,,,NaN,,,,,,false,,,,154278.30000000075,154278.09999999963,,154278,,154290.38,8,400,,,
sequence,flow.Sequence,4_38,2023-05-02T17:45:52.884Z,,0,,,3002.674999999639,completion,,,,,false,,,,154278.5,154278.09999999963,151258.77,151264.30000000075,151275.425,154290.38,8,400,,,
trial,html.Screen,4_39_0,2023-05-02T17:45:56.476Z,,0,1,,3580.6199999999953,response,ISIC_0001875.JPG,,ISIC_0032771.JPG,ISIC_0001875.JPG,false,1,keypress(m),500,157871.40000000037,157871,154273.725,154278.59999999963,154290.38,157887.86,8,400,40,,ISIC_0032771.JPG
break,html.Screen,4_39_1,2023-05-02T17:45:56.478Z,,0,,,NaN,,,,,,false,,,,157872.5,157872.09999999963,,157871.69999999925,,157887.86,8,400,,,
break_continue,html.Screen,4_39_2,2023-05-02T17:45:56.478Z,,0,,,NaN,,,,,,false,,,,157872.90000000037,157872.80000000075,,157872.59999999963,,157887.86,8,400,,,
sequence,flow.Sequence,4_39,2023-05-02T17:45:56.478Z,,0,,,3582.4200000007404,completion,,,,,false,,,,157873.19999999925,157872.80000000075,154273.725,154278.59999999963,154290.38,157887.86,8,400,,,
trial,html.Screen,4_40_0,2023-05-02T17:45:59.179Z,,0,1,,2685.940000000759,response,ISIC_0032494.JPG,,ISIC_1178518.JPG,ISIC_0032494.JPG,false,1,keypress(m),500,160574.30000000075,160573.80000000075,157871.205,157873.40000000037,157887.86,160585.97,8,400,41,,ISIC_1178518.JPG
break,html.Screen,4_40_1,2023-05-02T17:45:59.180Z,,0,,,NaN,,,,,,false,,,,160575.40000000037,160575.09999999963,,160574.69999999925,,160585.97,8,400,,,
break_continue,html.Screen,4_40_2,2023-05-02T17:45:59.181Z,,0,,,NaN,,,,,,false,,,,160575.90000000037,160575.69999999925,,160575.59999999963,,160585.97,8,400,,,
sequence,flow.Sequence,4_40,2023-05-02T17:45:59.181Z,,0,,,2687.839999999269,completion,,,,,false,,,,160576.09999999963,160575.69999999925,157871.205,157873.19999999925,157887.86,160585.97,8,400,,,
trial,html.Screen,4_41_0,2023-05-02T17:46:01.834Z,,0,1,,2643.1299999996263,response,ISIC_0563533.JPG,,ISIC_0011289.JPG,ISIC_0563533.JPG,false,1,keypress(m),500,163229.5,163229.09999999963,160569.315,160576.30000000075,160585.97,163234.115,8,400,42,,ISIC_0011289.JPG
break,html.Screen,4_41_1,2023-05-02T17:46:01.835Z,,0,,,NaN,,,,,,false,,,,163230.5,163230.30000000075,,163229.80000000075,,163234.115,8,400,,,
break_continue,html.Screen,4_41_2,2023-05-02T17:46:01.836Z,,0,,,NaN,,,,,,false,,,,163231.09999999963,163230.80000000075,,163230.69999999925,,163234.115,8,400,,,
sequence,flow.Sequence,4_41,2023-05-02T17:46:01.836Z,,0,,,2644.830000000744,completion,,,,,false,,,,163231.30000000075,163230.80000000075,160569.315,160576.30000000075,160585.97,163234.115,8,400,,,
trial,html.Screen,4_42_0,2023-05-02T17:46:04.580Z,,0,1,,2740.6850000007544,response,ISIC_0056788.JPG,,ISIC_0031074.JPG,ISIC_0031074.JPG,false,0,keypress(z),500,165975.40000000037,165974.80000000075,163217.46,163231.5,163234.115,165982.582,8,400,43,,ISIC_0056788.JPG
break,html.Screen,4_42_1,2023-05-02T17:46:04.581Z,,0,,,NaN,,,,,,false,,,,165976.59999999963,165976.30000000075,,165975.80000000075,,165982.582,8,400,,,
break_continue,html.Screen,4_42_2,2023-05-02T17:46:04.582Z,,0,,,NaN,,,,,,false,,,,165977.09999999963,165976.90000000037,,165976.80000000075,,165982.582,8,400,,,
sequence,flow.Sequence,4_42,2023-05-02T17:46:04.582Z,,0,,,2742.785000000382,completion,,,,,false,,,,165977.5,165976.90000000037,163217.46,163231.40000000037,163234.115,165982.582,8,400,,,
trial,html.Screen,4_43_0,2023-05-02T17:46:07.497Z,,0,1,,2910.0179999996326,response,ISIC_7544537.JPG,,ISIC_2489504.JPG,ISIC_7544537.JPG,false,1,keypress(m),500,168892.90000000037,168892.59999999963,165965.927,165977.59999999963,165982.582,168897.207,8,400,44,,ISIC_2489504.JPG
break,html.Screen,4_43_1,2023-05-02T17:46:07.499Z,,0,,,NaN,,,,,,false,,,,168894.09999999963,168893.69999999925,,168893.30000000075,,168897.207,8,400,,,
break_continue,html.Screen,4_43_2,2023-05-02T17:46:07.499Z,,0,,,NaN,,,,,,false,,,,168894.59999999963,168894.40000000037,,168894.40000000037,,168897.207,8,400,,,
sequence,flow.Sequence,4_43,2023-05-02T17:46:07.499Z,,0,,,2911.8180000003777,completion,,,,,false,,,,168894.80000000075,168894.40000000037,165965.927,165977.59999999963,165982.582,168897.207,8,400,,,
trial,html.Screen,4_44_0,2023-05-02T17:46:10.091Z,,0,1,,2589.49299999926,response,ISIC_0009991.JPG,,ISIC_0046504.JPG,ISIC_0009991.JPG,false,1,keypress(m),500,171486.90000000037,171486.69999999925,168880.552,168895,168897.207,171495.387,8,400,45,,ISIC_0046504.JPG
break,html.Screen,4_44_1,2023-05-02T17:46:10.092Z,,0,,,NaN,,,,,,false,,,,171487.5,171487.40000000037,,171487,,171495.387,8,400,,,
break_continue,html.Screen,4_44_2,2023-05-02T17:46:10.092Z,,0,,,NaN,,,,,,false,,,,171487.80000000075,171487.69999999925,,171487.59999999963,,171495.387,8,400,,,
sequence,flow.Sequence,4_44,2023-05-02T17:46:10.092Z,,0,,,2590.49299999926,completion,,,,,false,,,,171488,171487.69999999925,168880.552,168894.90000000037,168897.207,171495.387,8,400,,,
trial,html.Screen,4_45_0,2023-05-02T17:46:12.465Z,,0,1,,2365.0130000003846,response,ISIC_0030732.JPG,,ISIC_0054874.JPG,ISIC_0030732.JPG,false,1,keypress(m),500,173860.69999999925,173860.40000000037,171478.732,171488,171495.387,173877.052,8,400,46,,ISIC_0054874.JPG
break,html.Screen,4_45_1,2023-05-02T17:46:12.466Z,,0,,,NaN,,,,,,false,,,,173861.69999999925,173861.40000000037,,173861,,173877.052,8,400,,,
break_continue,html.Screen,4_45_2,2023-05-02T17:46:12.466Z,,0,,,NaN,,,,,,false,,,,173862.09999999963,173862,,173861.80000000075,,173877.052,8,400,,,
sequence,flow.Sequence,4_45,2023-05-02T17:46:12.467Z,,0,,,2366.613000000012,completion,,,,,false,,,,173862.30000000075,173862,171478.732,171488,171495.387,173877.052,8,400,,,
trial,html.Screen,4_46_0,2023-05-02T17:46:15.052Z,,0,1,,2570.0479999996314,response,ISIC_0027901.JPG,,ISIC_0027089.JPG,ISIC_0027901.JPG,false,1,keypress(m),500,176447.5,176447.09999999963,173860.397,173862.5,173877.052,176458.976,8,400,47,,ISIC_0027089.JPG
break,html.Screen,4_46_1,2023-05-02T17:46:15.053Z,,0,,,NaN,,,,,,false,,,,176448.80000000075,176448.30000000075,,176447.90000000037,,176458.976,8,400,,,
break_continue,html.Screen,4_46_2,2023-05-02T17:46:15.054Z,,0,,,NaN,,,,,,false,,,,176449.5,176449.19999999925,,176449,,176458.976,8,400,,,
sequence,flow.Sequence,4_46,2023-05-02T17:46:15.054Z,,0,,,2572.147999999259,completion,,,,,false,,,,176449.69999999925,176449.19999999925,173860.397,173862.5,173877.052,176458.976,8,400,,,
trial,html.Screen,4_47_0,2023-05-02T17:46:17.690Z,,0,1,,2626.524000000005,response,ISIC_0024779.JPG,,ISIC_0011517.JPG,ISIC_0024779.JPG,false,1,keypress(m),500,179085.80000000075,179085.5,176442.321,176449.90000000037,176458.976,179090.466,8,400,48,,ISIC_0011517.JPG
break,html.Screen,4_47_1,2023-05-02T17:46:17.691Z,,0,,,NaN,,,,,,false,,,,179086.90000000037,179086.59999999963,,179086.09999999963,,179090.466,8,400,,,
break_continue,html.Screen,4_47_2,2023-05-02T17:46:17.691Z,,0,,,NaN,,,,,,false,,,,179087.30000000075,179087.19999999925,,179087.09999999963,,179090.466,8,400,,,
sequence,flow.Sequence,4_47,2023-05-02T17:46:17.692Z,,0,,,2628.22399999926,completion,,,,,false,,,,179087.59999999963,179087.19999999925,176442.321,176449.80000000075,176458.976,179090.466,8,400,,,
trial,html.Screen,4_48_0,2023-05-02T17:46:20.345Z,,0,1,,2649.8340000007593,response,ISIC_1735204.JPG,,ISIC_0064692.JPG,ISIC_1735204.JPG,false,1,keypress(m),500,181740.69999999925,181740.30000000075,179073.811,179087.69999999925,179090.466,181755.266,8,400,49,,ISIC_0064692.JPG
break,html.Screen,4_48_1,2023-05-02T17:46:20.346Z,,0,,,NaN,,,,,,false,,,,181741.80000000075,181741.40000000037,,181741,,181755.266,8,400,,,
break_continue,html.Screen,4_48_2,2023-05-02T17:46:20.346Z,,0,,,NaN,,,,,,false,,,,181742.19999999925,181742,,181741.90000000037,,181755.266,8,400,,,
sequence,flow.Sequence,4_48,2023-05-02T17:46:20.346Z,,0,,,2651.534000000014,completion,,,,,false,,,,181742.40000000037,181742,179073.811,179087.69999999925,179090.466,181755.266,8,400,,,
trial,html.Screen,4_49_0,2023-05-02T17:46:22.993Z,,0,1,,2633.2339999999967,response,ISIC_9476244.JPG,,ISIC_0082348.JPG,ISIC_0082348.JPG,false,0,keypress(z),500,184389,184388.5,181738.611,181742.59999999963,181755.266,184403.411,8,400,50,,ISIC_9476244.JPG
break,html.Screen,4_49_1,2023-05-02T17:46:27.992Z,,0,,,4996.5,timeout,,,,,false,,,,189388.69999999925,189383.256,184386.756,184389.40000000037,184403.411,189399.911,8,400,,,
break_continue,html.Screen,4_49_2,2023-05-02T17:46:29.474Z,,0,,,1459.4890000003797,response,,,,,false,continue,keypress(Space),,190870.30000000075,190859.40000000037,189383.256,189388.90000000037,189399.911,190882.206,8,400,,,
sequence,flow.Sequence,4_49,2023-05-02T17:46:29.474Z,,0,,,9104.13400000037,completion,,,,,false,,,,190870.5,190859.40000000037,181738.611,181742.5,181755.266,190882.206,8,400,,,
trial,html.Screen,4_50_0,2023-05-02T17:46:33.056Z,,0,2,,3570.0940000007395,response,ISIC_0004728.JPG,,ISIC_0031626.JPG,ISIC_0004728.JPG,false,1,keypress(m),500,194452.69999999925,194452.30000000075,190865.551,190870.59999999963,190882.206,194463.031,8,400,1,,ISIC_0031626.JPG
break,html.Screen,4_50_1,2023-05-02T17:46:33.057Z,,0,,,NaN,,,,,,false,,,,194453.69999999925,194453.40000000037,,194453,,194463.031,8,400,,,
break_continue,html.Screen,4_50_2,2023-05-02T17:46:33.057Z,,0,,,NaN,,,,,,false,,,,194454.19999999925,194454,,194453.80000000075,,194463.031,8,400,,,
sequence,flow.Sequence,4_50,2023-05-02T17:46:33.058Z,,0,,,3571.7939999999944,completion,,,,,false,,,,194454.59999999963,194454,190865.551,190870.59999999963,190882.206,194463.031,8,400,,,
trial,html.Screen,4_51_0,2023-05-02T17:46:35.883Z,,0,2,,2815.969000000012,response,ISIC_6652978.JPG,,ISIC_5951430.JPG,ISIC_6652978.JPG,false,1,keypress(m),500,197279.40000000037,197279,194446.376,194454.80000000075,194463.031,197295.154,8,400,2,,ISIC_5951430.JPG
break,html.Screen,4_51_1,2023-05-02T17:46:35.884Z,,0,,,NaN,,,,,,false,,,,197280.59999999963,197280.30000000075,,197279.80000000075,,197295.154,8,400,,,
break_continue,html.Screen,4_51_2,2023-05-02T17:46:35.884Z,,0,,,NaN,,,,,,false,,,,197281,197280.90000000037,,197280.69999999925,,197295.154,8,400,,,
sequence,flow.Sequence,4_51,2023-05-02T17:46:35.884Z,,0,,,2817.8690000003844,completion,,,,,false,,,,197281.30000000075,197280.90000000037,194446.376,194454.80000000075,194463.031,197295.154,8,400,,,
trial,html.Screen,4_52_0,2023-05-02T17:46:38.472Z,,0,2,,2573.246000000363,response,ISIC_8451869.JPG,,ISIC_0031626.JPG,ISIC_8451869.JPG,false,1,keypress(m),500,199868.80000000075,199868.40000000037,197278.499,197281.40000000037,197295.154,199876.679,8,400,3,,ISIC_0031626.JPG
break,html.Screen,4_52_1,2023-05-02T17:46:38.473Z,,0,,,NaN,,,,,,false,,,,199869.80000000075,199869.5,,199869,,199876.679,8,400,,,
break_continue,html.Screen,4_52_2,2023-05-02T17:46:38.473Z,,0,,,NaN,,,,,,false,,,,199870.19999999925,199870.09999999963,,199869.90000000037,,199876.679,8,400,,,
sequence,flow.Sequence,4_52,2023-05-02T17:46:38.473Z,,0,,,2574.945999999618,completion,,,,,false,,,,199870.40000000037,199870.09999999963,197278.499,197281.40000000037,197295.154,199876.679,8,400,,,
trial,html.Screen,4_53_0,2023-05-02T17:46:44.232Z,,0,2,,5752.420999999624,response,ISIC_0024853.JPG,,ISIC_0012151.JPG,ISIC_0012151.JPG,false,0,keypress(z),500,205629.40000000037,205629.09999999963,199860.024,199870.59999999963,199876.679,205639.309,8,400,4,,ISIC_0024853.JPG
break,html.Screen,4_53_1,2023-05-02T17:46:44.233Z,,0,,,NaN,,,,,,false,,,,205629.80000000075,205629.59999999963,,205629.5,,205639.309,8,400,,,
break_continue,html.Screen,4_53_2,2023-05-02T17:46:44.233Z,,0,,,NaN,,,,,,false,,,,205629.90000000037,205629.90000000037,,205629.80000000075,,205639.309,8,400,,,
sequence,flow.Sequence,4_53,2023-05-02T17:46:44.233Z,,0,,,5753.221000000369,completion,,,,,false,,,,205630,205629.90000000037,199860.024,199870.59999999963,199876.679,205639.309,8,400,,,
trial,html.Screen,4_54_0,2023-05-02T17:46:47.330Z,,0,2,,3087.290999999619,response,ISIC_0063046.JPG,,ISIC_7666224.JPG,ISIC_7666224.JPG,false,0,keypress(z),500,208726.90000000037,208726.59999999963,205622.654,205630,205639.309,208737.521,8,400,5,,ISIC_0063046.JPG
break,html.Screen,4_54_1,2023-05-02T17:46:47.331Z,,0,,,NaN,,,,,,false,,,,208728.09999999963,208727.80000000075,,208727.40000000037,,208737.521,8,400,,,
break_continue,html.Screen,4_54_2,2023-05-02T17:46:47.331Z,,0,,,NaN,,,,,,false,,,,208728.59999999963,208728.40000000037,,208728.30000000075,,208737.521,8,400,,,
sequence,flow.Sequence,4_54,2023-05-02T17:46:47.331Z,,0,,,3089.091000000364,completion,,,,,false,,,,208728.80000000075,208728.40000000037,205622.654,205630,205639.309,208737.521,8,400,,,
trial,html.Screen,4_55_0,2023-05-02T17:46:49.914Z,,0,2,,2573.5789999996196,response,ISIC_0032419.JPG,,ISIC_0001104.JPG,ISIC_0032419.JPG,false,1,keypress(m),500,211311.5,211311.09999999963,208720.866,208729,208737.521,211319.046,8,400,6,,ISIC_0001104.JPG
break,html.Screen,4_55_1,2023-05-02T17:46:49.915Z,,0,,,NaN,,,,,,false,,,,211312.40000000037,211312.19999999925,,211311.69999999925,,211319.046,8,400,,,
break_continue,html.Screen,4_55_2,2023-05-02T17:46:49.915Z,,0,,,NaN,,,,,,false,,,,211313,211312.80000000075,,211312.69999999925,,211319.046,8,400,,,
sequence,flow.Sequence,4_55,2023-05-02T17:46:49.916Z,,0,,,2575.279000000737,completion,,,,,false,,,,211313.09999999963,211312.80000000075,208720.866,208728.90000000037,208737.521,211319.046,8,400,,,
trial,html.Screen,4_56_0,2023-05-02T17:46:52.215Z,,0,2,,2293.653999999253,response,ISIC_0030817.JPG,,ISIC_0009939.JPG,ISIC_0030817.JPG,false,1,keypress(m),500,213613,213612.69999999925,211302.391,211313.40000000037,211319.046,213634.091,8,400,7,,ISIC_0009939.JPG
break,html.Screen,4_56_1,2023-05-02T17:46:52.216Z,,0,,,NaN,,,,,,false,,,,213614,213613.69999999925,,213613.30000000075,,213634.091,8,400,,,
break_continue,html.Screen,4_56_2,2023-05-02T17:46:52.217Z,,0,,,NaN,,,,,,false,,,,213614.40000000037,213614.30000000075,,213614.19999999925,,213634.091,8,400,,,
sequence,flow.Sequence,4_56,2023-05-02T17:46:52.217Z,,0,,,2295.254000000743,completion,,,,,false,,,,213614.69999999925,213614.30000000075,211302.391,211313.30000000075,211319.046,213634.091,8,400,,,
trial,html.Screen,4_57_0,2023-05-02T17:46:54.607Z,,0,2,,2370.409000000014,response,ISIC_0061108.JPG,,ISIC_4231346.JPG,ISIC_0061108.JPG,false,1,keypress(m),500,216005,216004.5,213617.436,213614.80000000075,213634.091,216015.756,8,400,8,,ISIC_4231346.JPG
break,html.Screen,4_57_1,2023-05-02T17:46:54.608Z,,0,,,NaN,,,,,,false,,,,216006,216005.69999999925,,216005.30000000075,,216015.756,8,400,,,
break_continue,html.Screen,4_57_2,2023-05-02T17:46:54.609Z,,0,,,NaN,,,,,,false,,,,216006.40000000037,216006.30000000075,,216006.09999999963,,216015.756,8,400,,,
sequence,flow.Sequence,4_57,2023-05-02T17:46:54.609Z,,0,,,2372.2090000007593,completion,,,,,false,,,,216006.69999999925,216006.30000000075,213617.436,213614.80000000075,213634.091,216015.756,8,400,,,
trial,html.Screen,4_58_0,2023-05-02T17:46:56.799Z,,0,2,,2180.6440000003786,response,ISIC_0032419.JPG,,ISIC_0645454.JPG,ISIC_0645454.JPG,false,0,keypress(z),500,218196.80000000075,218196.40000000037,215999.101,216006.80000000075,216015.756,218214.605,8,400,9,,ISIC_0032419.JPG
break,html.Screen,4_58_1,2023-05-02T17:46:56.800Z,,0,,,NaN,,,,,,false,,,,218198.09999999963,218197.80000000075,,218197.30000000075,,218214.605,8,400,,,
break_continue,html.Screen,4_58_2,2023-05-02T17:46:56.801Z,,0,,,NaN,,,,,,false,,,,218198.69999999925,218198.5,,218198.30000000075,,218214.605,8,400,,,
sequence,flow.Sequence,4_58,2023-05-02T17:46:56.801Z,,0,,,2182.744000000006,completion,,,,,false,,,,218198.90000000037,218198.5,215999.101,216006.69999999925,216015.756,218214.605,8,400,,,
trial,html.Screen,4_59_0,2023-05-02T17:46:59.449Z,,0,2,,2631.795000000362,response,ISIC_7107030.JPG,,ISIC_3067522.JPG,ISIC_3067522.JPG,false,0,keypress(z),500,220846.69999999925,220846.40000000037,218197.95,218199.09999999963,218214.605,220862.75,8,400,10,,ISIC_7107030.JPG
break,html.Screen,4_59_1,2023-05-02T17:46:59.450Z,,0,,,NaN,,,,,,false,,,,220847.69999999925,220847.5,,220847,,220862.75,8,400,,,
break_continue,html.Screen,4_59_2,2023-05-02T17:46:59.450Z,,0,,,NaN,,,,,,false,,,,220848.19999999925,220848,,220847.90000000037,,220862.75,8,400,,,
sequence,flow.Sequence,4_59,2023-05-02T17:46:59.451Z,,0,,,2633.3949999999895,completion,,,,,false,,,,220848.5,220848,218197.95,218199,218214.605,220862.75,8,400,,,
trial,html.Screen,4_60_0,2023-05-02T17:47:02.079Z,,0,2,,2613.8499999996275,response,ISIC_0068477.JPG,,ISIC_5005869.JPG,ISIC_5005869.JPG,false,0,keypress(z),500,223477.09999999963,223476.59999999963,220846.095,220848.69999999925,220862.75,223494.24,8,400,11,,ISIC_0068477.JPG
break,html.Screen,4_60_1,2023-05-02T17:47:02.080Z,,0,,,NaN,,,,,,false,,,,223478.5,223478.09999999963,,223477.69999999925,,223494.24,8,400,,,
break_continue,html.Screen,4_60_2,2023-05-02T17:47:02.081Z,,0,,,NaN,,,,,,false,,,,223479.09999999963,223478.90000000037,,223478.80000000075,,223494.24,8,400,,,
sequence,flow.Sequence,4_60,2023-05-02T17:47:02.081Z,,0,,,2616.1500000003725,completion,,,,,false,,,,223479.40000000037,223478.90000000037,220846.095,220848.69999999925,220862.75,223494.24,8,400,,,
trial,html.Screen,4_61_0,2023-05-02T17:47:04.127Z,,0,2,,2030.4599999992643,response,ISIC_0010145.JPG,,ISIC_1330008.JPG,ISIC_0010145.JPG,false,1,keypress(m),500,225525.09999999963,225524.69999999925,223477.585,223479.59999999963,223494.24,225542.805,8,400,12,,ISIC_1330008.JPG
break,html.Screen,4_61_1,2023-05-02T17:47:04.128Z,,0,,,NaN,,,,,,false,,,,225526.19999999925,225525.90000000037,,225525.5,,225542.805,8,400,,,
break_continue,html.Screen,4_61_2,2023-05-02T17:47:04.129Z,,0,,,NaN,,,,,,false,,,,225526.69999999925,225526.59999999963,,225526.40000000037,,225542.805,8,400,,,
sequence,flow.Sequence,4_61,2023-05-02T17:47:04.129Z,,0,,,2032.3599999996368,completion,,,,,false,,,,225526.90000000037,225526.59999999963,223477.585,223479.5,223494.24,225542.805,8,400,,,
trial,html.Screen,4_62_0,2023-05-02T17:47:06.559Z,,0,2,,2413.894999999262,response,ISIC_0024256.JPG,,ISIC_8356468.JPG,ISIC_0024256.JPG,false,1,keypress(m),500,227957.09999999963,227956.69999999925,225526.15,225527.09999999963,225542.805,227974.83,8,400,13,,ISIC_8356468.JPG
break,html.Screen,4_62_1,2023-05-02T17:47:06.560Z,,0,,,NaN,,,,,,false,,,,227958.09999999963,227957.80000000075,,227957.40000000037,,227974.83,8,400,,,
break_continue,html.Screen,4_62_2,2023-05-02T17:47:06.560Z,,0,,,NaN,,,,,,false,,,,227958.5,227958.40000000037,,227958.30000000075,,227974.83,8,400,,,
sequence,flow.Sequence,4_62,2023-05-02T17:47:06.560Z,,0,,,2415.5950000003795,completion,,,,,false,,,,227958.80000000075,227958.40000000037,225526.15,225527.09999999963,225542.805,227974.83,8,400,,,
trial,html.Screen,4_63_0,2023-05-02T17:47:09.102Z,,0,2,,2525.470000000758,response,ISIC_8106899.JPG,,ISIC_0026039.JPG,ISIC_0026039.JPG,false,0,keypress(z),500,230500.69999999925,230500.30000000075,227958.175,227959,227974.83,230523.045,8,400,14,,ISIC_8106899.JPG
break,html.Screen,4_63_1,2023-05-02T17:47:09.103Z,,0,,,NaN,,,,,,false,,,,230501.59999999963,230501.40000000037,,230500.90000000037,,230523.045,8,400,,,
break_continue,html.Screen,4_63_2,2023-05-02T17:47:09.104Z,,0,,,NaN,,,,,,false,,,,230502,230501.90000000037,,230501.80000000075,,230523.045,8,400,,,
sequence,flow.Sequence,4_63,2023-05-02T17:47:09.104Z,,0,,,2527.0700000003853,completion,,,,,false,,,,230502.30000000075,230501.90000000037,227958.175,227958.90000000037,227974.83,230523.045,8,400,,,
trial,html.Screen,4_64_0,2023-05-02T17:47:11.426Z,,0,2,,2301.3550000003597,response,ISIC_7180096.JPG,,ISIC_1863917.JPG,ISIC_7180096.JPG,false,1,keypress(m),500,232824.80000000075,232824.40000000037,230506.39,230502.5,230523.045,232854.745,8,400,15,,ISIC_1863917.JPG
break,html.Screen,4_64_1,2023-05-02T17:47:11.427Z,,0,,,NaN,,,,,,false,,,,232825.69999999925,232825.40000000037,,232825,,232854.745,8,400,,,
break_continue,html.Screen,4_64_2,2023-05-02T17:47:11.428Z,,0,,,NaN,,,,,,false,,,,232826.19999999925,232826,,232825.90000000037,,232854.745,8,400,,,
sequence,flow.Sequence,4_64,2023-05-02T17:47:11.428Z,,0,,,2302.954999999987,completion,,,,,false,,,,232826.30000000075,232826,230506.39,230502.40000000037,230523.045,232854.745,8,400,,,
trial,html.Screen,4_65_0,2023-05-02T17:47:13.800Z,,0,2,,2343.5550000007497,response,ISIC_0030003.JPG,,ISIC_7666224.JPG,ISIC_0030003.JPG,false,1,keypress(m),500,235198.69999999925,235198.30000000075,232838.09,232826.5,232854.745,235203.1,8,400,16,,ISIC_7666224.JPG
break,html.Screen,4_65_1,2023-05-02T17:47:13.802Z,,0,,,NaN,,,,,,false,,,,235200.09999999963,235199.59999999963,,235199.09999999963,,235203.1,8,400,,,
break_continue,html.Screen,4_65_2,2023-05-02T17:47:13.802Z,,0,,,NaN,,,,,,false,,,,235200.80000000075,235200.69999999925,,235200.40000000037,,235203.1,8,400,,,
sequence,flow.Sequence,4_65,2023-05-02T17:47:13.802Z,,0,,,2345.9549999992596,completion,,,,,false,,,,235201.09999999963,235200.69999999925,232838.09,232826.5,232854.745,235203.1,8,400,,,
trial,html.Screen,4_66_0,2023-05-02T17:47:16.462Z,,0,2,,2657.399999999994,response,ISIC_0032152.JPG,,ISIC_0060707.JPG,ISIC_0060707.JPG,false,0,keypress(z),500,237860.80000000075,237860.5,235186.445,235201.19999999925,235203.1,237868.281,8,400,17,,ISIC_0032152.JPG
break,html.Screen,4_66_1,2023-05-02T17:47:16.463Z,,0,,,NaN,,,,,,false,,,,237861.80000000075,237861.5,,237861.09999999963,,237868.281,8,400,,,
break_continue,html.Screen,4_66_2,2023-05-02T17:47:16.464Z,,0,,,NaN,,,,,,false,,,,237862.30000000075,237862.09999999963,,237862,,237868.281,8,400,,,
sequence,flow.Sequence,4_66,2023-05-02T17:47:16.464Z,,0,,,2658.9999999996217,completion,,,,,false,,,,237862.5,237862.09999999963,235186.445,235201.09999999963,235203.1,237868.281,8,400,,,
trial,html.Screen,4_67_0,2023-05-02T17:47:18.760Z,,0,2,,2290.6190000003844,response,ISIC_0546980.JPG,,ISIC_3256887.JPG,ISIC_3256887.JPG,false,0,keypress(z),500,240159.30000000075,240158.90000000037,237851.626,237862.69999999925,237868.281,240183.326,8,400,18,,ISIC_0546980.JPG
break,html.Screen,4_67_1,2023-05-02T17:47:18.761Z,,0,,,NaN,,,,,,false,,,,240160.19999999925,240160,,240159.59999999963,,240183.326,8,400,,,
break_continue,html.Screen,4_67_2,2023-05-02T17:47:18.762Z,,0,,,NaN,,,,,,false,,,,240160.69999999925,240160.5,,240160.40000000037,,240183.326,8,400,,,
sequence,flow.Sequence,4_67,2023-05-02T17:47:18.762Z,,0,,,2292.219000000012,completion,,,,,false,,,,240160.90000000037,240160.5,237851.626,237862.69999999925,237868.281,240183.326,8,400,,,
trial,html.Screen,4_68_0,2023-05-02T17:47:21.009Z,,0,2,,2224.173999999999,response,ISIC_0033099.JPG,,ISIC_0465476.JPG,ISIC_0465476.JPG,false,0,keypress(z),500,242407.90000000037,242407.5,240166.671,240161,240183.326,242415.096,8,400,19,,ISIC_0033099.JPG
break,html.Screen,4_68_1,2023-05-02T17:47:21.010Z,,0,,,NaN,,,,,,false,,,,242409.19999999925,242408.90000000037,,242408.30000000075,,242415.096,8,400,,,
break_continue,html.Screen,4_68_2,2023-05-02T17:47:21.011Z,,0,,,NaN,,,,,,false,,,,242409.80000000075,242409.59999999963,,242409.5,,242415.096,8,400,,,
sequence,flow.Sequence,4_68,2023-05-02T17:47:21.011Z,,0,,,2226.2739999996265,completion,,,,,false,,,,242410,242409.59999999963,240166.671,240161,240183.326,242415.096,8,400,,,
trial,html.Screen,4_69_0,2023-05-02T17:47:23.254Z,,0,2,,2237.6039999992645,response,ISIC_0000292.JPG,,ISIC_0002119.JPG,ISIC_0002119.JPG,false,0,keypress(z),500,244653,244652.69999999925,242398.441,242410.30000000075,242415.096,244663.521,8,400,20,,ISIC_0000292.JPG
break,html.Screen,4_69_1,2023-05-02T17:47:23.255Z,,0,,,NaN,,,,,,false,,,,244654.09999999963,244653.80000000075,,244653.30000000075,,244663.521,8,400,,,
break_continue,html.Screen,4_69_2,2023-05-02T17:47:23.255Z,,0,,,NaN,,,,,,false,,,,244654.5,244654.40000000037,,244654.19999999925,,244663.521,8,400,,,
sequence,flow.Sequence,4_69,2023-05-02T17:47:23.256Z,,0,,,2239.304000000382,completion,,,,,false,,,,244654.90000000037,244654.40000000037,242398.441,242410.19999999925,242415.096,244663.521,8,400,,,
trial,html.Screen,4_70_0,2023-05-02T17:47:26.400Z,,0,2,,3135.779000000737,response,ISIC_7806612.JPG,,ISIC_0199116.JPG,ISIC_7806612.JPG,false,1,keypress(m),500,247799.59999999963,247799.30000000075,244646.866,244655.09999999963,244663.521,247811.715,8,400,21,,ISIC_0199116.JPG
break,html.Screen,4_70_1,2023-05-02T17:47:26.404Z,,0,,,NaN,,,,,,false,,,,247803.69999999925,247803.40000000037,,247800.09999999963,,247811.715,8,400,,,
break_continue,html.Screen,4_70_2,2023-05-02T17:47:26.405Z,,0,,,NaN,,,,,,false,,,,247804.69999999925,247804.30000000075,,247804.19999999925,,247811.715,8,400,,,
sequence,flow.Sequence,4_70,2023-05-02T17:47:26.406Z,,0,,,3140.779000000737,completion,,,,,false,,,,247805.09999999963,247804.30000000075,244646.866,244655,244663.521,247811.715,8,400,,,
trial,html.Screen,4_71_0,2023-05-02T17:47:28.545Z,,0,2,,2131.884999999631,response,ISIC_0004907.JPG,,ISIC_3045939.JPG,ISIC_0004907.JPG,false,1,keypress(m),500,249944,249943.59999999963,247795.06,247805.19999999925,247811.715,249960.21,8,400,22,,ISIC_3045939.JPG
break,html.Screen,4_71_1,2023-05-02T17:47:28.546Z,,0,,,NaN,,,,,,false,,,,249944.90000000037,249944.69999999925,,249944.19999999925,,249960.21,8,400,,,
break_continue,html.Screen,4_71_2,2023-05-02T17:47:28.546Z,,0,,,NaN,,,,,,false,,,,249945.69999999925,249945.40000000037,,249945.19999999925,,249960.21,8,400,,,
sequence,flow.Sequence,4_71,2023-05-02T17:47:28.547Z,,0,,,2133.685000000376,completion,,,,,false,,,,249946,249945.40000000037,247795.06,247805.19999999925,247811.715,249960.21,8,400,,,
trial,html.Screen,4_72_0,2023-05-02T17:47:30.824Z,,0,2,,2262.6900000003807,response,ISIC_0067412.JPG,,ISIC_0011039.JPG,ISIC_0067412.JPG,false,1,keypress(m),500,252223.19999999925,252222.90000000037,249943.555,249946.19999999925,249960.21,252225.29,8,400,23,,ISIC_0011039.JPG
break,html.Screen,4_72_1,2023-05-02T17:47:30.825Z,,0,,,NaN,,,,,,false,,,,252224.19999999925,252223.90000000037,,252223.5,,252225.29,8,400,,,
break_continue,html.Screen,4_72_2,2023-05-02T17:47:30.825Z,,0,,,NaN,,,,,,false,,,,252224.69999999925,252224.5,,252224.30000000075,,252225.29,8,400,,,
sequence,flow.Sequence,4_72,2023-05-02T17:47:30.825Z,,0,,,2264.290000000008,completion,,,,,false,,,,252224.80000000075,252224.5,249943.555,249946.19999999925,249960.21,252225.29,8,400,,,
trial,html.Screen,4_73_0,2023-05-02T17:47:33.703Z,,0,2,,2877.010000000737,response,ISIC_0011422.JPG,,ISIC_0024516.JPG,ISIC_0011422.JPG,false,1,keypress(m),500,255102.59999999963,255102.30000000075,252208.635,252225,252225.29,255106.605,8,400,24,,ISIC_0024516.JPG
break,html.Screen,4_73_1,2023-05-02T17:47:33.704Z,,0,,,NaN,,,,,,false,,,,255103.59999999963,255103.30000000075,,255102.90000000037,,255106.605,8,400,,,
break_continue,html.Screen,4_73_2,2023-05-02T17:47:33.704Z,,0,,,NaN,,,,,,false,,,,255104,255103.90000000037,,255103.80000000075,,255106.605,8,400,,,
sequence,flow.Sequence,4_73,2023-05-02T17:47:33.705Z,,0,,,2878.6100000003644,completion,,,,,false,,,,255104.30000000075,255103.90000000037,252208.635,252225,252225.29,255106.605,8,400,,,
trial,html.Screen,4_74_0,2023-05-02T17:47:36.448Z,,0,2,,2740.994999999617,response,ISIC_0030156.JPG,,ISIC_0060091.JPG,ISIC_0030156.JPG,false,1,keypress(m),500,257848.19999999925,257847.59999999963,255089.95,255104.5,255106.605,257855.057,8,400,25,,ISIC_0060091.JPG
break,html.Screen,4_74_1,2023-05-02T17:47:36.450Z,,0,,,NaN,,,,,,false,,,,257849.30000000075,257849,,257848.59999999963,,257855.057,8,400,,,
break_continue,html.Screen,4_74_2,2023-05-02T17:47:36.450Z,,0,,,NaN,,,,,,false,,,,257849.90000000037,257849.80000000075,,257849.59999999963,,257855.057,8,400,,,
sequence,flow.Sequence,4_74,2023-05-02T17:47:36.450Z,,0,,,2743.1950000007346,completion,,,,,false,,,,257850.09999999963,257849.80000000075,255089.95,255104.5,255106.605,257855.057,8,400,,,
trial,html.Screen,4_75_0,2023-05-02T17:47:38.733Z,,0,2,,2277.2430000007444,response,ISIC_7797853.JPG,,ISIC_0067609.JPG,ISIC_0067609.JPG,false,0,keypress(z),500,260132.59999999963,260132.30000000075,257838.402,257850.30000000075,257855.057,260153.447,8,400,26,,ISIC_7797853.JPG
break,html.Screen,4_75_1,2023-05-02T17:47:38.734Z,,0,,,NaN,,,,,,false,,,,260133.59999999963,260133.30000000075,,260132.90000000037,,260153.447,8,400,,,
break_continue,html.Screen,4_75_2,2023-05-02T17:47:38.734Z,,0,,,NaN,,,,,,false,,,,260134,260133.90000000037,,260133.80000000075,,260153.447,8,400,,,
sequence,flow.Sequence,4_75,2023-05-02T17:47:38.734Z,,0,,,2278.843000000372,completion,,,,,false,,,,260134.30000000075,260133.90000000037,257838.402,257850.19999999925,257855.057,260153.447,8,400,,,
trial,html.Screen,4_76_0,2023-05-02T17:47:41.037Z,,0,2,,2283.3530000007595,response,ISIC_3430447.JPG,,ISIC_2757355.JPG,ISIC_2757355.JPG,false,0,keypress(z),500,262437.19999999925,262436.80000000075,260136.792,260134.5,260153.447,262451.837,8,400,27,,ISIC_3430447.JPG
break,html.Screen,4_76_1,2023-05-02T17:47:41.038Z,,0,,,NaN,,,,,,false,,,,262438.30000000075,262438,,262437.5,,262451.837,8,400,,,
break_continue,html.Screen,4_76_2,2023-05-02T17:47:41.039Z,,0,,,NaN,,,,,,false,,,,262438.80000000075,262438.69999999925,,262438.5,,262451.837,8,400,,,
sequence,flow.Sequence,4_76,2023-05-02T17:47:41.039Z,,0,,,2285.2529999992694,completion,,,,,false,,,,262439.0999999996,262438.69999999925,260136.792,260134.40000000037,260153.447,262451.837,8,400,,,
trial,html.Screen,4_77_0,2023-05-02T17:47:44.631Z,,0,2,,3579.063000000373,response,ISIC_0013766.JPG,,ISIC_8760203.JPG,ISIC_8760203.JPG,false,0,keypress(z),500,266031.4000000004,266030.9000000004,262435.182,262439.30000000075,262451.837,266049.317,8,400,28,,ISIC_0013766.JPG
break,html.Screen,4_77_1,2023-05-02T17:47:44.632Z,,0,,,NaN,,,,,,false,,,,266032.4000000004,266032.0999999996,,266031.5999999996,,266049.317,8,400,,,
break_continue,html.Screen,4_77_2,2023-05-02T17:47:44.633Z,,0,,,NaN,,,,,,false,,,,266032.80000000075,266032.69999999925,,266032.5,,266049.317,8,400,,,
sequence,flow.Sequence,4_77,2023-05-02T17:47:44.633Z,,0,,,3580.8629999992554,completion,,,,,false,,,,266033.0999999996,266032.69999999925,262435.182,262439.30000000075,262451.837,266049.317,8,400,,,
trial,html.Screen,4_78_0,2023-05-02T17:47:47.040Z,,0,2,,2390.483000000764,response,ISIC_0012883.JPG,,ISIC_7748311.JPG,ISIC_7748311.JPG,false,0,keypress(z),500,268440.19999999925,268439.80000000075,266032.662,266033.30000000075,266049.317,268448.018,8,400,29,,ISIC_0012883.JPG
break,html.Screen,4_78_1,2023-05-02T17:47:47.041Z,,0,,,NaN,,,,,,false,,,,268441.30000000075,268440.9000000004,,268440.5,,268448.018,8,400,,,
break_continue,html.Screen,4_78_2,2023-05-02T17:47:47.042Z,,0,,,NaN,,,,,,false,,,,268441.80000000075,268441.69999999925,,268441.4000000004,,268448.018,8,400,,,
sequence,flow.Sequence,4_78,2023-05-02T17:47:47.042Z,,0,,,2392.382999999274,completion,,,,,false,,,,268442,268441.69999999925,266032.662,266033.19999999925,266049.317,268448.018,8,400,,,
trial,html.Screen,4_79_0,2023-05-02T17:47:49.783Z,,0,2,,2735.181999999273,response,ISIC_0922552.JPG,,ISIC_3436139.JPG,ISIC_3436139.JPG,false,0,keypress(z),500,271183.5,271183.19999999925,268431.363,268442.19999999925,268448.018,271196.093,8,400,30,,ISIC_0922552.JPG
break,html.Screen,4_79_1,2023-05-02T17:47:49.784Z,,0,,,NaN,,,,,,false,,,,271184.5999999996,271184.4000000004,,271183.9000000004,,271196.093,8,400,,,
break_continue,html.Screen,4_79_2,2023-05-02T17:47:49.785Z,,0,,,NaN,,,,,,false,,,,271185.0999999996,271185,,271184.80000000075,,271196.093,8,400,,,
sequence,flow.Sequence,4_79,2023-05-02T17:47:49.785Z,,0,,,2736.982000000018,completion,,,,,false,,,,271185.30000000075,271185,268431.363,268442.19999999925,268448.018,271196.093,8,400,,,
trial,html.Screen,4_80_0,2023-05-02T17:47:52.204Z,,0,2,,2408.2070000007516,response,ISIC_0057026.JPG,,ISIC_0030484.JPG,ISIC_0057026.JPG,false,1,keypress(m),500,273604.5999999996,273604.30000000075,271179.438,271185.4000000004,271196.093,273611.068,8,400,31,,ISIC_0030484.JPG
break,html.Screen,4_80_1,2023-05-02T17:47:52.205Z,,0,,,NaN,,,,,,false,,,,273605.69999999925,273605.30000000075,,273604.9000000004,,273611.068,8,400,,,
break_continue,html.Screen,4_80_2,2023-05-02T17:47:52.206Z,,0,,,NaN,,,,,,false,,,,273606.0999999996,273606,,273605.9000000004,,273611.068,8,400,,,
sequence,flow.Sequence,4_80,2023-05-02T17:47:52.206Z,,0,,,2409.9070000000065,completion,,,,,false,,,,273606.4000000004,273606,271179.438,271185.4000000004,271196.093,273611.068,8,400,,,
trial,html.Screen,4_81_0,2023-05-02T17:47:54.215Z,,0,2,,2003.9319999999716,response,ISIC_4708642.JPG,,ISIC_0005319.JPG,ISIC_4708642.JPG,false,1,keypress(m),500,275615.19999999925,275615,273594.413,273606.5,273611.068,275626.323,8,400,32,,ISIC_0005319.JPG
break,html.Screen,4_81_1,2023-05-02T17:47:54.216Z,,0,,,NaN,,,,,,false,,,,275616.30000000075,275616.0999999996,,275615.5,,275626.323,8,400,,,
break_continue,html.Screen,4_81_2,2023-05-02T17:47:54.216Z,,0,,,NaN,,,,,,false,,,,275616.80000000075,275616.69999999925,,275616.5,,275626.323,8,400,,,
sequence,flow.Sequence,4_81,2023-05-02T17:47:54.216Z,,0,,,2005.6319999992265,completion,,,,,false,,,,275617.0999999996,275616.69999999925,273594.413,273606.5,273611.068,275626.323,8,400,,,
trial,html.Screen,4_82_0,2023-05-02T17:47:56.191Z,,0,2,,1964.1770000000251,response,ISIC_2518672.JPG,,ISIC_7961365.JPG,ISIC_2518672.JPG,false,1,keypress(m),500,277591.4000000004,277590.5,275609.668,275617.19999999925,275626.323,277608.268,8,400,33,,ISIC_7961365.JPG
break,html.Screen,4_82_1,2023-05-02T17:47:56.192Z,,0,,,NaN,,,,,,false,,,,277592.5999999996,277592.30000000075,,277591.80000000075,,277608.268,8,400,,,
break_continue,html.Screen,4_82_2,2023-05-02T17:47:56.192Z,,0,,,NaN,,,,,,false,,,,277593,277592.9000000004,,277592.69999999925,,277608.268,8,400,,,
sequence,flow.Sequence,4_82,2023-05-02T17:47:56.193Z,,0,,,1966.5770000003977,completion,,,,,false,,,,277593.30000000075,277592.9000000004,275609.668,275617.19999999925,275626.323,277608.268,8,400,,,
trial,html.Screen,4_83_0,2023-05-02T17:47:58.605Z,,0,2,,2397.3319999996456,response,ISIC_0011305.JPG,,ISIC_5546488.JPG,ISIC_5546488.JPG,false,0,keypress(z),500,280006,280005.5999999996,277591.613,277593.5,277608.268,280023.622,8,400,34,,ISIC_0011305.JPG
break,html.Screen,4_83_1,2023-05-02T17:47:58.606Z,,0,,,NaN,,,,,,false,,,,280007,280006.69999999925,,280006.19999999925,,280023.622,8,400,,,
break_continue,html.Screen,4_83_2,2023-05-02T17:47:58.607Z,,0,,,NaN,,,,,,false,,,,280007.5,280007.30000000075,,280007.19999999925,,280023.622,8,400,,,
sequence,flow.Sequence,4_83,2023-05-02T17:47:58.607Z,,0,,,2399.032000000763,completion,,,,,false,,,,280007.69999999925,280007.30000000075,277591.613,277593.5,277608.268,280023.622,8,400,,,
trial,html.Screen,4_84_0,2023-05-02T17:48:00.935Z,,0,2,,2311.7780000003986,response,ISIC_0062114.JPG,,ISIC_9197665.JPG,ISIC_9197665.JPG,false,0,keypress(z),500,282335.80000000075,282335.4000000004,280006.967,280007.80000000075,280023.622,282338.667,8,400,35,,ISIC_0062114.JPG
break,html.Screen,4_84_1,2023-05-02T17:48:00.936Z,,0,,,NaN,,,,,,false,,,,282336.9000000004,282336.5999999996,,282336.19999999925,,282338.667,8,400,,,
break_continue,html.Screen,4_84_2,2023-05-02T17:48:00.936Z,,0,,,NaN,,,,,,false,,,,282337.30000000075,282337.19999999925,,282337.0999999996,,282338.667,8,400,,,
sequence,flow.Sequence,4_84,2023-05-02T17:48:00.937Z,,0,,,2313.577999999281,completion,,,,,false,,,,282337.5999999996,282337.19999999925,280006.967,280007.80000000075,280023.622,282338.667,8,400,,,
trial,html.Screen,4_85_0,2023-05-02T17:48:03.632Z,,0,2,,2693.7330000003567,response,ISIC_0032873.JPG,,ISIC_6188574.JPG,ISIC_6188574.JPG,false,0,keypress(z),500,285032.69999999925,285032.4000000004,282322.012,282337.69999999925,282338.667,285036.777,8,400,36,,ISIC_0032873.JPG
break,html.Screen,4_85_1,2023-05-02T17:48:03.633Z,,0,,,NaN,,,,,,false,,,,285034,285033.69999999925,,285033.0999999996,,285036.777,8,400,,,
break_continue,html.Screen,4_85_2,2023-05-02T17:48:03.633Z,,0,,,NaN,,,,,,false,,,,285034.5,285034.4000000004,,285034.19999999925,,285036.777,8,400,,,
sequence,flow.Sequence,4_85,2023-05-02T17:48:03.634Z,,0,,,2695.7330000003567,completion,,,,,false,,,,285034.80000000075,285034.4000000004,282322.012,282337.69999999925,282338.667,285036.777,8,400,,,
trial,html.Screen,4_86_0,2023-05-02T17:48:06.107Z,,0,2,,2471.523000000743,response,ISIC_2704046.JPG,,ISIC_7766007.JPG,ISIC_7766007.JPG,false,0,keypress(z),500,287508.5999999996,287508.30000000075,285020.122,285034.9000000004,285036.777,287518.372,8,400,37,,ISIC_2704046.JPG
break,html.Screen,4_86_1,2023-05-02T17:48:06.108Z,,0,,,NaN,,,,,,false,,,,287509.5999999996,287509.4000000004,,287508.9000000004,,287518.372,8,400,,,
break_continue,html.Screen,4_86_2,2023-05-02T17:48:06.109Z,,0,,,NaN,,,,,,false,,,,287510.19999999925,287509.9000000004,,287509.80000000075,,287518.372,8,400,,,
sequence,flow.Sequence,4_86,2023-05-02T17:48:06.109Z,,0,,,2473.1230000003707,completion,,,,,false,,,,287510.4000000004,287509.9000000004,285020.122,285034.80000000075,285036.777,287518.372,8,400,,,
trial,html.Screen,4_87_0,2023-05-02T17:48:08.700Z,,0,2,,2582.2279999996535,response,ISIC_5258657.JPG,,ISIC_8853902.JPG,ISIC_8853902.JPG,false,0,keypress(z),500,290101.0999999996,290100.5999999996,287501.717,287510.5999999996,287518.372,290116.96,8,400,38,,ISIC_5258657.JPG
break,html.Screen,4_87_1,2023-05-02T17:48:08.701Z,,0,,,NaN,,,,,,false,,,,290102.30000000075,290102,,290101.5,,290116.96,8,400,,,
break_continue,html.Screen,4_87_2,2023-05-02T17:48:08.702Z,,0,,,NaN,,,,,,false,,,,290102.9000000004,290102.69999999925,,290102.5,,290116.96,8,400,,,
sequence,flow.Sequence,4_87,2023-05-02T17:48:08.702Z,,0,,,2584.327999999281,completion,,,,,false,,,,290103.19999999925,290102.69999999925,287501.717,287510.5,287518.372,290116.96,8,400,,,
trial,html.Screen,4_88_0,2023-05-02T17:48:11.238Z,,0,2,,2522.4400000003516,response,ISIC_0063871.JPG,,ISIC_0016161.JPG,ISIC_0016161.JPG,false,0,keypress(z),500,292639.69999999925,292639.4000000004,290100.305,290103.19999999925,290116.96,292648.52,8,400,39,,ISIC_0063871.JPG
break,html.Screen,4_88_1,2023-05-02T17:48:11.239Z,,0,,,NaN,,,,,,false,,,,292640.80000000075,292640.5,,292640.0999999996,,292648.52,8,400,,,
break_continue,html.Screen,4_88_2,2023-05-02T17:48:11.240Z,,0,,,NaN,,,,,,false,,,,292641.30000000075,292641.19999999925,,292641,,292648.52,8,400,,,
sequence,flow.Sequence,4_88,2023-05-02T17:48:11.240Z,,0,,,2524.239999999234,completion,,,,,false,,,,292641.5999999996,292641.19999999925,290100.305,290103.19999999925,290116.96,292648.52,8,400,,,
trial,html.Screen,4_89_0,2023-05-02T17:48:13.717Z,,0,2,,2469.7800000007264,response,ISIC_0065278.JPG,,ISIC_0033393.JPG,ISIC_0033393.JPG,false,0,keypress(z),500,295118.69999999925,295118.30000000075,292631.865,292641.69999999925,292648.52,295130.115,8,400,40,,ISIC_0065278.JPG
break,html.Screen,4_89_1,2023-05-02T17:48:13.718Z,,0,,,NaN,,,,,,false,,,,295119.5999999996,295119.30000000075,,295118.9000000004,,295130.115,8,400,,,
break_continue,html.Screen,4_89_2,2023-05-02T17:48:13.719Z,,0,,,NaN,,,,,,false,,,,295120.0999999996,295119.9000000004,,295119.80000000075,,295130.115,8,400,,,
sequence,flow.Sequence,4_89,2023-05-02T17:48:13.719Z,,0,,,2471.380000000354,completion,,,,,false,,,,295120.30000000075,295119.9000000004,292631.865,292641.5999999996,292648.52,295130.115,8,400,,,
trial,html.Screen,4_90_0,2023-05-02T17:48:16.091Z,,0,2,,2362.3850000000093,response,ISIC_0066740.JPG,,ISIC_0024266.JPG,ISIC_0024266.JPG,false,0,keypress(z),500,297493,297492.5,295113.46,295120.5,295130.115,297511.78,8,400,41,,ISIC_0066740.JPG
break,html.Screen,4_90_1,2023-05-02T17:48:16.092Z,,0,,,NaN,,,,,,false,,,,297494,297493.69999999925,,297493.30000000075,,297511.78,8,400,,,
break_continue,html.Screen,4_90_2,2023-05-02T17:48:16.093Z,,0,,,NaN,,,,,,false,,,,297494.5,297494.30000000075,,297494.19999999925,,297511.78,8,400,,,
sequence,flow.Sequence,4_90,2023-05-02T17:48:16.093Z,,0,,,2364.1850000007544,completion,,,,,false,,,,297494.69999999925,297494.30000000075,295113.46,295120.5,295130.115,297511.78,8,400,,,
trial,html.Screen,4_91_0,2023-05-02T17:48:18.502Z,,0,2,,2391.3199999995995,response,ISIC_8578732.JPG,,ISIC_7614221.JPG,ISIC_7614221.JPG,false,0,keypress(z),500,299903.4000000004,299903.0999999996,297495.125,297494.9000000004,297511.78,299910.494,8,400,42,,ISIC_8578732.JPG
break,html.Screen,4_91_1,2023-05-02T17:48:18.503Z,,0,,,NaN,,,,,,false,,,,299904.4000000004,299904.19999999925,,299903.69999999925,,299910.494,8,400,,,
break_continue,html.Screen,4_91_2,2023-05-02T17:48:18.503Z,,0,,,NaN,,,,,,false,,,,299904.9000000004,299904.69999999925,,299904.5999999996,,299910.494,8,400,,,
sequence,flow.Sequence,4_91,2023-05-02T17:48:18.503Z,,0,,,2392.919999999227,completion,,,,,false,,,,299905.0999999996,299904.69999999925,297495.125,297494.80000000075,297511.78,299910.494,8,400,,,
trial,html.Screen,4_92_0,2023-05-02T17:48:20.516Z,,0,2,,2006.9060000003665,response,ISIC_8357415.JPG,,ISIC_7563949.JPG,ISIC_7563949.JPG,false,0,keypress(z),500,301917.69999999925,301917.4000000004,299893.839,299905.19999999925,299910.494,301925.749,8,400,43,,ISIC_8357415.JPG
break,html.Screen,4_92_1,2023-05-02T17:48:20.517Z,,0,,,NaN,,,,,,false,,,,301918.9000000004,301918.5,,301918,,301925.749,8,400,,,
break_continue,html.Screen,4_92_2,2023-05-02T17:48:20.518Z,,0,,,NaN,,,,,,false,,,,301919.5,301919.4000000004,,301919.0999999996,,301925.749,8,400,,,
sequence,flow.Sequence,4_92,2023-05-02T17:48:20.518Z,,0,,,2008.9060000003665,completion,,,,,false,,,,301919.69999999925,301919.4000000004,299893.839,299905.19999999925,299910.494,301925.749,8,400,,,
trial,html.Screen,4_93_0,2023-05-02T17:48:24.452Z,,0,2,,3927.7509999999893,response,ISIC_0002349.JPG,,ISIC_4362713.JPG,ISIC_4362713.JPG,false,0,keypress(z),500,305853.80000000075,305853.5,301909.094,301919.80000000075,301925.749,305856.329,8,400,44,,ISIC_0002349.JPG
break,html.Screen,4_93_1,2023-05-02T17:48:24.453Z,,0,,,NaN,,,,,,false,,,,305854.80000000075,305854.5999999996,,305854.0999999996,,305856.329,8,400,,,
break_continue,html.Screen,4_93_2,2023-05-02T17:48:24.453Z,,0,,,NaN,,,,,,false,,,,305855.30000000075,305855.0999999996,,305855,,305856.329,8,400,,,
sequence,flow.Sequence,4_93,2023-05-02T17:48:24.454Z,,0,,,3929.3509999996168,completion,,,,,false,,,,305855.5,305855.0999999996,301909.094,301919.80000000075,301925.749,305856.329,8,400,,,
trial,html.Screen,4_94_0,2023-05-02T17:48:26.787Z,,0,2,,2332.170999999973,response,ISIC_2911251.JPG,,ISIC_2638895.JPG,ISIC_2638895.JPG,false,0,keypress(z),500,308188.5999999996,308188.5,305839.674,305855.5999999996,305856.329,308204.684,8,400,45,,ISIC_2911251.JPG
break,html.Screen,4_94_1,2023-05-02T17:48:26.787Z,,0,,,NaN,,,,,,false,,,,308189.0999999996,308189,,308188.69999999925,,308204.684,8,400,,,
break_continue,html.Screen,4_94_2,2023-05-02T17:48:26.787Z,,0,,,NaN,,,,,,false,,,,308189.30000000075,308189.19999999925,,308189.0999999996,,308204.684,8,400,,,
sequence,flow.Sequence,4_94,2023-05-02T17:48:26.787Z,,0,,,2332.870999999228,completion,,,,,false,,,,308189.4000000004,308189.19999999925,305839.674,305855.5999999996,305856.329,308204.684,8,400,,,
trial,html.Screen,4_95_0,2023-05-02T17:48:30.388Z,,0,2,,3585.0159999992466,response,ISIC_9034574.JPG,,ISIC_6066292.JPG,ISIC_6066292.JPG,false,0,keypress(z),500,311790.0999999996,311789.69999999925,308188.029,308189.4000000004,308204.684,311802.547,8,400,46,,ISIC_9034574.JPG
break,html.Screen,4_95_1,2023-05-02T17:48:30.389Z,,0,,,NaN,,,,,,false,,,,311791.19999999925,311790.80000000075,,311790.4000000004,,311802.547,8,400,,,
break_continue,html.Screen,4_95_2,2023-05-02T17:48:30.389Z,,0,,,NaN,,,,,,false,,,,311791.5999999996,311791.4000000004,,311791.30000000075,,311802.547,8,400,,,
sequence,flow.Sequence,4_95,2023-05-02T17:48:30.390Z,,0,,,3586.716000000364,completion,,,,,false,,,,311791.9000000004,311791.4000000004,308188.029,308189.4000000004,308204.684,311802.547,8,400,,,
trial,html.Screen,4_96_0,2023-05-02T17:48:35.140Z,,0,2,,4739.753000000725,response,ISIC_0004691.JPG,,ISIC_1795529.JPG,ISIC_0004691.JPG,false,1,keypress(m),500,316542.5999999996,316542.30000000075,311785.892,311792.80000000075,311802.547,316549.222,8,400,47,,ISIC_1795529.JPG
break,html.Screen,4_96_1,2023-05-02T17:48:35.141Z,,0,,,NaN,,,,,,false,,,,316543.5999999996,316543.30000000075,,316542.9000000004,,316549.222,8,400,,,
break_continue,html.Screen,4_96_2,2023-05-02T17:48:35.142Z,,0,,,NaN,,,,,,false,,,,316544.0999999996,316543.9000000004,,316543.80000000075,,316549.222,8,400,,,
sequence,flow.Sequence,4_96,2023-05-02T17:48:35.142Z,,0,,,4741.353000000352,completion,,,,,false,,,,316544.30000000075,316543.9000000004,311785.892,311792.0999999996,311802.547,316549.222,8,400,,,
trial,html.Screen,4_97_0,2023-05-02T17:48:38.132Z,,0,2,,2984.6780000003637,response,ISIC_6366417.JPG,,ISIC_5281762.JPG,ISIC_5281762.JPG,false,0,keypress(z),500,319534.19999999925,319533.9000000004,316532.567,316544.5,316549.222,319547.122,8,400,48,,ISIC_6366417.JPG
break,html.Screen,4_97_1,2023-05-02T17:48:38.133Z,,0,,,NaN,,,,,,false,,,,319535.4000000004,319535,,319534.5999999996,,319547.122,8,400,,,
break_continue,html.Screen,4_97_2,2023-05-02T17:48:38.134Z,,0,,,NaN,,,,,,false,,,,319536.19999999925,319536,,319535.5999999996,,319547.122,8,400,,,
sequence,flow.Sequence,4_97,2023-05-02T17:48:38.134Z,,0,,,2986.777999999991,completion,,,,,false,,,,319536.5,319536,316532.567,316544.5,316549.222,319547.122,8,400,,,
trial,html.Screen,4_98_0,2023-05-02T17:48:40.810Z,,0,2,,2665.178000000771,response,ISIC_0032610.JPG,,ISIC_8479913.JPG,ISIC_0032610.JPG,false,1,keypress(m),500,322212.69999999925,322212.30000000075,319530.467,319536.80000000075,319547.122,322228.965,8,400,49,,ISIC_8479913.JPG
break,html.Screen,4_98_1,2023-05-02T17:48:40.811Z,,0,,,NaN,,,,,,false,,,,322213.80000000075,322213.5,,322213.0999999996,,322228.965,8,400,,,
break_continue,html.Screen,4_98_2,2023-05-02T17:48:40.811Z,,0,,,NaN,,,,,,false,,,,322214.30000000075,322214.19999999925,,322214,,322228.965,8,400,,,
sequence,flow.Sequence,4_98,2023-05-02T17:48:40.812Z,,0,,,2667.077999999281,completion,,,,,false,,,,322214.5,322214.19999999925,319530.467,319536.5999999996,319547.122,322228.965,8,400,,,
trial,html.Screen,4_99_0,2023-05-02T17:48:43.349Z,,0,2,,2521.935000000347,response,ISIC_0053854.JPG,,ISIC_0061583.JPG,ISIC_0061583.JPG,false,0,keypress(z),500,324751.4000000004,324750.9000000004,322212.31,322214.69999999925,322228.965,324760.525,8,400,50,,ISIC_0053854.JPG
break,html.Screen,4_99_1,2023-05-02T17:48:48.342Z,,0,,,4996.5,timeout,,,,,false,,,,329744.9000000004,329740.37,324743.87,324751.80000000075,324760.525,329757.025,8,400,,,
break_continue,html.Screen,4_99_2,2023-05-02T17:48:49.356Z,,0,,,976.0749999996042,response,,,,,false,continue,keypress(Space),,330759.19999999925,330733.0999999996,329740.37,329745.0999999996,329757.025,330772.98,8,400,,,
sequence,flow.Sequence,4_99,2023-05-02T17:48:49.356Z,,0,,,8504.134999999602,completion,,,,,false,,,,330759.4000000004,330733.0999999996,322212.31,322214.69999999925,322228.965,330772.98,8,400,,,
trial,html.Screen,4_100_0,2023-05-02T17:48:51.732Z,,0,3,,2362.2199999992736,response,ISIC_0071576.JPG,,ISIC_0066321.JPG,ISIC_0066321.JPG,false,0,keypress(z),500,333135.69999999925,333135.19999999925,330756.325,330759.5,330772.98,333137.99,8,400,1,,ISIC_0071576.JPG
break,html.Screen,4_100_1,2023-05-02T17:48:51.733Z,,0,,,NaN,,,,,,false,,,,333136.80000000075,333136.5,,333136.0999999996,,333137.99,8,400,,,
break_continue,html.Screen,4_100_2,2023-05-02T17:48:51.734Z,,0,,,NaN,,,,,,false,,,,333137.19999999925,333137.0999999996,,333136.9000000004,,333137.99,8,400,,,
sequence,flow.Sequence,4_100,2023-05-02T17:48:51.734Z,,0,,,2364.119999999646,completion,,,,,false,,,,333137.5,333137.0999999996,330756.325,330759.5,330772.98,333137.99,8,400,,,
trial,html.Screen,4_101_0,2023-05-02T17:48:54.173Z,,0,3,,2438.0100000000093,response,ISIC_0033724.JPG,,ISIC_0016043.JPG,ISIC_0016043.JPG,false,0,keypress(z),500,335576.30000000075,335576,333121.335,333137.69999999925,333137.99,335586.275,8,400,2,,ISIC_0033724.JPG
break,html.Screen,4_101_1,2023-05-02T17:48:54.174Z,,0,,,NaN,,,,,,false,,,,335577.69999999925,335577.30000000075,,335576.69999999925,,335586.275,8,400,,,
break_continue,html.Screen,4_101_2,2023-05-02T17:48:54.175Z,,0,,,NaN,,,,,,false,,,,335578.30000000075,335578,,335577.9000000004,,335586.275,8,400,,,
sequence,flow.Sequence,4_101,2023-05-02T17:48:54.175Z,,0,,,2440.0100000000093,completion,,,,,false,,,,335578.69999999925,335578,333121.335,333137.5999999996,333137.99,335586.275,8,400,,,
trial,html.Screen,4_102_0,2023-05-02T17:48:56.457Z,,0,3,,2274.1250000003492,response,ISIC_2620357.JPG,,ISIC_0024891.JPG,ISIC_0024891.JPG,false,0,keypress(z),500,337860.69999999925,337860.4000000004,335569.62,335579,335586.275,337868.01,8,400,3,,ISIC_2620357.JPG
break,html.Screen,4_102_1,2023-05-02T17:48:56.458Z,,0,,,NaN,,,,,,false,,,,337861.69999999925,337861.5,,337861,,337868.01,8,400,,,
break_continue,html.Screen,4_102_2,2023-05-02T17:48:56.459Z,,0,,,NaN,,,,,,false,,,,337862.19999999925,337862.0999999996,,337861.9000000004,,337868.01,8,400,,,
sequence,flow.Sequence,4_102,2023-05-02T17:48:56.459Z,,0,,,2275.824999999604,completion,,,,,false,,,,337862.4000000004,337862.0999999996,335569.62,335578.9000000004,335586.275,337868.01,8,400,,,
trial,html.Screen,4_103_0,2023-05-02T17:48:58.809Z,,0,3,,2344.4899999999907,response,ISIC_0031625.JPG,,ISIC_6792899.JPG,ISIC_0031625.JPG,false,1,keypress(m),500,340212.80000000075,340212.5,337851.355,337862.5999999996,337868.01,340217.122,8,400,4,,ISIC_6792899.JPG
break,html.Screen,4_103_1,2023-05-02T17:48:58.810Z,,0,,,NaN,,,,,,false,,,,340213.80000000075,340213.5,,340213.0999999996,,340217.122,8,400,,,
break_continue,html.Screen,4_103_2,2023-05-02T17:48:58.811Z,,0,,,NaN,,,,,,false,,,,340214.30000000075,340214,,340213.9000000004,,340217.122,8,400,,,
sequence,flow.Sequence,4_103,2023-05-02T17:48:58.811Z,,0,,,2345.9899999999907,completion,,,,,false,,,,340214.5,340214,337851.355,337862.5999999996,337868.01,340217.122,8,400,,,
trial,html.Screen,4_104_0,2023-05-02T17:49:01.171Z,,0,3,,2357.178000000771,response,ISIC_5607702.JPG,,ISIC_6931712.JPG,ISIC_5607702.JPG,false,1,keypress(m),500,342574.80000000075,342574.30000000075,340200.467,340214.5999999996,340217.122,342582.132,8,400,5,,ISIC_6931712.JPG
break,html.Screen,4_104_1,2023-05-02T17:49:01.172Z,,0,,,NaN,,,,,,false,,,,342575.69999999925,342575.4000000004,,342575,,342582.132,8,400,,,
break_continue,html.Screen,4_104_2,2023-05-02T17:49:01.172Z,,0,,,NaN,,,,,,false,,,,342576.19999999925,342576,,342575.80000000075,,342582.132,8,400,,,
sequence,flow.Sequence,4_104,2023-05-02T17:49:01.173Z,,0,,,2358.878000000026,completion,,,,,false,,,,342576.4000000004,342576,340200.467,340214.5,340217.122,342582.132,8,400,,,
trial,html.Screen,4_105_0,2023-05-02T17:49:03.433Z,,0,3,,2254.5679999992717,response,ISIC_3676643.JPG,,ISIC_2948896.JPG,ISIC_2948896.JPG,false,0,keypress(z),500,344837.0999999996,344836.69999999925,342565.477,342576.5999999996,342582.132,344847.212,8,400,6,,ISIC_3676643.JPG
break,html.Screen,4_105_1,2023-05-02T17:49:03.434Z,,0,,,NaN,,,,,,false,,,,344838.0999999996,344837.9000000004,,344837.4000000004,,344847.212,8,400,,,
break_continue,html.Screen,4_105_2,2023-05-02T17:49:03.435Z,,0,,,NaN,,,,,,false,,,,344838.5999999996,344838.5,,344838.30000000075,,344847.212,8,400,,,
sequence,flow.Sequence,4_105,2023-05-02T17:49:03.435Z,,0,,,2256.3680000000168,completion,,,,,false,,,,344838.9000000004,344838.5,342565.477,342576.5,342582.132,344847.212,8,400,,,
trial,html.Screen,4_106_0,2023-05-02T17:49:05.747Z,,0,3,,2303.688000000373,response,ISIC_0069330.JPG,,ISIC_4958578.JPG,ISIC_0069330.JPG,false,1,keypress(m),500,347151.30000000075,347150.9000000004,344830.557,344839,344847.212,347162.257,8,400,7,,ISIC_4958578.JPG
break,html.Screen,4_106_1,2023-05-02T17:49:05.748Z,,0,,,NaN,,,,,,false,,,,347152.19999999925,347151.9000000004,,347151.5999999996,,347162.257,8,400,,,
break_continue,html.Screen,4_106_2,2023-05-02T17:49:05.749Z,,0,,,NaN,,,,,,false,,,,347152.69999999925,347152.5,,347152.4000000004,,347162.257,8,400,,,
sequence,flow.Sequence,4_106,2023-05-02T17:49:05.749Z,,0,,,2305.2880000000005,completion,,,,,false,,,,347152.9000000004,347152.5,344830.557,344838.9000000004,344847.212,347162.257,8,400,,,
trial,html.Screen,4_107_0,2023-05-02T17:49:08.193Z,,0,3,,2434.4429999992717,response,ISIC_0028086.JPG,,ISIC_0026314.JPG,ISIC_0028086.JPG,false,1,keypress(m),500,349597.0999999996,349596.69999999925,347145.602,347153,347162.257,349610.542,8,400,8,,ISIC_0026314.JPG
break,html.Screen,4_107_1,2023-05-02T17:49:08.194Z,,0,,,NaN,,,,,,false,,,,349598.30000000075,349598,,349597.5,,349610.542,8,400,,,
break_continue,html.Screen,4_107_2,2023-05-02T17:49:08.195Z,,0,,,NaN,,,,,,false,,,,349598.80000000075,349598.69999999925,,349598.5,,349610.542,8,400,,,
sequence,flow.Sequence,4_107,2023-05-02T17:49:08.195Z,,0,,,2436.4429999992717,completion,,,,,false,,,,349599,349598.69999999925,347145.602,347152.9000000004,347162.257,349610.542,8,400,,,
trial,html.Screen,4_108_0,2023-05-02T17:49:10.433Z,,0,3,,2226.157999999239,response,ISIC_0010207.JPG,,ISIC_9152137.JPG,ISIC_0010207.JPG,false,1,keypress(m),500,351837.19999999925,351836.69999999925,349593.887,349599.19999999925,349610.542,351842.72,8,400,9,,ISIC_9152137.JPG
break,html.Screen,4_108_1,2023-05-02T17:49:10.434Z,,0,,,NaN,,,,,,false,,,,351838.4000000004,351837.9000000004,,351837.5,,351842.72,8,400,,,
break_continue,html.Screen,4_108_2,2023-05-02T17:49:10.435Z,,0,,,NaN,,,,,,false,,,,351839,351838.80000000075,,351838.69999999925,,351842.72,8,400,,,
sequence,flow.Sequence,4_108,2023-05-02T17:49:10.435Z,,0,,,2228.258000000729,completion,,,,,false,,,,351839.19999999925,351838.80000000075,349593.887,349599.19999999925,349610.542,351842.72,8,400,,,
trial,html.Screen,4_109_0,2023-05-02T17:49:13.138Z,,0,3,,2699.479999999283,response,ISIC_1739667.JPG,,ISIC_4477599.JPG,ISIC_1739667.JPG,false,1,keypress(m),500,354542.5,354542.19999999925,351826.065,351839.4000000004,351842.72,354557.485,8,400,10,,ISIC_4477599.JPG
break,html.Screen,4_109_1,2023-05-02T17:49:13.139Z,,0,,,NaN,,,,,,false,,,,354543.5,354543.19999999925,,354542.80000000075,,354557.485,8,400,,,
break_continue,html.Screen,4_109_2,2023-05-02T17:49:13.140Z,,0,,,NaN,,,,,,false,,,,354543.9000000004,354543.80000000075,,354543.69999999925,,354557.485,8,400,,,
sequence,flow.Sequence,4_109,2023-05-02T17:49:13.140Z,,0,,,2701.080000000773,completion,,,,,false,,,,354544.0999999996,354543.80000000075,351826.065,351839.4000000004,351842.72,354557.485,8,400,,,
trial,html.Screen,4_110_0,2023-05-02T17:49:15.192Z,,0,3,,2038.815000000759,response,ISIC_0026348.JPG,,ISIC_3503302.JPG,ISIC_0026348.JPG,false,1,keypress(m),500,356596.5999999996,356596.30000000075,354540.83,354544.30000000075,354557.485,356606.05,8,400,11,,ISIC_3503302.JPG
break,html.Screen,4_110_1,2023-05-02T17:49:15.193Z,,0,,,NaN,,,,,,false,,,,356597.5999999996,356597.30000000075,,356596.9000000004,,356606.05,8,400,,,
break_continue,html.Screen,4_110_2,2023-05-02T17:49:15.194Z,,0,,,NaN,,,,,,false,,,,356598,356597.80000000075,,356597.69999999925,,356606.05,8,400,,,
sequence,flow.Sequence,4_110,2023-05-02T17:49:15.194Z,,0,,,2040.315000000759,completion,,,,,false,,,,356598.19999999925,356597.80000000075,354540.83,354544.19999999925,354557.485,356606.05,8,400,,,
trial,html.Screen,4_111_0,2023-05-02T17:49:17.544Z,,0,3,,2342.549999999639,response,ISIC_0000519.JPG,,ISIC_0033154.JPG,ISIC_0033154.JPG,false,0,keypress(z),500,358949,358948.5999999996,356589.395,356598.4000000004,356606.05,358954.405,8,400,12,,ISIC_0000519.JPG
break,html.Screen,4_111_1,2023-05-02T17:49:17.545Z,,0,,,NaN,,,,,,false,,,,358950,358949.80000000075,,358949.4000000004,,358954.405,8,400,,,
break_continue,html.Screen,4_111_2,2023-05-02T17:49:17.546Z,,0,,,NaN,,,,,,false,,,,358950.5,358950.30000000075,,358950.19999999925,,358954.405,8,400,,,
sequence,flow.Sequence,4_111,2023-05-02T17:49:17.546Z,,0,,,2344.2500000007567,completion,,,,,false,,,,358950.69999999925,358950.30000000075,356589.395,356598.30000000075,356606.05,358954.405,8,400,,,
trial,html.Screen,4_112_0,2023-05-02T17:49:20.195Z,,0,3,,2644.4950000003446,response,ISIC_0071111.JPG,,ISIC_0069635.JPG,ISIC_0069635.JPG,false,0,keypress(z),500,361599.30000000075,361598.9000000004,358937.75,358950.9000000004,358954.405,361619.6,8,400,13,,ISIC_0071111.JPG
break,html.Screen,4_112_1,2023-05-02T17:49:20.195Z,,0,,,NaN,,,,,,false,,,,361600.19999999925,361599.9000000004,,361599.5,,361619.6,8,400,,,
break_continue,html.Screen,4_112_2,2023-05-02T17:49:20.196Z,,0,,,NaN,,,,,,false,,,,361600.69999999925,361600.5,,361600.30000000075,,361619.6,8,400,,,
sequence,flow.Sequence,4_112,2023-05-02T17:49:20.196Z,,0,,,2646.094999999972,completion,,,,,false,,,,361600.80000000075,361600.5,358937.75,358950.9000000004,358954.405,361619.6,8,400,,,
trial,html.Screen,4_113_0,2023-05-02T17:49:22.984Z,,0,3,,2768.800000000396,response,ISIC_3065253.JPG,,ISIC_0066564.JPG,ISIC_0066564.JPG,false,0,keypress(z),500,364388.80000000075,364388.4000000004,361602.945,361600.9000000004,361619.6,364400.985,8,400,14,,ISIC_3065253.JPG
break,html.Screen,4_113_1,2023-05-02T17:49:22.985Z,,0,,,NaN,,,,,,false,,,,364389.9000000004,364389.5999999996,,364389.0999999996,,364400.985,8,400,,,
break_continue,html.Screen,4_113_2,2023-05-02T17:49:22.985Z,,0,,,NaN,,,,,,false,,,,364390.30000000075,364390.0999999996,,364390,,364400.985,8,400,,,
sequence,flow.Sequence,4_113,2023-05-02T17:49:22.986Z,,0,,,2770.4999999996508,completion,,,,,false,,,,364390.5,364390.0999999996,361602.945,361600.9000000004,361619.6,364400.985,8,400,,,
trial,html.Screen,4_114_0,2023-05-02T17:49:26.354Z,,0,3,,3357.9150000003865,response,ISIC_3513367.JPG,,ISIC_7260013.JPG,ISIC_3513367.JPG,false,1,keypress(m),500,367759.30000000075,367758.9000000004,364384.33,364391,364400.985,367765.295,8,400,15,,ISIC_7260013.JPG
break,html.Screen,4_114_1,2023-05-02T17:49:26.355Z,,0,,,NaN,,,,,,false,,,,367760.19999999925,367760,,367759.5999999996,,367765.295,8,400,,,
break_continue,html.Screen,4_114_2,2023-05-02T17:49:26.356Z,,0,,,NaN,,,,,,false,,,,367760.69999999925,367760.5,,367760.4000000004,,367765.295,8,400,,,
sequence,flow.Sequence,4_114,2023-05-02T17:49:26.356Z,,0,,,3359.515000000014,completion,,,,,false,,,,367761,367760.5,364384.33,364390.69999999925,364400.985,367765.295,8,400,,,
trial,html.Screen,4_115_0,2023-05-02T17:49:28.721Z,,0,3,,2360.7050000000163,response,ISIC_2729109.JPG,,ISIC_0257447.JPG,ISIC_0257447.JPG,false,0,keypress(z),500,370126.30000000075,370126,367748.64,367761,367765.295,370130.305,8,400,16,,ISIC_2729109.JPG
break,html.Screen,4_115_1,2023-05-02T17:49:28.722Z,,0,,,NaN,,,,,,false,,,,370127.30000000075,370127.0999999996,,370126.5999999996,,370130.305,8,400,,,
break_continue,html.Screen,4_115_2,2023-05-02T17:49:28.723Z,,0,,,NaN,,,,,,false,,,,370127.69999999925,370127.5999999996,,370127.5,,370130.305,8,400,,,
sequence,flow.Sequence,4_115,2023-05-02T17:49:28.723Z,,0,,,2362.3049999996438,completion,,,,,false,,,,370128,370127.5999999996,367748.64,367761,367765.295,370130.305,8,400,,,
trial,html.Screen,4_116_0,2023-05-02T17:49:31.649Z,,0,3,,2923.995000000752,response,ISIC_0027072.JPG,,ISIC_0033059.JPG,ISIC_0033059.JPG,false,0,keypress(z),500,373054.69999999925,373054.30000000075,370113.65,370128.0999999996,370130.305,373061.961,8,400,17,,ISIC_0027072.JPG
break,html.Screen,4_116_1,2023-05-02T17:49:31.651Z,,0,,,NaN,,,,,,false,,,,373056.0999999996,373055.80000000075,,373055.4000000004,,373061.961,8,400,,,
break_continue,html.Screen,4_116_2,2023-05-02T17:49:31.651Z,,0,,,NaN,,,,,,false,,,,373056.5999999996,373056.5,,373056.30000000075,,373061.961,8,400,,,
sequence,flow.Sequence,4_116,2023-05-02T17:49:31.652Z,,0,,,2926.195000000007,completion,,,,,false,,,,373056.9000000004,373056.5,370113.65,370128,370130.305,373061.961,8,400,,,
trial,html.Screen,4_117_0,2023-05-02T17:49:34.008Z,,0,3,,2350.7389999992447,response,ISIC_0014548.JPG,,ISIC_0070012.JPG,ISIC_0070012.JPG,false,0,keypress(z),500,375413.0999999996,375412.69999999925,373045.306,373057,373061.961,375426.971,8,400,18,,ISIC_0014548.JPG
break,html.Screen,4_117_1,2023-05-02T17:49:34.009Z,,0,,,NaN,,,,,,false,,,,375414,375413.80000000075,,375413.30000000075,,375426.971,8,400,,,
break_continue,html.Screen,4_117_2,2023-05-02T17:49:34.009Z,,0,,,NaN,,,,,,false,,,,375414.69999999925,375414.5,,375414.19999999925,,375426.971,8,400,,,
sequence,flow.Sequence,4_117,2023-05-02T17:49:34.009Z,,0,,,2352.5389999999898,completion,,,,,false,,,,375414.9000000004,375414.5,373045.306,373056.9000000004,373061.961,375426.971,8,400,,,
trial,html.Screen,4_118_0,2023-05-02T17:49:36.882Z,,0,3,,2859.8290000007255,response,ISIC_0013736.JPG,,ISIC_5239856.JPG,ISIC_0013736.JPG,false,1,keypress(m),500,378287.0999999996,378286.80000000075,375410.316,375415.0999999996,375426.971,378308.286,8,400,19,,ISIC_5239856.JPG
break,html.Screen,4_118_1,2023-05-02T17:49:36.882Z,,0,,,NaN,,,,,,false,,,,378287.80000000075,378287.5,,378287.30000000075,,378308.286,8,400,,,
break_continue,html.Screen,4_118_2,2023-05-02T17:49:36.883Z,,0,,,NaN,,,,,,false,,,,378288,378288,,378287.80000000075,,378308.286,8,400,,,
sequence,flow.Sequence,4_118,2023-05-02T17:49:36.883Z,,0,,,2861.0289999999804,completion,,,,,false,,,,378288.19999999925,378288,375410.316,375415,375426.971,378308.286,8,400,,,
trial,html.Screen,4_119_0,2023-05-02T17:49:39.658Z,,0,3,,2755.014000000723,response,ISIC_0060860.JPG,,ISIC_0030889.JPG,ISIC_0060860.JPG,false,1,keypress(m),500,381063.5999999996,381063.30000000075,378291.631,378288.19999999925,378308.286,381073.016,8,400,20,,ISIC_0030889.JPG
break,html.Screen,4_119_1,2023-05-02T17:49:39.659Z,,0,,,NaN,,,,,,false,,,,381064.5999999996,381064.30000000075,,381063.9000000004,,381073.016,8,400,,,
break_continue,html.Screen,4_119_2,2023-05-02T17:49:39.660Z,,0,,,NaN,,,,,,false,,,,381065.19999999925,381065,,381064.80000000075,,381073.016,8,400,,,
sequence,flow.Sequence,4_119,2023-05-02T17:49:39.660Z,,0,,,2756.713999999978,completion,,,,,false,,,,381065.80000000075,381065,378291.631,378288.19999999925,378308.286,381073.016,8,400,,,
trial,html.Screen,4_120_0,2023-05-02T17:49:42.056Z,,0,3,,2388.784000000742,response,ISIC_0010409.JPG,,ISIC_0979974.JPG,ISIC_0010409.JPG,false,1,keypress(m),500,383462.19999999925,383461.80000000075,381056.361,381066,381073.016,383471.746,8,400,21,,ISIC_0979974.JPG
break,html.Screen,4_120_1,2023-05-02T17:49:42.058Z,,0,,,NaN,,,,,,false,,,,383463.30000000075,383463,,383462.5,,383471.746,8,400,,,
break_continue,html.Screen,4_120_2,2023-05-02T17:49:42.058Z,,0,,,NaN,,,,,,false,,,,383463.69999999925,383463.5999999996,,383463.5,,383471.746,8,400,,,
sequence,flow.Sequence,4_120,2023-05-02T17:49:42.058Z,,0,,,2390.583999999624,completion,,,,,false,,,,383463.9000000004,383463.5999999996,381056.361,381065.9000000004,381073.016,383471.746,8,400,,,
trial,html.Screen,4_121_0,2023-05-02T17:49:44.904Z,,0,3,,2837.853999999643,response,ISIC_9829805.JPG,,ISIC_2225927.JPG,ISIC_9829805.JPG,false,1,keypress(m),500,386309.9000000004,386309.5999999996,383455.091,383464.0999999996,383471.746,386319.751,8,400,22,,ISIC_2225927.JPG
break,html.Screen,4_121_1,2023-05-02T17:49:44.905Z,,0,,,NaN,,,,,,false,,,,386311,386310.5999999996,,386310.19999999925,,386319.751,8,400,,,
break_continue,html.Screen,4_121_2,2023-05-02T17:49:44.905Z,,0,,,NaN,,,,,,false,,,,386311.4000000004,386311.19999999925,,386311,,386319.751,8,400,,,
sequence,flow.Sequence,4_121,2023-05-02T17:49:44.906Z,,0,,,2839.4539999992703,completion,,,,,false,,,,386311.5999999996,386311.19999999925,383455.091,383464,383471.746,386319.751,8,400,,,
trial,html.Screen,4_122_0,2023-05-02T17:49:47.218Z,,0,3,,2303.9489999992657,response,ISIC_0013736.JPG,,ISIC_2964397.JPG,ISIC_0013736.JPG,false,1,keypress(m),500,388624.0999999996,388623.69999999925,386303.096,386311.69999999925,386319.751,388634.796,8,400,23,,ISIC_2964397.JPG
break,html.Screen,4_122_1,2023-05-02T17:49:47.219Z,,0,,,NaN,,,,,,false,,,,388625.0999999996,388624.80000000075,,388624.4000000004,,388634.796,8,400,,,
break_continue,html.Screen,4_122_2,2023-05-02T17:49:47.220Z,,0,,,NaN,,,,,,false,,,,388625.5,388625.4000000004,,388625.19999999925,,388634.796,8,400,,,
sequence,flow.Sequence,4_122,2023-05-02T17:49:47.220Z,,0,,,2305.6490000003832,completion,,,,,false,,,,388625.69999999925,388625.4000000004,386303.096,386311.69999999925,386319.751,388634.796,8,400,,,
trial,html.Screen,4_123_0,2023-05-02T17:49:49.466Z,,0,3,,2236.903999999282,response,ISIC_4958006.JPG,,ISIC_5413788.JPG,ISIC_5413788.JPG,false,0,keypress(z),500,390872.0999999996,390871.69999999925,388618.141,388625.9000000004,388634.796,390883.221,8,400,24,,ISIC_4958006.JPG
break,html.Screen,4_123_1,2023-05-02T17:49:49.467Z,,0,,,NaN,,,,,,false,,,,390873.30000000075,390873,,390872.5,,390883.221,8,400,,,
break_continue,html.Screen,4_123_2,2023-05-02T17:49:49.468Z,,0,,,NaN,,,,,,false,,,,390873.69999999925,390873.5999999996,,390873.5,,390883.221,8,400,,,
sequence,flow.Sequence,4_123,2023-05-02T17:49:49.468Z,,0,,,2238.8039999996545,completion,,,,,false,,,,390874,390873.5999999996,388618.141,388625.9000000004,388634.796,390883.221,8,400,,,
trial,html.Screen,4_124_0,2023-05-02T17:49:52.032Z,,0,3,,2554.9789999992354,response,ISIC_0894785.JPG,,ISIC_0668772.JPG,ISIC_0894785.JPG,false,1,keypress(m),500,393438.69999999925,393438.19999999925,390866.566,390874.0999999996,390883.221,393448.478,8,400,25,,ISIC_0668772.JPG
break,html.Screen,4_124_1,2023-05-02T17:49:52.033Z,,0,,,NaN,,,,,,false,,,,393439.69999999925,393439.4000000004,,393438.9000000004,,393448.478,8,400,,,
break_continue,html.Screen,4_124_2,2023-05-02T17:49:52.034Z,,0,,,NaN,,,,,,false,,,,393440.19999999925,393440,,393439.80000000075,,393448.478,8,400,,,
sequence,flow.Sequence,4_124,2023-05-02T17:49:52.034Z,,0,,,2556.7789999999804,completion,,,,,false,,,,393440.4000000004,393440,390866.566,390874.0999999996,390883.221,393448.478,8,400,,,
trial,html.Screen,4_125_0,2023-05-02T17:49:56.742Z,,0,3,,4699.92200000037,response,ISIC_0027350.JPG,,ISIC_0031389.JPG,ISIC_0027350.JPG,false,1,keypress(m),500,398148.80000000075,398148.4000000004,393431.823,393440.5,393448.478,398161.843,8,400,26,,ISIC_0031389.JPG
break,html.Screen,4_125_1,2023-05-02T17:49:56.743Z,,0,,,NaN,,,,,,false,,,,398149.80000000075,398149.5,,398149,,398161.843,8,400,,,
break_continue,html.Screen,4_125_2,2023-05-02T17:49:56.744Z,,0,,,NaN,,,,,,false,,,,398150.69999999925,398150.4000000004,,398150.19999999925,,398161.843,8,400,,,
sequence,flow.Sequence,4_125,2023-05-02T17:49:56.744Z,,0,,,4701.92200000037,completion,,,,,false,,,,398150.9000000004,398150.4000000004,393431.823,393440.5,393448.478,398161.843,8,400,,,
trial,html.Screen,4_126_0,2023-05-02T17:49:59.014Z,,0,3,,2258.557000000379,response,ISIC_2524005.JPG,,ISIC_8101493.JPG,ISIC_2524005.JPG,false,1,keypress(m),500,400420.69999999925,400420.4000000004,398145.188,398151.0999999996,398161.843,400426.923,8,400,27,,ISIC_8101493.JPG
break,html.Screen,4_126_1,2023-05-02T17:49:59.015Z,,0,,,NaN,,,,,,false,,,,400421.69999999925,400421.5,,400421,,400426.923,8,400,,,
break_continue,html.Screen,4_126_2,2023-05-02T17:49:59.016Z,,0,,,NaN,,,,,,false,,,,400422.30000000075,400422,,400421.9000000004,,400426.923,8,400,,,
