sender,sender_type,sender_id,timestamp,meta,,blockNo,condition,duration,ended_on,img_left,img_reveal,img_right,loser,practice,response,response_action,selection_duration,time_commit,time_end,time_render,time_run,time_show,time_switch,total_blocks,total_trials,trialNo,url,winner
informed_consent,html.Screen,0,2023-09-15T17:10:22.209Z,"{""labjs_version"":""20.2.4"",""labjs_build"":{""flavor"":""production"",""commit"":""f5b4a49f956347addd546a832a3327688c2c0fef""},""location"":""https://run.pavlovia.org/MurrayBennett/melanoma-2afc/?participant=65879&platform=sona"",""userAgent"":""Mozilla/5.0 (Windows NT 10.0; Win64; x64) AppleWebKit/537.36 (KHTML, like Gecko) Chrome/116.0.0.0 Safari/537.36 LikeWise/90.6.9195.96"",""platform"":""Win32"",""language"":""en-US"",""locale"":""en-US"",""timeZone"":""America/Chicago"",""timezoneOffset"":300,""screen_width"":1280,""screen_height"":720,""scroll_width"":1280,""scroll_height"":563,""window_innerWidth"":1280,""window_innerHeight"":563,""devicePixelRatio"":1.5}",,,,43583.745,response,,,,,,consent,click button,,47240.40000000596,47238.5,3371.523,3650.2000000178814,3654.755,47257.632,,,,"{""participant"":""65879"",""platform"":""sona""}",
Welcome,html.Screen,1,2023-09-15T17:11:00.314Z,,,,irregular,38085.96799999404,response,,,,,,continue,click button,,85345.20000001788,85343.59999999404,47223.363,47240.70000001788,47257.632,85360.096,,,,,
trial,html.Screen,2_0_0,2023-09-15T17:11:05.965Z,,0,0,,5635.604000017876,response,ISIC_4679428.JPG,,ISIC_0061792.JPG,ISIC_4679428.JPG,true,1,keypress(m),500,90996.09999999404,90995.70000001788,85341.506,85345.30000001192,85360.096,91008.258,1,6,1,,ISIC_0061792.JPG
sequence,flow.Sequence,2_0,2023-09-15T17:11:05.965Z,,0,,,5635.604000017876,completion,,,,,true,,,,90996.5,90995.70000001788,85341.506,85345.30000001192,85360.096,91008.258,1,6,,,
trial,html.Screen,2_1_0,2023-09-15T17:11:11.713Z,,0,0,,5735.542000011919,response,ISIC_5199497.JPG,,ISIC_0776486.JPG,ISIC_5199497.JPG,true,1,keypress(m),500,96744,96743.80000001192,90991.71,90996.59999999404,91008.258,96756.21,1,6,2,,ISIC_0776486.JPG
sequence,flow.Sequence,2_1,2023-09-15T17:11:11.713Z,,0,,,5735.542000011919,completion,,,,,true,,,,96744.09999999404,96743.80000001192,90991.71,90996.59999999404,91008.258,96756.21,1,6,,,
trial,html.Screen,2_2_0,2023-09-15T17:11:15.874Z,,0,0,,4148.990000017875,response,ISIC_2556187.JPG,,ISIC_8575776.JPG,ISIC_8575776.JPG,true,0,keypress(z),500,100905.59999999404,100905.20000001788,96739.654,96744.09999999404,96756.21,100921.489,1,6,3,,ISIC_2556187.JPG
sequence,flow.Sequence,2_2,2023-09-15T17:11:15.874Z,,0,,,4148.990000017875,completion,,,,,true,,,,100905.80000001192,100905.20000001788,96739.654,96744.09999999404,96756.21,100921.489,1,6,,,
trial,html.Screen,2_3_0,2023-09-15T17:11:19.221Z,,0,0,,3330.3110000119195,response,ISIC_8141769.JPG,,ISIC_9238366.JPG,ISIC_9238366.JPG,true,0,keypress(z),500,104252,104251.80000001192,100905.033,100906,100921.489,104253.643,1,6,4,,ISIC_8141769.JPG
sequence,flow.Sequence,2_3,2023-09-15T17:11:19.221Z,,0,,,3330.3110000119195,completion,,,,,true,,,,104252.20000001788,104251.80000001192,100905.033,100905.90000000596,100921.489,104253.643,1,6,,,
trial,html.Screen,2_4_0,2023-09-15T17:11:22.999Z,,0,0,,3776.057000017885,response,ISIC_8949026.JPG,,ISIC_9959593.JPG,ISIC_8949026.JPG,true,1,keypress(m),500,108030.09999999404,108029.70000001788,104237.174,104252.30000001192,104253.643,108035.905,1,6,5,,ISIC_9959593.JPG
sequence,flow.Sequence,2_4,2023-09-15T17:11:22.999Z,,0,,,3776.057000017885,completion,,,,,true,,,,108030.30000001192,108029.70000001788,104237.174,104252.30000001192,104253.643,108035.905,1,6,,,
trial,html.Screen,2_5_0,2023-09-15T17:11:27.657Z,,0,0,,4651.795000017883,response,ISIC_0460240.JPG,,ISIC_0010479.JPG,ISIC_0460240.JPG,true,1,keypress(m),500,112688,112687.70000001788,108019.13,108030.40000000596,108035.905,112700.819,1,6,6,,ISIC_0010479.JPG
sequence,flow.Sequence,2_5,2023-09-15T17:11:27.657Z,,0,,,4651.795000017883,completion,,,,,true,,,,112688.20000001788,112687.70000001788,108019.13,108030.40000000596,108035.905,112700.819,1,6,,,
loop,flow.Loop,2,2023-09-15T17:11:27.657Z,,,,,27327.604000017876,completion,,,,,true,,,,112688.30000001192,112687.70000001788,85341.506,85345.30000001192,85360.096,112700.819,1,6,,,
exp_instructions,html.Screen,3,2023-09-15T17:11:41.538Z,,,,,13868.381000017878,response,,,,,,continue,keypress(Space),,126569.70000001788,126569.20000001788,112684.182,112688.40000000596,112700.819,126579.391,,,,,
trial,html.Screen,4_0_0,2023-09-15T17:11:46.938Z,,0,1,,5389.208999994036,response,ISIC_9947624.JPG,5,ISIC_3395488.JPG,ISIC_9947624.JPG,false,1,keypress(m),500,131968.70000001788,131968.59999999404,126569.384,126569.90000000596,126579.391,131977.537,8,400,1,,ISIC_3395488.JPG
break,html.Screen,4_0_1,2023-09-15T17:11:46.938Z,,0,,,NaN,,,,,,false,,,,131969.40000000596,131969.20000001788,,131968.80000001192,,131977.537,8,400,,,
break_continue,html.Screen,4_0_2,2023-09-15T17:11:46.939Z,,0,,,NaN,,,,,,false,,,,131969.90000000596,131969.80000001192,,131969.59999999404,,131977.537,8,400,,,
sequence,flow.Sequence,4_0,2023-09-15T17:11:46.939Z,,0,,,5390.409000011918,completion,,,,,false,,,,131970,131969.80000001192,126569.384,126569.80000001192,126579.391,131977.537,8,400,,,
trial,html.Screen,4_1_0,2023-09-15T17:11:53.292Z,,0,1,,6345.562999994028,response,ISIC_0030610.JPG,5,ISIC_4153542.JPG,ISIC_0030610.JPG,false,1,keypress(m),500,138323.5,138323.09999999404,131960.794,131970,131977.537,138325.496,8,400,2,,ISIC_4153542.JPG
break,html.Screen,4_1_1,2023-09-15T17:11:53.293Z,,0,,,NaN,,,,,,false,,,,138324.09999999404,138323.90000000596,,138323.59999999404,,138325.496,8,400,,,
break_continue,html.Screen,4_1_2,2023-09-15T17:11:53.293Z,,0,,,NaN,,,,,,false,,,,138324.20000001788,138324.09999999404,,138324.09999999404,,138325.496,8,400,,,
sequence,flow.Sequence,4_1,2023-09-15T17:11:53.293Z,,0,,,6346.562999994028,completion,,,,,false,,,,138324.30000001192,138324.09999999404,131960.794,131970,131977.537,138325.496,8,400,,,
trial,html.Screen,4_2_0,2023-09-15T17:12:04.775Z,,0,1,,11512.669999999984,timeout,ISIC_0781380.JPG,4,ISIC_2064934.JPG,,false,,,500,149806.09999999404,149805.80000001192,138308.663,138324.30000001192,138325.496,149838.166,8,400,3,,
break,html.Screen,4_2_1,2023-09-15T17:12:04.775Z,,0,,,NaN,,,,,,false,,,,149806.5,149806.40000000596,,149806.20000001788,,149838.166,8,400,,,
break_continue,html.Screen,4_2_2,2023-09-15T17:12:04.776Z,,0,,,NaN,,,,,,false,,,,149806.70000001788,149806.59999999404,,149806.5,,149838.166,8,400,,,
sequence,flow.Sequence,4_2,2023-09-15T17:12:04.776Z,,0,,,11481.103999994026,completion,,,,,false,,,,149806.80000001192,149806.59999999404,138308.663,138324.30000001192,138325.496,149838.166,8,400,,,
trial,html.Screen,4_3_0,2023-09-15T17:12:10.729Z,,0,1,,5921.334000000003,response,ISIC_0046441.JPG,4,ISIC_2894223.JPG,ISIC_0046441.JPG,false,1,keypress(m),500,155759.80000001192,155759.5,149821.441,149806.80000001192,149838.166,155769.379,8,400,4,,ISIC_2894223.JPG
break,html.Screen,4_3_1,2023-09-15T17:12:10.729Z,,0,,,NaN,,,,,,false,,,,155760.5,155760.40000000596,,155760,,155769.379,8,400,,,
break_continue,html.Screen,4_3_2,2023-09-15T17:12:10.730Z,,0,,,NaN,,,,,,false,,,,155760.70000001788,155760.59999999404,,155760.59999999404,,155769.379,8,400,,,
sequence,flow.Sequence,4_3,2023-09-15T17:12:10.730Z,,0,,,5922.433999994042,completion,,,,,false,,,,155760.70000001788,155760.59999999404,149821.441,149806.80000001192,149838.166,155769.379,8,400,,,
trial,html.Screen,4_4_0,2023-09-15T17:12:22.219Z,,0,1,,11512.727000000014,timeout,ISIC_8108090.JPG,4,ISIC_3493866.JPG,,false,,,500,167249.90000000596,167249.80000001192,155753.236,155760.80000001192,155769.379,167282.106,8,400,5,,
break,html.Screen,4_4_1,2023-09-15T17:12:22.219Z,,0,,,NaN,,,,,,false,,,,167250.30000001192,167250.20000001788,,167250,,167282.106,8,400,,,
break_continue,html.Screen,4_4_2,2023-09-15T17:12:22.219Z,,0,,,NaN,,,,,,false,,,,167250.5,167250.30000001192,,167250.30000001192,,167282.106,8,400,,,
sequence,flow.Sequence,4_4,2023-09-15T17:12:22.220Z,,0,,,11480.921000011935,completion,,,,,false,,,,167250.59999999404,167250.30000001192,155753.236,155760.80000001192,155769.379,167282.106,8,400,,,
trial,html.Screen,4_5_0,2023-09-15T17:12:27.217Z,,0,1,,4965.694000011921,response,ISIC_0025218.JPG,5,ISIC_0067206.JPG,ISIC_0025218.JPG,false,1,keypress(m),500,172248.20000001788,172247.80000001192,167265.469,167250.59999999404,167282.106,172263.725,8,400,6,,ISIC_0067206.JPG
break,html.Screen,4_5_1,2023-09-15T17:12:27.218Z,,0,,,NaN,,,,,,false,,,,172248.90000000596,172248.70000001788,,172248.40000000596,,172263.725,8,400,,,
break_continue,html.Screen,4_5_2,2023-09-15T17:12:27.218Z,,0,,,NaN,,,,,,false,,,,172249.20000001788,172249.20000001788,,172249.09999999404,,172263.725,8,400,,,
sequence,flow.Sequence,4_5,2023-09-15T17:12:27.218Z,,0,,,4967.094000017882,completion,,,,,false,,,,172249.30000001192,172249.20000001788,167265.469,167250.59999999404,167282.106,172263.725,8,400,,,
trial,html.Screen,4_6_0,2023-09-15T17:12:33.797Z,,0,1,,6564.075000011915,response,ISIC_0013530.JPG,4,ISIC_9742073.JPG,ISIC_9742073.JPG,false,0,keypress(z),500,178827.90000000596,178827.80000001192,172247.197,172249.40000000596,172263.725,178844.838,8,400,7,,ISIC_0013530.JPG
break,html.Screen,4_6_1,2023-09-15T17:12:33.797Z,,0,,,NaN,,,,,,false,,,,178828.20000001788,178828.20000001788,,178828,,178844.838,8,400,,,
break_continue,html.Screen,4_6_2,2023-09-15T17:12:33.797Z,,0,,,NaN,,,,,,false,,,,178828.30000001192,178828.30000001192,,178828.30000001192,,178844.838,8,400,,,
sequence,flow.Sequence,4_6,2023-09-15T17:12:33.797Z,,0,,,6564.575000011915,completion,,,,,false,,,,178828.40000000596,178828.30000001192,172247.197,172249.30000001192,172263.725,178844.838,8,400,,,
trial,html.Screen,4_7_0,2023-09-15T17:12:37.703Z,,0,1,,3888.462000011932,response,ISIC_0031575.JPG,5,ISIC_3947876.JPG,ISIC_3947876.JPG,false,0,keypress(z),500,182733.5,182733.30000001192,178811.977,178828.5,178844.838,182743.515,8,400,8,,ISIC_0031575.JPG
break,html.Screen,4_7_1,2023-09-15T17:12:37.703Z,,0,,,NaN,,,,,,false,,,,182734.30000001192,182734.20000001788,,182733.70000001788,,182743.515,8,400,,,
break_continue,html.Screen,4_7_2,2023-09-15T17:12:37.704Z,,0,,,NaN,,,,,,false,,,,182734.59999999404,182734.59999999404,,182734.40000000596,,182743.515,8,400,,,
sequence,flow.Sequence,4_7,2023-09-15T17:12:37.704Z,,0,,,3889.7619999940507,completion,,,,,false,,,,182734.80000001192,182734.59999999404,178811.977,178828.5,178844.838,182743.515,8,400,,,
trial,html.Screen,4_8_0,2023-09-15T17:12:41.533Z,,0,1,,3820.0849999940256,response,ISIC_9797578.JPG,5,ISIC_0011957.JPG,ISIC_9797578.JPG,false,1,keypress(m),500,186564,186563.59999999404,182727.412,182734.90000000596,182743.515,186575.499,8,400,9,,ISIC_0011957.JPG
break,html.Screen,4_8_1,2023-09-15T17:12:41.534Z,,0,,,NaN,,,,,,false,,,,186564.70000001788,186564.59999999404,,186564.20000001788,,186575.499,8,400,,,
break_continue,html.Screen,4_8_2,2023-09-15T17:12:41.534Z,,0,,,NaN,,,,,,false,,,,186564.80000001192,186564.80000001192,,186564.70000001788,,186575.499,8,400,,,
sequence,flow.Sequence,4_8,2023-09-15T17:12:41.534Z,,0,,,3821.285000011907,completion,,,,,false,,,,186564.80000001192,186564.80000001192,182727.412,182734.90000000596,182743.515,186575.499,8,400,,,
trial,html.Screen,4_9_0,2023-09-15T17:12:45.041Z,,0,1,,3496.4010000059498,response,ISIC_0067006.JPG,5,ISIC_3973431.JPG,ISIC_3973431.JPG,false,0,keypress(z),500,190072.09999999404,190071.90000000596,186559,186565,186575.499,190074.328,8,400,10,,ISIC_0067006.JPG
break,html.Screen,4_9_1,2023-09-15T17:12:45.041Z,,0,,,NaN,,,,,,false,,,,190072.40000000596,190072.40000000596,,190072.20000001788,,190074.328,8,400,,,
break_continue,html.Screen,4_9_2,2023-09-15T17:12:45.042Z,,0,,,NaN,,,,,,false,,,,190072.59999999404,190072.5,,190072.5,,190074.328,8,400,,,
sequence,flow.Sequence,4_9,2023-09-15T17:12:45.042Z,,0,,,3497.0009999999893,completion,,,,,false,,,,190072.59999999404,190072.5,186559,186564.90000000596,186575.499,190074.328,8,400,,,
trial,html.Screen,4_10_0,2023-09-15T17:12:49.571Z,,0,1,,4527.472000011912,response,ISIC_7384382.JPG,5,ISIC_5065360.JPG,ISIC_5065360.JPG,false,0,keypress(z),500,194602.09999999404,194601.80000001192,190057.889,190072.70000001788,190074.328,194606.067,8,400,11,,ISIC_7384382.JPG
break,html.Screen,4_10_1,2023-09-15T17:12:49.572Z,,0,,,NaN,,,,,,false,,,,194602.90000000596,194602.70000001788,,194602.30000001192,,194606.067,8,400,,,
break_continue,html.Screen,4_10_2,2023-09-15T17:12:49.572Z,,0,,,NaN,,,,,,false,,,,194603.20000001788,194603,,194603,,194606.067,8,400,,,
sequence,flow.Sequence,4_10,2023-09-15T17:12:49.572Z,,0,,,4528.671999999991,completion,,,,,false,,,,194603.30000001192,194603,190057.889,190072.70000001788,190074.328,194606.067,8,400,,,
trial,html.Screen,4_11_0,2023-09-15T17:12:53.654Z,,0,1,,4078.8330000059505,response,ISIC_9174306.JPG,4,ISIC_0014994.JPG,ISIC_0014994.JPG,false,0,keypress(z),500,198685.09999999404,198684.90000000596,194589.553,194603.40000000596,194606.067,198688.206,8,400,12,,ISIC_9174306.JPG
break,html.Screen,4_11_1,2023-09-15T17:12:53.655Z,,0,,,NaN,,,,,,false,,,,198685.59999999404,198685.5,,198685.30000001192,,198688.206,8,400,,,
break_continue,html.Screen,4_11_2,2023-09-15T17:12:53.655Z,,0,,,NaN,,,,,,false,,,,198686.30000001192,198686,,198685.80000001192,,198688.206,8,400,,,
sequence,flow.Sequence,4_11,2023-09-15T17:12:53.655Z,,0,,,4079.93299999999,completion,,,,,false,,,,198686.5,198686,194589.553,194603.40000000596,194606.067,198688.206,8,400,,,
trial,html.Screen,4_12_0,2023-09-15T17:12:58.089Z,,0,1,,4431.694000005955,response,ISIC_0010242.JPG,4,ISIC_0011956.JPG,ISIC_0011956.JPG,false,0,keypress(z),500,203120.20000001788,203119.90000000596,198671.517,198686.5,198688.206,203136.466,8,400,13,,ISIC_0010242.JPG
break,html.Screen,4_12_1,2023-09-15T17:12:58.090Z,,0,,,NaN,,,,,,false,,,,203120.90000000596,203120.70000001788,,203120.40000000596,,203136.466,8,400,,,
break_continue,html.Screen,4_12_2,2023-09-15T17:12:58.090Z,,0,,,NaN,,,,,,false,,,,203121.09999999404,203121,,203120.90000000596,,203136.466,8,400,,,
sequence,flow.Sequence,4_12,2023-09-15T17:12:58.090Z,,0,,,4432.793999999994,completion,,,,,false,,,,203121.09999999404,203121,198671.517,198686.5,198688.206,203136.466,8,400,,,
trial,html.Screen,4_13_0,2023-09-15T17:13:01.596Z,,0,1,,3490.334000011935,response,ISIC_0377965.JPG,6,ISIC_1763577.JPG,ISIC_0377965.JPG,false,1,keypress(m),500,206627,206626.80000001192,203120.26,203121.20000001788,203136.466,206635.305,8,400,14,,ISIC_1763577.JPG
break,html.Screen,4_13_1,2023-09-15T17:13:01.597Z,,0,,,NaN,,,,,,false,,,,206627.70000001788,206627.5,,206627.30000001192,,206635.305,8,400,,,
break_continue,html.Screen,4_13_2,2023-09-15T17:13:01.597Z,,0,,,NaN,,,,,,false,,,,206628,206628,,206627.80000001192,,206635.305,8,400,,,
sequence,flow.Sequence,4_13,2023-09-15T17:13:01.597Z,,0,,,3491.534000000014,completion,,,,,false,,,,206628.20000001788,206628,203120.26,203121.20000001788,203136.466,206635.305,8,400,,,
trial,html.Screen,4_14_0,2023-09-15T17:13:05.855Z,,0,1,,4249.895000017888,response,ISIC_0552911.JPG,5,ISIC_0030952.JPG,ISIC_0030952.JPG,false,0,keypress(z),500,210885.59999999404,210885.20000001788,206618.666,206628.30000001192,206635.305,210900.535,8,400,15,,ISIC_0552911.JPG
break,html.Screen,4_14_1,2023-09-15T17:13:05.855Z,,0,,,NaN,,,,,,false,,,,210886.20000001788,210886.09999999404,,210885.80000001192,,210900.535,8,400,,,
break_continue,html.Screen,4_14_2,2023-09-15T17:13:05.855Z,,0,,,NaN,,,,,,false,,,,210886.30000001192,210886.30000001192,,210886.30000001192,,210900.535,8,400,,,
sequence,flow.Sequence,4_14,2023-09-15T17:13:05.855Z,,0,,,4250.995000011928,completion,,,,,false,,,,210886.40000000596,210886.30000001192,206618.666,206628.30000001192,206635.305,210900.535,8,400,,,
trial,html.Screen,4_15_0,2023-09-15T17:13:10.433Z,,0,1,,4562.9649999999965,response,ISIC_6581765.JPG,5,ISIC_9081663.JPG,ISIC_9081663.JPG,false,0,keypress(z),500,215463.70000001788,215463.5,210884.015,210886.5,210900.535,215465.599,8,400,16,,ISIC_6581765.JPG
break,html.Screen,4_15_1,2023-09-15T17:13:10.433Z,,0,,,NaN,,,,,,false,,,,215464.40000000596,215464.20000001788,,215463.90000000596,,215465.599,8,400,,,
break_continue,html.Screen,4_15_2,2023-09-15T17:13:10.434Z,,0,,,NaN,,,,,,false,,,,215464.70000001788,215464.59999999404,,215464.5,,215465.599,8,400,,,
sequence,flow.Sequence,4_15,2023-09-15T17:13:10.434Z,,0,,,4564.064999994036,completion,,,,,false,,,,215464.70000001788,215464.59999999404,210884.015,210886.5,210900.535,215465.599,8,400,,,
trial,html.Screen,4_16_0,2023-09-15T17:13:14.326Z,,0,1,,3891.601000017894,response,ISIC_6390738.JPG,5,ISIC_0069952.JPG,ISIC_0069952.JPG,false,0,keypress(z),500,219357.40000000596,219357.20000001788,215449,215464.80000001192,215465.599,219364.236,8,400,17,,ISIC_6390738.JPG
break,html.Screen,4_16_1,2023-09-15T17:13:14.327Z,,0,,,NaN,,,,,,false,,,,219357.90000000596,219357.80000001192,,219357.5,,219364.236,8,400,,,
break_continue,html.Screen,4_16_2,2023-09-15T17:13:14.327Z,,0,,,NaN,,,,,,false,,,,219358.20000001788,219358.09999999404,,219358,,219364.236,8,400,,,
sequence,flow.Sequence,4_16,2023-09-15T17:13:14.327Z,,0,,,3892.500999994052,completion,,,,,false,,,,219358.30000001192,219358.09999999404,215449,215464.70000001788,215465.599,219364.236,8,400,,,
trial,html.Screen,4_17_0,2023-09-15T17:13:18.169Z,,0,1,,3834.964000017877,response,ISIC_0030512.JPG,5,ISIC_0006116.JPG,ISIC_0006116.JPG,false,0,keypress(z),500,223199.5,223199.20000001788,219347.753,219358.40000000596,219364.236,223212.988,8,400,18,,ISIC_0030512.JPG
break,html.Screen,4_17_1,2023-09-15T17:13:18.169Z,,0,,,NaN,,,,,,false,,,,223200.20000001788,223200,,223199.80000001192,,223212.988,8,400,,,
break_continue,html.Screen,4_17_2,2023-09-15T17:13:18.169Z,,0,,,NaN,,,,,,false,,,,223200.5,223200.30000001192,,223200.30000001192,,223212.988,8,400,,,
sequence,flow.Sequence,4_17,2023-09-15T17:13:18.169Z,,0,,,3836.0640000119165,completion,,,,,false,,,,223200.5,223200.30000001192,219347.753,219358.40000000596,219364.236,223212.988,8,400,,,
trial,html.Screen,4_18_0,2023-09-15T17:13:21.435Z,,0,1,,3252.9120000059484,response,ISIC_4462476.JPG,5,ISIC_9439034.JPG,ISIC_4462476.JPG,false,1,keypress(m),500,226466.20000001788,226465.90000000596,223196.429,223200.5,223212.988,226478.543,8,400,19,,ISIC_9439034.JPG
break,html.Screen,4_18_1,2023-09-15T17:13:21.436Z,,0,,,NaN,,,,,,false,,,,226467.09999999404,226467,,226466.40000000596,,226478.543,8,400,,,
break_continue,html.Screen,4_18_2,2023-09-15T17:13:21.436Z,,0,,,NaN,,,,,,false,,,,226467.40000000596,226467.30000001192,,226467.30000001192,,226478.543,8,400,,,
sequence,flow.Sequence,4_18,2023-09-15T17:13:21.437Z,,0,,,3254.312000011909,completion,,,,,false,,,,226467.59999999404,226467.30000001192,223196.429,223200.5,223212.988,226478.543,8,400,,,
trial,html.Screen,4_19_0,2023-09-15T17:13:25.438Z,,0,1,,3989.956999999995,response,ISIC_0010962.JPG,4,ISIC_0011130.JPG,ISIC_0010962.JPG,false,1,keypress(m),500,230468.90000000596,230468.5,226462.222,226467.80000001192,226478.543,230477.154,8,400,20,,ISIC_0011130.JPG
break,html.Screen,4_19_1,2023-09-15T17:13:25.439Z,,0,,,NaN,,,,,,false,,,,230469.5,230469.5,,230469.09999999404,,230477.154,8,400,,,
break_continue,html.Screen,4_19_2,2023-09-15T17:13:25.439Z,,0,,,NaN,,,,,,false,,,,230469.70000001788,230469.59999999404,,230469.59999999404,,230477.154,8,400,,,
sequence,flow.Sequence,4_19,2023-09-15T17:13:25.439Z,,0,,,3991.0569999940344,completion,,,,,false,,,,230469.80000001192,230469.59999999404,226462.222,226467.70000001788,226478.543,230477.154,8,400,,,
trial,html.Screen,4_20_0,2023-09-15T17:13:29.364Z,,0,1,,3917.8459999999905,response,ISIC_0056246.JPG,5,ISIC_0071778.JPG,ISIC_0071778.JPG,false,0,keypress(z),500,234395.20000001788,234395,230460.357,230469.80000001192,230477.154,234409.139,8,400,21,,ISIC_0056246.JPG
break,html.Screen,4_20_1,2023-09-15T17:13:29.365Z,,0,,,NaN,,,,,,false,,,,234395.59999999404,234395.5,,234395.20000001788,,234409.139,8,400,,,
break_continue,html.Screen,4_20_2,2023-09-15T17:13:29.365Z,,0,,,NaN,,,,,,false,,,,234395.70000001788,234395.70000001788,,234395.59999999404,,234409.139,8,400,,,
sequence,flow.Sequence,4_20,2023-09-15T17:13:29.365Z,,0,,,3918.546000017872,completion,,,,,false,,,,234395.80000001192,234395.70000001788,230460.357,230469.80000001192,230477.154,234409.139,8,400,,,
trial,html.Screen,4_21_0,2023-09-15T17:13:32.775Z,,0,1,,3396.3610000000044,response,ISIC_3578186.JPG,4,ISIC_1264576.JPG,ISIC_1264576.JPG,false,0,keypress(z),500,237805.70000001788,237805.5,234392.453,234395.90000000596,234409.139,237807.979,8,400,22,,ISIC_3578186.JPG
break,html.Screen,4_21_1,2023-09-15T17:13:32.775Z,,0,,,NaN,,,,,,false,,,,237806.40000000596,237806.20000001788,,237805.90000000596,,237807.979,8,400,,,
break_continue,html.Screen,4_21_2,2023-09-15T17:13:32.775Z,,0,,,NaN,,,,,,false,,,,237806.5,237806.5,,237806.5,,237807.979,8,400,,,
sequence,flow.Sequence,4_21,2023-09-15T17:13:32.776Z,,0,,,3397.3610000000044,completion,,,,,false,,,,237806.5,237806.5,234392.453,234395.80000001192,234409.139,237807.979,8,400,,,
trial,html.Screen,4_22_0,2023-09-15T17:13:35.865Z,,0,1,,3087.821000011929,response,ISIC_0033885.JPG,5,ISIC_0064125.JPG,ISIC_0064125.JPG,false,0,keypress(z),500,240896.09999999404,240895.80000001192,237791.433,237806.59999999404,237807.979,240907.179,8,400,23,,ISIC_0033885.JPG
break,html.Screen,4_22_1,2023-09-15T17:13:35.866Z,,0,,,NaN,,,,,,false,,,,240896.80000001192,240896.59999999404,,240896.30000001192,,240907.179,8,400,,,
break_continue,html.Screen,4_22_2,2023-09-15T17:13:35.866Z,,0,,,NaN,,,,,,false,,,,240897,240897,,240896.90000000596,,240907.179,8,400,,,
sequence,flow.Sequence,4_22,2023-09-15T17:13:35.866Z,,0,,,3089.021000000008,completion,,,,,false,,,,240897.09999999404,240897,237791.433,237806.59999999404,237807.979,240907.179,8,400,,,
trial,html.Screen,4_23_0,2023-09-15T17:13:40.588Z,,0,1,,4711.221000005957,response,ISIC_2039579.JPG,5,ISIC_0070566.JPG,ISIC_2039579.JPG,false,1,keypress(m),500,245618.70000001788,245618.40000000596,240890.616,240897.30000001192,240907.179,245621.967,8,400,24,,ISIC_0070566.JPG
break,html.Screen,4_23_1,2023-09-15T17:13:40.588Z,,0,,,NaN,,,,,,false,,,,245619.5,245619.40000000596,,245618.90000000596,,245621.967,8,400,,,
break_continue,html.Screen,4_23_2,2023-09-15T17:13:40.589Z,,0,,,NaN,,,,,,false,,,,245619.5,245619.5,,245619.5,,245621.967,8,400,,,
sequence,flow.Sequence,4_23,2023-09-15T17:13:40.589Z,,0,,,4712.320999999996,completion,,,,,false,,,,245619.70000001788,245619.5,240890.616,240897.30000001192,240907.179,245621.967,8,400,,,
trial,html.Screen,4_24_0,2023-09-15T17:13:44.000Z,,0,1,,3408.6329999940353,response,ISIC_0062468.JPG,5,ISIC_2095347.JPG,ISIC_2095347.JPG,false,0,keypress(z),500,249030.80000001192,249030.59999999404,245605.231,245619.70000001788,245621.967,249037.524,8,400,25,,ISIC_0062468.JPG
break,html.Screen,4_24_1,2023-09-15T17:13:44.000Z,,0,,,NaN,,,,,,false,,,,249031.20000001788,249031.09999999404,,249030.90000000596,,249037.524,8,400,,,
break_continue,html.Screen,4_24_2,2023-09-15T17:13:44.000Z,,0,,,NaN,,,,,,false,,,,249031.40000000596,249031.30000001192,,249031.30000001192,,249037.524,8,400,,,
sequence,flow.Sequence,4_24,2023-09-15T17:13:44.000Z,,0,,,3409.3330000119167,completion,,,,,false,,,,249031.40000000596,249031.30000001192,245605.231,245619.70000001788,245621.967,249037.524,8,400,,,
trial,html.Screen,4_25_0,2023-09-15T17:13:48.770Z,,0,1,,4762.876000005956,response,ISIC_0011286.JPG,5,ISIC_0028129.JPG,ISIC_0028129.JPG,false,0,keypress(z),500,253800.59999999404,253800.40000000596,249020.793,249031.5,249037.524,253802.452,8,400,26,,ISIC_0011286.JPG
break,html.Screen,4_25_1,2023-09-15T17:13:48.770Z,,0,,,NaN,,,,,,false,,,,253801.20000001788,253801.09999999404,,253800.80000001192,,253802.452,8,400,,,
break_continue,html.Screen,4_25_2,2023-09-15T17:13:48.771Z,,0,,,NaN,,,,,,false,,,,253801.5,253801.40000000596,,253801.40000000596,,253802.452,8,400,,,
sequence,flow.Sequence,4_25,2023-09-15T17:13:48.771Z,,0,,,4763.876000005956,completion,,,,,false,,,,253801.59999999404,253801.40000000596,249020.793,249031.5,249037.524,253802.452,8,400,,,
trial,html.Screen,4_26_0,2023-09-15T17:13:52.427Z,,0,1,,3655.4480000059702,response,ISIC_7301963.JPG,6,ISIC_0026484.JPG,ISIC_7301963.JPG,false,1,keypress(m),500,257458,257457.90000000596,253785.877,253801.80000001192,253802.452,257467.881,8,400,27,,ISIC_0026484.JPG
break,html.Screen,4_26_1,2023-09-15T17:13:52.427Z,,0,,,NaN,,,,,,false,,,,257458.30000001192,257458.30000001192,,257458.09999999404,,257467.881,8,400,,,
break_continue,html.Screen,4_26_2,2023-09-15T17:13:52.428Z,,0,,,NaN,,,,,,false,,,,257458.70000001788,257458.5,,257458.40000000596,,257467.881,8,400,,,
sequence,flow.Sequence,4_26,2023-09-15T17:13:52.428Z,,0,,,3656.04800000001,completion,,,,,false,,,,257458.80000001192,257458.5,253785.877,253801.70000001788,253802.452,257467.881,8,400,,,
trial,html.Screen,4_27_0,2023-09-15T17:13:55.949Z,,0,1,,3511.5190000059665,response,ISIC_6155981.JPG,5,ISIC_1897507.JPG,ISIC_6155981.JPG,false,1,keypress(m),500,260979.80000001192,260979.40000000596,257451.626,257458.90000000596,257467.881,260983.377,8,400,28,,ISIC_1897507.JPG
break,html.Screen,4_27_1,2023-09-15T17:13:55.949Z,,0,,,NaN,,,,,,false,,,,260980.20000001788,260980.09999999404,,260979.90000000596,,260983.377,8,400,,,
break_continue,html.Screen,4_27_2,2023-09-15T17:13:55.949Z,,0,,,NaN,,,,,,false,,,,260980.40000000596,260980.30000001192,,260980.20000001788,,260983.377,8,400,,,
sequence,flow.Sequence,4_27,2023-09-15T17:13:55.949Z,,0,,,3512.419000011927,completion,,,,,false,,,,260980.40000000596,260980.30000001192,257451.626,257458.80000001192,257467.881,260983.377,8,400,,,
trial,html.Screen,4_28_0,2023-09-15T17:14:00.095Z,,0,1,,4142.622999999992,response,ISIC_7096885.JPG,5,ISIC_3992223.JPG,ISIC_3992223.JPG,false,0,keypress(z),500,265126.3000000119,265126,260966.696,260980.5,260983.377,265131.999,8,400,29,,ISIC_7096885.JPG
break,html.Screen,4_28_1,2023-09-15T17:14:00.096Z,,0,,,NaN,,,,,,false,,,,265126.7000000179,265126.5,,265126.3000000119,,265131.999,8,400,,,
break_continue,html.Screen,4_28_2,2023-09-15T17:14:00.096Z,,0,,,NaN,,,,,,false,,,,265126.8000000119,265126.8000000119,,265126.7000000179,,265131.999,8,400,,,
sequence,flow.Sequence,4_28,2023-09-15T17:14:00.096Z,,0,,,4143.423000011913,completion,,,,,false,,,,265126.90000000596,265126.8000000119,260966.696,260980.5,260983.377,265131.999,8,400,,,
trial,html.Screen,4_29_0,2023-09-15T17:14:04.322Z,,0,1,,4220.500999999989,response,ISIC_0033217.JPG,5,ISIC_0030116.JPG,ISIC_0030116.JPG,false,0,keypress(z),500,269352.8000000119,269352.5,265115.776,265126.90000000596,265131.999,269363.807,8,400,30,,ISIC_0033217.JPG
break,html.Screen,4_29_1,2023-09-15T17:14:04.323Z,,0,,,NaN,,,,,,false,,,,269353.5,269353.3000000119,,269353,,269363.807,8,400,,,
break_continue,html.Screen,4_29_2,2023-09-15T17:14:04.323Z,,0,,,NaN,,,,,,false,,,,269353.8000000119,269353.7000000179,,269353.59999999404,,269363.807,8,400,,,
sequence,flow.Sequence,4_29,2023-09-15T17:14:04.323Z,,0,,,4221.701000017871,completion,,,,,false,,,,269353.90000000596,269353.7000000179,265115.776,265126.90000000596,265131.999,269363.807,8,400,,,
trial,html.Screen,4_30_0,2023-09-15T17:14:08.692Z,,0,1,,4359.093000005989,response,ISIC_0231745.JPG,5,ISIC_4247149.JPG,ISIC_0231745.JPG,false,1,keypress(m),500,273723.09999999404,273722.90000000596,269347.597,269354,269363.807,273729.514,8,400,31,,ISIC_4247149.JPG
break,html.Screen,4_30_1,2023-09-15T17:14:08.693Z,,0,,,NaN,,,,,,false,,,,273723.90000000596,273723.7000000179,,273723.3000000119,,273729.514,8,400,,,
break_continue,html.Screen,4_30_2,2023-09-15T17:14:08.694Z,,0,,,NaN,,,,,,false,,,,273724.59999999404,273724.40000000596,,273724.3000000119,,273729.514,8,400,,,
sequence,flow.Sequence,4_30,2023-09-15T17:14:08.694Z,,0,,,4360.593000005989,completion,,,,,false,,,,273724.8000000119,273724.40000000596,269347.597,269353.90000000596,269363.807,273729.514,8,400,,,
trial,html.Screen,4_31_0,2023-09-15T17:14:12.168Z,,0,1,,3468.886000005936,response,ISIC_0010304.JPG,6,ISIC_4253346.JPG,ISIC_4253346.JPG,false,0,keypress(z),500,277198.7000000179,277198.40000000596,273712.43,273724.90000000596,273729.514,277211.44,8,400,32,,ISIC_0010304.JPG
break,html.Screen,4_31_1,2023-09-15T17:14:12.168Z,,0,,,NaN,,,,,,false,,,,277199.2000000179,277199,,277198.8000000119,,277211.44,8,400,,,
break_continue,html.Screen,4_31_2,2023-09-15T17:14:12.168Z,,0,,,NaN,,,,,,false,,,,277199.40000000596,277199.3000000119,,277199.2000000179,,277211.44,8,400,,,
sequence,flow.Sequence,4_31,2023-09-15T17:14:12.168Z,,0,,,3469.7860000118962,completion,,,,,false,,,,277199.40000000596,277199.3000000119,273712.43,273724.90000000596,273729.514,277211.44,8,400,,,
trial,html.Screen,4_32_0,2023-09-15T17:14:16.220Z,,0,1,,4039.760000017879,response,ISIC_1076474.JPG,5,ISIC_7564545.JPG,ISIC_1076474.JPG,false,1,keypress(m),500,281251.3000000119,281251.2000000179,277194.575,277199.5,277211.44,281259.785,8,400,33,,ISIC_7564545.JPG
break,html.Screen,4_32_1,2023-09-15T17:14:16.221Z,,0,,,NaN,,,,,,false,,,,281251.8000000119,281251.59999999404,,281251.40000000596,,281259.785,8,400,,,
break_continue,html.Screen,4_32_2,2023-09-15T17:14:16.221Z,,0,,,NaN,,,,,,false,,,,281252,281252,,281251.90000000596,,281259.785,8,400,,,
sequence,flow.Sequence,4_32,2023-09-15T17:14:16.221Z,,0,,,4040.5599999999977,completion,,,,,false,,,,281252.2000000179,281252,277194.575,277199.5,277211.44,281259.785,8,400,,,
trial,html.Screen,4_33_0,2023-09-15T17:14:20.895Z,,0,1,,4665.915000017907,response,ISIC_0065477.JPG,5,ISIC_0053760.JPG,ISIC_0065477.JPG,false,1,keypress(m),500,285925.90000000596,285925.7000000179,281243.146,281252.3000000119,281259.785,285941.486,8,400,34,,ISIC_0053760.JPG
break,html.Screen,4_33_1,2023-09-15T17:14:20.895Z,,0,,,NaN,,,,,,false,,,,285926.3000000119,285926.2000000179,,285926,,285941.486,8,400,,,
break_continue,html.Screen,4_33_2,2023-09-15T17:14:20.896Z,,0,,,NaN,,,,,,false,,,,285926.59999999404,285926.40000000596,,285926.3000000119,,285941.486,8,400,,,
sequence,flow.Sequence,4_33,2023-09-15T17:14:20.896Z,,0,,,4666.615000005986,completion,,,,,false,,,,285926.7000000179,285926.40000000596,281243.146,281252.3000000119,281259.785,285941.486,8,400,,,
trial,html.Screen,4_34_0,2023-09-15T17:14:24.722Z,,0,1,,3811.5140000000247,response,ISIC_3478473.JPG,5,ISIC_5772144.JPG,ISIC_5772144.JPG,false,0,keypress(z),500,289753.3000000119,289753,285925.103,285926.90000000596,285941.486,289756.878,8,400,35,,ISIC_3478473.JPG
break,html.Screen,4_34_1,2023-09-15T17:14:24.723Z,,0,,,NaN,,,,,,false,,,,289753.7000000179,289753.7000000179,,289753.5,,289756.878,8,400,,,
break_continue,html.Screen,4_34_2,2023-09-15T17:14:24.723Z,,0,,,NaN,,,,,,false,,,,289754.09999999404,289754,,289753.90000000596,,289756.878,8,400,,,
sequence,flow.Sequence,4_34,2023-09-15T17:14:24.723Z,,0,,,3812.5140000000247,completion,,,,,false,,,,289754.2000000179,289754,285925.103,285926.8000000119,285941.486,289756.878,8,400,,,
trial,html.Screen,4_35_0,2023-09-15T17:14:28.027Z,,0,1,,3300.5220000059344,response,ISIC_0010651.JPG,5,ISIC_0004075.JPG,ISIC_0004075.JPG,false,0,keypress(z),500,293057.7000000179,293057.40000000596,289740.475,289754.40000000596,289756.878,293072.587,8,400,36,,ISIC_0010651.JPG
break,html.Screen,4_35_1,2023-09-15T17:14:28.027Z,,0,,,NaN,,,,,,false,,,,293058.40000000596,293058.3000000119,,293057.90000000596,,293072.587,8,400,,,
break_continue,html.Screen,4_35_2,2023-09-15T17:14:28.028Z,,0,,,NaN,,,,,,false,,,,293058.59999999404,293058.5,,293058.5,,293072.587,8,400,,,
sequence,flow.Sequence,4_35,2023-09-15T17:14:28.028Z,,0,,,3301.621999999974,completion,,,,,false,,,,293058.8000000119,293058.5,289740.475,289754.40000000596,289756.878,293072.587,8,400,,,
trial,html.Screen,4_36_0,2023-09-15T17:14:32.130Z,,0,1,,4088.01299999404,response,ISIC_8922355.JPG,5,ISIC_6377622.JPG,ISIC_6377622.JPG,false,0,keypress(z),500,297160.90000000596,297160.59999999404,293055.819,293058.8000000119,293072.587,297171.064,8,400,37,,ISIC_8922355.JPG
break,html.Screen,4_36_1,2023-09-15T17:14:32.131Z,,0,,,NaN,,,,,,false,,,,297161.7000000179,297161.40000000596,,297161.2000000179,,297171.064,8,400,,,
break_continue,html.Screen,4_36_2,2023-09-15T17:14:32.131Z,,0,,,NaN,,,,,,false,,,,297162,297161.90000000596,,297161.8000000119,,297171.064,8,400,,,
sequence,flow.Sequence,4_36,2023-09-15T17:14:32.131Z,,0,,,4089.313000005961,completion,,,,,false,,,,297162.09999999404,297161.90000000596,293055.819,293058.8000000119,293072.587,297171.064,8,400,,,
trial,html.Screen,4_37_0,2023-09-15T17:14:35.557Z,,0,1,,3416.236000011908,response,ISIC_0034002.JPG,5,ISIC_0060266.JPG,ISIC_0034002.JPG,false,1,keypress(m),500,300587.59999999404,300587.3000000119,297154.51,297162.2000000179,297171.064,300603.35,8,400,38,,ISIC_0060266.JPG
break,html.Screen,4_37_1,2023-09-15T17:14:35.557Z,,0,,,NaN,,,,,,false,,,,300588,300588,,300587.7000000179,,300603.35,8,400,,,
break_continue,html.Screen,4_37_2,2023-09-15T17:14:35.557Z,,0,,,NaN,,,,,,false,,,,300588.2000000179,300588.2000000179,,300588.09999999404,,300603.35,8,400,,,
sequence,flow.Sequence,4_37,2023-09-15T17:14:35.557Z,,0,,,3417.1360000178684,completion,,,,,false,,,,300588.2000000179,300588.2000000179,297154.51,297162.09999999404,297171.064,300603.35,8,400,,,
trial,html.Screen,4_38_0,2023-09-15T17:14:39.047Z,,0,1,,3474.5500000059837,response,ISIC_7077047.JPG,5,ISIC_4189981.JPG,ISIC_4189981.JPG,false,0,keypress(z),500,304078.2000000179,304077.90000000596,300586.726,300588.40000000596,300603.35,304085.287,8,400,39,,ISIC_7077047.JPG
break,html.Screen,4_38_1,2023-09-15T17:14:39.048Z,,0,,,NaN,,,,,,false,,,,304078.7000000179,304078.59999999404,,304078.40000000596,,304085.287,8,400,,,
break_continue,html.Screen,4_38_2,2023-09-15T17:14:39.048Z,,0,,,NaN,,,,,,false,,,,304078.8000000119,304078.8000000119,,304078.7000000179,,304085.287,8,400,,,
sequence,flow.Sequence,4_38,2023-09-15T17:14:39.048Z,,0,,,3475.450000011944,completion,,,,,false,,,,304078.90000000596,304078.8000000119,300586.726,300588.40000000596,300603.35,304085.287,8,400,,,
trial,html.Screen,4_39_0,2023-09-15T17:14:42.426Z,,0,1,,3372.0130000119098,response,ISIC_5239856.JPG,5,ISIC_9860895.JPG,ISIC_9860895.JPG,false,0,keypress(z),500,307457.40000000596,307457.3000000119,304069.247,304079,304085.287,307467.713,8,400,40,,ISIC_5239856.JPG
break,html.Screen,4_39_1,2023-09-15T17:14:42.427Z,,0,,,NaN,,,,,,false,,,,307457.7000000179,307457.59999999404,,307457.5,,307467.713,8,400,,,
break_continue,html.Screen,4_39_2,2023-09-15T17:14:42.427Z,,0,,,NaN,,,,,,false,,,,307457.8000000119,307457.8000000119,,307457.7000000179,,307467.713,8,400,,,
sequence,flow.Sequence,4_39,2023-09-15T17:14:42.427Z,,0,,,3372.5130000119098,completion,,,,,false,,,,307457.8000000119,307457.8000000119,304069.247,304079,304085.287,307467.713,8,400,,,
trial,html.Screen,4_40_0,2023-09-15T17:14:45.996Z,,0,1,,3559.087000011932,response,ISIC_0067789.JPG,5,ISIC_0000180.JPG,ISIC_0067789.JPG,false,1,keypress(m),500,311027.09999999404,311026.8000000119,307450.977,307457.90000000596,307467.713,311033.008,8,400,41,,ISIC_0000180.JPG
break,html.Screen,4_40_1,2023-09-15T17:14:45.997Z,,0,,,NaN,,,,,,false,,,,311027.8000000119,311027.7000000179,,311027.40000000596,,311033.008,8,400,,,
break_continue,html.Screen,4_40_2,2023-09-15T17:14:45.997Z,,0,,,NaN,,,,,,false,,,,311027.90000000596,311027.90000000596,,311027.8000000119,,311033.008,8,400,,,
sequence,flow.Sequence,4_40,2023-09-15T17:14:45.997Z,,0,,,3560.1870000059716,completion,,,,,false,,,,311027.90000000596,311027.90000000596,307450.977,307457.90000000596,307467.713,311033.008,8,400,,,
trial,html.Screen,4_41_0,2023-09-15T17:14:49.407Z,,0,1,,3404.892000005988,response,ISIC_0057180.JPG,5,ISIC_0061021.JPG,ISIC_0061021.JPG,false,0,keypress(z),500,314438.2000000179,314437.90000000596,311016.654,311028,311033.008,314448.404,8,400,42,,ISIC_0057180.JPG
break,html.Screen,4_41_1,2023-09-15T17:14:49.408Z,,0,,,NaN,,,,,,false,,,,314438.59999999404,314438.5,,314438.3000000119,,314448.404,8,400,,,
break_continue,html.Screen,4_41_2,2023-09-15T17:14:49.408Z,,0,,,NaN,,,,,,false,,,,314438.8000000119,314438.7000000179,,314438.7000000179,,314448.404,8,400,,,
sequence,flow.Sequence,4_41,2023-09-15T17:14:49.408Z,,0,,,3405.692000017909,completion,,,,,false,,,,314438.90000000596,314438.7000000179,311016.654,311027.90000000596,311033.008,314448.404,8,400,,,
trial,html.Screen,4_42_0,2023-09-15T17:14:52.673Z,,0,1,,3255.695999994059,response,ISIC_1205826.JPG,5,ISIC_0028716.JPG,ISIC_1205826.JPG,false,1,keypress(m),500,317704.2000000179,317704.09999999404,314432.162,314438.90000000596,314448.404,317713.986,8,400,43,,ISIC_0028716.JPG
break,html.Screen,4_42_1,2023-09-15T17:14:52.674Z,,0,,,NaN,,,,,,false,,,,317704.90000000596,317704.7000000179,,317704.40000000596,,317713.986,8,400,,,
break_continue,html.Screen,4_42_2,2023-09-15T17:14:52.674Z,,0,,,NaN,,,,,,false,,,,317705.2000000179,317705.09999999404,,317705,,317713.986,8,400,,,
sequence,flow.Sequence,4_42,2023-09-15T17:14:52.674Z,,0,,,3256.695999994059,completion,,,,,false,,,,317705.40000000596,317705.09999999404,314432.162,314438.90000000596,314448.404,317713.986,8,400,,,
trial,html.Screen,4_43_0,2023-09-15T17:14:56.778Z,,0,1,,4095.3140000119456,response,ISIC_8711854.JPG,5,ISIC_5476463.JPG,ISIC_5476463.JPG,false,0,keypress(z),500,321809.5,321809.3000000119,317697.403,317705.5,317713.986,321812.57,8,400,44,,ISIC_8711854.JPG
break,html.Screen,4_43_1,2023-09-15T17:14:56.779Z,,0,,,NaN,,,,,,false,,,,321809.90000000596,321809.8000000119,,321809.59999999404,,321812.57,8,400,,,
break_continue,html.Screen,4_43_2,2023-09-15T17:14:56.779Z,,0,,,NaN,,,,,,false,,,,321810,321810,,321809.90000000596,,321812.57,8,400,,,
sequence,flow.Sequence,4_43,2023-09-15T17:14:56.779Z,,0,,,4096.014000000025,completion,,,,,false,,,,321810.09999999404,321810,317697.403,317705.5,317713.986,321812.57,8,400,,,
trial,html.Screen,4_44_0,2023-09-15T17:15:00.578Z,,0,1,,3796.6300000178744,response,ISIC_0056326.JPG,6,ISIC_0024271.JPG,ISIC_0056326.JPG,false,1,keypress(m),500,325609.40000000596,325609.2000000179,321795.974,321810.2000000179,321812.57,325611.314,8,400,45,,ISIC_0024271.JPG
break,html.Screen,4_44_1,2023-09-15T17:15:00.579Z,,0,,,NaN,,,,,,false,,,,325609.7000000179,325609.59999999404,,325609.5,,325611.314,8,400,,,
break_continue,html.Screen,4_44_2,2023-09-15T17:15:00.579Z,,0,,,NaN,,,,,,false,,,,325609.8000000119,325609.7000000179,,325609.7000000179,,325611.314,8,400,,,
sequence,flow.Sequence,4_44,2023-09-15T17:15:00.579Z,,0,,,3797.1300000178744,completion,,,,,false,,,,325609.8000000119,325609.7000000179,321795.974,321810.09999999404,321812.57,325611.314,8,400,,,
trial,html.Screen,4_45_0,2023-09-15T17:15:04.604Z,,0,1,,4023.185999999987,response,ISIC_5843614.JPG,5,ISIC_0014994.JPG,ISIC_0014994.JPG,false,0,keypress(z),500,329634.7000000179,329634.5,325594.682,325609.90000000596,325611.314,329643.237,8,400,46,,ISIC_5843614.JPG
break,html.Screen,4_45_1,2023-09-15T17:15:04.604Z,,0,,,NaN,,,,,,false,,,,329635.2000000179,329635.09999999404,,329634.90000000596,,329643.237,8,400,,,
break_continue,html.Screen,4_45_2,2023-09-15T17:15:04.604Z,,0,,,NaN,,,,,,false,,,,329635.59999999404,329635.40000000596,,329635.40000000596,,329643.237,8,400,,,
sequence,flow.Sequence,4_45,2023-09-15T17:15:04.605Z,,0,,,4024.0860000059474,completion,,,,,false,,,,329635.7000000179,329635.40000000596,325594.682,325609.90000000596,325611.314,329643.237,8,400,,,
trial,html.Screen,4_46_0,2023-09-15T17:15:08.111Z,,0,1,,3498.4630000178586,response,ISIC_0054087.JPG,5,ISIC_4311777.JPG,ISIC_4311777.JPG,false,0,keypress(z),500,333141.90000000596,333141.7000000179,329626.615,329635.8000000119,329643.237,333158.675,8,400,47,,ISIC_0054087.JPG
break,html.Screen,4_46_1,2023-09-15T17:15:08.111Z,,0,,,NaN,,,,,,false,,,,333142.3000000119,333142.2000000179,,333142,,333158.675,8,400,,,
break_continue,html.Screen,4_46_2,2023-09-15T17:15:08.111Z,,0,,,NaN,,,,,,false,,,,333142.5,333142.40000000596,,333142.3000000119,,333158.675,8,400,,,
sequence,flow.Sequence,4_46,2023-09-15T17:15:08.111Z,,0,,,3499.1630000059376,completion,,,,,false,,,,333142.5,333142.40000000596,329626.615,329635.7000000179,329643.237,333158.675,8,400,,,
trial,html.Screen,4_47_0,2023-09-15T17:15:11.636Z,,0,1,,3507.8250000000116,response,ISIC_0067008.JPG,4,ISIC_0054377.JPG,ISIC_0067008.JPG,false,1,keypress(m),500,336666.7000000179,336666.5,333142.114,333142.59999999404,333158.675,336674.118,8,400,48,,ISIC_0054377.JPG
break,html.Screen,4_47_1,2023-09-15T17:15:11.636Z,,0,,,NaN,,,,,,false,,,,336667.5,336667.3000000119,,336667,,336674.118,8,400,,,
break_continue,html.Screen,4_47_2,2023-09-15T17:15:11.637Z,,0,,,NaN,,,,,,false,,,,336667.7000000179,336667.7000000179,,336667.59999999404,,336674.118,8,400,,,
sequence,flow.Sequence,4_47,2023-09-15T17:15:11.637Z,,0,,,3509.025000017893,completion,,,,,false,,,,336668,336667.7000000179,333142.114,333142.59999999404,333158.675,336674.118,8,400,,,
trial,html.Screen,4_48_0,2023-09-15T17:15:16.743Z,,0,1,,5099.981999994023,response,ISIC_9335652.JPG,4,ISIC_0026910.JPG,ISIC_0026910.JPG,false,0,keypress(z),500,341774.40000000596,341774.09999999404,336657.622,336668.2000000179,336674.118,341789.04,8,400,49,,ISIC_9335652.JPG
break,html.Screen,4_48_1,2023-09-15T17:15:16.744Z,,0,,,NaN,,,,,,false,,,,341774.8000000119,341774.7000000179,,341774.5,,341789.04,8,400,,,
break_continue,html.Screen,4_48_2,2023-09-15T17:15:16.744Z,,0,,,NaN,,,,,,false,,,,341774.90000000596,341774.90000000596,,341774.90000000596,,341789.04,8,400,,,
sequence,flow.Sequence,4_48,2023-09-15T17:15:16.744Z,,0,,,5100.782000005944,completion,,,,,false,,,,341775,341774.90000000596,336657.622,336668.09999999404,336674.118,341789.04,8,400,,,
trial,html.Screen,4_49_0,2023-09-15T17:15:21.145Z,,0,1,,4386.760000011942,response,ISIC_0010411.JPG,5,ISIC_7319169.JPG,ISIC_7319169.JPG,false,0,keypress(z),500,346176,346175.8000000119,341772.561,341775.09999999404,341789.04,346187.533,8,400,50,,ISIC_0010411.JPG
break,html.Screen,4_49_1,2023-09-15T17:15:31.137Z,,0,,,9996.62400000001,timeout,,,,,false,,,,356168.40000000596,356167.51,346170.966,346176.3000000119,346187.533,356184.157,8,400,,,
break_continue,html.Screen,4_49_2,2023-09-15T17:15:38.155Z,,0,,,6997.543000017875,response,,,,,false,continue,keypress(Space),,363186.3000000119,363181.7000000179,356167.51,356168.5,356184.157,363198.428,8,400,,,
sequence,flow.Sequence,4_49,2023-09-15T17:15:38.155Z,,0,,,21392.660000017902,completion,,,,,false,,,,363186.40000000596,363181.7000000179,341772.561,341775,341789.04,363198.428,8,400,,,
trial,html.Screen,4_50_0,2023-09-15T17:15:42.237Z,,0,2,,4069.171999994025,response,ISIC_4397068.JPG,4,ISIC_0034071.JPG,ISIC_4397068.JPG,false,1,keypress(m),500,367268.09999999404,367267.59999999404,363179.782,363186.40000000596,363198.428,367280.34,8,400,1,,ISIC_0034071.JPG
break,html.Screen,4_50_1,2023-09-15T17:15:42.237Z,,0,,,NaN,,,,,,false,,,,367268.5,367268.40000000596,,367268.09999999404,,367280.34,8,400,,,
break_continue,html.Screen,4_50_2,2023-09-15T17:15:42.238Z,,0,,,NaN,,,,,,false,,,,367268.59999999404,367268.59999999404,,367268.59999999404,,367280.34,8,400,,,
sequence,flow.Sequence,4_50,2023-09-15T17:15:42.238Z,,0,,,4070.171999994025,completion,,,,,false,,,,367268.7000000179,367268.59999999404,363179.782,363186.40000000596,363198.428,367280.34,8,400,,,
trial,html.Screen,4_51_0,2023-09-15T17:15:46.895Z,,0,2,,4645.360000017856,response,ISIC_0002026.JPG,5,ISIC_0440848.JPG,ISIC_0002026.JPG,false,1,keypress(m),500,371926.09999999404,371925.7000000179,367261.543,367268.8000000119,367280.34,371928.75,8,400,2,,ISIC_0440848.JPG
break,html.Screen,4_51_1,2023-09-15T17:15:46.896Z,,0,,,NaN,,,,,,false,,,,371926.59999999404,371926.5,,371926.3000000119,,371928.75,8,400,,,
break_continue,html.Screen,4_51_2,2023-09-15T17:15:46.896Z,,0,,,NaN,,,,,,false,,,,371926.90000000596,371926.8000000119,,371926.7000000179,,371928.75,8,400,,,
sequence,flow.Sequence,4_51,2023-09-15T17:15:46.896Z,,0,,,4646.460000011895,completion,,,,,false,,,,371927,371926.8000000119,367261.543,367268.8000000119,367280.34,371928.75,8,400,,,
trial,html.Screen,4_52_0,2023-09-15T17:15:50.724Z,,0,2,,3826.1500000059605,response,ISIC_7340926.JPG,5,ISIC_2937407.JPG,ISIC_2937407.JPG,false,0,keypress(z),500,375755.3000000119,375754.90000000596,371910.559,371927,371928.75,375760.898,8,400,3,,ISIC_7340926.JPG
break,html.Screen,4_52_1,2023-09-15T17:15:50.725Z,,0,,,NaN,,,,,,false,,,,375755.90000000596,375755.7000000179,,375755.40000000596,,375760.898,8,400,,,
break_continue,html.Screen,4_52_2,2023-09-15T17:15:50.725Z,,0,,,NaN,,,,,,false,,,,375756.09999999404,375756,,375755.90000000596,,375760.898,8,400,,,
sequence,flow.Sequence,4_52,2023-09-15T17:15:50.725Z,,0,,,3827.25,completion,,,,,false,,,,375756.3000000119,375756,371910.559,371927,371928.75,375760.898,8,400,,,
trial,html.Screen,4_53_0,2023-09-15T17:15:54.535Z,,0,2,,3804.802000017895,response,ISIC_0679553.JPG,6,ISIC_0069379.JPG,ISIC_0069379.JPG,false,0,keypress(z),500,379565.90000000596,379565.7000000179,375744.819,375756.3000000119,375760.898,379576.425,8,400,4,,ISIC_0679553.JPG
break,html.Screen,4_53_1,2023-09-15T17:15:54.535Z,,0,,,NaN,,,,,,false,,,,379566.40000000596,379566.3000000119,,379566.09999999404,,379576.425,8,400,,,
break_continue,html.Screen,4_53_2,2023-09-15T17:15:54.535Z,,0,,,NaN,,,,,,false,,,,379566.5,379566.5,,379566.5,,379576.425,8,400,,,
sequence,flow.Sequence,4_53,2023-09-15T17:15:54.536Z,,0,,,3805.6020000000135,completion,,,,,false,,,,379566.59999999404,379566.5,375744.819,375756.3000000119,375760.898,379576.425,8,400,,,
trial,html.Screen,4_54_0,2023-09-15T17:15:57.897Z,,0,2,,3351.174999994051,response,ISIC_5548914.JPG,5,ISIC_0033180.JPG,ISIC_5548914.JPG,false,1,keypress(m),500,382928,382927.59999999404,379550.807,379566.7000000179,379576.425,382941.622,8,400,5,,ISIC_0033180.JPG
break,html.Screen,4_54_1,2023-09-15T17:15:57.898Z,,0,,,NaN,,,,,,false,,,,382928.7000000179,382928.59999999404,,382928.2000000179,,382941.622,8,400,,,
break_continue,html.Screen,4_54_2,2023-09-15T17:15:57.898Z,,0,,,NaN,,,,,,false,,,,382929,382929,,382928.90000000596,,382941.622,8,400,,,
sequence,flow.Sequence,4_54,2023-09-15T17:15:57.898Z,,0,,,3352.5750000000116,completion,,,,,false,,,,382929.2000000179,382929,379550.807,379566.7000000179,379576.425,382941.622,8,400,,,
trial,html.Screen,4_55_0,2023-09-15T17:16:01.804Z,,0,2,,3892.878000000026,response,ISIC_0061371.JPG,6,ISIC_0055549.JPG,ISIC_0055549.JPG,false,0,keypress(z),500,386834.59999999404,386834.5,382926.15,382929.2000000179,382941.622,386840.657,8,400,6,,ISIC_0061371.JPG
break,html.Screen,4_55_1,2023-09-15T17:16:01.804Z,,0,,,NaN,,,,,,false,,,,386835,386834.90000000596,,386834.7000000179,,386840.657,8,400,,,
break_continue,html.Screen,4_55_2,2023-09-15T17:16:01.804Z,,0,,,NaN,,,,,,false,,,,386835.09999999404,386835.09999999404,,386835,,386840.657,8,400,,,
sequence,flow.Sequence,4_55,2023-09-15T17:16:01.804Z,,0,,,3893.4779999940656,completion,,,,,false,,,,386835.09999999404,386835.09999999404,382926.15,382929.2000000179,382941.622,386840.657,8,400,,,
trial,html.Screen,4_56_0,2023-09-15T17:16:06.590Z,,0,2,,4779.743000005954,response,ISIC_2743014.JPG,5,ISIC_6166247.JPG,ISIC_6166247.JPG,false,0,keypress(z),500,391620.7000000179,391620.40000000596,386832.719,386835.2000000179,386840.657,391639.579,8,400,7,,ISIC_2743014.JPG
break,html.Screen,4_56_1,2023-09-15T17:16:06.590Z,,0,,,NaN,,,,,,false,,,,391621.2000000179,391621.09999999404,,391620.8000000119,,391639.579,8,400,,,
break_continue,html.Screen,4_56_2,2023-09-15T17:16:06.590Z,,0,,,NaN,,,,,,false,,,,391621.40000000596,391621.3000000119,,391621.3000000119,,391639.579,8,400,,,
sequence,flow.Sequence,4_56,2023-09-15T17:16:06.590Z,,0,,,4780.643000011914,completion,,,,,false,,,,391621.5,391621.3000000119,386832.719,386835.2000000179,386840.657,391639.579,8,400,,,
trial,html.Screen,4_57_0,2023-09-15T17:16:09.760Z,,0,2,,3151.420999999973,response,ISIC_0033830.JPG,4,ISIC_4023381.JPG,ISIC_4023381.JPG,false,0,keypress(z),500,394791.09999999404,394791,391614.364,391621.5,391639.579,394804.285,8,400,8,,ISIC_0033830.JPG
break,html.Screen,4_57_1,2023-09-15T17:16:09.761Z,,0,,,NaN,,,,,,false,,,,394791.59999999404,394791.5,,394791.2000000179,,394804.285,8,400,,,
break_continue,html.Screen,4_57_2,2023-09-15T17:16:09.761Z,,0,,,NaN,,,,,,false,,,,394791.8000000119,394791.7000000179,,394791.59999999404,,394804.285,8,400,,,
sequence,flow.Sequence,4_57,2023-09-15T17:16:09.761Z,,0,,,3152.1210000178544,completion,,,,,false,,,,394792,394791.7000000179,391614.364,391621.5,391639.579,394804.285,8,400,,,
trial,html.Screen,4_58_0,2023-09-15T17:16:13.235Z,,0,2,,3461.314999994065,response,ISIC_1122023.JPG,5,ISIC_3736075.JPG,ISIC_3736075.JPG,false,0,keypress(z),500,398265.8000000119,398265.59999999404,394786.324,394792,394804.285,398269.712,8,400,9,,ISIC_1122023.JPG
break,html.Screen,4_58_1,2023-09-15T17:16:13.236Z,,0,,,NaN,,,,,,false,,,,398266.8000000119,398266.7000000179,,398266.40000000596,,398269.712,8,400,,,
break_continue,html.Screen,4_58_2,2023-09-15T17:16:13.236Z,,0,,,NaN,,,,,,false,,,,398267.3000000119,398267.09999999404,,398267,,398269.712,8,400,,,
sequence,flow.Sequence,4_58,2023-09-15T17:16:13.236Z,,0,,,3462.814999994065,completion,,,,,false,,,,398267.5,398267.09999999404,394786.324,394792,394804.285,398269.712,8,400,,,
trial,html.Screen,4_59_0,2023-09-15T17:16:16.637Z,,0,2,,3397.988000017882,response,ISIC_6496765.JPG,5,ISIC_3820669.JPG,ISIC_3820669.JPG,false,0,keypress(z),500,401667.90000000596,401667.7000000179,398261.605,398267.5,398269.712,401685.249,8,400,10,,ISIC_6496765.JPG
break,html.Screen,4_59_1,2023-09-15T17:16:16.637Z,,0,,,NaN,,,,,,false,,,,401668.3000000119,401668.09999999404,,401668.09999999404,,401685.249,8,400,,,
break_continue,html.Screen,4_59_2,2023-09-15T17:16:16.637Z,,0,,,NaN,,,,,,false,,,,401668.3000000119,401668.3000000119,,401668.3000000119,,401685.249,8,400,,,
sequence,flow.Sequence,4_59,2023-09-15T17:16:16.637Z,,0,,,3398.5880000119214,completion,,,,,false,,,,401668.40000000596,401668.3000000119,398261.605,398267.5,398269.712,401685.249,8,400,,,
trial,html.Screen,4_60_0,2023-09-15T17:16:20.207Z,,0,2,,3552.350999994029,response,ISIC_1684127.JPG,5,ISIC_8502341.JPG,ISIC_8502341.JPG,false,0,keypress(z),500,405237.90000000596,405237.59999999404,401668.539,401668.5,401685.249,405251.254,8,400,11,,ISIC_1684127.JPG
break,html.Screen,4_60_1,2023-09-15T17:16:20.207Z,,0,,,NaN,,,,,,false,,,,405238.5,405238.3000000119,,405238,,405251.254,8,400,,,
break_continue,html.Screen,4_60_2,2023-09-15T17:16:20.208Z,,0,,,NaN,,,,,,false,,,,405238.7000000179,405238.59999999404,,405238.5,,405251.254,8,400,,,
sequence,flow.Sequence,4_60,2023-09-15T17:16:20.208Z,,0,,,3553.350999994029,completion,,,,,false,,,,405238.8000000119,405238.59999999404,401668.539,401668.40000000596,401685.249,405251.254,8,400,,,
trial,html.Screen,4_61_0,2023-09-15T17:16:23.393Z,,0,2,,3172.7459999999846,response,ISIC_1971254.JPG,5,ISIC_0032441.JPG,ISIC_1971254.JPG,false,1,keypress(m),500,408424.2000000179,408424,405225.025,405238.8000000119,405251.254,408432.902,8,400,12,,ISIC_0032441.JPG
break,html.Screen,4_61_1,2023-09-15T17:16:23.394Z,,0,,,NaN,,,,,,false,,,,408424.90000000596,408424.7000000179,,408424.5,,408432.902,8,400,,,
break_continue,html.Screen,4_61_2,2023-09-15T17:16:23.394Z,,0,,,NaN,,,,,,false,,,,408425,408424.90000000596,,408424.90000000596,,408432.902,8,400,,,
sequence,flow.Sequence,4_61,2023-09-15T17:16:23.394Z,,0,,,3173.646000005945,completion,,,,,false,,,,408425,408424.90000000596,405225.025,405238.8000000119,405251.254,408432.902,8,400,,,
trial,html.Screen,4_62_0,2023-09-15T17:16:26.695Z,,0,2,,3292.4980000059586,response,ISIC_0010486.JPG,5,ISIC_2266011.JPG,ISIC_2266011.JPG,false,0,keypress(z),500,411725.8000000119,411725.40000000596,408420.875,408425,408432.902,411731.777,8,400,13,,ISIC_0010486.JPG
break,html.Screen,4_62_1,2023-09-15T17:16:26.696Z,,0,,,NaN,,,,,,false,,,,411726.59999999404,411726.40000000596,,411726.09999999404,,411731.777,8,400,,,
break_continue,html.Screen,4_62_2,2023-09-15T17:16:26.696Z,,0,,,NaN,,,,,,false,,,,411727.09999999404,411727,,411726.90000000596,,411731.777,8,400,,,
sequence,flow.Sequence,4_62,2023-09-15T17:16:26.696Z,,0,,,3294.097999999998,completion,,,,,false,,,,411727.09999999404,411727,408420.875,408425,408432.902,411731.777,8,400,,,
trial,html.Screen,4_63_0,2023-09-15T17:16:31.518Z,,0,2,,4816.9230000178795,response,ISIC_0072252.JPG,6,ISIC_0030952.JPG,ISIC_0030952.JPG,false,0,keypress(z),500,416548.90000000596,416548.7000000179,411715.764,411727.2000000179,411731.777,416563.433,8,400,14,,ISIC_0072252.JPG
break,html.Screen,4_63_1,2023-09-15T17:16:31.518Z,,0,,,NaN,,,,,,false,,,,416549.5,416549.40000000596,,416549.09999999404,,416563.433,8,400,,,
break_continue,html.Screen,4_63_2,2023-09-15T17:16:31.519Z,,0,,,NaN,,,,,,false,,,,416550,416549.8000000119,,416549.7000000179,,416563.433,8,400,,,
sequence,flow.Sequence,4_63,2023-09-15T17:16:31.519Z,,0,,,4818.023000011919,completion,,,,,false,,,,416550.09999999404,416549.8000000119,411715.764,411727.2000000179,411731.777,416563.433,8,400,,,
trial,html.Screen,4_64_0,2023-09-15T17:16:34.678Z,,0,2,,3145.367000011902,response,ISIC_0032383.JPG,5,ISIC_0053854.JPG,ISIC_0032383.JPG,false,1,keypress(m),500,419709.09999999404,419708.8000000119,416539.241,416550.2000000179,416563.433,419712.368,8,400,15,,ISIC_0053854.JPG
break,html.Screen,4_64_1,2023-09-15T17:16:34.679Z,,0,,,NaN,,,,,,false,,,,419709.5,419709.40000000596,,419709.09999999404,,419712.368,8,400,,,
break_continue,html.Screen,4_64_2,2023-09-15T17:16:34.679Z,,0,,,NaN,,,,,,false,,,,419709.8000000119,419709.8000000119,,419709.7000000179,,419712.368,8,400,,,
sequence,flow.Sequence,4_64,2023-09-15T17:16:34.679Z,,0,,,3146.367000011902,completion,,,,,false,,,,419710,419709.8000000119,416539.241,416550.2000000179,416563.433,419712.368,8,400,,,
trial,html.Screen,4_65_0,2023-09-15T17:16:38.120Z,,0,2,,3438.5320000059437,response,ISIC_0061475.JPG,6,ISIC_8159718.JPG,ISIC_8159718.JPG,false,0,keypress(z),500,423151.2000000179,423150.90000000596,419704.688,419710.09999999404,419712.368,423161.2,8,400,16,,ISIC_0061475.JPG
break,html.Screen,4_65_1,2023-09-15T17:16:38.121Z,,0,,,NaN,,,,,,false,,,,423152,423151.90000000596,,423151.5,,423161.2,8,400,,,
break_continue,html.Screen,4_65_2,2023-09-15T17:16:38.121Z,,0,,,NaN,,,,,,false,,,,423152.2000000179,423152.2000000179,,423152.09999999404,,423161.2,8,400,,,
sequence,flow.Sequence,4_65,2023-09-15T17:16:38.121Z,,0,,,3439.8320000178646,completion,,,,,false,,,,423152.2000000179,423152.2000000179,419704.688,419710.09999999404,419712.368,423161.2,8,400,,,
trial,html.Screen,4_66_0,2023-09-15T17:16:41.342Z,,0,2,,3211.399999994028,response,ISIC_1475598.JPG,6,ISIC_5397818.JPG,ISIC_1475598.JPG,false,1,keypress(m),500,426372.90000000596,426372.59999999404,423143.34,423152.3000000119,423161.2,426376.73,8,400,17,,ISIC_5397818.JPG
break,html.Screen,4_66_1,2023-09-15T17:16:41.342Z,,0,,,NaN,,,,,,false,,,,426373.40000000596,426373.3000000119,,426373.09999999404,,426376.73,8,400,,,
break_continue,html.Screen,4_66_2,2023-09-15T17:16:41.343Z,,0,,,NaN,,,,,,false,,,,426373.59999999404,426373.5,,426373.5,,426376.73,8,400,,,
sequence,flow.Sequence,4_66,2023-09-15T17:16:41.343Z,,0,,,3212.2999999999884,completion,,,,,false,,,,426373.7000000179,426373.5,423143.34,423152.3000000119,423161.2,426376.73,8,400,,,
trial,html.Screen,4_67_0,2023-09-15T17:16:46.948Z,,0,2,,5601.770000000019,response,ISIC_0027432.JPG,5,ISIC_0006302.JPG,ISIC_0027432.JPG,false,1,keypress(m),500,431978.8000000119,431978.5,426368.433,426373.8000000119,426376.73,431991.558,8,400,18,,ISIC_0006302.JPG
break,html.Screen,4_67_1,2023-09-15T17:16:46.949Z,,0,,,NaN,,,,,,false,,,,431979.59999999404,431979.5,,431979.09999999404,,431991.558,8,400,,,
break_continue,html.Screen,4_67_2,2023-09-15T17:16:46.949Z,,0,,,NaN,,,,,,false,,,,431980,431979.8000000119,,431979.7000000179,,431991.558,8,400,,,
sequence,flow.Sequence,4_67,2023-09-15T17:16:46.949Z,,0,,,5603.07000001194,completion,,,,,false,,,,431980,431979.8000000119,426368.433,426373.8000000119,426376.73,431991.558,8,400,,,
trial,html.Screen,4_68_0,2023-09-15T17:16:50.071Z,,0,2,,3110.242000011902,response,ISIC_0025904.JPG,5,ISIC_2245069.JPG,ISIC_2245069.JPG,false,0,keypress(z),500,435102,435101.8000000119,431966.867,431980,431991.558,435107.145,8,400,19,,ISIC_0025904.JPG
break,html.Screen,4_68_1,2023-09-15T17:16:50.072Z,,0,,,NaN,,,,,,false,,,,435102.40000000596,435102.40000000596,,435102.2000000179,,435107.145,8,400,,,
break_continue,html.Screen,4_68_2,2023-09-15T17:16:50.072Z,,0,,,NaN,,,,,,false,,,,435102.59999999404,435102.5,,435102.5,,435107.145,8,400,,,
sequence,flow.Sequence,4_68,2023-09-15T17:16:50.072Z,,0,,,3110.941999999981,completion,,,,,false,,,,435102.7000000179,435102.5,431966.867,431980,431991.558,435107.145,8,400,,,
trial,html.Screen,4_69_0,2023-09-15T17:16:53.034Z,,0,2,,2957.1550000119023,response,ISIC_8409024.JPG,5,ISIC_0009868.JPG,ISIC_8409024.JPG,false,1,keypress(m),500,438064.59999999404,438064.3000000119,435098.8,435102.7000000179,435107.145,438072.724,8,400,20,,ISIC_0009868.JPG
break,html.Screen,4_69_1,2023-09-15T17:16:53.034Z,,0,,,NaN,,,,,,false,,,,438065,438064.90000000596,,438064.7000000179,,438072.724,8,400,,,
break_continue,html.Screen,4_69_2,2023-09-15T17:16:53.035Z,,0,,,NaN,,,,,,false,,,,438065.59999999404,438065.3000000119,,438065.09999999404,,438072.724,8,400,,,
sequence,flow.Sequence,4_69,2023-09-15T17:16:53.035Z,,0,,,2958.1550000119023,completion,,,,,false,,,,438065.8000000119,438065.3000000119,435098.8,435102.7000000179,435107.145,438072.724,8,400,,,
trial,html.Screen,4_70_0,2023-09-15T17:16:55.885Z,,0,2,,2842.676000005973,response,ISIC_4266157.JPG,5,ISIC_1654318.JPG,ISIC_1654318.JPG,false,0,keypress(z),500,440915.7000000179,440915.40000000596,438054.305,438065.90000000596,438072.724,440921.787,8,400,21,,ISIC_4266157.JPG
break,html.Screen,4_70_1,2023-09-15T17:16:55.885Z,,0,,,NaN,,,,,,false,,,,440916.3000000119,440916.2000000179,,440915.90000000596,,440921.787,8,400,,,
break_continue,html.Screen,4_70_2,2023-09-15T17:16:55.885Z,,0,,,NaN,,,,,,false,,,,440916.40000000596,440916.3000000119,,440916.3000000119,,440921.787,8,400,,,
sequence,flow.Sequence,4_70,2023-09-15T17:16:55.886Z,,0,,,2843.5760000119335,completion,,,,,false,,,,440916.5,440916.3000000119,438054.305,438065.8000000119,438072.724,440921.787,8,400,,,
trial,html.Screen,4_71_0,2023-09-15T17:16:58.496Z,,0,2,,2604.6130000059493,response,ISIC_1356715.JPG,5,ISIC_0056677.JPG,ISIC_1356715.JPG,false,1,keypress(m),500,443526.59999999404,443526.40000000596,440913.393,440916.5,440921.787,443537.552,8,400,22,,ISIC_0056677.JPG
break,html.Screen,4_71_1,2023-09-15T17:16:58.496Z,,0,,,NaN,,,,,,false,,,,443527,443527,,443526.7000000179,,443537.552,8,400,,,
break_continue,html.Screen,4_71_2,2023-09-15T17:16:58.496Z,,0,,,NaN,,,,,,false,,,,443527.40000000596,443527.3000000119,,443527.09999999404,,443537.552,8,400,,,
sequence,flow.Sequence,4_71,2023-09-15T17:16:58.497Z,,0,,,2605.5130000119098,completion,,,,,false,,,,443527.5,443527.3000000119,440913.393,440916.5,440921.787,443537.552,8,400,,,
trial,html.Screen,4_72_0,2023-09-15T17:17:01.554Z,,0,2,,3046.947999999975,response,ISIC_4220010.JPG,4,ISIC_0014049.JPG,ISIC_0014049.JPG,false,0,keypress(z),500,446584.8000000119,446584.5,443512.665,443527.59999999404,443537.552,446604.273,8,400,23,,ISIC_4220010.JPG
break,html.Screen,4_72_1,2023-09-15T17:17:01.555Z,,0,,,NaN,,,,,,false,,,,446585.7000000179,446585.40000000596,,446585,,446604.273,8,400,,,
break_continue,html.Screen,4_72_2,2023-09-15T17:17:01.555Z,,0,,,NaN,,,,,,false,,,,446585.90000000596,446585.8000000119,,446585.7000000179,,446604.273,8,400,,,
sequence,flow.Sequence,4_72,2023-09-15T17:17:01.555Z,,0,,,3048.248000011896,completion,,,,,false,,,,446586,446585.8000000119,443512.665,443527.5,443537.552,446604.273,8,400,,,
trial,html.Screen,4_73_0,2023-09-15T17:17:04.837Z,,0,2,,3262.927000017895,response,ISIC_2844539.JPG,5,ISIC_1937197.JPG,ISIC_1937197.JPG,false,0,keypress(z),500,449867.5,449867.2000000179,446577.618,446586,446604.273,449885.525,8,400,24,,ISIC_2844539.JPG
break,html.Screen,4_73_1,2023-09-15T17:17:04.837Z,,0,,,NaN,,,,,,false,,,,449868.3000000119,449868.09999999404,,449867.7000000179,,449885.525,8,400,,,
break_continue,html.Screen,4_73_2,2023-09-15T17:17:04.838Z,,0,,,NaN,,,,,,false,,,,449868.59999999404,449868.5,,449868.40000000596,,449885.525,8,400,,,
sequence,flow.Sequence,4_73,2023-09-15T17:17:04.838Z,,0,,,3264.2270000000135,completion,,,,,false,,,,449868.8000000119,449868.5,446577.618,446586,446604.273,449885.525,8,400,,,
trial,html.Screen,4_74_0,2023-09-15T17:17:07.447Z,,0,2,,2592.175000017858,response,ISIC_0011757.JPG,5,ISIC_1484659.JPG,ISIC_1484659.JPG,false,0,keypress(z),500,452478.09999999404,452477.7000000179,449853.309,449868.90000000596,449885.525,452484.501,8,400,25,,ISIC_0011757.JPG
break,html.Screen,4_74_1,2023-09-15T17:17:07.448Z,,0,,,NaN,,,,,,false,,,,452478.5,452478.40000000596,,452478.09999999404,,452484.501,8,400,,,
break_continue,html.Screen,4_74_2,2023-09-15T17:17:07.448Z,,0,,,NaN,,,,,,false,,,,452478.59999999404,452478.59999999404,,452478.59999999404,,452484.501,8,400,,,
sequence,flow.Sequence,4_74,2023-09-15T17:17:07.448Z,,0,,,2593.0749999940163,completion,,,,,false,,,,452478.8000000119,452478.59999999404,449853.309,449868.90000000596,449885.525,452484.501,8,400,,,
trial,html.Screen,4_75_0,2023-09-15T17:17:10.345Z,,0,2,,2891.199000017892,response,ISIC_0765585.JPG,4,ISIC_4433832.JPG,ISIC_0765585.JPG,false,1,keypress(m),500,455376,455375.7000000179,452466.33,452478.8000000119,452484.501,455383.506,8,400,26,,ISIC_4433832.JPG
break,html.Screen,4_75_1,2023-09-15T17:17:10.346Z,,0,,,NaN,,,,,,false,,,,455376.8000000119,455376.59999999404,,455376.3000000119,,455383.506,8,400,,,
break_continue,html.Screen,4_75_2,2023-09-15T17:17:10.346Z,,0,,,NaN,,,,,,false,,,,455377,455376.90000000596,,455376.90000000596,,455383.506,8,400,,,
sequence,flow.Sequence,4_75,2023-09-15T17:17:10.346Z,,0,,,2892.399000005971,completion,,,,,false,,,,455377,455376.90000000596,452466.33,452478.8000000119,452484.501,455383.506,8,400,,,
trial,html.Screen,4_76_0,2023-09-15T17:17:13.483Z,,0,2,,3130.494000000006,response,ISIC_0804420.JPG,6,ISIC_0013997.JPG,ISIC_0013997.JPG,false,0,keypress(z),500,458514.09999999404,458514,455367.574,455377.09999999404,455383.506,458533.047,8,400,27,,ISIC_0804420.JPG
break,html.Screen,4_76_1,2023-09-15T17:17:13.484Z,,0,,,NaN,,,,,,false,,,,458514.7000000179,458514.5,,458514.3000000119,,458533.047,8,400,,,
break_continue,html.Screen,4_76_2,2023-09-15T17:17:13.484Z,,0,,,NaN,,,,,,false,,,,458515,458514.90000000596,,458514.8000000119,,458533.047,8,400,,,
sequence,flow.Sequence,4_76,2023-09-15T17:17:13.484Z,,0,,,3131.3940000059665,completion,,,,,false,,,,458515.2000000179,458514.90000000596,455367.574,455377.09999999404,455383.506,458533.047,8,400,,,
trial,html.Screen,4_77_0,2023-09-15T17:17:16.494Z,,0,2,,2991.153000017861,response,ISIC_1912589.JPG,4,ISIC_0068382.JPG,ISIC_1912589.JPG,false,1,keypress(m),500,461524.5,461524.2000000179,458506.946,458515.3000000119,458533.047,461531.399,8,400,28,,ISIC_0068382.JPG
break,html.Screen,4_77_1,2023-09-15T17:17:16.494Z,,0,,,NaN,,,,,,false,,,,461525.3000000119,461525.2000000179,,461524.7000000179,,461531.399,8,400,,,
break_continue,html.Screen,4_77_2,2023-09-15T17:17:16.495Z,,0,,,NaN,,,,,,false,,,,461525.5,461525.5,,461525.5,,461531.399,8,400,,,
sequence,flow.Sequence,4_77,2023-09-15T17:17:16.495Z,,0,,,2992.4529999999795,completion,,,,,false,,,,461525.59999999404,461525.5,458506.946,458515.3000000119,458533.047,461531.399,8,400,,,
trial,html.Screen,4_78_0,2023-09-15T17:17:19.680Z,,0,2,,3179.5010000059847,response,ISIC_0011035.JPG,4,ISIC_0063496.JPG,ISIC_0063496.JPG,false,0,keypress(z),500,464711.09999999404,464710.90000000596,461512.69,461525.7000000179,461531.399,464713.634,8,400,29,,ISIC_0011035.JPG
break,html.Screen,4_78_1,2023-09-15T17:17:19.681Z,,0,,,NaN,,,,,,false,,,,464711.5,464711.40000000596,,464711.2000000179,,464713.634,8,400,,,
break_continue,html.Screen,4_78_2,2023-09-15T17:17:19.681Z,,0,,,NaN,,,,,,false,,,,464711.59999999404,464711.59999999404,,464711.5,,464713.634,8,400,,,
sequence,flow.Sequence,4_78,2023-09-15T17:17:19.681Z,,0,,,3180.2009999940637,completion,,,,,false,,,,464711.59999999404,464711.59999999404,461512.69,461525.7000000179,461531.399,464713.634,8,400,,,
trial,html.Screen,4_79_0,2023-09-15T17:17:22.466Z,,0,2,,2782.86599999998,response,ISIC_0021271.JPG,4,ISIC_0065597.JPG,ISIC_0065597.JPG,false,0,keypress(z),500,467496.90000000596,467496.5,464695.369,464711.8000000119,464713.634,467512.724,8,400,30,,ISIC_0021271.JPG
break,html.Screen,4_79_1,2023-09-15T17:17:22.466Z,,0,,,NaN,,,,,,false,,,,467497.40000000596,467497.2000000179,,467496.90000000596,,467512.724,8,400,,,
break_continue,html.Screen,4_79_2,2023-09-15T17:17:22.467Z,,0,,,NaN,,,,,,false,,,,467497.5,467497.40000000596,,467497.40000000596,,467512.724,8,400,,,
sequence,flow.Sequence,4_79,2023-09-15T17:17:22.467Z,,0,,,2783.7660000059404,completion,,,,,false,,,,467497.5,467497.40000000596,464695.369,464711.8000000119,464713.634,467512.724,8,400,,,
trial,html.Screen,4_80_0,2023-09-15T17:17:25.178Z,,0,2,,2695.976000017894,response,ISIC_8207162.JPG,4,ISIC_1684127.JPG,ISIC_8207162.JPG,false,1,keypress(m),500,470209,470208.7000000179,467497.124,467497.7000000179,467512.724,470211.754,8,400,31,,ISIC_1684127.JPG
break,html.Screen,4_80_1,2023-09-15T17:17:25.179Z,,0,,,NaN,,,,,,false,,,,470209.5,470209.3000000119,,470209.09999999404,,470211.754,8,400,,,
break_continue,html.Screen,4_80_2,2023-09-15T17:17:25.179Z,,0,,,NaN,,,,,,false,,,,470209.59999999404,470209.5,,470209.5,,470211.754,8,400,,,
sequence,flow.Sequence,4_80,2023-09-15T17:17:25.179Z,,0,,,2696.7760000000126,completion,,,,,false,,,,470209.7000000179,470209.5,467497.124,467497.59999999404,467512.724,470211.754,8,400,,,
trial,html.Screen,4_81_0,2023-09-15T17:17:27.916Z,,0,2,,2734.845999994024,response,ISIC_0185547.JPG,5,ISIC_2193761.JPG,ISIC_2193761.JPG,false,0,keypress(z),500,472947,472946.59999999404,470202.889,470209.7000000179,470211.754,472960.869,8,400,32,,ISIC_0185547.JPG
break,html.Screen,4_81_1,2023-09-15T17:17:27.917Z,,0,,,NaN,,,,,,false,,,,472947.59999999404,472947.5,,472947.2000000179,,472960.869,8,400,,,
break_continue,html.Screen,4_81_2,2023-09-15T17:17:27.917Z,,0,,,NaN,,,,,,false,,,,472947.7000000179,472947.7000000179,,472947.7000000179,,472960.869,8,400,,,
sequence,flow.Sequence,4_81,2023-09-15T17:17:27.917Z,,0,,,2735.946000017866,completion,,,,,false,,,,472947.8000000119,472947.7000000179,470202.889,470209.7000000179,470211.754,472960.869,8,400,,,
trial,html.Screen,4_82_0,2023-09-15T17:17:31.982Z,,0,2,,4051.630999999994,response,ISIC_5526879.JPG,5,ISIC_0031224.JPG,ISIC_5526879.JPG,false,1,keypress(m),500,477013,477012.5,472941.98,472947.8000000119,472960.869,477026.144,8,400,33,,ISIC_0031224.JPG
break,html.Screen,4_82_1,2023-09-15T17:17:31.983Z,,0,,,NaN,,,,,,false,,,,477013.5,477013.3000000119,,477013.09999999404,,477026.144,8,400,,,
break_continue,html.Screen,4_82_2,2023-09-15T17:17:31.983Z,,0,,,NaN,,,,,,false,,,,477013.59999999404,477013.5,,477013.5,,477026.144,8,400,,,
sequence,flow.Sequence,4_82,2023-09-15T17:17:31.983Z,,0,,,4052.630999999994,completion,,,,,false,,,,477013.59999999404,477013.5,472941.98,472947.8000000119,472960.869,477026.144,8,400,,,
trial,html.Screen,4_83_0,2023-09-15T17:17:36.193Z,,0,2,,4197.55600001791,response,ISIC_1525284.JPG,5,ISIC_0068218.JPG,ISIC_1525284.JPG,false,1,keypress(m),500,481223.90000000596,481223.7000000179,477008.198,477013.59999999404,477026.144,481241.699,8,400,34,,ISIC_0068218.JPG
break,html.Screen,4_83_1,2023-09-15T17:17:36.194Z,,0,,,NaN,,,,,,false,,,,481224.5,481224.3000000119,,481224,,481241.699,8,400,,,
break_continue,html.Screen,4_83_2,2023-09-15T17:17:36.194Z,,0,,,NaN,,,,,,false,,,,481224.90000000596,481224.7000000179,,481224.7000000179,,481241.699,8,400,,,
sequence,flow.Sequence,4_83,2023-09-15T17:17:36.194Z,,0,,,4198.55600001791,completion,,,,,false,,,,481224.90000000596,481224.7000000179,477008.198,477013.59999999404,477026.144,481241.699,8,400,,,
trial,html.Screen,4_84_0,2023-09-15T17:17:39.652Z,,0,2,,3440.6010000118986,response,ISIC_6274085.JPG,5,ISIC_7777873.JPG,ISIC_7777873.JPG,false,0,keypress(z),500,484682.5,484682.3000000119,481208.782,481225.09999999404,481241.699,484690.483,8,400,35,,ISIC_6274085.JPG
break,html.Screen,4_84_1,2023-09-15T17:17:39.652Z,,0,,,NaN,,,,,,false,,,,484683,484683,,484682.8000000119,,484690.483,8,400,,,
break_continue,html.Screen,4_84_2,2023-09-15T17:17:39.652Z,,0,,,NaN,,,,,,false,,,,484683.3000000119,484683.2000000179,,484683.2000000179,,484690.483,8,400,,,
sequence,flow.Sequence,4_84,2023-09-15T17:17:39.652Z,,0,,,3441.501000017859,completion,,,,,false,,,,484683.3000000119,484683.2000000179,481208.782,481225.09999999404,481241.699,484690.483,8,400,,,
trial,html.Screen,4_85_0,2023-09-15T17:17:48.538Z,,0,2,,8878.317000011913,response,ISIC_0055054.JPG,5,ISIC_8325569.JPG,ISIC_0055054.JPG,false,1,keypress(m),500,493569.09999999404,493568.8000000119,484681.244,484683.3000000119,484690.483,493589.259,8,400,36,,ISIC_8325569.JPG
break,html.Screen,4_85_1,2023-09-15T17:17:48.538Z,,0,,,NaN,,,,,,false,,,,493569.59999999404,493569.40000000596,,493569.3000000119,,493589.259,8,400,,,
break_continue,html.Screen,4_85_2,2023-09-15T17:17:48.539Z,,0,,,NaN,,,,,,false,,,,493569.7000000179,493569.7000000179,,493569.59999999404,,493589.259,8,400,,,
sequence,flow.Sequence,4_85,2023-09-15T17:17:48.539Z,,0,,,8879.217000017874,completion,,,,,false,,,,493569.7000000179,493569.7000000179,484681.244,484683.3000000119,484690.483,493589.259,8,400,,,
trial,html.Screen,4_86_0,2023-09-15T17:17:52.140Z,,0,2,,3582.041000011901,response,ISIC_2095347.JPG,5,ISIC_0071118.JPG,ISIC_2095347.JPG,false,1,keypress(m),500,497171.5,497171.3000000119,493568.903,493569.8000000119,493589.259,497185.867,8,400,37,,ISIC_0071118.JPG
break,html.Screen,4_86_1,2023-09-15T17:17:52.141Z,,0,,,NaN,,,,,,false,,,,497171.90000000596,497171.90000000596,,497171.7000000179,,497185.867,8,400,,,
break_continue,html.Screen,4_86_2,2023-09-15T17:17:52.141Z,,0,,,NaN,,,,,,false,,,,497172.09999999404,497172,,497172,,497185.867,8,400,,,
sequence,flow.Sequence,4_86,2023-09-15T17:17:52.141Z,,0,,,3582.74099999998,completion,,,,,false,,,,497172.2000000179,497172,493568.903,493569.8000000119,493589.259,497185.867,8,400,,,
trial,html.Screen,4_87_0,2023-09-15T17:17:55.558Z,,0,2,,3402.732999994012,response,ISIC_1670165.JPG,5,ISIC_0054220.JPG,ISIC_1670165.JPG,false,1,keypress(m),500,500589,500588.59999999404,497168.108,497172.2000000179,497185.867,500601.318,8,400,38,,ISIC_0054220.JPG
break,html.Screen,4_87_1,2023-09-15T17:17:55.559Z,,0,,,NaN,,,,,,false,,,,500589.7000000179,500589.5,,500589.3000000119,,500601.318,8,400,,,
break_continue,html.Screen,4_87_2,2023-09-15T17:17:55.559Z,,0,,,NaN,,,,,,false,,,,500589.90000000596,500589.90000000596,,500589.7000000179,,500601.318,8,400,,,
sequence,flow.Sequence,4_87,2023-09-15T17:17:55.559Z,,0,,,3404.033000005933,completion,,,,,false,,,,500590,500589.90000000596,497168.108,497172.2000000179,497185.867,500601.318,8,400,,,
trial,html.Screen,4_88_0,2023-09-15T17:17:59.242Z,,0,2,,3671.882000017853,response,ISIC_0055169.JPG,5,ISIC_6908183.JPG,ISIC_6908183.JPG,false,0,keypress(z),500,504273.40000000596,504273.2000000179,500585.422,500590.09999999404,500601.318,504283.396,8,400,39,,ISIC_0055169.JPG
break,html.Screen,4_88_1,2023-09-15T17:17:59.243Z,,0,,,NaN,,,,,,false,,,,504273.8000000119,504273.59999999404,,504273.5,,504283.396,8,400,,,
break_continue,html.Screen,4_88_2,2023-09-15T17:17:59.243Z,,0,,,NaN,,,,,,false,,,,504273.8000000119,504273.8000000119,,504273.8000000119,,504283.396,8,400,,,
sequence,flow.Sequence,4_88,2023-09-15T17:17:59.243Z,,0,,,3672.4820000118925,completion,,,,,false,,,,504273.90000000596,504273.8000000119,500585.422,500590.09999999404,500601.318,504283.396,8,400,,,
trial,html.Screen,4_89_0,2023-09-15T17:18:02.031Z,,0,2,,2778.603999999992,response,ISIC_4610600.JPG,5,ISIC_0012395.JPG,ISIC_4610600.JPG,false,1,keypress(m),500,507062.2000000179,507062,504257.947,504273.90000000596,504283.396,507082.463,8,400,40,,ISIC_0012395.JPG
break,html.Screen,4_89_1,2023-09-15T17:18:02.032Z,,0,,,NaN,,,,,,false,,,,507062.59999999404,507062.59999999404,,507062.40000000596,,507082.463,8,400,,,
break_continue,html.Screen,4_89_2,2023-09-15T17:18:02.032Z,,0,,,NaN,,,,,,false,,,,507062.7000000179,507062.7000000179,,507062.7000000179,,507082.463,8,400,,,
sequence,flow.Sequence,4_89,2023-09-15T17:18:02.032Z,,0,,,2779.3040000178735,completion,,,,,false,,,,507062.8000000119,507062.7000000179,504257.947,504273.90000000596,504283.396,507082.463,8,400,,,
trial,html.Screen,4_90_0,2023-09-15T17:18:05.393Z,,0,2,,3341.4370000059716,response,ISIC_4322954.JPG,5,ISIC_8689112.JPG,ISIC_8689112.JPG,false,0,keypress(z),500,510424.3000000119,510423.90000000596,507065.909,507062.8000000119,507082.463,510431.339,8,400,41,,ISIC_4322954.JPG
break,html.Screen,4_90_1,2023-09-15T17:18:05.394Z,,0,,,NaN,,,,,,false,,,,510425,510424.90000000596,,510424.5,,510431.339,8,400,,,
break_continue,html.Screen,4_90_2,2023-09-15T17:18:05.394Z,,0,,,NaN,,,,,,false,,,,510425.09999999404,510425.09999999404,,510425.09999999404,,510431.339,8,400,,,
sequence,flow.Sequence,4_90,2023-09-15T17:18:05.394Z,,0,,,3342.6369999940507,completion,,,,,false,,,,510425.2000000179,510425.09999999404,507065.909,507062.8000000119,507082.463,510431.339,8,400,,,
trial,html.Screen,4_91_0,2023-09-15T17:18:08.537Z,,0,2,,3136.3610000179033,response,ISIC_0014695.JPG,5,ISIC_6913272.JPG,ISIC_6913272.JPG,false,0,keypress(z),500,513567.90000000596,513567.7000000179,510423.371,510425.3000000119,510431.339,513580.633,8,400,42,,ISIC_0014695.JPG
break,html.Screen,4_91_1,2023-09-15T17:18:08.538Z,,0,,,NaN,,,,,,false,,,,513568.59999999404,513568.5,,513568.2000000179,,513580.633,8,400,,,
break_continue,html.Screen,4_91_2,2023-09-15T17:18:08.538Z,,0,,,NaN,,,,,,false,,,,513568.90000000596,513568.8000000119,,513568.7000000179,,513580.633,8,400,,,
sequence,flow.Sequence,4_91,2023-09-15T17:18:08.538Z,,0,,,3137.461000011943,completion,,,,,false,,,,513569,513568.8000000119,510423.371,510425.3000000119,510431.339,513580.633,8,400,,,
trial,html.Screen,4_92_0,2023-09-15T17:18:13.615Z,,0,2,,5064.8670000000275,response,ISIC_0000000.JPG,6,ISIC_0057999.JPG,ISIC_0057999.JPG,false,0,keypress(z),500,518645.8000000119,518645.5,513554.985,513569,513580.633,518661.86,8,400,43,,ISIC_0000000.JPG
break,html.Screen,4_92_1,2023-09-15T17:18:13.616Z,,0,,,NaN,,,,,,false,,,,518646.59999999404,518646.5,,518646,,518661.86,8,400,,,
break_continue,html.Screen,4_92_2,2023-09-15T17:18:13.616Z,,0,,,NaN,,,,,,false,,,,518646.90000000596,518646.8000000119,,518646.7000000179,,518661.86,8,400,,,
sequence,flow.Sequence,4_92,2023-09-15T17:18:13.616Z,,0,,,5066.167000011948,completion,,,,,false,,,,518646.90000000596,518646.8000000119,513554.985,513569,513580.633,518661.86,8,400,,,
trial,html.Screen,4_93_0,2023-09-15T17:18:16.948Z,,0,2,,3316.7399999940535,response,ISIC_0014826.JPG,5,ISIC_7128811.JPG,ISIC_7128811.JPG,false,0,keypress(z),500,521978.7000000179,521978.59999999404,518646.28,518647,518661.86,521994.079,8,400,44,,ISIC_0014826.JPG
break,html.Screen,4_93_1,2023-09-15T17:18:16.948Z,,0,,,NaN,,,,,,false,,,,521979.3000000119,521979.09999999404,,521978.8000000119,,521994.079,8,400,,,
break_continue,html.Screen,4_93_2,2023-09-15T17:18:16.949Z,,0,,,NaN,,,,,,false,,,,521980,521979.5,,521979.40000000596,,521994.079,8,400,,,
sequence,flow.Sequence,4_93,2023-09-15T17:18:16.949Z,,0,,,3317.640000000014,completion,,,,,false,,,,521980.2000000179,521979.5,518646.28,518646.90000000596,518661.86,521994.079,8,400,,,
trial,html.Screen,4_94_0,2023-09-15T17:18:20.535Z,,0,2,,3571.8210000059335,response,ISIC_9742891.JPG,5,ISIC_0011696.JPG,ISIC_9742891.JPG,false,1,keypress(m),500,525566.2000000179,525565.900000006,521968.969,521980.2000000179,521994.079,525576.186,8,400,45,,ISIC_0011696.JPG
break,html.Screen,4_94_1,2023-09-15T17:18:20.536Z,,0,,,NaN,,,,,,false,,,,525567,525566.900000006,,525566.5,,525576.186,8,400,,,
break_continue,html.Screen,4_94_2,2023-09-15T17:18:20.536Z,,0,,,NaN,,,,,,false,,,,525567.099999994,525567.099999994,,525567,,525576.186,8,400,,,
sequence,flow.Sequence,4_94,2023-09-15T17:18:20.536Z,,0,,,3573.0209999940125,completion,,,,,false,,,,525567.2000000179,525567.099999994,521968.969,521980.2000000179,521994.079,525576.186,8,400,,,
trial,html.Screen,4_95_0,2023-09-15T17:18:23.821Z,,0,2,,3275.614000011934,response,ISIC_0055781.JPG,6,ISIC_8786606.JPG,ISIC_8786606.JPG,false,0,keypress(z),500,528852,528851.8000000119,525567.104,525567.3000000119,525576.186,528858.381,8,400,46,,ISIC_0055781.JPG
break,html.Screen,4_95_1,2023-09-15T17:18:23.821Z,,0,,,NaN,,,,,,false,,,,528852.5,528852.400000006,,528852.2000000179,,528858.381,8,400,,,
break_continue,html.Screen,4_95_2,2023-09-15T17:18:23.821Z,,0,,,NaN,,,,,,false,,,,528852.5,528852.5,,528852.5,,528858.381,8,400,,,
sequence,flow.Sequence,4_95,2023-09-15T17:18:23.822Z,,0,,,3276.314000000013,completion,,,,,false,,,,528852.599999994,528852.5,525567.104,525567.3000000119,525576.186,528858.381,8,400,,,
trial,html.Screen,4_96_0,2023-09-15T17:18:26.815Z,,0,2,,2987.118999999948,response,ISIC_0013615.JPG,4,ISIC_0060741.JPG,ISIC_0013615.JPG,false,1,keypress(m),500,531845.7000000179,531845.5,528841.991,528852.7000000179,528858.381,531874.089,8,400,47,,ISIC_0060741.JPG
break,html.Screen,4_96_1,2023-09-15T17:18:26.815Z,,0,,,NaN,,,,,,false,,,,531846.099999994,531846,,531845.8000000119,,531874.089,8,400,,,
break_continue,html.Screen,4_96_2,2023-09-15T17:18:26.815Z,,0,,,NaN,,,,,,false,,,,531846.2000000179,531846.099999994,,531846.099999994,,531874.089,8,400,,,
sequence,flow.Sequence,4_96,2023-09-15T17:18:26.815Z,,0,,,2987.7189999939874,completion,,,,,false,,,,531846.2000000179,531846.099999994,528841.991,528852.7000000179,528858.381,531874.089,8,400,,,
trial,html.Screen,4_97_0,2023-09-15T17:18:29.904Z,,0,2,,3061.111000017845,response,ISIC_0032955.JPG,6,ISIC_0027214.JPG,ISIC_0032955.JPG,false,1,keypress(m),500,534935.5,534935.2000000179,531857.405,531846.2000000179,531874.089,534939.595,8,400,48,,ISIC_0027214.JPG
break,html.Screen,4_97_1,2023-09-15T17:18:29.905Z,,0,,,NaN,,,,,,false,,,,534936.3000000119,534936.2000000179,,534935.8000000119,,534939.595,8,400,,,
break_continue,html.Screen,4_97_2,2023-09-15T17:18:29.905Z,,0,,,NaN,,,,,,false,,,,534936.5,534936.5,,534936.400000006,,534939.595,8,400,,,
sequence,flow.Sequence,4_97,2023-09-15T17:18:29.906Z,,0,,,3062.4109999999637,completion,,,,,false,,,,534936.7000000179,534936.5,531857.405,531846.2000000179,531874.089,534939.595,8,400,,,
trial,html.Screen,4_98_0,2023-09-15T17:18:35.283Z,,0,2,,5374.705000011949,response,ISIC_4084359.JPG,4,ISIC_1473522.JPG,ISIC_4084359.JPG,false,1,keypress(m),500,540314.599999994,540314.3000000119,534931.554,534936.8000000119,534939.595,540321.185,8,400,49,,ISIC_1473522.JPG
break,html.Screen,4_98_1,2023-09-15T17:18:35.284Z,,0,,,NaN,,,,,,false,,,,540315,540314.900000006,,540314.7000000179,,540321.185,8,400,,,
break_continue,html.Screen,4_98_2,2023-09-15T17:18:35.284Z,,0,,,NaN,,,,,,false,,,,540315.2000000179,540315,,540315,,540321.185,8,400,,,
sequence,flow.Sequence,4_98,2023-09-15T17:18:35.284Z,,0,,,5375.405000000028,completion,,,,,false,,,,540315.2000000179,540315,534931.554,534936.8000000119,534939.595,540321.185,8,400,,,
trial,html.Screen,4_99_0,2023-09-15T17:18:38.426Z,,0,2,,3135.9149999939837,response,ISIC_0060848.JPG,5,ISIC_5420979.JPG,ISIC_5420979.JPG,false,0,keypress(z),500,543457.400000006,543457.099999994,540311.69,540315.400000006,540321.185,543469.958,8,400,50,,ISIC_0060848.JPG
break,html.Screen,4_99_1,2023-09-15T17:18:48.420Z,,0,,,9996.678000000073,timeout,,,,,false,,,,553451,553450.039,543454.216,543457.599999994,543469.958,553466.636,8,400,,,
break_continue,html.Screen,4_99_2,2023-09-15T17:19:01.501Z,,0,,,13059.064000017825,response,,,,,false,continue,keypress(Space),,566532.599999994,566525.7000000179,553450.039,553451,553466.636,566545.431,8,400,,,
sequence,flow.Sequence,4_99,2023-09-15T17:19:01.502Z,,0,,,26204.515000017826,completion,,,,,false,,,,566532.599999994,566525.7000000179,540311.69,540315.3000000119,540321.185,566545.431,8,400,,,
trial,html.Screen,4_100_0,2023-09-15T17:19:04.558Z,,0,3,,3043.769000017899,response,ISIC_0026627.JPG,5,ISIC_0029502.JPG,ISIC_0029502.JPG,false,0,keypress(z),500,569589.5,569589.2000000179,566522.231,566532.7000000179,566545.431,569594.386,8,400,1,,ISIC_0026627.JPG
break,html.Screen,4_100_1,2023-09-15T17:19:04.559Z,,0,,,NaN,,,,,,false,,,,569590.2000000179,569590,,569589.7000000179,,569594.386,8,400,,,
break_continue,html.Screen,4_100_2,2023-09-15T17:19:04.559Z,,0,,,NaN,,,,,,false,,,,569590.400000006,569590.400000006,,569590.3000000119,,569594.386,8,400,,,
sequence,flow.Sequence,4_100,2023-09-15T17:19:04.560Z,,0,,,3044.969000005978,completion,,,,,false,,,,569590.599999994,569590.400000006,566522.231,566532.7000000179,566545.431,569594.386,8,400,,,
trial,html.Screen,4_101_0,2023-09-15T17:19:07.922Z,,0,3,,3358.0140000059037,response,ISIC_0028606.JPG,4,ISIC_4613437.JPG,ISIC_4613437.JPG,false,0,keypress(z),500,572952.7000000179,572952.400000006,569585.993,569590.7000000179,569594.386,572959.923,8,400,2,,ISIC_0028606.JPG
break,html.Screen,4_101_1,2023-09-15T17:19:07.922Z,,0,,,NaN,,,,,,false,,,,572953.099999994,572953,,572952.8000000119,,572959.923,8,400,,,
break_continue,html.Screen,4_101_2,2023-09-15T17:19:07.922Z,,0,,,NaN,,,,,,false,,,,572953.3000000119,572953.2000000179,,572953.2000000179,,572959.923,8,400,,,
sequence,flow.Sequence,4_101,2023-09-15T17:19:07.922Z,,0,,,3358.8140000178246,completion,,,,,false,,,,572953.400000006,572953.2000000179,569585.993,569590.7000000179,569594.386,572959.923,8,400,,,
trial,html.Screen,4_102_0,2023-09-15T17:19:11.172Z,,0,3,,3242.676999994088,response,ISIC_5758316.JPG,5,ISIC_0014541.JPG,ISIC_5758316.JPG,false,1,keypress(m),500,576202.7000000179,576202.599999994,572951.935,572953.400000006,572959.923,576208.883,8,400,3,,ISIC_0014541.JPG
break,html.Screen,4_102_1,2023-09-15T17:19:11.172Z,,0,,,NaN,,,,,,false,,,,576203,576203,,576202.900000006,,576208.883,8,400,,,
break_continue,html.Screen,4_102_2,2023-09-15T17:19:11.172Z,,0,,,NaN,,,,,,false,,,,576203.400000006,576203.3000000119,,576203.099999994,,576208.883,8,400,,,
sequence,flow.Sequence,4_102,2023-09-15T17:19:11.173Z,,0,,,3243.3770000119694,completion,,,,,false,,,,576203.5,576203.3000000119,572951.935,572953.400000006,572959.923,576208.883,8,400,,,
trial,html.Screen,4_103_0,2023-09-15T17:19:14.582Z,,0,3,,3403.8170000178507,response,ISIC_0011177.JPG,5,ISIC_0067804.JPG,ISIC_0067804.JPG,false,0,keypress(z),500,579612.900000006,579612.7000000179,576193.484,576203.599999994,576208.883,579641.07,8,400,4,,ISIC_0011177.JPG
break,html.Screen,4_103_1,2023-09-15T17:19:14.582Z,,0,,,NaN,,,,,,false,,,,579613.3000000119,579613.2000000179,,579613,,579641.07,8,400,,,
break_continue,html.Screen,4_103_2,2023-09-15T17:19:14.582Z,,0,,,NaN,,,,,,false,,,,579613.400000006,579613.3000000119,,579613.3000000119,,579641.07,8,400,,,
sequence,flow.Sequence,4_103,2023-09-15T17:19:14.582Z,,0,,,3404.41700001189,completion,,,,,false,,,,579613.400000006,579613.3000000119,576193.484,576203.599999994,576208.883,579641.07,8,400,,,
trial,html.Screen,4_104_0,2023-09-15T17:19:18.152Z,,0,3,,3541.1300000179326,response,ISIC_0030969.JPG,5,ISIC_0060481.JPG,ISIC_0030969.JPG,false,1,keypress(m),500,583182.5,583182.2000000179,579624.675,579613.599999994,579641.07,583189.789,8,400,5,,ISIC_0060481.JPG
break,html.Screen,4_104_1,2023-09-15T17:19:18.152Z,,0,,,NaN,,,,,,false,,,,583183.2000000179,583183.099999994,,583182.7000000179,,583189.789,8,400,,,
break_continue,html.Screen,4_104_2,2023-09-15T17:19:18.152Z,,0,,,NaN,,,,,,false,,,,583183.3000000119,583183.3000000119,,583183.3000000119,,583189.789,8,400,,,
sequence,flow.Sequence,4_104,2023-09-15T17:19:18.152Z,,0,,,3542.230000011972,completion,,,,,false,,,,583183.400000006,583183.3000000119,579624.675,579613.5,579641.07,583189.789,8,400,,,
trial,html.Screen,4_105_0,2023-09-15T17:19:21.311Z,,0,3,,3152.1110000059707,response,ISIC_0071869.JPG,4,ISIC_8909957.JPG,ISIC_0071869.JPG,false,1,keypress(m),500,586342,586341.900000006,583176.647,583183.400000006,583189.789,586355.336,8,400,6,,ISIC_8909957.JPG
break,html.Screen,4_105_1,2023-09-15T17:19:21.311Z,,0,,,NaN,,,,,,false,,,,586342.400000006,586342.2000000179,,586342.099999994,,586355.336,8,400,,,
break_continue,html.Screen,4_105_2,2023-09-15T17:19:21.312Z,,0,,,NaN,,,,,,false,,,,586342.599999994,586342.599999994,,586342.599999994,,586355.336,8,400,,,
sequence,flow.Sequence,4_105,2023-09-15T17:19:21.312Z,,0,,,3152.81099999405,completion,,,,,false,,,,586342.7000000179,586342.599999994,583176.647,583183.400000006,583189.789,586355.336,8,400,,,
trial,html.Screen,4_106_0,2023-09-15T17:19:24.696Z,,0,3,,3371.7639999940293,response,ISIC_2030997.JPG,5,ISIC_0011378.JPG,ISIC_2030997.JPG,false,1,keypress(m),500,589727.2000000179,589727.099999994,586340.809,586342.7000000179,586355.336,589738.239,8,400,7,,ISIC_0011378.JPG
break,html.Screen,4_106_1,2023-09-15T17:19:24.696Z,,0,,,NaN,,,,,,false,,,,589727.5,589727.400000006,,589727.2000000179,,589738.239,8,400,,,
break_continue,html.Screen,4_106_2,2023-09-15T17:19:24.697Z,,0,,,NaN,,,,,,false,,,,589727.8000000119,589727.599999994,,589727.5,,589738.239,8,400,,,
sequence,flow.Sequence,4_106,2023-09-15T17:19:24.697Z,,0,,,3372.2639999940293,completion,,,,,false,,,,589727.900000006,589727.599999994,586340.809,586342.7000000179,586355.336,589738.239,8,400,,,
trial,html.Screen,4_107_0,2023-09-15T17:19:27.754Z,,0,3,,3046.761000000057,response,ISIC_0504730.JPG,5,ISIC_6155782.JPG,ISIC_6155782.JPG,false,0,keypress(z),500,592785.2000000179,592785,589721.427,589728,589738.239,592803.889,8,400,8,,ISIC_0504730.JPG
break,html.Screen,4_107_1,2023-09-15T17:19:27.755Z,,0,,,NaN,,,,,,false,,,,592785.8000000119,592785.599999994,,592785.3000000119,,592803.889,8,400,,,
break_continue,html.Screen,4_107_2,2023-09-15T17:19:27.755Z,,0,,,NaN,,,,,,false,,,,592786,592786,,592785.900000006,,592803.889,8,400,,,
sequence,flow.Sequence,4_107,2023-09-15T17:19:27.755Z,,0,,,3047.761000000057,completion,,,,,false,,,,592786.2000000179,592786,589721.427,589728,589738.239,592803.889,8,400,,,
trial,html.Screen,4_108_0,2023-09-15T17:19:30.781Z,,0,3,,3008.210999994073,response,ISIC_0031821.JPG,4,ISIC_0016137.JPG,ISIC_0016137.JPG,false,0,keypress(z),500,595812.400000006,595812.099999994,592779.257,592786.3000000119,592803.889,595818.808,8,400,9,,ISIC_0031821.JPG
break,html.Screen,4_108_1,2023-09-15T17:19:30.782Z,,0,,,NaN,,,,,,false,,,,595812.8000000119,595812.7000000179,,595812.5,,595818.808,8,400,,,
break_continue,html.Screen,4_108_2,2023-09-15T17:19:30.782Z,,0,,,NaN,,,,,,false,,,,595812.900000006,595812.900000006,,595812.900000006,,595818.808,8,400,,,
sequence,flow.Sequence,4_108,2023-09-15T17:19:30.782Z,,0,,,3009.011000005994,completion,,,,,false,,,,595813,595812.900000006,592779.257,592786.2000000179,592803.889,595818.808,8,400,,,
trial,html.Screen,4_109_0,2023-09-15T17:19:33.696Z,,0,3,,2907.5920000059996,response,ISIC_8523262.JPG,6,ISIC_7189490.JPG,ISIC_7189490.JPG,false,0,keypress(z),500,598726.7000000179,598726.400000006,595809.708,595813,595818.808,598734.444,8,400,10,,ISIC_8523262.JPG
break,html.Screen,4_109_1,2023-09-15T17:19:33.696Z,,0,,,NaN,,,,,,false,,,,598727.400000006,598727.3000000119,,598727,,598734.444,8,400,,,
break_continue,html.Screen,4_109_2,2023-09-15T17:19:33.697Z,,0,,,NaN,,,,,,false,,,,598727.8000000119,598727.7000000179,,598727.599999994,,598734.444,8,400,,,
sequence,flow.Sequence,4_109,2023-09-15T17:19:33.697Z,,0,,,2908.8920000179205,completion,,,,,false,,,,598727.900000006,598727.7000000179,595809.708,595813,595818.808,598734.444,8,400,,,
trial,html.Screen,4_110_0,2023-09-15T17:19:37.458Z,,0,3,,3754.155999994022,response,ISIC_0481702.JPG,5,ISIC_4432898.JPG,ISIC_4432898.JPG,false,0,keypress(z),500,602488.900000006,602488.599999994,598726.52,598727.900000006,598734.444,602500.072,8,400,11,,ISIC_0481702.JPG
break,html.Screen,4_110_1,2023-09-15T17:19:37.459Z,,0,,,NaN,,,,,,false,,,,602489.599999994,602489.5,,602489.099999994,,602500.072,8,400,,,
break_continue,html.Screen,4_110_2,2023-09-15T17:19:37.459Z,,0,,,NaN,,,,,,false,,,,602489.8000000119,602489.8000000119,,602489.7000000179,,602500.072,8,400,,,
sequence,flow.Sequence,4_110,2023-09-15T17:19:37.459Z,,0,,,3755.3560000119032,completion,,,,,false,,,,602490.099999994,602489.8000000119,598726.52,598727.900000006,598734.444,602500.072,8,400,,,
trial,html.Screen,4_111_0,2023-09-15T17:19:40.732Z,,0,3,,3262.8280000059167,response,ISIC_0063958.JPG,5,ISIC_0033946.JPG,ISIC_0063958.JPG,false,1,keypress(m),500,605763.099999994,605762.900000006,602484.839,602490.099999994,602500.072,605782.006,8,400,12,,ISIC_0033946.JPG
break,html.Screen,4_111_1,2023-09-15T17:19:40.733Z,,0,,,NaN,,,,,,false,,,,605763.599999994,605763.5,,605763.2000000179,,605782.006,8,400,,,
break_continue,html.Screen,4_111_2,2023-09-15T17:19:40.733Z,,0,,,NaN,,,,,,false,,,,605763.900000006,605763.8000000119,,605763.7000000179,,605782.006,8,400,,,
sequence,flow.Sequence,4_111,2023-09-15T17:19:40.733Z,,0,,,3263.728000011877,completion,,,,,false,,,,605764,605763.8000000119,602484.839,602490.099999994,602500.072,605782.006,8,400,,,
trial,html.Screen,4_112_0,2023-09-15T17:19:44.862Z,,0,3,,4111.093999993987,response,ISIC_0331124.JPG,6,ISIC_9178485.JPG,ISIC_0331124.JPG,false,1,keypress(m),500,609893.400000006,609893.099999994,605765.417,605764.099999994,605782.006,609897.279,8,400,13,,ISIC_9178485.JPG
break,html.Screen,4_112_1,2023-09-15T17:19:44.863Z,,0,,,NaN,,,,,,false,,,,609894.3000000119,609894.099999994,,609893.599999994,,609897.279,8,400,,,
break_continue,html.Screen,4_112_2,2023-09-15T17:19:44.863Z,,0,,,NaN,,,,,,false,,,,609894.400000006,609894.400000006,,609894.400000006,,609897.279,8,400,,,
sequence,flow.Sequence,4_112,2023-09-15T17:19:44.863Z,,0,,,4112.394000005908,completion,,,,,false,,,,609894.5,609894.400000006,605765.417,605764.099999994,605782.006,609897.279,8,400,,,
trial,html.Screen,4_113_0,2023-09-15T17:19:48.337Z,,0,3,,3470.7210000000196,response,ISIC_6674797.JPG,5,ISIC_0481702.JPG,ISIC_6674797.JPG,false,1,keypress(m),500,613368.2000000179,613368,609888.259,609894.5,609897.279,613379.463,8,400,14,,ISIC_0481702.JPG
break,html.Screen,4_113_1,2023-09-15T17:19:48.338Z,,0,,,NaN,,,,,,false,,,,613368.900000006,613368.7000000179,,613368.400000006,,613379.463,8,400,,,
break_continue,html.Screen,4_113_2,2023-09-15T17:19:48.338Z,,0,,,NaN,,,,,,false,,,,613369,613369,,613368.900000006,,613379.463,8,400,,,
sequence,flow.Sequence,4_113,2023-09-15T17:19:48.338Z,,0,,,3471.7210000000196,completion,,,,,false,,,,613369.099999994,613369,609888.259,609894.5,609897.279,613379.463,8,400,,,
trial,html.Screen,4_114_0,2023-09-15T17:19:51.241Z,,0,3,,2891.7370000178926,response,ISIC_8777813.JPG,6,ISIC_0014489.JPG,ISIC_0014489.JPG,false,0,keypress(z),500,616271.599999994,616271.2000000179,613354.722,613369.099999994,613379.463,616278.439,8,400,15,,ISIC_8777813.JPG
break,html.Screen,4_114_1,2023-09-15T17:19:51.241Z,,0,,,NaN,,,,,,false,,,,616272.5,616272.3000000119,,616271.8000000119,,616278.439,8,400,,,
break_continue,html.Screen,4_114_2,2023-09-15T17:19:51.242Z,,0,,,NaN,,,,,,false,,,,616272.599999994,616272.599999994,,616272.599999994,,616278.439,8,400,,,
sequence,flow.Sequence,4_114,2023-09-15T17:19:51.242Z,,0,,,2893.1369999940507,completion,,,,,false,,,,616272.7000000179,616272.599999994,613354.722,613369.099999994,613379.463,616278.439,8,400,,,
trial,html.Screen,4_115_0,2023-09-15T17:19:53.950Z,,0,3,,2702.1609999940265,response,ISIC_0062133.JPG,5,ISIC_7923008.JPG,ISIC_7923008.JPG,false,0,keypress(z),500,618981,618980.599999994,616263.437,616272.7000000179,616278.439,618994.138,8,400,16,,ISIC_0062133.JPG
break,html.Screen,4_115_1,2023-09-15T17:19:53.951Z,,0,,,NaN,,,,,,false,,,,618981.7000000179,618981.599999994,,618981.2000000179,,618994.138,8,400,,,
break_continue,html.Screen,4_115_2,2023-09-15T17:19:53.951Z,,0,,,NaN,,,,,,false,,,,618981.900000006,618981.8000000119,,618981.7000000179,,618994.138,8,400,,,
sequence,flow.Sequence,4_115,2023-09-15T17:19:53.951Z,,0,,,2703.361000011908,completion,,,,,false,,,,618982,618981.8000000119,616263.437,616272.7000000179,616278.439,618994.138,8,400,,,
trial,html.Screen,4_116_0,2023-09-15T17:19:58.049Z,,0,3,,4085.3619999999646,response,ISIC_0000441.JPG,5,ISIC_0064785.JPG,ISIC_0000441.JPG,false,1,keypress(m),500,623079.8000000119,623079.5,618969.41,618982.2000000179,618994.138,623092.751,8,400,17,,ISIC_0064785.JPG
break,html.Screen,4_116_1,2023-09-15T17:19:58.050Z,,0,,,NaN,,,,,,false,,,,623080.599999994,623080.400000006,,623080.099999994,,623092.751,8,400,,,
break_continue,html.Screen,4_116_2,2023-09-15T17:19:58.050Z,,0,,,NaN,,,,,,false,,,,623080.8000000119,623080.7000000179,,623080.599999994,,623092.751,8,400,,,
sequence,flow.Sequence,4_116,2023-09-15T17:19:58.050Z,,0,,,4086.562000017846,completion,,,,,false,,,,623080.8000000119,623080.7000000179,618969.41,618982.2000000179,618994.138,623092.751,8,400,,,
trial,html.Screen,4_117_0,2023-09-15T17:20:04.595Z,,0,3,,6532.949000017834,response,ISIC_7012881.JPG,5,ISIC_1369967.JPG,ISIC_7012881.JPG,false,1,keypress(m),500,629626,629625.7000000179,623067.095,623080.8000000119,623092.751,629640.822,8,400,18,,ISIC_1369967.JPG
break,html.Screen,4_117_1,2023-09-15T17:20:04.596Z,,0,,,NaN,,,,,,false,,,,629626.599999994,629626.5,,629626.2000000179,,629640.822,8,400,,,
break_continue,html.Screen,4_117_2,2023-09-15T17:20:04.596Z,,0,,,NaN,,,,,,false,,,,629626.8000000119,629626.8000000119,,629626.7000000179,,629640.822,8,400,,,
sequence,flow.Sequence,4_117,2023-09-15T17:20:04.596Z,,0,,,6534.049000011873,completion,,,,,false,,,,629627,629626.8000000119,623067.095,623080.8000000119,623092.751,629640.822,8,400,,,
trial,html.Screen,4_118_0,2023-09-15T17:20:11.930Z,,0,3,,7319.578000005917,response,ISIC_2465895.JPG,5,ISIC_0026498.JPG,ISIC_2465895.JPG,false,1,keypress(m),500,636960.8000000119,636960.400000006,629625.638,629627.099999994,629640.822,636971.322,8,400,19,,ISIC_0026498.JPG
break,html.Screen,4_118_1,2023-09-15T17:20:11.931Z,,0,,,NaN,,,,,,false,,,,636961.599999994,636961.400000006,,636961,,636971.322,8,400,,,
break_continue,html.Screen,4_118_2,2023-09-15T17:20:11.931Z,,0,,,NaN,,,,,,false,,,,636961.900000006,636961.8000000119,,636961.7000000179,,636971.322,8,400,,,
sequence,flow.Sequence,4_118,2023-09-15T17:20:11.931Z,,0,,,7320.978000011877,completion,,,,,false,,,,636962,636961.8000000119,629625.638,629627,629640.822,636971.322,8,400,,,
trial,html.Screen,4_119_0,2023-09-15T17:20:16.300Z,,0,3,,4359.378000017838,response,ISIC_0001139.JPG,5,ISIC_0034051.JPG,ISIC_0001139.JPG,false,1,keypress(m),500,641331.099999994,641330.7000000179,636946.907,636962.099999994,636971.322,641336.568,8,400,20,,ISIC_0034051.JPG
break,html.Screen,4_119_1,2023-09-15T17:20:16.301Z,,0,,,NaN,,,,,,false,,,,641331.599999994,641331.5,,641331.400000006,,641336.568,8,400,,,
break_continue,html.Screen,4_119_2,2023-09-15T17:20:16.301Z,,0,,,NaN,,,,,,false,,,,641331.8000000119,641331.7000000179,,641331.7000000179,,641336.568,8,400,,,
sequence,flow.Sequence,4_119,2023-09-15T17:20:16.301Z,,0,,,4360.378000017838,completion,,,,,false,,,,641331.8000000119,641331.7000000179,636946.907,636962,636971.322,641336.568,8,400,,,
trial,html.Screen,4_120_0,2023-09-15T17:20:19.646Z,,0,3,,3340.5319999940693,response,ISIC_3633306.JPG,5,ISIC_0032845.JPG,ISIC_0032845.JPG,false,0,keypress(z),500,644677.400000006,644677.099999994,641320.557,641331.900000006,641336.568,644685.356,8,400,21,,ISIC_3633306.JPG
break,html.Screen,4_120_1,2023-09-15T17:20:19.647Z,,0,,,NaN,,,,,,false,,,,644678,644677.900000006,,644677.599999994,,644685.356,8,400,,,
break_continue,html.Screen,4_120_2,2023-09-15T17:20:19.647Z,,0,,,NaN,,,,,,false,,,,644678.2000000179,644678.2000000179,,644678.099999994,,644685.356,8,400,,,
sequence,flow.Sequence,4_120,2023-09-15T17:20:19.647Z,,0,,,3341.632000017911,completion,,,,,false,,,,644678.3000000119,644678.2000000179,641320.557,641331.900000006,641336.568,644685.356,8,400,,,
trial,html.Screen,4_121_0,2023-09-15T17:20:26.116Z,,0,3,,6461.544000005932,response,ISIC_0941085.JPG,4,ISIC_0029081.JPG,ISIC_0941085.JPG,false,1,keypress(m),500,651147.2000000179,651146.900000006,644667.998,644678.3000000119,644685.356,651149.852,8,400,22,,ISIC_0029081.JPG
break,html.Screen,4_121_1,2023-09-15T17:20:26.116Z,,0,,,NaN,,,,,,false,,,,651147.5,651147.5,,651147.3000000119,,651149.852,8,400,,,
break_continue,html.Screen,4_121_2,2023-09-15T17:20:26.117Z,,0,,,NaN,,,,,,false,,,,651147.599999994,651147.5,,651147.5,,651149.852,8,400,,,
sequence,flow.Sequence,4_121,2023-09-15T17:20:26.117Z,,0,,,6462.143999999971,completion,,,,,false,,,,651147.599999994,651147.5,644667.998,644678.3000000119,644685.356,651149.852,8,400,,,
trial,html.Screen,4_122_0,2023-09-15T17:20:37.600Z,,0,3,,11512.777000000002,timeout,ISIC_0027024.JPG,4,ISIC_0071492.JPG,,false,,,500,662630.599999994,662630.3000000119,651135.005,651147.599999994,651149.852,662662.629,8,400,23,,
break,html.Screen,4_122_1,2023-09-15T17:20:37.600Z,,0,,,NaN,,,,,,false,,,,662631.3000000119,662631.099999994,,662630.8000000119,,662662.629,8,400,,,
break_continue,html.Screen,4_122_2,2023-09-15T17:20:37.600Z,,0,,,NaN,,,,,,false,,,,662631.599999994,662631.5,,662631.400000006,,662662.629,8,400,,,
sequence,flow.Sequence,4_122,2023-09-15T17:20:37.601Z,,0,,,11481.648000000045,completion,,,,,false,,,,662631.599999994,662631.5,651135.005,651147.599999994,651149.852,662662.629,8,400,,,
trial,html.Screen,4_123_0,2023-09-15T17:20:40.898Z,,0,3,,3266.371000000043,response,ISIC_0030462.JPG,5,ISIC_0046628.JPG,ISIC_0046628.JPG,false,0,keypress(z),500,665929.400000006,665929,662645.881,662631.8000000119,662662.629,665944.777,8,400,24,,ISIC_0030462.JPG
break,html.Screen,4_123_1,2023-09-15T17:20:40.899Z,,0,,,NaN,,,,,,false,,,,665930,665929.900000006,,665929.599999994,,665944.777,8,400,,,
break_continue,html.Screen,4_123_2,2023-09-15T17:20:40.899Z,,0,,,NaN,,,,,,false,,,,665930.3000000119,665930.2000000179,,665930.2000000179,,665944.777,8,400,,,
sequence,flow.Sequence,4_123,2023-09-15T17:20:40.899Z,,0,,,3267.5710000179242,completion,,,,,false,,,,665930.5,665930.2000000179,662645.881,662631.7000000179,662662.629,665944.777,8,400,,,
trial,html.Screen,4_124_0,2023-09-15T17:20:49.125Z,,0,3,,8211.023000011919,response,ISIC_0057192.JPG,5,ISIC_8860929.JPG,ISIC_0057192.JPG,false,1,keypress(m),500,674156.099999994,674155.8000000119,665928.829,665930.8000000119,665944.777,674158.682,8,400,25,,ISIC_8860929.JPG
break,html.Screen,4_124_1,2023-09-15T17:20:49.126Z,,0,,,NaN,,,,,,false,,,,674156.599999994,674156.5,,674156.2000000179,,674158.682,8,400,,,
break_continue,html.Screen,4_124_2,2023-09-15T17:20:49.126Z,,0,,,NaN,,,,,,false,,,,674156.8000000119,674156.7000000179,,674156.7000000179,,674158.682,8,400,,,
sequence,flow.Sequence,4_124,2023-09-15T17:20:49.126Z,,0,,,8211.92300001788,completion,,,,,false,,,,674156.900000006,674156.7000000179,665928.829,665930.8000000119,665944.777,674158.682,8,400,,,
trial,html.Screen,4_125_0,2023-09-15T17:20:52.439Z,,0,3,,3311.0180000178516,response,ISIC_0046615.JPG,5,ISIC_0071536.JPG,ISIC_0046615.JPG,false,1,keypress(m),500,677470,677469.7000000179,674140.394,674156.900000006,674158.682,677474.134,8,400,26,,ISIC_0071536.JPG
break,html.Screen,4_125_1,2023-09-15T17:20:52.440Z,,0,,,NaN,,,,,,false,,,,677470.900000006,677470.599999994,,677470.3000000119,,677474.134,8,400,,,
break_continue,html.Screen,4_125_2,2023-09-15T17:20:52.440Z,,0,,,NaN,,,,,,false,,,,677471.2000000179,677471.099999994,,677471,,677474.134,8,400,,,
sequence,flow.Sequence,4_125,2023-09-15T17:20:52.440Z,,0,,,3312.4179999940097,completion,,,,,false,,,,677471.400000006,677471.099999994,674140.394,674156.900000006,674158.682,677474.134,8,400,,,
trial,html.Screen,4_126_0,2023-09-15T17:20:55.898Z,,0,3,,3454.366000000038,response,ISIC_3509838.JPG,4,ISIC_4035599.JPG,ISIC_3509838.JPG,false,1,keypress(m),500,680928.8000000119,680928.5,677465.288,677471.400000006,677474.134,680939.921,8,400,27,,ISIC_4035599.JPG
break,html.Screen,4_126_1,2023-09-15T17:20:55.899Z,,0,,,NaN,,,,,,false,,,,680929.7000000179,680929.5,,680929,,680939.921,8,400,,,
