sender,sender_type,sender_id,timestamp,meta,,blockNo,condition,duration,ended_on,img_left,img_reveal,img_right,loser,practice,response,response_action,selection_duration,time_commit,time_end,time_render,time_run,time_show,time_switch,total_blocks,total_trials,trialNo,url,winner
informed_consent,html.Screen,0,2023-09-12T21:46:22.006Z,"{""labjs_version"":""20.2.4"",""labjs_build"":{""flavor"":""production"",""commit"":""f5b4a49f956347addd546a832a3327688c2c0fef""},""location"":""https://run.pavlovia.org/MurrayBennett/melanoma-2afc/?participant=65933&platform=sona"",""userAgent"":""Mozilla/5.0 (Windows NT 10.0; Win64; x64) AppleWebKit/537.36 (KHTML, like Gecko) Chrome/116.0.0.0 Safari/537.36"",""platform"":""Win32"",""language"":""en-US"",""locale"":""en-US"",""timeZone"":""America/Chicago"",""timezoneOffset"":300,""screen_width"":1920,""screen_height"":1080,""scroll_width"":1920,""scroll_height"":907,""window_innerWidth"":1920,""window_innerHeight"":955,""devicePixelRatio"":1}",,,,10861.12599985695,response,,,,,,consent,click button,,13684.5,13683.399999856949,2772.114,2788.0999999046326,2822.274,13720.918,,,,"{""participant"":""65933"",""platform"":""sona""}",
Welcome,html.Screen,1,2023-09-12T21:47:01.023Z,,,,irregular,38978.88199995232,response,,,,,,continue,click button,,52700.799999952316,52699.799999952316,13670.907,13684.799999952316,13720.918,52716.509,,,,,
trial,html.Screen,2_0_0,2023-09-12T21:47:12.522Z,,0,0,,11515.231,timeout,ISIC_0061792.JPG,,ISIC_4679428.JPG,,true,,,500,64200.200000047684,64199.700000047684,52699.955,52701,52716.509,64231.74,1,6,1,,
sequence,flow.Sequence,2_0,2023-09-12T21:47:12.523Z,,0,,,11483.191000047686,completion,,,,,true,,,,64200.799999952316,64199.700000047684,52699.955,52701,52716.509,64231.74,1,6,,,
trial,html.Screen,2_1_0,2023-09-12T21:47:17.469Z,,0,0,,4915.059999952318,response,ISIC_0776486.JPG,,ISIC_5199497.JPG,ISIC_5199497.JPG,true,0,keypress(z),500,69147.20000004768,69146.79999995232,64215.07,64201.09999990463,64231.74,69164.472,1,6,2,,ISIC_0776486.JPG
sequence,flow.Sequence,2_1,2023-09-12T21:47:17.469Z,,0,,,4915.059999952318,completion,,,,,true,,,,69147.79999995232,69146.79999995232,64215.07,64201.09999990463,64231.74,69164.472,1,6,,,
trial,html.Screen,2_2_0,2023-09-12T21:47:22.721Z,,0,0,,5234.228000047689,response,ISIC_8575776.JPG,,ISIC_2556187.JPG,ISIC_8575776.JPG,true,1,keypress(m),500,74399.09999990463,74398.70000004768,69147.882,69148.09999990463,69164.472,74413.841,1,6,3,,ISIC_2556187.JPG
sequence,flow.Sequence,2_2,2023-09-12T21:47:22.721Z,,0,,,5234.228000047689,completion,,,,,true,,,,74399.70000004768,74398.70000004768,69147.882,69148,69164.472,74413.841,1,6,,,
trial,html.Screen,2_3_0,2023-09-12T21:47:29.396Z,,0,0,,6660.359000047683,response,ISIC_9238366.JPG,,ISIC_8141769.JPG,ISIC_8141769.JPG,true,0,keypress(z),500,81074.59999990463,81074.20000004768,74397.541,74400.09999990463,74413.841,81079.747,1,6,4,,ISIC_9238366.JPG
sequence,flow.Sequence,2_3,2023-09-12T21:47:29.397Z,,0,,,6660.359000047683,completion,,,,,true,,,,81075.29999995232,81074.20000004768,74397.541,74400,74413.841,81079.747,1,6,,,
trial,html.Screen,2_4_0,2023-09-12T21:47:32.840Z,,0,0,,3437.8529999046295,response,ISIC_9959593.JPG,,ISIC_8949026.JPG,ISIC_8949026.JPG,true,0,keypress(z),500,84518.09999990463,84517.59999990463,81063.319,81075.70000004768,81079.747,84529.359,1,6,5,,ISIC_9959593.JPG
sequence,flow.Sequence,2_4,2023-09-12T21:47:32.840Z,,0,,,3437.8529999046295,completion,,,,,true,,,,84518.70000004768,84517.59999990463,81063.319,81075.5,81079.747,84529.359,1,6,,,
trial,html.Screen,2_5_0,2023-09-12T21:47:35.666Z,,0,0,,2814.040999856952,response,ISIC_0010479.JPG,,ISIC_0460240.JPG,ISIC_0460240.JPG,true,0,keypress(z),500,87343.5,87343.39999985695,84512.647,84519,84529.359,87345.589,1,6,6,,ISIC_0010479.JPG
sequence,flow.Sequence,2_5,2023-09-12T21:47:35.666Z,,0,,,2814.040999856952,completion,,,,,true,,,,87343.59999990463,87343.39999985695,84512.647,84518.89999985695,84529.359,87345.589,1,6,,,
loop,flow.Loop,2,2023-09-12T21:47:35.666Z,,,,,34626.89099985695,completion,,,,,true,,,,87343.79999995232,87343.39999985695,52699.955,52701,52716.509,87345.589,1,6,,,
exp_instructions,html.Screen,3,2023-09-12T21:47:45.064Z,,,,,9395.611000047676,response,,,,,,continue,keypress(Space),,96742.39999985695,96741.20000004768,87328.967,87343.79999995232,87345.589,96762.61,,,,,
trial,html.Screen,4_0_0,2023-09-12T21:47:49.682Z,,0,1,,4597.289999856948,response,ISIC_5732374.JPG,5,ISIC_6124481.JPG,ISIC_5732374.JPG,false,1,keypress(m),500,101360.29999995232,101359.89999985695,96741.257,96742.79999995232,96762.61,101377.377,8,400,1,,ISIC_6124481.JPG
break,html.Screen,4_0_1,2023-09-12T21:47:49.684Z,,0,,,NaN,,,,,,false,,,,101362.29999995232,101361.70000004768,,101360.70000004768,,101377.377,8,400,,,
break_continue,html.Screen,4_0_2,2023-09-12T21:47:49.685Z,,0,,,NaN,,,,,,false,,,,101363.29999995232,101363,,101362.5,,101377.377,8,400,,,
sequence,flow.Sequence,4_0,2023-09-12T21:47:49.686Z,,0,,,4600.389999999999,completion,,,,,false,,,,101363.59999990463,101363,96741.257,96742.70000004768,96762.61,101377.377,8,400,,,
trial,html.Screen,4_1_0,2023-09-12T21:47:52.861Z,,0,1,,3160.8230000476906,response,ISIC_0026264.JPG,5,ISIC_0066935.JPG,ISIC_0026264.JPG,false,1,keypress(m),500,104538.59999990463,104538.20000004768,101360.743,101363.89999985695,101377.377,104543.68,8,400,2,,ISIC_0066935.JPG
break,html.Screen,4_1_1,2023-09-12T21:47:52.862Z,,0,,,NaN,,,,,,false,,,,104540.20000004768,104539.70000004768,,104538.89999985695,,104543.68,8,400,,,
break_continue,html.Screen,4_1_2,2023-09-12T21:47:52.863Z,,0,,,NaN,,,,,,false,,,,104541,104540.70000004768,,104540.39999985695,,104543.68,8,400,,,
sequence,flow.Sequence,4_1,2023-09-12T21:47:52.863Z,,0,,,3163.3230000476906,completion,,,,,false,,,,104541.29999995232,104540.70000004768,101360.743,101363.70000004768,101377.377,104543.68,8,400,,,
trial,html.Screen,4_2_0,2023-09-12T21:47:55.796Z,,0,1,,2930.5200000476907,response,ISIC_4814912.JPG,4,ISIC_1911193.JPG,ISIC_1911193.JPG,false,0,keypress(z),500,107474.5,107474.20000004768,104527.783,104541.59999990463,104543.68,107494.112,8,400,3,,ISIC_4814912.JPG
break,html.Screen,4_2_1,2023-09-12T21:47:55.798Z,,0,,,NaN,,,,,,false,,,,107476,107475.59999990463,,107474.79999995232,,107494.112,8,400,,,
break_continue,html.Screen,4_2_2,2023-09-12T21:47:55.799Z,,0,,,NaN,,,,,,false,,,,107476.70000004768,107476.5,,107476.20000004768,,107494.112,8,400,,,
sequence,flow.Sequence,4_2,2023-09-12T21:47:55.799Z,,0,,,2932.820000000007,completion,,,,,false,,,,107477,107476.5,104527.783,104541.5,104543.68,107494.112,8,400,,,
trial,html.Screen,4_3_0,2023-09-12T21:48:00.829Z,,0,1,,5012.787999856955,response,ISIC_0011169.JPG,5,ISIC_1452314.JPG,ISIC_0011169.JPG,false,1,keypress(m),500,112507.20000004768,112506.89999985695,107460.11,107477.29999995232,107494.112,112527.634,8,400,4,,ISIC_1452314.JPG
break,html.Screen,4_3_1,2023-09-12T21:48:00.831Z,,0,,,NaN,,,,,,false,,,,112508.70000004768,112508.20000004768,,112507.5,,112527.634,8,400,,,
break_continue,html.Screen,4_3_2,2023-09-12T21:48:00.831Z,,0,,,NaN,,,,,,false,,,,112509.39999985695,112509.20000004768,,112508.89999985695,,112527.634,8,400,,,
sequence,flow.Sequence,4_3,2023-09-12T21:48:00.832Z,,0,,,5015.08800004769,completion,,,,,false,,,,112509.70000004768,112509.20000004768,107460.11,107477.20000004768,107494.112,112527.634,8,400,,,
trial,html.Screen,4_4_0,2023-09-12T21:48:05.285Z,,0,1,,4435.566000047678,response,ISIC_5327271.JPG,5,ISIC_4187627.JPG,ISIC_4187627.JPG,false,0,keypress(z),500,116963.29999995232,116963.20000004768,112493.044,112512.09999990463,112527.634,116975.757,8,400,5,,ISIC_5327271.JPG
break,html.Screen,4_4_1,2023-09-12T21:48:05.286Z,,0,,,NaN,,,,,,false,,,,116963.89999985695,116963.59999990463,,116963.39999985695,,116975.757,8,400,,,
break_continue,html.Screen,4_4_2,2023-09-12T21:48:05.286Z,,0,,,NaN,,,,,,false,,,,116964,116964,,116963.89999985695,,116975.757,8,400,,,
sequence,flow.Sequence,4_4,2023-09-12T21:48:05.286Z,,0,,,4436.3659999999945,completion,,,,,false,,,,116964.09999990463,116964,112493.044,112512,112527.634,116975.757,8,400,,,
trial,html.Screen,4_5_0,2023-09-12T21:48:08.283Z,,0,1,,2985.342999904635,response,ISIC_2563568.JPG,5,ISIC_5082596.JPG,ISIC_5082596.JPG,false,0,keypress(z),500,119961.20000004768,119961.09999990463,116958.695,116964.09999990463,116975.757,119975.136,8,400,6,,ISIC_2563568.JPG
break,html.Screen,4_5_1,2023-09-12T21:48:08.284Z,,0,,,NaN,,,,,,false,,,,119961.70000004768,119961.59999990463,,119961.39999985695,,119975.136,8,400,,,
break_continue,html.Screen,4_5_2,2023-09-12T21:48:08.284Z,,0,,,NaN,,,,,,false,,,,119961.89999985695,119961.89999985695,,119961.79999995232,,119975.136,8,400,,,
sequence,flow.Sequence,4_5,2023-09-12T21:48:08.284Z,,0,,,2986.142999856951,completion,,,,,false,,,,119962,119961.89999985695,116958.695,116964.09999990463,116975.757,119975.136,8,400,,,
trial,html.Screen,4_6_0,2023-09-12T21:48:11.486Z,,0,1,,3188.3640000000014,response,ISIC_2123159.JPG,5,ISIC_0064463.JPG,ISIC_2123159.JPG,false,1,keypress(m),500,123163.70000004768,123163.5,119958.787,119962,119975.136,123174.861,8,400,7,,ISIC_0064463.JPG
break,html.Screen,4_6_1,2023-09-12T21:48:11.487Z,,0,,,NaN,,,,,,false,,,,123165.09999990463,123164.70000004768,,123164,,123174.861,8,400,,,
break_continue,html.Screen,4_6_2,2023-09-12T21:48:11.488Z,,0,,,NaN,,,,,,false,,,,123165.70000004768,123165.59999990463,,123165.29999995232,,123174.861,8,400,,,
sequence,flow.Sequence,4_6,2023-09-12T21:48:11.488Z,,0,,,3190.463999904634,completion,,,,,false,,,,123165.89999985695,123165.59999990463,119958.787,119962,119975.136,123174.861,8,400,,,
trial,html.Screen,4_7_0,2023-09-12T21:48:15.298Z,,0,1,,3801.3390000476793,response,ISIC_0883408.JPG,6,ISIC_0070137.JPG,ISIC_0883408.JPG,false,1,keypress(m),500,126976.5,126976.20000004768,123157.886,123166.20000004768,123174.861,126991.067,8,400,8,,ISIC_0070137.JPG
break,html.Screen,4_7_1,2023-09-12T21:48:15.300Z,,0,,,NaN,,,,,,false,,,,126977.79999995232,126977.39999985695,,126976.70000004768,,126991.067,8,400,,,
break_continue,html.Screen,4_7_2,2023-09-12T21:48:15.300Z,,0,,,NaN,,,,,,false,,,,126978.39999985695,126978.20000004768,,126977.89999985695,,126991.067,8,400,,,
sequence,flow.Sequence,4_7,2023-09-12T21:48:15.301Z,,0,,,3803.3390000476793,completion,,,,,false,,,,126978.59999990463,126978.20000004768,123157.886,123166.20000004768,123174.861,126991.067,8,400,,,
trial,html.Screen,4_8_0,2023-09-12T21:48:19.370Z,,0,1,,4057.232999952321,response,ISIC_1161370.JPG,5,ISIC_0057484.JPG,ISIC_1161370.JPG,false,1,keypress(m),500,131048.5,131048.29999995232,126974.625,126978.89999985695,126991.067,131057.146,8,400,9,,ISIC_0057484.JPG
break,html.Screen,4_8_1,2023-09-12T21:48:19.371Z,,0,,,NaN,,,,,,false,,,,131048.89999985695,131048.79999995232,,131048.59999990463,,131057.146,8,400,,,
break_continue,html.Screen,4_8_2,2023-09-12T21:48:19.371Z,,0,,,NaN,,,,,,false,,,,131049.09999990463,131049.09999990463,,131049,,131057.146,8,400,,,
sequence,flow.Sequence,4_8,2023-09-12T21:48:19.371Z,,0,,,4058.032999904637,completion,,,,,false,,,,131049.20000004768,131049.09999990463,126974.625,126978.79999995232,126991.067,131057.146,8,400,,,
trial,html.Screen,4_9_0,2023-09-12T21:48:22.388Z,,0,1,,3008.5540000476904,response,ISIC_1838888.JPG,5,ISIC_0010866.JPG,ISIC_1838888.JPG,false,1,keypress(m),500,134066,134065.70000004768,131040.883,131049.20000004768,131057.146,134073.559,8,400,10,,ISIC_0010866.JPG
break,html.Screen,4_9_1,2023-09-12T21:48:22.389Z,,0,,,NaN,,,,,,false,,,,134067.39999985695,134067.09999990463,,134066.39999985695,,134073.559,8,400,,,
break_continue,html.Screen,4_9_2,2023-09-12T21:48:22.390Z,,0,,,NaN,,,,,,false,,,,134068.20000004768,134068.09999990463,,134067.70000004768,,134073.559,8,400,,,
sequence,flow.Sequence,4_9,2023-09-12T21:48:22.391Z,,0,,,3010.953999904639,completion,,,,,false,,,,134068.59999990463,134068.09999990463,131040.883,131049.20000004768,131057.146,134073.559,8,400,,,
trial,html.Screen,4_10_0,2023-09-12T21:48:25.370Z,,0,1,,2974.240999952308,response,ISIC_0067893.JPG,5,ISIC_5904116.JPG,ISIC_5904116.JPG,false,0,keypress(z),500,137047.89999985695,137047.79999995232,134056.696,134068.79999995232,134073.559,137056.423,8,400,11,,ISIC_0067893.JPG
break,html.Screen,4_10_1,2023-09-12T21:48:25.370Z,,0,,,NaN,,,,,,false,,,,137048.39999985695,137048.20000004768,,137048,,137056.423,8,400,,,
break_continue,html.Screen,4_10_2,2023-09-12T21:48:25.371Z,,0,,,NaN,,,,,,false,,,,137048.59999990463,137048.59999990463,,137048.5,,137056.423,8,400,,,
sequence,flow.Sequence,4_10,2023-09-12T21:48:25.371Z,,0,,,2975.040999904624,completion,,,,,false,,,,137048.79999995232,137048.59999990463,134056.696,134068.79999995232,134073.559,137056.423,8,400,,,
trial,html.Screen,4_11_0,2023-09-12T21:48:28.437Z,,0,1,,3058.476999856939,response,ISIC_0015044.JPG,5,ISIC_3909039.JPG,ISIC_3909039.JPG,false,0,keypress(z),500,140115.20000004768,140114.89999985695,137039.782,137048.89999985695,137056.423,140122.819,8,400,12,,ISIC_0015044.JPG
break,html.Screen,4_11_1,2023-09-12T21:48:28.439Z,,0,,,NaN,,,,,,false,,,,140116.59999990463,140116.20000004768,,140115.5,,140122.819,8,400,,,
break_continue,html.Screen,4_11_2,2023-09-12T21:48:28.439Z,,0,,,NaN,,,,,,false,,,,140117.39999985695,140117.20000004768,,140116.79999995232,,140122.819,8,400,,,
sequence,flow.Sequence,4_11,2023-09-12T21:48:28.440Z,,0,,,3060.777000047674,completion,,,,,false,,,,140117.70000004768,140117.20000004768,137039.782,137048.79999995232,137056.423,140122.819,8,400,,,
trial,html.Screen,4_12_0,2023-09-12T21:48:31.594Z,,0,1,,3149.280999904644,response,ISIC_2234076.JPG,5,ISIC_0072041.JPG,ISIC_2234076.JPG,false,1,keypress(m),500,143272.39999985695,143272.09999990463,140106.537,140117.89999985695,140122.819,143289.167,8,400,13,,ISIC_0072041.JPG
break,html.Screen,4_12_1,2023-09-12T21:48:31.596Z,,0,,,NaN,,,,,,false,,,,143273.89999985695,143273.5,,143272.79999995232,,143289.167,8,400,,,
break_continue,html.Screen,4_12_2,2023-09-12T21:48:31.597Z,,0,,,NaN,,,,,,false,,,,143274.70000004768,143274.5,,143274.09999990463,,143289.167,8,400,,,
sequence,flow.Sequence,4_12,2023-09-12T21:48:31.597Z,,0,,,3151.6810000000114,completion,,,,,false,,,,143275,143274.5,140106.537,140117.89999985695,140122.819,143289.167,8,400,,,
trial,html.Screen,4_13_0,2023-09-12T21:48:34.564Z,,0,1,,2952.732999856962,response,ISIC_0028800.JPG,6,ISIC_4981135.JPG,ISIC_4981135.JPG,false,0,keypress(z),500,146242.20000004768,146241.89999985695,143272.876,143275.20000004768,143289.167,146255.446,8,400,14,,ISIC_0028800.JPG
break,html.Screen,4_13_1,2023-09-12T21:48:34.566Z,,0,,,NaN,,,,,,false,,,,146243.89999985695,146243.29999995232,,146242.59999990463,,146255.446,8,400,,,
break_continue,html.Screen,4_13_2,2023-09-12T21:48:34.567Z,,0,,,NaN,,,,,,false,,,,146244.70000004768,146244.5,,146244.09999990463,,146255.446,8,400,,,
sequence,flow.Sequence,4_13,2023-09-12T21:48:34.567Z,,0,,,2955.3330000000133,completion,,,,,false,,,,146245.09999990463,146244.5,143272.876,143275.20000004768,143289.167,146255.446,8,400,,,
trial,html.Screen,4_14_0,2023-09-12T21:48:37.690Z,,0,1,,3112.2540000476874,response,ISIC_0015264.JPG,6,ISIC_2670475.JPG,ISIC_2670475.JPG,false,0,keypress(z),500,149368,149367.70000004768,146238.612,146245.20000004768,146255.446,149371.719,8,400,15,,ISIC_0015264.JPG
break,html.Screen,4_14_1,2023-09-12T21:48:37.691Z,,0,,,NaN,,,,,,false,,,,149369.5,149369.09999990463,,149368.29999995232,,149371.719,8,400,,,
break_continue,html.Screen,4_14_2,2023-09-12T21:48:37.692Z,,0,,,NaN,,,,,,false,,,,149370.5,149370.09999990463,,149369.70000004768,,149371.719,8,400,,,
sequence,flow.Sequence,4_14,2023-09-12T21:48:37.693Z,,0,,,3114.6539999046363,completion,,,,,false,,,,149370.70000004768,149370.09999990463,146238.612,146245.20000004768,146255.446,149371.719,8,400,,,
trial,html.Screen,4_15_0,2023-09-12T21:48:41.055Z,,0,1,,3361.180999856937,response,ISIC_5153848.JPG,6,ISIC_0028886.JPG,ISIC_0028886.JPG,false,0,keypress(z),500,152733.20000004768,152732.89999985695,149355.083,149370.89999985695,149371.719,152738.047,8,400,16,,ISIC_5153848.JPG
break,html.Screen,4_15_1,2023-09-12T21:48:41.057Z,,0,,,NaN,,,,,,false,,,,152734.70000004768,152734.29999995232,,152733.5,,152738.047,8,400,,,
break_continue,html.Screen,4_15_2,2023-09-12T21:48:41.057Z,,0,,,NaN,,,,,,false,,,,152735.39999985695,152735.20000004768,,152734.89999985695,,152738.047,8,400,,,
sequence,flow.Sequence,4_15,2023-09-12T21:48:41.058Z,,0,,,3363.481000047672,completion,,,,,false,,,,152735.89999985695,152735.20000004768,149355.083,149370.89999985695,149371.719,152738.047,8,400,,,
trial,html.Screen,4_16_0,2023-09-12T21:48:47.429Z,,0,1,,6368.453000000009,response,ISIC_5483119.JPG,5,ISIC_0004728.JPG,ISIC_0004728.JPG,false,0,keypress(z),500,159106.79999995232,159106.5,152721.769,152736.20000004768,152738.047,159120.618,8,400,17,,ISIC_5483119.JPG
break,html.Screen,4_16_1,2023-09-12T21:48:47.430Z,,0,,,NaN,,,,,,false,,,,159108.20000004768,159107.89999985695,,159107.20000004768,,159120.618,8,400,,,
break_continue,html.Screen,4_16_2,2023-09-12T21:48:47.431Z,,0,,,NaN,,,,,,false,,,,159109,159108.79999995232,,159108.39999985695,,159120.618,8,400,,,
sequence,flow.Sequence,4_16,2023-09-12T21:48:47.431Z,,0,,,6370.752999952325,completion,,,,,false,,,,159109.5,159108.79999995232,152721.769,152736.20000004768,152738.047,159120.618,8,400,,,
trial,html.Screen,4_17_0,2023-09-12T21:48:51.228Z,,0,1,,3785.281999856961,response,ISIC_0061562.JPG,5,ISIC_0319928.JPG,ISIC_0319928.JPG,false,0,keypress(z),500,162906.20000004768,162905.89999985695,159104.348,159109.79999995232,159120.618,162920.203,8,400,18,,ISIC_0061562.JPG
break,html.Screen,4_17_1,2023-09-12T21:48:51.230Z,,0,,,NaN,,,,,,false,,,,162907.70000004768,162907.39999985695,,162906.59999990463,,162920.203,8,400,,,
break_continue,html.Screen,4_17_2,2023-09-12T21:48:51.231Z,,0,,,NaN,,,,,,false,,,,162908.5,162908.29999995232,,162908,,162920.203,8,400,,,
sequence,flow.Sequence,4_17,2023-09-12T21:48:51.231Z,,0,,,3787.6819999523286,completion,,,,,false,,,,162908.79999995232,162908.29999995232,159104.348,159109.59999990463,159120.618,162920.203,8,400,,,
trial,html.Screen,4_18_0,2023-09-12T21:48:53.986Z,,0,1,,2744.1969998569402,response,ISIC_9041897.JPG,6,ISIC_0032840.JPG,ISIC_9041897.JPG,false,1,keypress(m),500,165664.5,165664.39999985695,162903.699,162909.20000004768,162920.203,165669.798,8,400,19,,ISIC_0032840.JPG
break,html.Screen,4_18_1,2023-09-12T21:48:53.987Z,,0,,,NaN,,,,,,false,,,,165665,165664.79999995232,,165664.59999990463,,165669.798,8,400,,,
break_continue,html.Screen,4_18_2,2023-09-12T21:48:53.987Z,,0,,,NaN,,,,,,false,,,,165665.20000004768,165665.09999990463,,165665.09999990463,,165669.798,8,400,,,
sequence,flow.Sequence,4_18,2023-09-12T21:48:53.987Z,,0,,,2744.896999904624,completion,,,,,false,,,,165665.20000004768,165665.09999990463,162903.699,162909.09999990463,162920.203,165669.798,8,400,,,
trial,html.Screen,4_19_0,2023-09-12T21:48:57.227Z,,0,1,,3234.402000047674,response,ISIC_0060158.JPG,4,ISIC_0011951.JPG,ISIC_0060158.JPG,false,1,keypress(m),500,168904.59999990463,168904.20000004768,165652.883,165665.29999995232,165669.798,168919.444,8,400,20,,ISIC_0011951.JPG
break,html.Screen,4_19_1,2023-09-12T21:48:57.228Z,,0,,,NaN,,,,,,false,,,,168905.89999985695,168905.59999990463,,168904.89999985695,,168919.444,8,400,,,
break_continue,html.Screen,4_19_2,2023-09-12T21:48:57.229Z,,0,,,NaN,,,,,,false,,,,168906.70000004768,168906.5,,168906.20000004768,,168919.444,8,400,,,
sequence,flow.Sequence,4_19,2023-09-12T21:48:57.229Z,,0,,,3236.70199999999,completion,,,,,false,,,,168907,168906.5,165652.883,165665.20000004768,165669.798,168919.444,8,400,,,
trial,html.Screen,4_20_0,2023-09-12T21:48:59.906Z,,0,1,,2664.9559998569603,response,ISIC_1595658.JPG,4,ISIC_8917755.JPG,ISIC_1595658.JPG,false,1,keypress(m),500,171584.5,171584.39999985695,168903.156,168907.29999995232,168919.444,171603.339,8,400,21,,ISIC_8917755.JPG
break,html.Screen,4_20_1,2023-09-12T21:48:59.907Z,,0,,,NaN,,,,,,false,,,,171585.09999990463,171584.89999985695,,171584.59999990463,,171603.339,8,400,,,
break_continue,html.Screen,4_20_2,2023-09-12T21:48:59.907Z,,0,,,NaN,,,,,,false,,,,171585.29999995232,171585.20000004768,,171585.09999990463,,171603.339,8,400,,,
sequence,flow.Sequence,4_20,2023-09-12T21:48:59.907Z,,0,,,2665.756000047695,completion,,,,,false,,,,171585.5,171585.20000004768,168903.156,168907.20000004768,168919.444,171603.339,8,400,,,
trial,html.Screen,4_21_0,2023-09-12T21:49:05.269Z,,0,1,,5343.760999904625,response,ISIC_4026569.JPG,6,ISIC_7912104.JPG,ISIC_4026569.JPG,false,1,keypress(m),500,176947.20000004768,176947.09999990463,171569.073,171585.5,171603.339,176951.813,8,400,22,,ISIC_7912104.JPG
break,html.Screen,4_21_1,2023-09-12T21:49:05.270Z,,0,,,NaN,,,,,,false,,,,176947.79999995232,176947.59999990463,,176947.29999995232,,176951.813,8,400,,,
break_continue,html.Screen,4_21_2,2023-09-12T21:49:05.270Z,,0,,,NaN,,,,,,false,,,,176948.09999990463,176948,,176947.89999985695,,176951.813,8,400,,,
sequence,flow.Sequence,4_21,2023-09-12T21:49:05.270Z,,0,,,5344.660999999993,completion,,,,,false,,,,176948.20000004768,176948,171569.073,171585.5,171603.339,176951.813,8,400,,,
trial,html.Screen,4_22_0,2023-09-12T21:49:08.555Z,,0,1,,3280.586999856954,response,ISIC_0032287.JPG,5,ISIC_0024315.JPG,ISIC_0024315.JPG,false,0,keypress(z),500,180232.59999990463,180232.39999985695,176935.024,176948.20000004768,176951.813,180234.753,8,400,23,,ISIC_0032287.JPG
break,html.Screen,4_22_1,2023-09-12T21:49:08.555Z,,0,,,NaN,,,,,,false,,,,180233.20000004768,180233,,180232.70000004768,,180234.753,8,400,,,
break_continue,html.Screen,4_22_2,2023-09-12T21:49:08.555Z,,0,,,NaN,,,,,,false,,,,180233.5,180233.39999985695,,180233.20000004768,,180234.753,8,400,,,
sequence,flow.Sequence,4_22,2023-09-12T21:49:08.556Z,,0,,,3281.586999856954,completion,,,,,false,,,,180233.5,180233.39999985695,176935.024,176948.20000004768,176951.813,180234.753,8,400,,,
trial,html.Screen,4_23_0,2023-09-12T21:49:11.213Z,,0,1,,2655.8469999046356,response,ISIC_6780901.JPG,6,ISIC_0057496.JPG,ISIC_6780901.JPG,false,1,keypress(m),500,182891,182890.59999990463,180218.469,180233.59999990463,180234.753,182901.194,8,400,24,,ISIC_0057496.JPG
break,html.Screen,4_23_1,2023-09-12T21:49:11.214Z,,0,,,NaN,,,,,,false,,,,182892.5,182892,,182891.29999995232,,182901.194,8,400,,,
break_continue,html.Screen,4_23_2,2023-09-12T21:49:11.215Z,,0,,,NaN,,,,,,false,,,,182893.20000004768,182893,,182892.59999990463,,182901.194,8,400,,,
sequence,flow.Sequence,4_23,2023-09-12T21:49:11.215Z,,0,,,2658.247000000003,completion,,,,,false,,,,182893.39999985695,182893,180218.469,180233.59999990463,180234.753,182901.194,8,400,,,
trial,html.Screen,4_24_0,2023-09-12T21:49:14.673Z,,0,1,,3450.2059998569603,response,ISIC_0014480.JPG,5,ISIC_7104307.JPG,ISIC_0014480.JPG,false,1,keypress(m),500,186351.5,186351.39999985695,182884.792,182893.70000004768,182901.194,186367.368,8,400,25,,ISIC_7104307.JPG
break,html.Screen,4_24_1,2023-09-12T21:49:14.674Z,,0,,,NaN,,,,,,false,,,,186351.89999985695,186351.70000004768,,186351.59999990463,,186367.368,8,400,,,
break_continue,html.Screen,4_24_2,2023-09-12T21:49:14.674Z,,0,,,NaN,,,,,,false,,,,186352.29999995232,186352.20000004768,,186352.09999990463,,186367.368,8,400,,,
sequence,flow.Sequence,4_24,2023-09-12T21:49:14.674Z,,0,,,3451.006000047695,completion,,,,,false,,,,186352.39999985695,186352.20000004768,182884.792,182893.70000004768,182901.194,186367.368,8,400,,,
trial,html.Screen,4_25_0,2023-09-12T21:49:17.610Z,,0,1,,2920.231999904645,response,ISIC_0010719.JPG,4,ISIC_8798059.JPG,ISIC_8798059.JPG,false,0,keypress(z),500,189287.70000004768,189287.59999990463,186350.842,186352.39999985695,186367.368,189300.372,8,400,26,,ISIC_0010719.JPG
break,html.Screen,4_25_1,2023-09-12T21:49:17.610Z,,0,,,NaN,,,,,,false,,,,189288.20000004768,189288.09999990463,,189287.79999995232,,189300.372,8,400,,,
break_continue,html.Screen,4_25_2,2023-09-12T21:49:17.610Z,,0,,,NaN,,,,,,false,,,,189288.39999985695,189288.39999985695,,189288.20000004768,,189300.372,8,400,,,
sequence,flow.Sequence,4_25,2023-09-12T21:49:17.610Z,,0,,,2921.031999856961,completion,,,,,false,,,,189288.5,189288.39999985695,186350.842,186352.39999985695,186367.368,189300.372,8,400,,,
trial,html.Screen,4_26_0,2023-09-12T21:49:20.994Z,,0,1,,3371.127999999997,response,ISIC_0001743.JPG,4,ISIC_0189694.JPG,ISIC_0001743.JPG,false,1,keypress(m),500,192671.59999990463,192671.5,189283.632,189288.59999990463,189300.372,192683.323,8,400,27,,ISIC_0189694.JPG
break,html.Screen,4_26_1,2023-09-12T21:49:20.994Z,,0,,,NaN,,,,,,false,,,,192672,192671.89999985695,,192671.79999995232,,192683.323,8,400,,,
break_continue,html.Screen,4_26_2,2023-09-12T21:49:20.994Z,,0,,,NaN,,,,,,false,,,,192672.20000004768,192672.09999990463,,192672.09999990463,,192683.323,8,400,,,
sequence,flow.Sequence,4_26,2023-09-12T21:49:20.994Z,,0,,,3371.7279999046295,completion,,,,,false,,,,192672.20000004768,192672.09999990463,189283.632,189288.59999990463,189300.372,192683.323,8,400,,,
trial,html.Screen,4_27_0,2023-09-12T21:49:24.635Z,,0,1,,3629.4769999523123,response,ISIC_6348638.JPG,5,ISIC_7341401.JPG,ISIC_6348638.JPG,false,1,keypress(m),500,196312.89999985695,196312.79999995232,192666.601,192672.29999995232,192683.323,196332.877,8,400,28,,ISIC_7341401.JPG
break,html.Screen,4_27_1,2023-09-12T21:49:24.635Z,,0,,,NaN,,,,,,false,,,,196313.29999995232,196313.20000004768,,196312.89999985695,,196332.877,8,400,,,
break_continue,html.Screen,4_27_2,2023-09-12T21:49:24.635Z,,0,,,NaN,,,,,,false,,,,196313.5,196313.39999985695,,196313.29999995232,,196332.877,8,400,,,
sequence,flow.Sequence,4_27,2023-09-12T21:49:24.636Z,,0,,,3630.076999856945,completion,,,,,false,,,,196313.59999990463,196313.39999985695,192666.601,192672.29999995232,192683.323,196332.877,8,400,,,
trial,html.Screen,4_28_0,2023-09-12T21:49:29.042Z,,0,1,,4386.922999952309,response,ISIC_9300579.JPG,5,ISIC_0024285.JPG,ISIC_9300579.JPG,false,1,keypress(m),500,200719.89999985695,200719.79999995232,196316.194,196313.59999990463,196332.877,200732.365,8,400,29,,ISIC_0024285.JPG
break,html.Screen,4_28_1,2023-09-12T21:49:29.042Z,,0,,,NaN,,,,,,false,,,,200720.5,200720.29999995232,,200720,,200732.365,8,400,,,
break_continue,html.Screen,4_28_2,2023-09-12T21:49:29.043Z,,0,,,NaN,,,,,,false,,,,200720.70000004768,200720.59999990463,,200720.5,,200732.365,8,400,,,
sequence,flow.Sequence,4_28,2023-09-12T21:49:29.043Z,,0,,,4387.722999904625,completion,,,,,false,,,,200720.79999995232,200720.59999990463,196316.194,196313.59999990463,196332.877,200732.365,8,400,,,
trial,html.Screen,4_29_0,2023-09-12T21:49:32.346Z,,0,1,,3291.234999904642,response,ISIC_7572137.JPG,6,ISIC_6732560.JPG,ISIC_6732560.JPG,false,0,keypress(z),500,204023.70000004768,204023.59999990463,200715.526,200720.89999985695,200732.365,204031.997,8,400,30,,ISIC_7572137.JPG
break,html.Screen,4_29_1,2023-09-12T21:49:32.346Z,,0,,,NaN,,,,,,false,,,,204024.20000004768,204024,,204023.79999995232,,204031.997,8,400,,,
break_continue,html.Screen,4_29_2,2023-09-12T21:49:32.346Z,,0,,,NaN,,,,,,false,,,,204024.39999985695,204024.39999985695,,204024.20000004768,,204031.997,8,400,,,
sequence,flow.Sequence,4_29,2023-09-12T21:49:32.346Z,,0,,,3292.034999856958,completion,,,,,false,,,,204024.39999985695,204024.39999985695,200715.526,200720.89999985695,200732.365,204031.997,8,400,,,
trial,html.Screen,4_30_0,2023-09-12T21:49:37.340Z,,0,1,,4986.302999952313,response,ISIC_0033512.JPG,6,ISIC_0014932.JPG,ISIC_0033512.JPG,false,1,keypress(m),500,209018.39999985695,209018.29999995232,204015.411,204024.5,204031.997,209031.616,8,400,31,,ISIC_0014932.JPG
break,html.Screen,4_30_1,2023-09-12T21:49:37.341Z,,0,,,NaN,,,,,,false,,,,209018.79999995232,209018.70000004768,,209018.5,,209031.616,8,400,,,
break_continue,html.Screen,4_30_2,2023-09-12T21:49:37.341Z,,0,,,NaN,,,,,,false,,,,209019,209019,,209018.89999985695,,209031.616,8,400,,,
sequence,flow.Sequence,4_30,2023-09-12T21:49:37.341Z,,0,,,4987.002999999997,completion,,,,,false,,,,209019,209019,204015.411,204024.5,204031.997,209031.616,8,400,,,
trial,html.Screen,4_31_0,2023-09-12T21:49:40.946Z,,0,1,,3591.883999999991,response,ISIC_0071133.JPG,5,ISIC_2256461.JPG,ISIC_2256461.JPG,false,0,keypress(z),500,212623.5,212623.5,209014.889,209019.09999990463,209031.616,212630.946,8,400,32,,ISIC_0071133.JPG
break,html.Screen,4_31_1,2023-09-12T21:49:40.946Z,,0,,,NaN,,,,,,false,,,,212623.89999985695,212623.89999985695,,212623.59999990463,,212630.946,8,400,,,
break_continue,html.Screen,4_31_2,2023-09-12T21:49:40.946Z,,0,,,NaN,,,,,,false,,,,212624.20000004768,212624.20000004768,,212624.09999990463,,212630.946,8,400,,,
sequence,flow.Sequence,4_31,2023-09-12T21:49:40.946Z,,0,,,3592.5840000476746,completion,,,,,false,,,,212624.20000004768,212624.20000004768,209014.889,209019.09999990463,209031.616,212630.946,8,400,,,
trial,html.Screen,4_32_0,2023-09-12T21:49:43.177Z,,0,1,,2224.1539999046363,response,ISIC_8922893.JPG,4,ISIC_0032047.JPG,ISIC_0032047.JPG,false,0,keypress(z),500,214855.20000004768,214855.09999990463,212614.011,212624.29999995232,212630.946,214864.3,8,400,33,,ISIC_8922893.JPG
break,html.Screen,4_32_1,2023-09-12T21:49:43.178Z,,0,,,NaN,,,,,,false,,,,214855.79999995232,214855.70000004768,,214855.39999985695,,214864.3,8,400,,,
break_continue,html.Screen,4_32_2,2023-09-12T21:49:43.178Z,,0,,,NaN,,,,,,false,,,,214856.20000004768,214856.09999990463,,214855.89999985695,,214864.3,8,400,,,
sequence,flow.Sequence,4_32,2023-09-12T21:49:43.178Z,,0,,,2225.1539999046363,completion,,,,,false,,,,214856.29999995232,214856.09999990463,212614.011,212624.20000004768,212630.946,214864.3,8,400,,,
trial,html.Screen,4_33_0,2023-09-12T21:49:46.258Z,,0,1,,3071.799999904644,response,ISIC_0011895.JPG,5,ISIC_9940466.JPG,ISIC_9940466.JPG,false,0,keypress(z),500,217936.20000004768,217936.09999990463,214847.788,214856.39999985695,214864.3,217946.997,8,400,34,,ISIC_0011895.JPG
break,html.Screen,4_33_1,2023-09-12T21:49:46.259Z,,0,,,NaN,,,,,,false,,,,217936.89999985695,217936.70000004768,,217936.29999995232,,217946.997,8,400,,,
break_continue,html.Screen,4_33_2,2023-09-12T21:49:46.259Z,,0,,,NaN,,,,,,false,,,,217937.20000004768,217937.20000004768,,217937,,217946.997,8,400,,,
sequence,flow.Sequence,4_33,2023-09-12T21:49:46.259Z,,0,,,3072.9000000476954,completion,,,,,false,,,,217937.39999985695,217937.20000004768,214847.788,214856.39999985695,214864.3,217946.997,8,400,,,
trial,html.Screen,4_34_0,2023-09-12T21:49:49.430Z,,0,1,,3160.402999856946,response,ISIC_2999018.JPG,4,ISIC_5955057.JPG,ISIC_2999018.JPG,false,1,keypress(m),500,221107.59999990463,221107.39999985695,217930.123,217937.39999985695,217946.997,221113.323,8,400,35,,ISIC_5955057.JPG
break,html.Screen,4_34_1,2023-09-12T21:49:49.430Z,,0,,,NaN,,,,,,false,,,,221108.5,221108.20000004768,,221107.79999995232,,221113.323,8,400,,,
break_continue,html.Screen,4_34_2,2023-09-12T21:49:49.431Z,,0,,,NaN,,,,,,false,,,,221108.89999985695,221108.79999995232,,221108.59999990463,,221113.323,8,400,,,
sequence,flow.Sequence,4_34,2023-09-12T21:49:49.431Z,,0,,,3161.8029999523133,completion,,,,,false,,,,221109,221108.79999995232,217930.123,217937.39999985695,217946.997,221113.323,8,400,,,
trial,html.Screen,4_35_0,2023-09-12T21:49:52.138Z,,0,1,,2702.7769999046286,response,ISIC_0029874.JPG,5,ISIC_8176449.JPG,ISIC_0029874.JPG,false,1,keypress(m),500,223816.20000004768,223816.09999990463,221096.782,221109.20000004768,221113.323,223829.661,8,400,36,,ISIC_8176449.JPG
break,html.Screen,4_35_1,2023-09-12T21:49:52.139Z,,0,,,NaN,,,,,,false,,,,223816.70000004768,223816.5,,223816.29999995232,,223829.661,8,400,,,
break_continue,html.Screen,4_35_2,2023-09-12T21:49:52.139Z,,0,,,NaN,,,,,,false,,,,223816.89999985695,223816.89999985695,,223816.79999995232,,223829.661,8,400,,,
sequence,flow.Sequence,4_35,2023-09-12T21:49:52.139Z,,0,,,2703.576999856945,completion,,,,,false,,,,223817,223816.89999985695,221096.782,221109.20000004768,221113.323,223829.661,8,400,,,
trial,html.Screen,4_36_0,2023-09-12T21:49:55.377Z,,0,1,,3225.43899990464,response,ISIC_0011463.JPG,6,ISIC_0028319.JPG,ISIC_0011463.JPG,false,1,keypress(m),500,227055.29999995232,227055.09999990463,223813.16,223817.09999990463,223829.661,227062.897,8,400,37,,ISIC_0028319.JPG
break,html.Screen,4_36_1,2023-09-12T21:49:55.378Z,,0,,,NaN,,,,,,false,,,,227056,227055.79999995232,,227055.5,,227062.897,8,400,,,
break_continue,html.Screen,4_36_2,2023-09-12T21:49:55.378Z,,0,,,NaN,,,,,,false,,,,227056.39999985695,227056.29999995232,,227056.20000004768,,227062.897,8,400,,,
sequence,flow.Sequence,4_36,2023-09-12T21:49:55.379Z,,0,,,3226.6389999523235,completion,,,,,false,,,,227056.59999990463,227056.29999995232,223813.16,223817.09999990463,223829.661,227062.897,8,400,,,
trial,html.Screen,4_37_0,2023-09-12T21:49:59.733Z,,0,1,,4347.502999856952,response,ISIC_9270367.JPG,5,ISIC_8268025.JPG,ISIC_9270367.JPG,false,1,keypress(m),500,231410.59999990463,231410.39999985695,227046.279,227056.70000004768,227062.897,231429.459,8,400,38,,ISIC_8268025.JPG
break,html.Screen,4_37_1,2023-09-12T21:49:59.734Z,,0,,,NaN,,,,,,false,,,,231411.79999995232,231411.5,,231410.89999985695,,231429.459,8,400,,,
break_continue,html.Screen,4_37_2,2023-09-12T21:49:59.734Z,,0,,,NaN,,,,,,false,,,,231412.39999985695,231412.29999995232,,231412,,231429.459,8,400,,,
sequence,flow.Sequence,4_37,2023-09-12T21:49:59.735Z,,0,,,4349.402999952319,completion,,,,,false,,,,231412.59999990463,231412.29999995232,227046.279,227056.59999990463,227062.897,231429.459,8,400,,,
trial,html.Screen,4_38_0,2023-09-12T21:50:03.721Z,,0,1,,3969.4409998569463,response,ISIC_0068080.JPG,5,ISIC_0010770.JPG,ISIC_0010770.JPG,false,0,keypress(z),500,235399.09999990463,235398.89999985695,231395.77,231412.79999995232,231429.459,235411.735,8,400,39,,ISIC_0068080.JPG
break,html.Screen,4_38_1,2023-09-12T21:50:03.722Z,,0,,,NaN,,,,,,false,,,,235399.79999995232,235399.59999990463,,235399.20000004768,,235411.735,8,400,,,
break_continue,html.Screen,4_38_2,2023-09-12T21:50:03.723Z,,0,,,NaN,,,,,,false,,,,235400.59999990463,235400.39999985695,,235400,,235411.735,8,400,,,
sequence,flow.Sequence,4_38,2023-09-12T21:50:03.723Z,,0,,,3970.9409998569463,completion,,,,,false,,,,235400.89999985695,235400.39999985695,231395.77,231412.79999995232,231429.459,235411.735,8,400,,,
trial,html.Screen,4_39_0,2023-09-12T21:50:07.070Z,,0,1,,3335.8649999046465,response,ISIC_0024380.JPG,5,ISIC_7775535.JPG,ISIC_7775535.JPG,false,0,keypress(z),500,238747.70000004768,238747.59999990463,235395.594,235401.09999990463,235411.735,238761.605,8,400,40,,ISIC_0024380.JPG
break,html.Screen,4_39_1,2023-09-12T21:50:07.070Z,,0,,,NaN,,,,,,false,,,,238748.20000004768,238748,,238747.79999995232,,238761.605,8,400,,,
break_continue,html.Screen,4_39_2,2023-09-12T21:50:07.070Z,,0,,,NaN,,,,,,false,,,,238748.39999985695,238748.29999995232,,238748.20000004768,,238761.605,8,400,,,
sequence,flow.Sequence,4_39,2023-09-12T21:50:07.070Z,,0,,,3336.5649999523303,completion,,,,,false,,,,238748.39999985695,238748.29999995232,235395.594,235401.09999990463,235411.735,238761.605,8,400,,,
trial,html.Screen,4_40_0,2023-09-12T21:50:11.055Z,,0,1,,3971.7949998569384,response,ISIC_0033196.JPG,5,ISIC_0014092.JPG,ISIC_0014092.JPG,false,0,keypress(z),500,242733.5,242733.39999985695,238744.287,238748.5,238761.605,242744.411,8,400,41,,ISIC_0033196.JPG
break,html.Screen,4_40_1,2023-09-12T21:50:11.056Z,,0,,,NaN,,,,,,false,,,,242734.09999990463,242733.89999985695,,242733.59999990463,,242744.411,8,400,,,
break_continue,html.Screen,4_40_2,2023-09-12T21:50:11.056Z,,0,,,NaN,,,,,,false,,,,242734.39999985695,242734.29999995232,,242734.20000004768,,242744.411,8,400,,,
sequence,flow.Sequence,4_40,2023-09-12T21:50:11.056Z,,0,,,3972.694999952306,completion,,,,,false,,,,242734.5,242734.29999995232,238744.287,238748.5,238761.605,242744.411,8,400,,,
trial,html.Screen,4_41_0,2023-09-12T21:50:14.346Z,,0,1,,3279.488999856956,response,ISIC_0024739.JPG,4,ISIC_6808543.JPG,ISIC_6808543.JPG,false,0,keypress(z),500,246024.29999995232,246023.89999985695,242727.511,242734.59999990463,242744.411,246027.133,8,400,42,,ISIC_0024739.JPG
break,html.Screen,4_41_1,2023-09-12T21:50:14.348Z,,0,,,NaN,,,,,,false,,,,246025.79999995232,246025.29999995232,,246024.59999990463,,246027.133,8,400,,,
break_continue,html.Screen,4_41_2,2023-09-12T21:50:14.348Z,,0,,,NaN,,,,,,false,,,,246026.5,246026.29999995232,,246026,,246027.133,8,400,,,
sequence,flow.Sequence,4_41,2023-09-12T21:50:14.349Z,,0,,,3281.8889999523235,completion,,,,,false,,,,246026.79999995232,246026.29999995232,242727.511,242734.59999990463,242744.411,246027.133,8,400,,,
trial,html.Screen,4_42_0,2023-09-12T21:50:17.329Z,,0,1,,2979.766999856947,response,ISIC_0054048.JPG,6,ISIC_6145261.JPG,ISIC_6145261.JPG,false,0,keypress(z),500,249007,249006.89999985695,246010.311,246027.09999990463,246027.133,249010.02,8,400,43,,ISIC_0054048.JPG
break,html.Screen,4_42_1,2023-09-12T21:50:17.330Z,,0,,,NaN,,,,,,false,,,,249007.5,249007.29999995232,,249007.09999990463,,249010.02,8,400,,,
break_continue,html.Screen,4_42_2,2023-09-12T21:50:17.330Z,,0,,,NaN,,,,,,false,,,,249007.70000004768,249007.59999990463,,249007.59999990463,,249010.02,8,400,,,
sequence,flow.Sequence,4_42,2023-09-12T21:50:17.330Z,,0,,,2980.466999904631,completion,,,,,false,,,,249008.29999995232,249007.59999990463,246010.311,246027,246027.133,249010.02,8,400,,,
trial,html.Screen,4_43_0,2023-09-12T21:50:21.140Z,,0,1,,3807.8799998569593,response,ISIC_1440377.JPG,4,ISIC_0013639.JPG,ISIC_1440377.JPG,false,1,keypress(m),500,252818,252817.89999985695,248993.359,249008.39999985695,249010.02,252826.277,8,400,44,,ISIC_0013639.JPG
break,html.Screen,4_43_1,2023-09-12T21:50:21.141Z,,0,,,NaN,,,,,,false,,,,252819,252818.70000004768,,252818.29999995232,,252826.277,8,400,,,
break_continue,html.Screen,4_43_2,2023-09-12T21:50:21.141Z,,0,,,NaN,,,,,,false,,,,252819.5,252819.29999995232,,252819.09999990463,,252826.277,8,400,,,
sequence,flow.Sequence,4_43,2023-09-12T21:50:21.142Z,,0,,,3809.2799999523268,completion,,,,,false,,,,252819.59999990463,252819.29999995232,248993.359,249008.39999985695,249010.02,252826.277,8,400,,,
trial,html.Screen,4_44_0,2023-09-12T21:50:25.496Z,,0,1,,4347.522999952314,response,ISIC_0025139.JPG,5,ISIC_7295035.JPG,ISIC_0025139.JPG,false,1,keypress(m),500,257174.09999990463,257173.79999995232,252809.841,252819.70000004768,252826.277,257192.993,8,400,45,,ISIC_7295035.JPG
break,html.Screen,4_44_1,2023-09-12T21:50:25.498Z,,0,,,NaN,,,,,,false,,,,257175.59999990463,257175.20000004768,,257174.5,,257192.993,8,400,,,
break_continue,html.Screen,4_44_2,2023-09-12T21:50:25.498Z,,0,,,NaN,,,,,,false,,,,257176.39999985695,257176.09999990463,,257175.79999995232,,257192.993,8,400,,,
sequence,flow.Sequence,4_44,2023-09-12T21:50:25.499Z,,0,,,4349.822999904631,completion,,,,,false,,,,257176.70000004768,257176.09999990463,252809.841,252819.70000004768,252826.277,257192.993,8,400,,,
trial,html.Screen,4_45_0,2023-09-12T21:50:28.478Z,,0,1,,2962.3069999523286,response,ISIC_1616031.JPG,6,ISIC_0072943.JPG,ISIC_0072943.JPG,false,0,keypress(z),500,260155.59999990463,260155.29999995232,257159.615,257176.89999985695,257192.993,260158.844,8,400,46,,ISIC_1616031.JPG
break,html.Screen,4_45_1,2023-09-12T21:50:28.479Z,,0,,,NaN,,,,,,false,,,,260156.89999985695,260156.5,,260155.89999985695,,260158.844,8,400,,,
break_continue,html.Screen,4_45_2,2023-09-12T21:50:28.480Z,,0,,,NaN,,,,,,false,,,,260157.70000004768,260157.39999985695,,260157.09999990463,,260158.844,8,400,,,
sequence,flow.Sequence,4_45,2023-09-12T21:50:28.480Z,,0,,,2964.406999856961,completion,,,,,false,,,,260158,260157.39999985695,257159.615,257176.79999995232,257192.993,260158.844,8,400,,,
trial,html.Screen,4_46_0,2023-09-12T21:50:32.164Z,,0,1,,3682.856000047672,response,ISIC_0054021.JPG,6,ISIC_2508901.JPG,ISIC_2508901.JPG,false,0,keypress(z),500,263842.09999990463,263841.7000000477,260142.202,260158.20000004768,260158.844,263858.459,8,400,47,,ISIC_0054021.JPG
break,html.Screen,4_46_1,2023-09-12T21:50:32.165Z,,0,,,NaN,,,,,,false,,,,263843.5,263843.09999990463,,263842.39999985695,,263858.459,8,400,,,
break_continue,html.Screen,4_46_2,2023-09-12T21:50:32.166Z,,0,,,NaN,,,,,,false,,,,263844.2000000477,263844,,263843.7000000477,,263858.459,8,400,,,
sequence,flow.Sequence,4_46,2023-09-12T21:50:32.167Z,,0,,,3685.155999999988,completion,,,,,false,,,,263844.59999990463,263844,260142.202,260158.09999990463,260158.844,263858.459,8,400,,,
trial,html.Screen,4_47_0,2023-09-12T21:50:35.162Z,,0,1,,2981.4409998569754,response,ISIC_5240648.JPG,5,ISIC_0028022.JPG,ISIC_0028022.JPG,false,0,keypress(z),500,266840.2000000477,266839.89999985695,263841.754,263844.7999999523,263858.459,266874.989,8,400,48,,ISIC_5240648.JPG
break,html.Screen,4_47_1,2023-09-12T21:50:35.164Z,,0,,,NaN,,,,,,false,,,,266841.59999990463,266841.2000000477,,266840.5,,266874.989,8,400,,,
break_continue,html.Screen,4_47_2,2023-09-12T21:50:35.164Z,,0,,,NaN,,,,,,false,,,,266842.39999985695,266842.2000000477,,266841.7999999523,,266874.989,8,400,,,
sequence,flow.Sequence,4_47,2023-09-12T21:50:35.165Z,,0,,,2983.7410000477103,completion,,,,,false,,,,266842.59999990463,266842.2000000477,263841.754,263844.7999999523,263858.459,266874.989,8,400,,,
trial,html.Screen,4_48_0,2023-09-12T21:50:37.812Z,,0,1,,2615.2110000476823,response,ISIC_0726170.JPG,5,ISIC_0032549.JPG,ISIC_0726170.JPG,false,1,keypress(m),500,269490.5,269490.2000000477,266858.272,266842.89999985695,266874.989,269507.714,8,400,49,,ISIC_0032549.JPG
break,html.Screen,4_48_1,2023-09-12T21:50:37.814Z,,0,,,NaN,,,,,,false,,,,269492,269491.59999990463,,269490.89999985695,,269507.714,8,400,,,
break_continue,html.Screen,4_48_2,2023-09-12T21:50:37.815Z,,0,,,NaN,,,,,,false,,,,269492.7000000477,269492.5,,269492.2000000477,,269507.714,8,400,,,
sequence,flow.Sequence,4_48,2023-09-12T21:50:37.815Z,,0,,,2617.5109999999986,completion,,,,,false,,,,269493,269492.5,266858.272,266842.7999999523,266874.989,269507.714,8,400,,,
trial,html.Screen,4_49_0,2023-09-12T21:50:41.754Z,,0,1,,3924.3859999046545,response,ISIC_2707664.JPG,6,ISIC_0032887.JPG,ISIC_2707664.JPG,false,1,keypress(m),500,273432.39999985695,273432.09999990463,269491.141,269493.2999999523,269507.714,273440.567,8,400,50,,ISIC_0032887.JPG
break,html.Screen,4_49_1,2023-09-12T21:50:51.746Z,,0,,,9998.811000000045,timeout,,,,,false,,,,283423.7000000477,283423.006,273424.443,273432.7000000477,273440.567,283439.378,8,400,,,
break_continue,html.Screen,4_49_2,2023-09-12T21:51:15.647Z,,0,,,23875.621999999974,response,,,,,false,continue,keypress(Space),,307324.7000000477,307315,283423.006,283423.89999985695,283439.378,307336.599,8,400,,,
sequence,flow.Sequence,4_49,2023-09-12T21:51:15.647Z,,0,,,37807.28600000002,completion,,,,,false,,,,307324.89999985695,307315,269491.141,269493.2000000477,269507.714,307336.599,8,400,,,
trial,html.Screen,4_50_0,2023-09-12T21:51:20.546Z,,0,2,,4887.601000047696,response,ISIC_8266094.JPG,6,ISIC_0057978.JPG,ISIC_8266094.JPG,false,1,keypress(m),500,312224.39999985695,312224.2000000477,307320.192,307326,307336.599,312236.046,8,400,1,,ISIC_0057978.JPG
break,html.Screen,4_50_1,2023-09-12T21:51:20.547Z,,0,,,NaN,,,,,,false,,,,312225.2999999523,312225,,312224.59999990463,,312236.046,8,400,,,
break_continue,html.Screen,4_50_2,2023-09-12T21:51:20.548Z,,0,,,NaN,,,,,,false,,,,312225.7999999523,312225.59999990463,,312225.39999985695,,312236.046,8,400,,,
sequence,flow.Sequence,4_50,2023-09-12T21:51:20.548Z,,0,,,4889.000999904645,completion,,,,,false,,,,312225.89999985695,312225.59999990463,307320.192,307325,307336.599,312236.046,8,400,,,
trial,html.Screen,4_51_0,2023-09-12T21:51:23.323Z,,0,2,,2764.454000000027,response,ISIC_9470876.JPG,5,ISIC_4960406.JPG,ISIC_9470876.JPG,false,1,keypress(m),500,315000.7000000477,315000.5,312219.515,312226,312236.046,315020.334,8,400,2,,ISIC_4960406.JPG
break,html.Screen,4_51_1,2023-09-12T21:51:23.324Z,,0,,,NaN,,,,,,false,,,,315002.2000000477,315001.7999999523,,315001.09999990463,,315020.334,8,400,,,
break_continue,html.Screen,4_51_2,2023-09-12T21:51:23.325Z,,0,,,NaN,,,,,,false,,,,315003,315002.7999999523,,315002.5,,315020.334,8,400,,,
sequence,flow.Sequence,4_51,2023-09-12T21:51:23.325Z,,0,,,2766.7539999523433,completion,,,,,false,,,,315003.2000000477,315002.7999999523,312219.515,312226,312236.046,315020.334,8,400,,,
trial,html.Screen,4_52_0,2023-09-12T21:51:25.999Z,,0,2,,2657.0659998569754,response,ISIC_0032610.JPG,4,ISIC_9896801.JPG,ISIC_9896801.JPG,false,0,keypress(z),500,317677.5,317677.39999985695,314985.916,315003.5,315020.334,317685.379,8,400,3,,ISIC_0032610.JPG
break,html.Screen,4_52_1,2023-09-12T21:51:26.000Z,,0,,,NaN,,,,,,false,,,,317678.09999990463,317678,,317677.7000000477,,317685.379,8,400,,,
break_continue,html.Screen,4_52_2,2023-09-12T21:51:26.000Z,,0,,,NaN,,,,,,false,,,,317678.5,317678.2999999523,,317678.2000000477,,317685.379,8,400,,,
sequence,flow.Sequence,4_52,2023-09-12T21:51:26.001Z,,0,,,2657.965999952343,completion,,,,,false,,,,317678.59999990463,317678.2999999523,314985.916,315003.5,315020.334,317685.379,8,400,,,
trial,html.Screen,4_53_0,2023-09-12T21:51:28.996Z,,0,2,,2988.5209998569335,response,ISIC_0060351.JPG,5,ISIC_0057371.JPG,ISIC_0057371.JPG,false,0,keypress(z),500,320674.2000000477,320673.89999985695,317669.12,317678.7000000477,317685.379,320685.083,8,400,4,,ISIC_0060351.JPG
break,html.Screen,4_53_1,2023-09-12T21:51:28.997Z,,0,,,NaN,,,,,,false,,,,320675.2000000477,320674.89999985695,,320674.39999985695,,320685.083,8,400,,,
break_continue,html.Screen,4_53_2,2023-09-12T21:51:28.998Z,,0,,,NaN,,,,,,false,,,,320675.7999999523,320675.7000000477,,320675.39999985695,,320685.083,8,400,,,
sequence,flow.Sequence,4_53,2023-09-12T21:51:28.998Z,,0,,,2990.3210000476683,completion,,,,,false,,,,320676,320675.7000000477,317669.12,317678.59999990463,317685.379,320685.083,8,400,,,
trial,html.Screen,4_54_0,2023-09-12T21:51:31.785Z,,0,2,,2777.716999952332,response,ISIC_0025085.JPG,4,ISIC_0024219.JPG,ISIC_0024219.JPG,false,0,keypress(z),500,323463,323462.7999999523,320668.314,320676.2000000477,320685.083,323468.036,8,400,5,,ISIC_0025085.JPG
break,html.Screen,4_54_1,2023-09-12T21:51:31.786Z,,0,,,NaN,,,,,,false,,,,323463.89999985695,323463.59999990463,,323463.2000000477,,323468.036,8,400,,,
break_continue,html.Screen,4_54_2,2023-09-12T21:51:31.786Z,,0,,,NaN,,,,,,false,,,,323464.39999985695,323464.2000000477,,323464,,323468.036,8,400,,,
sequence,flow.Sequence,4_54,2023-09-12T21:51:31.787Z,,0,,,2779.1170000476995,completion,,,,,false,,,,323464.59999990463,323464.2000000477,320668.314,320676.09999990463,320685.083,323468.036,8,400,,,
trial,html.Screen,4_55_0,2023-09-12T21:51:34.461Z,,0,2,,2671.164000047662,response,ISIC_0012049.JPG,6,ISIC_0060934.JPG,ISIC_0060934.JPG,false,0,keypress(z),500,326139.39999985695,326139.2000000477,323451.713,323464.7000000477,323468.036,326151.358,8,400,6,,ISIC_0012049.JPG
break,html.Screen,4_55_1,2023-09-12T21:51:34.462Z,,0,,,NaN,,,,,,false,,,,326140.2000000477,326140.09999990463,,326139.5,,326151.358,8,400,,,
break_continue,html.Screen,4_55_2,2023-09-12T21:51:34.463Z,,0,,,NaN,,,,,,false,,,,326140.7000000477,326140.59999990463,,326140.39999985695,,326151.358,8,400,,,
sequence,flow.Sequence,4_55,2023-09-12T21:51:34.463Z,,0,,,2672.5639999046107,completion,,,,,false,,,,326140.89999985695,326140.59999990463,323451.713,323464.7000000477,323468.036,326151.358,8,400,,,
trial,html.Screen,4_56_0,2023-09-12T21:51:37.346Z,,0,2,,2871.941999952309,response,ISIC_5037784.JPG,5,ISIC_0063692.JPG,ISIC_5037784.JPG,false,1,keypress(m),500,329023.59999990463,329023.2999999523,326134.49,326141.09999990463,326151.358,329034.071,8,400,7,,ISIC_0063692.JPG
break,html.Screen,4_56_1,2023-09-12T21:51:37.347Z,,0,,,NaN,,,,,,false,,,,329024.89999985695,329024.5,,329023.89999985695,,329034.071,8,400,,,
break_continue,html.Screen,4_56_2,2023-09-12T21:51:37.347Z,,0,,,NaN,,,,,,false,,,,329025.5,329025.39999985695,,329025.09999990463,,329034.071,8,400,,,
sequence,flow.Sequence,4_56,2023-09-12T21:51:37.348Z,,0,,,2874.0419998569414,completion,,,,,false,,,,329025.7000000477,329025.39999985695,326134.49,326141,326151.358,329034.071,8,400,,,
trial,html.Screen,4_57_0,2023-09-12T21:51:39.975Z,,0,2,,2618.72899995232,response,ISIC_0009918.JPG,6,ISIC_2038024.JPG,ISIC_2038024.JPG,false,0,keypress(z),500,331653,331652.7999999523,329017.55,329025.89999985695,329034.071,331667.078,8,400,8,,ISIC_0009918.JPG
break,html.Screen,4_57_1,2023-09-12T21:51:39.975Z,,0,,,NaN,,,,,,false,,,,331653.39999985695,331653.2999999523,,331653.09999990463,,331667.078,8,400,,,
break_continue,html.Screen,4_57_2,2023-09-12T21:51:39.976Z,,0,,,NaN,,,,,,false,,,,331653.59999990463,331653.59999990463,,331653.5,,331667.078,8,400,,,
sequence,flow.Sequence,4_57,2023-09-12T21:51:39.976Z,,0,,,2619.5289999046363,completion,,,,,false,,,,331653.7000000477,331653.59999990463,329017.55,329025.89999985695,329034.071,331667.078,8,400,,,
trial,html.Screen,4_58_0,2023-09-12T21:51:42.697Z,,0,2,,2707.622000047704,response,ISIC_4552230.JPG,4,ISIC_0011247.JPG,ISIC_4552230.JPG,false,1,keypress(m),500,334375,334374.7000000477,331650.238,331653.7999999523,331667.078,334383.466,8,400,9,,ISIC_0011247.JPG
break,html.Screen,4_58_1,2023-09-12T21:51:42.698Z,,0,,,NaN,,,,,,false,,,,334375.89999985695,334375.7000000477,,334375.2000000477,,334383.466,8,400,,,
break_continue,html.Screen,4_58_2,2023-09-12T21:51:42.698Z,,0,,,NaN,,,,,,false,,,,334376.5,334376.39999985695,,334376.09999990463,,334383.466,8,400,,,
sequence,flow.Sequence,4_58,2023-09-12T21:51:42.699Z,,0,,,2709.3219998569693,completion,,,,,false,,,,334376.7000000477,334376.39999985695,331650.238,331653.7999999523,331667.078,334383.466,8,400,,,
trial,html.Screen,4_59_0,2023-09-12T21:51:45.268Z,,0,2,,2562.234000047669,response,ISIC_0029212.JPG,4,ISIC_8428097.JPG,ISIC_8428097.JPG,false,0,keypress(z),500,336945.7999999523,336945.7000000477,334367.098,334376.7999999523,334383.466,336949.824,8,400,10,,ISIC_0029212.JPG
break,html.Screen,4_59_1,2023-09-12T21:51:45.268Z,,0,,,NaN,,,,,,false,,,,336946.2000000477,336946.09999990463,,336945.89999985695,,336949.824,8,400,,,
break_continue,html.Screen,4_59_2,2023-09-12T21:51:45.268Z,,0,,,NaN,,,,,,false,,,,336946.5,336946.5,,336946.2999999523,,336949.824,8,400,,,
sequence,flow.Sequence,4_59,2023-09-12T21:51:45.269Z,,0,,,2563.033999999985,completion,,,,,false,,,,336946.59999990463,336946.5,334367.098,334376.7999999523,334383.466,336949.824,8,400,,,
trial,html.Screen,4_60_0,2023-09-12T21:51:47.942Z,,0,2,,2670.27599990461,response,ISIC_0059336.JPG,5,ISIC_0004558.JPG,ISIC_0004558.JPG,false,0,keypress(z),500,339620.39999985695,339620.09999990463,336933.181,336946.59999990463,336949.824,339632.884,8,400,11,,ISIC_0059336.JPG
break,html.Screen,4_60_1,2023-09-12T21:51:47.943Z,,0,,,NaN,,,,,,false,,,,339621.2999999523,339621,,339620.5,,339632.884,8,400,,,
break_continue,html.Screen,4_60_2,2023-09-12T21:51:47.944Z,,0,,,NaN,,,,,,false,,,,339621.7999999523,339621.7000000477,,339621.5,,339632.884,8,400,,,
sequence,flow.Sequence,4_60,2023-09-12T21:51:47.944Z,,0,,,2671.8760000476614,completion,,,,,false,,,,339622,339621.7000000477,336933.181,336946.59999990463,336949.824,339632.884,8,400,,,
trial,html.Screen,4_61_0,2023-09-12T21:51:56.970Z,,0,2,,9014.715999904613,response,ISIC_9203812.JPG,5,ISIC_0025965.JPG,ISIC_0025965.JPG,false,0,keypress(z),500,348647.89999985695,348647.59999990463,339616.114,339622.2000000477,339632.884,348665.385,8,400,12,,ISIC_9203812.JPG
break,html.Screen,4_61_1,2023-09-12T21:51:56.971Z,,0,,,NaN,,,,,,false,,,,348649.5,348649.09999990463,,348648.2000000477,,348665.385,8,400,,,
break_continue,html.Screen,4_61_2,2023-09-12T21:51:56.972Z,,0,,,NaN,,,,,,false,,,,348650.2000000477,348650.09999990463,,348649.7000000477,,348665.385,8,400,,,
sequence,flow.Sequence,4_61,2023-09-12T21:51:56.973Z,,0,,,9017.215999904613,completion,,,,,false,,,,348650.59999990463,348650.09999990463,339616.114,339622.09999990463,339632.884,348665.385,8,400,,,
trial,html.Screen,4_62_0,2023-09-12T21:52:00.243Z,,0,2,,3255.1149999999907,response,ISIC_8559515.JPG,5,ISIC_0817140.JPG,ISIC_8559515.JPG,false,1,keypress(m),500,351920.7999999523,351920.5,348648.507,348650.7999999523,348665.385,351931.433,8,400,13,,ISIC_0817140.JPG
break,html.Screen,4_62_1,2023-09-12T21:52:00.244Z,,0,,,NaN,,,,,,false,,,,351922.2000000477,351921.7999999523,,351921.2000000477,,351931.433,8,400,,,
break_continue,html.Screen,4_62_2,2023-09-12T21:52:00.245Z,,0,,,NaN,,,,,,false,,,,351923,351922.7000000477,,351922.39999985695,,351931.433,8,400,,,
sequence,flow.Sequence,4_62,2023-09-12T21:52:00.245Z,,0,,,3257.3150000476744,completion,,,,,false,,,,351923.2999999523,351922.7000000477,348648.507,348650.7000000477,348665.385,351931.433,8,400,,,
trial,html.Screen,4_63_0,2023-09-12T21:52:03.820Z,,0,2,,3565.9669998569298,response,ISIC_0024333.JPG,6,ISIC_0757147.JPG,ISIC_0757147.JPG,false,0,keypress(z),500,355497.59999990463,355497.39999985695,351915.003,351923.5,351931.433,355514.547,8,400,14,,ISIC_0024333.JPG
break,html.Screen,4_63_1,2023-09-12T21:52:03.821Z,,0,,,NaN,,,,,,false,,,,355498.59999990463,355498.39999985695,,355497.89999985695,,355514.547,8,400,,,
break_continue,html.Screen,4_63_2,2023-09-12T21:52:03.821Z,,0,,,NaN,,,,,,false,,,,355499.09999990463,355499,,355498.7999999523,,355514.547,8,400,,,
sequence,flow.Sequence,4_63,2023-09-12T21:52:03.821Z,,0,,,3567.566999999981,completion,,,,,false,,,,355499.2000000477,355499,351915.003,351923.39999985695,351931.433,355514.547,8,400,,,
trial,html.Screen,4_64_0,2023-09-12T21:52:06.640Z,,0,2,,2802.752999952296,response,ISIC_0011615.JPG,5,ISIC_8730617.JPG,ISIC_0011615.JPG,false,1,keypress(m),500,358317.59999990463,358317.2999999523,355497.594,355499.39999985695,355514.547,358330.952,8,400,15,,ISIC_8730617.JPG
break,html.Screen,4_64_1,2023-09-12T21:52:06.640Z,,0,,,NaN,,,,,,false,,,,358318.5,358318.2000000477,,358317.7000000477,,358330.952,8,400,,,
break_continue,html.Screen,4_64_2,2023-09-12T21:52:06.641Z,,0,,,NaN,,,,,,false,,,,358319,358318.89999985695,,358318.7000000477,,358330.952,8,400,,,
sequence,flow.Sequence,4_64,2023-09-12T21:52:06.641Z,,0,,,2804.3529998569284,completion,,,,,false,,,,358319.2000000477,358318.89999985695,355497.594,355499.39999985695,355514.547,358330.952,8,400,,,
trial,html.Screen,4_65_0,2023-09-12T21:52:09.514Z,,0,2,,2861.347999952326,response,ISIC_0073043.JPG,5,ISIC_2560463.JPG,ISIC_2560463.JPG,false,0,keypress(z),500,361192.39999985695,361192.2999999523,358314.179,358319.39999985695,358330.952,361196.965,8,400,16,,ISIC_0073043.JPG
break,html.Screen,4_65_1,2023-09-12T21:52:09.515Z,,0,,,NaN,,,,,,false,,,,361193,361192.7999999523,,361192.59999990463,,361196.965,8,400,,,
break_continue,html.Screen,4_65_2,2023-09-12T21:52:09.515Z,,0,,,NaN,,,,,,false,,,,361193.39999985695,361193.2999999523,,361193.09999990463,,361196.965,8,400,,,
sequence,flow.Sequence,4_65,2023-09-12T21:52:09.515Z,,0,,,2862.347999952326,completion,,,,,false,,,,361193.39999985695,361193.2999999523,358314.179,358319.2999999523,358330.952,361196.965,8,400,,,
trial,html.Screen,4_66_0,2023-09-12T21:52:12.099Z,,0,2,,2580.0349999999744,response,ISIC_0010803.JPG,5,ISIC_5281908.JPG,ISIC_0010803.JPG,false,1,keypress(m),500,363777.2000000477,363777,361180.688,361193.5,361196.965,363780.02,8,400,17,,ISIC_5281908.JPG
break,html.Screen,4_66_1,2023-09-12T21:52:12.100Z,,0,,,NaN,,,,,,false,,,,363778.09999990463,363777.7999999523,,363777.2999999523,,363780.02,8,400,,,
break_continue,html.Screen,4_66_2,2023-09-12T21:52:12.101Z,,0,,,NaN,,,,,,false,,,,363778.59999990463,363778.39999985695,,363778.2000000477,,363780.02,8,400,,,
sequence,flow.Sequence,4_66,2023-09-12T21:52:12.101Z,,0,,,2581.4349998569232,completion,,,,,false,,,,363778.7999999523,363778.39999985695,361180.688,361193.5,361196.965,363780.02,8,400,,,
trial,html.Screen,4_67_0,2023-09-12T21:52:14.646Z,,0,2,,2544.079999904614,response,ISIC_0360367.JPG,4,ISIC_7766007.JPG,ISIC_7766007.JPG,false,0,keypress(z),500,366324.5,366324.09999990463,363763.512,363778.89999985695,363780.02,366329.774,8,400,18,,ISIC_0360367.JPG
break,html.Screen,4_67_1,2023-09-12T21:52:14.648Z,,0,,,NaN,,,,,,false,,,,366325.89999985695,366325.5,,366324.7999999523,,366329.774,8,400,,,
break_continue,html.Screen,4_67_2,2023-09-12T21:52:14.649Z,,0,,,NaN,,,,,,false,,,,366326.7000000477,366326.5,,366326.09999990463,,366329.774,8,400,,,
sequence,flow.Sequence,4_67,2023-09-12T21:52:14.649Z,,0,,,2546.4799999999814,completion,,,,,false,,,,366327,366326.5,363763.512,363778.7999999523,363780.02,366329.774,8,400,,,
trial,html.Screen,4_68_0,2023-09-12T21:52:17.315Z,,0,2,,2662.5259999523405,response,ISIC_8727731.JPG,4,ISIC_4930632.JPG,ISIC_8727731.JPG,false,1,keypress(m),500,368992.59999990463,368992.2999999523,366313.184,366327.2000000477,366329.774,368996.117,8,400,19,,ISIC_4930632.JPG
break,html.Screen,4_68_1,2023-09-12T21:52:17.316Z,,0,,,NaN,,,,,,false,,,,368994.09999990463,368993.7000000477,,368992.89999985695,,368996.117,8,400,,,
break_continue,html.Screen,4_68_2,2023-09-12T21:52:17.317Z,,0,,,NaN,,,,,,false,,,,368995,368994.7000000477,,368994.39999985695,,368996.117,8,400,,,
sequence,flow.Sequence,4_68,2023-09-12T21:52:17.317Z,,0,,,2664.926000047708,completion,,,,,false,,,,368995.2000000477,368994.7000000477,366313.184,366327.09999990463,366329.774,368996.117,8,400,,,
trial,html.Screen,4_69_0,2023-09-12T21:52:19.897Z,,0,2,,2578.182999952289,response,ISIC_2086540.JPG,4,ISIC_0063745.JPG,ISIC_0063745.JPG,false,0,keypress(z),500,371574.59999990463,371574.2999999523,368979.583,368995.39999985695,368996.117,371579.169,8,400,20,,ISIC_2086540.JPG
break,html.Screen,4_69_1,2023-09-12T21:52:19.898Z,,0,,,NaN,,,,,,false,,,,371576,371575.59999990463,,371575,,371579.169,8,400,,,
break_continue,html.Screen,4_69_2,2023-09-12T21:52:19.899Z,,0,,,NaN,,,,,,false,,,,371576.7999999523,371576.59999990463,,371576.2000000477,,371579.169,8,400,,,
sequence,flow.Sequence,4_69,2023-09-12T21:52:19.899Z,,0,,,2580.482999904605,completion,,,,,false,,,,371577.09999990463,371576.59999990463,368979.583,368995.39999985695,368996.117,371579.169,8,400,,,
trial,html.Screen,4_70_0,2023-09-12T21:52:22.742Z,,0,2,,2840.430999904638,response,ISIC_2208006.JPG,5,ISIC_4781169.JPG,ISIC_2208006.JPG,false,1,keypress(m),500,374419.89999985695,374419.59999990463,371562.865,371577.2999999523,371579.169,374428.834,8,400,21,,ISIC_4781169.JPG
break,html.Screen,4_70_1,2023-09-12T21:52:22.743Z,,0,,,NaN,,,,,,false,,,,374421.5,374421.09999990463,,374420.2999999523,,374428.834,8,400,,,
break_continue,html.Screen,4_70_2,2023-09-12T21:52:22.744Z,,0,,,NaN,,,,,,false,,,,374422.2000000477,374422,,374421.7000000477,,374428.834,8,400,,,
sequence,flow.Sequence,4_70,2023-09-12T21:52:22.744Z,,0,,,2842.8310000000056,completion,,,,,false,,,,374422.5,374422,371562.865,371577.2000000477,371579.169,374428.834,8,400,,,
trial,html.Screen,4_71_0,2023-09-12T21:52:25.644Z,,0,2,,2892.5659998569754,response,ISIC_1684829.JPG,5,ISIC_0011627.JPG,ISIC_1684829.JPG,false,1,keypress(m),500,377321.59999990463,377321.39999985695,374412.7,374422.7999999523,374428.834,377328.408,8,400,22,,ISIC_0011627.JPG
break,html.Screen,4_71_1,2023-09-12T21:52:25.645Z,,0,,,NaN,,,,,,false,,,,377322.59999990463,377322.39999985695,,377321.89999985695,,377328.408,8,400,,,
break_continue,html.Screen,4_71_2,2023-09-12T21:52:25.645Z,,0,,,NaN,,,,,,false,,,,377323.09999990463,377323,,377322.7000000477,,377328.408,8,400,,,
sequence,flow.Sequence,4_71,2023-09-12T21:52:25.645Z,,0,,,2894.1660000000265,completion,,,,,false,,,,377323.2999999523,377323,374412.7,374422.7000000477,374428.834,377328.408,8,400,,,
trial,html.Screen,4_72_0,2023-09-12T21:52:29.124Z,,0,2,,3473.491999856953,response,ISIC_0054625.JPG,5,ISIC_2967024.JPG,ISIC_2967024.JPG,false,0,keypress(z),500,380802.2000000477,380801.89999985695,377311.927,377323.5,377328.408,380811.394,8,400,23,,ISIC_0054625.JPG
break,html.Screen,4_72_1,2023-09-12T21:52:29.125Z,,0,,,NaN,,,,,,false,,,,380803.2999999523,380803,,380802.39999985695,,380811.394,8,400,,,
break_continue,html.Screen,4_72_2,2023-09-12T21:52:29.126Z,,0,,,NaN,,,,,,false,,,,380803.89999985695,380803.7999999523,,380803.5,,380811.394,8,400,,,
sequence,flow.Sequence,4_72,2023-09-12T21:52:29.126Z,,0,,,3475.3919999523205,completion,,,,,false,,,,380804.2000000477,380803.7999999523,377311.927,377323.39999985695,377328.408,380811.394,8,400,,,
trial,html.Screen,4_73_0,2023-09-12T21:52:32.330Z,,0,2,,3195.8060000477126,response,ISIC_1937197.JPG,5,ISIC_0069986.JPG,ISIC_1937197.JPG,false,1,keypress(m),500,384007.59999990463,384007.2000000477,380794.698,380804.39999985695,380811.394,384011.043,8,400,24,,ISIC_0069986.JPG
break,html.Screen,4_73_1,2023-09-12T21:52:32.331Z,,0,,,NaN,,,,,,false,,,,384008.89999985695,384008.5,,384007.7999999523,,384011.043,8,400,,,
break_continue,html.Screen,4_73_2,2023-09-12T21:52:32.332Z,,0,,,NaN,,,,,,false,,,,384009.59999990463,384009.39999985695,,384009.09999990463,,384011.043,8,400,,,
sequence,flow.Sequence,4_73,2023-09-12T21:52:32.332Z,,0,,,3198.0059998569777,completion,,,,,false,,,,384009.89999985695,384009.39999985695,380794.698,380804.2999999523,380811.394,384011.043,8,400,,,
trial,html.Screen,4_74_0,2023-09-12T21:52:37.822Z,,0,2,,5489.256999952311,response,ISIC_0014150.JPG,6,ISIC_0029675.JPG,ISIC_0014150.JPG,false,1,keypress(m),500,389500.39999985695,389500.2999999523,383994.551,384010,384011.043,389510.387,8,400,25,,ISIC_0029675.JPG
break,html.Screen,4_74_1,2023-09-12T21:52:37.823Z,,0,,,NaN,,,,,,false,,,,389501.5,389501.2000000477,,389500.7000000477,,389510.387,8,400,,,
break_continue,html.Screen,4_74_2,2023-09-12T21:52:37.824Z,,0,,,NaN,,,,,,false,,,,389502,389501.89999985695,,389501.59999990463,,389510.387,8,400,,,
sequence,flow.Sequence,4_74,2023-09-12T21:52:37.824Z,,0,,,5490.856999856944,completion,,,,,false,,,,389502.09999990463,389501.89999985695,383994.551,384010,384011.043,389510.387,8,400,,,
trial,html.Screen,4_75_0,2023-09-12T21:52:41.506Z,,0,2,,3673.7129999046447,response,ISIC_0028554.JPG,6,ISIC_7594601.JPG,ISIC_7594601.JPG,false,0,keypress(z),500,393184.2000000477,393184.09999990463,389493.961,389502.2000000477,389510.387,393193.322,8,400,26,,ISIC_0028554.JPG
break,html.Screen,4_75_1,2023-09-12T21:52:41.507Z,,0,,,NaN,,,,,,false,,,,393184.59999990463,393184.5,,393184.2000000477,,393193.322,8,400,,,
break_continue,html.Screen,4_75_2,2023-09-12T21:52:41.507Z,,0,,,NaN,,,,,,false,,,,393184.7999999523,393184.7999999523,,393184.7000000477,,393193.322,8,400,,,
sequence,flow.Sequence,4_75,2023-09-12T21:52:41.507Z,,0,,,3674.4129999523284,completion,,,,,false,,,,393184.89999985695,393184.7999999523,389493.961,389502.2000000477,389510.387,393193.322,8,400,,,
trial,html.Screen,4_76_0,2023-09-12T21:52:45.701Z,,0,2,,4185.878000047698,response,ISIC_0067395.JPG,5,ISIC_4642695.JPG,ISIC_0067395.JPG,false,1,keypress(m),500,397379.5,397379.2000000477,393176.73,393184.89999985695,393193.322,397393.02,8,400,27,,ISIC_4642695.JPG
break,html.Screen,4_76_1,2023-09-12T21:52:45.702Z,,0,,,NaN,,,,,,false,,,,397380.2000000477,397380,,397379.59999990463,,397393.02,8,400,,,
break_continue,html.Screen,4_76_2,2023-09-12T21:52:45.703Z,,0,,,NaN,,,,,,false,,,,397380.59999990463,397380.5,,397380.39999985695,,397393.02,8,400,,,
sequence,flow.Sequence,4_76,2023-09-12T21:52:45.703Z,,0,,,4187.178000000014,completion,,,,,false,,,,397380.7000000477,397380.5,393176.73,393184.89999985695,393193.322,397393.02,8,400,,,
trial,html.Screen,4_77_0,2023-09-12T21:52:48.809Z,,0,2,,3094.079999904614,response,ISIC_0339930.JPG,5,ISIC_0034262.JPG,ISIC_0339930.JPG,false,1,keypress(m),500,400487.2000000477,400487.09999990463,397376.29,397380.89999985695,397393.02,400492.448,8,400,28,,ISIC_0034262.JPG
break,html.Screen,4_77_1,2023-09-12T21:52:48.810Z,,0,,,NaN,,,,,,false,,,,400488,400487.7999999523,,400487.39999985695,,400492.448,8,400,,,
break_continue,html.Screen,4_77_2,2023-09-12T21:52:48.810Z,,0,,,NaN,,,,,,false,,,,400488.2999999523,400488.2999999523,,400488.09999990463,,400492.448,8,400,,,
sequence,flow.Sequence,4_77,2023-09-12T21:52:48.810Z,,0,,,3095.2799999522977,completion,,,,,false,,,,400488.5,400488.2999999523,397376.29,397380.7999999523,397393.02,400492.448,8,400,,,
trial,html.Screen,4_78_0,2023-09-12T21:52:53.308Z,,0,2,,4493.552000000025,response,ISIC_2987630.JPG,5,ISIC_5980439.JPG,ISIC_5980439.JPG,false,0,keypress(z),500,404986.2000000477,404986,400476.224,400488.59999990463,400492.448,404991.887,8,400,29,,ISIC_2987630.JPG
break,html.Screen,4_78_1,2023-09-12T21:52:53.309Z,,0,,,NaN,,,,,,false,,,,404987.2999999523,404987,,404986.39999985695,,404991.887,8,400,,,
break_continue,html.Screen,4_78_2,2023-09-12T21:52:53.310Z,,0,,,NaN,,,,,,false,,,,404987.7999999523,404987.59999990463,,404987.5,,404991.887,8,400,,,
sequence,flow.Sequence,4_78,2023-09-12T21:52:53.310Z,,0,,,4495.151999904658,completion,,,,,false,,,,404988,404987.59999990463,400476.224,400488.59999990463,400492.448,404991.887,8,400,,,
trial,html.Screen,4_79_0,2023-09-12T21:53:00.116Z,,0,2,,6801.712999904645,response,ISIC_0063157.JPG,4,ISIC_0070137.JPG,ISIC_0070137.JPG,false,0,keypress(z),500,411793.89999985695,411793.59999990463,404975.683,404988.09999990463,404991.887,411807.775,8,400,30,,ISIC_0063157.JPG
break,html.Screen,4_79_1,2023-09-12T21:53:00.117Z,,0,,,NaN,,,,,,false,,,,411795.39999985695,411795,,411794.2000000477,,411807.775,8,400,,,
break_continue,html.Screen,4_79_2,2023-09-12T21:53:00.118Z,,0,,,NaN,,,,,,false,,,,411796.2000000477,411795.89999985695,,411795.59999990463,,411807.775,8,400,,,
sequence,flow.Sequence,4_79,2023-09-12T21:53:00.118Z,,0,,,6804.012999856961,completion,,,,,false,,,,411796.5,411795.89999985695,404975.683,404988.09999990463,404991.887,411807.775,8,400,,,
trial,html.Screen,4_80_0,2023-09-12T21:53:03.454Z,,0,2,,3323.524999952293,response,ISIC_0013988.JPG,5,ISIC_5490352.JPG,ISIC_0013988.JPG,false,1,keypress(m),500,415131.5,415131.2999999523,411791.222,411796.7000000477,411807.775,415140.755,8,400,31,,ISIC_5490352.JPG
break,html.Screen,4_80_1,2023-09-12T21:53:03.455Z,,0,,,NaN,,,,,,false,,,,415132.7999999523,415132.39999985695,,415131.7999999523,,415140.755,8,400,,,
break_continue,html.Screen,4_80_2,2023-09-12T21:53:03.455Z,,0,,,NaN,,,,,,false,,,,415133.39999985695,415133.09999990463,,415132.89999985695,,415140.755,8,400,,,
sequence,flow.Sequence,4_80,2023-09-12T21:53:03.456Z,,0,,,3325.3249999046093,completion,,,,,false,,,,415133.5,415133.09999990463,411791.222,411796.59999990463,411807.775,415140.755,8,400,,,
trial,html.Screen,4_81_0,2023-09-12T21:53:05.941Z,,0,2,,2478.2449999999953,response,ISIC_1598039.JPG,5,ISIC_3797095.JPG,ISIC_1598039.JPG,false,1,keypress(m),500,417619.2999999523,417619,415124.017,415133.7999999523,415140.755,417623.795,8,400,32,,ISIC_3797095.JPG
break,html.Screen,4_81_1,2023-09-12T21:53:05.943Z,,0,,,NaN,,,,,,false,,,,417620.7999999523,417620.39999985695,,417619.59999990463,,417623.795,8,400,,,
break_continue,html.Screen,4_81_2,2023-09-12T21:53:05.943Z,,0,,,NaN,,,,,,false,,,,417621.5,417621.39999985695,,417620.89999985695,,417623.795,8,400,,,
sequence,flow.Sequence,4_81,2023-09-12T21:53:05.944Z,,0,,,2480.644999856944,completion,,,,,false,,,,417621.7999999523,417621.39999985695,415124.017,415133.7000000477,415140.755,417623.795,8,400,,,
trial,html.Screen,4_82_0,2023-09-12T21:53:08.604Z,,0,2,,2657.9050000477,response,ISIC_0026890.JPG,6,ISIC_4610600.JPG,ISIC_0026890.JPG,false,1,keypress(m),500,420282.09999990463,420281.7000000477,417607.583,417622.09999990463,417623.795,420290.152,8,400,33,,ISIC_4610600.JPG
break,html.Screen,4_82_1,2023-09-12T21:53:08.605Z,,0,,,NaN,,,,,,false,,,,420283.5,420283,,420282.39999985695,,420290.152,8,400,,,
break_continue,html.Screen,4_82_2,2023-09-12T21:53:08.606Z,,0,,,NaN,,,,,,false,,,,420284.2000000477,420283.89999985695,,420283.7000000477,,420290.152,8,400,,,
sequence,flow.Sequence,4_82,2023-09-12T21:53:08.606Z,,0,,,2660.104999856965,completion,,,,,false,,,,420284.39999985695,420283.89999985695,417607.583,417622,417623.795,420290.152,8,400,,,
trial,html.Screen,4_83_0,2023-09-12T21:53:11.173Z,,0,2,,2560.6479999523144,response,ISIC_6255494.JPG,5,ISIC_8510848.JPG,ISIC_6255494.JPG,false,1,keypress(m),500,422851.2000000477,422850.7999999523,420273.592,420284.7000000477,420290.152,422856.52,8,400,34,,ISIC_8510848.JPG
break,html.Screen,4_83_1,2023-09-12T21:53:11.175Z,,0,,,NaN,,,,,,false,,,,422852.59999990463,422852.2000000477,,422851.5,,422856.52,8,400,,,
break_continue,html.Screen,4_83_2,2023-09-12T21:53:11.175Z,,0,,,NaN,,,,,,false,,,,422853.2999999523,422853.09999990463,,422852.7000000477,,422856.52,8,400,,,
sequence,flow.Sequence,4_83,2023-09-12T21:53:11.176Z,,0,,,2562.9479999046307,completion,,,,,false,,,,422853.5,422853.09999990463,420273.592,420284.59999990463,420290.152,422856.52,8,400,,,
trial,html.Screen,4_84_0,2023-09-12T21:53:14.074Z,,0,2,,2895.680000047665,response,ISIC_0010750.JPG,5,ISIC_4224064.JPG,ISIC_0010750.JPG,false,1,keypress(m),500,425752.39999985695,425752.2000000477,422839.92,422853.7999999523,422856.52,425756.118,8,400,35,,ISIC_4224064.JPG
break,html.Screen,4_84_1,2023-09-12T21:53:14.075Z,,0,,,NaN,,,,,,false,,,,425753.2000000477,425753,,425752.59999990463,,425756.118,8,400,,,
break_continue,html.Screen,4_84_2,2023-09-12T21:53:14.076Z,,0,,,NaN,,,,,,false,,,,425753.7000000477,425753.59999990463,,425753.39999985695,,425756.118,8,400,,,
sequence,flow.Sequence,4_84,2023-09-12T21:53:14.076Z,,0,,,2897.079999904614,completion,,,,,false,,,,425753.89999985695,425753.59999990463,422839.92,422853.7000000477,422856.52,425756.118,8,400,,,
trial,html.Screen,4_85_0,2023-09-12T21:53:17.428Z,,0,2,,3350.082000047667,response,ISIC_0765973.JPG,5,ISIC_7885010.JPG,ISIC_0765973.JPG,false,1,keypress(m),500,429106.5,429106.2000000477,425739.425,425753.89999985695,425756.118,429122.741,8,400,36,,ISIC_7885010.JPG
break,html.Screen,4_85_1,2023-09-12T21:53:17.430Z,,0,,,NaN,,,,,,false,,,,429107.7999999523,429107.5,,429106.7999999523,,429122.741,8,400,,,
break_continue,html.Screen,4_85_2,2023-09-12T21:53:17.431Z,,0,,,NaN,,,,,,false,,,,429108.59999990463,429108.39999985695,,429108.09999990463,,429122.741,8,400,,,
sequence,flow.Sequence,4_85,2023-09-12T21:53:17.431Z,,0,,,3352.281999856932,completion,,,,,false,,,,429109.09999990463,429108.39999985695,425739.425,425753.89999985695,425756.118,429122.741,8,400,,,
trial,html.Screen,4_86_0,2023-09-12T21:53:21.963Z,,0,2,,4518.25900000002,response,ISIC_0062025.JPG,5,ISIC_0032925.JPG,ISIC_0062025.JPG,false,1,keypress(m),500,433641.2999999523,433641,429106.039,429109.2999999523,429122.741,433655.247,8,400,37,,ISIC_0032925.JPG
break,html.Screen,4_86_1,2023-09-12T21:53:21.965Z,,0,,,NaN,,,,,,false,,,,433642.59999990463,433642.2999999523,,433641.59999990463,,433655.247,8,400,,,
break_continue,html.Screen,4_86_2,2023-09-12T21:53:21.965Z,,0,,,NaN,,,,,,false,,,,433643.39999985695,433643.2000000477,,433642.89999985695,,433655.247,8,400,,,
sequence,flow.Sequence,4_86,2023-09-12T21:53:21.966Z,,0,,,4520.459000047704,completion,,,,,false,,,,433643.7000000477,433643.2000000477,429106.039,429109.2000000477,429122.741,433655.247,8,400,,,
trial,html.Screen,4_87_0,2023-09-12T21:53:25.168Z,,0,2,,3190.8529999046586,response,ISIC_0006118.JPG,5,ISIC_0033387.JPG,ISIC_0006118.JPG,false,1,keypress(m),500,436846.2999999523,436846.09999990463,433638.727,433643.89999985695,433655.247,436854.828,8,400,38,,ISIC_0033387.JPG
break,html.Screen,4_87_1,2023-09-12T21:53:25.170Z,,0,,,NaN,,,,,,false,,,,436847.7999999523,436847.39999985695,,436846.7000000477,,436854.828,8,400,,,
break_continue,html.Screen,4_87_2,2023-09-12T21:53:25.171Z,,0,,,NaN,,,,,,false,,,,436848.59999990463,436848.39999985695,,436847.89999985695,,436854.828,8,400,,,
sequence,flow.Sequence,4_87,2023-09-12T21:53:25.171Z,,0,,,3193.152999856975,completion,,,,,false,,,,436848.89999985695,436848.39999985695,433638.727,433643.7999999523,433655.247,436854.828,8,400,,,
trial,html.Screen,4_88_0,2023-09-12T21:53:28.813Z,,0,2,,3635.6720000000205,response,ISIC_0067805.JPG,5,ISIC_0026329.JPG,ISIC_0067805.JPG,false,1,keypress(m),500,440490.7999999523,440490.5,436838.407,436849.2000000477,436854.828,440504.466,8,400,39,,ISIC_0026329.JPG
break,html.Screen,4_88_1,2023-09-12T21:53:28.814Z,,0,,,NaN,,,,,,false,,,,440492.39999985695,440491.89999985695,,440491.2000000477,,440504.466,8,400,,,
break_continue,html.Screen,4_88_2,2023-09-12T21:53:28.815Z,,0,,,NaN,,,,,,false,,,,440493.09999990463,440492.7999999523,,440492.5,,440504.466,8,400,,,
sequence,flow.Sequence,4_88,2023-09-12T21:53:28.815Z,,0,,,3637.971999952337,completion,,,,,false,,,,440493.39999985695,440492.7999999523,436838.407,436849,436854.828,440504.466,8,400,,,
trial,html.Screen,4_89_0,2023-09-12T21:53:36.725Z,,0,2,,7898.533999999985,response,ISIC_5832901.JPG,5,ISIC_0058781.JPG,ISIC_0058781.JPG,false,0,keypress(z),500,448403.39999985695,448403,440487.583,440495.5,440504.466,448420.193,8,400,40,,ISIC_5832901.JPG
break,html.Screen,4_89_1,2023-09-12T21:53:36.727Z,,0,,,NaN,,,,,,false,,,,448404.7000000477,448404.39999985695,,448403.7000000477,,448420.193,8,400,,,
break_continue,html.Screen,4_89_2,2023-09-12T21:53:36.727Z,,0,,,NaN,,,,,,false,,,,448405.39999985695,448405.2999999523,,448404.89999985695,,448420.193,8,400,,,
sequence,flow.Sequence,4_89,2023-09-12T21:53:36.728Z,,0,,,7900.833999952301,completion,,,,,false,,,,448405.7000000477,448405.2999999523,440487.583,440495.39999985695,440504.466,448420.193,8,400,,,
trial,html.Screen,4_90_0,2023-09-12T21:53:41.579Z,,0,2,,4836.906999904604,response,ISIC_0000522.JPG,6,ISIC_9522489.JPG,ISIC_0000522.JPG,false,1,keypress(m),500,453257.5,453257.09999990463,448403.998,448405.89999985695,448420.193,453269.68,8,400,41,,ISIC_9522489.JPG
break,html.Screen,4_90_1,2023-09-12T21:53:41.581Z,,0,,,NaN,,,,,,false,,,,453258.89999985695,453258.39999985695,,453257.7999999523,,453269.68,8,400,,,
break_continue,html.Screen,4_90_2,2023-09-12T21:53:41.581Z,,0,,,NaN,,,,,,false,,,,453259.5,453259.2999999523,,453259,,453269.68,8,400,,,
sequence,flow.Sequence,4_90,2023-09-12T21:53:41.582Z,,0,,,4839.106999952288,completion,,,,,false,,,,453259.7999999523,453259.2999999523,448403.998,448405.89999985695,448420.193,453269.68,8,400,,,
trial,html.Screen,4_91_0,2023-09-12T21:53:48.260Z,,0,2,,6668.520000047691,response,ISIC_8127578.JPG,5,ISIC_0011196.JPG,ISIC_8127578.JPG,false,1,keypress(m),500,459938.59999990463,459938.2000000477,453253.18,453260.09999990463,453269.68,459952.166,8,400,42,,ISIC_0011196.JPG
break,html.Screen,4_91_1,2023-09-12T21:53:48.262Z,,0,,,NaN,,,,,,false,,,,459940,459939.59999990463,,459938.89999985695,,459952.166,8,400,,,
break_continue,html.Screen,4_91_2,2023-09-12T21:53:48.263Z,,0,,,NaN,,,,,,false,,,,459940.7000000477,459940.5,,459940.2000000477,,459952.166,8,400,,,
sequence,flow.Sequence,4_91,2023-09-12T21:53:48.263Z,,0,,,6670.820000000007,completion,,,,,false,,,,459941,459940.5,453253.18,453259.89999985695,453269.68,459952.166,8,400,,,
trial,html.Screen,4_92_0,2023-09-12T21:53:50.843Z,,0,2,,2568.1339999522897,response,ISIC_0026943.JPG,5,ISIC_0030366.JPG,ISIC_0026943.JPG,false,1,keypress(m),500,462520.7000000477,462520.2999999523,459935.604,459941.2000000477,459952.166,462535.275,8,400,43,,ISIC_0030366.JPG
break,html.Screen,4_92_1,2023-09-12T21:53:50.844Z,,0,,,NaN,,,,,,false,,,,462522.2999999523,462521.7999999523,,462521,,462535.275,8,400,,,
break_continue,html.Screen,4_92_2,2023-09-12T21:53:50.845Z,,0,,,NaN,,,,,,false,,,,462523,462522.7000000477,,462522.5,,462535.275,8,400,,,
sequence,flow.Sequence,4_92,2023-09-12T21:53:50.845Z,,0,,,2570.534000047657,completion,,,,,false,,,,462523.2999999523,462522.7000000477,459935.604,459941.09999990463,459952.166,462535.275,8,400,,,
trial,html.Screen,4_93_0,2023-09-12T21:53:54.132Z,,0,2,,3274.3249999046093,response,ISIC_0030994.JPG,5,ISIC_8955135.JPG,ISIC_8955135.JPG,false,0,keypress(z),500,465809.89999985695,465809.59999990463,462518.45,462523.5,462535.275,465818.104,8,400,44,,ISIC_0030994.JPG
break,html.Screen,4_93_1,2023-09-12T21:53:54.133Z,,0,,,NaN,,,,,,false,,,,465810.7999999523,465810.59999990463,,465810.09999990463,,465818.104,8,400,,,
break_continue,html.Screen,4_93_2,2023-09-12T21:53:54.133Z,,0,,,NaN,,,,,,false,,,,465811.2999999523,465811.09999990463,,465811,,465818.104,8,400,,,
sequence,flow.Sequence,4_93,2023-09-12T21:53:54.133Z,,0,,,3275.8249999046093,completion,,,,,false,,,,465811.5,465811.09999990463,462518.45,462523.39999985695,462535.275,465818.104,8,400,,,
trial,html.Screen,4_94_0,2023-09-12T21:53:58.557Z,,0,2,,4416.396000000008,response,ISIC_5510604.JPG,5,ISIC_0501108.JPG,ISIC_5510604.JPG,false,1,keypress(m),500,470234.7999999523,470234.5,465801.971,465811.59999990463,465818.104,470250.976,8,400,45,,ISIC_0501108.JPG
break,html.Screen,4_94_1,2023-09-12T21:53:58.558Z,,0,,,NaN,,,,,,false,,,,470236,470235.59999990463,,470235,,470250.976,8,400,,,
break_continue,html.Screen,4_94_2,2023-09-12T21:53:58.558Z,,0,,,NaN,,,,,,false,,,,470236.5,470236.2999999523,,470236.2000000477,,470250.976,8,400,,,
sequence,flow.Sequence,4_94,2023-09-12T21:53:58.559Z,,0,,,4418.195999952324,completion,,,,,false,,,,470236.7000000477,470236.2999999523,465801.971,465811.59999990463,465818.104,470250.976,8,400,,,
trial,html.Screen,4_95_0,2023-09-12T21:54:05.298Z,,0,2,,6724.923999856925,response,ISIC_2547431.JPG,4,ISIC_5485661.JPG,ISIC_2547431.JPG,false,1,keypress(m),500,476976.2999999523,476975.89999985695,470234.209,470237,470250.976,476983.539,8,400,46,,ISIC_5485661.JPG
break,html.Screen,4_95_1,2023-09-12T21:54:05.300Z,,0,,,NaN,,,,,,false,,,,476977.89999985695,476977.39999985695,,476976.5,,476983.539,8,400,,,
break_continue,html.Screen,4_95_2,2023-09-12T21:54:05.301Z,,0,,,NaN,,,,,,false,,,,476978.59999990463,476978.39999985695,,476978.09999990463,,476983.539,8,400,,,
sequence,flow.Sequence,4_95,2023-09-12T21:54:05.301Z,,0,,,6727.423999856925,completion,,,,,false,,,,476978.89999985695,476978.39999985695,470234.209,470236.89999985695,470250.976,476983.539,8,400,,,
trial,html.Screen,4_96_0,2023-09-12T21:54:09.244Z,,0,2,,3937.9610000000102,response,ISIC_0063961.JPG,5,ISIC_7460560.JPG,ISIC_7460560.JPG,false,0,keypress(z),500,480921.7999999523,480921.5,476967.015,476979.2000000477,476983.539,480933.08,8,400,47,,ISIC_0063961.JPG
break,html.Screen,4_96_1,2023-09-12T21:54:09.245Z,,0,,,NaN,,,,,,false,,,,480922.89999985695,480922.59999990463,,480922,,480933.08,8,400,,,
break_continue,html.Screen,4_96_2,2023-09-12T21:54:09.245Z,,0,,,NaN,,,,,,false,,,,480923.5,480923.2999999523,,480923.09999990463,,480933.08,8,400,,,
sequence,flow.Sequence,4_96,2023-09-12T21:54:09.246Z,,0,,,3939.7609999523265,completion,,,,,false,,,,480923.7999999523,480923.2999999523,476967.015,476979.09999990463,476983.539,480933.08,8,400,,,
trial,html.Screen,4_97_0,2023-09-12T21:54:12.483Z,,0,2,,3227.7199999523,response,ISIC_0028462.JPG,6,ISIC_0061293.JPG,ISIC_0028462.JPG,false,1,keypress(m),500,484161.09999990463,484160.7999999523,480916.809,480924,480933.08,484165.999,8,400,48,,ISIC_0061293.JPG
break,html.Screen,4_97_1,2023-09-12T21:54:12.484Z,,0,,,NaN,,,,,,false,,,,484162.2000000477,484161.89999985695,,484161.2999999523,,484165.999,8,400,,,
break_continue,html.Screen,4_97_2,2023-09-12T21:54:12.485Z,,0,,,NaN,,,,,,false,,,,484162.7999999523,484162.59999990463,,484162.2999999523,,484165.999,8,400,,,
sequence,flow.Sequence,4_97,2023-09-12T21:54:12.485Z,,0,,,3229.5199999046163,completion,,,,,false,,,,484163,484162.59999990463,480916.809,480923.89999985695,480933.08,484165.999,8,400,,,
trial,html.Screen,4_98_0,2023-09-12T21:54:16.919Z,,0,2,,4431.000999999989,response,ISIC_0065807.JPG,6,ISIC_0000539.JPG,ISIC_0000539.JPG,false,0,keypress(z),500,488597.2000000477,488597,484149.53,484163.2000000477,484165.999,488616.865,8,400,49,,ISIC_0065807.JPG
break,html.Screen,4_98_1,2023-09-12T21:54:16.920Z,,0,,,NaN,,,,,,false,,,,488598.09999990463,488597.89999985695,,488597.39999985695,,488616.865,8,400,,,
break_continue,html.Screen,4_98_2,2023-09-12T21:54:16.920Z,,0,,,NaN,,,,,,false,,,,488598.59999990463,488598.5,,488598.2999999523,,488616.865,8,400,,,
sequence,flow.Sequence,4_98,2023-09-12T21:54:16.921Z,,0,,,4432.500999999989,completion,,,,,false,,,,488598.7999999523,488598.5,484149.53,484163.09999990463,484165.999,488616.865,8,400,,,
trial,html.Screen,4_99_0,2023-09-12T21:54:20.539Z,,0,2,,3600.234999904642,response,ISIC_5578611.JPG,4,ISIC_5486725.JPG,ISIC_5578611.JPG,false,1,keypress(m),500,492217.39999985695,492217.09999990463,488582.307,488599,488616.865,492231.734,8,400,50,,ISIC_5486725.JPG
break,html.Screen,4_99_1,2023-09-12T21:54:30.946Z,,0,,,10981.965000000026,timeout,,,,,false,,,,502624.39999985695,502624.09999990463,492215.17,492217.59999990463,492231.734,503213.699,8,400,,,
break_continue,html.Screen,4_99_2,2023-09-12T21:54:33.829Z,,0,,,2269.3009999999776,response,,,,,false,continue,keypress(Space),,505507.59999990463,505483,502624.09999990463,502624.59999990463,503213.699,505530.198,8,400,,,
sequence,flow.Sequence,4_99,2023-09-12T21:54:33.830Z,,0,,,16866.13500000001,completion,,,,,false,,,,505508,505483,488582.307,488598.89999985695,488616.865,505530.198,8,400,,,
trial,html.Screen,4_100_0,2023-09-12T21:54:37.756Z,,0,3,,3903.701999856974,response,ISIC_9101441.JPG,5,ISIC_0014469.JPG,ISIC_0014469.JPG,false,0,keypress(z),500,509434.2999999523,509433.89999985695,505513.495,505508.09999990463,505530.198,509446.44,8,400,1,,ISIC_9101441.JPG
break,html.Screen,4_100_1,2023-09-12T21:54:37.758Z,,0,,,NaN,,,,,,false,,,,509435.7000000477,509435.2999999523,,509434.59999990463,,509446.44,8,400,,,
break_continue,html.Screen,4_100_2,2023-09-12T21:54:37.758Z,,0,,,NaN,,,,,,false,,,,509436.39999985695,509436.2000000477,,509435.89999985695,,509446.44,8,400,,,
sequence,flow.Sequence,4_100,2023-09-12T21:54:37.759Z,,0,,,3906.002000047709,completion,,,,,false,,,,509436.7000000477,509436.2000000477,505513.495,505508.09999990463,505530.198,509446.44,8,400,,,
trial,html.Screen,4_101_0,2023-09-12T21:54:44.549Z,,0,3,,6780.260000047681,response,ISIC_1927858.JPG,6,ISIC_0034059.JPG,ISIC_1927858.JPG,false,1,keypress(m),500,516227,516226.7000000477,509429.828,509436.89999985695,509446.44,516228.878,8,400,2,,ISIC_0034059.JPG
break,html.Screen,4_101_1,2023-09-12T21:54:44.550Z,,0,,,NaN,,,,,,false,,,,516227.7999999523,516227.59999990463,,516227.09999990463,,516228.878,8,400,,,
break_continue,html.Screen,4_101_2,2023-09-12T21:54:44.550Z,,0,,,NaN,,,,,,false,,,,516228.2000000477,516228.09999990463,,516227.89999985695,,516228.878,8,400,,,
sequence,flow.Sequence,4_101,2023-09-12T21:54:44.550Z,,0,,,6781.65999990463,completion,,,,,false,,,,516228.2999999523,516228.09999990463,509429.828,509436.7999999523,509446.44,516228.878,8,400,,,
trial,html.Screen,4_102_0,2023-09-12T21:54:48.028Z,,0,3,,3476.92199995229,response,ISIC_0033812.JPG,5,ISIC_0056260.JPG,ISIC_0056260.JPG,false,0,keypress(z),500,519706,519705.7999999523,516212.636,516228.5,516228.878,519711.818,8,400,3,,ISIC_0033812.JPG
break,html.Screen,4_102_1,2023-09-12T21:54:48.029Z,,0,,,NaN,,,,,,false,,,,519706.89999985695,519706.59999990463,,519706.2000000477,,519711.818,8,400,,,
break_continue,html.Screen,4_102_2,2023-09-12T21:54:48.029Z,,0,,,NaN,,,,,,false,,,,519707.2999999523,519707.09999990463,,519707,,519711.818,8,400,,,
sequence,flow.Sequence,4_102,2023-09-12T21:54:48.029Z,,0,,,3478.2219999046065,completion,,,,,false,,,,519707.5,519707.09999990463,516212.636,516228.39999985695,516228.878,519711.818,8,400,,,
trial,html.Screen,4_103_0,2023-09-12T21:54:51.188Z,,0,3,,3153.981999952288,response,ISIC_8207974.JPG,5,ISIC_0062546.JPG,ISIC_8207974.JPG,false,1,keypress(m),500,522866,522865.7999999523,519695.499,519707.5,519711.818,522878.405,8,400,4,,ISIC_0062546.JPG
break,html.Screen,4_103_1,2023-09-12T21:54:51.189Z,,0,,,NaN,,,,,,false,,,,522867,522866.59999990463,,522866.2999999523,,522878.405,8,400,,,
break_continue,html.Screen,4_103_2,2023-09-12T21:54:51.189Z,,0,,,NaN,,,,,,false,,,,522867.39999985695,522867.2000000477,,522867.09999990463,,522878.405,8,400,,,
sequence,flow.Sequence,4_103,2023-09-12T21:54:51.189Z,,0,,,3155.3820000476553,completion,,,,,false,,,,522867.5,522867.2000000477,519695.499,519707.5,519711.818,522878.405,8,400,,,
trial,html.Screen,4_104_0,2023-09-12T21:54:55.244Z,,0,3,,4043.8949999522883,response,ISIC_0058408.JPG,5,ISIC_0009510.JPG,ISIC_0058408.JPG,false,1,keypress(m),500,526922.5,526922.2999999523,522861.675,522867.7000000477,522878.405,526927.691,8,400,5,,ISIC_0009510.JPG
break,html.Screen,4_104_1,2023-09-12T21:54:55.246Z,,0,,,NaN,,,,,,false,,,,526923.899999857,526923.5,,526922.899999857,,526927.691,8,400,,,
break_continue,html.Screen,4_104_2,2023-09-12T21:54:55.246Z,,0,,,NaN,,,,,,false,,,,526924.5999999046,526924.399999857,,526924.0999999046,,526927.691,8,400,,,
sequence,flow.Sequence,4_104,2023-09-12T21:54:55.247Z,,0,,,4045.994999856921,completion,,,,,false,,,,526924.899999857,526924.399999857,522861.675,522867.7000000477,522878.405,526927.691,8,400,,,
trial,html.Screen,4_105_0,2023-09-12T21:54:58.882Z,,0,3,,3631.8090000000084,response,ISIC_0009187.JPG,6,ISIC_0063026.JPG,ISIC_0009187.JPG,false,1,keypress(m),500,530559.7999999523,530559.5,526911.421,526925.0999999046,526927.691,530577.276,8,400,6,,ISIC_0063026.JPG
break,html.Screen,4_105_1,2023-09-12T21:54:58.883Z,,0,,,NaN,,,,,,false,,,,530561,530560.7000000477,,530560.0999999046,,530577.276,8,400,,,
break_continue,html.Screen,4_105_2,2023-09-12T21:54:58.884Z,,0,,,NaN,,,,,,false,,,,530561.7000000477,530561.5,,530561.2000000477,,530577.276,8,400,,,
sequence,flow.Sequence,4_105,2023-09-12T21:54:58.884Z,,0,,,3633.8090000000084,completion,,,,,false,,,,530561.899999857,530561.5,526911.421,526925,526927.691,530577.276,8,400,,,
trial,html.Screen,4_106_0,2023-09-12T21:55:02.295Z,,0,3,,3395.823999904678,response,ISIC_0031985.JPG,6,ISIC_0032955.JPG,ISIC_0031985.JPG,false,1,keypress(m),500,533973.2999999523,533973.0999999046,530560.667,530562.2000000477,530577.276,533976.818,8,400,7,,ISIC_0032955.JPG
break,html.Screen,4_106_1,2023-09-12T21:55:02.296Z,,0,,,NaN,,,,,,false,,,,533974.2999999523,533974.0999999046,,533973.5,,533976.818,8,400,,,
break_continue,html.Screen,4_106_2,2023-09-12T21:55:02.297Z,,0,,,NaN,,,,,,false,,,,533974.7999999523,533974.5999999046,,533974.5,,533976.818,8,400,,,
sequence,flow.Sequence,4_106,2023-09-12T21:55:02.297Z,,0,,,3397.323999904678,completion,,,,,false,,,,533975,533974.5999999046,530560.667,530562.0999999046,530577.276,533976.818,8,400,,,
trial,html.Screen,4_107_0,2023-09-12T21:55:05.132Z,,0,3,,2832.7819999046624,response,ISIC_7973598.JPG,5,ISIC_0056572.JPG,ISIC_0056572.JPG,false,0,keypress(z),500,536810,536809.5999999046,533960.634,533975.0999999046,533976.818,536826.604,8,400,8,,ISIC_7973598.JPG
break,html.Screen,4_107_1,2023-09-12T21:55:05.133Z,,0,,,NaN,,,,,,false,,,,536811.399999857,536811,,536810.399999857,,536826.604,8,400,,,
break_continue,html.Screen,4_107_2,2023-09-12T21:55:05.134Z,,0,,,NaN,,,,,,false,,,,536812.2000000477,536812,,536811.7000000477,,536826.604,8,400,,,
sequence,flow.Sequence,4_107,2023-09-12T21:55:05.134Z,,0,,,2835.18200000003,completion,,,,,false,,,,536812.5,536812,533960.634,533975,533976.818,536826.604,8,400,,,
trial,html.Screen,4_108_0,2023-09-12T21:55:08.339Z,,0,3,,3190.4959999045823,response,ISIC_0413804.JPG,5,ISIC_0068847.JPG,ISIC_0413804.JPG,false,1,keypress(m),500,540017.2999999523,540017.0999999046,536809.897,536812.7000000477,536826.604,540026.16,8,400,9,,ISIC_0068847.JPG
break,html.Screen,4_108_1,2023-09-12T21:55:08.340Z,,0,,,NaN,,,,,,false,,,,540018.2000000477,540018,,540017.5999999046,,540026.16,8,400,,,
break_continue,html.Screen,4_108_2,2023-09-12T21:55:08.341Z,,0,,,NaN,,,,,,false,,,,540018.7000000477,540018.5999999046,,540018.399999857,,540026.16,8,400,,,
sequence,flow.Sequence,4_108,2023-09-12T21:55:08.341Z,,0,,,3191.9959999045823,completion,,,,,false,,,,540018.899999857,540018.5999999046,536809.897,536812.5999999046,536826.604,540026.16,8,400,,,
trial,html.Screen,4_109_0,2023-09-12T21:55:11.068Z,,0,3,,2719.7399998569163,response,ISIC_0070017.JPG,5,ISIC_3812485.JPG,ISIC_0070017.JPG,false,1,keypress(m),500,542746.0999999046,542745.899999857,540009.443,540019.0999999046,540026.16,542759.403,8,400,10,,ISIC_3812485.JPG
break,html.Screen,4_109_1,2023-09-12T21:55:11.069Z,,0,,,NaN,,,,,,false,,,,542747.0999999046,542746.7999999523,,542746.2999999523,,542759.403,8,400,,,
break_continue,html.Screen,4_109_2,2023-09-12T21:55:11.069Z,,0,,,NaN,,,,,,false,,,,542747.5,542747.5,,542747.2000000477,,542759.403,8,400,,,
sequence,flow.Sequence,4_109,2023-09-12T21:55:11.070Z,,0,,,2721.3399999999674,completion,,,,,false,,,,542747.7999999523,542747.5,540009.443,540019,540026.16,542759.403,8,400,,,
trial,html.Screen,4_110_0,2023-09-12T21:55:14.176Z,,0,3,,3094.5969999999506,response,ISIC_1850674.JPG,4,ISIC_2809019.JPG,ISIC_1850674.JPG,false,1,keypress(m),500,545854.399999857,545854,542742.84,542747.899999857,542759.403,545858.813,8,400,11,,ISIC_2809019.JPG
break,html.Screen,4_110_1,2023-09-12T21:55:14.178Z,,0,,,NaN,,,,,,false,,,,545855.7999999523,545855.399999857,,545854.7000000477,,545858.813,8,400,,,
break_continue,html.Screen,4_110_2,2023-09-12T21:55:14.178Z,,0,,,NaN,,,,,,false,,,,545856.5,545856.2999999523,,545856,,545858.813,8,400,,,
sequence,flow.Sequence,4_110,2023-09-12T21:55:14.179Z,,0,,,3096.896999952267,completion,,,,,false,,,,545856.7999999523,545856.2999999523,542742.84,542747.7999999523,542759.403,545858.813,8,400,,,
trial,html.Screen,4_111_0,2023-09-12T21:55:16.957Z,,0,3,,2776.286999904667,response,ISIC_0033405.JPG,5,ISIC_0014013.JPG,ISIC_0033405.JPG,false,1,keypress(m),500,548635.399999857,548635.0999999046,545842.292,545857,545858.813,548641.796,8,400,12,,ISIC_0014013.JPG
break,html.Screen,4_111_1,2023-09-12T21:55:16.959Z,,0,,,NaN,,,,,,false,,,,548636.7999999523,548636.2999999523,,548635.7000000477,,548641.796,8,400,,,
break_continue,html.Screen,4_111_2,2023-09-12T21:55:16.959Z,,0,,,NaN,,,,,,false,,,,548637.399999857,548637.2000000477,,548636.899999857,,548641.796,8,400,,,
sequence,flow.Sequence,4_111,2023-09-12T21:55:16.960Z,,0,,,2778.387000047718,completion,,,,,false,,,,548637.5999999046,548637.2000000477,545842.292,545856.899999857,545858.813,548641.796,8,400,,,
trial,html.Screen,4_112_0,2023-09-12T21:55:19.749Z,,0,3,,2785.4040000477107,response,ISIC_0054954.JPG,5,ISIC_4253346.JPG,ISIC_4253346.JPG,false,0,keypress(z),500,551427.5,551427.2000000477,548625.443,548637.7999999523,548641.796,551441.551,8,400,13,,ISIC_0054954.JPG
break,html.Screen,4_112_1,2023-09-12T21:55:19.751Z,,0,,,NaN,,,,,,false,,,,551429,551428.5999999046,,551428,,551441.551,8,400,,,
break_continue,html.Screen,4_112_2,2023-09-12T21:55:19.752Z,,0,,,NaN,,,,,,false,,,,551429.7999999523,551429.5999999046,,551429.2000000477,,551441.551,8,400,,,
sequence,flow.Sequence,4_112,2023-09-12T21:55:19.752Z,,0,,,2787.8039999046596,completion,,,,,false,,,,551430.0999999046,551429.5999999046,548625.443,548637.7999999523,548641.796,551441.551,8,400,,,
trial,html.Screen,4_113_0,2023-09-12T21:55:22.971Z,,0,3,,3207.649000047706,response,ISIC_1919324.JPG,5,ISIC_8910589.JPG,ISIC_1919324.JPG,false,1,keypress(m),500,554649.5,554649.2000000477,551424.614,551430.399999857,551441.551,554657.78,8,400,14,,ISIC_8910589.JPG
break,html.Screen,4_113_1,2023-09-12T21:55:22.973Z,,0,,,NaN,,,,,,false,,,,554650.5999999046,554650.2999999523,,554649.7000000477,,554657.78,8,400,,,
break_continue,html.Screen,4_113_2,2023-09-12T21:55:22.973Z,,0,,,NaN,,,,,,false,,,,554651.2999999523,554651.0999999046,,554650.7999999523,,554657.78,8,400,,,
sequence,flow.Sequence,4_113,2023-09-12T21:55:22.973Z,,0,,,3209.548999904655,completion,,,,,false,,,,554651.5,554651.0999999046,551424.614,551430.2999999523,551441.551,554657.78,8,400,,,
trial,html.Screen,4_114_0,2023-09-12T21:55:27.397Z,,0,3,,4416.719999999972,response,ISIC_2034687.JPG,5,ISIC_0066150.JPG,ISIC_2034687.JPG,false,1,keypress(m),500,559074.7999999523,559074.5,554641.294,554651.7000000477,554657.78,559090.687,8,400,15,,ISIC_0066150.JPG
break,html.Screen,4_114_1,2023-09-12T21:55:27.398Z,,0,,,NaN,,,,,,false,,,,559075.7999999523,559075.5,,559075,,559090.687,8,400,,,
break_continue,html.Screen,4_114_2,2023-09-12T21:55:27.398Z,,0,,,NaN,,,,,,false,,,,559076.2999999523,559076.0999999046,,559075.899999857,,559090.687,8,400,,,
sequence,flow.Sequence,4_114,2023-09-12T21:55:27.398Z,,0,,,4418.319999904605,completion,,,,,false,,,,559076.5,559076.0999999046,554641.294,554651.7000000477,554657.78,559090.687,8,400,,,
trial,html.Screen,4_115_0,2023-09-12T21:55:30.122Z,,0,3,,2708.8129999999655,response,ISIC_0016085.JPG,5,ISIC_1590829.JPG,ISIC_1590829.JPG,false,0,keypress(z),500,561799.7000000477,561799.5,559074.112,559076.5999999046,559090.687,561806.882,8,400,16,,ISIC_0016085.JPG
break,html.Screen,4_115_1,2023-09-12T21:55:30.123Z,,0,,,NaN,,,,,,false,,,,561800.7000000477,561800.399999857,,561799.7999999523,,561806.882,8,400,,,
break_continue,html.Screen,4_115_2,2023-09-12T21:55:30.123Z,,0,,,NaN,,,,,,false,,,,561801.0999999046,561801,,561800.7000000477,,561806.882,8,400,,,
sequence,flow.Sequence,4_115,2023-09-12T21:55:30.123Z,,0,,,2710.3129999999655,completion,,,,,false,,,,561801.2999999523,561801,559074.112,559076.5,559090.687,561806.882,8,400,,,
trial,html.Screen,4_116_0,2023-09-12T21:55:32.884Z,,0,3,,2755.5179998569656,response,ISIC_2424673.JPG,5,ISIC_0000274.JPG,ISIC_0000274.JPG,false,0,keypress(z),500,564562.5999999046,564562.399999857,561790.449,561801.399999857,561806.882,564590.148,8,400,17,,ISIC_2424673.JPG
break,html.Screen,4_116_1,2023-09-12T21:55:32.885Z,,0,,,NaN,,,,,,false,,,,564563.5,564563.2000000477,,564562.7999999523,,564590.148,8,400,,,
break_continue,html.Screen,4_116_2,2023-09-12T21:55:32.886Z,,0,,,NaN,,,,,,false,,,,564563.7999999523,564563.7999999523,,564563.5,,564590.148,8,400,,,
sequence,flow.Sequence,4_116,2023-09-12T21:55:32.886Z,,0,,,2756.917999952333,completion,,,,,false,,,,564564,564563.7999999523,561790.449,561801.399999857,561806.882,564590.148,8,400,,,
trial,html.Screen,4_117_0,2023-09-12T21:55:35.527Z,,0,3,,2615.3519999999553,response,ISIC_0032858.JPG,5,ISIC_0065468.JPG,ISIC_0065468.JPG,false,0,keypress(z),500,567205.5,567205.5,564573.259,564564.0999999046,564590.148,567223.753,8,400,18,,ISIC_0032858.JPG
break,html.Screen,4_117_1,2023-09-12T21:55:35.528Z,,0,,,NaN,,,,,,false,,,,567206.0999999046,567206,,567205.7000000477,,567223.753,8,400,,,
break_continue,html.Screen,4_117_2,2023-09-12T21:55:35.528Z,,0,,,NaN,,,,,,false,,,,567206.2999999523,567206.2000000477,,567206.0999999046,,567223.753,8,400,,,
sequence,flow.Sequence,4_117,2023-09-12T21:55:35.528Z,,0,,,2616.052000047639,completion,,,,,false,,,,567206.2999999523,567206.2000000477,564573.259,564564.0999999046,564590.148,567223.753,8,400,,,
trial,html.Screen,4_118_0,2023-09-12T21:55:38.298Z,,0,3,,2751.9470000476576,response,ISIC_9130157.JPG,6,ISIC_0011526.JPG,ISIC_0011526.JPG,false,0,keypress(z),500,569976,569975.7000000477,567189.595,567206.399999857,567223.753,569989.569,8,400,19,,ISIC_9130157.JPG
break,html.Screen,4_118_1,2023-09-12T21:55:38.299Z,,0,,,NaN,,,,,,false,,,,569977.0999999046,569976.7999999523,,569976.2999999523,,569989.569,8,400,,,
break_continue,html.Screen,4_118_2,2023-09-12T21:55:38.300Z,,0,,,NaN,,,,,,false,,,,569977.7000000477,569977.5,,569977.2000000477,,569989.569,8,400,,,
sequence,flow.Sequence,4_118,2023-09-12T21:55:38.300Z,,0,,,2753.746999999974,completion,,,,,false,,,,569977.899999857,569977.5,567189.595,567206.399999857,567223.753,569989.569,8,400,,,
trial,html.Screen,4_119_0,2023-09-12T21:55:41.198Z,,0,3,,2886.131000047666,response,ISIC_0067205.JPG,5,ISIC_7837503.JPG,ISIC_7837503.JPG,false,0,keypress(z),500,572876,572875.7000000477,569973.06,569978.0999999046,569989.569,572889.001,8,400,20,,ISIC_0067205.JPG
break,html.Screen,4_119_1,2023-09-12T21:55:41.199Z,,0,,,NaN,,,,,,false,,,,572877.399999857,572877,,572876.2999999523,,572889.001,8,400,,,
break_continue,html.Screen,4_119_2,2023-09-12T21:55:41.200Z,,0,,,NaN,,,,,,false,,,,572878.0999999046,572877.899999857,,572877.5999999046,,572889.001,8,400,,,
sequence,flow.Sequence,4_119,2023-09-12T21:55:41.200Z,,0,,,2888.330999856931,completion,,,,,false,,,,572878.399999857,572877.899999857,569973.06,569978,569989.569,572889.001,8,400,,,
trial,html.Screen,4_120_0,2023-09-12T21:55:43.891Z,,0,3,,2680.098999904585,response,ISIC_8194467.JPG,5,ISIC_0066952.JPG,ISIC_8194467.JPG,false,1,keypress(m),500,575569.399999857,575569.0999999046,572872.568,572878.5999999046,572889.001,575571.972,8,400,21,,ISIC_0066952.JPG
break,html.Screen,4_120_1,2023-09-12T21:55:43.892Z,,0,,,NaN,,,,,,false,,,,575570.399999857,575570.0999999046,,575569.5999999046,,575571.972,8,400,,,
break_continue,html.Screen,4_120_2,2023-09-12T21:55:43.893Z,,0,,,NaN,,,,,,false,,,,575570.899999857,575570.7000000477,,575570.5,,575571.972,8,400,,,
sequence,flow.Sequence,4_120,2023-09-12T21:55:43.893Z,,0,,,2681.699000047636,completion,,,,,false,,,,575571.0999999046,575570.7000000477,572872.568,572878.5,572889.001,575571.972,8,400,,,
trial,html.Screen,4_121_0,2023-09-12T21:55:47.019Z,,0,3,,3124.728000047733,response,ISIC_0010909.JPG,5,ISIC_0010231.JPG,ISIC_0010909.JPG,false,1,keypress(m),500,578697,578696.7000000477,575555.162,575571.2000000477,575571.972,578704.94,8,400,22,,ISIC_0010231.JPG
break,html.Screen,4_121_1,2023-09-12T21:55:47.020Z,,0,,,NaN,,,,,,false,,,,578698,578697.7999999523,,578697.2000000477,,578704.94,8,400,,,
break_continue,html.Screen,4_121_2,2023-09-12T21:55:47.020Z,,0,,,NaN,,,,,,false,,,,578698.5999999046,578698.399999857,,578698.2000000477,,578704.94,8,400,,,
sequence,flow.Sequence,4_121,2023-09-12T21:55:47.022Z,,0,,,3126.427999856998,completion,,,,,false,,,,578699.899999857,578698.399999857,575555.162,575571.0999999046,575571.972,578704.94,8,400,,,
trial,html.Screen,4_122_0,2023-09-12T21:55:49.712Z,,0,3,,2684.4599998570047,response,ISIC_0057999.JPG,4,ISIC_5721110.JPG,ISIC_5721110.JPG,false,0,keypress(z),500,581389.7000000477,581389.399999857,578688.45,578700,578704.94,581404.899,8,400,23,,ISIC_0057999.JPG
break,html.Screen,4_122_1,2023-09-12T21:55:49.713Z,,0,,,NaN,,,,,,false,,,,581391.0999999046,581390.7000000477,,581390,,581404.899,8,400,,,
break_continue,html.Screen,4_122_2,2023-09-12T21:55:49.714Z,,0,,,NaN,,,,,,false,,,,581391.7999999523,581391.5999999046,,581391.2000000477,,581404.899,8,400,,,
sequence,flow.Sequence,4_122,2023-09-12T21:55:49.714Z,,0,,,2686.6599999046884,completion,,,,,false,,,,581392,581391.5999999046,578688.45,578700,578704.94,581404.899,8,400,,,
trial,html.Screen,4_123_0,2023-09-12T21:55:52.885Z,,0,3,,3158.000999856973,response,ISIC_0010376.JPG,5,ISIC_0071111.JPG,ISIC_0071111.JPG,false,0,keypress(z),500,584563.2000000477,584562.899999857,581387.993,581392.2000000477,581404.899,584570.912,8,400,24,,ISIC_0010376.JPG
break,html.Screen,4_123_1,2023-09-12T21:55:52.886Z,,0,,,NaN,,,,,,false,,,,584564.5,584564,,584563.5,,584570.912,8,400,,,
break_continue,html.Screen,4_123_2,2023-09-12T21:55:52.887Z,,0,,,NaN,,,,,,false,,,,584565.0999999046,584564.899999857,,584564.5999999046,,584570.912,8,400,,,
sequence,flow.Sequence,4_123,2023-09-12T21:55:52.887Z,,0,,,3160.000999856973,completion,,,,,false,,,,584565.2999999523,584564.899999857,581387.993,581392.0999999046,581404.899,584570.912,8,400,,,
trial,html.Screen,4_124_0,2023-09-12T21:55:55.516Z,,0,3,,2622.9879998569377,response,ISIC_0030404.JPG,5,ISIC_0059571.JPG,ISIC_0030404.JPG,false,1,keypress(m),500,587194.2000000477,587193.899999857,584554.566,584565.5999999046,584570.912,587203.983,8,400,25,,ISIC_0059571.JPG
break,html.Screen,4_124_1,2023-09-12T21:55:55.517Z,,0,,,NaN,,,,,,false,,,,587195.5999999046,587195.0999999046,,587194.5,,587203.983,8,400,,,
break_continue,html.Screen,4_124_2,2023-09-12T21:55:55.518Z,,0,,,NaN,,,,,,false,,,,587196.2999999523,587196,,587195.7000000477,,587203.983,8,400,,,
sequence,flow.Sequence,4_124,2023-09-12T21:55:55.518Z,,0,,,2625.087999999989,completion,,,,,false,,,,587196.5,587196,584554.566,584565.5,584570.912,587203.983,8,400,,,
trial,html.Screen,4_125_0,2023-09-12T21:55:58.097Z,,0,3,,2571.2170000476763,response,ISIC_2498215.JPG,5,ISIC_4102922.JPG,ISIC_4102922.JPG,false,0,keypress(z),500,589775.5,589775.2000000477,587187.283,587196.7000000477,587203.983,589787.011,8,400,26,,ISIC_2498215.JPG
break,html.Screen,4_125_1,2023-09-12T21:55:58.099Z,,0,,,NaN,,,,,,false,,,,589776.7000000477,589776.399999857,,589775.7999999523,,589787.011,8,400,,,
break_continue,html.Screen,4_125_2,2023-09-12T21:55:58.099Z,,0,,,NaN,,,,,,false,,,,589777.2999999523,589777.2000000477,,589776.899999857,,589787.011,8,400,,,
sequence,flow.Sequence,4_125,2023-09-12T21:55:58.099Z,,0,,,2573.2170000476763,completion,,,,,false,,,,589777.5999999046,589777.2000000477,587187.283,587196.5999999046,587203.983,589787.011,8,400,,,
