sender,sender_type,sender_id,timestamp,meta,,blockNo,condition,duration,ended_on,img_left,img_reveal,img_right,loser,practice,response,response_action,selection_duration,time_commit,time_end,time_render,time_run,time_show,time_switch,total_blocks,total_trials,trialNo,url,winner
informed_consent,html.Screen,0,2023-09-08T19:50:24.429Z,"{""labjs_version"":""20.2.4"",""labjs_build"":{""flavor"":""production"",""commit"":""f5b4a49f956347addd546a832a3327688c2c0fef""},""location"":""https://run.pavlovia.org/MurrayBennett/melanoma-2afc/?participant=63a92e2605e59f352e566b83&STUDY_ID=64f8c92207ba404bcb356c90&SESSION_ID=64fb7a07bd9f56fb1728af78&platform=prolific"",""userAgent"":""Mozilla/5.0 (Windows NT 10.0; Win64; x64) AppleWebKit/537.36 (KHTML, like Gecko) Chrome/116.0.0.0 Safari/537.36"",""platform"":""Win32"",""language"":""en"",""locale"":""en-US"",""timeZone"":""America/New_York"",""timezoneOffset"":240,""screen_width"":1043,""screen_height"":587,""scroll_width"":1391,""scroll_height"":588,""window_innerWidth"":1391,""window_innerHeight"":588,""devicePixelRatio"":0.9824999570846558}",,,,239539.63999998808,response,,,,,,consent,click button,,241814,241796.69999998808,2240.385,2244,2257.06,241856.138,,,,"{""participant"":""63a92e2605e59f352e566b83"",""STUDY_ID"":""64f8c92207ba404bcb356c90"",""SESSION_ID"":""64fb7a07bd9f56fb1728af78"",""platform"":""prolific""}",
Welcome,html.Screen,1,2023-09-08T19:51:27.824Z,,,,colourful,63352.76199999105,response,,,,,,continue,click button,,305213.299999997,305208.89999999106,241789.932,241815.09999999404,241856.138,305227.258,,,,,
trial,html.Screen,2_0_0,2023-09-08T19:51:31.346Z,,0,0,,3506.9419999881065,response,ISIC_0025593.JPG,,ISIC_0063388.JPG,ISIC_0063388.JPG,true,0,keypress(z),500,308734.799999997,308734.1999999881,305196.348,305213.59999999404,305227.258,308743.939,1,6,1,,ISIC_0025593.JPG
sequence,flow.Sequence,2_0,2023-09-08T19:51:31.347Z,,0,,,3506.9419999881065,completion,,,,,true,,,,308735.59999999404,308734.1999999881,305196.348,305213.5,305227.258,308743.939,1,6,,,
trial,html.Screen,2_1_0,2023-09-08T19:51:35.142Z,,0,0,,3786.6609999940265,response,ISIC_1309015.JPG,,ISIC_0028178.JPG,ISIC_1309015.JPG,true,1,keypress(m),500,312531.1999999881,312530.59999999404,308727.507,308735.89999999106,308743.939,312544.873,1,6,2,,ISIC_0028178.JPG
sequence,flow.Sequence,2_1,2023-09-08T19:51:35.143Z,,0,,,3786.6609999940265,completion,,,,,true,,,,312531.799999997,312530.59999999404,308727.507,308735.6999999881,308743.939,312544.873,1,6,,,
trial,html.Screen,2_2_0,2023-09-08T19:51:38.927Z,,0,0,,3770.726999994018,response,ISIC_3314853.JPG,,ISIC_0031128.JPG,ISIC_3314853.JPG,true,1,keypress(m),500,316316.1999999881,316315.59999999404,312527.797,312532.1999999881,312544.873,316327.979,1,6,3,,ISIC_0031128.JPG
sequence,flow.Sequence,2_2,2023-09-08T19:51:38.928Z,,0,,,3770.726999994018,completion,,,,,true,,,,316316.6999999881,316315.59999999404,312527.797,312532.09999999404,312544.873,316327.979,1,6,,,
trial,html.Screen,2_3_0,2023-09-08T19:51:46.811Z,,0,0,,7871.620999994047,response,ISIC_0031612.JPG,,ISIC_8980141.JPG,ISIC_8980141.JPG,true,0,keypress(z),500,324200.1999999881,324199.59999999404,316311.318,316317.1999999881,316327.979,324211.897,1,6,4,,ISIC_0031612.JPG
sequence,flow.Sequence,2_3,2023-09-08T19:51:46.812Z,,0,,,7871.620999994047,completion,,,,,true,,,,324201,324199.59999999404,316311.318,316317.09999999404,316327.979,324211.897,1,6,,,
trial,html.Screen,2_4_0,2023-09-08T19:51:49.983Z,,0,0,,3159.802999988082,response,ISIC_9721604.JPG,,ISIC_1197737.JPG,ISIC_9721604.JPG,true,1,keypress(m),500,327372.1999999881,327371.6999999881,324195.535,324201.39999999106,324211.897,327378.686,1,6,5,,ISIC_1197737.JPG
sequence,flow.Sequence,2_4,2023-09-08T19:51:49.984Z,,0,,,3159.802999988082,completion,,,,,true,,,,327372.89999999106,327371.6999999881,324195.535,324201.299999997,324211.897,327378.686,1,6,,,
trial,html.Screen,2_5_0,2023-09-08T19:51:59.555Z,,0,0,,9564.913999994053,response,ISIC_0010681.JPG,,ISIC_0025346.JPG,ISIC_0010681.JPG,true,1,keypress(m),500,336944.39999999106,336943.59999999404,327362.147,327373.1999999881,327378.686,336962.65,1,6,6,,ISIC_0025346.JPG
sequence,flow.Sequence,2_5,2023-09-08T19:51:59.556Z,,0,,,9564.913999994053,completion,,,,,true,,,,336945,336943.59999999404,327362.147,327373.09999999404,327378.686,336962.65,1,6,,,
loop,flow.Loop,2,2023-09-08T19:51:59.556Z,,,,,31716.341999994067,completion,,,,,true,,,,336945.39999999106,336943.59999999404,305196.348,305213.5,305227.258,336962.65,1,6,,,
exp_instructions,html.Screen,3,2023-09-08T19:53:11.131Z,,,,,71552.649999997,response,,,,,,continue,keypress(Space),,408516.799999997,408515.299999997,336946.044,336945.6999999881,336962.65,408534.043,,,,,
trial,html.Screen,4_0_0,2023-09-08T19:53:15.162Z,,0,1,,4013.0569999940344,response,ISIC_0071966.JPG,5,ISIC_0024507.JPG,ISIC_0071966.JPG,false,1,keypress(m),500,412547.6999999881,412547.09999999404,408504.373,408517.39999999106,408534.043,412550.703,8,400,1,,ISIC_0024507.JPG
break,html.Screen,4_0_1,2023-09-08T19:53:15.165Z,,0,,,NaN,,,,,,false,,,,412550.39999999106,412550.09999999404,,412548.1999999881,,412550.703,8,400,,,
break_continue,html.Screen,4_0_2,2023-09-08T19:53:15.166Z,,0,,,NaN,,,,,,false,,,,412551.299999997,412551.1999999881,,412550.59999999404,,412550.703,8,400,,,
sequence,flow.Sequence,4_0,2023-09-08T19:53:15.166Z,,0,,,4017.156999988074,completion,,,,,false,,,,412551.5,412551.1999999881,408504.373,408517.299999997,408534.043,412550.703,8,400,,,
trial,html.Screen,4_1_0,2023-09-08T19:53:23.630Z,,0,1,,8464.89699999406,response,ISIC_0024757.JPG,13,ISIC_6208762.JPG,ISIC_0024757.JPG,false,1,keypress(m),500,421016.1999999881,421015.59999999404,412534.256,412551.59999999404,412550.703,421038.451,8,400,2,,ISIC_6208762.JPG
break,html.Screen,4_1_1,2023-09-08T19:53:23.634Z,,0,,,NaN,,,,,,false,,,,421019.39999999106,421018.59999999404,,421016.6999999881,,421038.451,8,400,,,
break_continue,html.Screen,4_1_2,2023-09-08T19:53:23.635Z,,0,,,NaN,,,,,,false,,,,421020.5,421020.299999997,,421019.6999999881,,421038.451,8,400,,,
sequence,flow.Sequence,4_1,2023-09-08T19:53:23.635Z,,0,,,8469.59699999704,completion,,,,,false,,,,421021.09999999404,421020.299999997,412534.256,412551.59999999404,412550.703,421038.451,8,400,,,
trial,html.Screen,4_2_0,2023-09-08T19:53:27.472Z,,0,1,,3818.4489999910584,response,ISIC_0062524.JPG,13,ISIC_6446779.JPG,ISIC_6446779.JPG,false,0,keypress(z),500,424857.39999999106,424856.89999999106,421001.53,421021.39999999106,421038.451,424868.34,8,400,3,,ISIC_0062524.JPG
break,html.Screen,4_2_1,2023-09-08T19:53:27.474Z,,0,,,NaN,,,,,,false,,,,424859.5,424859,,424857.6999999881,,424868.34,8,400,,,
break_continue,html.Screen,4_2_2,2023-09-08T19:53:27.475Z,,0,,,NaN,,,,,,false,,,,424860.39999999106,424860.1999999881,,424859.799999997,,424868.34,8,400,,,
sequence,flow.Sequence,4_2,2023-09-08T19:53:27.475Z,,0,,,3821.748999988078,completion,,,,,false,,,,424860.799999997,424860.1999999881,421001.53,421021.39999999106,421038.451,424868.34,8,400,,,
trial,html.Screen,4_3_0,2023-09-08T19:53:32.905Z,,0,1,,5421.659999999974,response,ISIC_0058823.JPG,7,ISIC_0068610.JPG,ISIC_0068610.JPG,false,0,keypress(z),500,430290.299999997,430290,424851.948,424861.09999999404,424868.34,430302.212,8,400,4,,ISIC_0058823.JPG
break,html.Screen,4_3_1,2023-09-08T19:53:32.907Z,,0,,,NaN,,,,,,false,,,,430292.5,430291.89999999106,,430290.799999997,,430302.212,8,400,,,
break_continue,html.Screen,4_3_2,2023-09-08T19:53:32.908Z,,0,,,NaN,,,,,,false,,,,430293.5,430293.299999997,,430292.799999997,,430302.212,8,400,,,
sequence,flow.Sequence,4_3,2023-09-08T19:53:32.908Z,,0,,,5424.959999996994,completion,,,,,false,,,,430293.799999997,430293.299999997,424851.948,424860.89999999106,424868.34,430302.212,8,400,,,
trial,html.Screen,4_4_0,2023-09-08T19:53:39.399Z,,0,1,,6481.9879999880795,response,ISIC_8207974.JPG,5,ISIC_0064033.JPG,ISIC_8207974.JPG,false,1,keypress(m),500,436784.59999999404,436784.1999999881,430285.556,430294.09999999404,430302.212,436819.187,8,400,5,,ISIC_0064033.JPG
break,html.Screen,4_4_1,2023-09-08T19:53:39.401Z,,0,,,NaN,,,,,,false,,,,436787.1999999881,436786.59999999404,,436784.89999999106,,436819.187,8,400,,,
break_continue,html.Screen,4_4_2,2023-09-08T19:53:39.402Z,,0,,,NaN,,,,,,false,,,,436788.09999999404,436787.799999997,,436787.39999999106,,436819.187,8,400,,,
sequence,flow.Sequence,4_4,2023-09-08T19:53:39.403Z,,0,,,6485.58799999702,completion,,,,,false,,,,436788.39999999106,436787.799999997,430285.556,430294,430302.212,436819.187,8,400,,,
trial,html.Screen,4_5_0,2023-09-08T19:53:43.248Z,,0,1,,3814.6129999970435,response,ISIC_3471815.JPG,6,ISIC_0012334.JPG,ISIC_3471815.JPG,false,1,keypress(m),500,440634.1999999881,440633.799999997,436802.509,436788.6999999881,436819.187,440657.527,8,400,6,,ISIC_0012334.JPG
break,html.Screen,4_5_1,2023-09-08T19:53:43.251Z,,0,,,NaN,,,,,,false,,,,440637.1999999881,440636.39999999106,,440634.6999999881,,440657.527,8,400,,,
break_continue,html.Screen,4_5_2,2023-09-08T19:53:43.252Z,,0,,,NaN,,,,,,false,,,,440638.09999999404,440637.799999997,,440637.5,,440657.527,8,400,,,
sequence,flow.Sequence,4_5,2023-09-08T19:53:43.253Z,,0,,,3818.6129999970435,completion,,,,,false,,,,440638.5,440637.799999997,436802.509,436788.59999999404,436819.187,440657.527,8,400,,,
trial,html.Screen,4_6_0,2023-09-08T19:53:47.183Z,,0,1,,3910.8729999910574,response,ISIC_3378691.JPG,13,ISIC_0028554.JPG,ISIC_3378691.JPG,false,1,keypress(m),500,444568.59999999404,444568.39999999106,440619.38,440638.6999999881,440657.527,444592.105,8,400,7,,ISIC_0028554.JPG
break,html.Screen,4_6_1,2023-09-08T19:53:47.184Z,,0,,,NaN,,,,,,false,,,,444569.6999999881,444569.39999999106,,444568.799999997,,444592.105,8,400,,,
break_continue,html.Screen,4_6_2,2023-09-08T19:53:47.184Z,,0,,,NaN,,,,,,false,,,,444570.1999999881,444570.09999999404,,444569.799999997,,444592.105,8,400,,,
sequence,flow.Sequence,4_6,2023-09-08T19:53:47.185Z,,0,,,3912.5729999940377,completion,,,,,false,,,,444570.39999999106,444570.09999999404,440619.38,440638.6999999881,440657.527,444592.105,8,400,,,
trial,html.Screen,4_7_0,2023-09-08T19:53:51.781Z,,0,1,,4574.294999991078,response,ISIC_2051278.JPG,13,ISIC_0071957.JPG,ISIC_0071957.JPG,false,0,keypress(z),500,449166.799999997,449166.39999999106,444552.985,444570.5,444592.105,449169.922,8,400,8,,ISIC_2051278.JPG
break,html.Screen,4_7_1,2023-09-08T19:53:51.783Z,,0,,,NaN,,,,,,false,,,,449168.799999997,449168.39999999106,,449167.1999999881,,449169.922,8,400,,,
break_continue,html.Screen,4_7_2,2023-09-08T19:53:51.784Z,,0,,,NaN,,,,,,false,,,,449169.6999999881,449169.5,,449169,,449169.922,8,400,,,
sequence,flow.Sequence,4_7,2023-09-08T19:53:51.785Z,,0,,,4577.395000000019,completion,,,,,false,,,,449170.59999999404,449169.5,444552.985,444570.39999999106,444592.105,449169.922,8,400,,,
trial,html.Screen,4_8_0,2023-09-08T19:53:57.394Z,,0,1,,5609.277999988059,response,ISIC_0014598.JPG,6,ISIC_4418545.JPG,ISIC_0014598.JPG,false,1,keypress(m),500,454779.59999999404,454779.1999999881,449153.557,449171.299999997,449169.922,454786.96,8,400,9,,ISIC_4418545.JPG
break,html.Screen,4_8_1,2023-09-08T19:53:57.396Z,,0,,,NaN,,,,,,false,,,,454781.89999999106,454781.299999997,,454780,,454786.96,8,400,,,
break_continue,html.Screen,4_8_2,2023-09-08T19:53:57.397Z,,0,,,NaN,,,,,,false,,,,454782.6999999881,454782.5,,454782.09999999404,,454786.96,8,400,,,
sequence,flow.Sequence,4_8,2023-09-08T19:53:57.397Z,,0,,,5612.5779999999795,completion,,,,,false,,,,454783.09999999404,454782.5,449153.557,449171.09999999404,449169.922,454786.96,8,400,,,
trial,html.Screen,4_9_0,2023-09-08T19:54:00.710Z,,0,1,,3308.539999999979,response,ISIC_0033157.JPG,6,ISIC_0016123.JPG,ISIC_0033157.JPG,false,1,keypress(m),500,458096.1999999881,458095.5,454770.514,454783.299999997,454786.96,458103.754,8,400,10,,ISIC_0016123.JPG
break,html.Screen,4_9_1,2023-09-08T19:54:00.713Z,,0,,,NaN,,,,,,false,,,,458098.39999999106,458098,,458096.59999999404,,458103.754,8,400,,,
break_continue,html.Screen,4_9_2,2023-09-08T19:54:00.714Z,,0,,,NaN,,,,,,false,,,,458099.299999997,458099.1999999881,,458098.6999999881,,458103.754,8,400,,,
sequence,flow.Sequence,4_9,2023-09-08T19:54:00.714Z,,0,,,3312.239999988058,completion,,,,,false,,,,458099.6999999881,458099.1999999881,454770.514,454783.1999999881,454786.96,458103.754,8,400,,,
trial,html.Screen,4_10_0,2023-09-08T19:54:04.340Z,,0,1,,3622.0459999970044,response,ISIC_0010442.JPG,12,ISIC_0062812.JPG,ISIC_0062812.JPG,false,0,keypress(z),500,461726.1999999881,461725.799999997,458087.429,458099.89999999106,458103.754,461737.566,8,400,11,,ISIC_0010442.JPG
break,html.Screen,4_10_1,2023-09-08T19:54:04.343Z,,0,,,NaN,,,,,,false,,,,461728.299999997,461727.89999999106,,461726.59999999404,,461737.566,8,400,,,
break_continue,html.Screen,4_10_2,2023-09-08T19:54:04.343Z,,0,,,NaN,,,,,,false,,,,461729.1999999881,461728.89999999106,,461728.59999999404,,461737.566,8,400,,,
sequence,flow.Sequence,4_10,2023-09-08T19:54:04.344Z,,0,,,3625.145999991044,completion,,,,,false,,,,461729.5,461728.89999999106,458087.429,458099.89999999106,458103.754,461737.566,8,400,,,
trial,html.Screen,4_11_0,2023-09-08T19:54:14.886Z,,0,1,,10531.533999994048,response,ISIC_0024732.JPG,13,ISIC_0013165.JPG,ISIC_0024732.JPG,false,1,keypress(m),500,472269.5,472269.09999999404,461720.924,461729.6999999881,461737.566,472292.84,8,400,12,,ISIC_0013165.JPG
break,html.Screen,4_11_1,2023-09-08T19:54:14.889Z,,0,,,NaN,,,,,,false,,,,472272.1999999881,472271.1999999881,,472269.89999999106,,472292.84,8,400,,,
break_continue,html.Screen,4_11_2,2023-09-08T19:54:14.890Z,,0,,,NaN,,,,,,false,,,,472273.09999999404,472272.89999999106,,472272.5,,472292.84,8,400,,,
sequence,flow.Sequence,4_11,2023-09-08T19:54:14.890Z,,0,,,10535.333999991068,completion,,,,,false,,,,472273.39999999106,472272.89999999106,461720.924,461729.59999999404,461737.566,472292.84,8,400,,,
trial,html.Screen,4_12_0,2023-09-08T19:54:20.116Z,,0,1,,5206.259999994014,response,ISIC_0068905.JPG,12,ISIC_0066952.JPG,ISIC_0066952.JPG,false,0,keypress(z),500,477499.1999999881,477499.09999999404,472254.913,472273.6999999881,472292.84,477504.999,8,400,13,,ISIC_0068905.JPG
break,html.Screen,4_12_1,2023-09-08T19:54:20.117Z,,0,,,NaN,,,,,,false,,,,477500.1999999881,477500,,477499.39999999106,,477504.999,8,400,,,
break_continue,html.Screen,4_12_2,2023-09-08T19:54:20.117Z,,0,,,NaN,,,,,,false,,,,477500.5,477500.5,,477500.299999997,,477504.999,8,400,,,
sequence,flow.Sequence,4_12,2023-09-08T19:54:20.118Z,,0,,,5207.659999999974,completion,,,,,false,,,,477500.6999999881,477500.5,472254.913,472273.6999999881,472292.84,477504.999,8,400,,,
trial,html.Screen,4_13_0,2023-09-08T19:54:23.467Z,,0,1,,3344.300999997009,response,ISIC_0061559.JPG,11,ISIC_0068048.JPG,ISIC_0068048.JPG,false,0,keypress(z),500,480849.6999999881,480849.299999997,477488.845,477500.6999999881,477504.999,480855.241,8,400,14,,ISIC_0061559.JPG
break,html.Screen,4_13_1,2023-09-08T19:54:23.469Z,,0,,,NaN,,,,,,false,,,,480851.799999997,480851.299999997,,480850,,480855.241,8,400,,,
break_continue,html.Screen,4_13_2,2023-09-08T19:54:23.470Z,,0,,,NaN,,,,,,false,,,,480852.6999999881,480852.39999999106,,480852.09999999404,,480855.241,8,400,,,
sequence,flow.Sequence,4_13,2023-09-08T19:54:23.470Z,,0,,,3347.4009999910486,completion,,,,,false,,,,480853.09999999404,480852.39999999106,477488.845,477500.6999999881,477504.999,480855.241,8,400,,,
trial,html.Screen,4_14_0,2023-09-08T19:54:30.739Z,,0,1,,7266.35899999406,response,ISIC_0011012.JPG,12,ISIC_0011489.JPG,ISIC_0011012.JPG,false,1,keypress(m),500,488122.1999999881,488121.59999999404,480838.832,480853.299999997,480855.241,488139.379,8,400,15,,ISIC_0011489.JPG
break,html.Screen,4_14_1,2023-09-08T19:54:30.742Z,,0,,,NaN,,,,,,false,,,,488124.6999999881,488124.1999999881,,488122.5,,488139.379,8,400,,,
break_continue,html.Screen,4_14_2,2023-09-08T19:54:30.743Z,,0,,,NaN,,,,,,false,,,,488125.6999999881,488125.39999999106,,488125,,488139.379,8,400,,,
sequence,flow.Sequence,4_14,2023-09-08T19:54:30.743Z,,0,,,7270.158999991079,completion,,,,,false,,,,488126,488125.39999999106,480838.832,480853.1999999881,480855.241,488139.379,8,400,,,
trial,html.Screen,4_15_0,2023-09-08T19:54:34.866Z,,0,1,,4109.320999988064,response,ISIC_2177748.JPG,12,ISIC_0027674.JPG,ISIC_2177748.JPG,false,1,keypress(m),500,492249.1999999881,492248.6999999881,488122.602,488126.1999999881,488139.379,492255.968,8,400,16,,ISIC_0027674.JPG
break,html.Screen,4_15_1,2023-09-08T19:54:34.868Z,,0,,,NaN,,,,,,false,,,,492251.299999997,492250.89999999106,,492249.59999999404,,492255.968,8,400,,,
break_continue,html.Screen,4_15_2,2023-09-08T19:54:34.869Z,,0,,,NaN,,,,,,false,,,,492252.09999999404,492251.89999999106,,492251.59999999404,,492255.968,8,400,,,
sequence,flow.Sequence,4_15,2023-09-08T19:54:34.869Z,,0,,,4112.520999991044,completion,,,,,false,,,,492252.5,492251.89999999106,488122.602,488126.1999999881,488139.379,492255.968,8,400,,,
trial,html.Screen,4_16_0,2023-09-08T19:54:37.843Z,,0,1,,2970.3319999970263,response,ISIC_0072826.JPG,9,ISIC_0056330.JPG,ISIC_0056330.JPG,false,0,keypress(z),500,495226.5,495226.299999997,492239.781,492252.799999997,492255.968,495239.676,8,400,17,,ISIC_0072826.JPG
break,html.Screen,4_16_1,2023-09-08T19:54:37.844Z,,0,,,NaN,,,,,,false,,,,495227.299999997,495227.09999999404,,495226.6999999881,,495239.676,8,400,,,
break_continue,html.Screen,4_16_2,2023-09-08T19:54:37.845Z,,0,,,NaN,,,,,,false,,,,495227.6999999881,495227.5,,495227.39999999106,,495239.676,8,400,,,
sequence,flow.Sequence,4_16,2023-09-08T19:54:37.845Z,,0,,,2971.5320000000065,completion,,,,,false,,,,495227.799999997,495227.5,492239.781,492252.6999999881,492255.968,495239.676,8,400,,,
trial,html.Screen,4_17_0,2023-09-08T19:54:41.051Z,,0,1,,3194.423999994062,response,ISIC_6250970.JPG,8,ISIC_7895093.JPG,ISIC_6250970.JPG,false,1,keypress(m),500,498434.5,498434.09999999404,495222.969,495227.89999999106,495239.676,498439.861,8,400,18,,ISIC_7895093.JPG
break,html.Screen,4_17_1,2023-09-08T19:54:41.054Z,,0,,,NaN,,,,,,false,,,,498436.6999999881,498436.1999999881,,498434.799999997,,498439.861,8,400,,,
break_continue,html.Screen,4_17_2,2023-09-08T19:54:41.055Z,,0,,,NaN,,,,,,false,,,,498437.6999999881,498437.39999999106,,498437,,498439.861,8,400,,,
sequence,flow.Sequence,4_17,2023-09-08T19:54:41.055Z,,0,,,3197.7239999910817,completion,,,,,false,,,,498437.89999999106,498437.39999999106,495222.969,495227.89999999106,495239.676,498439.861,8,400,,,
trial,html.Screen,4_18_0,2023-09-08T19:54:46.840Z,,0,1,,5782.338999988104,response,ISIC_0006757.JPG,7,ISIC_0030434.JPG,ISIC_0030434.JPG,false,0,keypress(z),500,504222.59999999404,504222.1999999881,498423.426,498438.299999997,498439.861,504240.193,8,400,19,,ISIC_0006757.JPG
break,html.Screen,4_18_1,2023-09-08T19:54:46.842Z,,0,,,NaN,,,,,,false,,,,504225.1999999881,504224.59999999404,,504223,,504240.193,8,400,,,
break_continue,html.Screen,4_18_2,2023-09-08T19:54:46.843Z,,0,,,NaN,,,,,,false,,,,504226.09999999404,504225.89999999106,,504225.5,,504240.193,8,400,,,
sequence,flow.Sequence,4_18,2023-09-08T19:54:46.843Z,,0,,,5786.038999991084,completion,,,,,false,,,,504226.5,504225.89999999106,498423.426,498438.1999999881,498439.861,504240.193,8,400,,,
trial,html.Screen,4_19_0,2023-09-08T19:54:50.463Z,,0,1,,3605.5069999880507,response,ISIC_0011057.JPG,11,ISIC_0056192.JPG,ISIC_0011057.JPG,false,1,keypress(m),500,507846.1999999881,507845.6999999881,504223.807,504226.6999999881,504240.193,507857.26,8,400,20,,ISIC_0056192.JPG
break,html.Screen,4_19_1,2023-09-08T19:54:50.465Z,,0,,,NaN,,,,,,false,,,,507847.89999999106,507847.6999999881,,507846.5,,507857.26,8,400,,,
break_continue,html.Screen,4_19_2,2023-09-08T19:54:50.465Z,,0,,,NaN,,,,,,false,,,,507848.1999999881,507848.1999999881,,507848,,507857.26,8,400,,,
sequence,flow.Sequence,4_19,2023-09-08T19:54:50.465Z,,0,,,3608.0069999880507,completion,,,,,false,,,,507848.39999999106,507848.1999999881,504223.807,504226.59999999404,504240.193,507857.26,8,400,,,
trial,html.Screen,4_20_0,2023-09-08T19:54:55.559Z,,0,1,,5084.43999998807,response,ISIC_7844565.JPG,6,ISIC_0068776.JPG,ISIC_0068776.JPG,false,0,keypress(z),500,512942.299999997,512941.6999999881,507840.502,507848.5,507857.26,512957.406,8,400,21,,ISIC_7844565.JPG
break,html.Screen,4_20_1,2023-09-08T19:54:55.561Z,,0,,,NaN,,,,,,false,,,,512944.299999997,512943.799999997,,512942.59999999404,,512957.406,8,400,,,
break_continue,html.Screen,4_20_2,2023-09-08T19:54:55.562Z,,0,,,NaN,,,,,,false,,,,512945.1999999881,512944.89999999106,,512944.5,,512957.406,8,400,,,
sequence,flow.Sequence,4_20,2023-09-08T19:54:55.562Z,,0,,,5087.63999999105,completion,,,,,false,,,,512945.5,512944.89999999106,507840.502,507848.5,507857.26,512957.406,8,400,,,
trial,html.Screen,4_21_0,2023-09-08T19:54:58.741Z,,0,1,,3165.993999991042,response,ISIC_0001138.JPG,7,ISIC_0013365.JPG,ISIC_0013365.JPG,false,0,keypress(z),500,516123.799999997,516123.39999999106,512941.005,512945.799999997,512957.406,516141.166,8,400,22,,ISIC_0001138.JPG
break,html.Screen,4_21_1,2023-09-08T19:54:58.743Z,,0,,,NaN,,,,,,false,,,,516126.299999997,516125.799999997,,516124.1999999881,,516141.166,8,400,,,
break_continue,html.Screen,4_21_2,2023-09-08T19:54:58.744Z,,0,,,NaN,,,,,,false,,,,516127.1999999881,516126.89999999106,,516126.5,,516141.166,8,400,,,
sequence,flow.Sequence,4_21,2023-09-08T19:54:58.744Z,,0,,,3169.493999991042,completion,,,,,false,,,,516127.5,516126.89999999106,512941.005,512945.59999999404,512957.406,516141.166,8,400,,,
trial,html.Screen,4_22_0,2023-09-08T19:55:02.944Z,,0,1,,4185.133999996993,response,ISIC_0030254.JPG,13,ISIC_5141844.JPG,ISIC_0030254.JPG,false,1,keypress(m),500,520326.5,520326.299999997,516124.555,516127.799999997,516141.166,520341.264,8,400,23,,ISIC_5141844.JPG
break,html.Screen,4_22_1,2023-09-08T19:55:02.946Z,,0,,,NaN,,,,,,false,,,,520328.59999999404,520328.09999999404,,520326.89999999106,,520341.264,8,400,,,
break_continue,html.Screen,4_22_2,2023-09-08T19:55:02.946Z,,0,,,NaN,,,,,,false,,,,520329.5,520329.1999999881,,520328.89999999106,,520341.264,8,400,,,
sequence,flow.Sequence,4_22,2023-09-08T19:55:02.947Z,,0,,,4188.0339999880525,completion,,,,,false,,,,520329.89999999106,520329.1999999881,516124.555,516127.6999999881,516141.166,520341.264,8,400,,,
trial,html.Screen,4_23_0,2023-09-08T19:55:06.540Z,,0,1,,3581.7359999999753,response,ISIC_1925632.JPG,9,ISIC_0025835.JPG,ISIC_1925632.JPG,false,1,keypress(m),500,523923.299999997,523923,520324.681,520330.09999999404,520341.264,523958.107,8,400,24,,ISIC_0025835.JPG
break,html.Screen,4_23_1,2023-09-08T19:55:06.543Z,,0,,,NaN,,,,,,false,,,,523925.799999997,523925.299999997,,523923.89999999106,,523958.107,8,400,,,
break_continue,html.Screen,4_23_2,2023-09-08T19:55:06.544Z,,0,,,NaN,,,,,,false,,,,523926.89999999106,523926.59999999404,,523926.09999999404,,523958.107,8,400,,,
sequence,flow.Sequence,4_23,2023-09-08T19:55:06.544Z,,0,,,3585.335999994015,completion,,,,,false,,,,523927.09999999404,523926.59999999404,520324.681,520330,520341.264,523958.107,8,400,,,
trial,html.Screen,4_24_0,2023-09-08T19:55:10.537Z,,0,1,,3961.592999988061,response,ISIC_3856233.JPG,11,ISIC_3106058.JPG,ISIC_3106058.JPG,false,0,keypress(z),500,527920.1999999881,527919.6999999881,523941.726,523927.39999999106,523958.107,527925.137,8,400,25,,ISIC_3856233.JPG
break,html.Screen,4_24_1,2023-09-08T19:55:10.539Z,,0,,,NaN,,,,,,false,,,,527922.299999997,527921.799999997,,527920.5,,527925.137,8,400,,,
break_continue,html.Screen,4_24_2,2023-09-08T19:55:10.540Z,,0,,,NaN,,,,,,false,,,,527923.099999994,527922.799999997,,527922.3999999911,,527925.137,8,400,,,
sequence,flow.Sequence,4_24,2023-09-08T19:55:10.540Z,,0,,,3964.6929999970016,completion,,,,,false,,,,527923.3999999911,527922.799999997,523941.726,523927.39999999106,523958.107,527925.137,8,400,,,
trial,html.Screen,4_25_0,2023-09-08T19:55:17.374Z,,0,1,,6831.262999991071,response,ISIC_0033831.JPG,12,ISIC_0034100.JPG,ISIC_0033831.JPG,false,1,keypress(m),500,534756.6999999881,534756.3999999911,527908.615,527923.599999994,527925.137,534779.961,8,400,26,,ISIC_0034100.JPG
break,html.Screen,4_25_1,2023-09-08T19:55:17.376Z,,0,,,NaN,,,,,,false,,,,534758.799999997,534758.3999999911,,534757.099999994,,534779.961,8,400,,,
break_continue,html.Screen,4_25_2,2023-09-08T19:55:17.377Z,,0,,,NaN,,,,,,false,,,,534759.8999999911,534759.6999999881,,534759.099999994,,534779.961,8,400,,,
sequence,flow.Sequence,4_25,2023-09-08T19:55:17.377Z,,0,,,6834.562999988091,completion,,,,,false,,,,534760.299999997,534759.6999999881,527908.615,527923.599999994,527925.137,534779.961,8,400,,,
trial,html.Screen,4_26_0,2023-09-08T19:55:22.635Z,,0,1,,5238.03899999999,response,ISIC_0061315.JPG,9,ISIC_0029118.JPG,ISIC_0061315.JPG,false,1,keypress(m),500,540018.3999999911,540018,534742.463,534760.6999999881,534779.961,540025.829,8,400,27,,ISIC_0029118.JPG
break,html.Screen,4_26_1,2023-09-08T19:55:22.637Z,,0,,,NaN,,,,,,false,,,,540020.599999994,540020.099999994,,540018.799999997,,540025.829,8,400,,,
break_continue,html.Screen,4_26_2,2023-09-08T19:55:22.638Z,,0,,,NaN,,,,,,false,,,,540021.5,540021.1999999881,,540020.799999997,,540025.829,8,400,,,
sequence,flow.Sequence,4_26,2023-09-08T19:55:22.639Z,,0,,,5241.238999988069,completion,,,,,false,,,,540021.799999997,540021.1999999881,534742.463,534760.599999994,534779.961,540025.829,8,400,,,
trial,html.Screen,4_27_0,2023-09-08T19:55:26.887Z,,0,1,,4243.970999996993,response,ISIC_0025755.JPG,6,ISIC_0029086.JPG,ISIC_0025755.JPG,false,1,keypress(m),500,544270.1999999881,544269.799999997,540009.777,540022.099999994,540025.829,544276.226,8,400,28,,ISIC_0029086.JPG
break,html.Screen,4_27_1,2023-09-08T19:55:26.889Z,,0,,,NaN,,,,,,false,,,,544272.299999997,544271.8999999911,,544270.599999994,,544276.226,8,400,,,
break_continue,html.Screen,4_27_2,2023-09-08T19:55:26.890Z,,0,,,NaN,,,,,,false,,,,544273.1999999881,544273,,544272.599999994,,544276.226,8,400,,,
sequence,flow.Sequence,4_27,2023-09-08T19:55:26.890Z,,0,,,4247.170999999973,completion,,,,,false,,,,544273.599999994,544273,540009.777,540022,540025.829,544276.226,8,400,,,
trial,html.Screen,4_28_0,2023-09-08T19:55:32.388Z,,0,1,,5494.973999988055,response,ISIC_6688417.JPG,5,ISIC_0024694.JPG,ISIC_6688417.JPG,false,1,keypress(m),500,549771.3999999911,549771.1999999881,544259.567,544273.8999999911,544276.226,549776.434,8,400,29,,ISIC_0024694.JPG
break,html.Screen,4_28_1,2023-09-08T19:55:32.389Z,,0,,,NaN,,,,,,false,,,,549772.299999997,549772.1999999881,,549771.5,,549776.434,8,400,,,
break_continue,html.Screen,4_28_2,2023-09-08T19:55:32.390Z,,0,,,NaN,,,,,,false,,,,549772.799999997,549772.599999994,,549772.3999999911,,549776.434,8,400,,,
sequence,flow.Sequence,4_28,2023-09-08T19:55:32.390Z,,0,,,5496.373999994015,completion,,,,,false,,,,549772.799999997,549772.599999994,544259.567,544273.799999997,544276.226,549776.434,8,400,,,
trial,html.Screen,4_29_0,2023-09-08T19:55:36.745Z,,0,1,,4351.565999999992,response,ISIC_8699796.JPG,10,ISIC_0061749.JPG,ISIC_8699796.JPG,false,1,keypress(m),500,554128.5,554128,549760.25,549773,549776.434,554143.365,8,400,30,,ISIC_0061749.JPG
break,html.Screen,4_29_1,2023-09-08T19:55:36.747Z,,0,,,NaN,,,,,,false,,,,554130.1999999881,554129.799999997,,554128.8999999911,,554143.365,8,400,,,
break_continue,html.Screen,4_29_2,2023-09-08T19:55:36.748Z,,0,,,NaN,,,,,,false,,,,554131.099999994,554130.799999997,,554130.5,,554143.365,8,400,,,
sequence,flow.Sequence,4_29,2023-09-08T19:55:36.748Z,,0,,,4354.365999997011,completion,,,,,false,,,,554131.3999999911,554130.799999997,549760.25,549773,549776.434,554143.365,8,400,,,
trial,html.Screen,4_30_0,2023-09-08T19:55:40.279Z,,0,1,,3518.6350000000093,response,ISIC_0064471.JPG,12,ISIC_0063447.JPG,ISIC_0064471.JPG,false,1,keypress(m),500,557662.3999999911,557662,554127.196,554131.6999999881,554143.365,557677.231,8,400,31,,ISIC_0063447.JPG
break,html.Screen,4_30_1,2023-09-08T19:55:40.281Z,,0,,,NaN,,,,,,false,,,,557664.5,557664,,557662.799999997,,557677.231,8,400,,,
break_continue,html.Screen,4_30_2,2023-09-08T19:55:40.282Z,,0,,,NaN,,,,,,false,,,,557665.3999999911,557665.1999999881,,557664.6999999881,,557677.231,8,400,,,
sequence,flow.Sequence,4_30,2023-09-08T19:55:40.283Z,,0,,,3521.8349999880884,completion,,,,,false,,,,557665.6999999881,557665.1999999881,554127.196,554131.599999994,554143.365,557677.231,8,400,,,
trial,html.Screen,4_31_0,2023-09-08T19:55:51.780Z,,0,1,,11517.321999999927,timeout,ISIC_0061580.JPG,7,ISIC_5458290.JPG,,false,,,500,569163.299999997,569162.599999994,557660.891,557665.799999997,557677.231,569194.553,8,400,32,,
break,html.Screen,4_31_1,2023-09-08T19:55:51.782Z,,0,,,NaN,,,,,,false,,,,569165.1999999881,569164.799999997,,569163.799999997,,569194.553,8,400,,,
break_continue,html.Screen,4_31_2,2023-09-08T19:55:51.783Z,,0,,,NaN,,,,,,false,,,,569166.099999994,569165.799999997,,569165.3999999911,,569194.553,8,400,,,
sequence,flow.Sequence,4_31,2023-09-08T19:55:51.783Z,,0,,,11488.56899999699,completion,,,,,false,,,,569166.3999999911,569165.799999997,557660.891,557665.799999997,557677.231,569194.553,8,400,,,
trial,html.Screen,4_32_0,2023-09-08T19:56:03.297Z,,0,1,,11517.54600000009,timeout,ISIC_2946577.JPG,10,ISIC_0063824.JPG,,false,,,500,580680.3999999911,580680,569178.018,569166.599999994,569194.553,580712.099,8,400,33,,
break,html.Screen,4_32_1,2023-09-08T19:56:03.299Z,,0,,,NaN,,,,,,false,,,,580682,580681.599999994,,580680.6999999881,,580712.099,8,400,,,
break_continue,html.Screen,4_32_2,2023-09-08T19:56:03.300Z,,0,,,NaN,,,,,,false,,,,580682.8999999911,580682.599999994,,580682.1999999881,,580712.099,8,400,,,
sequence,flow.Sequence,4_32,2023-09-08T19:56:03.300Z,,0,,,11488.046999994083,completion,,,,,false,,,,580683.1999999881,580682.599999994,569178.018,569166.5,569194.553,580712.099,8,400,,,
trial,html.Screen,4_33_0,2023-09-08T19:56:14.815Z,,0,1,,11517.140999999945,timeout,ISIC_5272837.JPG,6,ISIC_5840341.JPG,,false,,,500,592197.599999994,592197.299999997,580695.42,580683.5,580712.099,592229.24,8,400,34,,
break,html.Screen,4_33_1,2023-09-08T19:56:14.816Z,,0,,,NaN,,,,,,false,,,,592199.299999997,592198.799999997,,592198,,592229.24,8,400,,,
break_continue,html.Screen,4_33_2,2023-09-08T19:56:14.817Z,,0,,,NaN,,,,,,false,,,,592200.099999994,592199.8999999911,,592199.5,,592229.24,8,400,,,
sequence,flow.Sequence,4_33,2023-09-08T19:56:14.817Z,,0,,,11487.800999991014,completion,,,,,false,,,,592200.5,592199.8999999911,580695.42,580683.3999999911,580712.099,592229.24,8,400,,,
trial,html.Screen,4_34_0,2023-09-08T19:56:20.226Z,,0,1,,5379.059999997029,response,ISIC_3736075.JPG,5,ISIC_8659618.JPG,ISIC_3736075.JPG,false,1,keypress(m),500,597608.799999997,597608.299999997,592212.864,592200.799999997,592229.24,597612.931,8,400,35,,ISIC_8659618.JPG
break,html.Screen,4_34_1,2023-09-08T19:56:20.228Z,,0,,,NaN,,,,,,false,,,,597611.1999999881,597610.6999999881,,597609.3999999911,,597612.931,8,400,,,
break_continue,html.Screen,4_34_2,2023-09-08T19:56:20.229Z,,0,,,NaN,,,,,,false,,,,597612.099999994,597611.8999999911,,597611.5,,597612.931,8,400,,,
sequence,flow.Sequence,4_34,2023-09-08T19:56:20.229Z,,0,,,5382.659999991069,completion,,,,,false,,,,597612.5,597611.8999999911,592212.864,592200.599999994,592229.24,597612.931,8,400,,,
trial,html.Screen,4_35_0,2023-09-08T19:56:26.013Z,,0,1,,5782.268999988097,response,ISIC_0000440.JPG,6,ISIC_0070137.JPG,ISIC_0070137.JPG,false,0,keypress(z),500,603395.6999999881,603395.1999999881,597596.594,597612.799999997,597612.931,603413.595,8,400,36,,ISIC_0000440.JPG
break,html.Screen,4_35_1,2023-09-08T19:56:26.015Z,,0,,,NaN,,,,,,false,,,,603398.099999994,603397.599999994,,603396,,603413.595,8,400,,,
break_continue,html.Screen,4_35_2,2023-09-08T19:56:26.016Z,,0,,,NaN,,,,,,false,,,,603399,603398.799999997,,603398.3999999911,,603413.595,8,400,,,
sequence,flow.Sequence,4_35,2023-09-08T19:56:26.016Z,,0,,,5785.8689999970375,completion,,,,,false,,,,603399.3999999911,603398.799999997,597596.594,597612.6999999881,597612.931,603413.595,8,400,,,
trial,html.Screen,4_36_0,2023-09-08T19:56:29.174Z,,0,1,,3143.0049999940675,response,ISIC_0746397.JPG,8,ISIC_0011158.JPG,ISIC_0746397.JPG,false,1,keypress(m),500,606556.799999997,606556.599999994,603380.47,603399.599999994,603413.595,606563.57,8,400,37,,ISIC_0011158.JPG
break,html.Screen,4_36_1,2023-09-08T19:56:29.175Z,,0,,,NaN,,,,,,false,,,,606557.799999997,606557.599999994,,606556.8999999911,,606563.57,8,400,,,
break_continue,html.Screen,4_36_2,2023-09-08T19:56:29.175Z,,0,,,NaN,,,,,,false,,,,606558.1999999881,606558,,606557.799999997,,606563.57,8,400,,,
sequence,flow.Sequence,4_36,2023-09-08T19:56:29.175Z,,0,,,3144.405000000028,completion,,,,,false,,,,606558.1999999881,606558,603380.47,603399.599999994,603413.595,606563.57,8,400,,,
trial,html.Screen,4_37_0,2023-09-08T19:56:32.828Z,,0,1,,3646.8299999911105,response,ISIC_8663136.JPG,8,ISIC_0069591.JPG,ISIC_0069591.JPG,false,0,keypress(z),500,610210.6999999881,610210.3999999911,606547.271,606558.299999997,606563.57,610213.875,8,400,38,,ISIC_8663136.JPG
break,html.Screen,4_37_1,2023-09-08T19:56:32.830Z,,0,,,NaN,,,,,,false,,,,610212.799999997,610212.299999997,,610211.1999999881,,610213.875,8,400,,,
break_continue,html.Screen,4_37_2,2023-09-08T19:56:32.830Z,,0,,,NaN,,,,,,false,,,,610213.599999994,610213.3999999911,,610213,,610213.875,8,400,,,
sequence,flow.Sequence,4_37,2023-09-08T19:56:32.831Z,,0,,,3649.8299999911105,completion,,,,,false,,,,610214.299999997,610213.3999999911,606547.271,606558.299999997,606563.57,610213.875,8,400,,,
trial,html.Screen,4_38_0,2023-09-08T19:56:36.035Z,,0,1,,3204.2249999940395,response,ISIC_2558816.JPG,10,ISIC_0071693.JPG,ISIC_2558816.JPG,false,1,keypress(m),500,613418.5,613418.099999994,610197.577,610214.6999999881,610213.875,613430.754,8,400,39,,ISIC_0071693.JPG
break,html.Screen,4_38_1,2023-09-08T19:56:36.037Z,,0,,,NaN,,,,,,false,,,,613420.3999999911,613420,,613418.8999999911,,613430.754,8,400,,,
break_continue,html.Screen,4_38_2,2023-09-08T19:56:36.038Z,,0,,,NaN,,,,,,false,,,,613421.1999999881,613421,,613420.599999994,,613430.754,8,400,,,
sequence,flow.Sequence,4_38,2023-09-08T19:56:36.038Z,,0,,,3207.125,completion,,,,,false,,,,613421.599999994,613421,610197.577,610214.599999994,610213.875,613430.754,8,400,,,
trial,html.Screen,4_39_0,2023-09-08T19:56:40.559Z,,0,1,,4510.445999988122,response,ISIC_6274085.JPG,8,ISIC_7702857.JPG,ISIC_7702857.JPG,false,0,keypress(z),500,617941.6999999881,617941.1999999881,613414.198,613421.799999997,613430.754,617947.601,8,400,40,,ISIC_6274085.JPG
break,html.Screen,4_39_1,2023-09-08T19:56:40.560Z,,0,,,NaN,,,,,,false,,,,617943.3999999911,617943.1999999881,,617942.1999999881,,617947.601,8,400,,,
break_continue,html.Screen,4_39_2,2023-09-08T19:56:40.561Z,,0,,,NaN,,,,,,false,,,,617943.6999999881,617943.599999994,,617943.5,,617947.601,8,400,,,
sequence,flow.Sequence,4_39,2023-09-08T19:56:40.561Z,,0,,,4512.845999994082,completion,,,,,false,,,,617943.8999999911,617943.599999994,613414.198,613421.6999999881,613430.754,617947.601,8,400,,,
trial,html.Screen,4_40_0,2023-09-08T19:56:44.681Z,,0,1,,4116.198999996996,response,ISIC_0064694.JPG,10,ISIC_0068627.JPG,ISIC_0064694.JPG,false,1,keypress(m),500,622064.299999997,622063.799999997,617931.345,617944,617947.601,622081.342,8,400,41,,ISIC_0068627.JPG
break,html.Screen,4_40_1,2023-09-08T19:56:44.684Z,,0,,,NaN,,,,,,false,,,,622066.8999999911,622066.3999999911,,622064.6999999881,,622081.342,8,400,,,
break_continue,html.Screen,4_40_2,2023-09-08T19:56:44.685Z,,0,,,NaN,,,,,,false,,,,622067.6999999881,622067.3999999911,,622067.099999994,,622081.342,8,400,,,
sequence,flow.Sequence,4_40,2023-09-08T19:56:44.685Z,,0,,,4119.798999991035,completion,,,,,false,,,,622068.099999994,622067.3999999911,617931.345,617943.8999999911,617947.601,622081.342,8,400,,,
trial,html.Screen,4_41_0,2023-09-08T19:56:48.195Z,,0,1,,3496.357999988133,response,ISIC_7984569.JPG,7,ISIC_2467623.JPG,ISIC_2467623.JPG,false,0,keypress(z),500,625578.099999994,625577.6999999881,622064.94,622068.299999997,622081.342,625581.621,8,400,42,,ISIC_7984569.JPG
break,html.Screen,4_41_1,2023-09-08T19:56:48.197Z,,0,,,NaN,,,,,,false,,,,625580.1999999881,625579.6999999881,,625578.5,,625581.621,8,400,,,
break_continue,html.Screen,4_41_2,2023-09-08T19:56:48.198Z,,0,,,NaN,,,,,,false,,,,625581,625580.799999997,,625580.3999999911,,625581.621,8,400,,,
sequence,flow.Sequence,4_41,2023-09-08T19:56:48.198Z,,0,,,3499.457999997074,completion,,,,,false,,,,625581.299999997,625580.799999997,622064.94,622068.1999999881,622081.342,625581.621,8,400,,,
trial,html.Screen,4_42_0,2023-09-08T19:56:51.377Z,,0,1,,3178.4789999939967,response,ISIC_0032875.JPG,11,ISIC_0026586.JPG,ISIC_0032875.JPG,false,1,keypress(m),500,628760.599999994,628760.099999994,625565.198,625582.299999997,625581.621,628765.109,8,400,43,,ISIC_0026586.JPG
break,html.Screen,4_42_1,2023-09-08T19:56:51.379Z,,0,,,NaN,,,,,,false,,,,628762.599999994,628762.099999994,,628760.8999999911,,628765.109,8,400,,,
break_continue,html.Screen,4_42_2,2023-09-08T19:56:51.380Z,,0,,,NaN,,,,,,false,,,,628763.5,628763.299999997,,628762.8999999911,,628765.109,8,400,,,
sequence,flow.Sequence,4_42,2023-09-08T19:56:51.381Z,,0,,,3181.678999996977,completion,,,,,false,,,,628763.8999999911,628763.299999997,625565.198,625581.6999999881,625581.621,628765.109,8,400,,,
trial,html.Screen,4_43_0,2023-09-08T19:56:54.732Z,,0,1,,3349.7909999910044,response,ISIC_9512048.JPG,13,ISIC_4777536.JPG,ISIC_4777536.JPG,false,0,keypress(z),500,632115.299999997,632114.8999999911,628748.49,628764.099999994,628765.109,632132.1,8,400,44,,ISIC_9512048.JPG
break,html.Screen,4_43_1,2023-09-08T19:56:54.735Z,,0,,,NaN,,,,,,false,,,,632118.1999999881,632117.799999997,,632116.099999994,,632132.1,8,400,,,
break_continue,html.Screen,4_43_2,2023-09-08T19:56:54.736Z,,0,,,NaN,,,,,,false,,,,632119.099999994,632118.8999999911,,632118.5,,632132.1,8,400,,,
sequence,flow.Sequence,4_43,2023-09-08T19:56:54.736Z,,0,,,3353.7909999910044,completion,,,,,false,,,,632119.3999999911,632118.8999999911,628748.49,628764,628765.109,632132.1,8,400,,,
trial,html.Screen,4_44_0,2023-09-08T19:56:58.234Z,,0,1,,3485.0999999881024,response,ISIC_5110133.JPG,12,ISIC_2904067.JPG,ISIC_5110133.JPG,false,1,keypress(m),500,635617.599999994,635617.1999999881,632115.333,632119.6999999881,632132.1,635632.285,8,400,45,,ISIC_2904067.JPG
break,html.Screen,4_44_1,2023-09-08T19:56:58.237Z,,0,,,NaN,,,,,,false,,,,635619.599999994,635619.099999994,,635617.8999999911,,635632.285,8,400,,,
break_continue,html.Screen,4_44_2,2023-09-08T19:56:58.237Z,,0,,,NaN,,,,,,false,,,,635620.3999999911,635620.299999997,,635619.8999999911,,635632.285,8,400,,,
sequence,flow.Sequence,4_44,2023-09-08T19:56:58.238Z,,0,,,3488.199999997043,completion,,,,,false,,,,635620.799999997,635620.299999997,632115.333,632119.599999994,632132.1,635632.285,8,400,,,
trial,html.Screen,4_45_0,2023-09-08T19:57:02.454Z,,0,1,,4203.714999999967,response,ISIC_0031935.JPG,9,ISIC_2661598.JPG,ISIC_0031935.JPG,false,1,keypress(m),500,639836.6999999881,639836,635615.909,635621,635632.285,639849.179,8,400,46,,ISIC_2661598.JPG
break,html.Screen,4_45_1,2023-09-08T19:57:02.456Z,,0,,,NaN,,,,,,false,,,,639839.099999994,639838.599999994,,639837,,639849.179,8,400,,,
break_continue,html.Screen,4_45_2,2023-09-08T19:57:02.457Z,,0,,,NaN,,,,,,false,,,,639839.8999999911,639839.6999999881,,639839.1999999881,,639849.179,8,400,,,
sequence,flow.Sequence,4_45,2023-09-08T19:57:02.457Z,,0,,,4207.4149999880465,completion,,,,,false,,,,639840.1999999881,639839.6999999881,635615.909,635620.8999999911,635632.285,639849.179,8,400,,,
trial,html.Screen,4_46_0,2023-09-08T19:57:07.618Z,,0,1,,5151.320999999996,response,ISIC_0013618.JPG,8,ISIC_0063980.JPG,ISIC_0013618.JPG,false,1,keypress(m),500,645001,645000.5,639832.943,639840.5,639849.179,645016.229,8,400,47,,ISIC_0063980.JPG
break,html.Screen,4_46_1,2023-09-08T19:57:07.620Z,,0,,,NaN,,,,,,false,,,,645003.5,645003,,645001.3999999911,,645016.229,8,400,,,
break_continue,html.Screen,4_46_2,2023-09-08T19:57:07.622Z,,0,,,NaN,,,,,,false,,,,645004.6999999881,645004.3999999911,,645003.8999999911,,645016.229,8,400,,,
sequence,flow.Sequence,4_46,2023-09-08T19:57:07.622Z,,0,,,5155.220999991056,completion,,,,,false,,,,645004.8999999911,645004.3999999911,639832.943,639840.3999999911,639849.179,645016.229,8,400,,,
trial,html.Screen,4_47_0,2023-09-08T19:57:10.735Z,,0,1,,3101.970999988029,response,ISIC_6773367.JPG,5,ISIC_0080539.JPG,ISIC_6773367.JPG,false,1,keypress(m),500,648118.5,648118.1999999881,644999.732,645005,645016.229,648133.089,8,400,48,,ISIC_0080539.JPG
break,html.Screen,4_47_1,2023-09-08T19:57:10.737Z,,0,,,NaN,,,,,,false,,,,648120.5,648120.099999994,,648118.8999999911,,648133.089,8,400,,,
break_continue,html.Screen,4_47_2,2023-09-08T19:57:10.738Z,,0,,,NaN,,,,,,false,,,,648121.5,648121.299999997,,648120.8999999911,,648133.089,8,400,,,
sequence,flow.Sequence,4_47,2023-09-08T19:57:10.741Z,,0,,,3105.0709999969695,completion,,,,,false,,,,648123.8999999911,648121.299999997,644999.732,645004.8999999911,645016.229,648133.089,8,400,,,
trial,html.Screen,4_48_0,2023-09-08T19:57:19.386Z,,0,1,,8636.110999988043,response,ISIC_0000538.JPG,6,ISIC_9210086.JPG,ISIC_9210086.JPG,false,0,keypress(z),500,656769.599999994,656769.1999999881,648116.605,648124.1999999881,648133.089,656783.586,8,400,49,,ISIC_0000538.JPG
break,html.Screen,4_48_1,2023-09-08T19:57:19.388Z,,0,,,NaN,,,,,,false,,,,656771.599999994,656771.099999994,,656769.8999999911,,656783.586,8,400,,,
break_continue,html.Screen,4_48_2,2023-09-08T19:57:19.389Z,,0,,,NaN,,,,,,false,,,,656772.5,656772.299999997,,656771.8999999911,,656783.586,8,400,,,
sequence,flow.Sequence,4_48,2023-09-08T19:57:19.390Z,,0,,,8639.210999996983,completion,,,,,false,,,,656772.8999999911,656772.299999997,648116.605,648124.099999994,648133.089,656783.586,8,400,,,
trial,html.Screen,4_49_0,2023-09-08T19:57:30.133Z,,0,1,,10732.41399999999,response,ISIC_0058151.JPG,9,ISIC_0014486.JPG,ISIC_0058151.JPG,false,1,keypress(m),500,667516.099999994,667516,656767.225,656773.099999994,656783.586,667539.761,8,400,50,,ISIC_0014486.JPG
break,html.Screen,4_49_1,2023-09-08T19:57:40.137Z,,0,,,9995.173999999999,timeout,,,,,false,,,,677519.8999999911,677518.626,667500.934,667516.299999997,667539.761,677534.935,8,400,,,
break_continue,html.Screen,4_49_2,2023-09-08T19:57:42.517Z,,0,,,2344.564999999944,response,,,,,false,continue,keypress(Space),,679900.1999999881,679879.5,677518.626,677520.099999994,677534.935,679923.998,8,400,,,
sequence,flow.Sequence,4_49,2023-09-08T19:57:42.517Z,,0,,,23095.91399999999,completion,,,,,false,,,,679900.3999999911,679879.5,656767.225,656773,656783.586,679923.998,8,400,,,
trial,html.Screen,4_50_0,2023-09-08T19:57:47.739Z,,0,2,,5197.701999988058,response,ISIC_9058340.JPG,4,ISIC_9048192.JPG,ISIC_9058340.JPG,false,1,keypress(m),500,685122.099999994,685121.6999999881,679885.17,679900.5,679923.998,685135.503,8,400,1,,ISIC_9048192.JPG
break,html.Screen,4_50_1,2023-09-08T19:57:47.741Z,,0,,,NaN,,,,,,false,,,,685124.099999994,685123.6999999881,,685122.5,,685135.503,8,400,,,
break_continue,html.Screen,4_50_2,2023-09-08T19:57:47.742Z,,0,,,NaN,,,,,,false,,,,685125,685124.6999999881,,685124.3999999911,,685135.503,8,400,,,
sequence,flow.Sequence,4_50,2023-09-08T19:57:47.742Z,,0,,,5200.701999988058,completion,,,,,false,,,,685125.3999999911,685124.6999999881,679885.17,679900.5,679923.998,685135.503,8,400,,,
trial,html.Screen,4_51_0,2023-09-08T19:57:52.548Z,,0,2,,4795.696999988053,response,ISIC_1860707.JPG,6,ISIC_6756517.JPG,ISIC_1860707.JPG,false,1,keypress(m),500,689931.599999994,689931.1999999881,685118.885,685125.599999994,685135.503,689935.802,8,400,2,,ISIC_6756517.JPG
break,html.Screen,4_51_1,2023-09-08T19:57:52.550Z,,0,,,NaN,,,,,,false,,,,689933.6999999881,689933.1999999881,,689932,,689935.802,8,400,,,
break_continue,html.Screen,4_51_2,2023-09-08T19:57:52.551Z,,0,,,NaN,,,,,,false,,,,689934.3999999911,689934.1999999881,,689933.8999999911,,689935.802,8,400,,,
sequence,flow.Sequence,4_51,2023-09-08T19:57:52.551Z,,0,,,4798.696999988053,completion,,,,,false,,,,689934.799999997,689934.1999999881,685118.885,685125.599999994,685135.503,689935.802,8,400,,,
trial,html.Screen,4_52_0,2023-09-08T19:57:55.790Z,,0,2,,3236.697999999975,response,ISIC_0031877.JPG,11,ISIC_0032044.JPG,ISIC_0031877.JPG,false,1,keypress(m),500,693173,693172.5,689919.151,689935.099999994,689935.802,693185.874,8,400,3,,ISIC_0032044.JPG
break,html.Screen,4_52_1,2023-09-08T19:57:55.792Z,,0,,,NaN,,,,,,false,,,,693175.1999999881,693174.599999994,,693173.3999999911,,693185.874,8,400,,,
break_continue,html.Screen,4_52_2,2023-09-08T19:57:55.793Z,,0,,,NaN,,,,,,false,,,,693176,693175.799999997,,693175.3999999911,,693185.874,8,400,,,
sequence,flow.Sequence,4_52,2023-09-08T19:57:55.793Z,,0,,,3239.9979999969946,completion,,,,,false,,,,693176.599999994,693175.799999997,689919.151,689935,689935.802,693185.874,8,400,,,
trial,html.Screen,4_53_0,2023-09-08T19:58:00.084Z,,0,2,,4281.325999988127,response,ISIC_0013079.JPG,5,ISIC_7334117.JPG,ISIC_0013079.JPG,false,1,keypress(m),500,697467.5,697467.1999999881,693169.531,693176.8999999911,693185.874,697469.571,8,400,4,,ISIC_7334117.JPG
break,html.Screen,4_53_1,2023-09-08T19:58:00.085Z,,0,,,NaN,,,,,,false,,,,697468.599999994,697468.3999999911,,697467.799999997,,697469.571,8,400,,,
break_continue,html.Screen,4_53_2,2023-09-08T19:58:00.086Z,,0,,,NaN,,,,,,false,,,,697469,697469,,697468.799999997,,697469.571,8,400,,,
sequence,flow.Sequence,4_53,2023-09-08T19:58:00.086Z,,0,,,4283.1260000000475,completion,,,,,false,,,,697469.1999999881,697469,693169.531,693176.799999997,693185.874,697469.571,8,400,,,
trial,html.Screen,4_54_0,2023-09-08T19:58:11.572Z,,0,2,,11517.667999999947,timeout,ISIC_0055404.JPG,9,ISIC_0024258.JPG,,false,,,500,708955.5,708955,697452.872,697469.299999997,697469.571,708987.239,8,400,5,,
break,html.Screen,4_54_1,2023-09-08T19:58:11.574Z,,0,,,NaN,,,,,,false,,,,708957,708956.5,,708955.6999999881,,708987.239,8,400,,,
break_continue,html.Screen,4_54_2,2023-09-08T19:58:11.575Z,,0,,,NaN,,,,,,false,,,,708957.8999999911,708957.599999994,,708957.299999997,,708987.239,8,400,,,
sequence,flow.Sequence,4_54,2023-09-08T19:58:11.575Z,,0,,,11488.028999994043,completion,,,,,false,,,,708958.299999997,708957.599999994,697452.872,697469.299999997,697469.571,708987.239,8,400,,,
trial,html.Screen,4_55_0,2023-09-08T19:58:23.161Z,,0,2,,1708058.309,timeout,ISIC_0025589.JPG,9,ISIC_7022381.JPG,,false,,,500,720544.3999999911,720544.099999994,708970.557,708958.6999999881,708987.239,2417045.548,8,400,6,,
break,html.Screen,4_55_1,2023-09-08T19:58:23.163Z,,0,,,NaN,,,,,,false,,,,720546,720545.599999994,,720544.599999994,,2417045.548,8,400,,,
break_continue,html.Screen,4_55_2,2023-09-08T19:58:23.164Z,,0,,,NaN,,,,,,false,,,,720546.8999999911,720546.599999994,,720546.1999999881,,2417045.548,8,400,,,
sequence,flow.Sequence,4_55,2023-09-08T19:58:23.164Z,,0,,,11559.360999994096,completion,,,,,false,,,,720547.1999999881,720546.599999994,708970.557,708958.6999999881,708987.239,2417045.548,8,400,,,