sender,sender_type,sender_id,timestamp,meta,,blockNo,condition,duration,ended_on,img_left,img_reveal,img_right,loser,practice,response,response_action,selection_duration,time_commit,time_end,time_render,time_run,time_show,time_switch,total_blocks,total_trials,trialNo,url,winner
informed_consent,html.Screen,0,2023-09-18T01:09:40.747Z,"{""labjs_version"":""20.2.4"",""labjs_build"":{""flavor"":""production"",""commit"":""f5b4a49f956347addd546a832a3327688c2c0fef""},""location"":""https://run.pavlovia.org/MurrayBennett/melanoma-2afc/?participant=67268&platform=sona"",""userAgent"":""Mozilla/5.0 (Windows NT 10.0; Win64; x64) AppleWebKit/537.36 (KHTML, like Gecko) Chrome/116.0.0.0 Safari/537.36 Edg/116.0.1938.81"",""platform"":""Win32"",""language"":""en-US"",""locale"":""en-US"",""timeZone"":""America/Chicago"",""timezoneOffset"":300,""screen_width"":1368,""screen_height"":912,""scroll_width"":1265,""scroll_height"":753,""window_innerWidth"":1265,""window_innerHeight"":801,""devicePixelRatio"":2}",,,,17247.629,response,,,,,,consent,click button,,19438.60000000894,19437,1589.493,2170.6000000089407,2189.371,19470.542,,,,"{""participant"":""67268"",""platform"":""sona""}",
Welcome,html.Screen,1,2023-09-18T01:10:27.876Z,,,,uniform,47095.05800000894,response,,,,,,continue,click button,,66566.79999999702,66565.60000000894,19453.811,19438.79999999702,19470.542,66581.019,,,,,
trial,html.Screen,2_0_0,2023-09-18T01:10:36.361Z,,0,0,,8469.981,response,ISIC_0063388.JPG,,ISIC_0025593.JPG,ISIC_0025593.JPG,true,0,keypress(z),500,75052,75051,66564.244,66567,66581.019,75062.895,1,6,1,,ISIC_0063388.JPG
sequence,flow.Sequence,2_0,2023-09-18T01:10:36.362Z,,0,,,8469.981,completion,,,,,true,,,,75053.20000000298,75051,66564.244,66567,66581.019,75062.895,1,6,,,
trial,html.Screen,2_1_0,2023-09-18T01:10:43.535Z,,0,0,,7162.505000005956,response,ISIC_1309015.JPG,,ISIC_0028178.JPG,ISIC_1309015.JPG,true,1,keypress(m),500,82226.20000000298,82225.40000000596,75046.283,75053.79999999702,75062.895,82245.314,1,6,2,,ISIC_0028178.JPG
sequence,flow.Sequence,2_1,2023-09-18T01:10:43.536Z,,0,,,7162.505000005956,completion,,,,,true,,,,82227.5,82225.40000000596,75046.283,75053.60000000894,75062.895,82245.314,1,6,,,
trial,html.Screen,2_2_0,2023-09-18T01:10:47.317Z,,0,0,,3761.786000008942,response,ISIC_0031128.JPG,,ISIC_3314853.JPG,ISIC_0031128.JPG,true,1,keypress(m),500,86008,86007.10000000894,82228.691,82228.40000000596,82245.314,86029.104,1,6,3,,ISIC_3314853.JPG
sequence,flow.Sequence,2_2,2023-09-18T01:10:47.318Z,,0,,,3761.786000008942,completion,,,,,true,,,,86008.79999999702,86007.10000000894,82228.691,82228.10000000894,82245.314,86029.104,1,6,,,
trial,html.Screen,2_3_0,2023-09-18T01:10:50.426Z,,0,0,,3087.496000008934,response,ISIC_8980141.JPG,,ISIC_0031612.JPG,ISIC_0031612.JPG,true,0,keypress(z),500,89117.29999999702,89116.60000000894,85995.175,86009.5,86029.104,89127.872,1,6,4,,ISIC_8980141.JPG
sequence,flow.Sequence,2_3,2023-09-18T01:10:50.427Z,,0,,,3087.496000008934,completion,,,,,true,,,,89118.29999999702,89116.60000000894,85995.175,86009.29999999702,86029.104,89127.872,1,6,,,
trial,html.Screen,2_4_0,2023-09-18T01:10:54.918Z,,0,0,,4481.228000008938,response,ISIC_9721604.JPG,,ISIC_1197737.JPG,ISIC_1197737.JPG,true,0,keypress(z),500,93609.29999999702,93609.10000000894,89111.374,89118.90000000596,89127.872,93628.381,1,6,5,,ISIC_9721604.JPG
sequence,flow.Sequence,2_4,2023-09-18T01:10:54.918Z,,0,,,4481.228000008938,completion,,,,,true,,,,93609.5,93609.10000000894,89111.374,89118.70000000298,89127.872,93628.381,1,6,,,
trial,html.Screen,2_5_0,2023-09-18T01:11:00.265Z,,0,0,,5327.0190000059665,response,ISIC_0010681.JPG,,ISIC_0025346.JPG,ISIC_0025346.JPG,true,0,keypress(z),500,98956.20000000298,98955.40000000596,93594.083,93609.60000000894,93628.381,98977.241,1,6,6,,ISIC_0010681.JPG
sequence,flow.Sequence,2_5,2023-09-18T01:11:00.266Z,,0,,,5327.0190000059665,completion,,,,,true,,,,98957.10000000894,98955.40000000596,93594.083,93609.60000000894,93628.381,98977.241,1,6,,,
loop,flow.Loop,2,2023-09-18T01:11:00.267Z,,,,,32374.38100000596,completion,,,,,true,,,,98957.70000000298,98955.40000000596,66564.244,66567,66581.019,98977.241,1,6,,,
exp_instructions,html.Screen,3,2023-09-18T01:11:42.975Z,,,,,42687.859000008946,response,,,,,,continue,keypress(Space),,141665.79999999702,141665.10000000894,98943.3,98958.10000000894,98977.241,141670.618,,,,,
trial,html.Screen,4_0_0,2023-09-18T01:11:48.984Z,,0,1,,6004.681999997032,response,ISIC_6739241.JPG,5,ISIC_6828892.JPG,ISIC_6828892.JPG,false,0,keypress(z),500,147675.29999999702,147675.29999999702,141653.328,141666,141670.618,147686.64,8,400,1,,ISIC_6739241.JPG
break,html.Screen,4_0_1,2023-09-18T01:11:48.985Z,,0,,,NaN,,,,,,false,,,,147676.10000000894,147675.90000000596,,147675.5,,147686.64,8,400,,,
break_continue,html.Screen,4_0_2,2023-09-18T01:11:48.985Z,,0,,,NaN,,,,,,false,,,,147676.40000000596,147676.29999999702,,147676.20000000298,,147686.64,8,400,,,
sequence,flow.Sequence,4_0,2023-09-18T01:11:48.985Z,,0,,,6005.681999997032,completion,,,,,false,,,,147676.5,147676.29999999702,141653.328,141666,141670.618,147686.64,8,400,,,
trial,html.Screen,4_1_0,2023-09-18T01:11:53.713Z,,0,1,,4717.2600000059465,response,ISIC_7176034.JPG,5,ISIC_7904250.JPG,ISIC_7904250.JPG,false,0,keypress(z),500,152404.5,152403.90000000596,147669.857,147676.60000000894,147686.64,152419.264,8,400,2,,ISIC_7176034.JPG
break,html.Screen,4_1_1,2023-09-18T01:11:53.716Z,,0,,,NaN,,,,,,false,,,,152406.79999999702,152405.90000000596,,152405,,152419.264,8,400,,,
break_continue,html.Screen,4_1_2,2023-09-18T01:11:53.717Z,,0,,,NaN,,,,,,false,,,,152407.90000000596,152407.5,,152407.20000000298,,152419.264,8,400,,,
sequence,flow.Sequence,4_1,2023-09-18T01:11:53.717Z,,0,,,4720.859999999986,completion,,,,,false,,,,152408.5,152407.5,147669.857,147676.5,147686.64,152419.264,8,400,,,
trial,html.Screen,4_2_0,2023-09-18T01:11:59.082Z,,0,1,,5353.336000008945,response,ISIC_6111078.JPG,5,ISIC_6471212.JPG,ISIC_6111078.JPG,false,1,keypress(m),500,157773.10000000894,157772.60000000894,152402.771,152408.79999999702,152419.264,157785.27,8,400,3,,ISIC_6471212.JPG
break,html.Screen,4_2_1,2023-09-18T01:11:59.084Z,,0,,,NaN,,,,,,false,,,,157775.20000000298,157774.5,,157773.60000000894,,157785.27,8,400,,,
break_continue,html.Screen,4_2_2,2023-09-18T01:11:59.084Z,,0,,,NaN,,,,,,false,,,,157775.60000000894,157775.40000000596,,157775.40000000596,,157785.27,8,400,,,
sequence,flow.Sequence,4_2,2023-09-18T01:11:59.085Z,,0,,,5356.136000005965,completion,,,,,false,,,,157775.70000000298,157775.40000000596,152402.771,152408.70000000298,152419.264,157785.27,8,400,,,
trial,html.Screen,4_3_0,2023-09-18T01:12:03.950Z,,0,1,,4855.830000008951,response,ISIC_0033954.JPG,6,ISIC_0061516.JPG,ISIC_0061516.JPG,false,0,keypress(z),500,162641.5,162641.10000000894,157768.619,157775.79999999702,157785.27,162651.2,8,400,4,,ISIC_0033954.JPG
break,html.Screen,4_3_1,2023-09-18T01:12:03.953Z,,0,,,NaN,,,,,,false,,,,162644.10000000894,162643.20000000298,,162642,,162651.2,8,400,,,
break_continue,html.Screen,4_3_2,2023-09-18T01:12:03.954Z,,0,,,NaN,,,,,,false,,,,162645.20000000298,162644.90000000596,,162644.40000000596,,162651.2,8,400,,,
sequence,flow.Sequence,4_3,2023-09-18T01:12:03.955Z,,0,,,4859.630000005971,completion,,,,,false,,,,162645.70000000298,162644.90000000596,157768.619,157775.79999999702,157785.27,162651.2,8,400,,,
trial,html.Screen,4_4_0,2023-09-18T01:12:09.052Z,,0,1,,5091.099999997008,response,ISIC_0011701.JPG,6,ISIC_5923430.JPG,ISIC_0011701.JPG,false,1,keypress(m),500,167742.90000000596,167742.29999999702,162634.875,162646,162651.2,167767.367,8,400,5,,ISIC_5923430.JPG
break,html.Screen,4_4_1,2023-09-18T01:12:09.053Z,,0,,,NaN,,,,,,false,,,,167744.60000000894,167744.10000000894,,167743.40000000596,,167767.367,8,400,,,
break_continue,html.Screen,4_4_2,2023-09-18T01:12:09.054Z,,0,,,NaN,,,,,,false,,,,167745.60000000894,167745.29999999702,,167744.90000000596,,167767.367,8,400,,,
sequence,flow.Sequence,4_4,2023-09-18T01:12:09.055Z,,0,,,5094.099999997008,completion,,,,,false,,,,167746.10000000894,167745.29999999702,162634.875,162646,162651.2,167767.367,8,400,,,
trial,html.Screen,4_5_0,2023-09-18T01:12:15.685Z,,0,1,,6607.932999997021,response,ISIC_8692155.JPG,5,ISIC_8692950.JPG,ISIC_8692950.JPG,false,0,keypress(z),500,174375.70000000298,174375.29999999702,167750.874,167746.5,167767.367,174382.937,8,400,6,,ISIC_8692155.JPG
break,html.Screen,4_5_1,2023-09-18T01:12:15.687Z,,0,,,NaN,,,,,,false,,,,174378.10000000894,174377.29999999702,,174376.40000000596,,174382.937,8,400,,,
break_continue,html.Screen,4_5_2,2023-09-18T01:12:15.688Z,,0,,,NaN,,,,,,false,,,,174379.40000000596,174379,,174378.60000000894,,174382.937,8,400,,,
sequence,flow.Sequence,4_5,2023-09-18T01:12:15.689Z,,0,,,6611.633000000002,completion,,,,,false,,,,174379.90000000596,174379,167750.874,167746.40000000596,167767.367,174382.937,8,400,,,
trial,html.Screen,4_6_0,2023-09-18T01:12:20.292Z,,0,1,,4599.463000005955,response,ISIC_0071338.JPG,6,ISIC_0011238.JPG,ISIC_0011238.JPG,false,0,keypress(z),500,178982.79999999702,178982.40000000596,174366.586,174380.29999999702,174382.937,178999.005,8,400,7,,ISIC_0071338.JPG
break,html.Screen,4_6_1,2023-09-18T01:12:20.294Z,,0,,,NaN,,,,,,false,,,,178985.20000000298,178984.29999999702,,178983.40000000596,,178999.005,8,400,,,
break_continue,html.Screen,4_6_2,2023-09-18T01:12:20.295Z,,0,,,NaN,,,,,,false,,,,178986.29999999702,178985.90000000596,,178985.60000000894,,178999.005,8,400,,,
sequence,flow.Sequence,4_6,2023-09-18T01:12:20.296Z,,0,,,4602.963000005955,completion,,,,,false,,,,178986.79999999702,178985.90000000596,174366.586,174380.10000000894,174382.937,178999.005,8,400,,,
trial,html.Screen,4_7_0,2023-09-18T01:12:28.013Z,,0,1,,7705.195000002976,response,ISIC_0059350.JPG,6,ISIC_4081632.JPG,ISIC_4081632.JPG,false,0,keypress(z),500,186704.70000000298,186704.20000000298,178982.45,178987.10000000894,178999.005,186714.569,8,400,8,,ISIC_0059350.JPG
break,html.Screen,4_7_1,2023-09-18T01:12:28.016Z,,0,,,NaN,,,,,,false,,,,186707.20000000298,186706.20000000298,,186705.29999999702,,186714.569,8,400,,,
break_continue,html.Screen,4_7_2,2023-09-18T01:12:28.017Z,,0,,,NaN,,,,,,false,,,,186708.20000000298,186707.90000000596,,186707.5,,186714.569,8,400,,,
sequence,flow.Sequence,4_7,2023-09-18T01:12:28.017Z,,0,,,7708.895000005956,completion,,,,,false,,,,186708.60000000894,186707.90000000596,178982.45,178987,178999.005,186714.569,8,400,,,
trial,html.Screen,4_8_0,2023-09-18T01:12:35.189Z,,0,1,,7165.531000008952,response,ISIC_2031626.JPG,5,ISIC_0014973.JPG,ISIC_0014973.JPG,false,0,keypress(z),500,193880.29999999702,193880.10000000894,186697.963,186709,186714.569,193913.612,8,400,9,,ISIC_2031626.JPG
break,html.Screen,4_8_1,2023-09-18T01:12:35.190Z,,0,,,NaN,,,,,,false,,,,193880.79999999702,193880.60000000894,,193880.29999999702,,193913.612,8,400,,,
break_continue,html.Screen,4_8_2,2023-09-18T01:12:35.190Z,,0,,,NaN,,,,,,false,,,,193881.10000000894,193881.10000000894,,193881,,193913.612,8,400,,,
sequence,flow.Sequence,4_8,2023-09-18T01:12:35.190Z,,0,,,7166.531000008952,completion,,,,,false,,,,193881.20000000298,193881.10000000894,186697.963,186708.90000000596,186714.569,193913.612,8,400,,,
trial,html.Screen,4_9_0,2023-09-18T01:12:41.783Z,,0,1,,6560.988000008947,response,ISIC_0058501.JPG,5,ISIC_5629390.JPG,ISIC_0058501.JPG,false,1,keypress(m),500,200474.79999999702,200474.60000000894,193897.406,193881.29999999702,193913.612,200479.385,8,400,10,,ISIC_5629390.JPG
break,html.Screen,4_9_1,2023-09-18T01:12:41.784Z,,0,,,NaN,,,,,,false,,,,200475.29999999702,200475.10000000894,,200474.90000000596,,200479.385,8,400,,,
break_continue,html.Screen,4_9_2,2023-09-18T01:12:41.784Z,,0,,,NaN,,,,,,false,,,,200475.60000000894,200475.5,,200475.40000000596,,200479.385,8,400,,,
sequence,flow.Sequence,4_9,2023-09-18T01:12:41.784Z,,0,,,6561.888000000006,completion,,,,,false,,,,200475.70000000298,200475.5,193897.406,193881.29999999702,193913.612,200479.385,8,400,,,
trial,html.Screen,4_10_0,2023-09-18T01:12:45.934Z,,0,1,,4145.114999999991,response,ISIC_0028126.JPG,5,ISIC_3736075.JPG,ISIC_0028126.JPG,false,1,keypress(m),500,204625,204624.5,200462.813,200475.70000000298,200479.385,204628.99,8,400,11,,ISIC_3736075.JPG
break,html.Screen,4_10_1,2023-09-18T01:12:45.936Z,,0,,,NaN,,,,,,false,,,,204627.5,204626.60000000894,,204625.70000000298,,204628.99,8,400,,,
break_continue,html.Screen,4_10_2,2023-09-18T01:12:45.937Z,,0,,,NaN,,,,,,false,,,,204628.60000000894,204628.20000000298,,204627.79999999702,,204628.99,8,400,,,
sequence,flow.Sequence,4_10,2023-09-18T01:12:45.938Z,,0,,,4148.815000002971,completion,,,,,false,,,,204629.10000000894,204628.20000000298,200462.813,200475.70000000298,200479.385,204628.99,8,400,,,
trial,html.Screen,4_11_0,2023-09-18T01:12:51.181Z,,0,1,,5243.11000000895,response,ISIC_0012382.JPG,5,ISIC_7565128.JPG,ISIC_0012382.JPG,false,1,keypress(m),500,209872.20000000298,209872.10000000894,204612.582,204629.79999999702,204628.99,209878.114,8,400,12,,ISIC_7565128.JPG
break,html.Screen,4_11_1,2023-09-18T01:12:51.181Z,,0,,,NaN,,,,,,false,,,,209872.79999999702,209872.5,,209872.40000000596,,209878.114,8,400,,,
break_continue,html.Screen,4_11_2,2023-09-18T01:12:51.182Z,,0,,,NaN,,,,,,false,,,,209873.10000000894,209873,,209872.90000000596,,209878.114,8,400,,,
sequence,flow.Sequence,4_11,2023-09-18T01:12:51.182Z,,0,,,5244.010000000009,completion,,,,,false,,,,209873.40000000596,209873,204612.582,204629.70000000298,204628.99,209878.114,8,400,,,
trial,html.Screen,4_12_0,2023-09-18T01:12:56.626Z,,0,1,,5439.086000002979,response,ISIC_0055311.JPG,5,ISIC_1806179.JPG,ISIC_0055311.JPG,false,1,keypress(m),500,215317.70000000298,215317.20000000298,209861.83,209873.60000000894,209878.114,215327.406,8,400,13,,ISIC_1806179.JPG
break,html.Screen,4_12_1,2023-09-18T01:12:56.629Z,,0,,,NaN,,,,,,false,,,,215320.10000000894,215319.20000000298,,215318.29999999702,,215327.406,8,400,,,
break_continue,html.Screen,4_12_2,2023-09-18T01:12:56.630Z,,0,,,NaN,,,,,,false,,,,215321.29999999702,215320.90000000596,,215320.40000000596,,215327.406,8,400,,,
sequence,flow.Sequence,4_12,2023-09-18T01:12:56.631Z,,0,,,5442.786000005959,completion,,,,,false,,,,215321.90000000596,215320.90000000596,209861.83,209873.60000000894,209878.114,215327.406,8,400,,,
trial,html.Screen,4_13_0,2023-09-18T01:13:00.722Z,,0,1,,4084.9940000059723,response,ISIC_4980328.JPG,5,ISIC_1175291.JPG,ISIC_4980328.JPG,false,1,keypress(m),500,219412.79999999702,219412.40000000596,215311.156,215322.40000000596,215327.406,219426.854,8,400,14,,ISIC_1175291.JPG
break,html.Screen,4_13_1,2023-09-18T01:13:00.724Z,,0,,,NaN,,,,,,false,,,,219415.40000000596,219414.40000000596,,219413.60000000894,,219426.854,8,400,,,
break_continue,html.Screen,4_13_2,2023-09-18T01:13:00.725Z,,0,,,NaN,,,,,,false,,,,219416.40000000596,219416.10000000894,,219415.70000000298,,219426.854,8,400,,,
sequence,flow.Sequence,4_13,2023-09-18T01:13:00.726Z,,0,,,4088.6940000089526,completion,,,,,false,,,,219417,219416.10000000894,215311.156,215322.29999999702,215327.406,219426.854,8,400,,,
trial,html.Screen,4_14_0,2023-09-18T01:13:05.145Z,,0,1,,4409.246000008949,response,ISIC_0325771.JPG,5,ISIC_0033512.JPG,ISIC_0033512.JPG,false,0,keypress(z),500,223836.70000000298,223836.10000000894,219410.46,219417.40000000596,219426.854,223842.986,8,400,15,,ISIC_0325771.JPG
break,html.Screen,4_14_1,2023-09-18T01:13:05.148Z,,0,,,NaN,,,,,,false,,,,223839.10000000894,223838.20000000298,,223837.40000000596,,223842.986,8,400,,,
break_continue,html.Screen,4_14_2,2023-09-18T01:13:05.149Z,,0,,,NaN,,,,,,false,,,,223840.20000000298,223839.90000000596,,223839.5,,223842.986,8,400,,,
sequence,flow.Sequence,4_14,2023-09-18T01:13:05.149Z,,0,,,4413.046000005968,completion,,,,,false,,,,223840.70000000298,223839.90000000596,219410.46,219417.29999999702,219426.854,223842.986,8,400,,,
trial,html.Screen,4_15_0,2023-09-18T01:13:10.129Z,,0,1,,4976.813999997015,response,ISIC_0054395.JPG,5,ISIC_7438013.JPG,ISIC_0054395.JPG,false,1,keypress(m),500,228820.40000000596,228819.79999999702,223826.675,223841.10000000894,223842.986,228825.597,8,400,16,,ISIC_7438013.JPG
break,html.Screen,4_15_1,2023-09-18T01:13:10.131Z,,0,,,NaN,,,,,,false,,,,228822.70000000298,228821.79999999702,,228821.10000000894,,228825.597,8,400,,,
break_continue,html.Screen,4_15_2,2023-09-18T01:13:10.133Z,,0,,,NaN,,,,,,false,,,,228823.79999999702,228823.5,,228823.10000000894,,228825.597,8,400,,,
sequence,flow.Sequence,4_15,2023-09-18T01:13:10.133Z,,0,,,4980.513999999996,completion,,,,,false,,,,228824.40000000596,228823.5,223826.675,223841,223842.986,228825.597,8,400,,,
trial,html.Screen,4_16_0,2023-09-18T01:13:16.605Z,,0,1,,6469.803000005952,response,ISIC_0033393.JPG,5,ISIC_0016112.JPG,ISIC_0033393.JPG,false,1,keypress(m),500,235296.10000000894,235295.40000000596,228809.244,228824.70000000298,228825.597,235308.391,8,400,17,,ISIC_0016112.JPG
break,html.Screen,4_16_1,2023-09-18T01:13:16.607Z,,0,,,NaN,,,,,,false,,,,235298.5,235297.60000000894,,235296.70000000298,,235308.391,8,400,,,
break_continue,html.Screen,4_16_2,2023-09-18T01:13:16.608Z,,0,,,NaN,,,,,,false,,,,235299.60000000894,235299.20000000298,,235298.79999999702,,235308.391,8,400,,,
sequence,flow.Sequence,4_16,2023-09-18T01:13:16.609Z,,0,,,6473.603000002971,completion,,,,,false,,,,235300.10000000894,235299.20000000298,228809.244,228824.60000000894,228825.597,235308.391,8,400,,,
trial,html.Screen,4_17_0,2023-09-18T01:13:20.165Z,,0,1,,3547.009000005957,response,ISIC_6512653.JPG,6,ISIC_0071040.JPG,ISIC_0071040.JPG,false,0,keypress(z),500,238855.90000000596,238855.40000000596,235291.496,235300.5,235308.391,238874.255,8,400,18,,ISIC_6512653.JPG
break,html.Screen,4_17_1,2023-09-18T01:13:20.167Z,,0,,,NaN,,,,,,false,,,,238858.10000000894,238857.29999999702,,238856.40000000596,,238874.255,8,400,,,
break_continue,html.Screen,4_17_2,2023-09-18T01:13:20.168Z,,0,,,NaN,,,,,,false,,,,238859.29999999702,238859,,238858.60000000894,,238874.255,8,400,,,
sequence,flow.Sequence,4_17,2023-09-18T01:13:20.169Z,,0,,,3550.6089999999967,completion,,,,,false,,,,238859.90000000596,238859,235291.496,235300.40000000596,235308.391,238874.255,8,400,,,
trial,html.Screen,4_18_0,2023-09-18T01:13:26.974Z,,0,1,,6790.645000005956,response,ISIC_0059943.JPG,5,ISIC_0034260.JPG,ISIC_0059943.JPG,false,1,keypress(m),500,245665.40000000596,245664.90000000596,238857.697,238860.29999999702,238874.255,245673.331,8,400,19,,ISIC_0034260.JPG
break,html.Screen,4_18_1,2023-09-18T01:13:26.977Z,,0,,,NaN,,,,,,false,,,,245667.90000000596,245666.79999999702,,245666,,245673.331,8,400,,,
break_continue,html.Screen,4_18_2,2023-09-18T01:13:26.978Z,,0,,,NaN,,,,,,false,,,,245669,245668.70000000298,,245668.29999999702,,245673.331,8,400,,,
sequence,flow.Sequence,4_18,2023-09-18T01:13:26.978Z,,0,,,6794.445000002976,completion,,,,,false,,,,245669.5,245668.70000000298,238857.697,238860.20000000298,238874.255,245673.331,8,400,,,
trial,html.Screen,4_19_0,2023-09-18T01:13:33.430Z,,0,1,,6447.769000008935,response,ISIC_0011057.JPG,6,ISIC_3012778.JPG,ISIC_0011057.JPG,false,1,keypress(m),500,252121.29999999702,252121.10000000894,245656.823,245669.90000000596,245673.331,252140.352,8,400,20,,ISIC_3012778.JPG
break,html.Screen,4_19_1,2023-09-18T01:13:33.431Z,,0,,,NaN,,,,,,false,,,,252122,252121.60000000894,,252121.40000000596,,252140.352,8,400,,,
break_continue,html.Screen,4_19_2,2023-09-18T01:13:33.431Z,,0,,,NaN,,,,,,false,,,,252122.29999999702,252122.20000000298,,252122.10000000894,,252140.352,8,400,,,
sequence,flow.Sequence,4_19,2023-09-18T01:13:33.431Z,,0,,,6448.869000002975,completion,,,,,false,,,,252122.40000000596,252122.20000000298,245656.823,245669.79999999702,245673.331,252140.352,8,400,,,
trial,html.Screen,4_20_0,2023-09-18T01:13:43.129Z,,0,1,,9679.248000008927,response,ISIC_0010791.JPG,6,ISIC_6588853.JPG,ISIC_6588853.JPG,false,0,keypress(z),500,261820.29999999702,261819.60000000894,252106.173,252122.40000000596,252140.352,261837.98,8,400,21,,ISIC_0010791.JPG
break,html.Screen,4_20_1,2023-09-18T01:13:43.131Z,,0,,,NaN,,,,,,false,,,,261822.60000000894,261821.79999999702,,261820.90000000596,,261837.98,8,400,,,
break_continue,html.Screen,4_20_2,2023-09-18T01:13:43.132Z,,0,,,NaN,,,,,,false,,,,261823.60000000894,261823.29999999702,,261823,,261837.98,8,400,,,
sequence,flow.Sequence,4_20,2023-09-18T01:13:43.133Z,,0,,,9682.947999997006,completion,,,,,false,,,,261824.10000000894,261823.29999999702,252106.173,252122.40000000596,252140.352,261837.98,8,400,,,
trial,html.Screen,4_21_0,2023-09-18T01:13:47.855Z,,0,1,,4708.0199999999895,response,ISIC_0012708.JPG,5,ISIC_2771979.JPG,ISIC_0012708.JPG,false,1,keypress(m),500,266546.60000000894,266546,261821.279,261824.5,261837.98,266554.011,8,400,22,,ISIC_2771979.JPG
break,html.Screen,4_21_1,2023-09-18T01:13:47.857Z,,0,,,NaN,,,,,,false,,,,266548.700000003,266547.90000000596,,266547.10000000894,,266554.011,8,400,,,
break_continue,html.Screen,4_21_2,2023-09-18T01:13:47.859Z,,0,,,NaN,,,,,,false,,,,266550.40000000596,266550,,266549.60000000894,,266554.011,8,400,,,
sequence,flow.Sequence,4_21,2023-09-18T01:13:47.860Z,,0,,,4712.0199999999895,completion,,,,,false,,,,266550.90000000596,266550,261821.279,261824.40000000596,261837.98,266554.011,8,400,,,
trial,html.Screen,4_22_0,2023-09-18T01:13:52.887Z,,0,1,,5024.288999997021,response,ISIC_7899041.JPG,5,ISIC_4212044.JPG,ISIC_7899041.JPG,false,1,keypress(m),500,271578.799999997,271578.299999997,266537.278,266551.5,266554.011,271586.533,8,400,23,,ISIC_4212044.JPG
break,html.Screen,4_22_1,2023-09-18T01:13:52.893Z,,0,,,NaN,,,,,,false,,,,271584.90000000596,271580.90000000596,,271579.40000000596,,271586.533,8,400,,,
break_continue,html.Screen,4_22_2,2023-09-18T01:13:52.894Z,,0,,,NaN,,,,,,false,,,,271585.10000000894,271585,,271584.90000000596,,271586.533,8,400,,,
sequence,flow.Sequence,4_22,2023-09-18T01:13:52.894Z,,0,,,5030.989000000001,completion,,,,,false,,,,271585.299999997,271585,266537.278,266551.299999997,266554.011,271586.533,8,400,,,
trial,html.Screen,4_23_0,2023-09-18T01:13:57.094Z,,0,1,,4198.967000000004,response,ISIC_7875088.JPG,6,ISIC_6785680.JPG,ISIC_6785680.JPG,false,0,keypress(z),500,275785.60000000894,275785.5,271570.293,271586,271586.533,275803.064,8,400,24,,ISIC_7875088.JPG
break,html.Screen,4_23_1,2023-09-18T01:13:57.095Z,,0,,,NaN,,,,,,false,,,,275786.299999997,275786,,275785.799999997,,275803.064,8,400,,,
break_continue,html.Screen,4_23_2,2023-09-18T01:13:57.095Z,,0,,,NaN,,,,,,false,,,,275786.60000000894,275786.5,,275786.40000000596,,275803.064,8,400,,,
sequence,flow.Sequence,4_23,2023-09-18T01:13:57.095Z,,0,,,4199.967000000004,completion,,,,,false,,,,275786.700000003,275786.5,271570.293,271586,271586.533,275803.064,8,400,,,
trial,html.Screen,4_24_0,2023-09-18T01:14:01.209Z,,0,1,,4096.935999999987,response,ISIC_3077674.JPG,4,ISIC_7210119.JPG,ISIC_7210119.JPG,false,0,keypress(z),500,279900.200000003,279900,275786.033,275786.90000000596,275803.064,279902.03,8,400,25,,ISIC_3077674.JPG
break,html.Screen,4_24_1,2023-09-18T01:14:01.209Z,,0,,,NaN,,,,,,false,,,,279900.90000000596,279900.5,,279900.299999997,,279902.03,8,400,,,
break_continue,html.Screen,4_24_2,2023-09-18T01:14:01.210Z,,0,,,NaN,,,,,,false,,,,279901.10000000894,279901,,279900.90000000596,,279902.03,8,400,,,
sequence,flow.Sequence,4_24,2023-09-18T01:14:01.210Z,,0,,,4097.935999999987,completion,,,,,false,,,,279901.299999997,279901,275786.033,275786.799999997,275803.064,279902.03,8,400,,,
trial,html.Screen,4_25_0,2023-09-18T01:14:04.653Z,,0,1,,3441.5700000089128,response,ISIC_0519719.JPG,5,ISIC_3671963.JPG,ISIC_0519719.JPG,false,1,keypress(m),500,283344.10000000894,283343.60000000894,279885.704,279901.299999997,279902.03,283351.703,8,400,26,,ISIC_3671963.JPG
break,html.Screen,4_25_1,2023-09-18T01:14:04.655Z,,0,,,NaN,,,,,,false,,,,283346.10000000894,283345.200000003,,283344.60000000894,,283351.703,8,400,,,
break_continue,html.Screen,4_25_2,2023-09-18T01:14:04.656Z,,0,,,NaN,,,,,,false,,,,283346.90000000596,283346.60000000894,,283346.40000000596,,283351.703,8,400,,,
sequence,flow.Sequence,4_25,2023-09-18T01:14:04.656Z,,0,,,3444.5700000089128,completion,,,,,false,,,,283347.40000000596,283346.60000000894,279885.704,279901.299999997,279902.03,283351.703,8,400,,,
trial,html.Screen,4_26_0,2023-09-18T01:14:08.932Z,,0,1,,4270.697000005981,response,ISIC_0013316.JPG,6,ISIC_6272501.JPG,ISIC_0013316.JPG,false,1,keypress(m),500,287623,287622.40000000596,283335.101,283347.700000003,283351.703,287634.62,8,400,27,,ISIC_6272501.JPG
break,html.Screen,4_26_1,2023-09-18T01:14:08.934Z,,0,,,NaN,,,,,,false,,,,287625.60000000894,287624.40000000596,,287623.60000000894,,287634.62,8,400,,,
break_continue,html.Screen,4_26_2,2023-09-18T01:14:08.935Z,,0,,,NaN,,,,,,false,,,,287626.60000000894,287626.299999997,,287625.90000000596,,287634.62,8,400,,,
sequence,flow.Sequence,4_26,2023-09-18T01:14:08.936Z,,0,,,4274.59699999704,completion,,,,,false,,,,287627.10000000894,287626.299999997,283335.101,283347.60000000894,283351.703,287634.62,8,400,,,
trial,html.Screen,4_27_0,2023-09-18T01:14:13.819Z,,0,1,,4875.080000002985,response,ISIC_0011264.JPG,5,ISIC_0062770.JPG,ISIC_0011264.JPG,false,1,keypress(m),500,292510.299999997,292509.700000003,287617.818,287627.60000000894,287634.62,292516.996,8,400,28,,ISIC_0062770.JPG
break,html.Screen,4_27_1,2023-09-18T01:14:13.821Z,,0,,,NaN,,,,,,false,,,,292512.90000000596,292511.90000000596,,292510.799999997,,292516.996,8,400,,,
break_continue,html.Screen,4_27_2,2023-09-18T01:14:13.823Z,,0,,,NaN,,,,,,false,,,,292514,292513.60000000894,,292513.200000003,,292516.996,8,400,,,
sequence,flow.Sequence,4_27,2023-09-18T01:14:13.823Z,,0,,,4878.980000008945,completion,,,,,false,,,,292514.200000003,292513.60000000894,287617.818,287627.40000000596,287634.62,292516.996,8,400,,,
trial,html.Screen,4_28_0,2023-09-18T01:14:17.425Z,,0,1,,3599.0040000000154,response,ISIC_8028631.JPG,5,ISIC_9080774.JPG,ISIC_9080774.JPG,false,0,keypress(z),500,296116.299999997,296116,292500.836,292514.200000003,292516.996,296133.607,8,400,29,,ISIC_8028631.JPG
break,html.Screen,4_28_1,2023-09-18T01:14:17.427Z,,0,,,NaN,,,,,,false,,,,296118.40000000596,296117.700000003,,296116.90000000596,,296133.607,8,400,,,
break_continue,html.Screen,4_28_2,2023-09-18T01:14:17.428Z,,0,,,NaN,,,,,,false,,,,296119.10000000894,296119,,296118.799999997,,296133.607,8,400,,,
sequence,flow.Sequence,4_28,2023-09-18T01:14:17.428Z,,0,,,3602.0040000000154,completion,,,,,false,,,,296119.10000000894,296119,292500.836,292514.200000003,292516.996,296133.607,8,400,,,
trial,html.Screen,4_29_0,2023-09-18T01:14:24.134Z,,0,1,,6691.093000002962,response,ISIC_0072182.JPG,5,ISIC_0033454.JPG,ISIC_0072182.JPG,false,1,keypress(m),500,302825.299999997,302824.700000003,296116.913,296119.200000003,296133.607,302832.338,8,400,30,,ISIC_0033454.JPG
break,html.Screen,4_29_1,2023-09-18T01:14:24.136Z,,0,,,NaN,,,,,,false,,,,302827.40000000596,302826.60000000894,,302825.799999997,,302832.338,8,400,,,
break_continue,html.Screen,4_29_2,2023-09-18T01:14:24.137Z,,0,,,NaN,,,,,,false,,,,302828.200000003,302827.90000000596,,302827.700000003,,302832.338,8,400,,,
sequence,flow.Sequence,4_29,2023-09-18T01:14:24.137Z,,0,,,6694.293000005942,completion,,,,,false,,,,302828.700000003,302827.90000000596,296116.913,296119.200000003,296133.607,302832.338,8,400,,,
trial,html.Screen,4_30_0,2023-09-18T01:14:27.676Z,,0,1,,3534.3620000029914,response,ISIC_0054073.JPG,5,ISIC_7147713.JPG,ISIC_0054073.JPG,false,1,keypress(m),500,306367.200000003,306366.700000003,302815.962,302829.10000000894,302832.338,306382.091,8,400,31,,ISIC_7147713.JPG
break,html.Screen,4_30_1,2023-09-18T01:14:27.678Z,,0,,,NaN,,,,,,false,,,,306369.700000003,306368.60000000894,,306367.799999997,,306382.091,8,400,,,
break_continue,html.Screen,4_30_2,2023-09-18T01:14:27.680Z,,0,,,NaN,,,,,,false,,,,306370.90000000596,306370.40000000596,,306370.10000000894,,306382.091,8,400,,,
sequence,flow.Sequence,4_30,2023-09-18T01:14:27.681Z,,0,,,3538.0620000059716,completion,,,,,false,,,,306371.799999997,306370.40000000596,302815.962,302828.90000000596,302832.338,306382.091,8,400,,,
trial,html.Screen,4_31_0,2023-09-18T01:14:32.741Z,,0,1,,5049.609000002965,response,ISIC_0027359.JPG,5,ISIC_1193108.JPG,ISIC_0027359.JPG,false,1,keypress(m),500,311432.200000003,311431.700000003,306365.329,306372.299999997,306382.091,311447.811,8,400,32,,ISIC_1193108.JPG
break,html.Screen,4_31_1,2023-09-18T01:14:32.743Z,,0,,,NaN,,,,,,false,,,,311434.700000003,311433.799999997,,311433,,311447.811,8,400,,,
break_continue,html.Screen,4_31_2,2023-09-18T01:14:32.745Z,,0,,,NaN,,,,,,false,,,,311435.90000000596,311435.60000000894,,311435.200000003,,311447.811,8,400,,,
sequence,flow.Sequence,4_31,2023-09-18T01:14:32.745Z,,0,,,5053.509000008926,completion,,,,,false,,,,311436.299999997,311435.60000000894,306365.329,306372.10000000894,306382.091,311447.811,8,400,,,
trial,html.Screen,4_32_0,2023-09-18T01:14:37.725Z,,0,1,,4968.0890000059735,response,ISIC_4936610.JPG,5,ISIC_5179620.JPG,ISIC_5179620.JPG,false,0,keypress(z),500,316416.60000000894,316415.90000000596,311431.483,311436.799999997,311447.811,316430.622,8,400,33,,ISIC_4936610.JPG
break,html.Screen,4_32_1,2023-09-18T01:14:37.727Z,,0,,,NaN,,,,,,false,,,,316418.60000000894,316417.799999997,,316417,,316430.622,8,400,,,
break_continue,html.Screen,4_32_2,2023-09-18T01:14:37.728Z,,0,,,NaN,,,,,,false,,,,316419.60000000894,316419.200000003,,316419,,316430.622,8,400,,,
sequence,flow.Sequence,4_32,2023-09-18T01:14:37.729Z,,0,,,4971.389000002993,completion,,,,,false,,,,316420,316419.200000003,311431.483,311436.700000003,311447.811,316430.622,8,400,,,
trial,html.Screen,4_33_0,2023-09-18T01:14:42.549Z,,0,1,,4809.578000003006,response,ISIC_0068438.JPG,5,ISIC_5942564.JPG,ISIC_0068438.JPG,false,1,keypress(m),500,321240.60000000894,321240.200000003,316414,316420.299999997,316430.622,321246.588,8,400,34,,ISIC_5942564.JPG
break,html.Screen,4_33_1,2023-09-18T01:14:42.551Z,,0,,,NaN,,,,,,false,,,,321242.40000000596,321241.700000003,,321241.10000000894,,321246.588,8,400,,,
break_continue,html.Screen,4_33_2,2023-09-18T01:14:42.553Z,,0,,,NaN,,,,,,false,,,,321243.90000000596,321243.60000000894,,321243.10000000894,,321246.588,8,400,,,
sequence,flow.Sequence,4_33,2023-09-18T01:14:42.553Z,,0,,,4812.978000008967,completion,,,,,false,,,,321244.40000000596,321243.60000000894,316414,316420.200000003,316430.622,321246.588,8,400,,,
trial,html.Screen,4_34_0,2023-09-18T01:14:53.261Z,,0,1,,10705.112000002991,response,ISIC_0034044.JPG,5,ISIC_2800198.JPG,ISIC_2800198.JPG,false,0,keypress(z),500,331951.90000000596,331951.700000003,321229.932,321244.700000003,321246.588,331961.707,8,400,35,,ISIC_0034044.JPG
break,html.Screen,4_34_1,2023-09-18T01:14:53.262Z,,0,,,NaN,,,,,,false,,,,331953,331952.60000000894,,331952.200000003,,331961.707,8,400,,,
break_continue,html.Screen,4_34_2,2023-09-18T01:14:53.262Z,,0,,,NaN,,,,,,false,,,,331953.40000000596,331953.200000003,,331953.10000000894,,331961.707,8,400,,,
sequence,flow.Sequence,4_34,2023-09-18T01:14:53.262Z,,0,,,10706.612000002991,completion,,,,,false,,,,331953.60000000894,331953.200000003,321229.932,321244.700000003,321246.588,331961.707,8,400,,,
trial,html.Screen,4_35_0,2023-09-18T01:14:57.202Z,,0,1,,3931.6930000059656,response,ISIC_0000313.JPG,5,ISIC_7181296.JPG,ISIC_7181296.JPG,false,0,keypress(z),500,335893.60000000894,335893.40000000596,331945.584,331953.799999997,331961.707,335911.957,8,400,36,,ISIC_0000313.JPG
break,html.Screen,4_35_1,2023-09-18T01:14:57.203Z,,0,,,NaN,,,,,,false,,,,335894.299999997,335894,,335893.799999997,,335911.957,8,400,,,
break_continue,html.Screen,4_35_2,2023-09-18T01:14:57.203Z,,0,,,NaN,,,,,,false,,,,335894.700000003,335894.60000000894,,335894.40000000596,,335911.957,8,400,,,
sequence,flow.Sequence,4_35,2023-09-18T01:14:57.203Z,,0,,,3932.893000008946,completion,,,,,false,,,,335894.799999997,335894.60000000894,331945.584,331953.700000003,331961.707,335911.957,8,400,,,
trial,html.Screen,4_36_0,2023-09-18T01:15:02.517Z,,0,1,,5295.842999997025,response,ISIC_0028114.JPG,5,ISIC_6253295.JPG,ISIC_0028114.JPG,false,1,keypress(m),500,341208.299999997,341207.799999997,335877.989,335894.799999997,335911.957,341228.602,8,400,37,,ISIC_6253295.JPG
break,html.Screen,4_36_1,2023-09-18T01:15:02.519Z,,0,,,NaN,,,,,,false,,,,341210.10000000894,341209.299999997,,341208.700000003,,341228.602,8,400,,,
break_continue,html.Screen,4_36_2,2023-09-18T01:15:02.520Z,,0,,,NaN,,,,,,false,,,,341211.10000000894,341210.799999997,,341210.40000000596,,341228.602,8,400,,,
sequence,flow.Sequence,4_36,2023-09-18T01:15:02.520Z,,0,,,5298.842999997025,completion,,,,,false,,,,341211.5,341210.799999997,335877.989,335894.799999997,335911.957,341228.602,8,400,,,
trial,html.Screen,4_37_0,2023-09-18T01:15:06.733Z,,0,1,,4194.8979999999865,response,ISIC_0033968.JPG,5,ISIC_7190243.JPG,ISIC_0033968.JPG,false,1,keypress(m),500,345424.10000000894,345423.5,341194.225,341211.90000000596,341228.602,345444.108,8,400,38,,ISIC_7190243.JPG
break,html.Screen,4_37_1,2023-09-18T01:15:06.735Z,,0,,,NaN,,,,,,false,,,,345426.299999997,345425.40000000596,,345424.60000000894,,345444.108,8,400,,,
break_continue,html.Screen,4_37_2,2023-09-18T01:15:06.736Z,,0,,,NaN,,,,,,false,,,,345427.60000000894,345427.10000000894,,345426.799999997,,345444.108,8,400,,,
sequence,flow.Sequence,4_37,2023-09-18T01:15:06.737Z,,0,,,4198.498000008927,completion,,,,,false,,,,345428,345427.10000000894,341194.225,341211.90000000596,341228.602,345444.108,8,400,,,
trial,html.Screen,4_38_0,2023-09-18T01:15:11.237Z,,0,1,,4483.592000002973,response,ISIC_0063842.JPG,4,ISIC_0046623.JPG,ISIC_0063842.JPG,false,1,keypress(m),500,349928,349927.700000003,345410.295,345428.799999997,345444.108,349942.675,8,400,39,,ISIC_0046623.JPG
break,html.Screen,4_38_1,2023-09-18T01:15:11.237Z,,0,,,NaN,,,,,,false,,,,349928.700000003,349928.40000000596,,349928.200000003,,349942.675,8,400,,,
break_continue,html.Screen,4_38_2,2023-09-18T01:15:11.238Z,,0,,,NaN,,,,,,false,,,,349928.90000000596,349928.799999997,,349928.799999997,,349942.675,8,400,,,
sequence,flow.Sequence,4_38,2023-09-18T01:15:11.238Z,,0,,,4484.691999997012,completion,,,,,false,,,,349929.10000000894,349928.799999997,345410.295,345428.60000000894,345444.108,349942.675,8,400,,,
trial,html.Screen,4_39_0,2023-09-18T01:15:19.486Z,,0,1,,8233.624999997031,response,ISIC_0011158.JPG,5,ISIC_0014985.JPG,ISIC_0011158.JPG,false,1,keypress(m),500,358177,358176.299999997,349926.375,349929.10000000894,349942.675,358191.805,8,400,40,,ISIC_0014985.JPG
break,html.Screen,4_39_1,2023-09-18T01:15:19.488Z,,0,,,NaN,,,,,,false,,,,358179.700000003,358178.799999997,,358177.90000000596,,358191.805,8,400,,,
break_continue,html.Screen,4_39_2,2023-09-18T01:15:19.490Z,,0,,,NaN,,,,,,false,,,,358180.90000000596,358180.5,,358180.200000003,,358191.805,8,400,,,
sequence,flow.Sequence,4_39,2023-09-18T01:15:19.490Z,,0,,,8237.825000000012,completion,,,,,false,,,,358181.5,358180.5,349926.375,349929.10000000894,349942.675,358191.805,8,400,,,
trial,html.Screen,4_40_0,2023-09-18T01:15:24.342Z,,0,1,,4841.494999997027,response,ISIC_2034687.JPG,4,ISIC_7530414.JPG,ISIC_7530414.JPG,false,0,keypress(z),500,363033.700000003,363033.299999997,358175.004,358181.90000000596,358191.805,363040.882,8,400,41,,ISIC_2034687.JPG
break,html.Screen,4_40_1,2023-09-18T01:15:24.345Z,,0,,,NaN,,,,,,false,,,,363036,363035,,363034.200000003,,363040.882,8,400,,,
break_continue,html.Screen,4_40_2,2023-09-18T01:15:24.345Z,,0,,,NaN,,,,,,false,,,,363036.799999997,363036.60000000894,,363036.299999997,,363040.882,8,400,,,
sequence,flow.Sequence,4_40,2023-09-18T01:15:24.346Z,,0,,,4844.795000008948,completion,,,,,false,,,,363037,363036.60000000894,358175.004,358181.799999997,358191.805,363040.882,8,400,,,
trial,html.Screen,4_41_0,2023-09-18T01:15:28.094Z,,0,1,,3744.2180000089575,response,ISIC_0011364.JPG,5,ISIC_4069690.JPG,ISIC_0011364.JPG,false,1,keypress(m),500,366785.200000003,366785.10000000894,363024.594,363037.299999997,363040.882,366790.387,8,400,42,,ISIC_4069690.JPG
break,html.Screen,4_41_1,2023-09-18T01:15:28.095Z,,0,,,NaN,,,,,,false,,,,366786,366785.700000003,,366785.299999997,,366790.387,8,400,,,
break_continue,html.Screen,4_41_2,2023-09-18T01:15:28.095Z,,0,,,NaN,,,,,,false,,,,366786.40000000596,366786.299999997,,366786.200000003,,366790.387,8,400,,,
sequence,flow.Sequence,4_41,2023-09-18T01:15:28.095Z,,0,,,3745.4179999970365,completion,,,,,false,,,,366786.5,366786.299999997,363024.594,363037.200000003,363040.882,366790.387,8,400,,,
trial,html.Screen,4_42_0,2023-09-18T01:15:37.305Z,,0,1,,9205.113000000012,response,ISIC_0063742.JPG,5,ISIC_5458933.JPG,ISIC_5458933.JPG,false,0,keypress(z),500,375995.90000000596,375995.5,366773.769,366786.60000000894,366790.387,376005.932,8,400,43,,ISIC_0063742.JPG
break,html.Screen,4_42_1,2023-09-18T01:15:37.307Z,,0,,,NaN,,,,,,false,,,,375998.40000000596,375997.299999997,,375996.5,,376005.932,8,400,,,
break_continue,html.Screen,4_42_2,2023-09-18T01:15:37.308Z,,0,,,NaN,,,,,,false,,,,375999.60000000894,375999.200000003,,375998.90000000596,,376005.932,8,400,,,
sequence,flow.Sequence,4_42,2023-09-18T01:15:37.309Z,,0,,,9208.813000002992,completion,,,,,false,,,,376000.200000003,375999.200000003,366773.769,366786.60000000894,366790.387,376005.932,8,400,,,
trial,html.Screen,4_43_0,2023-09-18T01:15:43.585Z,,0,1,,6269.367999997048,response,ISIC_4481362.JPG,5,ISIC_0058040.JPG,ISIC_0058040.JPG,false,0,keypress(z),500,382275.90000000596,382275.299999997,375989.432,376000.60000000894,376005.932,382288.366,8,400,44,,ISIC_4481362.JPG
break,html.Screen,4_43_1,2023-09-18T01:15:43.587Z,,0,,,NaN,,,,,,false,,,,382278.10000000894,382277.200000003,,382276.40000000596,,382288.366,8,400,,,
break_continue,html.Screen,4_43_2,2023-09-18T01:15:43.591Z,,0,,,NaN,,,,,,false,,,,382282.10000000894,382281.60000000894,,382281.200000003,,382288.366,8,400,,,
sequence,flow.Sequence,4_43,2023-09-18T01:15:43.591Z,,0,,,6275.668000008969,completion,,,,,false,,,,382282.700000003,382281.60000000894,375989.432,376000.40000000596,376005.932,382288.366,8,400,,,
trial,html.Screen,4_44_0,2023-09-18T01:15:55.080Z,,0,1,,11515.041000000027,timeout,ISIC_0070432.JPG,5,ISIC_9482251.JPG,,false,,,500,393771.200000003,393770.90000000596,382271.86,382283,382288.366,393803.407,8,400,45,,
break,html.Screen,4_44_1,2023-09-18T01:15:55.080Z,,0,,,NaN,,,,,,false,,,,393771.60000000894,393771.5,,393771.299999997,,393803.407,8,400,,,
break_continue,html.Screen,4_44_2,2023-09-18T01:15:55.081Z,,0,,,NaN,,,,,,false,,,,393771.90000000596,393771.700000003,,393771.700000003,,393803.407,8,400,,,
sequence,flow.Sequence,4_44,2023-09-18T01:15:55.081Z,,0,,,11483.334000003,completion,,,,,false,,,,393772,393771.700000003,382271.86,382283,382288.366,393803.407,8,400,,,
trial,html.Screen,4_45_0,2023-09-18T01:15:58.843Z,,0,1,,3730.2930000029737,response,ISIC_6952773.JPG,6,ISIC_9803747.JPG,ISIC_9803747.JPG,false,0,keypress(z),500,397533.799999997,397533.700000003,393786.741,393772,393803.407,397536.223,8,400,46,,ISIC_6952773.JPG
break,html.Screen,4_45_1,2023-09-18T01:15:58.843Z,,0,,,NaN,,,,,,false,,,,397534.299999997,397534.10000000894,,397533.90000000596,,397536.223,8,400,,,
break_continue,html.Screen,4_45_2,2023-09-18T01:15:58.843Z,,0,,,NaN,,,,,,false,,,,397534.60000000894,397534.40000000596,,397534.40000000596,,397536.223,8,400,,,
sequence,flow.Sequence,4_45,2023-09-18T01:15:58.843Z,,0,,,3730.993000005954,completion,,,,,false,,,,397534.700000003,397534.40000000596,393786.741,393772,393803.407,397536.223,8,400,,,
trial,html.Screen,4_46_0,2023-09-18T01:16:03.265Z,,0,1,,4419.177000005962,response,ISIC_8409262.JPG,5,ISIC_9473492.JPG,ISIC_8409262.JPG,false,1,keypress(m),500,401956.10000000894,401955.40000000596,397519.579,397534.700000003,397536.223,401969.025,8,400,47,,ISIC_9473492.JPG
break,html.Screen,4_46_1,2023-09-18T01:16:03.267Z,,0,,,NaN,,,,,,false,,,,401958.40000000596,401957.40000000596,,401956.60000000894,,401969.025,8,400,,,
break_continue,html.Screen,4_46_2,2023-09-18T01:16:03.268Z,,0,,,NaN,,,,,,false,,,,401959.60000000894,401959,,401958.700000003,,401969.025,8,400,,,
sequence,flow.Sequence,4_46,2023-09-18T01:16:03.269Z,,0,,,4422.777000000002,completion,,,,,false,,,,401960.40000000596,401959,397519.579,397534.700000003,397536.223,401969.025,8,400,,,
trial,html.Screen,4_47_0,2023-09-18T01:16:07.873Z,,0,1,,4594.875000005937,response,ISIC_9048507.JPG,4,ISIC_0054357.JPG,ISIC_9048507.JPG,false,1,keypress(m),500,406564.299999997,406563.90000000596,401952.438,401960.799999997,401969.025,406568.47,8,400,48,,ISIC_0054357.JPG
break,html.Screen,4_47_1,2023-09-18T01:16:07.876Z,,0,,,NaN,,,,,,false,,,,406566.799999997,406565.90000000596,,406565,,406568.47,8,400,,,
break_continue,html.Screen,4_47_2,2023-09-18T01:16:07.878Z,,0,,,NaN,,,,,,false,,,,406569.10000000894,406568.40000000596,,406567.799999997,,406568.47,8,400,,,
sequence,flow.Sequence,4_47,2023-09-18T01:16:07.878Z,,0,,,4599.375000005937,completion,,,,,false,,,,406569.299999997,406568.40000000596,401952.438,401960.799999997,401969.025,406568.47,8,400,,,
trial,html.Screen,4_48_0,2023-09-18T01:16:11.742Z,,0,1,,3863.9300000059884,response,ISIC_0010551.JPG,5,ISIC_0031553.JPG,ISIC_0031553.JPG,false,0,keypress(z),500,410433,410432.40000000596,406551.742,406569.299999997,406568.47,410451.16,8,400,49,,ISIC_0010551.JPG
break,html.Screen,4_48_1,2023-09-18T01:16:11.744Z,,0,,,NaN,,,,,,false,,,,410435.5,410434.5,,410433.700000003,,410451.16,8,400,,,
break_continue,html.Screen,4_48_2,2023-09-18T01:16:11.745Z,,0,,,NaN,,,,,,false,,,,410436.5,410436.10000000894,,410435.90000000596,,410451.16,8,400,,,
sequence,flow.Sequence,4_48,2023-09-18T01:16:11.746Z,,0,,,3867.6300000089686,completion,,,,,false,,,,410437,410436.10000000894,406551.742,406569.299999997,406568.47,410451.16,8,400,,,
trial,html.Screen,4_49_0,2023-09-18T01:16:14.918Z,,0,1,,3157.240000005986,response,ISIC_1216201.JPG,6,ISIC_0071471.JPG,ISIC_0071471.JPG,false,0,keypress(z),500,413609,413608.40000000596,410434.572,410437.5,410451.16,413617.513,8,400,50,,ISIC_1216201.JPG
break,html.Screen,4_49_1,2023-09-18T01:16:24.909Z,,0,,,9998.975000000035,timeout,,,,,false,,,,423600.40000000596,423599.757,413600.972,413609.5,413617.513,423616.488,8,400,,,
break_continue,html.Screen,4_49_2,2023-09-18T01:16:30.577Z,,0,,,5643.412000005948,response,,,,,false,continue,keypress(Space),,429268,429259.90000000596,423599.757,423600.60000000894,423616.488,429282.346,8,400,,,
sequence,flow.Sequence,4_49,2023-09-18T01:16:30.577Z,,0,,,18808.740000005986,completion,,,,,false,,,,429268.200000003,429259.90000000596,410434.572,410437.40000000596,410451.16,429282.346,8,400,,,
trial,html.Screen,4_50_0,2023-09-18T01:16:33.955Z,,0,2,,3363.6539999999804,response,ISIC_0028773.JPG,5,ISIC_0055911.JPG,ISIC_0028773.JPG,false,1,keypress(m),500,432646.40000000596,432646,429265.382,429268.200000003,429282.346,432681.623,8,400,1,,ISIC_0055911.JPG
break,html.Screen,4_50_1,2023-09-18T01:16:33.957Z,,0,,,NaN,,,,,,false,,,,432648.60000000894,432647.799999997,,432647.10000000894,,432681.623,8,400,,,
break_continue,html.Screen,4_50_2,2023-09-18T01:16:33.958Z,,0,,,NaN,,,,,,false,,,,432648.799999997,432648.700000003,,432648.60000000894,,432681.623,8,400,,,
sequence,flow.Sequence,4_50,2023-09-18T01:16:33.958Z,,0,,,3366.3540000029607,completion,,,,,false,,,,432648.90000000596,432648.700000003,429265.382,429268.200000003,429282.346,432681.623,8,400,,,
trial,html.Screen,4_51_0,2023-09-18T01:16:38.488Z,,0,2,,4497.077000002959,response,ISIC_0033893.JPG,5,ISIC_0046331.JPG,ISIC_0033893.JPG,false,1,keypress(m),500,437179.10000000894,437178.700000003,432665.315,432649,432681.623,437197.757,8,400,2,,ISIC_0046331.JPG
break,html.Screen,4_51_1,2023-09-18T01:16:38.491Z,,0,,,NaN,,,,,,false,,,,437181.60000000894,437180.5,,437179.700000003,,437197.757,8,400,,,
break_continue,html.Screen,4_51_2,2023-09-18T01:16:38.492Z,,0,,,NaN,,,,,,false,,,,437182.799999997,437182.5,,437182,,437197.757,8,400,,,
sequence,flow.Sequence,4_51,2023-09-18T01:16:38.492Z,,0,,,4500.876999999979,completion,,,,,false,,,,437183.299999997,437182.5,432665.315,432649,432681.623,437197.757,8,400,,,
trial,html.Screen,4_52_0,2023-09-18T01:16:42.439Z,,0,2,,3931.443000002997,response,ISIC_9896801.JPG,4,ISIC_5425721.JPG,ISIC_5425721.JPG,false,0,keypress(z),500,441129.700000003,441129.200000003,437164.382,437183.700000003,437197.757,441147.275,8,400,3,,ISIC_9896801.JPG
break,html.Screen,4_52_1,2023-09-18T01:16:42.441Z,,0,,,NaN,,,,,,false,,,,441132.299999997,441131.299999997,,441130.299999997,,441147.275,8,400,,,
break_continue,html.Screen,4_52_2,2023-09-18T01:16:42.442Z,,0,,,NaN,,,,,,false,,,,441133.40000000596,441133.10000000894,,441132.700000003,,441147.275,8,400,,,
sequence,flow.Sequence,4_52,2023-09-18T01:16:42.443Z,,0,,,3935.3430000089575,completion,,,,,false,,,,441134.200000003,441133.10000000894,437164.382,437183.60000000894,437197.757,441147.275,8,400,,,
trial,html.Screen,4_53_0,2023-09-18T01:16:47.893Z,,0,2,,5436.5249999969965,response,ISIC_1508215.JPG,5,ISIC_0031278.JPG,ISIC_0031278.JPG,false,0,keypress(z),500,446584.299999997,446583.799999997,441130.456,441134.60000000894,441147.275,446596.564,8,400,4,,ISIC_1508215.JPG
break,html.Screen,4_53_1,2023-09-18T01:16:47.895Z,,0,,,NaN,,,,,,false,,,,446586.5,446585.60000000894,,446584.90000000596,,446596.564,8,400,,,
break_continue,html.Screen,4_53_2,2023-09-18T01:16:47.897Z,,0,,,NaN,,,,,,false,,,,446587.60000000894,446587.200000003,,446586.90000000596,,446596.564,8,400,,,
sequence,flow.Sequence,4_53,2023-09-18T01:16:47.897Z,,0,,,5439.925000002957,completion,,,,,false,,,,446588.10000000894,446587.200000003,441130.456,441134.40000000596,441147.275,446596.564,8,400,,,
trial,html.Screen,4_54_0,2023-09-18T01:16:51.389Z,,0,2,,3483.136000002967,response,ISIC_8813283.JPG,6,ISIC_0029606.JPG,ISIC_0029606.JPG,false,0,keypress(z),500,450080.200000003,450079.700000003,446579.919,446588.40000000596,446596.564,450095.996,8,400,5,,ISIC_8813283.JPG
break,html.Screen,4_54_1,2023-09-18T01:16:51.391Z,,0,,,NaN,,,,,,false,,,,450082.40000000596,450081.5,,450080.700000003,,450095.996,8,400,,,
break_continue,html.Screen,4_54_2,2023-09-18T01:16:51.392Z,,0,,,NaN,,,,,,false,,,,450083.40000000596,450083,,450082.799999997,,450095.996,8,400,,,
sequence,flow.Sequence,4_54,2023-09-18T01:16:51.393Z,,0,,,3486.435999999987,completion,,,,,false,,,,450083.90000000596,450083,446579.919,446588.299999997,446596.564,450095.996,8,400,,,
trial,html.Screen,4_55_0,2023-09-18T01:16:54.564Z,,0,2,,3159.0040000000154,response,ISIC_0029562.JPG,5,ISIC_5955057.JPG,ISIC_0029562.JPG,false,1,keypress(m),500,453255.200000003,453255,450079.271,450084.200000003,450095.996,453262.131,8,400,6,,ISIC_5955057.JPG
break,html.Screen,4_55_1,2023-09-18T01:16:54.565Z,,0,,,NaN,,,,,,false,,,,453256.10000000894,453255.700000003,,453255.40000000596,,453262.131,8,400,,,
break_continue,html.Screen,4_55_2,2023-09-18T01:16:54.565Z,,0,,,NaN,,,,,,false,,,,453256.5,453256.299999997,,453256.200000003,,453262.131,8,400,,,
sequence,flow.Sequence,4_55,2023-09-18T01:16:54.565Z,,0,,,3160.303999997035,completion,,,,,false,,,,453256.60000000894,453256.299999997,450079.271,450084.10000000894,450095.996,453262.131,8,400,,,
trial,html.Screen,4_56_0,2023-09-18T01:16:58.040Z,,0,2,,3468.369000000006,response,ISIC_0015411.JPG,5,ISIC_4000087.JPG,ISIC_0015411.JPG,false,1,keypress(m),500,456731.10000000894,456730.5,453245.84,453256.700000003,453262.131,456744.996,8,400,7,,ISIC_4000087.JPG
break,html.Screen,4_56_1,2023-09-18T01:16:58.045Z,,0,,,NaN,,,,,,false,,,,456736.5,456735.5,,456734.299999997,,456744.996,8,400,,,
break_continue,html.Screen,4_56_2,2023-09-18T01:16:58.047Z,,0,,,NaN,,,,,,false,,,,456737.700000003,456737.200000003,,456736.90000000596,,456744.996,8,400,,,
sequence,flow.Sequence,4_56,2023-09-18T01:16:58.047Z,,0,,,3475.0690000029863,completion,,,,,false,,,,456738.10000000894,456737.200000003,453245.84,453256.700000003,453262.131,456744.996,8,400,,,
trial,html.Screen,4_57_0,2023-09-18T01:17:01.125Z,,0,2,,3070.303999997035,response,ISIC_0009666.JPG,6,ISIC_6780471.JPG,ISIC_0009666.JPG,false,1,keypress(m),500,459815.90000000596,459815.299999997,456728.4,456738.5,456744.996,459827.969,8,400,8,,ISIC_6780471.JPG
break,html.Screen,4_57_1,2023-09-18T01:17:01.127Z,,0,,,NaN,,,,,,false,,,,459818.10000000894,459817.200000003,,459816.40000000596,,459827.969,8,400,,,
break_continue,html.Screen,4_57_2,2023-09-18T01:17:01.128Z,,0,,,NaN,,,,,,false,,,,459819.200000003,459818.90000000596,,459818.60000000894,,459827.969,8,400,,,
sequence,flow.Sequence,4_57,2023-09-18T01:17:01.129Z,,0,,,3073.904000005976,completion,,,,,false,,,,459819.700000003,459818.90000000596,456728.4,456738.40000000596,456744.996,459827.969,8,400,,,
trial,html.Screen,4_58_0,2023-09-18T01:17:04.142Z,,0,2,,3004.2310000029975,response,ISIC_4691943.JPG,5,ISIC_7369690.JPG,ISIC_4691943.JPG,false,1,keypress(m),500,462832.700000003,462832.200000003,459811.659,459820.10000000894,459827.969,462844.188,8,400,9,,ISIC_7369690.JPG
break,html.Screen,4_58_1,2023-09-18T01:17:04.144Z,,0,,,NaN,,,,,,false,,,,462835,462833.90000000596,,462833.200000003,,462844.188,8,400,,,
break_continue,html.Screen,4_58_2,2023-09-18T01:17:04.145Z,,0,,,NaN,,,,,,false,,,,462836,462835.700000003,,462835.40000000596,,462844.188,8,400,,,
sequence,flow.Sequence,4_58,2023-09-18T01:17:04.146Z,,0,,,3007.7310000029975,completion,,,,,false,,,,462836.60000000894,462835.700000003,459811.659,459820,459827.969,462844.188,8,400,,,
trial,html.Screen,4_59_0,2023-09-18T01:17:07.098Z,,0,2,,2944.0120000029565,response,ISIC_8048668.JPG,6,ISIC_9448281.JPG,ISIC_8048668.JPG,false,1,keypress(m),500,465788.799999997,465788.200000003,462827.757,462837.200000003,462844.188,465793.833,8,400,10,,ISIC_9448281.JPG
break,html.Screen,4_59_1,2023-09-18T01:17:07.100Z,,0,,,NaN,,,,,,false,,,,465791.200000003,465790.200000003,,465789.299999997,,465793.833,8,400,,,
break_continue,html.Screen,4_59_2,2023-09-18T01:17:07.101Z,,0,,,NaN,,,,,,false,,,,465792.299999997,465792,,465791.60000000894,,465793.833,8,400,,,
sequence,flow.Sequence,4_59,2023-09-18T01:17:07.102Z,,0,,,2947.8119999999763,completion,,,,,false,,,,465793.10000000894,465792,462827.757,462837,462844.188,465793.833,8,400,,,
trial,html.Screen,4_60_0,2023-09-18T01:17:11.266Z,,0,2,,4162.867000002996,response,ISIC_0032424.JPG,5,ISIC_2298440.JPG,ISIC_0032424.JPG,false,1,keypress(m),500,469957.200000003,469956.700000003,465777.223,465793.40000000596,465793.833,469959.962,8,400,11,,ISIC_2298440.JPG
break,html.Screen,4_60_1,2023-09-18T01:17:11.268Z,,0,,,NaN,,,,,,false,,,,469959.40000000596,469958.5,,469957.700000003,,469959.962,8,400,,,
break_continue,html.Screen,4_60_2,2023-09-18T01:17:11.270Z,,0,,,NaN,,,,,,false,,,,469961,469960.10000000894,,469959.700000003,,469959.962,8,400,,,
sequence,flow.Sequence,4_60,2023-09-18T01:17:11.271Z,,0,,,4166.2670000089565,completion,,,,,false,,,,469961.700000003,469960.10000000894,465777.223,465793.40000000596,465793.833,469959.962,8,400,,,
trial,html.Screen,4_61_0,2023-09-18T01:17:14.746Z,,0,2,,3477.0380000000005,response,ISIC_0024962.JPG,4,ISIC_0013204.JPG,ISIC_0024962.JPG,false,1,keypress(m),500,473437.10000000894,473437,469943.547,469962.200000003,469959.962,473442.807,8,400,12,,ISIC_0013204.JPG
break,html.Screen,4_61_1,2023-09-18T01:17:14.747Z,,0,,,NaN,,,,,,false,,,,473438.40000000596,473438.200000003,,473438,,473442.807,8,400,,,
break_continue,html.Screen,4_61_2,2023-09-18T01:17:14.748Z,,0,,,NaN,,,,,,false,,,,473438.700000003,473438.60000000894,,473438.5,,473442.807,8,400,,,
sequence,flow.Sequence,4_61,2023-09-18T01:17:14.748Z,,0,,,3478.638000008941,completion,,,,,false,,,,473438.799999997,473438.60000000894,469943.547,469962.10000000894,469959.962,473442.807,8,400,,,
trial,html.Screen,4_62_0,2023-09-18T01:17:19.055Z,,0,2,,4303.093000005989,response,ISIC_0070752.JPG,4,ISIC_0024259.JPG,ISIC_0024259.JPG,false,0,keypress(z),500,477746.5,477745.90000000596,473426.365,473438.90000000596,473442.807,477758.829,8,400,13,,ISIC_0070752.JPG
break,html.Screen,4_62_1,2023-09-18T01:17:19.058Z,,0,,,NaN,,,,,,false,,,,477748.700000003,477747.799999997,,477746.90000000596,,477758.829,8,400,,,
break_continue,html.Screen,4_62_2,2023-09-18T01:17:19.059Z,,0,,,NaN,,,,,,false,,,,477749.90000000596,477749.5,,477749.10000000894,,477758.829,8,400,,,
sequence,flow.Sequence,4_62,2023-09-18T01:17:19.059Z,,0,,,4306.693000000028,completion,,,,,false,,,,477750.299999997,477749.5,473426.365,473438.90000000596,473442.807,477758.829,8,400,,,
trial,html.Screen,4_63_0,2023-09-18T01:17:24.855Z,,0,2,,5787.271000008914,response,ISIC_0014826.JPG,6,ISIC_4644299.JPG,ISIC_0014826.JPG,false,1,keypress(m),500,483546.60000000894,483546.10000000894,477742.598,477750.700000003,477758.829,483557.981,8,400,14,,ISIC_4644299.JPG
break,html.Screen,4_63_1,2023-09-18T01:17:24.858Z,,0,,,NaN,,,,,,false,,,,483549,483547.90000000596,,483547.10000000894,,483557.981,8,400,,,
break_continue,html.Screen,4_63_2,2023-09-18T01:17:24.859Z,,0,,,NaN,,,,,,false,,,,483550,483549.700000003,,483549.40000000596,,483557.981,8,400,,,
sequence,flow.Sequence,4_63,2023-09-18T01:17:24.859Z,,0,,,5790.871000002953,completion,,,,,false,,,,483550.5,483549.700000003,477742.598,477750.60000000894,477758.829,483557.981,8,400,,,
trial,html.Screen,4_64_0,2023-09-18T01:17:28.614Z,,0,2,,3746.4190000059316,response,ISIC_0000483.JPG,6,ISIC_0064907.JPG,ISIC_0064907.JPG,false,0,keypress(z),500,487304.90000000596,487304.40000000596,483541.428,483551.10000000894,483557.981,487324.769,8,400,15,,ISIC_0000483.JPG
break,html.Screen,4_64_1,2023-09-18T01:17:28.616Z,,0,,,NaN,,,,,,false,,,,487307.200000003,487306.299999997,,487305.5,,487324.769,8,400,,,
break_continue,html.Screen,4_64_2,2023-09-18T01:17:28.617Z,,0,,,NaN,,,,,,false,,,,487308.40000000596,487308,,487307.700000003,,487324.769,8,400,,,
sequence,flow.Sequence,4_64,2023-09-18T01:17:28.618Z,,0,,,3750.018999999971,completion,,,,,false,,,,487309.200000003,487308,483541.428,483550.90000000596,483557.981,487324.769,8,400,,,
trial,html.Screen,4_65_0,2023-09-18T01:17:32.462Z,,0,2,,3828.0309999970486,response,ISIC_8398000.JPG,4,ISIC_4907595.JPG,ISIC_8398000.JPG,false,1,keypress(m),500,491153.5,491152.799999997,487291.241,487309.5,487324.769,491157.056,8,400,16,,ISIC_4907595.JPG
break,html.Screen,4_65_1,2023-09-18T01:17:32.465Z,,0,,,NaN,,,,,,false,,,,491155.700000003,491154.799999997,,491153.90000000596,,491157.056,8,400,,,
break_continue,html.Screen,4_65_2,2023-09-18T01:17:32.466Z,,0,,,NaN,,,,,,false,,,,491156.799999997,491156.40000000596,,491156.200000003,,491157.056,8,400,,,
sequence,flow.Sequence,4_65,2023-09-18T01:17:32.467Z,,0,,,3831.6310000059893,completion,,,,,false,,,,491157.90000000596,491156.40000000596,487291.241,487309.40000000596,487324.769,491157.056,8,400,,,
trial,html.Screen,4_66_0,2023-09-18T01:17:35.432Z,,0,2,,2965.2439999970375,response,ISIC_0059593.JPG,6,ISIC_0749263.JPG,ISIC_0059593.JPG,false,1,keypress(m),500,494122.799999997,494122.299999997,491140.677,491158.5,491157.056,494140.248,8,400,17,,ISIC_0749263.JPG
break,html.Screen,4_66_1,2023-09-18T01:17:35.434Z,,0,,,NaN,,,,,,false,,,,494125.200000003,494124.299999997,,494123.299999997,,494140.248,8,400,,,
break_continue,html.Screen,4_66_2,2023-09-18T01:17:35.435Z,,0,,,NaN,,,,,,false,,,,494126.200000003,494126,,494125.60000000894,,494140.248,8,400,,,
sequence,flow.Sequence,4_66,2023-09-18T01:17:35.436Z,,0,,,2968.9440000000177,completion,,,,,false,,,,494126.799999997,494126,491140.677,491158.40000000596,491157.056,494140.248,8,400,,,
trial,html.Screen,4_67_0,2023-09-18T01:17:39.920Z,,0,2,,4471.152000005939,response,ISIC_3701563.JPG,5,ISIC_0027683.JPG,ISIC_0027683.JPG,false,0,keypress(z),500,498611.60000000894,498611.40000000596,494123.48,494127.200000003,494140.248,498622.761,8,400,18,,ISIC_3701563.JPG
break,html.Screen,4_67_1,2023-09-18T01:17:39.921Z,,0,,,NaN,,,,,,false,,,,498612.200000003,498611.90000000596,,498611.700000003,,498622.761,8,400,,,
break_continue,html.Screen,4_67_2,2023-09-18T01:17:39.921Z,,0,,,NaN,,,,,,false,,,,498612.5,498612.40000000596,,498612.299999997,,498622.761,8,400,,,
sequence,flow.Sequence,4_67,2023-09-18T01:17:39.921Z,,0,,,4472.152000005939,completion,,,,,false,,,,498612.5,498612.40000000596,494123.48,494127.10000000894,494140.248,498622.761,8,400,,,
trial,html.Screen,4_68_0,2023-09-18T01:17:43.909Z,,0,2,,3976.538999997021,response,ISIC_0193907.JPG,4,ISIC_3440004.JPG,ISIC_0193907.JPG,false,1,keypress(m),500,502599.90000000596,502599.299999997,498606.05,498612.60000000894,498622.761,502605.576,8,400,19,,ISIC_3440004.JPG
break,html.Screen,4_68_1,2023-09-18T01:17:43.911Z,,0,,,NaN,,,,,,false,,,,502602.10000000894,502601.200000003,,502600.40000000596,,502605.576,8,400,,,
break_continue,html.Screen,4_68_2,2023-09-18T01:17:43.912Z,,0,,,NaN,,,,,,false,,,,502603.200000003,502602.799999997,,502602.5,,502605.576,8,400,,,
sequence,flow.Sequence,4_68,2023-09-18T01:17:43.912Z,,0,,,3980.038999997021,completion,,,,,false,,,,502603.60000000894,502602.799999997,498606.05,498612.60000000894,498622.761,502605.576,8,400,,,
trial,html.Screen,4_69_0,2023-09-18T01:17:48.594Z,,0,2,,4678.723999997019,response,ISIC_4164882.JPG,4,ISIC_0067953.JPG,ISIC_0067953.JPG,false,0,keypress(z),500,507284.799999997,507284.299999997,502588.95,502604,502605.576,507288.294,8,400,20,,ISIC_4164882.JPG
break,html.Screen,4_69_1,2023-09-18T01:17:48.596Z,,0,,,NaN,,,,,,false,,,,507287.5,507286.200000003,,507285.40000000596,,507288.294,8,400,,,
break_continue,html.Screen,4_69_2,2023-09-18T01:17:48.598Z,,0,,,NaN,,,,,,false,,,,507289.10000000894,507288.60000000894,,507288.10000000894,,507288.294,8,400,,,
sequence,flow.Sequence,4_69,2023-09-18T01:17:48.598Z,,0,,,4683.02400000894,completion,,,,,false,,,,507289.40000000596,507288.60000000894,502588.95,502603.90000000596,502605.576,507288.294,8,400,,,
trial,html.Screen,4_70_0,2023-09-18T01:17:55.111Z,,0,2,,6514.306000008946,response,ISIC_9322551.JPG,11,ISIC_3520750.JPG,ISIC_3520750.JPG,false,0,keypress(z),500,513802.700000003,513802.60000000894,507271.84,507289.40000000596,507288.294,513821.692,8,400,21,,ISIC_9322551.JPG
break,html.Screen,4_70_1,2023-09-18T01:17:55.112Z,,0,,,NaN,,,,,,false,,,,513803.40000000596,513803,,513802.799999997,,513821.692,8,400,,,
break_continue,html.Screen,4_70_2,2023-09-18T01:17:55.112Z,,0,,,NaN,,,,,,false,,,,513803.60000000894,513803.5,,513803.40000000596,,513821.692,8,400,,,
sequence,flow.Sequence,4_70,2023-09-18T01:17:55.113Z,,0,,,6515.206000000006,completion,,,,,false,,,,513803.700000003,513803.5,507271.84,507289.40000000596,507288.294,513821.692,8,400,,,
trial,html.Screen,4_71_0,2023-09-18T01:17:58.574Z,,0,2,,3442.5080000029993,response,ISIC_0034086.JPG,6,ISIC_3961647.JPG,ISIC_3961647.JPG,false,0,keypress(z),500,517264.799999997,517264.200000003,513787.365,513803.799999997,513821.692,517286.802,8,400,22,,ISIC_0034086.JPG
break,html.Screen,4_71_1,2023-09-18T01:17:58.575Z,,0,,,NaN,,,,,,false,,,,517266.60000000894,517266,,517265.299999997,,517286.802,8,400,,,
break_continue,html.Screen,4_71_2,2023-09-18T01:17:58.576Z,,0,,,NaN,,,,,,false,,,,517267.5,517267.200000003,,517266.90000000596,,517286.802,8,400,,,
sequence,flow.Sequence,4_71,2023-09-18T01:17:58.577Z,,0,,,3445.5080000029993,completion,,,,,false,,,,517267.90000000596,517267.200000003,513787.365,513803.799999997,513821.692,517286.802,8,400,,,
trial,html.Screen,4_72_0,2023-09-18T01:18:04.424Z,,0,2,,5827.997999996995,response,ISIC_0033238.JPG,5,ISIC_6613150.JPG,ISIC_6613150.JPG,false,0,keypress(z),500,523115.40000000596,523114.799999997,517270.295,517268.299999997,517286.802,523119.493,8,400,23,,ISIC_0033238.JPG
break,html.Screen,4_72_1,2023-09-18T01:18:04.426Z,,0,,,NaN,,,,,,false,,,,523117.700000003,523116.799999997,,523115.90000000596,,523119.493,8,400,,,
break_continue,html.Screen,4_72_2,2023-09-18T01:18:04.428Z,,0,,,NaN,,,,,,false,,,,523118.799999997,523118.40000000596,,523118,,523119.493,8,400,,,
sequence,flow.Sequence,4_72,2023-09-18T01:18:04.428Z,,0,,,5831.598000005935,completion,,,,,false,,,,523119.200000003,523118.40000000596,517270.295,517268.200000003,517286.802,523119.493,8,400,,,
trial,html.Screen,4_73_0,2023-09-18T01:18:08.596Z,,0,2,,4166.7070000029635,response,ISIC_0982855.JPG,5,ISIC_4568425.JPG,ISIC_4568425.JPG,false,0,keypress(z),500,527287.1000000089,527286.200000003,523102.804,523119.90000000596,523119.493,527302.288,8,400,24,,ISIC_0982855.JPG
break,html.Screen,4_73_1,2023-09-18T01:18:08.598Z,,0,,,NaN,,,,,,false,,,,527289,527288.6000000089,,527287.799999997,,527302.288,8,400,,,
break_continue,html.Screen,4_73_2,2023-09-18T01:18:08.599Z,,0,,,NaN,,,,,,false,,,,527289.900000006,527289.5,,527289.299999997,,527302.288,8,400,,,
sequence,flow.Sequence,4_73,2023-09-18T01:18:08.599Z,,0,,,4170.006999999983,completion,,,,,false,,,,527290.400000006,527289.5,523102.804,523119.60000000894,523119.493,527302.288,8,400,,,
trial,html.Screen,4_74_0,2023-09-18T01:18:12.955Z,,0,2,,4343.5119999970775,response,ISIC_0057702.JPG,6,ISIC_5179503.JPG,ISIC_5179503.JPG,false,0,keypress(z),500,531646.200000003,531645.799999997,527285.811,527290.700000003,527302.288,531651.615,8,400,25,,ISIC_0057702.JPG
break,html.Screen,4_74_1,2023-09-18T01:18:12.957Z,,0,,,NaN,,,,,,false,,,,531648.6000000089,531647.6000000089,,531646.799999997,,531651.615,8,400,,,
break_continue,html.Screen,4_74_2,2023-09-18T01:18:12.959Z,,0,,,NaN,,,,,,false,,,,531649.700000003,531649.400000006,,531649,,531651.615,8,400,,,
sequence,flow.Sequence,4_74,2023-09-18T01:18:12.959Z,,0,,,4347.112000006018,completion,,,,,false,,,,531650.200000003,531649.400000006,527285.811,527290.700000003,527302.288,531651.615,8,400,,,
trial,html.Screen,4_75_0,2023-09-18T01:18:17.270Z,,0,2,,4309.385000000009,response,ISIC_8796769.JPG,5,ISIC_4699066.JPG,ISIC_4699066.JPG,false,0,keypress(z),500,535961.6000000089,535961,531635.081,531650.6000000089,531651.615,535967.737,8,400,26,,ISIC_8796769.JPG
break,html.Screen,4_75_1,2023-09-18T01:18:17.273Z,,0,,,NaN,,,,,,false,,,,535964,535963.1000000089,,535962.1000000089,,535967.737,8,400,,,
break_continue,html.Screen,4_75_2,2023-09-18T01:18:17.274Z,,0,,,NaN,,,,,,false,,,,535965.1000000089,535964.700000003,,535964.299999997,,535967.737,8,400,,,
sequence,flow.Sequence,4_75,2023-09-18T01:18:17.274Z,,0,,,4313.08500000299,completion,,,,,false,,,,535965.6000000089,535964.700000003,531635.081,531650.5,531651.615,535967.737,8,400,,,
trial,html.Screen,4_76_0,2023-09-18T01:18:22.271Z,,0,2,,4993.763000000035,response,ISIC_3601224.JPG,5,ISIC_0010838.JPG,ISIC_0010838.JPG,false,0,keypress(z),500,540962.1000000089,540961.5,535951.115,535965.900000006,535967.737,540967.093,8,400,27,,ISIC_3601224.JPG
break,html.Screen,4_76_1,2023-09-18T01:18:22.273Z,,0,,,NaN,,,,,,false,,,,540964.400000006,540963.5,,540962.6000000089,,540967.093,8,400,,,
break_continue,html.Screen,4_76_2,2023-09-18T01:18:22.274Z,,0,,,NaN,,,,,,false,,,,540965.400000006,540965.1000000089,,540964.700000003,,540967.093,8,400,,,
sequence,flow.Sequence,4_76,2023-09-18T01:18:22.275Z,,0,,,4997.363000008976,completion,,,,,false,,,,540965.900000006,540965.1000000089,535951.115,535965.799999997,535967.737,540967.093,8,400,,,
trial,html.Screen,4_77_0,2023-09-18T01:18:27.853Z,,0,2,,5576.706999997026,response,ISIC_1306020.JPG,5,ISIC_0011892.JPG,ISIC_1306020.JPG,false,1,keypress(m),500,546544.299999997,546543.799999997,540950.716,540966.299999997,540967.093,546549.646,8,400,28,,ISIC_0011892.JPG
break,html.Screen,4_77_1,2023-09-18T01:18:27.855Z,,0,,,NaN,,,,,,false,,,,546546.6000000089,546545.700000003,,546544.900000006,,546549.646,8,400,,,
break_continue,html.Screen,4_77_2,2023-09-18T01:18:27.857Z,,0,,,NaN,,,,,,false,,,,546547.900000006,546547.400000006,,546547.1000000089,,546549.646,8,400,,,
sequence,flow.Sequence,4_77,2023-09-18T01:18:27.857Z,,0,,,5580.307000005967,completion,,,,,false,,,,546548.400000006,546547.400000006,540950.716,540966.200000003,540967.093,546549.646,8,400,,,
trial,html.Screen,4_78_0,2023-09-18T01:18:34.060Z,,0,2,,6201.15399999707,response,ISIC_2372468.JPG,5,ISIC_0029163.JPG,ISIC_0029163.JPG,false,0,keypress(z),500,552751.299999997,552750.799999997,546533.162,546548.700000003,546549.646,552765.552,8,400,29,,ISIC_2372468.JPG
break,html.Screen,4_78_1,2023-09-18T01:18:34.062Z,,0,,,NaN,,,,,,false,,,,552753.6000000089,552752.700000003,,552751.900000006,,552765.552,8,400,,,
break_continue,html.Screen,4_78_2,2023-09-18T01:18:34.063Z,,0,,,NaN,,,,,,false,,,,552754.700000003,552754.400000006,,552754.1000000089,,552765.552,8,400,,,
sequence,flow.Sequence,4_78,2023-09-18T01:18:34.064Z,,0,,,6204.754000006011,completion,,,,,false,,,,552755.200000003,552754.400000006,546533.162,546548.700000003,546549.646,552765.552,8,400,,,
trial,html.Screen,4_79_0,2023-09-18T01:18:37.673Z,,0,2,,3598.2479999969946,response,ISIC_4255013.JPG,5,ISIC_2948811.JPG,ISIC_2948811.JPG,false,0,keypress(z),500,556364.299999997,556363.799999997,552749.014,552755.6000000089,552765.552,556381.872,8,400,30,,ISIC_4255013.JPG
break,html.Screen,4_79_1,2023-09-18T01:18:37.675Z,,0,,,NaN,,,,,,false,,,,556366.6000000089,556365.700000003,,556364.900000006,,556381.872,8,400,,,
break_continue,html.Screen,4_79_2,2023-09-18T01:18:37.676Z,,0,,,NaN,,,,,,false,,,,556367.6000000089,556367.299999997,,556367,,556381.872,8,400,,,
sequence,flow.Sequence,4_79,2023-09-18T01:18:37.677Z,,0,,,3601.7479999969946,completion,,,,,false,,,,556368,556367.299999997,552749.014,552755.400000006,552765.552,556381.872,8,400,,,
trial,html.Screen,4_80_0,2023-09-18T01:18:41.093Z,,0,2,,3401.927999997046,response,ISIC_1351604.JPG,5,ISIC_1685962.JPG,ISIC_1685962.JPG,false,0,keypress(z),500,559784.299999997,559783.799999997,556365.32,556368.299999997,556381.872,559798.218,8,400,31,,ISIC_1351604.JPG
break,html.Screen,4_80_1,2023-09-18T01:18:41.095Z,,0,,,NaN,,,,,,false,,,,559786.700000003,559785.700000003,,559784.900000006,,559798.218,8,400,,,
break_continue,html.Screen,4_80_2,2023-09-18T01:18:41.096Z,,0,,,NaN,,,,,,false,,,,559787.799999997,559787.400000006,,559787.1000000089,,559798.218,8,400,,,
sequence,flow.Sequence,4_80,2023-09-18T01:18:41.097Z,,0,,,3405.5280000059865,completion,,,,,false,,,,559788.200000003,559787.400000006,556365.32,556368.299999997,556381.872,559798.218,8,400,,,
trial,html.Screen,4_81_0,2023-09-18T01:18:44.957Z,,0,2,,3849.682000005967,response,ISIC_0000135.JPG,5,ISIC_3914140.JPG,ISIC_0000135.JPG,false,1,keypress(m),500,563648.5,563647.900000006,559781.449,559788.299999997,559798.218,563664.339,8,400,32,,ISIC_3914140.JPG
break,html.Screen,4_81_1,2023-09-18T01:18:44.959Z,,0,,,NaN,,,,,,false,,,,563650.799999997,563649.900000006,,563649,,563664.339,8,400,,,
break_continue,html.Screen,4_81_2,2023-09-18T01:18:44.961Z,,0,,,NaN,,,,,,false,,,,563651.900000006,563651.5,,563651.200000003,,563664.339,8,400,,,
sequence,flow.Sequence,4_81,2023-09-18T01:18:44.961Z,,0,,,3853.2820000000065,completion,,,,,false,,,,563652.299999997,563651.5,559781.449,559788.299999997,559798.218,563664.339,8,400,,,
trial,html.Screen,4_82_0,2023-09-18T01:18:49.077Z,,0,2,,4103.061000005924,response,ISIC_1604845.JPG,5,ISIC_0026364.JPG,ISIC_0026364.JPG,false,0,keypress(z),500,567768,567767.400000006,563647.326,563652.799999997,563664.339,567780.12,8,400,33,,ISIC_1604845.JPG
break,html.Screen,4_82_1,2023-09-18T01:18:49.079Z,,0,,,NaN,,,,,,false,,,,567770.299999997,567769.400000006,,567768.5,,567780.12,8,400,,,
break_continue,html.Screen,4_82_2,2023-09-18T01:18:49.080Z,,0,,,NaN,,,,,,false,,,,567771.5,567771,,567770.700000003,,567780.12,8,400,,,
sequence,flow.Sequence,4_82,2023-09-18T01:18:49.081Z,,0,,,4106.660999999964,completion,,,,,false,,,,567772,567771,563647.326,563652.6000000089,563664.339,567780.12,8,400,,,
trial,html.Screen,4_83_0,2023-09-18T01:18:52.318Z,,0,2,,3228.9800000089454,response,ISIC_6443700.JPG,5,ISIC_0482585.JPG,ISIC_0482585.JPG,false,0,keypress(z),500,571009.700000003,571009.1000000089,567763.476,567772.400000006,567780.12,571013.06,8,400,34,,ISIC_6443700.JPG
break,html.Screen,4_83_1,2023-09-18T01:18:52.321Z,,0,,,NaN,,,,,,false,,,,571012,571011.1000000089,,571010.200000003,,571013.06,8,400,,,
break_continue,html.Screen,4_83_2,2023-09-18T01:18:52.322Z,,0,,,NaN,,,,,,false,,,,571013,571012.700000003,,571012.400000006,,571013.06,8,400,,,
sequence,flow.Sequence,4_83,2023-09-18T01:18:52.322Z,,0,,,3232.580000002985,completion,,,,,false,,,,571013.799999997,571012.700000003,567763.476,567772.299999997,567780.12,571013.06,8,400,,,
trial,html.Screen,4_84_0,2023-09-18T01:18:57.560Z,,0,2,,5237.239999996964,response,ISIC_2275181.JPG,6,ISIC_0033245.JPG,ISIC_0033245.JPG,false,0,keypress(z),500,576250.799999997,576250.299999997,570996.629,571013.900000006,571013.06,576262.438,8,400,35,,ISIC_2275181.JPG
break,html.Screen,4_84_1,2023-09-18T01:18:57.561Z,,0,,,NaN,,,,,,false,,,,576252.6000000089,576252.299999997,,576251.5,,576262.438,8,400,,,
break_continue,html.Screen,4_84_2,2023-09-18T01:18:57.562Z,,0,,,NaN,,,,,,false,,,,576252.900000006,576252.799999997,,576252.700000003,,576262.438,8,400,,,
sequence,flow.Sequence,4_84,2023-09-18T01:18:57.562Z,,0,,,5239.739999996964,completion,,,,,false,,,,576252.900000006,576252.799999997,570996.629,571013.799999997,571013.06,576262.438,8,400,,,
trial,html.Screen,4_85_0,2023-09-18T01:19:00.764Z,,0,2,,3192.162000008975,response,ISIC_6701139.JPG,6,ISIC_6423964.JPG,ISIC_6423964.JPG,false,0,keypress(z),500,579455.1000000089,579454.6000000089,576245.779,576253,576262.438,579461.841,8,400,36,,ISIC_6701139.JPG
break,html.Screen,4_85_1,2023-09-18T01:19:00.766Z,,0,,,NaN,,,,,,false,,,,579457.400000006,579456.400000006,,579455.700000003,,579461.841,8,400,,,
break_continue,html.Screen,4_85_2,2023-09-18T01:19:00.767Z,,0,,,NaN,,,,,,false,,,,579458.400000006,579458.1000000089,,579457.799999997,,579461.841,8,400,,,
sequence,flow.Sequence,4_85,2023-09-18T01:19:00.768Z,,0,,,3195.662000008975,completion,,,,,false,,,,579459,579458.1000000089,576245.779,576253,576262.438,579461.841,8,400,,,
trial,html.Screen,4_86_0,2023-09-18T01:19:04.138Z,,0,2,,3367.0590000059456,response,ISIC_7319686.JPG,5,ISIC_0000031.JPG,ISIC_0000031.JPG,false,0,keypress(z),500,582829.5,582828.900000006,579445.54,579459.299999997,579461.841,582845.07,8,400,37,,ISIC_7319686.JPG
break,html.Screen,4_86_1,2023-09-18T01:19:04.140Z,,0,,,NaN,,,,,,false,,,,582831.700000003,582830.799999997,,582829.900000006,,582845.07,8,400,,,
break_continue,html.Screen,4_86_2,2023-09-18T01:19:04.142Z,,0,,,NaN,,,,,,false,,,,582832.799999997,582832.400000006,,582832.1000000089,,582845.07,8,400,,,
sequence,flow.Sequence,4_86,2023-09-18T01:19:04.142Z,,0,,,3370.5590000059456,completion,,,,,false,,,,582833.200000003,582832.400000006,579445.54,579459.299999997,579461.841,582845.07,8,400,,,
trial,html.Screen,4_87_0,2023-09-18T01:19:08.280Z,,0,2,,4125.430000000051,response,ISIC_0016081.JPG,5,ISIC_0277705.JPG,ISIC_0016081.JPG,false,1,keypress(m),500,586971,586970.5,582828.052,582833.6000000089,582845.07,586977.466,8,400,38,,ISIC_0277705.JPG
break,html.Screen,4_87_1,2023-09-18T01:19:08.282Z,,0,,,NaN,,,,,,false,,,,586973.299999997,586972.400000006,,586971.6000000089,,586977.466,8,400,,,
break_continue,html.Screen,4_87_2,2023-09-18T01:19:08.283Z,,0,,,NaN,,,,,,false,,,,586974.299999997,586973.900000006,,586973.6000000089,,586977.466,8,400,,,
sequence,flow.Sequence,4_87,2023-09-18T01:19:08.283Z,,0,,,4128.830000006012,completion,,,,,false,,,,586974.700000003,586973.900000006,582828.052,582833.5,582845.07,586977.466,8,400,,,
trial,html.Screen,4_88_0,2023-09-18T01:19:14.242Z,,0,2,,5955.734000002965,response,ISIC_3565564.JPG,6,ISIC_6997433.JPG,ISIC_6997433.JPG,false,0,keypress(z),500,592933.6000000089,592933.200000003,586960.839,586975,586977.466,592943.391,8,400,39,,ISIC_3565564.JPG
break,html.Screen,4_88_1,2023-09-18T01:19:14.244Z,,0,,,NaN,,,,,,false,,,,592935.6000000089,592934.700000003,,592934,,592943.391,8,400,,,
break_continue,html.Screen,4_88_2,2023-09-18T01:19:14.245Z,,0,,,NaN,,,,,,false,,,,592936.400000006,592936.200000003,,592935.900000006,,592943.391,8,400,,,
sequence,flow.Sequence,4_88,2023-09-18T01:19:14.246Z,,0,,,5958.734000002965,completion,,,,,false,,,,592936.900000006,592936.200000003,586960.839,586974.900000006,586977.466,592943.391,8,400,,,
trial,html.Screen,4_89_0,2023-09-18T01:19:19.841Z,,0,2,,5588.908999997075,response,ISIC_0033947.JPG,5,ISIC_0069865.JPG,ISIC_0069865.JPG,false,0,keypress(z),500,598532.5,598532.299999997,592926.641,592937.200000003,592943.391,598542.795,8,400,40,,ISIC_0033947.JPG
break,html.Screen,4_89_1,2023-09-18T01:19:19.842Z,,0,,,NaN,,,,,,false,,,,598533.200000003,598532.900000006,,598532.700000003,,598542.795,8,400,,,
break_continue,html.Screen,4_89_2,2023-09-18T01:19:19.842Z,,0,,,NaN,,,,,,false,,,,598533.5,598533.5,,598533.299999997,,598542.795,8,400,,,
sequence,flow.Sequence,4_89,2023-09-18T01:19:19.842Z,,0,,,5590.109000000055,completion,,,,,false,,,,598533.6000000089,598533.5,592926.641,592937.1000000089,592943.391,598542.795,8,400,,,
trial,html.Screen,4_90_0,2023-09-18T01:19:25.941Z,,0,2,,6089.305000008899,response,ISIC_7378303.JPG,5,ISIC_0010631.JPG,ISIC_0010631.JPG,false,0,keypress(z),500,604632.299999997,604632.1000000089,598525.896,598533.799999997,598542.795,604641.75,8,400,41,,ISIC_7378303.JPG
break,html.Screen,4_90_1,2023-09-18T01:19:25.942Z,,0,,,NaN,,,,,,false,,,,604633.1000000089,604632.900000006,,604632.5,,604641.75,8,400,,,
break_continue,html.Screen,4_90_2,2023-09-18T01:19:25.942Z,,0,,,NaN,,,,,,false,,,,604633.6000000089,604633.400000006,,604633.200000003,,604641.75,8,400,,,
sequence,flow.Sequence,4_90,2023-09-18T01:19:25.943Z,,0,,,6090.605000005919,completion,,,,,false,,,,604633.900000006,604633.400000006,598525.896,598533.700000003,598542.795,604641.75,8,400,,,
trial,html.Screen,4_91_0,2023-09-18T01:19:33.001Z,,0,2,,7050.54999999702,response,ISIC_0003851.JPG,6,ISIC_0059216.JPG,ISIC_0059216.JPG,false,0,keypress(z),500,611692.400000006,611692.299999997,604625.064,604634.1000000089,604641.75,611707.433,8,400,42,,ISIC_0003851.JPG
break,html.Screen,4_91_1,2023-09-18T01:19:33.002Z,,0,,,NaN,,,,,,false,,,,611693.200000003,611692.900000006,,611692.6000000089,,611707.433,8,400,,,
break_continue,html.Screen,4_91_2,2023-09-18T01:19:33.002Z,,0,,,NaN,,,,,,false,,,,611693.6000000089,611693.5,,611693.299999997,,611707.433,8,400,,,
sequence,flow.Sequence,4_91,2023-09-18T01:19:33.003Z,,0,,,7051.75,completion,,,,,false,,,,611693.799999997,611693.5,604625.064,604634,604641.75,611707.433,8,400,,,
trial,html.Screen,4_92_0,2023-09-18T01:19:37.469Z,,0,2,,4452.067000000039,response,ISIC_0024258.JPG,6,ISIC_0683389.JPG,ISIC_0024258.JPG,false,1,keypress(m),500,616159.700000003,616159.5,611691.183,611693.900000006,611707.433,616173.836,8,400,43,,ISIC_0683389.JPG
break,html.Screen,4_92_1,2023-09-18T01:19:37.470Z,,0,,,NaN,,,,,,false,,,,616160.700000003,616160.5,,616159.900000006,,616173.836,8,400,,,
break_continue,html.Screen,4_92_2,2023-09-18T01:19:37.470Z,,0,,,NaN,,,,,,false,,,,616161,616160.900000006,,616160.799999997,,616173.836,8,400,,,
sequence,flow.Sequence,4_92,2023-09-18T01:19:37.470Z,,0,,,4453.467000006,completion,,,,,false,,,,616161.1000000089,616160.900000006,611691.183,611693.900000006,611707.433,616173.836,8,400,,,
trial,html.Screen,4_93_0,2023-09-18T01:19:41.858Z,,0,2,,4374.66399999999,response,ISIC_0055024.JPG,4,ISIC_0030150.JPG,ISIC_0055024.JPG,false,1,keypress(m),500,620548.799999997,620548.5,616156.864,616161.200000003,616173.836,620556.321,8,400,44,,ISIC_0030150.JPG
break,html.Screen,4_93_1,2023-09-18T01:19:41.859Z,,0,,,NaN,,,,,,false,,,,620549.700000003,620549.299999997,,620549,,620556.321,8,400,,,
break_continue,html.Screen,4_93_2,2023-09-18T01:19:41.859Z,,0,,,NaN,,,,,,false,,,,620550.200000003,620550,,620549.799999997,,620556.321,8,400,,,
sequence,flow.Sequence,4_93,2023-09-18T01:19:41.859Z,,0,,,4376.16399999999,completion,,,,,false,,,,620550.400000006,620550,616156.864,616161.1000000089,616173.836,620556.321,8,400,,,
trial,html.Screen,4_94_0,2023-09-18T01:19:45.350Z,,0,2,,3484.379000002984,response,ISIC_0053791.JPG,5,ISIC_8389361.JPG,ISIC_0053791.JPG,false,1,keypress(m),500,624041.299999997,624040.700000003,620539.572,620550.6000000089,620556.321,624056.128,8,400,45,,ISIC_8389361.JPG
break,html.Screen,4_94_1,2023-09-18T01:19:45.353Z,,0,,,NaN,,,,,,false,,,,624043.799999997,624042.799999997,,624041.900000006,,624056.128,8,400,,,
break_continue,html.Screen,4_94_2,2023-09-18T01:19:45.354Z,,0,,,NaN,,,,,,false,,,,624045,624044.700000003,,624044.200000003,,624056.128,8,400,,,
sequence,flow.Sequence,4_94,2023-09-18T01:19:45.354Z,,0,,,3488.379000002984,completion,,,,,false,,,,624045.6000000089,624044.700000003,620539.572,620550.6000000089,620556.321,624056.128,8,400,,,
trial,html.Screen,4_95_0,2023-09-18T01:19:50.864Z,,0,2,,5498.371999999974,response,ISIC_0031005.JPG,5,ISIC_0067156.JPG,ISIC_0031005.JPG,false,1,keypress(m),500,629554.900000006,629554.5,624039.564,624048.400000006,624056.128,629571.826,8,400,46,,ISIC_0067156.JPG
break,html.Screen,4_95_1,2023-09-18T01:19:50.866Z,,0,,,NaN,,,,,,false,,,,629557.1000000089,629556.200000003,,629555.5,,629571.826,8,400,,,
break_continue,html.Screen,4_95_2,2023-09-18T01:19:50.866Z,,0,,,NaN,,,,,,false,,,,629557.5,629557.5,,629557.400000006,,629571.826,8,400,,,
sequence,flow.Sequence,4_95,2023-09-18T01:19:50.866Z,,0,,,5501.371999999974,completion,,,,,false,,,,629557.6000000089,629557.5,624039.564,624048.400000006,624056.128,629571.826,8,400,,,
trial,html.Screen,4_96_0,2023-09-18T01:19:56.069Z,,0,2,,5187.673999999999,response,ISIC_7511557.JPG,4,ISIC_8041078.JPG,ISIC_8041078.JPG,false,0,keypress(z),500,634760.1000000089,634759.5,629555.157,629557.6000000089,629571.826,634770.984,8,400,47,,ISIC_7511557.JPG
break,html.Screen,4_96_1,2023-09-18T01:19:56.071Z,,0,,,NaN,,,,,,false,,,,634762.5,634761.6000000089,,634760.5,,634770.984,8,400,,,
break_continue,html.Screen,4_96_2,2023-09-18T01:19:56.072Z,,0,,,NaN,,,,,,false,,,,634763.6000000089,634763.200000003,,634762.900000006,,634770.984,8,400,,,
sequence,flow.Sequence,4_96,2023-09-18T01:19:56.073Z,,0,,,5191.374000002979,completion,,,,,false,,,,634764,634763.200000003,629555.157,629557.6000000089,629571.826,634770.984,8,400,,,
trial,html.Screen,4_97_0,2023-09-18T01:20:00.844Z,,0,2,,4763.716000002925,response,ISIC_1083681.JPG,5,ISIC_0003159.JPG,ISIC_1083681.JPG,false,1,keypress(m),500,639535.200000003,639534.700000003,634754.597,634764.400000006,634770.984,639554.02,8,400,48,,ISIC_0003159.JPG
break,html.Screen,4_97_1,2023-09-18T01:20:00.846Z,,0,,,NaN,,,,,,false,,,,639536.799999997,639536.400000006,,639535.700000003,,639554.02,8,400,,,
break_continue,html.Screen,4_97_2,2023-09-18T01:20:00.847Z,,0,,,NaN,,,,,,false,,,,639538.200000003,639537.5,,639537.1000000089,,639554.02,8,400,,,
sequence,flow.Sequence,4_97,2023-09-18T01:20:00.848Z,,0,,,4766.515999999945,completion,,,,,false,,,,639538.6000000089,639537.5,634754.597,634764.299999997,634770.984,639554.02,8,400,,,
trial,html.Screen,4_98_0,2023-09-18T01:20:06.708Z,,0,2,,5844.880000005942,response,ISIC_6062536.JPG,5,ISIC_9363106.JPG,ISIC_9363106.JPG,false,0,keypress(z),500,645399.5,645398.900000006,639537.226,639539,639554.02,645403.025,8,400,49,,ISIC_6062536.JPG
break,html.Screen,4_98_1,2023-09-18T01:20:06.711Z,,0,,,NaN,,,,,,false,,,,645401.900000006,645400.900000006,,645400.1000000089,,645403.025,8,400,,,
break_continue,html.Screen,4_98_2,2023-09-18T01:20:06.712Z,,0,,,NaN,,,,,,false,,,,645403.1000000089,645402.6000000089,,645402.200000003,,645403.025,8,400,,,
sequence,flow.Sequence,4_98,2023-09-18T01:20:06.713Z,,0,,,5848.580000008922,completion,,,,,false,,,,645404.1000000089,645402.6000000089,639537.226,639538.900000006,639554.02,645403.025,8,400,,,
trial,html.Screen,4_99_0,2023-09-18T01:20:10.004Z,,0,2,,3291.0750000089174,response,ISIC_5772144.JPG,4,ISIC_0059768.JPG,ISIC_0059768.JPG,false,0,keypress(z),500,648694.700000003,648694.1000000089,645386.638,645404.5,645403.025,648702.59,8,400,50,,ISIC_5772144.JPG
break,html.Screen,4_99_1,2023-09-18T01:20:19.995Z,,0,,,9999.059000000008,timeout,,,,,false,,,,658685.900000006,658684.817,648685.955,648695.200000003,648702.59,658701.649,8,400,,,
break_continue,html.Screen,4_99_2,2023-09-18T01:20:30.693Z,,0,,,10667.150999997044,response,,,,,false,continue,keypress(Space),,669384.5,669368.799999997,658684.817,658686,658701.649,669399.836,8,400,,,
sequence,flow.Sequence,4_99,2023-09-18T01:20:30.694Z,,0,,,23965.774999996996,completion,,,,,false,,,,669384.700000003,669368.799999997,645386.638,645404.5,645403.025,669399.836,8,400,,,
trial,html.Screen,4_100_0,2023-09-18T01:20:34.922Z,,0,3,,4213.16399999999,response,ISIC_0033044.JPG,5,ISIC_5520533.JPG,ISIC_0033044.JPG,false,1,keypress(m),500,673613.200000003,673613,669383.183,669384.700000003,669399.836,673615.811,8,400,1,,ISIC_5520533.JPG
break,html.Screen,4_100_1,2023-09-18T01:20:34.923Z,,0,,,NaN,,,,,,false,,,,673614,673613.6000000089,,673613.299999997,,673615.811,8,400,,,
break_continue,html.Screen,4_100_2,2023-09-18T01:20:34.923Z,,0,,,NaN,,,,,,false,,,,673614.299999997,673614.1000000089,,673614.1000000089,,673615.811,8,400,,,
sequence,flow.Sequence,4_100,2023-09-18T01:20:34.923Z,,0,,,4214.26400000893,completion,,,,,false,,,,673614.299999997,673614.1000000089,669383.183,669384.700000003,669399.836,673615.811,8,400,,,
trial,html.Screen,4_101_0,2023-09-18T01:20:40.589Z,,0,3,,5663.889000002993,response,ISIC_6759173.JPG,4,ISIC_1689678.JPG,ISIC_6759173.JPG,false,1,keypress(m),500,679280.299999997,679279.700000003,673599.446,673614.400000006,673615.811,679315.021,8,400,2,,ISIC_1689678.JPG
break,html.Screen,4_101_1,2023-09-18T01:20:40.592Z,,0,,,NaN,,,,,,false,,,,679282.700000003,679281.799999997,,679280.799999997,,679315.021,8,400,,,
break_continue,html.Screen,4_101_2,2023-09-18T01:20:40.593Z,,0,,,NaN,,,,,,false,,,,679283.799999997,679283.5,,679283.1000000089,,679315.021,8,400,,,
sequence,flow.Sequence,4_101,2023-09-18T01:20:40.593Z,,0,,,5667.689000000013,completion,,,,,false,,,,679284.299999997,679283.5,673599.446,673614.299999997,673615.811,679315.021,8,400,,,
trial,html.Screen,4_102_0,2023-09-18T01:20:44.296Z,,0,3,,3671.4790000000503,response,ISIC_0031972.JPG,6,ISIC_6919856.JPG,ISIC_0031972.JPG,false,1,keypress(m),500,682987.1000000089,682986.5,679298.579,679284.6000000089,679315.021,682997.917,8,400,3,,ISIC_6919856.JPG
break,html.Screen,4_102_1,2023-09-18T01:20:44.299Z,,0,,,NaN,,,,,,false,,,,682989.6000000089,682988.6000000089,,682987.799999997,,682997.917,8,400,,,
break_continue,html.Screen,4_102_2,2023-09-18T01:20:44.300Z,,0,,,NaN,,,,,,false,,,,682990.700000003,682990.299999997,,682990,,682997.917,8,400,,,
sequence,flow.Sequence,4_102,2023-09-18T01:20:44.300Z,,0,,,3675.27899999707,completion,,,,,false,,,,682991.200000003,682990.299999997,679298.579,679284.5,679315.021,682997.917,8,400,,,
trial,html.Screen,4_103_0,2023-09-18T01:20:48.580Z,,0,3,,4272.483000005945,response,ISIC_0189336.JPG,5,ISIC_9745562.JPG,ISIC_9745562.JPG,false,0,keypress(z),500,687271,687270.400000006,682981.241,682991.6000000089,682997.917,687280.909,8,400,4,,ISIC_0189336.JPG
break,html.Screen,4_103_1,2023-09-18T01:20:48.582Z,,0,,,NaN,,,,,,false,,,,687273.299999997,687272.400000006,,687271.6000000089,,687280.909,8,400,,,
break_continue,html.Screen,4_103_2,2023-09-18T01:20:48.583Z,,0,,,NaN,,,,,,false,,,,687274.299999997,687273.900000006,,687273.6000000089,,687280.909,8,400,,,
sequence,flow.Sequence,4_103,2023-09-18T01:20:48.584Z,,0,,,4275.983000005945,completion,,,,,false,,,,687274.799999997,687273.900000006,682981.241,682991.5,682997.917,687280.909,8,400,,,
trial,html.Screen,4_104_0,2023-09-18T01:20:52.346Z,,0,3,,3755.791000002995,response,ISIC_8911683.JPG,6,ISIC_0026890.JPG,ISIC_8911683.JPG,false,1,keypress(m),500,691037.299999997,691036.700000003,687264.421,687275.1000000089,687280.909,691046.909,8,400,5,,ISIC_0026890.JPG
break,html.Screen,4_104_1,2023-09-18T01:20:52.348Z,,0,,,NaN,,,,,,false,,,,691039.5,691038.6000000089,,691037.900000006,,691046.909,8,400,,,
break_continue,html.Screen,4_104_2,2023-09-18T01:20:52.349Z,,0,,,NaN,,,,,,false,,,,691040.6000000089,691040.200000003,,691039.900000006,,691046.909,8,400,,,
sequence,flow.Sequence,4_104,2023-09-18T01:20:52.350Z,,0,,,3759.291000002995,completion,,,,,false,,,,691041.200000003,691040.200000003,687264.421,687274.900000006,687280.909,691046.909,8,400,,,
trial,html.Screen,4_105_0,2023-09-18T01:20:57.506Z,,0,3,,5149.890999997035,response,ISIC_5403296.JPG,6,ISIC_4246086.JPG,ISIC_5403296.JPG,false,1,keypress(m),500,696197.6000000089,696196.799999997,691030.56,691041.6000000089,691046.909,696212.747,8,400,6,,ISIC_4246086.JPG
break,html.Screen,4_105_1,2023-09-18T01:20:57.509Z,,0,,,NaN,,,,,,false,,,,696200,696199,,696198.299999997,,696212.747,8,400,,,
break_continue,html.Screen,4_105_2,2023-09-18T01:20:57.510Z,,0,,,NaN,,,,,,false,,,,696201,696200.700000003,,696200.299999997,,696212.747,8,400,,,
sequence,flow.Sequence,4_105,2023-09-18T01:20:57.510Z,,0,,,5153.791000002995,completion,,,,,false,,,,696201.400000006,696200.700000003,691030.56,691041.5,691046.909,696212.747,8,400,,,
trial,html.Screen,4_106_0,2023-09-18T01:21:02.201Z,,0,3,,4679.6530000059865,response,ISIC_0000139.JPG,5,ISIC_9765760.JPG,ISIC_0000139.JPG,false,1,keypress(m),500,700892.6000000089,700892.400000006,696196.562,696202,696212.747,700912.134,8,400,7,,ISIC_9765760.JPG
break,html.Screen,4_106_1,2023-09-18T01:21:02.202Z,,0,,,NaN,,,,,,false,,,,700893,700892.900000006,,700892.6000000089,,700912.134,8,400,,,
break_continue,html.Screen,4_106_2,2023-09-18T01:21:02.202Z,,0,,,NaN,,,,,,false,,,,700893.200000003,700893.1000000089,,700893,,700912.134,8,400,,,
sequence,flow.Sequence,4_106,2023-09-18T01:21:02.202Z,,0,,,4680.353000008967,completion,,,,,false,,,,700893.400000006,700893.1000000089,696196.562,696201.799999997,696212.747,700912.134,8,400,,,
trial,html.Screen,4_107_0,2023-09-18T01:21:05.548Z,,0,3,,3326.966000008979,response,ISIC_9485536.JPG,4,ISIC_0032544.JPG,ISIC_0032544.JPG,false,0,keypress(z),500,704239.6000000089,704239.1000000089,700895.952,700893.400000006,700912.134,704245.168,8,400,8,,ISIC_9485536.JPG
break,html.Screen,4_107_1,2023-09-18T01:21:05.551Z,,0,,,NaN,,,,,,false,,,,704241.799999997,704240.799999997,,704240.1000000089,,704245.168,8,400,,,
break_continue,html.Screen,4_107_2,2023-09-18T01:21:05.552Z,,0,,,NaN,,,,,,false,,,,704242.900000006,704242.5,,704242.200000003,,704245.168,8,400,,,
sequence,flow.Sequence,4_107,2023-09-18T01:21:05.552Z,,0,,,3330.366000000038,completion,,,,,false,,,,704243.299999997,704242.5,700895.952,700893.400000006,700912.134,704245.168,8,400,,,
trial,html.Screen,4_108_0,2023-09-18T01:21:08.820Z,,0,3,,3265.332000000053,response,ISIC_0030657.JPG,5,ISIC_2882237.JPG,ISIC_0030657.JPG,false,1,keypress(m),500,707511,707510.5,704228.446,704243.700000003,704245.168,707528.271,8,400,9,,ISIC_2882237.JPG
break,html.Screen,4_108_1,2023-09-18T01:21:08.822Z,,0,,,NaN,,,,,,false,,,,707513.299999997,707512.400000006,,707511.5,,707528.271,8,400,,,
break_continue,html.Screen,4_108_2,2023-09-18T01:21:08.823Z,,0,,,NaN,,,,,,false,,,,707514.400000006,707514,,707513.700000003,,707528.271,8,400,,,
sequence,flow.Sequence,4_108,2023-09-18T01:21:08.824Z,,0,,,3268.832000000053,completion,,,,,false,,,,707514.799999997,707514,704228.446,704243.6000000089,704245.168,707528.271,8,400,,,
trial,html.Screen,4_109_0,2023-09-18T01:21:11.889Z,,0,3,,3051.6290000060108,response,ISIC_0054134.JPG,6,ISIC_3559222.JPG,ISIC_0054134.JPG,false,1,keypress(m),500,710580.400000006,710579.900000006,707511.382,707515,707528.271,710594.223,8,400,10,,ISIC_3559222.JPG
break,html.Screen,4_109_1,2023-09-18T01:21:11.892Z,,0,,,NaN,,,,,,false,,,,710582.799999997,710582,,710581,,710594.223,8,400,,,
break_continue,html.Screen,4_109_2,2023-09-18T01:21:11.893Z,,0,,,NaN,,,,,,false,,,,710583.900000006,710583.5,,710583.200000003,,710594.223,8,400,,,
sequence,flow.Sequence,4_109,2023-09-18T01:21:11.893Z,,0,,,3055.2290000000503,completion,,,,,false,,,,710584.299999997,710583.5,707511.382,707515,707528.271,710594.223,8,400,,,
trial,html.Screen,4_110_0,2023-09-18T01:21:15.052Z,,0,3,,3148.6770000059623,response,ISIC_0033083.JPG,6,ISIC_0004334.JPG,ISIC_0033083.JPG,false,1,keypress(m),500,713743.400000006,713742.900000006,710577.54,710584.700000003,710594.223,713760.855,8,400,11,,ISIC_0004334.JPG
break,html.Screen,4_110_1,2023-09-18T01:21:15.055Z,,0,,,NaN,,,,,,false,,,,713745.700000003,713744.700000003,,713743.900000006,,713760.855,8,400,,,
break_continue,html.Screen,4_110_2,2023-09-18T01:21:15.056Z,,0,,,NaN,,,,,,false,,,,713746.900000006,713746.400000006,,713746.1000000089,,713760.855,8,400,,,
sequence,flow.Sequence,4_110,2023-09-18T01:21:15.056Z,,0,,,3152.1770000059623,completion,,,,,false,,,,713747.400000006,713746.400000006,710577.54,710584.6000000089,710594.223,713760.855,8,400,,,
trial,html.Screen,4_111_0,2023-09-18T01:21:18.293Z,,0,3,,3222.4449999970384,response,ISIC_7777873.JPG,5,ISIC_6423964.JPG,ISIC_7777873.JPG,false,1,keypress(m),500,716983.900000006,716983.299999997,713744.052,713747.900000006,713760.855,716993.413,8,400,12,,ISIC_6423964.JPG
break,html.Screen,4_111_1,2023-09-18T01:21:18.295Z,,0,,,NaN,,,,,,false,,,,716986.1000000089,716985.200000003,,716984.400000006,,716993.413,8,400,,,
break_continue,html.Screen,4_111_2,2023-09-18T01:21:18.296Z,,0,,,NaN,,,,,,false,,,,716987.400000006,716987,,716986.6000000089,,716993.413,8,400,,,
sequence,flow.Sequence,4_111,2023-09-18T01:21:18.297Z,,0,,,3226.1450000000186,completion,,,,,false,,,,716987.799999997,716987,713744.052,713747.700000003,713760.855,716993.413,8,400,,,
trial,html.Screen,4_112_0,2023-09-18T01:21:23.788Z,,0,3,,5485.687000008998,response,ISIC_0011495.JPG,5,ISIC_6370597.JPG,ISIC_0011495.JPG,false,1,keypress(m),500,722479.5,722479.1000000089,716977.143,716988.200000003,716993.413,722492.607,8,400,13,,ISIC_6370597.JPG
break,html.Screen,4_112_1,2023-09-18T01:21:23.790Z,,0,,,NaN,,,,,,false,,,,722481.299999997,722480.5,,722480,,722492.607,8,400,,,
break_continue,html.Screen,4_112_2,2023-09-18T01:21:23.791Z,,0,,,NaN,,,,,,false,,,,722482.299999997,722481.900000006,,722481.6000000089,,722492.607,8,400,,,
sequence,flow.Sequence,4_112,2023-09-18T01:21:23.791Z,,0,,,5488.487000006018,completion,,,,,false,,,,722482.700000003,722481.900000006,716977.143,716988.1000000089,716993.413,722492.607,8,400,,,
trial,html.Screen,4_113_0,2023-09-18T01:21:29.162Z,,0,3,,5360.89300000004,response,ISIC_0069264.JPG,6,ISIC_5063476.JPG,ISIC_5063476.JPG,false,0,keypress(z),500,727853.6000000089,727853.5,722476.311,722482.900000006,722492.607,727858.507,8,400,14,,ISIC_0069264.JPG
break,html.Screen,4_113_1,2023-09-18T01:21:29.163Z,,0,,,NaN,,,,,,false,,,,727854.400000006,727854.1000000089,,727853.799999997,,727858.507,8,400,,,
break_continue,html.Screen,4_113_2,2023-09-18T01:21:29.163Z,,0,,,NaN,,,,,,false,,,,727854.799999997,727854.6000000089,,727854.6000000089,,727858.507,8,400,,,
sequence,flow.Sequence,4_113,2023-09-18T01:21:29.164Z,,0,,,5361.993000008981,completion,,,,,false,,,,727854.900000006,727854.6000000089,722476.311,722482.900000006,722492.607,727858.507,8,400,,,
trial,html.Screen,4_114_0,2023-09-18T01:21:32.493Z,,0,3,,3325.693000002997,response,ISIC_6017148.JPG,6,ISIC_0010398.JPG,ISIC_0010398.JPG,false,0,keypress(z),500,731184.799999997,731184.200000003,727842.031,727855,727858.507,731191.409,8,400,15,,ISIC_6017148.JPG
break,html.Screen,4_114_1,2023-09-18T01:21:32.496Z,,0,,,NaN,,,,,,false,,,,731187.1000000089,731186.1000000089,,731185.299999997,,731191.409,8,400,,,
break_continue,html.Screen,4_114_2,2023-09-18T01:21:32.497Z,,0,,,NaN,,,,,,false,,,,731188.1000000089,731187.799999997,,731187.400000006,,731191.409,8,400,,,
sequence,flow.Sequence,4_114,2023-09-18T01:21:32.497Z,,0,,,3329.2929999970365,completion,,,,,false,,,,731188.6000000089,731187.799999997,727842.031,727855,727858.507,731191.409,8,400,,,
trial,html.Screen,4_115_0,2023-09-18T01:21:35.542Z,,0,3,,3041.791000002995,response,ISIC_8297563.JPG,6,ISIC_5294540.JPG,ISIC_8297563.JPG,false,1,keypress(m),500,734233.400000006,734233.200000003,731175.152,731188.900000006,731191.409,734241.051,8,400,16,,ISIC_5294540.JPG
break,html.Screen,4_115_1,2023-09-18T01:21:35.543Z,,0,,,NaN,,,,,,false,,,,734234.1000000089,734233.799999997,,734233.5,,734241.051,8,400,,,
break_continue,html.Screen,4_115_2,2023-09-18T01:21:35.543Z,,0,,,NaN,,,,,,false,,,,734234.299999997,734234.200000003,,734234.200000003,,734241.051,8,400,,,
sequence,flow.Sequence,4_115,2023-09-18T01:21:35.543Z,,0,,,3042.791000002995,completion,,,,,false,,,,734234.400000006,734234.200000003,731175.152,731188.700000003,731191.409,734241.051,8,400,,,
trial,html.Screen,4_116_0,2023-09-18T01:21:41.263Z,,0,3,,5713.149000003003,response,ISIC_4292708.JPG,5,ISIC_1223648.JPG,ISIC_4292708.JPG,false,1,keypress(m),500,739954.700000003,739954.200000003,734224.475,734234.5,734241.051,739975.074,8,400,17,,ISIC_1223648.JPG
break,html.Screen,4_116_1,2023-09-18T01:21:41.266Z,,0,,,NaN,,,,,,false,,,,739957.1000000089,739956,,739955.200000003,,739975.074,8,400,,,
break_continue,html.Screen,4_116_2,2023-09-18T01:21:41.267Z,,0,,,NaN,,,,,,false,,,,739958.5,739957.900000006,,739957.6000000089,,739975.074,8,400,,,
sequence,flow.Sequence,4_116,2023-09-18T01:21:41.268Z,,0,,,5716.849000005983,completion,,,,,false,,,,739959.400000006,739957.900000006,734224.475,734234.5,734241.051,739975.074,8,400,,,
trial,html.Screen,4_117_0,2023-09-18T01:21:44.552Z,,0,3,,3267.5260000089183,response,ISIC_7136995.JPG,4,ISIC_0064606.JPG,ISIC_0064606.JPG,false,0,keypress(z),500,743243.299999997,743242.6000000089,739940.351,739959.799999997,739975.074,743256.865,8,400,18,,ISIC_7136995.JPG
break,html.Screen,4_117_1,2023-09-18T01:21:44.554Z,,0,,,NaN,,,,,,false,,,,743245.299999997,743244.6000000089,,743243.700000003,,743256.865,8,400,,,
break_continue,html.Screen,4_117_2,2023-09-18T01:21:44.555Z,,0,,,NaN,,,,,,false,,,,743246.299999997,743246,,743245.700000003,,743256.865,8,400,,,
sequence,flow.Sequence,4_117,2023-09-18T01:21:44.555Z,,0,,,3270.9259999999776,completion,,,,,false,,,,743246.700000003,743246,739940.351,739959.700000003,739975.074,743256.865,8,400,,,
trial,html.Screen,4_118_0,2023-09-18T01:21:47.843Z,,0,3,,3277.434999997029,response,ISIC_0207268.JPG,5,ISIC_0062162.JPG,ISIC_0207268.JPG,false,1,keypress(m),500,746534.700000003,746534.299999997,743239.865,743247.1000000089,743256.865,746539.326,8,400,19,,ISIC_0062162.JPG
break,html.Screen,4_118_1,2023-09-18T01:21:47.846Z,,0,,,NaN,,,,,,false,,,,746537,746536.200000003,,746535.299999997,,746539.326,8,400,,,
break_continue,html.Screen,4_118_2,2023-09-18T01:21:47.847Z,,0,,,NaN,,,,,,false,,,,746538,746537.6000000089,,746537.299999997,,746539.326,8,400,,,
sequence,flow.Sequence,4_118,2023-09-18T01:21:47.847Z,,0,,,3280.73500000895,completion,,,,,false,,,,746538.5,746537.6000000089,743239.865,743247,743256.865,746539.326,8,400,,,
trial,html.Screen,4_119_0,2023-09-18T01:21:52.091Z,,0,3,,4242.673999999999,response,ISIC_0028397.JPG,5,ISIC_0033681.JPG,ISIC_0033681.JPG,false,0,keypress(z),500,750782.5,750782,746522.859,746538.799999997,746539.326,750788.833,8,400,20,,ISIC_0028397.JPG
break,html.Screen,4_119_1,2023-09-18T01:21:52.093Z,,0,,,NaN,,,,,,false,,,,750784.700000003,750783.700000003,,750783,,750788.833,8,400,,,
break_continue,html.Screen,4_119_2,2023-09-18T01:21:52.094Z,,0,,,NaN,,,,,,false,,,,750785.700000003,750785.400000006,,750785.1000000089,,750788.833,8,400,,,
sequence,flow.Sequence,4_119,2023-09-18T01:21:52.095Z,,0,,,4246.0740000059595,completion,,,,,false,,,,750786.200000003,750785.400000006,746522.859,746538.700000003,746539.326,750788.833,8,400,,,
trial,html.Screen,4_120_0,2023-09-18T01:21:55.555Z,,0,3,,3456.4669999970356,response,ISIC_5482805.JPG,5,ISIC_0068153.JPG,ISIC_0068153.JPG,false,0,keypress(z),500,754245.900000006,754245.299999997,750772.524,750786.6000000089,750788.833,754255.202,8,400,21,,ISIC_5482805.JPG
break,html.Screen,4_120_1,2023-09-18T01:21:55.557Z,,0,,,NaN,,,,,,false,,,,754247.799999997,754247.200000003,,754246.299999997,,754255.202,8,400,,,
break_continue,html.Screen,4_120_2,2023-09-18T01:21:55.557Z,,0,,,NaN,,,,,,false,,,,754248.200000003,754248.1000000089,,754247.900000006,,754255.202,8,400,,,
sequence,flow.Sequence,4_120,2023-09-18T01:21:55.557Z,,0,,,3459.2670000089565,completion,,,,,false,,,,754248.299999997,754248.1000000089,750772.524,750786.5,750788.833,754255.202,8,400,,,
trial,html.Screen,4_121_0,2023-09-18T01:21:59.320Z,,0,3,,3754.998000002932,response,ISIC_0026185.JPG,6,ISIC_0029937.JPG,ISIC_0029937.JPG,false,0,keypress(z),500,758010.799999997,758010.200000003,754238.425,754248.299999997,754255.202,758021.255,8,400,22,,ISIC_0026185.JPG
break,html.Screen,4_121_1,2023-09-18T01:21:59.322Z,,0,,,NaN,,,,,,false,,,,758013,758012.200000003,,758011.400000006,,758021.255,8,400,,,
break_continue,html.Screen,4_121_2,2023-09-18T01:21:59.323Z,,0,,,NaN,,,,,,false,,,,758014.200000003,758013.799999997,,758013.400000006,,758021.255,8,400,,,
sequence,flow.Sequence,4_121,2023-09-18T01:21:59.323Z,,0,,,3758.5979999969713,completion,,,,,false,,,,758014.700000003,758013.799999997,754238.425,754248.299999997,754255.202,758021.255,8,400,,,
trial,html.Screen,4_122_0,2023-09-18T01:22:04.503Z,,0,3,,5172.145000005956,response,ISIC_0000040.JPG,6,ISIC_8742407.JPG,ISIC_0000040.JPG,false,1,keypress(m),500,763194,763193.400000006,758004.865,758015,758021.255,763203.757,8,400,23,,ISIC_8742407.JPG
break,html.Screen,4_122_1,2023-09-18T01:22:04.505Z,,0,,,NaN,,,,,,false,,,,763196.200000003,763195.400000006,,763194.400000006,,763203.757,8,400,,,
break_continue,html.Screen,4_122_2,2023-09-18T01:22:04.506Z,,0,,,NaN,,,,,,false,,,,763197.299999997,763196.900000006,,763196.700000003,,763203.757,8,400,,,
sequence,flow.Sequence,4_122,2023-09-18T01:22:04.506Z,,0,,,5175.645000005956,completion,,,,,false,,,,763197.700000003,763196.900000006,758004.865,758014.900000006,758021.255,763203.757,8,400,,,
trial,html.Screen,4_123_0,2023-09-18T01:22:07.886Z,,0,3,,3373.1430000059772,response,ISIC_0063871.JPG,5,ISIC_4418545.JPG,ISIC_0063871.JPG,false,1,keypress(m),500,766577.400000006,766576.900000006,763187.196,763198.1000000089,763203.757,766586.612,8,400,24,,ISIC_4418545.JPG
break,html.Screen,4_123_1,2023-09-18T01:22:07.888Z,,0,,,NaN,,,,,,false,,,,766579.6000000089,766578.799999997,,766577.900000006,,766586.612,8,400,,,
break_continue,html.Screen,4_123_2,2023-09-18T01:22:07.889Z,,0,,,NaN,,,,,,false,,,,766580.700000003,766580.299999997,,766580,,766586.612,8,400,,,
sequence,flow.Sequence,4_123,2023-09-18T01:22:07.890Z,,0,,,3376.5429999970365,completion,,,,,false,,,,766581.1000000089,766580.299999997,763187.196,763198,763203.757,766586.612,8,400,,,
trial,html.Screen,4_124_0,2023-09-18T01:22:11.276Z,,0,3,,3380.288000005996,response,ISIC_0028919.JPG,5,ISIC_2197722.JPG,ISIC_2197722.JPG,false,0,keypress(z),500,769967.400000006,769966.900000006,766570.322,766581.5,766586.612,769986.76,8,400,25,,ISIC_0028919.JPG
break,html.Screen,4_124_1,2023-09-18T01:22:11.278Z,,0,,,NaN,,,,,,false,,,,769969.700000003,769968.6000000089,,769967.900000006,,769986.76,8,400,,,
break_continue,html.Screen,4_124_2,2023-09-18T01:22:11.280Z,,0,,,NaN,,,,,,false,,,,769970.900000006,769970.400000006,,769970.1000000089,,769986.76,8,400,,,
sequence,flow.Sequence,4_124,2023-09-18T01:22:11.280Z,,0,,,3383.788000005996,completion,,,,,false,,,,769971.5,769970.400000006,766570.322,766581.400000006,766586.612,769986.76,8,400,,,
trial,html.Screen,4_125_0,2023-09-18T01:22:15.509Z,,0,3,,4212.840000008931,response,ISIC_6618943.JPG,4,ISIC_8624186.JPG,ISIC_6618943.JPG,false,1,keypress(m),500,774200,774199.6000000089,769953.161,769971.900000006,769986.76,774219.828,8,400,26,,ISIC_8624186.JPG
break,html.Screen,4_125_1,2023-09-18T01:22:15.511Z,,0,,,NaN,,,,,,false,,,,774202.200000003,774201.200000003,,774200.5,,774219.828,8,400,,,
break_continue,html.Screen,4_125_2,2023-09-18T01:22:15.512Z,,0,,,NaN,,,,,,false,,,,774203.400000006,774203,,774202.700000003,,774219.828,8,400,,,
sequence,flow.Sequence,4_125,2023-09-18T01:22:15.513Z,,0,,,4216.239999999991,completion,,,,,false,,,,774204.1000000089,774203,769953.161,769971.799999997,769986.76,774219.828,8,400,,,
trial,html.Screen,4_126_0,2023-09-18T01:22:19.182Z,,0,3,,3652.9719999970403,response,ISIC_4163686.JPG,6,ISIC_0011948.JPG,ISIC_0011948.JPG,false,0,keypress(z),500,777873.200000003,777872.799999997,774185.871,774204.5,774219.828,777885.141,8,400,27,,ISIC_4163686.JPG
break,html.Screen,4_126_1,2023-09-18T01:22:19.183Z,,0,,,NaN,,,,,,false,,,,777874.6000000089,777874.1000000089,,777873.5,,777885.141,8,400,,,
break_continue,html.Screen,4_126_2,2023-09-18T01:22:19.184Z,,0,,,NaN,,,,,,false,,,,777875,777874.900000006,,777874.799999997,,777885.141,8,400,,,
