sender,sender_type,sender_id,timestamp,meta,,blockNo,condition,duration,ended_on,img_left,img_reveal,img_right,loser,practice,response,response_action,selection_duration,time_commit,time_end,time_render,time_run,time_show,time_switch,total_blocks,total_trials,trialNo,url,winner
informed_consent,html.Screen,0,2023-11-01T00:28:36.277Z,"{""labjs_version"":""20.2.4"",""labjs_build"":{""flavor"":""production"",""commit"":""f5b4a49f956347addd546a832a3327688c2c0fef""},""location"":""https://run.pavlovia.org/MurrayBennett/melanoma-2afc/?participant=66683&platform=sona"",""userAgent"":""Mozilla/5.0 (Macintosh; Intel Mac OS X 10_15_7) AppleWebKit/605.1.15 (KHTML, like Gecko) Version/16.6.1 Safari/605.1.15"",""platform"":""MacIntel"",""language"":""en-US"",""locale"":""en-US"",""timeZone"":""America/Chicago"",""timezoneOffset"":300,""screen_width"":1440,""screen_height"":900,""scroll_width"":1440,""scroll_height"":772,""window_innerWidth"":1440,""window_innerHeight"":820,""devicePixelRatio"":1}",,,,12379,response,,,,,,consent,click button,,18611,18596,6217,6204,6279,18644,,,,"{""participant"":""66683"",""platform"":""sona""}",
Welcome,html.Screen,1,2023-11-01T00:28:39.592Z,,,,uniform,3279,response,,,,,,continue,click button,,21927,21913,18634,18612.000000000004,18644,21953,,,,,
trial,html.Screen,2_0_0,2023-11-01T00:28:52.154Z,,0,0,,113676,timeout,ISIC_0025593.JPG,,ISIC_0063388.JPG,,true,,,500,34489,34488,21937,21927,21953,135629,1,6,1,,
sequence,flow.Sequence,2_0,2023-11-01T00:28:52.155Z,,0,,,12535,completion,,,,,true,,,,34489,34488,21937,21927,21953,135629,1,6,,,
trial,html.Screen,2_1_0,2023-11-01T00:30:40.613Z,,0,0,,7364,response,ISIC_0028178.JPG,,ISIC_1309015.JPG,ISIC_0028178.JPG,true,1,keypress(m),500,142947,142946,135582,34490,135629,142978,1,6,2,,ISIC_1309015.JPG
sequence,flow.Sequence,2_1,2023-11-01T00:30:40.614Z,,0,,,7317,completion,,,,,true,,,,142947,142946,135582,34489,135629,142978,1,6,,,
trial,html.Screen,2_2_0,2023-11-01T00:30:53.321Z,,0,0,,36653,timeout,ISIC_0031128.JPG,,ISIC_3314853.JPG,,true,,,500,155653,155652.00000000003,142961,142947,142978,179631,1,6,3,,
sequence,flow.Sequence,2_2,2023-11-01T00:30:53.331Z,,0,,,12674.00000000003,completion,,,,,true,,,,155664.00000000003,155652.00000000003,142961,142947,142978,179631,1,6,,,
trial,html.Screen,2_3_0,2023-11-01T00:31:23.158Z,,0,0,,5905,response,ISIC_0031612.JPG,,ISIC_8980141.JPG,ISIC_8980141.JPG,true,0,keypress(z),500,185491,185491,179586,155665,179631,185515,1,6,4,,ISIC_0031612.JPG
sequence,flow.Sequence,2_3,2023-11-01T00:31:23.159Z,,0,,,5860,completion,,,,,true,,,,185491,185491,179586,155664.00000000003,179631,185515,1,6,,,
trial,html.Screen,2_4_0,2023-11-01T00:31:31.174Z,,0,0,,8009,response,ISIC_9721604.JPG,,ISIC_1197737.JPG,ISIC_1197737.JPG,true,0,keypress(z),500,193507,193506,185497,185491,185515,193531,1,6,5,,ISIC_9721604.JPG
sequence,flow.Sequence,2_4,2023-11-01T00:31:31.174Z,,0,,,7991,completion,,,,,true,,,,193507,193506,185497,185491,185515,193531,1,6,,,
trial,html.Screen,2_5_0,2023-11-01T00:31:36.123Z,,0,0,,4940,response,ISIC_0010681.JPG,,ISIC_0025346.JPG,ISIC_0025346.JPG,true,0,keypress(z),500,198455,198455,193515,193507,193531,198481,1,6,6,,ISIC_0010681.JPG
sequence,flow.Sequence,2_5,2023-11-01T00:31:36.123Z,,0,,,4924,completion,,,,,true,,,,198455,198455,193515,193507,193531,198481,1,6,,,
loop,flow.Loop,2,2023-11-01T00:31:36.123Z,,,,,176502,completion,,,,,true,,,,198456.00000000003,198455,21937,21927,21953,198481,1,6,,,
exp_instructions,html.Screen,3,2023-11-01T00:31:46.035Z,,,,,9889,response,,,,,,continue,keypress(Space),,208367,208354,198465,198456.00000000003,198481,208399,,,,,
trial,html.Screen,4_0_0,2023-11-01T00:31:50.646Z,,0,1,,4597,response,ISIC_8579575.JPG,8,ISIC_5807608.JPG,ISIC_8579575.JPG,false,1,keypress(m),500,212978,212978,208381,208367,208399,212998,8,400,1,,ISIC_5807608.JPG
break,html.Screen,4_0_1,2023-11-01T00:31:50.647Z,,0,,,NaN,,,,,,false,,,,212979,212979,,212978,,212998,8,400,,,
break_continue,html.Screen,4_0_2,2023-11-01T00:31:50.647Z,,0,,,NaN,,,,,,false,,,,212980.00000000003,212979,,212979,,212998,8,400,,,
sequence,flow.Sequence,4_0,2023-11-01T00:31:50.647Z,,0,,,4580,completion,,,,,false,,,,212980.00000000003,212979,208381,208367,208399,212998,8,400,,,
trial,html.Screen,4_1_0,2023-11-01T00:31:54.650Z,,0,1,,4000,response,ISIC_4770073.JPG,2,ISIC_0064023.JPG,ISIC_0064023.JPG,false,0,keypress(z),500,216982,216982,212982,212980.00000000003,212998,217016,8,400,2,,ISIC_4770073.JPG
break,html.Screen,4_1_1,2023-11-01T00:31:54.650Z,,0,,,NaN,,,,,,false,,,,216983,216982,,216982,,217016,8,400,,,
break_continue,html.Screen,4_1_2,2023-11-01T00:31:54.651Z,,0,,,NaN,,,,,,false,,,,216983,216983,,216983,,217016,8,400,,,
sequence,flow.Sequence,4_1,2023-11-01T00:31:54.651Z,,0,,,3985,completion,,,,,false,,,,216983,216983,212982,212980.00000000003,212998,217016,8,400,,,
trial,html.Screen,4_2_0,2023-11-01T00:32:00.184Z,,0,1,,5517,response,ISIC_0011356.JPG,4,ISIC_7128007.JPG,ISIC_7128007.JPG,false,0,keypress(z),500,222516,222516,216999,216984,217016,222549,8,400,3,,ISIC_0011356.JPG
break,html.Screen,4_2_1,2023-11-01T00:32:00.185Z,,0,,,NaN,,,,,,false,,,,222517,222517,,222516,,222549,8,400,,,
break_continue,html.Screen,4_2_2,2023-11-01T00:32:00.185Z,,0,,,NaN,,,,,,false,,,,222517,222517,,222517,,222549,8,400,,,
sequence,flow.Sequence,4_2,2023-11-01T00:32:00.185Z,,0,,,5501,completion,,,,,false,,,,222518,222517,216999,216983,217016,222549,8,400,,,
trial,html.Screen,4_3_0,2023-11-01T00:32:04.323Z,,0,1,,4122,response,ISIC_5581297.JPG,12,ISIC_0063748.JPG,ISIC_5581297.JPG,false,1,keypress(m),500,226655,226655,222533,222518,222549,226684,8,400,4,,ISIC_0063748.JPG
break,html.Screen,4_3_1,2023-11-01T00:32:04.324Z,,0,,,NaN,,,,,,false,,,,226656,226656,,226655,,226684,8,400,,,
break_continue,html.Screen,4_3_2,2023-11-01T00:32:04.324Z,,0,,,NaN,,,,,,false,,,,226656,226656,,226656,,226684,8,400,,,
sequence,flow.Sequence,4_3,2023-11-01T00:32:04.324Z,,0,,,4107,completion,,,,,false,,,,226657,226656,222533,222518,222549,226684,8,400,,,
trial,html.Screen,4_4_0,2023-11-01T00:32:09.928Z,,0,1,,5592,response,ISIC_1605945.JPG,11,ISIC_0029913.JPG,ISIC_0029913.JPG,false,0,keypress(z),500,232260,232259,226667,226657,226684,232283,8,400,5,,ISIC_1605945.JPG
break,html.Screen,4_4_1,2023-11-01T00:32:09.928Z,,0,,,NaN,,,,,,false,,,,232261,232260,,232260,,232283,8,400,,,
break_continue,html.Screen,4_4_2,2023-11-01T00:32:09.929Z,,0,,,NaN,,,,,,false,,,,232261,232261,,232261,,232283,8,400,,,
sequence,flow.Sequence,4_4,2023-11-01T00:32:09.929Z,,0,,,5577,completion,,,,,false,,,,232261,232261,226667,226657,226684,232283,8,400,,,
trial,html.Screen,4_5_0,2023-11-01T00:32:14.350Z,,0,1,,4415.000000000029,response,ISIC_8295306.JPG,15,ISIC_0015200.JPG,ISIC_0015200.JPG,false,0,keypress(z),500,236682.00000000003,236682.00000000003,232267,232261,232283,236702,8,400,6,,ISIC_8295306.JPG
break,html.Screen,4_5_1,2023-11-01T00:32:14.351Z,,0,,,NaN,,,,,,false,,,,236683,236683,,236682.00000000003,,236702,8,400,,,
break_continue,html.Screen,4_5_2,2023-11-01T00:32:14.351Z,,0,,,NaN,,,,,,false,,,,236683,236683,,236683,,236702,8,400,,,
sequence,flow.Sequence,4_5,2023-11-01T00:32:14.352Z,,0,,,4400,completion,,,,,false,,,,236684,236683,232267,232261,232283,236702,8,400,,,
trial,html.Screen,4_6_0,2023-11-01T00:32:18.530Z,,0,1,,4177,response,ISIC_8159718.JPG,1,ISIC_0072286.JPG,ISIC_8159718.JPG,false,1,keypress(m),500,240862,240862,236685,236684,236702,240884,8,400,7,,ISIC_0072286.JPG
break,html.Screen,4_6_1,2023-11-01T00:32:18.531Z,,0,,,NaN,,,,,,false,,,,240863,240863,,240863,,240884,8,400,,,
break_continue,html.Screen,4_6_2,2023-11-01T00:32:18.532Z,,0,,,NaN,,,,,,false,,,,240864,240864,,240864,,240884,8,400,,,
sequence,flow.Sequence,4_6,2023-11-01T00:32:18.532Z,,0,,,4162,completion,,,,,false,,,,240864,240864,236685,236684,236702,240884,8,400,,,
trial,html.Screen,4_7_0,2023-11-01T00:32:22.130Z,,0,1,,3595.000000000029,response,ISIC_9301005.JPG,10,ISIC_0028319.JPG,ISIC_0028319.JPG,false,0,keypress(z),500,244462.00000000003,244462.00000000003,240867,240864,240884,244485,8,400,8,,ISIC_9301005.JPG
break,html.Screen,4_7_1,2023-11-01T00:32:22.131Z,,0,,,NaN,,,,,,false,,,,244463,244463,,244462.00000000003,,244485,8,400,,,
break_continue,html.Screen,4_7_2,2023-11-01T00:32:22.131Z,,0,,,NaN,,,,,,false,,,,244463,244463,,244463,,244485,8,400,,,
sequence,flow.Sequence,4_7,2023-11-01T00:32:22.131Z,,0,,,3579,completion,,,,,false,,,,244463,244463,240867,240864,240884,244485,8,400,,,
trial,html.Screen,4_8_0,2023-11-01T00:32:25.347Z,,0,1,,3211,response,ISIC_0073043.JPG,10,ISIC_4252285.JPG,ISIC_0073043.JPG,false,1,keypress(m),500,247679,247679,244468,244463,244485,247702,8,400,9,,ISIC_4252285.JPG
break,html.Screen,4_8_1,2023-11-01T00:32:25.347Z,,0,,,NaN,,,,,,false,,,,247679,247679,,247679,,247702,8,400,,,
break_continue,html.Screen,4_8_2,2023-11-01T00:32:25.348Z,,0,,,NaN,,,,,,false,,,,247680,247680,,247680,,247702,8,400,,,
sequence,flow.Sequence,4_8,2023-11-01T00:32:25.348Z,,0,,,3195,completion,,,,,false,,,,247680,247680,244468,244463,244485,247702,8,400,,,
trial,html.Screen,4_9_0,2023-11-01T00:32:29.360Z,,0,1,,4008,response,ISIC_0061972.JPG,2,ISIC_0014319.JPG,ISIC_0061972.JPG,false,1,keypress(m),500,251692,251692,247684,247680,247702,251718,8,400,10,,ISIC_0014319.JPG
break,html.Screen,4_9_1,2023-11-01T00:32:29.361Z,,0,,,NaN,,,,,,false,,,,251693,251692,,251692,,251718,8,400,,,
break_continue,html.Screen,4_9_2,2023-11-01T00:32:29.361Z,,0,,,NaN,,,,,,false,,,,251693,251693,,251693,,251718,8,400,,,
sequence,flow.Sequence,4_9,2023-11-01T00:32:29.361Z,,0,,,3991,completion,,,,,false,,,,251693,251693,247684,247680,247702,251718,8,400,,,
trial,html.Screen,4_10_0,2023-11-01T00:32:32.585Z,,0,1,,3216,response,ISIC_5778927.JPG,16,ISIC_0199116.JPG,ISIC_0199116.JPG,false,0,keypress(z),500,254917,254917,251701,251693,251718,254952,8,400,11,,ISIC_5778927.JPG
break,html.Screen,4_10_1,2023-11-01T00:32:32.589Z,,0,,,NaN,,,,,,false,,,,254920.00000000003,254920.00000000003,,254920.00000000003,,254952,8,400,,,
break_continue,html.Screen,4_10_2,2023-11-01T00:32:32.589Z,,0,,,NaN,,,,,,false,,,,254921,254921,,254921,,254952,8,400,,,
sequence,flow.Sequence,4_10,2023-11-01T00:32:32.589Z,,0,,,3203,completion,,,,,false,,,,254921,254921,251701,251693,251718,254952,8,400,,,
trial,html.Screen,4_11_0,2023-11-01T00:32:35.931Z,,0,1,,3328.000000000029,response,ISIC_0031325.JPG,14,ISIC_4810500.JPG,ISIC_4810500.JPG,false,0,keypress(z),500,258263.00000000003,258263.00000000003,254935,254921,254952,258285,8,400,12,,ISIC_0031325.JPG
break,html.Screen,4_11_1,2023-11-01T00:32:35.932Z,,0,,,NaN,,,,,,false,,,,258264,258264,,258263.00000000003,,258285,8,400,,,
break_continue,html.Screen,4_11_2,2023-11-01T00:32:35.932Z,,0,,,NaN,,,,,,false,,,,258264,258264,,258264,,258285,8,400,,,
sequence,flow.Sequence,4_11,2023-11-01T00:32:35.932Z,,0,,,3312,completion,,,,,false,,,,258264,258264,254935,254921,254952,258285,8,400,,,
trial,html.Screen,4_12_0,2023-11-01T00:32:44.500Z,,0,1,,8563,response,ISIC_7519627.JPG,7,ISIC_5768749.JPG,ISIC_5768749.JPG,false,0,keypress(z),500,266832,266832,258269,258264,258285,266852,8,400,13,,ISIC_7519627.JPG
break,html.Screen,4_12_1,2023-11-01T00:32:44.501Z,,0,,,NaN,,,,,,false,,,,266832,266832,,266832,,266852,8,400,,,
break_continue,html.Screen,4_12_2,2023-11-01T00:32:44.501Z,,0,,,NaN,,,,,,false,,,,266833,266833,,266833,,266852,8,400,,,
sequence,flow.Sequence,4_12,2023-11-01T00:32:44.501Z,,0,,,8548,completion,,,,,false,,,,266833,266833,258269,258264,258285,266852,8,400,,,
trial,html.Screen,4_13_0,2023-11-01T00:32:47.426Z,,0,1,,2922,response,ISIC_9232615.JPG,7,ISIC_2131707.JPG,ISIC_9232615.JPG,false,1,keypress(m),500,269758,269758,266836,266833,266852,269787,8,400,14,,ISIC_2131707.JPG
break,html.Screen,4_13_1,2023-11-01T00:32:47.427Z,,0,,,NaN,,,,,,false,,,,269759,269758,,269758,,269787,8,400,,,
break_continue,html.Screen,4_13_2,2023-11-01T00:32:47.427Z,,0,,,NaN,,,,,,false,,,,269759,269759,,269759,,269787,8,400,,,
sequence,flow.Sequence,4_13,2023-11-01T00:32:47.427Z,,0,,,2907,completion,,,,,false,,,,269759,269759,266836,266833,266852,269787,8,400,,,
trial,html.Screen,4_14_0,2023-11-01T00:32:50.485Z,,0,1,,3048,response,ISIC_0065346.JPG,12,ISIC_6618943.JPG,ISIC_0065346.JPG,false,1,keypress(m),500,272817,272817,269769,269759,269787,272853,8,400,15,,ISIC_6618943.JPG
break,html.Screen,4_14_1,2023-11-01T00:32:50.486Z,,0,,,NaN,,,,,,false,,,,272818,272817,,272817,,272853,8,400,,,
break_continue,html.Screen,4_14_2,2023-11-01T00:32:50.486Z,,0,,,NaN,,,,,,false,,,,272818,272818,,272818,,272853,8,400,,,
sequence,flow.Sequence,4_14,2023-11-01T00:32:50.486Z,,0,,,3031,completion,,,,,false,,,,272818,272818,269769,269759,269787,272853,8,400,,,
trial,html.Screen,4_15_0,2023-11-01T00:32:55.983Z,,0,1,,5477,response,ISIC_4197990.JPG,13,ISIC_0030663.JPG,ISIC_4197990.JPG,false,1,keypress(m),500,278314,278314,272837,272818,272853,278336,8,400,16,,ISIC_0030663.JPG
break,html.Screen,4_15_1,2023-11-01T00:32:55.983Z,,0,,,NaN,,,,,,false,,,,278315,278315,,278315,,278336,8,400,,,
break_continue,html.Screen,4_15_2,2023-11-01T00:32:55.984Z,,0,,,NaN,,,,,,false,,,,278315,278315,,278315,,278336,8,400,,,
sequence,flow.Sequence,4_15,2023-11-01T00:32:55.984Z,,0,,,5462,completion,,,,,false,,,,278315,278315,272837,272818,272853,278336,8,400,,,
trial,html.Screen,4_16_0,2023-11-01T00:32:59.074Z,,0,1,,3085.000000000058,response,ISIC_0025472.JPG,15,ISIC_0034316.JPG,ISIC_0034316.JPG,false,0,keypress(z),500,281405.00000000006,281405.00000000006,278320,278316.00000000006,278336,281437,8,400,17,,ISIC_0025472.JPG
break,html.Screen,4_16_1,2023-11-01T00:32:59.075Z,,0,,,NaN,,,,,,false,,,,281406,281406,,281406,,281437,8,400,,,
break_continue,html.Screen,4_16_2,2023-11-01T00:32:59.075Z,,0,,,NaN,,,,,,false,,,,281406,281406,,281406,,281437,8,400,,,
sequence,flow.Sequence,4_16,2023-11-01T00:32:59.075Z,,0,,,3070,completion,,,,,false,,,,281407,281406,278320,278315,278336,281437,8,400,,,
trial,html.Screen,4_17_0,2023-11-01T00:33:02.261Z,,0,1,,3172,response,ISIC_0033519.JPG,13,ISIC_0482585.JPG,ISIC_0033519.JPG,false,1,keypress(m),500,284592,284592,281420,281407,281437,284621,8,400,18,,ISIC_0482585.JPG
break,html.Screen,4_17_1,2023-11-01T00:33:02.261Z,,0,,,NaN,,,,,,false,,,,284593,284593,,284592,,284621,8,400,,,
break_continue,html.Screen,4_17_2,2023-11-01T00:33:02.262Z,,0,,,NaN,,,,,,false,,,,284593,284593,,284593,,284621,8,400,,,
sequence,flow.Sequence,4_17,2023-11-01T00:33:02.262Z,,0,,,3156,completion,,,,,false,,,,284593,284593,281420,281407,281437,284621,8,400,,,
trial,html.Screen,4_18_0,2023-11-01T00:33:05.631Z,,0,1,,3359,response,ISIC_5335139.JPG,11,ISIC_7648726.JPG,ISIC_7648726.JPG,false,0,keypress(z),500,287962,287962,284603,284593,284621,287988,8,400,19,,ISIC_5335139.JPG
break,html.Screen,4_18_1,2023-11-01T00:33:05.632Z,,0,,,NaN,,,,,,false,,,,287963,287963,,287962,,287988,8,400,,,
break_continue,html.Screen,4_18_2,2023-11-01T00:33:05.632Z,,0,,,NaN,,,,,,false,,,,287963,287963,,287963,,287988,8,400,,,
sequence,flow.Sequence,4_18,2023-11-01T00:33:05.632Z,,0,,,3342,completion,,,,,false,,,,287964,287963,284603,284593,284621,287988,8,400,,,
trial,html.Screen,4_19_0,2023-11-01T00:33:08.443Z,,0,1,,2803,response,ISIC_0046618.JPG,7,ISIC_0058891.JPG,ISIC_0046618.JPG,false,1,keypress(m),500,290775.00000000006,290774,287971,287964,287988,290804,8,400,20,,ISIC_0058891.JPG
break,html.Screen,4_19_1,2023-11-01T00:33:08.444Z,,0,,,NaN,,,,,,false,,,,290775.00000000006,290775.00000000006,,290775.00000000006,,290804,8,400,,,
break_continue,html.Screen,4_19_2,2023-11-01T00:33:08.444Z,,0,,,NaN,,,,,,false,,,,290776,290775.00000000006,,290775.00000000006,,290804,8,400,,,
sequence,flow.Sequence,4_19,2023-11-01T00:33:08.444Z,,0,,,2787.000000000058,completion,,,,,false,,,,290776,290775.00000000006,287971,287964,287988,290804,8,400,,,
trial,html.Screen,4_20_0,2023-11-01T00:33:11.293Z,,0,1,,2836,response,ISIC_6008974.JPG,14,ISIC_1974281.JPG,ISIC_1974281.JPG,false,0,keypress(z),500,293624,293624,290788,290776,290804,293654,8,400,21,,ISIC_6008974.JPG
break,html.Screen,4_20_1,2023-11-01T00:33:11.294Z,,0,,,NaN,,,,,,false,,,,293625,293625,,293624,,293654,8,400,,,
break_continue,html.Screen,4_20_2,2023-11-01T00:33:11.294Z,,0,,,NaN,,,,,,false,,,,293626.00000000006,293625,,293625,,293654,8,400,,,
sequence,flow.Sequence,4_20,2023-11-01T00:33:11.294Z,,0,,,2821,completion,,,,,false,,,,293626.00000000006,293625,290788,290776,290804,293654,8,400,,,
trial,html.Screen,4_21_0,2023-11-01T00:33:14.757Z,,0,1,,3450,response,ISIC_3273370.JPG,11,ISIC_3586669.JPG,ISIC_3586669.JPG,false,0,keypress(z),500,297088,297088,293638,293626.00000000006,293654,297122,8,400,22,,ISIC_3273370.JPG
break,html.Screen,4_21_1,2023-11-01T00:33:14.757Z,,0,,,NaN,,,,,,false,,,,297089,297089,,297088,,297122,8,400,,,
break_continue,html.Screen,4_21_2,2023-11-01T00:33:14.758Z,,0,,,NaN,,,,,,false,,,,297089,297089,,297089,,297122,8,400,,,
sequence,flow.Sequence,4_21,2023-11-01T00:33:14.758Z,,0,,,3435,completion,,,,,false,,,,297089,297089,293638,293626.00000000006,293654,297122,8,400,,,
trial,html.Screen,4_22_0,2023-11-01T00:33:17.360Z,,0,1,,2587,response,ISIC_4187485.JPG,7,ISIC_0239178.JPG,ISIC_4187485.JPG,false,1,keypress(m),500,299692,299692,297105,297089,297122,299721,8,400,23,,ISIC_0239178.JPG
break,html.Screen,4_22_1,2023-11-01T00:33:17.361Z,,0,,,NaN,,,,,,false,,,,299692,299692,,299692,,299721,8,400,,,
break_continue,html.Screen,4_22_2,2023-11-01T00:33:17.362Z,,0,,,NaN,,,,,,false,,,,299693,299693,,299693,,299721,8,400,,,
sequence,flow.Sequence,4_22,2023-11-01T00:33:17.362Z,,0,,,2571,completion,,,,,false,,,,299693,299693,297105,297089,297122,299721,8,400,,,
trial,html.Screen,4_23_0,2023-11-01T00:33:20.056Z,,0,1,,2681,response,ISIC_0026921.JPG,0,ISIC_9696846.JPG,ISIC_0026921.JPG,false,1,keypress(m),500,302388.00000000006,302387,299706,299693,299721,302423,8,400,24,,ISIC_9696846.JPG
break,html.Screen,4_23_1,2023-11-01T00:33:20.057Z,,0,,,NaN,,,,,,false,,,,302388.00000000006,302388.00000000006,,302388.00000000006,,302423,8,400,,,
break_continue,html.Screen,4_23_2,2023-11-01T00:33:20.057Z,,0,,,NaN,,,,,,false,,,,302389,302388.00000000006,,302388.00000000006,,302423,8,400,,,
sequence,flow.Sequence,4_23,2023-11-01T00:33:20.057Z,,0,,,2667.000000000058,completion,,,,,false,,,,302389,302388.00000000006,299706,299693,299721,302423,8,400,,,
trial,html.Screen,4_24_0,2023-11-01T00:33:23.290Z,,0,1,,3216,response,ISIC_3305055.JPG,7,ISIC_1071355.JPG,ISIC_3305055.JPG,false,1,keypress(m),500,305621,305621,302405,302389,302423,305656,8,400,25,,ISIC_1071355.JPG
break,html.Screen,4_24_1,2023-11-01T00:33:23.290Z,,0,,,NaN,,,,,,false,,,,305622,305622,,305621,,305656,8,400,,,
break_continue,html.Screen,4_24_2,2023-11-01T00:33:23.291Z,,0,,,NaN,,,,,,false,,,,305622,305622,,305622,,305656,8,400,,,
sequence,flow.Sequence,4_24,2023-11-01T00:33:23.291Z,,0,,,3199,completion,,,,,false,,,,305622,305622,302405,302389,302423,305656,8,400,,,
trial,html.Screen,4_25_0,2023-11-01T00:33:26.291Z,,0,1,,2984,response,ISIC_4724660.JPG,0,ISIC_0009924.JPG,ISIC_4724660.JPG,false,1,keypress(m),500,308622,308622,305638,305622,305656,308655,8,400,26,,ISIC_0009924.JPG
break,html.Screen,4_25_1,2023-11-01T00:33:26.291Z,,0,,,NaN,,,,,,false,,,,308623,308623,,308622,,308655,8,400,,,
break_continue,html.Screen,4_25_2,2023-11-01T00:33:26.292Z,,0,,,NaN,,,,,,false,,,,308623,308623,,308623,,308655,8,400,,,
sequence,flow.Sequence,4_25,2023-11-01T00:33:26.292Z,,0,,,2967,completion,,,,,false,,,,308623,308623,305638,305622,305656,308655,8,400,,,
trial,html.Screen,4_26_0,2023-11-01T00:33:29.276Z,,0,1,,2968,response,ISIC_0010915.JPG,14,ISIC_0032473.JPG,ISIC_0032473.JPG,false,0,keypress(z),500,311607,311607,308639,308623,308655,311639,8,400,27,,ISIC_0010915.JPG
break,html.Screen,4_26_1,2023-11-01T00:33:29.277Z,,0,,,NaN,,,,,,false,,,,311608,311608,,311608,,311639,8,400,,,
break_continue,html.Screen,4_26_2,2023-11-01T00:33:29.277Z,,0,,,NaN,,,,,,false,,,,311609,311608,,311608,,311639,8,400,,,
sequence,flow.Sequence,4_26,2023-11-01T00:33:29.278Z,,0,,,2953,completion,,,,,false,,,,311609,311608,308639,308623,308655,311639,8,400,,,
trial,html.Screen,4_27_0,2023-11-01T00:33:40.792Z,,0,1,,11518,timeout,ISIC_0029081.JPG,10,ISIC_5793600.JPG,,false,,,500,323123,323123,311623,311609,311639,323157,8,400,28,,
break,html.Screen,4_27_1,2023-11-01T00:33:40.793Z,,0,,,NaN,,,,,,false,,,,323124,323124,,323123,,323157,8,400,,,
break_continue,html.Screen,4_27_2,2023-11-01T00:33:40.793Z,,0,,,NaN,,,,,,false,,,,323124,323124,,323124,,323157,8,400,,,
sequence,flow.Sequence,4_27,2023-11-01T00:33:40.793Z,,0,,,11485,completion,,,,,false,,,,323124,323124,311623,311609,311639,323157,8,400,,,
trial,html.Screen,4_28_0,2023-11-01T00:33:44.496Z,,0,1,,3686,response,ISIC_4271108.JPG,8,ISIC_5736979.JPG,ISIC_5736979.JPG,false,0,keypress(z),500,326827,326826,323140,323124,323157,326857,8,400,29,,ISIC_4271108.JPG
break,html.Screen,4_28_1,2023-11-01T00:33:44.496Z,,0,,,NaN,,,,,,false,,,,326827,326827,,326827,,326857,8,400,,,
break_continue,html.Screen,4_28_2,2023-11-01T00:33:44.496Z,,0,,,NaN,,,,,,false,,,,326827,326827,,326827,,326857,8,400,,,
sequence,flow.Sequence,4_28,2023-11-01T00:33:44.497Z,,0,,,3670,completion,,,,,false,,,,326828.00000000006,326827,323140,323124,323157,326857,8,400,,,
trial,html.Screen,4_29_0,2023-11-01T00:33:48.434Z,,0,1,,3925,response,ISIC_0015443.JPG,15,ISIC_0030291.JPG,ISIC_0015443.JPG,false,1,keypress(m),500,330765,330765,326840,326828.00000000006,326857,330791,8,400,30,,ISIC_0030291.JPG
break,html.Screen,4_29_1,2023-11-01T00:33:48.435Z,,0,,,NaN,,,,,,false,,,,330766,330766,,330765,,330791,8,400,,,
break_continue,html.Screen,4_29_2,2023-11-01T00:33:48.435Z,,0,,,NaN,,,,,,false,,,,330766,330766,,330766,,330791,8,400,,,
sequence,flow.Sequence,4_29,2023-11-01T00:33:48.435Z,,0,,,3909,completion,,,,,false,,,,330766,330766,326840,326828.00000000006,326857,330791,8,400,,,
trial,html.Screen,4_30_0,2023-11-01T00:33:59.945Z,,0,1,,11517,timeout,ISIC_0283541.JPG,13,ISIC_0062389.JPG,,false,,,500,342275.00000000006,342275.00000000006,330774,330766,330791,342308,8,400,31,,
break,html.Screen,4_30_1,2023-11-01T00:33:59.945Z,,0,,,NaN,,,,,,false,,,,342276,342276,,342276,,342308,8,400,,,
break_continue,html.Screen,4_30_2,2023-11-01T00:33:59.945Z,,0,,,NaN,,,,,,false,,,,342276,342276,,342276,,342308,8,400,,,
sequence,flow.Sequence,4_30,2023-11-01T00:33:59.945Z,,0,,,11485,completion,,,,,false,,,,342276,342276,330774,330766,330791,342308,8,400,,,
trial,html.Screen,4_31_0,2023-11-01T00:34:07.962Z,,0,1,,8001.000000000058,response,ISIC_0033473.JPG,11,ISIC_9917640.JPG,ISIC_0033473.JPG,false,1,keypress(m),500,350292.00000000006,350292.00000000006,342291,342276,342308,350325,8,400,32,,ISIC_9917640.JPG
break,html.Screen,4_31_1,2023-11-01T00:34:07.963Z,,0,,,NaN,,,,,,false,,,,350293,350293,,350293,,350325,8,400,,,
break_continue,html.Screen,4_31_2,2023-11-01T00:34:07.963Z,,0,,,NaN,,,,,,false,,,,350294,350294,,350293,,350325,8,400,,,
sequence,flow.Sequence,4_31,2023-11-01T00:34:07.963Z,,0,,,7986,completion,,,,,false,,,,350294,350294,342291,342276,342308,350325,8,400,,,
trial,html.Screen,4_32_0,2023-11-01T00:34:11.176Z,,0,1,,3199,response,ISIC_3702669.JPG,9,ISIC_0069705.JPG,ISIC_0069705.JPG,false,0,keypress(z),500,353507,353507,350308,350294,350325,353542,8,400,33,,ISIC_3702669.JPG
break,html.Screen,4_32_1,2023-11-01T00:34:11.177Z,,0,,,NaN,,,,,,false,,,,353507,353507,,353507,,353542,8,400,,,
break_continue,html.Screen,4_32_2,2023-11-01T00:34:11.177Z,,0,,,NaN,,,,,,false,,,,353508,353508,,353508,,353542,8,400,,,
sequence,flow.Sequence,4_32,2023-11-01T00:34:11.177Z,,0,,,3183,completion,,,,,false,,,,353508,353508,350308,350294,350325,353542,8,400,,,
trial,html.Screen,4_33_0,2023-11-01T00:34:14.482Z,,0,1,,3287,response,ISIC_6507792.JPG,1,ISIC_0004042.JPG,ISIC_6507792.JPG,false,1,keypress(m),500,356812,356812,353525,353508,353542,356842,8,400,34,,ISIC_0004042.JPG
break,html.Screen,4_33_1,2023-11-01T00:34:14.482Z,,0,,,NaN,,,,,,false,,,,356813,356813,,356812,,356842,8,400,,,
break_continue,html.Screen,4_33_2,2023-11-01T00:34:14.483Z,,0,,,NaN,,,,,,false,,,,356813,356813,,356813,,356842,8,400,,,
sequence,flow.Sequence,4_33,2023-11-01T00:34:14.483Z,,0,,,3271,completion,,,,,false,,,,356813,356813,353525,353508,353542,356842,8,400,,,
trial,html.Screen,4_34_0,2023-11-01T00:34:18.190Z,,0,1,,3695,response,ISIC_4536709.JPG,0,ISIC_0033232.JPG,ISIC_0033232.JPG,false,0,keypress(z),500,360520,360520,356825,356813,356842,360542,8,400,35,,ISIC_4536709.JPG
break,html.Screen,4_34_1,2023-11-01T00:34:18.190Z,,0,,,NaN,,,,,,false,,,,360521,360521,,360521,,360542,8,400,,,
break_continue,html.Screen,4_34_2,2023-11-01T00:34:18.191Z,,0,,,NaN,,,,,,false,,,,360521,360521,,360521,,360542,8,400,,,
sequence,flow.Sequence,4_34,2023-11-01T00:34:18.191Z,,0,,,3679,completion,,,,,false,,,,360522,360521,356825,356813,356842,360542,8,400,,,
trial,html.Screen,4_35_0,2023-11-01T00:34:21.601Z,,0,1,,3407,response,ISIC_4521222.JPG,16,ISIC_6759173.JPG,ISIC_4521222.JPG,false,1,keypress(m),500,363932,363932,360525,360522,360542,363960,8,400,36,,ISIC_6759173.JPG
break,html.Screen,4_35_1,2023-11-01T00:34:21.602Z,,0,,,NaN,,,,,,false,,,,363932,363932,,363932,,363960,8,400,,,
break_continue,html.Screen,4_35_2,2023-11-01T00:34:21.602Z,,0,,,NaN,,,,,,false,,,,363933,363933,,363933,,363960,8,400,,,
sequence,flow.Sequence,4_35,2023-11-01T00:34:21.602Z,,0,,,3391,completion,,,,,false,,,,363933,363933,360525,360522,360542,363960,8,400,,,
trial,html.Screen,4_36_0,2023-11-01T00:34:24.875Z,,0,1,,3264,response,ISIC_7260492.JPG,15,ISIC_0011434.JPG,ISIC_0011434.JPG,false,0,keypress(z),500,367206,367206,363942,363933,363960,367242,8,400,37,,ISIC_7260492.JPG
break,html.Screen,4_36_1,2023-11-01T00:34:24.876Z,,0,,,NaN,,,,,,false,,,,367207,367206,,367206,,367242,8,400,,,
break_continue,html.Screen,4_36_2,2023-11-01T00:34:24.876Z,,0,,,NaN,,,,,,false,,,,367207,367207,,367207,,367242,8,400,,,
sequence,flow.Sequence,4_36,2023-11-01T00:34:24.876Z,,0,,,3247,completion,,,,,false,,,,367207,367207,363942,363933,363960,367242,8,400,,,
trial,html.Screen,4_37_0,2023-11-01T00:34:27.898Z,,0,1,,3003,response,ISIC_0003132.JPG,3,ISIC_2050512.JPG,ISIC_0003132.JPG,false,1,keypress(m),500,370229,370229,367226,367207,367242,370259,8,400,38,,ISIC_2050512.JPG
break,html.Screen,4_37_1,2023-11-01T00:34:27.899Z,,0,,,NaN,,,,,,false,,,,370230,370229,,370229,,370259,8,400,,,
break_continue,html.Screen,4_37_2,2023-11-01T00:34:27.899Z,,0,,,NaN,,,,,,false,,,,370230,370230,,370230,,370259,8,400,,,
sequence,flow.Sequence,4_37,2023-11-01T00:34:27.900Z,,0,,,2988,completion,,,,,false,,,,370230,370230,367226,367207,367242,370259,8,400,,,
trial,html.Screen,4_38_0,2023-11-01T00:34:31.356Z,,0,1,,3442.000000000058,response,ISIC_3948754.JPG,15,ISIC_7050122.JPG,ISIC_7050122.JPG,false,0,keypress(z),500,373687,373686.00000000006,370244,370230,370259,373710,8,400,39,,ISIC_3948754.JPG
break,html.Screen,4_38_1,2023-11-01T00:34:31.357Z,,0,,,NaN,,,,,,false,,,,373687,373687,,373687,,373710,8,400,,,
break_continue,html.Screen,4_38_2,2023-11-01T00:34:31.357Z,,0,,,NaN,,,,,,false,,,,373687,373687,,373687,,373710,8,400,,,
sequence,flow.Sequence,4_38,2023-11-01T00:34:31.357Z,,0,,,3428,completion,,,,,false,,,,373688,373687,370244,370230,370259,373710,8,400,,,
trial,html.Screen,4_39_0,2023-11-01T00:34:34.894Z,,0,1,,3531,response,ISIC_4981135.JPG,7,ISIC_4407580.JPG,ISIC_4407580.JPG,false,0,keypress(z),500,377224,377224,373693,373688,373710,377243,8,400,40,,ISIC_4981135.JPG
break,html.Screen,4_39_1,2023-11-01T00:34:34.894Z,,0,,,NaN,,,,,,false,,,,377224,377224,,377224,,377243,8,400,,,
break_continue,html.Screen,4_39_2,2023-11-01T00:34:34.894Z,,0,,,NaN,,,,,,false,,,,377225,377225,,377225,,377243,8,400,,,
sequence,flow.Sequence,4_39,2023-11-01T00:34:34.894Z,,0,,,3515,completion,,,,,false,,,,377225,377225,373693,373688,373710,377243,8,400,,,
trial,html.Screen,4_40_0,2023-11-01T00:34:38.120Z,,0,1,,3223,response,ISIC_0027260.JPG,15,ISIC_6384927.JPG,ISIC_0027260.JPG,false,1,keypress(m),500,380450,380450,377227,377225,377243,380477,8,400,41,,ISIC_6384927.JPG
break,html.Screen,4_40_1,2023-11-01T00:34:38.120Z,,0,,,NaN,,,,,,false,,,,380451,380451,,380450,,380477,8,400,,,
break_continue,html.Screen,4_40_2,2023-11-01T00:34:38.121Z,,0,,,NaN,,,,,,false,,,,380451,380451,,380451,,380477,8,400,,,
sequence,flow.Sequence,4_40,2023-11-01T00:34:38.121Z,,0,,,3208,completion,,,,,false,,,,380451,380451,377227,377225,377243,380477,8,400,,,
trial,html.Screen,4_41_0,2023-11-01T00:34:41.167Z,,0,1,,3037,response,ISIC_7724764.JPG,10,ISIC_0028211.JPG,ISIC_0028211.JPG,false,0,keypress(z),500,383498,383498,380461,380451,380477,383527,8,400,42,,ISIC_7724764.JPG
break,html.Screen,4_41_1,2023-11-01T00:34:41.168Z,,0,,,NaN,,,,,,false,,,,383498,383498,,383498,,383527,8,400,,,
break_continue,html.Screen,4_41_2,2023-11-01T00:34:41.168Z,,0,,,NaN,,,,,,false,,,,383499,383498,,383498,,383527,8,400,,,
sequence,flow.Sequence,4_41,2023-11-01T00:34:41.168Z,,0,,,3021,completion,,,,,false,,,,383499,383498,380461,380451,380477,383527,8,400,,,
trial,html.Screen,4_42_0,2023-11-01T00:34:44.212Z,,0,1,,3033,response,ISIC_0058303.JPG,9,ISIC_5087951.JPG,ISIC_0058303.JPG,false,1,keypress(m),500,386543,386543,383510,383499,383527,386577,8,400,43,,ISIC_5087951.JPG
break,html.Screen,4_42_1,2023-11-01T00:34:44.213Z,,0,,,NaN,,,,,,false,,,,386543,386543,,386543,,386577,8,400,,,
break_continue,html.Screen,4_42_2,2023-11-01T00:34:44.213Z,,0,,,NaN,,,,,,false,,,,386544,386544,,386543,,386577,8,400,,,
sequence,flow.Sequence,4_42,2023-11-01T00:34:44.213Z,,0,,,3017,completion,,,,,false,,,,386544,386544,383510,383499,383527,386577,8,400,,,
trial,html.Screen,4_43_0,2023-11-01T00:34:47.448Z,,0,1,,3217,response,ISIC_3967213.JPG,0,ISIC_5823859.JPG,ISIC_5823859.JPG,false,0,keypress(z),500,389779,389778,386561,386544,386577,389811,8,400,44,,ISIC_3967213.JPG
break,html.Screen,4_43_1,2023-11-01T00:34:47.449Z,,0,,,NaN,,,,,,false,,,,389779,389779,,389779,,389811,8,400,,,
break_continue,html.Screen,4_43_2,2023-11-01T00:34:47.449Z,,0,,,NaN,,,,,,false,,,,389779,389779,,389779,,389811,8,400,,,
sequence,flow.Sequence,4_43,2023-11-01T00:34:47.449Z,,0,,,3202,completion,,,,,false,,,,389780.00000000006,389779,386561,386544,386577,389811,8,400,,,
trial,html.Screen,4_44_0,2023-11-01T00:34:51.890Z,,0,1,,4426,response,ISIC_0580054.JPG,15,ISIC_0016081.JPG,ISIC_0016081.JPG,false,0,keypress(z),500,394220,394220,389794,389780.00000000006,389811,394245,8,400,45,,ISIC_0580054.JPG
break,html.Screen,4_44_1,2023-11-01T00:34:51.890Z,,0,,,NaN,,,,,,false,,,,394221,394220,,394220,,394245,8,400,,,
break_continue,html.Screen,4_44_2,2023-11-01T00:34:51.890Z,,0,,,NaN,,,,,,false,,,,394221,394221,,394221,,394245,8,400,,,
sequence,flow.Sequence,4_44,2023-11-01T00:34:51.891Z,,0,,,4410,completion,,,,,false,,,,394221,394221,389794,389780.00000000006,389811,394245,8,400,,,
trial,html.Screen,4_45_0,2023-11-01T00:34:57.622Z,,0,1,,5724,response,ISIC_7147713.JPG,16,ISIC_2287083.JPG,ISIC_7147713.JPG,false,1,keypress(m),500,399952,399952,394228,394221,394245,399978,8,400,46,,ISIC_2287083.JPG
break,html.Screen,4_45_1,2023-11-01T00:34:57.623Z,,0,,,NaN,,,,,,false,,,,399953.00000000006,399953.00000000006,,399953.00000000006,,399978,8,400,,,
break_continue,html.Screen,4_45_2,2023-11-01T00:34:57.623Z,,0,,,NaN,,,,,,false,,,,399953.00000000006,399953.00000000006,,399953.00000000006,,399978,8,400,,,
sequence,flow.Sequence,4_45,2023-11-01T00:34:57.623Z,,0,,,5708.000000000058,completion,,,,,false,,,,399954,399953.00000000006,394228,394221,394245,399978,8,400,,,
trial,html.Screen,4_46_0,2023-11-01T00:35:09.133Z,,0,1,,11517,timeout,ISIC_0068000.JPG,15,ISIC_0071118.JPG,,false,,,500,411463,411463,399962,399954,399978,411495,8,400,47,,
break,html.Screen,4_46_1,2023-11-01T00:35:09.134Z,,0,,,NaN,,,,,,false,,,,411464,411464,,411464,,411495,8,400,,,
break_continue,html.Screen,4_46_2,2023-11-01T00:35:09.134Z,,0,,,NaN,,,,,,false,,,,411464,411464,,411464,,411495,8,400,,,
sequence,flow.Sequence,4_46,2023-11-01T00:35:09.134Z,,0,,,11486,completion,,,,,false,,,,411464,411464,399962,399954,399978,411495,8,400,,,
trial,html.Screen,4_47_0,2023-11-01T00:35:12.280Z,,0,1,,3129,response,ISIC_0033318.JPG,16,ISIC_0001110.JPG,ISIC_0033318.JPG,false,1,keypress(m),500,414610,414609,411480,411464,411495,414646,8,400,48,,ISIC_0001110.JPG
break,html.Screen,4_47_1,2023-11-01T00:35:12.280Z,,0,,,NaN,,,,,,false,,,,414610,414610,,414610,,414646,8,400,,,
break_continue,html.Screen,4_47_2,2023-11-01T00:35:12.280Z,,0,,,NaN,,,,,,false,,,,414610,414610,,414610,,414646,8,400,,,
sequence,flow.Sequence,4_47,2023-11-01T00:35:12.280Z,,0,,,3115,completion,,,,,false,,,,414610,414610,411480,411464,411495,414646,8,400,,,
trial,html.Screen,4_48_0,2023-11-01T00:35:15.644Z,,0,1,,3344,response,ISIC_4846741.JPG,6,ISIC_4579262.JPG,ISIC_4579262.JPG,false,0,keypress(z),500,417974,417973,414629,414611,414646,417998,8,400,49,,ISIC_4846741.JPG
break,html.Screen,4_48_1,2023-11-01T00:35:15.644Z,,0,,,NaN,,,,,,false,,,,417974,417974,,417974,,417998,8,400,,,
break_continue,html.Screen,4_48_2,2023-11-01T00:35:15.645Z,,0,,,NaN,,,,,,false,,,,417975,417974,,417974,,417998,8,400,,,
sequence,flow.Sequence,4_48,2023-11-01T00:35:15.645Z,,0,,,3328,completion,,,,,false,,,,417975,417974,414629,414611,414646,417998,8,400,,,
trial,html.Screen,4_49_0,2023-11-01T00:35:18.530Z,,0,1,,2881,response,ISIC_9363106.JPG,9,ISIC_0005360.JPG,ISIC_9363106.JPG,false,1,keypress(m),500,420860,420860,417979,417975,417998,420896,8,400,50,,ISIC_0005360.JPG
break,html.Screen,4_49_1,2023-11-01T00:35:28.551Z,,0,,,10001,timeout,,,,,false,,,,430881,430881,420879,420860,420896,430897,8,400,,,
break_continue,html.Screen,4_49_2,2023-11-01T00:35:54.410Z,,0,,,25839,response,,,,,false,continue,keypress(Space),,456740,456720,430881,430881,430897,456765,8,400,,,
sequence,flow.Sequence,4_49,2023-11-01T00:35:54.410Z,,0,,,38722,completion,,,,,false,,,,456740,456720,417979,417975,417998,456765,8,400,,,
trial,html.Screen,4_50_0,2023-11-01T00:35:58.058Z,,0,2,,3639,response,ISIC_3767325.JPG,5,ISIC_4189981.JPG,ISIC_4189981.JPG,false,0,keypress(z),500,460387,460387,456748,456740,456765,460415,8,400,1,,ISIC_3767325.JPG
break,html.Screen,4_50_1,2023-11-01T00:35:58.058Z,,0,,,NaN,,,,,,false,,,,460388.00000000006,460388.00000000006,,460387,,460415,8,400,,,
break_continue,html.Screen,4_50_2,2023-11-01T00:35:58.059Z,,0,,,NaN,,,,,,false,,,,460388.00000000006,460388.00000000006,,460388.00000000006,,460415,8,400,,,
sequence,flow.Sequence,4_50,2023-11-01T00:35:58.059Z,,0,,,3623.000000000058,completion,,,,,false,,,,460388.00000000006,460388.00000000006,456748,456740,456765,460415,8,400,,,
trial,html.Screen,4_51_0,2023-11-01T00:36:01.695Z,,0,2,,3570,response,ISIC_0059769.JPG,48,ISIC_0026745.JPG,ISIC_0026745.JPG,false,0,keypress(z),500,463969,463969,460399,460388.00000000006,460415,464000,8,400,2,,ISIC_0059769.JPG
break,html.Screen,4_51_1,2023-11-01T00:36:01.696Z,,0,,,NaN,,,,,,false,,,,463970,463969,,463969,,464000,8,400,,,
break_continue,html.Screen,4_51_2,2023-11-01T00:36:01.696Z,,0,,,NaN,,,,,,false,,,,463970,463970,,463970,,464000,8,400,,,
sequence,flow.Sequence,4_51,2023-11-01T00:36:01.696Z,,0,,,3555,completion,,,,,false,,,,463970,463970,460399,460388.00000000006,460415,464000,8,400,,,
trial,html.Screen,4_52_0,2023-11-01T00:36:06.228Z,,0,2,,4516.000000000058,response,ISIC_7035368.JPG,2,ISIC_9745492.JPG,ISIC_7035368.JPG,false,1,keypress(m),500,468501.00000000006,468501.00000000006,463985,463970,464000,468534,8,400,3,,ISIC_9745492.JPG
break,html.Screen,4_52_1,2023-11-01T00:36:06.229Z,,0,,,NaN,,,,,,false,,,,468502,468502,,468502,,468534,8,400,,,
break_continue,html.Screen,4_52_2,2023-11-01T00:36:06.229Z,,0,,,NaN,,,,,,false,,,,468502,468502,,468502,,468534,8,400,,,
sequence,flow.Sequence,4_52,2023-11-01T00:36:06.229Z,,0,,,4502,completion,,,,,false,,,,468502,468502,463985,463970,464000,468534,8,400,,,
trial,html.Screen,4_53_0,2023-11-01T00:36:09.616Z,,0,2,,3372,response,ISIC_2776906.JPG,5,ISIC_0033473.JPG,ISIC_2776906.JPG,false,1,keypress(m),500,471889,471889,468517,468503,468534,471916,8,400,4,,ISIC_0033473.JPG
break,html.Screen,4_53_1,2023-11-01T00:36:09.617Z,,0,,,NaN,,,,,,false,,,,471890,471890,,471889,,471916,8,400,,,
break_continue,html.Screen,4_53_2,2023-11-01T00:36:09.617Z,,0,,,NaN,,,,,,false,,,,471890,471890,,471890,,471916,8,400,,,
sequence,flow.Sequence,4_53,2023-11-01T00:36:09.617Z,,0,,,3356,completion,,,,,false,,,,471891,471890,468517,468502,468534,471916,8,400,,,
trial,html.Screen,4_54_0,2023-11-01T00:36:13.116Z,,0,2,,3488,response,ISIC_0013610.JPG,5,ISIC_0046900.JPG,ISIC_0046900.JPG,false,0,keypress(z),500,475390,475389,471901,471891,471916,475417,8,400,5,,ISIC_0013610.JPG
break,html.Screen,4_54_1,2023-11-01T00:36:13.117Z,,0,,,NaN,,,,,,false,,,,475391,475390,,475390,,475417,8,400,,,
break_continue,html.Screen,4_54_2,2023-11-01T00:36:13.117Z,,0,,,NaN,,,,,,false,,,,475391,475391,,475391,,475417,8,400,,,
sequence,flow.Sequence,4_54,2023-11-01T00:36:13.118Z,,0,,,3475,completion,,,,,false,,,,475391,475391,471901,471891,471916,475417,8,400,,,
trial,html.Screen,4_55_0,2023-11-01T00:36:16.725Z,,0,2,,3597,response,ISIC_0058071.JPG,10,ISIC_9019691.JPG,ISIC_0058071.JPG,false,1,keypress(m),500,478998,478998,475401,475391,475417,479033,8,400,6,,ISIC_9019691.JPG
break,html.Screen,4_55_1,2023-11-01T00:36:16.726Z,,0,,,NaN,,,,,,false,,,,478999,478999,,478999,,479033,8,400,,,
break_continue,html.Screen,4_55_2,2023-11-01T00:36:16.726Z,,0,,,NaN,,,,,,false,,,,478999,478999,,478999,,479033,8,400,,,
sequence,flow.Sequence,4_55,2023-11-01T00:36:16.726Z,,0,,,3582,completion,,,,,false,,,,478999,478999,475401,475391,475417,479033,8,400,,,
trial,html.Screen,4_56_0,2023-11-01T00:36:22.879Z,,0,2,,6134,response,ISIC_4720306.JPG,5,ISIC_1576437.JPG,ISIC_1576437.JPG,false,0,keypress(z),500,485152,485152,479018,478999,479033,485184,8,400,7,,ISIC_4720306.JPG
break,html.Screen,4_56_1,2023-11-01T00:36:22.880Z,,0,,,NaN,,,,,,false,,,,485153,485152,,485152,,485184,8,400,,,
break_continue,html.Screen,4_56_2,2023-11-01T00:36:22.880Z,,0,,,NaN,,,,,,false,,,,485153,485153,,485153,,485184,8,400,,,
sequence,flow.Sequence,4_56,2023-11-01T00:36:22.880Z,,0,,,6120,completion,,,,,false,,,,485153,485153,479018,478999,479033,485184,8,400,,,
trial,html.Screen,4_57_0,2023-11-01T00:36:26.106Z,,0,2,,3210,response,ISIC_0034002.JPG,7,ISIC_9088073.JPG,ISIC_0034002.JPG,false,1,keypress(m),500,488379,488378,485168,485153,485184,488402,8,400,8,,ISIC_9088073.JPG
break,html.Screen,4_57_1,2023-11-01T00:36:26.106Z,,0,,,NaN,,,,,,false,,,,488379,488379,,488379,,488402,8,400,,,
break_continue,html.Screen,4_57_2,2023-11-01T00:36:26.107Z,,0,,,NaN,,,,,,false,,,,488379,488379,,488379,,488402,8,400,,,
sequence,flow.Sequence,4_57,2023-11-01T00:36:26.107Z,,0,,,3195,completion,,,,,false,,,,488380,488379,485168,485153,485184,488402,8,400,,,
trial,html.Screen,4_58_0,2023-11-01T00:36:30.299Z,,0,2,,4188,response,ISIC_2076902.JPG,4,ISIC_0732375.JPG,ISIC_0732375.JPG,false,0,keypress(z),500,492572,492572,488384,488380,488402,492601,8,400,9,,ISIC_2076902.JPG
break,html.Screen,4_58_1,2023-11-01T00:36:30.300Z,,0,,,NaN,,,,,,false,,,,492572,492572,,492572,,492601,8,400,,,
break_continue,html.Screen,4_58_2,2023-11-01T00:36:30.300Z,,0,,,NaN,,,,,,false,,,,492573.00000000006,492573.00000000006,,492572,,492601,8,400,,,
sequence,flow.Sequence,4_58,2023-11-01T00:36:30.300Z,,0,,,4171.000000000058,completion,,,,,false,,,,492573.00000000006,492573.00000000006,488384,488380,488402,492601,8,400,,,
trial,html.Screen,4_59_0,2023-11-01T00:36:34.712Z,,0,2,,4400.000000000058,response,ISIC_0032341.JPG,2,ISIC_3923443.JPG,ISIC_0032341.JPG,false,1,keypress(m),500,496985,496984.00000000006,492584,492573.00000000006,492601,497019,8,400,10,,ISIC_3923443.JPG
break,html.Screen,4_59_1,2023-11-01T00:36:34.713Z,,0,,,NaN,,,,,,false,,,,496985,496985,,496985,,497019,8,400,,,
break_continue,html.Screen,4_59_2,2023-11-01T00:36:34.713Z,,0,,,NaN,,,,,,false,,,,496986,496986,,496985,,497019,8,400,,,
sequence,flow.Sequence,4_59,2023-11-01T00:36:34.713Z,,0,,,4385,completion,,,,,false,,,,496986,496986,492584,492573.00000000006,492601,497019,8,400,,,
trial,html.Screen,4_60_0,2023-11-01T00:36:38.207Z,,0,2,,3478,response,ISIC_1205826.JPG,6,ISIC_0064784.JPG,ISIC_0064784.JPG,false,0,keypress(z),500,500480,500480,497002,496986,497019,500501,8,400,11,,ISIC_1205826.JPG
break,html.Screen,4_60_1,2023-11-01T00:36:38.208Z,,0,,,NaN,,,,,,false,,,,500480,500480,,500480,,500501,8,400,,,
break_continue,html.Screen,4_60_2,2023-11-01T00:36:38.208Z,,0,,,NaN,,,,,,false,,,,500481,500481,,500481,,500501,8,400,,,
sequence,flow.Sequence,4_60,2023-11-01T00:36:38.208Z,,0,,,3462,completion,,,,,false,,,,500481,500481,497002,496986,497019,500501,8,400,,,
trial,html.Screen,4_61_0,2023-11-01T00:36:41.268Z,,0,2,,3056,response,ISIC_0032360.JPG,7,ISIC_9073150.JPG,ISIC_0032360.JPG,false,1,keypress(m),500,503541,503541,500485,500481,500501,503568,8,400,12,,ISIC_9073150.JPG
break,html.Screen,4_61_1,2023-11-01T00:36:41.269Z,,0,,,NaN,,,,,,false,,,,503542.00000000006,503541,,503541,,503568,8,400,,,
break_continue,html.Screen,4_61_2,2023-11-01T00:36:41.270Z,,0,,,NaN,,,,,,false,,,,503542.00000000006,503542.00000000006,,503542.00000000006,,503568,8,400,,,
sequence,flow.Sequence,4_61,2023-11-01T00:36:41.270Z,,0,,,3041.000000000058,completion,,,,,false,,,,503542.00000000006,503542.00000000006,500485,500481,500501,503568,8,400,,,
trial,html.Screen,4_62_0,2023-11-01T00:36:45.150Z,,0,2,,3869,response,ISIC_0010618.JPG,0,ISIC_0175530.JPG,ISIC_0010618.JPG,false,1,keypress(m),500,507422,507422,503553,503542.00000000006,503568,507452,8,400,13,,ISIC_0175530.JPG
break,html.Screen,4_62_1,2023-11-01T00:36:45.151Z,,0,,,NaN,,,,,,false,,,,507423,507423,,507423,,507452,8,400,,,
break_continue,html.Screen,4_62_2,2023-11-01T00:36:45.151Z,,0,,,NaN,,,,,,false,,,,507423,507423,,507423,,507452,8,400,,,
sequence,flow.Sequence,4_62,2023-11-01T00:36:45.151Z,,0,,,3855,completion,,,,,false,,,,507423,507423,503553,503542.00000000006,503568,507452,8,400,,,
trial,html.Screen,4_63_0,2023-11-01T00:36:48.168Z,,0,2,,3004,response,ISIC_0056937.JPG,3,ISIC_0063026.JPG,ISIC_0056937.JPG,false,1,keypress(m),500,510440,510440,507436,507423,507452,510469,8,400,14,,ISIC_0063026.JPG
break,html.Screen,4_63_1,2023-11-01T00:36:48.168Z,,0,,,NaN,,,,,,false,,,,510441.00000000006,510440,,510440,,510469,8,400,,,
break_continue,html.Screen,4_63_2,2023-11-01T00:36:48.169Z,,0,,,NaN,,,,,,false,,,,510441.00000000006,510441.00000000006,,510441.00000000006,,510469,8,400,,,
sequence,flow.Sequence,4_63,2023-11-01T00:36:48.169Z,,0,,,2989.000000000058,completion,,,,,false,,,,510441.00000000006,510441.00000000006,507436,507423,507452,510469,8,400,,,
trial,html.Screen,4_64_0,2023-11-01T00:36:50.810Z,,0,2,,2630,response,ISIC_0068382.JPG,3,ISIC_4142019.JPG,ISIC_0068382.JPG,false,1,keypress(m),500,513082.99999999994,513082,510452,510441.00000000006,510469,513120,8,400,15,,ISIC_4142019.JPG
break,html.Screen,4_64_1,2023-11-01T00:36:50.811Z,,0,,,NaN,,,,,,false,,,,513082.99999999994,513082.99999999994,,513082.99999999994,,513120,8,400,,,
break_continue,html.Screen,4_64_2,2023-11-01T00:36:50.811Z,,0,,,NaN,,,,,,false,,,,513084.00000000006,513082.99999999994,,513082.99999999994,,513120,8,400,,,
sequence,flow.Sequence,4_64,2023-11-01T00:36:50.811Z,,0,,,2613.999999999942,completion,,,,,false,,,,513084.00000000006,513082.99999999994,510452,510441.00000000006,510469,513120,8,400,,,
trial,html.Screen,4_65_0,2023-11-01T00:36:53.854Z,,0,2,,3024,response,ISIC_7365889.JPG,2,ISIC_0013617.JPG,ISIC_7365889.JPG,false,1,keypress(m),500,516126,516126,513102,513084.00000000006,513120,516153,8,400,16,,ISIC_0013617.JPG
break,html.Screen,4_65_1,2023-11-01T00:36:53.855Z,,0,,,NaN,,,,,,false,,,,516127.00000000006,516127.00000000006,,516127.00000000006,,516153,8,400,,,
break_continue,html.Screen,4_65_2,2023-11-01T00:36:53.855Z,,0,,,NaN,,,,,,false,,,,516127.00000000006,516127.00000000006,,516127.00000000006,,516153,8,400,,,
sequence,flow.Sequence,4_65,2023-11-01T00:36:53.856Z,,0,,,3007.000000000058,completion,,,,,false,,,,516128.00000000006,516127.00000000006,513102,513084.00000000006,513120,516153,8,400,,,
trial,html.Screen,4_66_0,2023-11-01T00:36:56.995Z,,0,2,,3131.000000000058,response,ISIC_6463417.JPG,11,ISIC_0951519.JPG,ISIC_0951519.JPG,false,0,keypress(z),500,519267.00000000006,519267.00000000006,516136,516128.00000000006,516153,519303,8,400,17,,ISIC_6463417.JPG
break,html.Screen,4_66_1,2023-11-01T00:36:56.996Z,,0,,,NaN,,,,,,false,,,,519268,519267.00000000006,,519267.00000000006,,519303,8,400,,,
break_continue,html.Screen,4_66_2,2023-11-01T00:36:56.996Z,,0,,,NaN,,,,,,false,,,,519268,519268,,519268,,519303,8,400,,,
sequence,flow.Sequence,4_66,2023-11-01T00:36:56.996Z,,0,,,3115,completion,,,,,false,,,,519268,519268,516136,516128.00000000006,516153,519303,8,400,,,
trial,html.Screen,4_67_0,2023-11-01T00:37:00.443Z,,0,2,,3429.000000000058,response,ISIC_6253295.JPG,0,ISIC_2975167.JPG,ISIC_6253295.JPG,false,1,keypress(m),500,522715.00000000006,522715.00000000006,519286,519268,519303,522736,8,400,18,,ISIC_2975167.JPG
break,html.Screen,4_67_1,2023-11-01T00:37:00.444Z,,0,,,NaN,,,,,,false,,,,522716,522715.00000000006,,522715.00000000006,,522736,8,400,,,
break_continue,html.Screen,4_67_2,2023-11-01T00:37:00.444Z,,0,,,NaN,,,,,,false,,,,522716,522716,,522716,,522736,8,400,,,
sequence,flow.Sequence,4_67,2023-11-01T00:37:00.444Z,,0,,,3413,completion,,,,,false,,,,522716,522716,519286,519268,519303,522736,8,400,,,
trial,html.Screen,4_68_0,2023-11-01T00:37:03.315Z,,0,2,,2866,response,ISIC_7462746.JPG,11,ISIC_6293107.JPG,ISIC_7462746.JPG,false,1,keypress(m),500,525587,525586,522720,522716,522736,525621,8,400,19,,ISIC_6293107.JPG
break,html.Screen,4_68_1,2023-11-01T00:37:03.315Z,,0,,,NaN,,,,,,false,,,,525587,525587,,525587,,525621,8,400,,,
break_continue,html.Screen,4_68_2,2023-11-01T00:37:03.316Z,,0,,,NaN,,,,,,false,,,,525588,525587,,525587,,525621,8,400,,,
sequence,flow.Sequence,4_68,2023-11-01T00:37:03.316Z,,0,,,2851,completion,,,,,false,,,,525588,525587,522720,522716,522736,525621,8,400,,,
trial,html.Screen,4_69_0,2023-11-01T00:37:05.827Z,,0,2,,2495,response,ISIC_4436342.JPG,10,ISIC_0011695.JPG,ISIC_0011695.JPG,false,0,keypress(z),500,528099,528099,525604,525588,525621,528120,8,400,20,,ISIC_4436342.JPG
break,html.Screen,4_69_1,2023-11-01T00:37:05.828Z,,0,,,NaN,,,,,,false,,,,528100,528099,,528099,,528120,8,400,,,
break_continue,html.Screen,4_69_2,2023-11-01T00:37:05.828Z,,0,,,NaN,,,,,,false,,,,528100,528100,,528100,,528120,8,400,,,
sequence,flow.Sequence,4_69,2023-11-01T00:37:05.828Z,,0,,,2479,completion,,,,,false,,,,528100,528100,525604,525588,525621,528120,8,400,,,
trial,html.Screen,4_70_0,2023-11-01T00:37:08.344Z,,0,2,,2512,response,ISIC_0012070.JPG,4,ISIC_3251773.JPG,ISIC_0012070.JPG,false,1,keypress(m),500,530615,530615,528103,528101,528120,530637,8,400,21,,ISIC_3251773.JPG
break,html.Screen,4_70_1,2023-11-01T00:37:08.344Z,,0,,,NaN,,,,,,false,,,,530616,530616,,530615,,530637,8,400,,,
break_continue,html.Screen,4_70_2,2023-11-01T00:37:08.345Z,,0,,,NaN,,,,,,false,,,,530616,530616,,530616,,530637,8,400,,,
sequence,flow.Sequence,4_70,2023-11-01T00:37:08.345Z,,0,,,2496,completion,,,,,false,,,,530616,530616,528103,528101,528120,530637,8,400,,,
trial,html.Screen,4_71_0,2023-11-01T00:37:11.123Z,,0,2,,2773,response,ISIC_7658729.JPG,9,ISIC_2208006.JPG,ISIC_2208006.JPG,false,0,keypress(z),500,533394,533394,530621,530616,530637,533420,8,400,22,,ISIC_7658729.JPG
break,html.Screen,4_71_1,2023-11-01T00:37:11.123Z,,0,,,NaN,,,,,,false,,,,533395,533394,,533394,,533420,8,400,,,
break_continue,html.Screen,4_71_2,2023-11-01T00:37:11.123Z,,0,,,NaN,,,,,,false,,,,533395,533395,,533395,,533420,8,400,,,
sequence,flow.Sequence,4_71,2023-11-01T00:37:11.123Z,,0,,,2758,completion,,,,,false,,,,533395,533395,530621,530616,530637,533420,8,400,,,
trial,html.Screen,4_72_0,2023-11-01T00:37:13.745Z,,0,2,,2611,response,ISIC_1543544.JPG,12,ISIC_0061108.JPG,ISIC_0061108.JPG,false,0,keypress(z),500,536017,536016,533405,533395,533420,536037,8,400,23,,ISIC_1543544.JPG
break,html.Screen,4_72_1,2023-11-01T00:37:13.746Z,,0,,,NaN,,,,,,false,,,,536017,536017,,536017,,536037,8,400,,,
break_continue,html.Screen,4_72_2,2023-11-01T00:37:13.746Z,,0,,,NaN,,,,,,false,,,,536017,536017,,536017,,536037,8,400,,,
sequence,flow.Sequence,4_72,2023-11-01T00:37:13.746Z,,0,,,2597,completion,,,,,false,,,,536018,536017,533405,533395,533420,536037,8,400,,,
trial,html.Screen,4_73_0,2023-11-01T00:37:16.693Z,,0,2,,2943,response,ISIC_1042960.JPG,5,ISIC_4404772.JPG,ISIC_1042960.JPG,false,1,keypress(m),500,538964,538964,536021,536018,536037,538987,8,400,24,,ISIC_4404772.JPG
break,html.Screen,4_73_1,2023-11-01T00:37:16.693Z,,0,,,NaN,,,,,,false,,,,538964,538964,,538964,,538987,8,400,,,
break_continue,html.Screen,4_73_2,2023-11-01T00:37:16.693Z,,0,,,NaN,,,,,,false,,,,538965,538965,,538965,,538987,8,400,,,
sequence,flow.Sequence,4_73,2023-11-01T00:37:16.693Z,,0,,,2928,completion,,,,,false,,,,538965,538965,536021,536018,536037,538987,8,400,,,
trial,html.Screen,4_74_0,2023-11-01T00:37:19.791Z,,0,2,,3091,response,ISIC_0009879.JPG,14,ISIC_1434141.JPG,ISIC_1434141.JPG,false,0,keypress(z),500,542062,542062,538971,538965,538987,542089,8,400,25,,ISIC_0009879.JPG
break,html.Screen,4_74_1,2023-11-01T00:37:19.791Z,,0,,,NaN,,,,,,false,,,,542063,542062,,542062,,542089,8,400,,,
break_continue,html.Screen,4_74_2,2023-11-01T00:37:19.792Z,,0,,,NaN,,,,,,false,,,,542063,542063,,542063,,542089,8,400,,,
sequence,flow.Sequence,4_74,2023-11-01T00:37:19.792Z,,0,,,3076,completion,,,,,false,,,,542063,542063,538971,538965,538987,542089,8,400,,,
trial,html.Screen,4_75_0,2023-11-01T00:37:22.454Z,,0,2,,2654,response,ISIC_0034183.JPG,11,ISIC_0030541.JPG,ISIC_0034183.JPG,false,1,keypress(m),500,544725,544725,542071,542063,542089,544754,8,400,26,,ISIC_0030541.JPG
break,html.Screen,4_75_1,2023-11-01T00:37:22.455Z,,0,,,NaN,,,,,,false,,,,544726,544726,,544725,,544754,8,400,,,
break_continue,html.Screen,4_75_2,2023-11-01T00:37:22.455Z,,0,,,NaN,,,,,,false,,,,544726,544726,,544726,,544754,8,400,,,
sequence,flow.Sequence,4_75,2023-11-01T00:37:22.455Z,,0,,,2637,completion,,,,,false,,,,544726,544726,542071,542063,542089,544754,8,400,,,
trial,html.Screen,4_76_0,2023-11-01T00:37:25.127Z,,0,2,,2659,response,ISIC_0021052.JPG,5,ISIC_6180870.JPG,ISIC_0021052.JPG,false,1,keypress(m),500,547399,547398,544739,544726,544754,547422,8,400,27,,ISIC_6180870.JPG
break,html.Screen,4_76_1,2023-11-01T00:37:25.128Z,,0,,,NaN,,,,,,false,,,,547399,547399,,547399,,547422,8,400,,,
break_continue,html.Screen,4_76_2,2023-11-01T00:37:25.128Z,,0,,,NaN,,,,,,false,,,,547399,547399,,547399,,547422,8,400,,,
sequence,flow.Sequence,4_76,2023-11-01T00:37:25.128Z,,0,,,2645,completion,,,,,false,,,,547400,547399,544739,544726,544754,547422,8,400,,,
trial,html.Screen,4_77_0,2023-11-01T00:37:27.913Z,,0,2,,2780,response,ISIC_0024952.JPG,2,ISIC_0055924.JPG,ISIC_0055924.JPG,false,0,keypress(z),500,550184,550184,547404,547400,547422,550205,8,400,28,,ISIC_0024952.JPG
break,html.Screen,4_77_1,2023-11-01T00:37:27.914Z,,0,,,NaN,,,,,,false,,,,550185.0000000001,550185.0000000001,,550184,,550205,8,400,,,
break_continue,html.Screen,4_77_2,2023-11-01T00:37:27.914Z,,0,,,NaN,,,,,,false,,,,550185.0000000001,550185.0000000001,,550185.0000000001,,550205,8,400,,,
sequence,flow.Sequence,4_77,2023-11-01T00:37:27.914Z,,0,,,2763.0000000001164,completion,,,,,false,,,,550185.0000000001,550185.0000000001,547404,547400,547422,550205,8,400,,,
trial,html.Screen,4_78_0,2023-11-01T00:37:31.090Z,,0,2,,3172,response,ISIC_0027125.JPG,14,ISIC_1818238.JPG,ISIC_1818238.JPG,false,0,keypress(z),500,553361,553360,550188,550186,550205,553389,8,400,29,,ISIC_0027125.JPG
break,html.Screen,4_78_1,2023-11-01T00:37:31.090Z,,0,,,NaN,,,,,,false,,,,553361,553361,,553361,,553389,8,400,,,
break_continue,html.Screen,4_78_2,2023-11-01T00:37:31.090Z,,0,,,NaN,,,,,,false,,,,553361,553361,,553361,,553389,8,400,,,
sequence,flow.Sequence,4_78,2023-11-01T00:37:31.090Z,,0,,,3156,completion,,,,,false,,,,553361,553361,550188,550186,550205,553389,8,400,,,
trial,html.Screen,4_79_0,2023-11-01T00:37:34.293Z,,0,2,,3191,response,ISIC_0033152.JPG,15,ISIC_0014302.JPG,ISIC_0033152.JPG,false,1,keypress(m),500,556563,556563,553372,553362,553389,556589,8,400,30,,ISIC_0014302.JPG
break,html.Screen,4_79_1,2023-11-01T00:37:34.293Z,,0,,,NaN,,,,,,false,,,,556564,556564,,556564,,556589,8,400,,,
break_continue,html.Screen,4_79_2,2023-11-01T00:37:34.294Z,,0,,,NaN,,,,,,false,,,,556564,556564,,556564,,556589,8,400,,,
sequence,flow.Sequence,4_79,2023-11-01T00:37:34.294Z,,0,,,3175,completion,,,,,false,,,,556565,556564,553372,553362,553389,556589,8,400,,,
trial,html.Screen,4_80_0,2023-11-01T00:37:38.093Z,,0,2,,3791,response,ISIC_0025215.JPG,15,ISIC_0046640.JPG,ISIC_0046640.JPG,false,0,keypress(z),500,560364,560364,556573,556565,556589,560389,8,400,31,,ISIC_0025215.JPG
break,html.Screen,4_80_1,2023-11-01T00:37:38.094Z,,0,,,NaN,,,,,,false,,,,560365,560365,,560364,,560389,8,400,,,
break_continue,html.Screen,4_80_2,2023-11-01T00:37:38.094Z,,0,,,NaN,,,,,,false,,,,560365,560365,,560365,,560389,8,400,,,
sequence,flow.Sequence,4_80,2023-11-01T00:37:38.094Z,,0,,,3776,completion,,,,,false,,,,560365,560365,556573,556565,556589,560389,8,400,,,
trial,html.Screen,4_81_0,2023-11-01T00:37:41.660Z,,0,2,,3558,response,ISIC_0015005.JPG,9,ISIC_5005961.JPG,ISIC_0015005.JPG,false,1,keypress(m),500,563931,563931,560373,560365,560389,563957,8,400,32,,ISIC_5005961.JPG
break,html.Screen,4_81_1,2023-11-01T00:37:41.661Z,,0,,,NaN,,,,,,false,,,,563931,563931,,563931,,563957,8,400,,,
break_continue,html.Screen,4_81_2,2023-11-01T00:37:41.661Z,,0,,,NaN,,,,,,false,,,,563932,563932,,563932,,563957,8,400,,,
sequence,flow.Sequence,4_81,2023-11-01T00:37:41.661Z,,0,,,3543,completion,,,,,false,,,,563932,563932,560373,560365,560389,563957,8,400,,,
trial,html.Screen,4_82_0,2023-11-01T00:37:45.139Z,,0,2,,3470,response,ISIC_5182148.JPG,8,ISIC_0001149.JPG,ISIC_5182148.JPG,false,1,keypress(m),500,567410,567410,563940,563932,563957,567440,8,400,33,,ISIC_0001149.JPG
break,html.Screen,4_82_1,2023-11-01T00:37:45.140Z,,0,,,NaN,,,,,,false,,,,567411,567410,,567410,,567440,8,400,,,
break_continue,html.Screen,4_82_2,2023-11-01T00:37:45.141Z,,0,,,NaN,,,,,,false,,,,567411,567411,,567411,,567440,8,400,,,
sequence,flow.Sequence,4_82,2023-11-01T00:37:45.141Z,,0,,,3454,completion,,,,,false,,,,567411,567411,563940,563932,563957,567440,8,400,,,
trial,html.Screen,4_83_0,2023-11-01T00:37:48.658Z,,0,2,,3505,response,ISIC_3743283.JPG,3,ISIC_0726170.JPG,ISIC_3743283.JPG,false,1,keypress(m),500,570928,570928,567423,567411,567440,570957,8,400,34,,ISIC_0726170.JPG
break,html.Screen,4_83_1,2023-11-01T00:37:48.659Z,,0,,,NaN,,,,,,false,,,,570929,570929,,570928,,570957,8,400,,,
break_continue,html.Screen,4_83_2,2023-11-01T00:37:48.659Z,,0,,,NaN,,,,,,false,,,,570929,570929,,570929,,570957,8,400,,,
sequence,flow.Sequence,4_83,2023-11-01T00:37:48.659Z,,0,,,3489,completion,,,,,false,,,,570929,570929,567423,567411,567440,570957,8,400,,,
trial,html.Screen,4_84_0,2023-11-01T00:37:51.585Z,,0,2,,2914,response,ISIC_0010124.JPG,11,ISIC_0027712.JPG,ISIC_0027712.JPG,false,0,keypress(z),500,573855,573855,570941,570930.0000000001,570957,573874,8,400,35,,ISIC_0010124.JPG
break,html.Screen,4_84_1,2023-11-01T00:37:51.585Z,,0,,,NaN,,,,,,false,,,,573856,573855,,573855,,573874,8,400,,,
break_continue,html.Screen,4_84_2,2023-11-01T00:37:51.585Z,,0,,,NaN,,,,,,false,,,,573856,573856,,573856,,573874,8,400,,,
sequence,flow.Sequence,4_84,2023-11-01T00:37:51.586Z,,0,,,2899,completion,,,,,false,,,,573856,573856,570941,570929,570957,573874,8,400,,,
trial,html.Screen,4_85_0,2023-11-01T00:37:54.092Z,,0,2,,2504,response,ISIC_9615486.JPG,4,ISIC_1068686.JPG,ISIC_9615486.JPG,false,1,keypress(m),500,576363,576362,573858,573856,573874,576390,8,400,36,,ISIC_1068686.JPG
break,html.Screen,4_85_1,2023-11-01T00:37:54.093Z,,0,,,NaN,,,,,,false,,,,576363,576363,,576363,,576390,8,400,,,
break_continue,html.Screen,4_85_2,2023-11-01T00:37:54.093Z,,0,,,NaN,,,,,,false,,,,576364,576363,,576363,,576390,8,400,,,
sequence,flow.Sequence,4_85,2023-11-01T00:37:54.093Z,,0,,,2489,completion,,,,,false,,,,576364,576363,573858,573856,573874,576390,8,400,,,
trial,html.Screen,4_86_0,2023-11-01T00:37:56.795Z,,0,2,,2691,response,ISIC_6990973.JPG,12,ISIC_0033344.JPG,ISIC_6990973.JPG,false,1,keypress(m),500,579065,579065,576374,576364,576390,579091,8,400,37,,ISIC_0033344.JPG
break,html.Screen,4_86_1,2023-11-01T00:37:56.796Z,,0,,,NaN,,,,,,false,,,,579066,579066,,579065,,579091,8,400,,,
break_continue,html.Screen,4_86_2,2023-11-01T00:37:56.796Z,,0,,,NaN,,,,,,false,,,,579066,579066,,579066,,579091,8,400,,,
sequence,flow.Sequence,4_86,2023-11-01T00:37:56.796Z,,0,,,2676,completion,,,,,false,,,,579066,579066,576374,576364,576390,579091,8,400,,,
trial,html.Screen,4_87_0,2023-11-01T00:37:59.928Z,,0,2,,3124,response,ISIC_0000176.JPG,0,ISIC_0013079.JPG,ISIC_0000176.JPG,false,1,keypress(m),500,582198,582198,579074,579066,579091,582224,8,400,38,,ISIC_0013079.JPG
break,html.Screen,4_87_1,2023-11-01T00:37:59.929Z,,0,,,NaN,,,,,,false,,,,582199,582199,,582198,,582224,8,400,,,
break_continue,html.Screen,4_87_2,2023-11-01T00:37:59.929Z,,0,,,NaN,,,,,,false,,,,582200,582199,,582199,,582224,8,400,,,
sequence,flow.Sequence,4_87,2023-11-01T00:37:59.930Z,,0,,,3108,completion,,,,,false,,,,582200,582199,579074,579066,579091,582224,8,400,,,
trial,html.Screen,4_88_0,2023-11-01T00:38:03.093Z,,0,2,,3156,response,ISIC_0028910.JPG,2,ISIC_0032622.JPG,ISIC_0028910.JPG,false,1,keypress(m),500,585363,585363,582207,582200,582224,585391,8,400,39,,ISIC_0032622.JPG
break,html.Screen,4_88_1,2023-11-01T00:38:03.094Z,,0,,,NaN,,,,,,false,,,,585364,585363,,585363,,585391,8,400,,,
break_continue,html.Screen,4_88_2,2023-11-01T00:38:03.094Z,,0,,,NaN,,,,,,false,,,,585364,585364,,585364,,585391,8,400,,,
sequence,flow.Sequence,4_88,2023-11-01T00:38:03.094Z,,0,,,3140,completion,,,,,false,,,,585364,585364,582207,582200,582224,585391,8,400,,,
trial,html.Screen,4_89_0,2023-11-01T00:38:06.669Z,,0,2,,3565,response,ISIC_0002953.JPG,5,ISIC_0033309.JPG,ISIC_0033309.JPG,false,0,keypress(z),500,588939,588939,585374,585364,585391,588958,8,400,40,,ISIC_0002953.JPG
break,html.Screen,4_89_1,2023-11-01T00:38:06.670Z,,0,,,NaN,,,,,,false,,,,588940,588940,,588939,,588958,8,400,,,
break_continue,html.Screen,4_89_2,2023-11-01T00:38:06.671Z,,0,,,NaN,,,,,,false,,,,588941,588940,,588940,,588958,8,400,,,
sequence,flow.Sequence,4_89,2023-11-01T00:38:06.671Z,,0,,,3549,completion,,,,,false,,,,588941,588940,585374,585364,585391,588958,8,400,,,
trial,html.Screen,4_90_0,2023-11-01T00:38:09.612Z,,0,2,,2938,response,ISIC_0066674.JPG,9,ISIC_5910975.JPG,ISIC_0066674.JPG,false,1,keypress(m),500,591881,591881,588943,588941,588958,591908,8,400,41,,ISIC_5910975.JPG
break,html.Screen,4_90_1,2023-11-01T00:38:09.612Z,,0,,,NaN,,,,,,false,,,,591882.0000000001,591882.0000000001,,591882.0000000001,,591908,8,400,,,
break_continue,html.Screen,4_90_2,2023-11-01T00:38:09.613Z,,0,,,NaN,,,,,,false,,,,591882.0000000001,591882.0000000001,,591882.0000000001,,591908,8,400,,,
sequence,flow.Sequence,4_90,2023-11-01T00:38:09.613Z,,0,,,2924.0000000001164,completion,,,,,false,,,,591883,591882.0000000001,588943,588941,588958,591908,8,400,,,
trial,html.Screen,4_91_0,2023-11-01T00:38:12.610Z,,0,2,,2988,response,ISIC_7333928.JPG,13,ISIC_0056047.JPG,ISIC_0056047.JPG,false,0,keypress(z),500,594880,594879,591891,591883,591908,594908,8,400,42,,ISIC_7333928.JPG
break,html.Screen,4_91_1,2023-11-01T00:38:12.611Z,,0,,,NaN,,,,,,false,,,,594881,594881,,594880,,594908,8,400,,,
break_continue,html.Screen,4_91_2,2023-11-01T00:38:12.611Z,,0,,,NaN,,,,,,false,,,,594881,594881,,594881,,594908,8,400,,,
sequence,flow.Sequence,4_91,2023-11-01T00:38:12.612Z,,0,,,2973,completion,,,,,false,,,,594881,594881,591891,591883,591908,594908,8,400,,,
trial,html.Screen,4_92_0,2023-11-01T00:38:15.548Z,,0,2,,2927,response,ISIC_0029205.JPG,14,ISIC_2447578.JPG,ISIC_0029205.JPG,false,1,keypress(m),500,597818,597818,594891,594881,594908,597841,8,400,43,,ISIC_2447578.JPG
break,html.Screen,4_92_1,2023-11-01T00:38:15.549Z,,0,,,NaN,,,,,,false,,,,597819,597818,,597818,,597841,8,400,,,
break_continue,html.Screen,4_92_2,2023-11-01T00:38:15.549Z,,0,,,NaN,,,,,,false,,,,597819,597819,,597819,,597841,8,400,,,
sequence,flow.Sequence,4_92,2023-11-01T00:38:15.549Z,,0,,,2911,completion,,,,,false,,,,597819,597819,594891,594881,594908,597841,8,400,,,
trial,html.Screen,4_93_0,2023-11-01T00:38:18.541Z,,0,2,,2985.0000000001164,response,ISIC_1595658.JPG,1,ISIC_0911448.JPG,ISIC_0911448.JPG,false,0,keypress(z),500,600811,600810.0000000001,597825,597819,597841,600842,8,400,44,,ISIC_1595658.JPG
break,html.Screen,4_93_1,2023-11-01T00:38:18.542Z,,0,,,NaN,,,,,,false,,,,600811,600811,,600811,,600842,8,400,,,
break_continue,html.Screen,4_93_2,2023-11-01T00:38:18.542Z,,0,,,NaN,,,,,,false,,,,600811,600811,,600811,,600842,8,400,,,
sequence,flow.Sequence,4_93,2023-11-01T00:38:18.542Z,,0,,,2970,completion,,,,,false,,,,600812,600811,597825,597819,597841,600842,8,400,,,
trial,html.Screen,4_94_0,2023-11-01T00:38:21.373Z,,0,2,,2817,response,ISIC_0033586.JPG,14,ISIC_0054048.JPG,ISIC_0054048.JPG,false,0,keypress(z),500,603643,603642,600825,600812,600842,603675,8,400,45,,ISIC_0033586.JPG
break,html.Screen,4_94_1,2023-11-01T00:38:21.374Z,,0,,,NaN,,,,,,false,,,,603644,603643,,603643,,603675,8,400,,,
break_continue,html.Screen,4_94_2,2023-11-01T00:38:21.374Z,,0,,,NaN,,,,,,false,,,,603644,603644,,603644,,603675,8,400,,,
sequence,flow.Sequence,4_94,2023-11-01T00:38:21.374Z,,0,,,2802,completion,,,,,false,,,,603644,603644,600825,600812,600842,603675,8,400,,,
trial,html.Screen,4_95_0,2023-11-01T00:38:24.333Z,,0,2,,2943,response,ISIC_9214649.JPG,15,ISIC_0028444.JPG,ISIC_0028444.JPG,false,0,keypress(z),500,606602,606602,603659,603644,603675,606626,8,400,46,,ISIC_9214649.JPG
break,html.Screen,4_95_1,2023-11-01T00:38:24.334Z,,0,,,NaN,,,,,,false,,,,606603.0000000001,606603.0000000001,,606603.0000000001,,606626,8,400,,,
break_continue,html.Screen,4_95_2,2023-11-01T00:38:24.334Z,,0,,,NaN,,,,,,false,,,,606603.0000000001,606603.0000000001,,606603.0000000001,,606626,8,400,,,
sequence,flow.Sequence,4_95,2023-11-01T00:38:24.334Z,,0,,,2928.0000000001164,completion,,,,,false,,,,606604,606603.0000000001,603659,603644,603675,606626,8,400,,,
trial,html.Screen,4_96_0,2023-11-01T00:38:27.608Z,,0,2,,3269.0000000001164,response,ISIC_0003664.JPG,9,ISIC_0027694.JPG,ISIC_0027694.JPG,false,0,keypress(z),500,609877.0000000001,609877.0000000001,606608,606604,606626,609910,8,400,47,,ISIC_0003664.JPG
break,html.Screen,4_96_1,2023-11-01T00:38:27.608Z,,0,,,NaN,,,,,,false,,,,609878,609878,,609877.0000000001,,609910,8,400,,,
break_continue,html.Screen,4_96_2,2023-11-01T00:38:27.609Z,,0,,,NaN,,,,,,false,,,,609878,609878,,609878,,609910,8,400,,,
sequence,flow.Sequence,4_96,2023-11-01T00:38:27.609Z,,0,,,3252,completion,,,,,false,,,,609878,609878,606608,606604,606626,609910,8,400,,,
trial,html.Screen,4_97_0,2023-11-01T00:38:30.443Z,,0,2,,2820,response,ISIC_0029343.JPG,15,ISIC_0054292.JPG,ISIC_0054292.JPG,false,0,keypress(z),500,612712,612712,609892,609878,609910,612743,8,400,48,,ISIC_0029343.JPG
break,html.Screen,4_97_1,2023-11-01T00:38:30.444Z,,0,,,NaN,,,,,,false,,,,612713,612713,,612712,,612743,8,400,,,
break_continue,html.Screen,4_97_2,2023-11-01T00:38:30.444Z,,0,,,NaN,,,,,,false,,,,612713,612713,,612713,,612743,8,400,,,
sequence,flow.Sequence,4_97,2023-11-01T00:38:30.444Z,,0,,,2803,completion,,,,,false,,,,612713,612713,609892,609878,609910,612743,8,400,,,
trial,html.Screen,4_98_0,2023-11-01T00:38:34.586Z,,0,2,,4128,response,ISIC_0058138.JPG,0,ISIC_3060145.JPG,ISIC_0058138.JPG,false,1,keypress(m),500,616855,616855,612727,612713,612743,616876,8,400,49,,ISIC_3060145.JPG
break,html.Screen,4_98_1,2023-11-01T00:38:34.587Z,,0,,,NaN,,,,,,false,,,,616856,616856,,616856,,616876,8,400,,,
break_continue,html.Screen,4_98_2,2023-11-01T00:38:34.587Z,,0,,,NaN,,,,,,false,,,,616856,616856,,616856,,616876,8,400,,,
sequence,flow.Sequence,4_98,2023-11-01T00:38:34.587Z,,0,,,4113,completion,,,,,false,,,,616856,616856,612727,612713,612743,616876,8,400,,,
trial,html.Screen,4_99_0,2023-11-01T00:38:37.833Z,,0,2,,3243,response,ISIC_0006744.JPG,10,ISIC_4666619.JPG,ISIC_4666619.JPG,false,0,keypress(z),500,620102,620102,616859,616856,616876,620126,8,400,50,,ISIC_0006744.JPG
break,html.Screen,4_99_1,2023-11-01T00:38:47.843Z,,0,,,10001,timeout,,,,,false,,,,630111,630111,620110,620102,620126,630127,8,400,,,
break_continue,html.Screen,4_99_2,2023-11-01T00:39:15.625Z,,0,,,27764,response,,,,,false,continue,keypress(Space),,657893,657875,630111,630111,630127,657929,8,400,,,
sequence,flow.Sequence,4_99,2023-11-01T00:39:15.625Z,,0,,,40999,completion,,,,,false,,,,657893,657875,616859,616856,616876,657929,8,400,,,
trial,html.Screen,4_100_0,2023-11-01T00:39:18.801Z,,0,3,,3155,response,ISIC_0026518.JPG,6,ISIC_0030404.JPG,ISIC_0030404.JPG,false,0,keypress(z),500,661069,661069,657914,657893,657929,661096,8,400,1,,ISIC_0026518.JPG
break,html.Screen,4_100_1,2023-11-01T00:39:18.802Z,,0,,,NaN,,,,,,false,,,,661070,661069,,661069,,661096,8,400,,,
break_continue,html.Screen,4_100_2,2023-11-01T00:39:18.802Z,,0,,,NaN,,,,,,false,,,,661070,661070,,661070,,661096,8,400,,,
sequence,flow.Sequence,4_100,2023-11-01T00:39:18.802Z,,0,,,3141,completion,,,,,false,,,,661070,661070,657914,657893,657929,661096,8,400,,,
trial,html.Screen,4_101_0,2023-11-01T00:39:21.794Z,,0,3,,2981,response,ISIC_0066223.JPG,15,ISIC_7515794.JPG,ISIC_7515794.JPG,false,0,keypress(z),500,664061,664061,661080,661070,661096,664096,8,400,2,,ISIC_0066223.JPG
break,html.Screen,4_101_1,2023-11-01T00:39:21.794Z,,0,,,NaN,,,,,,false,,,,664062,664062,,664062,,664096,8,400,,,
break_continue,html.Screen,4_101_2,2023-11-01T00:39:21.795Z,,0,,,NaN,,,,,,false,,,,664062,664062,,664062,,664096,8,400,,,
sequence,flow.Sequence,4_101,2023-11-01T00:39:21.795Z,,0,,,2966,completion,,,,,false,,,,664062,664062,661080,661070,661096,664096,8,400,,,
trial,html.Screen,4_102_0,2023-11-01T00:39:24.833Z,,0,3,,3021,response,ISIC_0027964.JPG,9,ISIC_7513677.JPG,ISIC_0027964.JPG,false,1,keypress(m),500,667100,667100,664079,664062,664096,667129,8,400,3,,ISIC_7513677.JPG
break,html.Screen,4_102_1,2023-11-01T00:39:24.833Z,,0,,,NaN,,,,,,false,,,,667101,667101,,667100,,667129,8,400,,,
break_continue,html.Screen,4_102_2,2023-11-01T00:39:24.833Z,,0,,,NaN,,,,,,false,,,,667101,667101,,667101,,667129,8,400,,,
sequence,flow.Sequence,4_102,2023-11-01T00:39:24.834Z,,0,,,3005,completion,,,,,false,,,,667101,667101,664079,664062,664096,667129,8,400,,,
trial,html.Screen,4_103_0,2023-11-01T00:39:27.863Z,,0,3,,3017,response,ISIC_0068576.JPG,5,ISIC_0033653.JPG,ISIC_0033653.JPG,false,0,keypress(z),500,670131,670130,667113,667101,667129,670163,8,400,4,,ISIC_0068576.JPG
break,html.Screen,4_103_1,2023-11-01T00:39:27.864Z,,0,,,NaN,,,,,,false,,,,670131,670131,,670131,,670163,8,400,,,
break_continue,html.Screen,4_103_2,2023-11-01T00:39:27.864Z,,0,,,NaN,,,,,,false,,,,670132.0000000001,670131,,670131,,670163,8,400,,,
sequence,flow.Sequence,4_103,2023-11-01T00:39:27.864Z,,0,,,3002,completion,,,,,false,,,,670132.0000000001,670131,667113,667101,667129,670163,8,400,,,
trial,html.Screen,4_104_0,2023-11-01T00:39:30.788Z,,0,3,,2909,response,ISIC_2598575.JPG,4,ISIC_0033585.JPG,ISIC_0033585.JPG,false,0,keypress(z),500,673056,673056,670147,670132.0000000001,670163,673080,8,400,5,,ISIC_2598575.JPG
break,html.Screen,4_104_1,2023-11-01T00:39:30.789Z,,0,,,NaN,,,,,,false,,,,673056,673056,,673056,,673080,8,400,,,
break_continue,html.Screen,4_104_2,2023-11-01T00:39:30.789Z,,0,,,NaN,,,,,,false,,,,673057,673057,,673056,,673080,8,400,,,
sequence,flow.Sequence,4_104,2023-11-01T00:39:30.789Z,,0,,,2894,completion,,,,,false,,,,673057,673057,670147,670132.0000000001,670163,673080,8,400,,,
trial,html.Screen,4_105_0,2023-11-01T00:39:33.494Z,,0,3,,2697,response,ISIC_0057594.JPG,7,ISIC_0060586.JPG,ISIC_0057594.JPG,false,1,keypress(m),500,675761,675761,673064,673057,673080,675796,8,400,6,,ISIC_0060586.JPG
break,html.Screen,4_105_1,2023-11-01T00:39:33.495Z,,0,,,NaN,,,,,,false,,,,675762,675762,,675762,,675796,8,400,,,
break_continue,html.Screen,4_105_2,2023-11-01T00:39:33.495Z,,0,,,NaN,,,,,,false,,,,675762,675762,,675762,,675796,8,400,,,
sequence,flow.Sequence,4_105,2023-11-01T00:39:33.495Z,,0,,,2682,completion,,,,,false,,,,675762,675762,673064,673057,673080,675796,8,400,,,
trial,html.Screen,4_106_0,2023-11-01T00:39:36.948Z,,0,3,,3435,response,ISIC_0031977.JPG,2,ISIC_0064836.JPG,ISIC_0031977.JPG,false,1,keypress(m),500,679215,679215,675780,675762,675796,679247,8,400,7,,ISIC_0064836.JPG
break,html.Screen,4_106_1,2023-11-01T00:39:36.949Z,,0,,,NaN,,,,,,false,,,,679216,679216,,679216,,679247,8,400,,,
break_continue,html.Screen,4_106_2,2023-11-01T00:39:36.949Z,,0,,,NaN,,,,,,false,,,,679216,679216,,679216,,679247,8,400,,,
sequence,flow.Sequence,4_106,2023-11-01T00:39:36.949Z,,0,,,3420,completion,,,,,false,,,,679216,679216,675780,675762,675796,679247,8,400,,,
trial,html.Screen,4_107_0,2023-11-01T00:39:39.723Z,,0,3,,2760,response,ISIC_2736880.JPG,5,ISIC_0027248.JPG,ISIC_0027248.JPG,false,0,keypress(z),500,681990,681990,679230,679217,679247,682014,8,400,8,,ISIC_2736880.JPG
break,html.Screen,4_107_1,2023-11-01T00:39:39.724Z,,0,,,NaN,,,,,,false,,,,681991,681991,,681990,,682014,8,400,,,
break_continue,html.Screen,4_107_2,2023-11-01T00:39:39.724Z,,0,,,NaN,,,,,,false,,,,681991,681991,,681991,,682014,8,400,,,
sequence,flow.Sequence,4_107,2023-11-01T00:39:39.724Z,,0,,,2744,completion,,,,,false,,,,681991,681991,679230,679216,679247,682014,8,400,,,
trial,html.Screen,4_108_0,2023-11-01T00:39:42.806Z,,0,3,,3075,response,ISIC_0025653.JPG,4,ISIC_0073238.JPG,ISIC_0073238.JPG,false,0,keypress(z),500,685073,685073,681998,681991,682014,685097,8,400,9,,ISIC_0025653.JPG
break,html.Screen,4_108_1,2023-11-01T00:39:42.806Z,,0,,,NaN,,,,,,false,,,,685073,685073,,685073,,685097,8,400,,,
break_continue,html.Screen,4_108_2,2023-11-01T00:39:42.807Z,,0,,,NaN,,,,,,false,,,,685074.0000000001,685073,,685073,,685097,8,400,,,
sequence,flow.Sequence,4_108,2023-11-01T00:39:42.807Z,,0,,,3059,completion,,,,,false,,,,685074.0000000001,685073,681998,681991,682014,685097,8,400,,,
trial,html.Screen,4_109_0,2023-11-01T00:39:45.460Z,,0,3,,2646,response,ISIC_0030501.JPG,8,ISIC_0064071.JPG,ISIC_0064071.JPG,false,0,keypress(z),500,687727,687727,685081,685074.0000000001,685097,687765,8,400,10,,ISIC_0030501.JPG
break,html.Screen,4_109_1,2023-11-01T00:39:45.461Z,,0,,,NaN,,,,,,false,,,,687728.0000000001,687728.0000000001,,687728.0000000001,,687765,8,400,,,
break_continue,html.Screen,4_109_2,2023-11-01T00:39:45.461Z,,0,,,NaN,,,,,,false,,,,687728.0000000001,687728.0000000001,,687728.0000000001,,687765,8,400,,,
sequence,flow.Sequence,4_109,2023-11-01T00:39:45.462Z,,0,,,2631.0000000001164,completion,,,,,false,,,,687729,687728.0000000001,685081,685074.0000000001,685097,687765,8,400,,,
trial,html.Screen,4_110_0,2023-11-01T00:39:48.030Z,,0,3,,2549,response,ISIC_0029902.JPG,10,ISIC_0024351.JPG,ISIC_0024351.JPG,false,0,keypress(z),500,690296,690296,687747,687729,687765,690332,8,400,11,,ISIC_0029902.JPG
break,html.Screen,4_110_1,2023-11-01T00:39:48.030Z,,0,,,NaN,,,,,,false,,,,690297,690297,,690297,,690332,8,400,,,
break_continue,html.Screen,4_110_2,2023-11-01T00:39:48.031Z,,0,,,NaN,,,,,,false,,,,690298,690297,,690297,,690332,8,400,,,
sequence,flow.Sequence,4_110,2023-11-01T00:39:48.031Z,,0,,,2532,completion,,,,,false,,,,690298,690297,687747,687729,687765,690332,8,400,,,
trial,html.Screen,4_111_0,2023-11-01T00:39:51.582Z,,0,3,,3532,response,ISIC_0905367.JPG,1,ISIC_4764568.JPG,ISIC_0905367.JPG,false,1,keypress(m),500,693849,693847,690315,690298,690332,693882,8,400,12,,ISIC_4764568.JPG
break,html.Screen,4_111_1,2023-11-01T00:39:51.583Z,,0,,,NaN,,,,,,false,,,,693850,693850,,693849,,693882,8,400,,,
break_continue,html.Screen,4_111_2,2023-11-01T00:39:51.584Z,,0,,,NaN,,,,,,false,,,,693851,693850,,693850,,693882,8,400,,,
sequence,flow.Sequence,4_111,2023-11-01T00:39:51.584Z,,0,,,3518,completion,,,,,false,,,,693851,693850,690315,690298,690332,693882,8,400,,,
trial,html.Screen,4_112_0,2023-11-01T00:39:54.669Z,,0,3,,3071.0000000001164,response,ISIC_0032954.JPG,14,ISIC_6734679.JPG,ISIC_0032954.JPG,false,1,keypress(m),500,696935.0000000001,696935.0000000001,693864,693851,693882,696965,8,400,13,,ISIC_6734679.JPG
break,html.Screen,4_112_1,2023-11-01T00:39:54.669Z,,0,,,NaN,,,,,,false,,,,696936,696936,,696935.0000000001,,696965,8,400,,,
break_continue,html.Screen,4_112_2,2023-11-01T00:39:54.669Z,,0,,,NaN,,,,,,false,,,,696936,696936,,696936,,696965,8,400,,,
sequence,flow.Sequence,4_112,2023-11-01T00:39:54.670Z,,0,,,3054,completion,,,,,false,,,,696936,696936,693864,693851,693882,696965,8,400,,,
trial,html.Screen,4_113_0,2023-11-01T00:39:57.210Z,,0,3,,2527,response,ISIC_6025721.JPG,3,ISIC_4523382.JPG,ISIC_4523382.JPG,false,0,keypress(z),500,699477,699476,696949,696936,696965,699498,8,400,14,,ISIC_6025721.JPG
break,html.Screen,4_113_1,2023-11-01T00:39:57.210Z,,0,,,NaN,,,,,,false,,,,699477,699477,,699477,,699498,8,400,,,
break_continue,html.Screen,4_113_2,2023-11-01T00:39:57.211Z,,0,,,NaN,,,,,,false,,,,699478.0000000001,699477,,699477,,699498,8,400,,,
sequence,flow.Sequence,4_113,2023-11-01T00:39:57.211Z,,0,,,2512,completion,,,,,false,,,,699478.0000000001,699477,696949,696936,696965,699498,8,400,,,
trial,html.Screen,4_114_0,2023-11-01T00:40:01.173Z,,0,3,,3958,response,ISIC_0065597.JPG,11,ISIC_6002694.JPG,ISIC_6002694.JPG,false,0,keypress(z),500,703440,703440,699482,699478.0000000001,699498,703466,8,400,15,,ISIC_0065597.JPG
break,html.Screen,4_114_1,2023-11-01T00:40:01.174Z,,0,,,NaN,,,,,,false,,,,703440,703440,,703440,,703466,8,400,,,
break_continue,html.Screen,4_114_2,2023-11-01T00:40:01.174Z,,0,,,NaN,,,,,,false,,,,703441,703441,,703440,,703466,8,400,,,
sequence,flow.Sequence,4_114,2023-11-01T00:40:01.174Z,,0,,,3943,completion,,,,,false,,,,703441,703441,699482,699478.0000000001,699498,703466,8,400,,,
trial,html.Screen,4_115_0,2023-11-01T00:40:04.541Z,,0,3,,3359,response,ISIC_0067979.JPG,1,ISIC_0011665.JPG,ISIC_0011665.JPG,false,0,keypress(z),500,706808,706807,703448,703441,703466,706833,8,400,16,,ISIC_0067979.JPG
break,html.Screen,4_115_1,2023-11-01T00:40:04.542Z,,0,,,NaN,,,,,,false,,,,706808,706808,,706808,,706833,8,400,,,
break_continue,html.Screen,4_115_2,2023-11-01T00:40:04.542Z,,0,,,NaN,,,,,,false,,,,706808,706808,,706808,,706833,8,400,,,
sequence,flow.Sequence,4_115,2023-11-01T00:40:04.542Z,,0,,,3342,completion,,,,,false,,,,706808,706808,703448,703441,703466,706833,8,400,,,
trial,html.Screen,4_116_0,2023-11-01T00:40:07.802Z,,0,3,,3253,response,ISIC_0055046.JPG,2,ISIC_7397447.JPG,ISIC_0055046.JPG,false,1,keypress(m),500,710068,710068,706815,706809,706833,710099,8,400,17,,ISIC_7397447.JPG
break,html.Screen,4_116_1,2023-11-01T00:40:07.803Z,,0,,,NaN,,,,,,false,,,,710069,710069,,710068,,710099,8,400,,,
break_continue,html.Screen,4_116_2,2023-11-01T00:40:07.803Z,,0,,,NaN,,,,,,false,,,,710069,710069,,710069,,710099,8,400,,,
sequence,flow.Sequence,4_116,2023-11-01T00:40:07.803Z,,0,,,3236,completion,,,,,false,,,,710069,710069,706815,706809,706833,710099,8,400,,,
trial,html.Screen,4_117_0,2023-11-01T00:40:11.609Z,,0,3,,3792,response,ISIC_0002118.JPG,14,ISIC_3133127.JPG,ISIC_0002118.JPG,false,1,keypress(m),500,713875,713875,710083,710069,710099,713899,8,400,18,,ISIC_3133127.JPG
break,html.Screen,4_117_1,2023-11-01T00:40:11.610Z,,0,,,NaN,,,,,,false,,,,713876,713876,,713875,,713899,8,400,,,
break_continue,html.Screen,4_117_2,2023-11-01T00:40:11.610Z,,0,,,NaN,,,,,,false,,,,713876,713876,,713876,,713899,8,400,,,
sequence,flow.Sequence,4_117,2023-11-01T00:40:11.610Z,,0,,,3777,completion,,,,,false,,,,713876,713876,710083,710069,710099,713899,8,400,,,
trial,html.Screen,4_118_0,2023-11-01T00:40:15.265Z,,0,3,,3648.0000000001164,response,ISIC_0059597.JPG,12,ISIC_0010886.JPG,ISIC_0059597.JPG,false,1,keypress(m),500,717531.0000000001,717531.0000000001,713883,713876,713899,717566,8,400,19,,ISIC_0010886.JPG
break,html.Screen,4_118_1,2023-11-01T00:40:15.266Z,,0,,,NaN,,,,,,false,,,,717532,717532,,717531.0000000001,,717566,8,400,,,
break_continue,html.Screen,4_118_2,2023-11-01T00:40:15.266Z,,0,,,NaN,,,,,,false,,,,717532,717532,,717532,,717566,8,400,,,
sequence,flow.Sequence,4_118,2023-11-01T00:40:15.266Z,,0,,,3633,completion,,,,,false,,,,717532,717532,713883,713876,713899,717566,8,400,,,
trial,html.Screen,4_119_0,2023-11-01T00:40:18.272Z,,0,3,,2988,response,ISIC_2166957.JPG,4,ISIC_0063070.JPG,ISIC_0063070.JPG,false,0,keypress(z),500,720538,720538,717550,717532,717566,720567,8,400,20,,ISIC_2166957.JPG
break,html.Screen,4_119_1,2023-11-01T00:40:18.273Z,,0,,,NaN,,,,,,false,,,,720538,720538,,720538,,720567,8,400,,,
break_continue,html.Screen,4_119_2,2023-11-01T00:40:18.273Z,,0,,,NaN,,,,,,false,,,,720539,720539,,720539,,720567,8,400,,,
sequence,flow.Sequence,4_119,2023-11-01T00:40:18.273Z,,0,,,2973,completion,,,,,false,,,,720539,720539,717550,717532,717566,720567,8,400,,,
trial,html.Screen,4_120_0,2023-11-01T00:40:21.320Z,,0,3,,3036,response,ISIC_9685931.JPG,7,ISIC_0030512.JPG,ISIC_0030512.JPG,false,0,keypress(z),500,723586,723586,720550,720539,720567,723618,8,400,21,,ISIC_9685931.JPG
break,html.Screen,4_120_1,2023-11-01T00:40:21.321Z,,0,,,NaN,,,,,,false,,,,723586,723586,,723586,,723618,8,400,,,
break_continue,html.Screen,4_120_2,2023-11-01T00:40:21.321Z,,0,,,NaN,,,,,,false,,,,723587,723587,,723587,,723618,8,400,,,
sequence,flow.Sequence,4_120,2023-11-01T00:40:21.321Z,,0,,,3020,completion,,,,,false,,,,723587,723587,720550,720539,720567,723618,8,400,,,
trial,html.Screen,4_121_0,2023-11-01T00:40:24.520Z,,0,3,,3185,response,ISIC_0010280.JPG,11,ISIC_0081584.JPG,ISIC_0081584.JPG,false,0,keypress(z),500,726786,726785,723600,723587,723618,726818,8,400,22,,ISIC_0010280.JPG
break,html.Screen,4_121_1,2023-11-01T00:40:24.521Z,,0,,,NaN,,,,,,false,,,,726786,726786,,726786,,726818,8,400,,,
break_continue,html.Screen,4_121_2,2023-11-01T00:40:24.521Z,,0,,,NaN,,,,,,false,,,,726787,726786,,726786,,726818,8,400,,,
sequence,flow.Sequence,4_121,2023-11-01T00:40:24.521Z,,0,,,3168,completion,,,,,false,,,,726787,726786,723600,723587,723618,726818,8,400,,,
trial,html.Screen,4_122_0,2023-11-01T00:40:27.200Z,,0,3,,2664,response,ISIC_0065235.JPG,14,ISIC_4843102.JPG,ISIC_0065235.JPG,false,1,keypress(m),500,729465,729465,726801,726787,726818,729501,8,400,23,,ISIC_4843102.JPG
break,html.Screen,4_122_1,2023-11-01T00:40:27.200Z,,0,,,NaN,,,,,,false,,,,729466,729466,,729466,,729501,8,400,,,
break_continue,html.Screen,4_122_2,2023-11-01T00:40:27.201Z,,0,,,NaN,,,,,,false,,,,729466,729466,,729466,,729501,8,400,,,
sequence,flow.Sequence,4_122,2023-11-01T00:40:27.201Z,,0,,,2648,completion,,,,,false,,,,729467,729466,726801,726787,726818,729501,8,400,,,
trial,html.Screen,4_123_0,2023-11-01T00:40:30.117Z,,0,3,,2898.0000000001164,response,ISIC_7630208.JPG,6,ISIC_7475827.JPG,ISIC_7630208.JPG,false,1,keypress(m),500,732383,732382.0000000001,729484,729467,729501,732417,8,400,24,,ISIC_7475827.JPG
break,html.Screen,4_123_1,2023-11-01T00:40:30.118Z,,0,,,NaN,,,,,,false,,,,732383,732383,,732383,,732417,8,400,,,
break_continue,html.Screen,4_123_2,2023-11-01T00:40:30.118Z,,0,,,NaN,,,,,,false,,,,732384,732384,,732383,,732417,8,400,,,
sequence,flow.Sequence,4_123,2023-11-01T00:40:30.118Z,,0,,,2883,completion,,,,,false,,,,732384,732384,729484,729467,729501,732417,8,400,,,
trial,html.Screen,4_124_0,2023-11-01T00:40:33.040Z,,0,3,,2904.0000000001164,response,ISIC_8009880.JPG,12,ISIC_0024284.JPG,ISIC_0024284.JPG,false,0,keypress(z),500,735306,735305.0000000001,732401,732384,732417,735334,8,400,25,,ISIC_8009880.JPG
break,html.Screen,4_124_1,2023-11-01T00:40:33.041Z,,0,,,NaN,,,,,,false,,,,735306,735306,,735306,,735334,8,400,,,
break_continue,html.Screen,4_124_2,2023-11-01T00:40:33.041Z,,0,,,NaN,,,,,,false,,,,735307,735307,,735306,,735334,8,400,,,
sequence,flow.Sequence,4_124,2023-11-01T00:40:33.041Z,,0,,,2890,completion,,,,,false,,,,735307,735307,732401,732384,732417,735334,8,400,,,
trial,html.Screen,4_125_0,2023-11-01T00:40:35.839Z,,0,3,,2786,response,ISIC_0056793.JPG,11,ISIC_0063961.JPG,ISIC_0063961.JPG,false,0,keypress(z),500,738104,738104,735318,735307,735334,738135,8,400,26,,ISIC_0056793.JPG
break,html.Screen,4_125_1,2023-11-01T00:40:35.839Z,,0,,,NaN,,,,,,false,,,,738105,738105,,738104,,738135,8,400,,,
break_continue,html.Screen,4_125_2,2023-11-01T00:40:35.839Z,,0,,,NaN,,,,,,false,,,,738105,738105,,738105,,738135,8,400,,,
sequence,flow.Sequence,4_125,2023-11-01T00:40:35.839Z,,0,,,2771,completion,,,,,false,,,,738105,738105,735318,735307,735334,738135,8,400,,,
trial,html.Screen,4_126_0,2023-11-01T00:40:38.669Z,,0,3,,2816,response,ISIC_5823292.JPG,8,ISIC_0029397.JPG,ISIC_0029397.JPG,false,0,keypress(z),500,740934,740934,738118,738105,738135,740968,8,400,27,,ISIC_5823292.JPG
break,html.Screen,4_126_1,2023-11-01T00:40:38.669Z,,0,,,NaN,,,,,,false,,,,740935.0000000001,740935.0000000001,,740934,,740968,8,400,,,
break_continue,html.Screen,4_126_2,2023-11-01T00:40:38.670Z,,0,,,NaN,,,,,,false,,,,740935.0000000001,740935.0000000001,,740935.0000000001,,740968,8,400,,,
sequence,flow.Sequence,4_126,2023-11-01T00:40:38.670Z,,0,,,2800.0000000001164,completion,,,,,false,,,,740935.0000000001,740935.0000000001,738118,738105,738135,740968,8,400,,,
trial,html.Screen,4_127_0,2023-11-01T00:40:41.270Z,,0,3,,2583,response,ISIC_8796456.JPG,16,ISIC_0030087.JPG,ISIC_0030087.JPG,false,0,keypress(z),500,743535,743535,740952,740935.0000000001,740968,743569,8,400,28,,ISIC_8796456.JPG
break,html.Screen,4_127_1,2023-11-01T00:40:41.270Z,,0,,,NaN,,,,,,false,,,,743535,743535,,743535,,743569,8,400,,,
break_continue,html.Screen,4_127_2,2023-11-01T00:40:41.270Z,,0,,,NaN,,,,,,false,,,,743536,743535,,743535,,743569,8,400,,,
sequence,flow.Sequence,4_127,2023-11-01T00:40:41.270Z,,0,,,2567,completion,,,,,false,,,,743536,743535,740952,740935.0000000001,740968,743569,8,400,,,
trial,html.Screen,4_128_0,2023-11-01T00:40:44.180Z,,0,3,,2893,response,ISIC_1915890.JPG,16,ISIC_0067805.JPG,ISIC_0067805.JPG,false,0,keypress(z),500,746445,746445,743552,743536,743569,746468,8,400,29,,ISIC_1915890.JPG
break,html.Screen,4_128_1,2023-11-01T00:40:44.181Z,,0,,,NaN,,,,,,false,,,,746446,746446,,746445,,746468,8,400,,,
break_continue,html.Screen,4_128_2,2023-11-01T00:40:44.181Z,,0,,,NaN,,,,,,false,,,,746446,746446,,746446,,746468,8,400,,,
sequence,flow.Sequence,4_128,2023-11-01T00:40:44.181Z,,0,,,2877,completion,,,,,false,,,,746446,746446,743552,743536,743569,746468,8,400,,,
trial,html.Screen,4_129_0,2023-11-01T00:40:46.891Z,,0,3,,2704.0000000001164,response,ISIC_0072353.JPG,14,ISIC_5101111.JPG,ISIC_0072353.JPG,false,1,keypress(m),500,749156.0000000001,749156.0000000001,746452,746446,746468,749185,8,400,30,,ISIC_5101111.JPG
break,html.Screen,4_129_1,2023-11-01T00:40:46.891Z,,0,,,NaN,,,,,,false,,,,749157,749156.0000000001,,749156.0000000001,,749185,8,400,,,
break_continue,html.Screen,4_129_2,2023-11-01T00:40:46.892Z,,0,,,NaN,,,,,,false,,,,749157,749157,,749157,,749185,8,400,,,
sequence,flow.Sequence,4_129,2023-11-01T00:40:46.892Z,,0,,,2689,completion,,,,,false,,,,749157,749157,746452,746446,746468,749185,8,400,,,
trial,html.Screen,4_130_0,2023-11-01T00:40:49.789Z,,0,3,,2885,response,ISIC_0000167.JPG,8,ISIC_0027659.JPG,ISIC_0000167.JPG,false,1,keypress(m),500,752054,752053,749168,749157,749185,752085,8,400,31,,ISIC_0027659.JPG
break,html.Screen,4_130_1,2023-11-01T00:40:49.789Z,,0,,,NaN,,,,,,false,,,,752054,752054,,752054,,752085,8,400,,,
break_continue,html.Screen,4_130_2,2023-11-01T00:40:49.789Z,,0,,,NaN,,,,,,false,,,,752054,752054,,752054,,752085,8,400,,,
sequence,flow.Sequence,4_130,2023-11-01T00:40:49.789Z,,0,,,2869,completion,,,,,false,,,,752055.0000000001,752054,749168,749157,749185,752085,8,400,,,
trial,html.Screen,4_131_0,2023-11-01T00:40:52.662Z,,0,3,,2859,response,ISIC_9267202.JPG,15,ISIC_0000549.JPG,ISIC_0000549.JPG,false,0,keypress(z),500,754927,754927,752068,752055.0000000001,752085,754952,8,400,32,,ISIC_9267202.JPG
break,html.Screen,4_131_1,2023-11-01T00:40:52.663Z,,0,,,NaN,,,,,,false,,,,754928,754928,,754927,,754952,8,400,,,
break_continue,html.Screen,4_131_2,2023-11-01T00:40:52.663Z,,0,,,NaN,,,,,,false,,,,754928,754928,,754928,,754952,8,400,,,
sequence,flow.Sequence,4_131,2023-11-01T00:40:52.663Z,,0,,,2843,completion,,,,,false,,,,754928,754928,752068,752055.0000000001,752085,754952,8,400,,,
trial,html.Screen,4_132_0,2023-11-01T00:40:55.866Z,,0,3,,3196,response,ISIC_0059925.JPG,3,ISIC_0062367.JPG,ISIC_0059925.JPG,false,1,keypress(m),500,758131,758131,754935,754928,754952,758169,8,400,33,,ISIC_0062367.JPG
break,html.Screen,4_132_1,2023-11-01T00:40:55.867Z,,0,,,NaN,,,,,,false,,,,758132.0000000001,758132.0000000001,,758131,,758169,8,400,,,
break_continue,html.Screen,4_132_2,2023-11-01T00:40:55.867Z,,0,,,NaN,,,,,,false,,,,758132.0000000001,758132.0000000001,,758132.0000000001,,758169,8,400,,,
sequence,flow.Sequence,4_132,2023-11-01T00:40:55.868Z,,0,,,3180.0000000001164,completion,,,,,false,,,,758132.0000000001,758132.0000000001,754935,754928,754952,758169,8,400,,,
trial,html.Screen,4_133_0,2023-11-01T00:40:58.528Z,,0,3,,2641,response,ISIC_9433388.JPG,13,ISIC_9034574.JPG,ISIC_9034574.JPG,false,0,keypress(z),500,760793,760793,758152,758132.0000000001,758169,760819,8,400,34,,ISIC_9433388.JPG
break,html.Screen,4_133_1,2023-11-01T00:40:58.529Z,,0,,,NaN,,,,,,false,,,,760793,760793,,760793,,760819,8,400,,,
break_continue,html.Screen,4_133_2,2023-11-01T00:40:58.529Z,,0,,,NaN,,,,,,false,,,,760794,760794,,760793,,760819,8,400,,,
sequence,flow.Sequence,4_133,2023-11-01T00:40:58.529Z,,0,,,2625,completion,,,,,false,,,,760794,760794,758152,758132.0000000001,758169,760819,8,400,,,
trial,html.Screen,4_134_0,2023-11-01T00:41:01.218Z,,0,3,,2680.0000000001164,response,ISIC_0026756.JPG,8,ISIC_0061152.JPG,ISIC_0026756.JPG,false,1,keypress(m),500,763483.0000000001,763483.0000000001,760803,760794,760819,763519,8,400,35,,ISIC_0061152.JPG
break,html.Screen,4_134_1,2023-11-01T00:41:01.219Z,,0,,,NaN,,,,,,false,,,,763484,763483.0000000001,,763483.0000000001,,763519,8,400,,,
break_continue,html.Screen,4_134_2,2023-11-01T00:41:01.219Z,,0,,,NaN,,,,,,false,,,,763484,763484,,763484,,763519,8,400,,,
sequence,flow.Sequence,4_134,2023-11-01T00:41:01.219Z,,0,,,2665,completion,,,,,false,,,,763484,763484,760803,760794,760819,763519,8,400,,,
trial,html.Screen,4_135_0,2023-11-01T00:41:04.255Z,,0,3,,3017,response,ISIC_3492490.JPG,12,ISIC_0031741.JPG,ISIC_3492490.JPG,false,1,keypress(m),500,766520,766519,763502,763484,763519,766554,8,400,36,,ISIC_0031741.JPG
break,html.Screen,4_135_1,2023-11-01T00:41:04.256Z,,0,,,NaN,,,,,,false,,,,766520,766520,,766520,,766554,8,400,,,
break_continue,html.Screen,4_135_2,2023-11-01T00:41:04.256Z,,0,,,NaN,,,,,,false,,,,766521.0000000001,766520,,766520,,766554,8,400,,,
sequence,flow.Sequence,4_135,2023-11-01T00:41:04.256Z,,0,,,3001,completion,,,,,false,,,,766521.0000000001,766520,763502,763484,763519,766554,8,400,,,
trial,html.Screen,4_136_0,2023-11-01T00:41:08.719Z,,0,3,,4446.000000000116,response,ISIC_6171084.JPG,6,ISIC_2376016.JPG,ISIC_2376016.JPG,false,0,keypress(z),500,770983.0000000001,770983.0000000001,766537,766521.0000000001,766554,771004,8,400,37,,ISIC_6171084.JPG
break,html.Screen,4_136_1,2023-11-01T00:41:08.720Z,,0,,,NaN,,,,,,false,,,,770984,770984,,770984,,771004,8,400,,,
break_continue,html.Screen,4_136_2,2023-11-01T00:41:08.720Z,,0,,,NaN,,,,,,false,,,,770984,770984,,770984,,771004,8,400,,,
sequence,flow.Sequence,4_136,2023-11-01T00:41:08.720Z,,0,,,4430,completion,,,,,false,,,,770984,770984,766537,766521.0000000001,766554,771004,8,400,,,
trial,html.Screen,4_137_0,2023-11-01T00:41:11.860Z,,0,3,,3138,response,ISIC_0065746.JPG,15,ISIC_0032887.JPG,ISIC_0065746.JPG,false,1,keypress(m),500,774124,774124,770986,770984,771004,774153,8,400,38,,ISIC_0032887.JPG
break,html.Screen,4_137_1,2023-11-01T00:41:11.860Z,,0,,,NaN,,,,,,false,,,,774124,774124,,774124,,774153,8,400,,,
break_continue,html.Screen,4_137_2,2023-11-01T00:41:11.860Z,,0,,,NaN,,,,,,false,,,,774125,774125,,774125,,774153,8,400,,,
sequence,flow.Sequence,4_137,2023-11-01T00:41:11.860Z,,0,,,3121,completion,,,,,false,,,,774125,774125,770986,770984,771004,774153,8,400,,,
trial,html.Screen,4_138_0,2023-11-01T00:41:16.285Z,,0,3,,4411,response,ISIC_4864523.JPG,1,ISIC_0063268.JPG,ISIC_4864523.JPG,false,1,keypress(m),500,778550.0000000001,778549,774138,774125,774153,778587,8,400,39,,ISIC_0063268.JPG
break,html.Screen,4_138_1,2023-11-01T00:41:16.286Z,,0,,,NaN,,,,,,false,,,,778550.0000000001,778550.0000000001,,778550.0000000001,,778587,8,400,,,
break_continue,html.Screen,4_138_2,2023-11-01T00:41:16.287Z,,0,,,NaN,,,,,,false,,,,778551,778551,,778551,,778587,8,400,,,
sequence,flow.Sequence,4_138,2023-11-01T00:41:16.287Z,,0,,,4398,completion,,,,,false,,,,778551,778551,774138,774125,774153,778587,8,400,,,
trial,html.Screen,4_139_0,2023-11-01T00:41:20.103Z,,0,3,,3797,response,ISIC_0031821.JPG,16,ISIC_6774326.JPG,ISIC_0031821.JPG,false,1,keypress(m),500,782367,782367,778570,778551,778587,782405,8,400,40,,ISIC_6774326.JPG
break,html.Screen,4_139_1,2023-11-01T00:41:20.104Z,,0,,,NaN,,,,,,false,,,,782368,782368,,782367,,782405,8,400,,,
break_continue,html.Screen,4_139_2,2023-11-01T00:41:20.104Z,,0,,,NaN,,,,,,false,,,,782368,782368,,782368,,782405,8,400,,,
sequence,flow.Sequence,4_139,2023-11-01T00:41:20.104Z,,0,,,3781,completion,,,,,false,,,,782368,782368,778570,778551,778587,782405,8,400,,,
trial,html.Screen,4_140_0,2023-11-01T00:41:23.570Z,,0,3,,3447.0000000001164,response,ISIC_0013651.JPG,5,ISIC_2758999.JPG,ISIC_0013651.JPG,false,1,keypress(m),500,785834.0000000001,785834.0000000001,782387,782368,782405,785870,8,400,41,,ISIC_2758999.JPG
break,html.Screen,4_140_1,2023-11-01T00:41:23.571Z,,0,,,NaN,,,,,,false,,,,785835,785834.0000000001,,785834.0000000001,,785870,8,400,,,
break_continue,html.Screen,4_140_2,2023-11-01T00:41:23.571Z,,0,,,NaN,,,,,,false,,,,785835,785835,,785835,,785870,8,400,,,
sequence,flow.Sequence,4_140,2023-11-01T00:41:23.571Z,,0,,,3430,completion,,,,,false,,,,785835,785835,782387,782368,782405,785870,8,400,,,
trial,html.Screen,4_141_0,2023-11-01T00:41:26.760Z,,0,3,,3167,response,ISIC_2215276.JPG,14,ISIC_0009940.JPG,ISIC_2215276.JPG,false,1,keypress(m),500,789024,789022,785855,785835,785870,789054,8,400,42,,ISIC_0009940.JPG
break,html.Screen,4_141_1,2023-11-01T00:41:26.761Z,,0,,,NaN,,,,,,false,,,,789025,789025,,789024,,789054,8,400,,,
break_continue,html.Screen,4_141_2,2023-11-01T00:41:26.761Z,,0,,,NaN,,,,,,false,,,,789025,789025,,789025,,789054,8,400,,,
sequence,flow.Sequence,4_141,2023-11-01T00:41:26.762Z,,0,,,3155,completion,,,,,false,,,,789025,789025,785855,785835,785870,789054,8,400,,,
trial,html.Screen,4_142_0,2023-11-01T00:41:31.713Z,,0,3,,4937,response,ISIC_0067972.JPG,0,ISIC_0024261.JPG,ISIC_0067972.JPG,false,1,keypress(m),500,793977,793976,789039,789026.0000000001,789054,794005,8,400,43,,ISIC_0024261.JPG
break,html.Screen,4_142_1,2023-11-01T00:41:31.714Z,,0,,,NaN,,,,,,false,,,,793977,793977,,793977,,794005,8,400,,,
break_continue,html.Screen,4_142_2,2023-11-01T00:41:31.714Z,,0,,,NaN,,,,,,false,,,,793978.0000000001,793978.0000000001,,793978.0000000001,,794005,8,400,,,
sequence,flow.Sequence,4_142,2023-11-01T00:41:31.714Z,,0,,,4924.000000000116,completion,,,,,false,,,,793978.0000000001,793978.0000000001,789039,789025,789054,794005,8,400,,,
trial,html.Screen,4_143_0,2023-11-01T00:41:36.825Z,,0,3,,5099,response,ISIC_7254389.JPG,15,ISIC_0000304.JPG,ISIC_0000304.JPG,false,0,keypress(z),500,799088,799088,793989,793978.0000000001,794005,799123,8,400,44,,ISIC_7254389.JPG
break,html.Screen,4_143_1,2023-11-01T00:41:36.825Z,,0,,,NaN,,,,,,false,,,,799089,799089,,799089,,799123,8,400,,,
break_continue,html.Screen,4_143_2,2023-11-01T00:41:36.826Z,,0,,,NaN,,,,,,false,,,,799089,799089,,799089,,799123,8,400,,,
sequence,flow.Sequence,4_143,2023-11-01T00:41:36.826Z,,0,,,5084,completion,,,,,false,,,,799089,799089,793989,793978.0000000001,794005,799123,8,400,,,
trial,html.Screen,4_144_0,2023-11-01T00:41:40.073Z,,0,3,,3231,response,ISIC_6805527.JPG,12,ISIC_0027663.JPG,ISIC_6805527.JPG,false,1,keypress(m),500,802336,802336,799105,799089,799123,802373,8,400,45,,ISIC_0027663.JPG
break,html.Screen,4_144_1,2023-11-01T00:41:40.073Z,,0,,,NaN,,,,,,false,,,,802337,802337,,802337,,802373,8,400,,,
break_continue,html.Screen,4_144_2,2023-11-01T00:41:40.074Z,,0,,,NaN,,,,,,false,,,,802337,802337,,802337,,802373,8,400,,,
sequence,flow.Sequence,4_144,2023-11-01T00:41:40.074Z,,0,,,3214,completion,,,,,false,,,,802337,802337,799105,799089,799123,802373,8,400,,,
trial,html.Screen,4_145_0,2023-11-01T00:41:43.166Z,,0,3,,3074,response,ISIC_9109847.JPG,2,ISIC_6709052.JPG,ISIC_9109847.JPG,false,1,keypress(m),500,805430.0000000001,805429,802355,802337,802373,805455,8,400,46,,ISIC_6709052.JPG
break,html.Screen,4_145_1,2023-11-01T00:41:43.167Z,,0,,,NaN,,,,,,false,,,,805430.0000000001,805430.0000000001,,805430.0000000001,,805455,8,400,,,
break_continue,html.Screen,4_145_2,2023-11-01T00:41:43.167Z,,0,,,NaN,,,,,,false,,,,805431,805431,,805430.0000000001,,805455,8,400,,,
sequence,flow.Sequence,4_145,2023-11-01T00:41:43.167Z,,0,,,3058,completion,,,,,false,,,,805431,805431,802355,802337,802373,805455,8,400,,,
trial,html.Screen,4_146_0,2023-11-01T00:41:46.449Z,,0,3,,3273,response,ISIC_0011931.JPG,13,ISIC_4099428.JPG,ISIC_0011931.JPG,false,1,keypress(m),500,808712,808712,805439,805431,805455,808739,8,400,47,,ISIC_4099428.JPG
break,html.Screen,4_146_1,2023-11-01T00:41:46.450Z,,0,,,NaN,,,,,,false,,,,808713,808713,,808713,,808739,8,400,,,
break_continue,html.Screen,4_146_2,2023-11-01T00:41:46.450Z,,0,,,NaN,,,,,,false,,,,808713,808713,,808713,,808739,8,400,,,
sequence,flow.Sequence,4_146,2023-11-01T00:41:46.450Z,,0,,,3258,completion,,,,,false,,,,808714,808713,805439,805431,805455,808739,8,400,,,
trial,html.Screen,4_147_0,2023-11-01T00:41:50.215Z,,0,3,,3755.0000000001164,response,ISIC_0016050.JPG,2,ISIC_0032420.JPG,ISIC_0016050.JPG,false,1,keypress(m),500,812478.0000000001,812478.0000000001,808723,808714,808739,812507,8,400,48,,ISIC_0032420.JPG
break,html.Screen,4_147_1,2023-11-01T00:41:50.215Z,,0,,,NaN,,,,,,false,,,,812478.0000000001,812478.0000000001,,812478.0000000001,,812507,8,400,,,
break_continue,html.Screen,4_147_2,2023-11-01T00:41:50.215Z,,0,,,NaN,,,,,,false,,,,812478.0000000001,812478.0000000001,,812478.0000000001,,812507,8,400,,,
sequence,flow.Sequence,4_147,2023-11-01T00:41:50.215Z,,0,,,3739.0000000001164,completion,,,,,false,,,,812479,812478.0000000001,808723,808714,808739,812507,8,400,,,
trial,html.Screen,4_148_0,2023-11-01T00:41:54.602Z,,0,3,,4376,response,ISIC_0014392.JPG,12,ISIC_3809998.JPG,ISIC_0014392.JPG,false,1,keypress(m),500,816865,816865,812489,812479,812507,816889,8,400,49,,ISIC_3809998.JPG
break,html.Screen,4_148_1,2023-11-01T00:41:54.602Z,,0,,,NaN,,,,,,false,,,,816866,816865,,816865,,816889,8,400,,,
break_continue,html.Screen,4_148_2,2023-11-01T00:41:54.603Z,,0,,,NaN,,,,,,false,,,,816866,816866,,816866,,816889,8,400,,,
sequence,flow.Sequence,4_148,2023-11-01T00:41:54.603Z,,0,,,4359,completion,,,,,false,,,,816866,816866,812489,812479,812507,816889,8,400,,,
trial,html.Screen,4_149_0,2023-11-01T00:41:58.326Z,,0,3,,3715,response,ISIC_4652186.JPG,7,ISIC_0465385.JPG,ISIC_4652186.JPG,false,1,keypress(m),500,820589,820589,816874,816866,816889,820624,8,400,50,,ISIC_0465385.JPG
break,html.Screen,4_149_1,2023-11-01T00:42:08.346Z,,0,,,10000,timeout,,,,,false,,,,830608.0000000001,830608,820608,820589,820624,830624,8,400,,,
break_continue,html.Screen,4_149_2,2023-11-01T00:42:57.648Z,,0,,,49277,response,,,,,false,continue,keypress(Space),,879909,879885,830608,830609,830624,879945,8,400,,,
sequence,flow.Sequence,4_149,2023-11-01T00:42:57.649Z,,0,,,62996,completion,,,,,false,,,,879910,879885,816874,816866,816889,879945,8,400,,,
trial,html.Screen,4_150_0,2023-11-01T00:43:02.245Z,,0,4,,4578,response,ISIC_0014127.JPG,10,ISIC_6377883.JPG,ISIC_0014127.JPG,false,1,keypress(m),500,884506,884505,879927,879910,879945,884527,8,400,1,,ISIC_6377883.JPG
break,html.Screen,4_150_1,2023-11-01T00:43:02.245Z,,0,,,NaN,,,,,,false,,,,884506,884506,,884506,,884527,8,400,,,
break_continue,html.Screen,4_150_2,2023-11-01T00:43:02.246Z,,0,,,NaN,,,,,,false,,,,884507.0000000001,884507.0000000001,,884506,,884527,8,400,,,
sequence,flow.Sequence,4_150,2023-11-01T00:43:02.246Z,,0,,,4562.000000000116,completion,,,,,false,,,,884507.0000000001,884507.0000000001,879927,879910,879945,884527,8,400,,,
trial,html.Screen,4_151_0,2023-11-01T00:43:06.526Z,,0,4,,4276,response,ISIC_2660216.JPG,16,ISIC_0064006.JPG,ISIC_0064006.JPG,false,0,keypress(z),500,888787,888787,884511,884507.0000000001,884527,888811,8,400,2,,ISIC_2660216.JPG
break,html.Screen,4_151_1,2023-11-01T00:43:06.527Z,,0,,,NaN,,,,,,false,,,,888788,888787,,888787,,888811,8,400,,,
break_continue,html.Screen,4_151_2,2023-11-01T00:43:06.527Z,,0,,,NaN,,,,,,false,,,,888788,888788,,888788,,888811,8,400,,,
sequence,flow.Sequence,4_151,2023-11-01T00:43:06.527Z,,0,,,4261,completion,,,,,false,,,,888788,888788,884511,884507.0000000001,884527,888811,8,400,,,
trial,html.Screen,4_152_0,2023-11-01T00:43:11.297Z,,0,4,,4763,response,ISIC_0027881.JPG,4,ISIC_5795486.JPG,ISIC_5795486.JPG,false,0,keypress(z),500,893558,893558,888795,888788,888811,893595,8,400,3,,ISIC_0027881.JPG
break,html.Screen,4_152_1,2023-11-01T00:43:11.298Z,,0,,,NaN,,,,,,false,,,,893559,893559,,893558,,893595,8,400,,,
break_continue,html.Screen,4_152_2,2023-11-01T00:43:11.298Z,,0,,,NaN,,,,,,false,,,,893559,893559,,893559,,893595,8,400,,,
sequence,flow.Sequence,4_152,2023-11-01T00:43:11.298Z,,0,,,4748,completion,,,,,false,,,,893559,893559,888795,888788,888811,893595,8,400,,,
trial,html.Screen,4_153_0,2023-11-01T00:43:16.104Z,,0,4,,4787,response,ISIC_7376906.JPG,0,ISIC_0028086.JPG,ISIC_0028086.JPG,false,0,keypress(z),500,898365,898365,893578,893559,893595,898396,8,400,4,,ISIC_7376906.JPG
break,html.Screen,4_153_1,2023-11-01T00:43:16.105Z,,0,,,NaN,,,,,,false,,,,898366,898365,,898365,,898396,8,400,,,
break_continue,html.Screen,4_153_2,2023-11-01T00:43:16.105Z,,0,,,NaN,,,,,,false,,,,898366,898366,,898366,,898396,8,400,,,
sequence,flow.Sequence,4_153,2023-11-01T00:43:16.105Z,,0,,,4771,completion,,,,,false,,,,898366,898366,893578,893559,893595,898396,8,400,,,
trial,html.Screen,4_154_0,2023-11-01T00:43:22.191Z,,0,4,,6072,response,ISIC_9077722.JPG,10,ISIC_0650126.JPG,ISIC_9077722.JPG,false,1,keypress(m),500,904451,904451,898379,898366,898396,904480,8,400,5,,ISIC_0650126.JPG
break,html.Screen,4_154_1,2023-11-01T00:43:22.192Z,,0,,,NaN,,,,,,false,,,,904452,904452,,904452,,904480,8,400,,,
break_continue,html.Screen,4_154_2,2023-11-01T00:43:22.192Z,,0,,,NaN,,,,,,false,,,,904452,904452,,904452,,904480,8,400,,,
sequence,flow.Sequence,4_154,2023-11-01T00:43:22.192Z,,0,,,6056,completion,,,,,false,,,,904452,904452,898379,898366,898396,904480,8,400,,,
trial,html.Screen,4_155_0,2023-11-01T00:43:25.156Z,,0,4,,2953,response,ISIC_6348638.JPG,2,ISIC_5059476.JPG,ISIC_6348638.JPG,false,1,keypress(m),500,907416,907416,904463,904452,904480,907447,8,400,6,,ISIC_5059476.JPG
break,html.Screen,4_155_1,2023-11-01T00:43:25.156Z,,0,,,NaN,,,,,,false,,,,907417,907417,,907416,,907447,8,400,,,
break_continue,html.Screen,4_155_2,2023-11-01T00:43:25.157Z,,0,,,NaN,,,,,,false,,,,907417,907417,,907417,,907447,8,400,,,
sequence,flow.Sequence,4_155,2023-11-01T00:43:25.157Z,,0,,,2937,completion,,,,,false,,,,907417,907417,904463,904452,904480,907447,8,400,,,
trial,html.Screen,4_156_0,2023-11-01T00:43:28.343Z,,0,4,,3174.0000000001164,response,ISIC_9470876.JPG,3,ISIC_0067614.JPG,ISIC_0067614.JPG,false,0,keypress(z),500,910603.0000000001,910603.0000000001,907429,907417,907447,910630,8,400,7,,ISIC_9470876.JPG
break,html.Screen,4_156_1,2023-11-01T00:43:28.343Z,,0,,,NaN,,,,,,false,,,,910604,910603.0000000001,,910603.0000000001,,910630,8,400,,,
break_continue,html.Screen,4_156_2,2023-11-01T00:43:28.344Z,,0,,,NaN,,,,,,false,,,,910604,910604,,910604,,910630,8,400,,,
sequence,flow.Sequence,4_156,2023-11-01T00:43:28.344Z,,0,,,3157,completion,,,,,false,,,,910604,910604,907429,907417,907447,910630,8,400,,,
trial,html.Screen,4_157_0,2023-11-01T00:43:31.271Z,,0,4,,2918.0000000001164,response,ISIC_0028181.JPG,7,ISIC_0000441.JPG,ISIC_0028181.JPG,false,1,keypress(m),500,913531.0000000001,913531.0000000001,910613,910604,910630,913563,8,400,8,,ISIC_0000441.JPG
break,html.Screen,4_157_1,2023-11-01T00:43:31.272Z,,0,,,NaN,,,,,,false,,,,913532,913532,,913531.0000000001,,913563,8,400,,,
break_continue,html.Screen,4_157_2,2023-11-01T00:43:31.272Z,,0,,,NaN,,,,,,false,,,,913532,913532,,913532,,913563,8,400,,,
