sender,sender_type,sender_id,timestamp,meta,,blockNo,condition,duration,ended_on,img_left,img_reveal,img_right,loser,practice,response,response_action,selection_duration,time_commit,time_end,time_render,time_run,time_show,time_switch,total_blocks,total_trials,trialNo,url,winner
informed_consent,html.Screen,0,2023-11-06T15:24:38.490Z,"{""labjs_version"":""20.2.4"",""labjs_build"":{""flavor"":""production"",""commit"":""f5b4a49f956347addd546a832a3327688c2c0fef""},""location"":""https://run.pavlovia.org/MurrayBennett/melanoma-2afc/?participant=66419&platform=sona"",""userAgent"":""Mozilla/5.0 (X11; CrOS x86_64 14541.0.0) AppleWebKit/537.36 (KHTML, like Gecko) Chrome/118.0.0.0 Safari/537.36"",""platform"":""Linux x86_64"",""language"":""en-US"",""locale"":""en-US"",""timeZone"":""America/Chicago"",""timezoneOffset"":360,""screen_width"":1300,""screen_height"":730,""scroll_width"":1300,""scroll_height"":558,""window_innerWidth"":1300,""window_innerHeight"":606,""devicePixelRatio"":1.0507692098617554}",,,,3433.8399999998137,response,,,,,,consent,click button,,6578.299999999814,6566.299999999814,3115.795,3121.4000000003725,3132.46,6615.606,,,,"{""participant"":""66419"",""platform"":""sona""}",
Welcome,html.Screen,1,2023-11-06T15:24:39.069Z,,,,uniform,537.693999999814,response,,,,,,continue,click button,,7157.299999999814,7153.299999999814,6565.592,6579.799999999814,6615.606,7165.579,,,,,
trial,html.Screen,2_0_0,2023-11-06T15:24:45.111Z,,0,0,,6032.921,response,ISIC_0063388.JPG,,ISIC_0025593.JPG,ISIC_0063388.JPG,true,1,keypress(m),500,13199.400000000373,13198.5,7148.889,7157.799999999814,7165.579,13215.254,1,6,1,,ISIC_0025593.JPG
sequence,flow.Sequence,2_0,2023-11-06T15:24:45.111Z,,0,,,6032.921,completion,,,,,true,,,,13200.200000000186,13198.5,7148.889,7157.799999999814,7165.579,13215.254,1,6,,,
trial,html.Screen,2_1_0,2023-11-06T15:24:48.688Z,,0,0,,3561.045999999813,response,ISIC_1309015.JPG,,ISIC_0028178.JPG,ISIC_1309015.JPG,true,1,keypress(m),500,16776.599999999627,16776.299999999814,13198.566,13200.5,13215.254,16781.708,1,6,2,,ISIC_0028178.JPG
sequence,flow.Sequence,2_1,2023-11-06T15:24:48.688Z,,0,,,3561.045999999813,completion,,,,,true,,,,16777.200000000186,16776.299999999814,13198.566,13200.400000000373,13215.254,16781.708,1,6,,,
trial,html.Screen,2_2_0,2023-11-06T15:24:51.782Z,,0,0,,3088.3919999996288,response,ISIC_0031128.JPG,,ISIC_3314853.JPG,ISIC_3314853.JPG,true,0,keypress(z),500,19870.599999999627,19870.099999999627,16765.043,16777.5,16781.708,19881.564,1,6,3,,ISIC_0031128.JPG
sequence,flow.Sequence,2_2,2023-11-06T15:24:51.782Z,,0,,,3088.3919999996288,completion,,,,,true,,,,19871,19870.099999999627,16765.043,16777.400000000373,16781.708,19881.564,1,6,,,
trial,html.Screen,2_3_0,2023-11-06T15:24:57.473Z,,0,0,,5679.535999999629,response,ISIC_0031612.JPG,,ISIC_8980141.JPG,ISIC_0031612.JPG,true,1,keypress(m),500,25562.099999999627,25561.099999999627,19864.876,19871.400000000373,19881.564,25564.571,1,6,4,,ISIC_8980141.JPG
sequence,flow.Sequence,2_3,2023-11-06T15:24:57.474Z,,0,,,5679.535999999629,completion,,,,,true,,,,25562.799999999814,25561.099999999627,19864.876,19871.200000000186,19881.564,25564.571,1,6,,,
trial,html.Screen,2_4_0,2023-11-06T15:25:00.727Z,,0,0,,3250.5289999996276,response,ISIC_9721604.JPG,,ISIC_1197737.JPG,ISIC_9721604.JPG,true,1,keypress(m),500,28815.599999999627,28815.099999999627,25547.906,25563.200000000186,25564.571,28831.085,1,6,5,,ISIC_1197737.JPG
sequence,flow.Sequence,2_4,2023-11-06T15:25:00.727Z,,0,,,3250.5289999996276,completion,,,,,true,,,,28816.299999999814,28815.099999999627,25547.906,25563.099999999627,25564.571,28831.085,1,6,,,
trial,html.Screen,2_5_0,2023-11-06T15:25:08.913Z,,0,0,,8170.214999999815,response,ISIC_0010681.JPG,,ISIC_0025346.JPG,ISIC_0025346.JPG,true,0,keypress(z),500,37001.799999999814,37001.299999999814,28814.397,28816.599999999627,28831.085,37013.98,1,6,6,,ISIC_0010681.JPG
sequence,flow.Sequence,2_5,2023-11-06T15:25:08.914Z,,0,,,8170.214999999815,completion,,,,,true,,,,37002.40000000037,37001.299999999814,28814.397,28816.400000000373,28831.085,37013.98,1,6,,,
loop,flow.Loop,2,2023-11-06T15:25:08.914Z,,,,,29835.720999999816,completion,,,,,true,,,,37002.700000000186,37001.299999999814,7148.889,7157.700000000186,7165.579,37013.98,1,6,,,
exp_instructions,html.Screen,3,2023-11-06T15:25:35.679Z,,,,,26749.619999999624,response,,,,,,continue,keypress(Space),,63768.09999999963,63763.59999999963,36997.291,37002.90000000037,37013.98,63778.221,,,,,
trial,html.Screen,4_0_0,2023-11-06T15:25:38.983Z,,0,1,,3292.9790000001885,response,ISIC_0046345.JPG,5,ISIC_0059609.JPG,ISIC_0059609.JPG,false,0,keypress(z),500,67071.70000000019,67071.20000000019,63761.556,63768.700000000186,63778.221,67079.013,8,400,1,,ISIC_0046345.JPG
break,html.Screen,4_0_1,2023-11-06T15:25:38.985Z,,0,,,NaN,,,,,,false,,,,67073.79999999981,67073.20000000019,,67072.09999999963,,67079.013,8,400,,,
break_continue,html.Screen,4_0_2,2023-11-06T15:25:38.986Z,,0,,,NaN,,,,,,false,,,,67074.79999999981,67074.5,,67074.20000000019,,67079.013,8,400,,,
sequence,flow.Sequence,4_0,2023-11-06T15:25:38.986Z,,0,,,3296.2790000000023,completion,,,,,false,,,,67074.90000000037,67074.5,63761.556,63768.59999999963,63778.221,67079.013,8,400,,,
trial,html.Screen,4_1_0,2023-11-06T15:25:43.341Z,,0,1,,4350.18700000018,response,ISIC_0013988.JPG,4,ISIC_0485529.JPG,ISIC_0013988.JPG,false,1,keypress(m),500,71429.70000000019,71429.20000000019,67062.348,67075.09999999963,67079.013,71445.469,8,400,2,,ISIC_0485529.JPG
break,html.Screen,4_1_1,2023-11-06T15:25:43.343Z,,0,,,NaN,,,,,,false,,,,71431.40000000037,71430.79999999981,,71430,,71445.469,8,400,,,
break_continue,html.Screen,4_1_2,2023-11-06T15:25:43.344Z,,0,,,NaN,,,,,,false,,,,71432.29999999981,71432,,71431.70000000019,,71445.469,8,400,,,
sequence,flow.Sequence,4_1,2023-11-06T15:25:43.344Z,,0,,,4352.986999999994,completion,,,,,false,,,,71432.59999999963,71432,67062.348,67075.09999999963,67079.013,71445.469,8,400,,,
trial,html.Screen,4_2_0,2023-11-06T15:25:45.972Z,,0,1,,2615.231000000189,response,ISIC_0028903.JPG,5,ISIC_0013813.JPG,ISIC_0013813.JPG,false,0,keypress(z),500,74061.20000000019,74060.70000000019,71428.781,71432.79999999981,71445.469,74078.662,8,400,3,,ISIC_0028903.JPG
break,html.Screen,4_2_1,2023-11-06T15:25:45.974Z,,0,,,NaN,,,,,,false,,,,74063,74062.40000000037,,74061.40000000037,,74078.662,8,400,,,
break_continue,html.Screen,4_2_2,2023-11-06T15:25:45.975Z,,0,,,NaN,,,,,,false,,,,74063.70000000019,74063.5,,74063.20000000019,,74078.662,8,400,,,
sequence,flow.Sequence,4_2,2023-11-06T15:25:45.975Z,,0,,,2618.0310000000027,completion,,,,,false,,,,74063.90000000037,74063.5,71428.781,71432.70000000019,71445.469,74078.662,8,400,,,
trial,html.Screen,4_3_0,2023-11-06T15:25:48.666Z,,0,1,,2675.637999999817,response,ISIC_1081051.JPG,4,ISIC_0057949.JPG,ISIC_0057949.JPG,false,0,keypress(z),500,76754.59999999963,76754.29999999981,74061.973,74064.20000000019,74078.662,76761.828,8,400,4,,ISIC_1081051.JPG
break,html.Screen,4_3_1,2023-11-06T15:25:48.668Z,,0,,,NaN,,,,,,false,,,,76756.40000000037,76755.90000000037,,76754.90000000037,,76761.828,8,400,,,
break_continue,html.Screen,4_3_2,2023-11-06T15:25:48.668Z,,0,,,NaN,,,,,,false,,,,76757.09999999963,76756.90000000037,,76756.70000000019,,76761.828,8,400,,,
sequence,flow.Sequence,4_3,2023-11-06T15:25:48.669Z,,0,,,2678.238000000376,completion,,,,,false,,,,76757.5,76756.90000000037,74061.973,74064.20000000019,74078.662,76761.828,8,400,,,
trial,html.Screen,4_4_0,2023-11-06T15:25:51.414Z,,0,1,,2740.0720000003785,response,ISIC_0031438.JPG,5,ISIC_0061516.JPG,ISIC_0031438.JPG,false,1,keypress(m),500,79502.29999999981,79501.90000000037,76745.163,76757.79999999981,76761.828,79511.681,8,400,5,,ISIC_0061516.JPG
break,html.Screen,4_4_1,2023-11-06T15:25:51.415Z,,0,,,NaN,,,,,,false,,,,79503.70000000019,79503.29999999981,,79502.59999999963,,79511.681,8,400,,,
break_continue,html.Screen,4_4_2,2023-11-06T15:25:51.416Z,,0,,,NaN,,,,,,false,,,,79504.70000000019,79504.5,,79504.20000000019,,79511.681,8,400,,,
sequence,flow.Sequence,4_4,2023-11-06T15:25:51.416Z,,0,,,2742.672000000006,completion,,,,,false,,,,79505.09999999963,79504.5,76745.163,76757.59999999963,76761.828,79511.681,8,400,,,
trial,html.Screen,4_5_0,2023-11-06T15:25:53.954Z,,0,1,,2530.618999999817,response,ISIC_7906421.JPG,5,ISIC_3952694.JPG,ISIC_3952694.JPG,false,0,keypress(z),500,82042.59999999963,82042.29999999981,79495.016,79505.29999999981,79511.681,82044.879,8,400,6,,ISIC_7906421.JPG
break,html.Screen,4_5_1,2023-11-06T15:25:53.956Z,,0,,,NaN,,,,,,false,,,,82044.29999999981,82043.79999999981,,82043,,82044.879,8,400,,,
break_continue,html.Screen,4_5_2,2023-11-06T15:25:53.956Z,,0,,,NaN,,,,,,false,,,,82045.09999999963,82044.79999999981,,82044.59999999963,,82044.879,8,400,,,
sequence,flow.Sequence,4_5,2023-11-06T15:25:53.957Z,,0,,,2533.118999999817,completion,,,,,false,,,,82045.70000000019,82044.79999999981,79495.016,79505.29999999981,79511.681,82044.879,8,400,,,
trial,html.Screen,4_6_0,2023-11-06T15:25:57.436Z,,0,1,,3479.3210000001854,response,ISIC_4154293.JPG,4,ISIC_0046741.JPG,ISIC_4154293.JPG,false,1,keypress(m),500,85524.5,85524.20000000019,82028.214,82046.09999999963,82044.879,85528.026,8,400,7,,ISIC_0046741.JPG
break,html.Screen,4_6_1,2023-11-06T15:25:57.437Z,,0,,,NaN,,,,,,false,,,,85526.09999999963,85525.5,,85524.90000000037,,85528.026,8,400,,,
break_continue,html.Screen,4_6_2,2023-11-06T15:25:57.438Z,,0,,,NaN,,,,,,false,,,,85526.90000000037,85526.70000000019,,85526.40000000037,,85528.026,8,400,,,
sequence,flow.Sequence,4_6,2023-11-06T15:25:57.439Z,,0,,,3481.8210000001854,completion,,,,,false,,,,85527.40000000037,85526.70000000019,82028.214,82046,82044.879,85528.026,8,400,,,
trial,html.Screen,4_7_0,2023-11-06T15:26:03.064Z,,0,1,,5624.474000000002,response,ISIC_0064979.JPG,5,ISIC_0057753.JPG,ISIC_0064979.JPG,false,1,keypress(m),500,91152.79999999981,91152.5,85511.361,85527.59999999963,85528.026,91161.056,8,400,8,,ISIC_0057753.JPG
break,html.Screen,4_7_1,2023-11-06T15:26:03.066Z,,0,,,NaN,,,,,,false,,,,91154.40000000037,91153.90000000037,,91153.20000000019,,91161.056,8,400,,,
break_continue,html.Screen,4_7_2,2023-11-06T15:26:03.067Z,,0,,,NaN,,,,,,false,,,,91155.40000000037,91155.09999999963,,91154.70000000019,,91161.056,8,400,,,
sequence,flow.Sequence,4_7,2023-11-06T15:26:03.067Z,,0,,,5627.073999999629,completion,,,,,false,,,,91155.70000000019,91155.09999999963,85511.361,85527.5,85528.026,91161.056,8,400,,,
trial,html.Screen,4_8_0,2023-11-06T15:26:05.717Z,,0,1,,2644.743999999817,response,ISIC_0027654.JPG,5,ISIC_5226371.JPG,ISIC_5226371.JPG,false,0,keypress(z),500,93806.20000000019,93805.79999999981,91144.391,91156,91161.056,93810.916,8,400,9,,ISIC_0027654.JPG
break,html.Screen,4_8_1,2023-11-06T15:26:05.719Z,,0,,,NaN,,,,,,false,,,,93807.70000000019,93807.09999999963,,93806.5,,93810.916,8,400,,,
break_continue,html.Screen,4_8_2,2023-11-06T15:26:05.720Z,,0,,,NaN,,,,,,false,,,,93808.70000000019,93808.5,,93808,,93810.916,8,400,,,
sequence,flow.Sequence,4_8,2023-11-06T15:26:05.720Z,,0,,,2647.444000000003,completion,,,,,false,,,,93809.20000000019,93808.5,91144.391,91155.90000000037,91161.056,93810.916,8,400,,,
trial,html.Screen,4_9_0,2023-11-06T15:26:08.171Z,,0,1,,2448.0840000000026,response,ISIC_2736880.JPG,5,ISIC_5983500.JPG,ISIC_2736880.JPG,false,1,keypress(m),500,96259.70000000019,96259,93794.251,93809.29999999981,93810.916,96277.473,8,400,10,,ISIC_5983500.JPG
break,html.Screen,4_9_1,2023-11-06T15:26:08.173Z,,0,,,NaN,,,,,,false,,,,96261.40000000037,96260.79999999981,,96260.09999999963,,96277.473,8,400,,,
break_continue,html.Screen,4_9_2,2023-11-06T15:26:08.174Z,,0,,,NaN,,,,,,false,,,,96262.40000000037,96262.09999999963,,96261.70000000019,,96277.473,8,400,,,
sequence,flow.Sequence,4_9,2023-11-06T15:26:08.174Z,,0,,,2451.18399999963,completion,,,,,false,,,,96262.79999999981,96262.09999999963,93794.251,93809.29999999981,93810.916,96277.473,8,400,,,
trial,html.Screen,4_10_0,2023-11-06T15:26:10.808Z,,0,1,,2618.8269999998156,response,ISIC_8907232.JPG,5,ISIC_0067577.JPG,ISIC_8907232.JPG,false,1,keypress(m),500,98896.79999999981,98896.29999999981,96260.784,96263.20000000019,96277.473,98910.665,8,400,11,,ISIC_0067577.JPG
break,html.Screen,4_10_1,2023-11-06T15:26:10.810Z,,0,,,NaN,,,,,,false,,,,98898.29999999981,98897.90000000037,,98897.09999999963,,98910.665,8,400,,,
break_continue,html.Screen,4_10_2,2023-11-06T15:26:10.810Z,,0,,,NaN,,,,,,false,,,,98899.20000000019,98898.90000000037,,98898.59999999963,,98910.665,8,400,,,
sequence,flow.Sequence,4_10,2023-11-06T15:26:10.811Z,,0,,,2621.4270000003744,completion,,,,,false,,,,98899.5,98898.90000000037,96260.784,96263.20000000019,96277.473,98910.665,8,400,,,
trial,html.Screen,4_11_0,2023-11-06T15:26:14.097Z,,0,1,,3274.8350000000064,response,ISIC_9859873.JPG,5,ISIC_6507412.JPG,ISIC_9859873.JPG,false,1,keypress(m),500,102185.90000000037,102185.5,98893.977,98899.90000000037,98910.665,102193.799,8,400,12,,ISIC_6507412.JPG
break,html.Screen,4_11_1,2023-11-06T15:26:14.098Z,,0,,,NaN,,,,,,false,,,,102187.20000000019,102186.79999999981,,102186.20000000019,,102193.799,8,400,,,
break_continue,html.Screen,4_11_2,2023-11-06T15:26:14.099Z,,0,,,NaN,,,,,,false,,,,102188.09999999963,102187.90000000037,,102187.5,,102193.799,8,400,,,
sequence,flow.Sequence,4_11,2023-11-06T15:26:14.100Z,,0,,,3277.235000000379,completion,,,,,false,,,,102188.5,102187.90000000037,98893.977,98899.79999999981,98910.665,102193.799,8,400,,,
trial,html.Screen,4_12_0,2023-11-06T15:26:16.726Z,,0,1,,2621.0009999998147,response,ISIC_0056063.JPG,5,ISIC_3013569.JPG,ISIC_3013569.JPG,false,0,keypress(z),500,104815.09999999963,104814.79999999981,102177.134,102188.70000000019,102193.799,104826.992,8,400,13,,ISIC_0056063.JPG
break,html.Screen,4_12_1,2023-11-06T15:26:16.728Z,,0,,,NaN,,,,,,false,,,,104816.59999999963,104816.09999999963,,104815.5,,104826.992,8,400,,,
break_continue,html.Screen,4_12_2,2023-11-06T15:26:16.729Z,,0,,,NaN,,,,,,false,,,,104817.5,104817.29999999981,,104816.90000000037,,104826.992,8,400,,,
sequence,flow.Sequence,4_12,2023-11-06T15:26:16.729Z,,0,,,2623.5009999998147,completion,,,,,false,,,,104817.79999999981,104817.29999999981,102177.134,102188.59999999963,102193.799,104826.992,8,400,,,
trial,html.Screen,4_13_0,2023-11-06T15:26:19.468Z,,0,1,,2729.408000000374,response,ISIC_3673517.JPG,4,ISIC_0010098.JPG,ISIC_3673517.JPG,false,1,keypress(m),500,107556.79999999981,107556.40000000037,104810.327,104818.09999999963,104826.992,107560.179,8,400,14,,ISIC_0010098.JPG
break,html.Screen,4_13_1,2023-11-06T15:26:19.469Z,,0,,,NaN,,,,,,false,,,,107558.20000000019,107557.79999999981,,107557.09999999963,,107560.179,8,400,,,
break_continue,html.Screen,4_13_2,2023-11-06T15:26:19.470Z,,0,,,NaN,,,,,,false,,,,107559.29999999981,107558.79999999981,,107558.5,,107560.179,8,400,,,
sequence,flow.Sequence,4_13,2023-11-06T15:26:19.471Z,,0,,,2731.8079999998154,completion,,,,,false,,,,107559.5,107558.79999999981,104810.327,104818.09999999963,104826.992,107560.179,8,400,,,
trial,html.Screen,4_14_0,2023-11-06T15:26:22.385Z,,0,1,,2913.62099999981,response,ISIC_1971254.JPG,5,ISIC_0011127.JPG,ISIC_1971254.JPG,false,1,keypress(m),500,110474.20000000019,110473.79999999981,107543.514,107559.70000000019,107560.179,110476.689,8,400,15,,ISIC_0011127.JPG
break,html.Screen,4_14_1,2023-11-06T15:26:22.387Z,,0,,,NaN,,,,,,false,,,,110475.70000000019,110475.09999999963,,110474.59999999963,,110476.689,8,400,,,
break_continue,html.Screen,4_14_2,2023-11-06T15:26:22.388Z,,0,,,NaN,,,,,,false,,,,110476.59999999963,110476.29999999981,,110475.90000000037,,110476.689,8,400,,,
sequence,flow.Sequence,4_14,2023-11-06T15:26:22.388Z,,0,,,2916.12099999981,completion,,,,,false,,,,110476.90000000037,110476.29999999981,107543.514,107559.70000000019,107560.179,110476.689,8,400,,,
trial,html.Screen,4_15_0,2023-11-06T15:26:28.730Z,,0,1,,6341.910999999629,response,ISIC_0011733.JPG,4,ISIC_7236365.JPG,ISIC_7236365.JPG,false,0,keypress(z),500,116819.09999999963,116818.59999999963,110460.024,110477.29999999981,110476.689,116826.349,8,400,16,,ISIC_0011733.JPG
break,html.Screen,4_15_1,2023-11-06T15:26:28.732Z,,0,,,NaN,,,,,,false,,,,116820.5,116820,,116819.40000000037,,116826.349,8,400,,,
break_continue,html.Screen,4_15_2,2023-11-06T15:26:28.733Z,,0,,,NaN,,,,,,false,,,,116821.40000000037,116821.20000000019,,116820.90000000037,,116826.349,8,400,,,
sequence,flow.Sequence,4_15,2023-11-06T15:26:28.733Z,,0,,,6344.511000000188,completion,,,,,false,,,,116821.79999999981,116821.20000000019,110460.024,110477.09999999963,110476.689,116826.349,8,400,,,
trial,html.Screen,4_16_0,2023-11-06T15:26:32.688Z,,0,1,,3949.7509999996255,response,ISIC_0813342.JPG,5,ISIC_7545432.JPG,ISIC_0813342.JPG,false,1,keypress(m),500,120776.5,120776.09999999963,116809.684,116822.09999999963,116826.349,120792.826,8,400,17,,ISIC_7545432.JPG
break,html.Screen,4_16_1,2023-11-06T15:26:32.689Z,,0,,,NaN,,,,,,false,,,,120777.90000000037,120777.40000000037,,120776.79999999981,,120792.826,8,400,,,
break_continue,html.Screen,4_16_2,2023-11-06T15:26:32.690Z,,0,,,NaN,,,,,,false,,,,120778.79999999981,120778.5,,120778.20000000019,,120792.826,8,400,,,
sequence,flow.Sequence,4_16,2023-11-06T15:26:32.690Z,,0,,,3952.150999999998,completion,,,,,false,,,,120779.20000000019,120778.5,116809.684,116822,116826.349,120792.826,8,400,,,
trial,html.Screen,4_17_0,2023-11-06T15:26:37.765Z,,0,1,,5060.574000000372,response,ISIC_0032626.JPG,4,ISIC_0011947.JPG,ISIC_0032626.JPG,false,1,keypress(m),500,125853.79999999981,125853.40000000037,120776.138,120779.40000000037,120792.826,125859.199,8,400,18,,ISIC_0011947.JPG
break,html.Screen,4_17_1,2023-11-06T15:26:37.767Z,,0,,,NaN,,,,,,false,,,,125855.5,125855,,125854.29999999981,,125859.199,8,400,,,
break_continue,html.Screen,4_17_2,2023-11-06T15:26:37.768Z,,0,,,NaN,,,,,,false,,,,125856.59999999963,125856.40000000037,,125856,,125859.199,8,400,,,
sequence,flow.Sequence,4_17,2023-11-06T15:26:37.768Z,,0,,,5063.574000000372,completion,,,,,false,,,,125857,125856.40000000037,120776.138,120779.40000000037,120792.826,125859.199,8,400,,,
trial,html.Screen,4_18_0,2023-11-06T15:26:40.515Z,,0,1,,2744.001000000193,response,ISIC_0006821.JPG,5,ISIC_6066292.JPG,ISIC_0006821.JPG,false,1,keypress(m),500,128603.59999999963,128603.20000000019,125842.534,125857.20000000019,125859.199,128609.051,8,400,19,,ISIC_6066292.JPG
break,html.Screen,4_18_1,2023-11-06T15:26:40.517Z,,0,,,NaN,,,,,,false,,,,128605.70000000019,128604.90000000037,,128604,,128609.051,8,400,,,
break_continue,html.Screen,4_18_2,2023-11-06T15:26:40.518Z,,0,,,NaN,,,,,,false,,,,128606.5,128606.29999999981,,128605.90000000037,,128609.051,8,400,,,
sequence,flow.Sequence,4_18,2023-11-06T15:26:40.518Z,,0,,,2747.1009999998205,completion,,,,,false,,,,128606.79999999981,128606.29999999981,125842.534,125857.20000000019,125859.199,128609.051,8,400,,,
trial,html.Screen,4_19_0,2023-11-06T15:26:44.333Z,,0,1,,3812.6490000001795,response,ISIC_0031745.JPG,5,ISIC_0568867.JPG,ISIC_0568867.JPG,false,0,keypress(z),500,132422.2999999998,132421.7000000002,128592.386,128607,128609.051,132425.514,8,400,20,,ISIC_0031745.JPG
break,html.Screen,4_19_1,2023-11-06T15:26:44.335Z,,0,,,NaN,,,,,,false,,,,132423.7999999998,132423.2999999998,,132422.59999999963,,132425.514,8,400,,,
break_continue,html.Screen,4_19_2,2023-11-06T15:26:44.336Z,,0,,,NaN,,,,,,false,,,,132424.59999999963,132424.2999999998,,132424,,132425.514,8,400,,,
sequence,flow.Sequence,4_19,2023-11-06T15:26:44.336Z,,0,,,3815.248999999807,completion,,,,,false,,,,132424.90000000037,132424.2999999998,128592.386,128606.90000000037,128609.051,132425.514,8,400,,,
trial,html.Screen,4_20_0,2023-11-06T15:26:46.841Z,,0,1,,2504.1860000001907,response,ISIC_0025451.JPG,4,ISIC_0031077.JPG,ISIC_0025451.JPG,false,1,keypress(m),500,134930.09999999963,134929.7000000002,132408.849,132425.2000000002,132425.514,134942.045,8,400,21,,ISIC_0031077.JPG
break,html.Screen,4_20_1,2023-11-06T15:26:46.843Z,,0,,,NaN,,,,,,false,,,,134931.5,134931,,134930.40000000037,,134942.045,8,400,,,
break_continue,html.Screen,4_20_2,2023-11-06T15:26:46.844Z,,0,,,NaN,,,,,,false,,,,134932.59999999963,134932.2999999998,,134931.7999999998,,134942.045,8,400,,,
sequence,flow.Sequence,4_20,2023-11-06T15:26:46.844Z,,0,,,2506.785999999818,completion,,,,,false,,,,134932.7999999998,134932.2999999998,132408.849,132425.09999999963,132425.514,134942.045,8,400,,,
trial,html.Screen,4_21_0,2023-11-06T15:26:49.679Z,,0,1,,2824.8550000003597,response,ISIC_0065943.JPG,5,ISIC_6973257.JPG,ISIC_0065943.JPG,false,1,keypress(m),500,137767.2999999998,137766.90000000037,134925.38,134933.2000000002,134942.045,137775.227,8,400,22,,ISIC_6973257.JPG
break,html.Screen,4_21_1,2023-11-06T15:26:49.680Z,,0,,,NaN,,,,,,false,,,,137768.7999999998,137768.2999999998,,137767.59999999963,,137775.227,8,400,,,
break_continue,html.Screen,4_21_2,2023-11-06T15:26:49.681Z,,0,,,NaN,,,,,,false,,,,137769.7000000002,137769.5,,137769.2000000002,,137775.227,8,400,,,
sequence,flow.Sequence,4_21,2023-11-06T15:26:49.682Z,,0,,,2827.454999999987,completion,,,,,false,,,,137770.2000000002,137769.5,134925.38,134933.09999999963,134942.045,137775.227,8,400,,,
trial,html.Screen,4_22_0,2023-11-06T15:26:52.315Z,,0,1,,2628.4730000001728,response,ISIC_1869829.JPG,5,ISIC_5324623.JPG,ISIC_1869829.JPG,false,1,keypress(m),500,140404.2000000002,140403.7000000002,137758.562,137770.59999999963,137775.227,140408.42,8,400,23,,ISIC_5324623.JPG
break,html.Screen,4_22_1,2023-11-06T15:26:52.317Z,,0,,,NaN,,,,,,false,,,,140405.5,140405.09999999963,,140404.40000000037,,140408.42,8,400,,,
break_continue,html.Screen,4_22_2,2023-11-06T15:26:52.318Z,,0,,,NaN,,,,,,false,,,,140406.40000000037,140406.2000000002,,140405.7999999998,,140408.42,8,400,,,
sequence,flow.Sequence,4_22,2023-11-06T15:26:52.318Z,,0,,,2630.9730000001728,completion,,,,,false,,,,140406.7000000002,140406.2000000002,137758.562,137770.5,137775.227,140408.42,8,400,,,
trial,html.Screen,4_23_0,2023-11-06T15:26:55.808Z,,0,1,,3488.079999999987,response,ISIC_7297078.JPG,5,ISIC_0000121.JPG,ISIC_0000121.JPG,false,0,keypress(z),500,143896.90000000037,143896.5,140391.755,140406.90000000037,140408.42,143908.232,8,400,24,,ISIC_7297078.JPG
break,html.Screen,4_23_1,2023-11-06T15:26:55.810Z,,0,,,NaN,,,,,,false,,,,143898.40000000037,143897.90000000037,,143897.2999999998,,143908.232,8,400,,,
break_continue,html.Screen,4_23_2,2023-11-06T15:26:55.811Z,,0,,,NaN,,,,,,false,,,,143899.2999999998,143899,,143898.7000000002,,143908.232,8,400,,,
sequence,flow.Sequence,4_23,2023-11-06T15:26:55.811Z,,0,,,3490.579999999987,completion,,,,,false,,,,143899.7000000002,143899,140391.755,140406.90000000037,140408.42,143908.232,8,400,,,
trial,html.Screen,4_24_0,2023-11-06T15:26:58.646Z,,0,1,,2825.6680000003835,response,ISIC_0961235.JPG,5,ISIC_0011289.JPG,ISIC_0961235.JPG,false,1,keypress(m),500,146734.40000000037,146733.90000000037,143891.567,143899.90000000037,143908.232,146741.414,8,400,25,,ISIC_0011289.JPG
break,html.Screen,4_24_1,2023-11-06T15:26:58.647Z,,0,,,NaN,,,,,,false,,,,146735.7000000002,146735.2999999998,,146734.59999999963,,146741.414,8,400,,,
break_continue,html.Screen,4_24_2,2023-11-06T15:26:58.648Z,,0,,,NaN,,,,,,false,,,,146736.7999999998,146736.40000000037,,146736.09999999963,,146741.414,8,400,,,
sequence,flow.Sequence,4_24,2023-11-06T15:26:58.648Z,,0,,,2828.1680000003835,completion,,,,,false,,,,146737.09999999963,146736.40000000037,143891.567,143899.7999999998,143908.232,146741.414,8,400,,,
trial,html.Screen,4_25_0,2023-11-06T15:27:01.116Z,,0,1,,2462.986000000383,response,ISIC_8505412.JPG,4,ISIC_0028751.JPG,ISIC_8505412.JPG,false,1,keypress(m),500,149204.7999999998,149204.40000000037,146724.749,146737.40000000037,146741.414,149207.949,8,400,26,,ISIC_0028751.JPG
break,html.Screen,4_25_1,2023-11-06T15:27:01.118Z,,0,,,NaN,,,,,,false,,,,149206.40000000037,149205.90000000037,,149205.2000000002,,149207.949,8,400,,,
break_continue,html.Screen,4_25_2,2023-11-06T15:27:01.119Z,,0,,,NaN,,,,,,false,,,,149207.2000000002,149206.90000000037,,149206.7000000002,,149207.949,8,400,,,
sequence,flow.Sequence,4_25,2023-11-06T15:27:01.119Z,,0,,,2465.486000000383,completion,,,,,false,,,,149207.5,149206.90000000037,146724.749,146737.2999999998,146741.414,149207.949,8,400,,,
trial,html.Screen,4_26_0,2023-11-06T15:27:03.617Z,,0,1,,2497.4510000003793,response,ISIC_5415761.JPG,4,ISIC_0032774.JPG,ISIC_5415761.JPG,false,1,keypress(m),500,151705.7000000002,151705.40000000037,149191.284,149207.59999999963,149207.949,151707.815,8,400,27,,ISIC_0032774.JPG
break,html.Screen,4_26_1,2023-11-06T15:27:03.618Z,,0,,,NaN,,,,,,false,,,,151707.2000000002,151706.7000000002,,151706.09999999963,,151707.815,8,400,,,
break_continue,html.Screen,4_26_2,2023-11-06T15:27:03.619Z,,0,,,NaN,,,,,,false,,,,151708.2000000002,151707.90000000037,,151707.5,,151707.815,8,400,,,
sequence,flow.Sequence,4_26,2023-11-06T15:27:03.620Z,,0,,,2499.9510000003793,completion,,,,,false,,,,151708.7000000002,151707.90000000037,149191.284,149207.59999999963,149207.949,151707.815,8,400,,,
trial,html.Screen,4_27_0,2023-11-06T15:27:06.730Z,,0,1,,3110.08500000037,response,ISIC_8033373.JPG,5,ISIC_4374944.JPG,ISIC_8033373.JPG,false,1,keypress(m),500,154818.2999999998,154817.90000000037,151691.15,151708.90000000037,151707.815,154824.313,8,400,28,,ISIC_4374944.JPG
break,html.Screen,4_27_1,2023-11-06T15:27:06.731Z,,0,,,NaN,,,,,,false,,,,154819.7999999998,154819.40000000037,,154818.59999999963,,154824.313,8,400,,,
break_continue,html.Screen,4_27_2,2023-11-06T15:27:06.732Z,,0,,,NaN,,,,,,false,,,,154820.7000000002,154820.5,,154820.2000000002,,154824.313,8,400,,,
sequence,flow.Sequence,4_27,2023-11-06T15:27:06.732Z,,0,,,3112.6849999999977,completion,,,,,false,,,,154821,154820.5,151691.15,151708.90000000037,151707.815,154824.313,8,400,,,
trial,html.Screen,4_28_0,2023-11-06T15:27:09.327Z,,0,1,,2590.786999999633,response,ISIC_5868291.JPG,4,ISIC_2058516.JPG,ISIC_2058516.JPG,false,0,keypress(z),500,157415.59999999963,157415.09999999963,154807.648,154821.2000000002,154824.313,157424.175,8,400,29,,ISIC_5868291.JPG
break,html.Screen,4_28_1,2023-11-06T15:27:09.328Z,,0,,,NaN,,,,,,false,,,,157417,157416.5,,157415.90000000037,,157424.175,8,400,,,
break_continue,html.Screen,4_28_2,2023-11-06T15:27:09.329Z,,0,,,NaN,,,,,,false,,,,157417.7999999998,157417.5,,157417.2000000002,,157424.175,8,400,,,
sequence,flow.Sequence,4_28,2023-11-06T15:27:09.329Z,,0,,,2593.1870000000054,completion,,,,,false,,,,157418.2000000002,157417.5,154807.648,154821.2000000002,154824.313,157424.175,8,400,,,
trial,html.Screen,4_29_0,2023-11-06T15:27:11.800Z,,0,1,,2464.1249999998254,response,ISIC_3513367.JPG,4,ISIC_0066878.JPG,ISIC_3513367.JPG,false,1,keypress(m),500,159888.7000000002,159888.2999999998,157407.51,157418.5,157424.175,159890.71,8,400,30,,ISIC_0066878.JPG
break,html.Screen,4_29_1,2023-11-06T15:27:11.801Z,,0,,,NaN,,,,,,false,,,,159890.2000000002,159889.59999999963,,159889,,159890.71,8,400,,,
break_continue,html.Screen,4_29_2,2023-11-06T15:27:11.802Z,,0,,,NaN,,,,,,false,,,,159891.09999999963,159890.7000000002,,159890.5,,159890.71,8,400,,,
sequence,flow.Sequence,4_29,2023-11-06T15:27:11.803Z,,0,,,2466.525000000198,completion,,,,,false,,,,159891.59999999963,159890.7000000002,157407.51,157418.2999999998,157424.175,159890.71,8,400,,,
trial,html.Screen,4_30_0,2023-11-06T15:27:14.338Z,,0,1,,2535.1900000003807,response,ISIC_9499185.JPG,5,ISIC_0054705.JPG,ISIC_9499185.JPG,false,1,keypress(m),500,162426.2999999998,162425.90000000037,159874.045,159891.7999999998,159890.71,162440.595,8,400,31,,ISIC_0054705.JPG
break,html.Screen,4_30_1,2023-11-06T15:27:14.339Z,,0,,,NaN,,,,,,false,,,,162427.7999999998,162427.5,,162426.5,,162440.595,8,400,,,
break_continue,html.Screen,4_30_2,2023-11-06T15:27:14.340Z,,0,,,NaN,,,,,,false,,,,162429,162428.5,,162428,,162440.595,8,400,,,
sequence,flow.Sequence,4_30,2023-11-06T15:27:14.341Z,,0,,,2537.790000000008,completion,,,,,false,,,,162430.09999999963,162428.5,159874.045,159891.7000000002,159890.71,162440.595,8,400,,,
trial,html.Screen,4_31_0,2023-11-06T15:27:16.749Z,,0,1,,2397.105000000185,response,ISIC_2436560.JPG,4,ISIC_0032313.JPG,ISIC_2436560.JPG,false,1,keypress(m),500,164838.09999999963,164837.7000000002,162423.908,162430.2999999998,162440.595,164840.445,8,400,32,,ISIC_0032313.JPG
break,html.Screen,4_31_1,2023-11-06T15:27:16.752Z,,0,,,NaN,,,,,,false,,,,164840.5,164839.09999999963,,164838.5,,164840.445,8,400,,,
break_continue,html.Screen,4_31_2,2023-11-06T15:27:16.753Z,,0,,,NaN,,,,,,false,,,,164841.59999999963,164841.2999999998,,164840.7999999998,,164840.445,8,400,,,
sequence,flow.Sequence,4_31,2023-11-06T15:27:16.753Z,,0,,,2400.7049999998126,completion,,,,,false,,,,164841.90000000037,164841.2999999998,162423.908,162430.2000000002,162440.595,164840.445,8,400,,,
trial,html.Screen,4_32_0,2023-11-06T15:27:19.684Z,,0,1,,2931.6549999996205,response,ISIC_6446779.JPG,5,ISIC_0027538.JPG,ISIC_6446779.JPG,false,1,keypress(m),500,167772.5,167772.09999999963,164823.78,164842.2000000002,164840.445,167790.309,8,400,33,,ISIC_0027538.JPG
break,html.Screen,4_32_1,2023-11-06T15:27:19.685Z,,0,,,NaN,,,,,,false,,,,167773.90000000037,167773.5,,167772.7999999998,,167790.309,8,400,,,
break_continue,html.Screen,4_32_2,2023-11-06T15:27:19.686Z,,0,,,NaN,,,,,,false,,,,167774.7000000002,167774.5,,167774.2000000002,,167790.309,8,400,,,
sequence,flow.Sequence,4_32,2023-11-06T15:27:19.686Z,,0,,,2934.054999999993,completion,,,,,false,,,,167775.09999999963,167774.5,164823.78,164842.09999999963,164840.445,167790.309,8,400,,,
trial,html.Screen,4_33_0,2023-11-06T15:27:22.201Z,,0,1,,2499.091000000364,response,ISIC_0028800.JPG,5,ISIC_8181142.JPG,ISIC_8181142.JPG,false,0,keypress(z),500,170289.7000000002,170289.40000000037,167773.621,167775.2999999998,167790.309,170306.841,8,400,34,,ISIC_0028800.JPG
break,html.Screen,4_33_1,2023-11-06T15:27:22.203Z,,0,,,NaN,,,,,,false,,,,170291.2999999998,170290.7999999998,,170290,,170306.841,8,400,,,
break_continue,html.Screen,4_33_2,2023-11-06T15:27:22.203Z,,0,,,NaN,,,,,,false,,,,170292.2999999998,170291.90000000037,,170291.59999999963,,170306.841,8,400,,,
sequence,flow.Sequence,4_33,2023-11-06T15:27:22.204Z,,0,,,2501.591000000364,completion,,,,,false,,,,170292.5,170291.90000000037,167773.621,167775.2000000002,167790.309,170306.841,8,400,,,
trial,html.Screen,4_34_0,2023-11-06T15:27:24.750Z,,0,1,,2531.2589999996417,response,ISIC_0012063.JPG,5,ISIC_6661904.JPG,ISIC_0012063.JPG,false,1,keypress(m),500,172838.40000000037,172838.09999999963,170290.153,170292.59999999963,170306.841,172840.017,8,400,35,,ISIC_6661904.JPG
break,html.Screen,4_34_1,2023-11-06T15:27:24.751Z,,0,,,NaN,,,,,,false,,,,172839.5,172839.2999999998,,172838.59999999963,,172840.017,8,400,,,
break_continue,html.Screen,4_34_2,2023-11-06T15:27:24.752Z,,0,,,NaN,,,,,,false,,,,172840.5,172840,,172839.7999999998,,172840.017,8,400,,,
sequence,flow.Sequence,4_34,2023-11-06T15:27:24.752Z,,0,,,2533.159000000014,completion,,,,,false,,,,172840.7999999998,172840,170290.153,170292.59999999963,170306.841,172840.017,8,400,,,
trial,html.Screen,4_35_0,2023-11-06T15:27:28.854Z,,0,1,,4102.683000000194,response,ISIC_0193456.JPG,5,ISIC_8073036.JPG,ISIC_8073036.JPG,false,0,keypress(z),500,176943.2000000002,176942.7000000002,172823.352,172841,172840.017,176956.462,8,400,36,,ISIC_0193456.JPG
break,html.Screen,4_35_1,2023-11-06T15:27:28.856Z,,0,,,NaN,,,,,,false,,,,176944.90000000037,176944.40000000037,,176943.5,,176956.462,8,400,,,
break_continue,html.Screen,4_35_2,2023-11-06T15:27:28.857Z,,0,,,NaN,,,,,,false,,,,176945.7999999998,176945.5,,176945.2000000002,,176956.462,8,400,,,
sequence,flow.Sequence,4_35,2023-11-06T15:27:28.857Z,,0,,,4105.483000000007,completion,,,,,false,,,,176946.09999999963,176945.5,172823.352,172840.90000000037,172840.017,176956.462,8,400,,,
trial,html.Screen,4_36_0,2023-11-06T15:27:31.377Z,,0,1,,2509.337999999814,response,ISIC_2690597.JPG,4,ISIC_0065728.JPG,ISIC_2690597.JPG,false,1,keypress(m),500,179466.2000000002,179465.7999999998,176939.797,176946.2999999998,176956.462,179472.994,8,400,37,,ISIC_0065728.JPG
break,html.Screen,4_36_1,2023-11-06T15:27:31.379Z,,0,,,NaN,,,,,,false,,,,179467.59999999963,179467.09999999963,,179466.5,,179472.994,8,400,,,
break_continue,html.Screen,4_36_2,2023-11-06T15:27:31.380Z,,0,,,NaN,,,,,,false,,,,179468.59999999963,179468.2999999998,,179467.90000000037,,179472.994,8,400,,,
sequence,flow.Sequence,4_36,2023-11-06T15:27:31.380Z,,0,,,2511.837999999814,completion,,,,,false,,,,179468.90000000037,179468.2999999998,176939.797,176946.2999999998,176956.462,179472.994,8,400,,,
trial,html.Screen,4_37_0,2023-11-06T15:27:33.852Z,,0,1,,2467.20600000018,response,ISIC_1735204.JPG,5,ISIC_0029189.JPG,ISIC_1735204.JPG,false,1,keypress(m),500,181940.7000000002,181940.2000000002,179456.329,179469,179472.994,181956.217,8,400,38,,ISIC_0029189.JPG
break,html.Screen,4_37_1,2023-11-06T15:27:33.854Z,,0,,,NaN,,,,,,false,,,,181942.2999999998,181941.90000000037,,181941.2999999998,,181956.217,8,400,,,
break_continue,html.Screen,4_37_2,2023-11-06T15:27:33.854Z,,0,,,NaN,,,,,,false,,,,181943.2000000002,181942.90000000037,,181942.59999999963,,181956.217,8,400,,,
sequence,flow.Sequence,4_37,2023-11-06T15:27:33.855Z,,0,,,2469.9060000003665,completion,,,,,false,,,,181943.40000000037,181942.90000000037,179456.329,179469,179472.994,181956.217,8,400,,,
trial,html.Screen,4_38_0,2023-11-06T15:27:36.465Z,,0,1,,2597.282999999996,response,ISIC_0026398.JPG,5,ISIC_9116323.JPG,ISIC_9116323.JPG,false,0,keypress(z),500,184553.7999999998,184553.5,181939.529,181943.7000000002,181956.217,184556.055,8,400,39,,ISIC_0026398.JPG
break,html.Screen,4_38_1,2023-11-06T15:27:36.466Z,,0,,,NaN,,,,,,false,,,,184555.2000000002,184554.7999999998,,184554.2999999998,,184556.055,8,400,,,
break_continue,html.Screen,4_38_2,2023-11-06T15:27:36.467Z,,0,,,NaN,,,,,,false,,,,184556.09999999963,184555.7000000002,,184555.59999999963,,184556.055,8,400,,,
sequence,flow.Sequence,4_38,2023-11-06T15:27:36.468Z,,0,,,2599.483000000182,completion,,,,,false,,,,184556.40000000037,184555.7000000002,181939.529,181943.59999999963,181956.217,184556.055,8,400,,,
trial,html.Screen,4_39_0,2023-11-06T15:27:38.998Z,,0,1,,2530.5449999996345,response,ISIC_1453899.JPG,5,ISIC_9675304.JPG,ISIC_9675304.JPG,false,0,keypress(z),500,187087,187086.59999999963,184539.39,184556.7000000002,184556.055,187089.253,8,400,40,,ISIC_1453899.JPG
break,html.Screen,4_39_1,2023-11-06T15:27:39.000Z,,0,,,NaN,,,,,,false,,,,187088.5,187088,,187087.40000000037,,187089.253,8,400,,,
break_continue,html.Screen,4_39_2,2023-11-06T15:27:39.001Z,,0,,,NaN,,,,,,false,,,,187089.59999999963,187089.2000000002,,187088.90000000037,,187089.253,8,400,,,
sequence,flow.Sequence,4_39,2023-11-06T15:27:39.001Z,,0,,,2533.1450000001932,completion,,,,,false,,,,187090.09999999963,187089.2000000002,184539.39,184556.59999999963,184556.055,187089.253,8,400,,,
trial,html.Screen,4_40_0,2023-11-06T15:27:41.596Z,,0,1,,2595.247000000003,response,ISIC_1293743.JPG,4,ISIC_0003593.JPG,ISIC_0003593.JPG,false,0,keypress(z),500,189684.7999999998,189684.5,187072.588,187090.2999999998,187089.253,189689.113,8,400,41,,ISIC_1293743.JPG
break,html.Screen,4_40_1,2023-11-06T15:27:41.598Z,,0,,,NaN,,,,,,false,,,,189686.40000000037,189685.90000000037,,189685.2000000002,,189689.113,8,400,,,
break_continue,html.Screen,4_40_2,2023-11-06T15:27:41.598Z,,0,,,NaN,,,,,,false,,,,189687.2000000002,189687,,189686.7000000002,,189689.113,8,400,,,
sequence,flow.Sequence,4_40,2023-11-06T15:27:41.599Z,,0,,,2597.747000000003,completion,,,,,false,,,,189687.59999999963,189687,187072.588,187090.2999999998,187089.253,189689.113,8,400,,,
trial,html.Screen,4_41_0,2023-11-06T15:27:45.042Z,,0,1,,3441.2870000003604,response,ISIC_6919856.JPG,5,ISIC_0567814.JPG,ISIC_6919856.JPG,false,1,keypress(m),500,193130.7999999998,193130.40000000037,189672.448,189687.7999999998,189689.113,193138.928,8,400,42,,ISIC_0567814.JPG
break,html.Screen,4_41_1,2023-11-06T15:27:45.044Z,,0,,,NaN,,,,,,false,,,,193132.40000000037,193131.90000000037,,193131.09999999963,,193138.928,8,400,,,
break_continue,html.Screen,4_41_2,2023-11-06T15:27:45.044Z,,0,,,NaN,,,,,,false,,,,193133.2000000002,193132.90000000037,,193132.59999999963,,193138.928,8,400,,,
sequence,flow.Sequence,4_41,2023-11-06T15:27:45.045Z,,0,,,3443.7870000003604,completion,,,,,false,,,,193133.5,193132.90000000037,189672.448,189687.7000000002,189689.113,193138.928,8,400,,,
trial,html.Screen,4_42_0,2023-11-06T15:27:47.561Z,,0,1,,2510.472000000358,response,ISIC_0000000.JPG,4,ISIC_8684147.JPG,ISIC_8684147.JPG,false,0,keypress(z),500,195649.7999999998,195649.40000000037,193122.263,193133.7999999998,193138.928,195655.461,8,400,43,,ISIC_0000000.JPG
break,html.Screen,4_42_1,2023-11-06T15:27:47.563Z,,0,,,NaN,,,,,,false,,,,195651.90000000037,195651.40000000037,,195650.5,,195655.461,8,400,,,
break_continue,html.Screen,4_42_2,2023-11-06T15:27:47.565Z,,0,,,NaN,,,,,,false,,,,195653.40000000037,195652.7999999998,,195652.2999999998,,195655.461,8,400,,,
sequence,flow.Sequence,4_42,2023-11-06T15:27:47.565Z,,0,,,2513.8719999997993,completion,,,,,false,,,,195653.7999999998,195652.7999999998,193122.263,193133.59999999963,193138.928,195655.461,8,400,,,
trial,html.Screen,4_43_0,2023-11-06T15:27:49.992Z,,0,1,,2424.8389999998035,response,ISIC_8712559.JPG,4,ISIC_0033121.JPG,ISIC_8712559.JPG,false,1,keypress(m),500,198080.7000000002,198080.2999999998,195638.796,195654.09999999963,195655.461,198088.664,8,400,44,,ISIC_0033121.JPG
break,html.Screen,4_43_1,2023-11-06T15:27:49.993Z,,0,,,NaN,,,,,,false,,,,198082.2000000002,198081.59999999963,,198081,,198088.664,8,400,,,
break_continue,html.Screen,4_43_2,2023-11-06T15:27:49.994Z,,0,,,NaN,,,,,,false,,,,198083.09999999963,198082.7000000002,,198082.5,,198088.664,8,400,,,
sequence,flow.Sequence,4_43,2023-11-06T15:27:49.995Z,,0,,,2427.239000000176,completion,,,,,false,,,,198083.40000000037,198082.7000000002,195638.796,195654.09999999963,195655.461,198088.664,8,400,,,
trial,html.Screen,4_44_0,2023-11-06T15:27:52.417Z,,0,1,,2416.236000000383,response,ISIC_5776158.JPG,4,ISIC_0026924.JPG,ISIC_5776158.JPG,false,1,keypress(m),500,200505.2999999998,200504.90000000037,198071.999,198083.59999999963,198088.664,200521.89,8,400,45,,ISIC_0026924.JPG
break,html.Screen,4_44_1,2023-11-06T15:27:52.418Z,,0,,,NaN,,,,,,false,,,,200506.90000000037,200506.2999999998,,200505.59999999963,,200521.89,8,400,,,
break_continue,html.Screen,4_44_2,2023-11-06T15:27:52.419Z,,0,,,NaN,,,,,,false,,,,200507.7999999998,200507.5,,200507.2000000002,,200521.89,8,400,,,
sequence,flow.Sequence,4_44,2023-11-06T15:27:52.419Z,,0,,,2418.8360000000102,completion,,,,,false,,,,200508,200507.5,198071.999,198083.59999999963,198088.664,200521.89,8,400,,,
trial,html.Screen,4_45_0,2023-11-06T15:27:54.986Z,,0,1,,2552.7099999996135,response,ISIC_9241732.JPG,4,ISIC_0067564.JPG,ISIC_0067564.JPG,false,0,keypress(z),500,203075.2000000002,203074.59999999963,200505.202,200508.2000000002,200521.89,203105.061,8,400,46,,ISIC_9241732.JPG
break,html.Screen,4_45_1,2023-11-06T15:27:54.988Z,,0,,,NaN,,,,,,false,,,,203076.40000000037,203075.90000000037,,203075.40000000037,,203105.061,8,400,,,
break_continue,html.Screen,4_45_2,2023-11-06T15:27:54.988Z,,0,,,NaN,,,,,,false,,,,203077,203076.7999999998,,203076.59999999963,,203105.061,8,400,,,
sequence,flow.Sequence,4_45,2023-11-06T15:27:54.989Z,,0,,,2554.9099999997998,completion,,,,,false,,,,203077.2999999998,203076.7999999998,200505.202,200508.2000000002,200521.89,203105.061,8,400,,,
trial,html.Screen,4_46_0,2023-11-06T15:27:58.015Z,,0,1,,2998.5389999996405,response,ISIC_0030704.JPG,5,ISIC_0028082.JPG,ISIC_0030704.JPG,false,1,keypress(m),500,206104,206103.59999999963,203088.396,203077.5,203105.061,206121.59,8,400,47,,ISIC_0028082.JPG
break,html.Screen,4_46_1,2023-11-06T15:27:58.017Z,,0,,,NaN,,,,,,false,,,,206105.7000000002,206104.90000000037,,206104.2999999998,,206121.59,8,400,,,
break_continue,html.Screen,4_46_2,2023-11-06T15:27:58.018Z,,0,,,NaN,,,,,,false,,,,206106.7000000002,206106.40000000037,,206106,,206121.59,8,400,,,
sequence,flow.Sequence,4_46,2023-11-06T15:27:58.018Z,,0,,,3001.3390000003856,completion,,,,,false,,,,206107.09999999963,206106.40000000037,203088.396,203077.40000000037,203105.061,206121.59,8,400,,,
trial,html.Screen,4_47_0,2023-11-06T15:28:00.744Z,,0,1,,2710.4100000000035,response,ISIC_9776851.JPG,4,ISIC_5581936.JPG,ISIC_5581936.JPG,false,0,keypress(z),500,208832.40000000037,208832,206104.902,206107.2999999998,206121.59,208838.087,8,400,48,,ISIC_9776851.JPG
break,html.Screen,4_47_1,2023-11-06T15:28:00.745Z,,0,,,NaN,,,,,,false,,,,208833.7999999998,208833.2999999998,,208832.59999999963,,208838.087,8,400,,,
break_continue,html.Screen,4_47_2,2023-11-06T15:28:00.746Z,,0,,,NaN,,,,,,false,,,,208834.59999999963,208834.40000000037,,208834.09999999963,,208838.087,8,400,,,
sequence,flow.Sequence,4_47,2023-11-06T15:28:00.746Z,,0,,,2712.810000000376,completion,,,,,false,,,,208835,208834.40000000037,206104.902,206107.2000000002,206121.59,208838.087,8,400,,,
trial,html.Screen,4_48_0,2023-11-06T15:28:03.345Z,,0,1,,2595.212999999814,response,ISIC_8588033.JPG,4,ISIC_8121679.JPG,ISIC_8588033.JPG,false,1,keypress(m),500,211433.7000000002,211433.2999999998,208821.422,208835.2000000002,208838.087,211437.963,8,400,49,,ISIC_8121679.JPG
break,html.Screen,4_48_1,2023-11-06T15:28:03.347Z,,0,,,NaN,,,,,,false,,,,211435.2999999998,211434.90000000037,,211434.09999999963,,211437.963,8,400,,,
break_continue,html.Screen,4_48_2,2023-11-06T15:28:03.347Z,,0,,,NaN,,,,,,false,,,,211436.2000000002,211435.90000000037,,211435.59999999963,,211437.963,8,400,,,
sequence,flow.Sequence,4_48,2023-11-06T15:28:03.348Z,,0,,,2597.813000000373,completion,,,,,false,,,,211436.5,211435.90000000037,208821.422,208835.2000000002,208838.087,211437.963,8,400,,,
trial,html.Screen,4_49_0,2023-11-06T15:28:07.030Z,,0,1,,3680.836999999825,response,ISIC_0015035.JPG,5,ISIC_0054573.JPG,ISIC_0015035.JPG,false,1,keypress(m),500,215119.2000000002,215118.7999999998,211421.298,211436.7000000002,211437.963,215121.085,8,400,50,,ISIC_0054573.JPG
break,html.Screen,4_49_1,2023-11-06T15:28:17.016Z,,0,,,9999.486999999994,timeout,,,,,false,,,,225105.09999999963,225103.906,215104.42,215119.5,215121.085,225120.572,8,400,,,
break_continue,html.Screen,4_49_2,2023-11-06T15:28:43.024Z,,0,,,25969.027999999642,response,,,,,false,continue,keypress(Space),,251112.5,251089.59999999963,225103.906,225105.40000000037,225120.572,251118.778,8,400,,,
sequence,flow.Sequence,4_49,2023-11-06T15:28:43.024Z,,0,,,39651.63699999964,completion,,,,,false,,,,251112.7999999998,251089.59999999963,211421.298,211436.59999999963,211437.963,251118.778,8,400,,,
trial,html.Screen,4_50_0,2023-11-06T15:28:46.450Z,,0,2,,3420.0219999998226,response,ISIC_0651114.JPG,5,ISIC_6570611.JPG,ISIC_6570611.JPG,false,0,keypress(z),500,254539.2000000002,254538.7999999998,251102.113,251112.90000000037,251118.778,254552.329,8,400,1,,ISIC_0651114.JPG
break,html.Screen,4_50_1,2023-11-06T15:28:46.452Z,,0,,,NaN,,,,,,false,,,,254540.7999999998,254540.40000000037,,254539.5,,254552.329,8,400,,,
break_continue,html.Screen,4_50_2,2023-11-06T15:28:46.453Z,,0,,,NaN,,,,,,false,,,,254541.7999999998,254541.5,,254541.2000000002,,254552.329,8,400,,,
sequence,flow.Sequence,4_50,2023-11-06T15:28:46.453Z,,0,,,3422.722000000009,completion,,,,,false,,,,254542.09999999963,254541.5,251102.113,251112.90000000037,251118.778,254552.329,8,400,,,
trial,html.Screen,4_51_0,2023-11-06T15:28:49.096Z,,0,2,,2631.8710000001884,response,ISIC_0070254.JPG,4,ISIC_8969883.JPG,ISIC_8969883.JPG,false,0,keypress(z),500,257184.59999999963,257184.2000000002,254535.641,254542.40000000037,254552.329,257202.187,8,400,2,,ISIC_0070254.JPG
break,html.Screen,4_51_1,2023-11-06T15:28:49.098Z,,0,,,NaN,,,,,,false,,,,257186.40000000037,257185.90000000037,,257185,,257202.187,8,400,,,
break_continue,html.Screen,4_51_2,2023-11-06T15:28:49.098Z,,0,,,NaN,,,,,,false,,,,257187.2000000002,257186.90000000037,,257186.59999999963,,257202.187,8,400,,,
sequence,flow.Sequence,4_51,2023-11-06T15:28:49.099Z,,0,,,2634.5710000003746,completion,,,,,false,,,,257187.59999999963,257186.90000000037,254535.641,254542.2999999998,254552.329,257202.187,8,400,,,
trial,html.Screen,4_52_0,2023-11-06T15:28:51.603Z,,0,2,,2489.013000000181,response,ISIC_0061624.JPG,4,ISIC_0032192.JPG,ISIC_0061624.JPG,false,1,keypress(m),500,259691.59999999963,259691.2000000002,257185.498,257187.7999999998,257202.187,259702.03,8,400,3,,ISIC_0032192.JPG
break,html.Screen,4_52_1,2023-11-06T15:28:51.605Z,,0,,,NaN,,,,,,false,,,,259693.2999999998,259692.5,,259691.90000000037,,259702.03,8,400,,,
break_continue,html.Screen,4_52_2,2023-11-06T15:28:51.606Z,,0,,,NaN,,,,,,false,,,,259694.40000000037,259694.09999999963,,259693.7000000002,,259702.03,8,400,,,
sequence,flow.Sequence,4_52,2023-11-06T15:28:51.606Z,,0,,,2491.912999999622,completion,,,,,false,,,,259694.59999999963,259694.09999999963,257185.498,257187.7000000002,257202.187,259702.03,8,400,,,
trial,html.Screen,4_53_0,2023-11-06T15:28:54.296Z,,0,2,,2682.269999999815,response,ISIC_0011868.JPG,4,ISIC_0217267.JPG,ISIC_0011868.JPG,false,1,keypress(m),500,262384.7000000002,262384.2999999998,259685.365,259694.7999999998,259702.03,262401.909,8,400,4,,ISIC_0217267.JPG
break,html.Screen,4_53_1,2023-11-06T15:28:54.298Z,,0,,,NaN,,,,,,false,,,,262386.4000000004,262385.9000000004,,262385.0999999996,,262401.909,8,400,,,
break_continue,html.Screen,4_53_2,2023-11-06T15:28:54.298Z,,0,,,NaN,,,,,,false,,,,262387.2000000002,262386.9000000004,,262386.5999999996,,262401.909,8,400,,,
sequence,flow.Sequence,4_53,2023-11-06T15:28:54.299Z,,0,,,2684.8700000003737,completion,,,,,false,,,,262387.5,262386.9000000004,259685.365,259694.7000000002,259702.03,262401.909,8,400,,,
trial,html.Screen,4_54_0,2023-11-06T15:28:57.933Z,,0,2,,3619.3909999998286,response,ISIC_7518524.JPG,4,ISIC_6443700.JPG,ISIC_6443700.JPG,false,0,keypress(z),500,266021.7999999998,266021.2999999998,262385.221,262387.7000000002,262401.909,266035.024,8,400,5,,ISIC_7518524.JPG
break,html.Screen,4_54_1,2023-11-06T15:28:57.935Z,,0,,,NaN,,,,,,false,,,,266023.5,266023,,266022.2000000002,,266035.024,8,400,,,
break_continue,html.Screen,4_54_2,2023-11-06T15:28:57.936Z,,0,,,NaN,,,,,,false,,,,266024.2999999998,266024,,266023.7000000002,,266035.024,8,400,,,
sequence,flow.Sequence,4_54,2023-11-06T15:28:57.936Z,,0,,,3622.091000000015,completion,,,,,false,,,,266024.5,266024,262385.221,262387.5999999996,262401.909,266035.024,8,400,,,
trial,html.Screen,4_55_0,2023-11-06T15:29:00.498Z,,0,2,,2551.476000000024,response,ISIC_0025217.JPG,5,ISIC_0028465.JPG,ISIC_0025217.JPG,false,1,keypress(m),500,268587,268586.5,266018.359,266024.7999999998,266035.024,268601.576,8,400,6,,ISIC_0028465.JPG
break,html.Screen,4_55_1,2023-11-06T15:29:00.500Z,,0,,,NaN,,,,,,false,,,,268588.7000000002,268587.9000000004,,268587.2999999998,,268601.576,8,400,,,
break_continue,html.Screen,4_55_2,2023-11-06T15:29:00.501Z,,0,,,NaN,,,,,,false,,,,268589.5,268589.2000000002,,268589,,268601.576,8,400,,,
sequence,flow.Sequence,4_55,2023-11-06T15:29:00.501Z,,0,,,2554.1760000002105,completion,,,,,false,,,,268589.9000000004,268589.2000000002,266018.359,266024.7000000002,266035.024,268601.576,8,400,,,
trial,html.Screen,4_56_0,2023-11-06T15:29:03.291Z,,0,2,,2777.223999999813,response,ISIC_6215631.JPG,4,ISIC_9527051.JPG,ISIC_9527051.JPG,false,0,keypress(z),500,271379.2999999998,271378.7999999998,268584.889,268590.0999999996,268601.576,271384.738,8,400,7,,ISIC_6215631.JPG
break,html.Screen,4_56_1,2023-11-06T15:29:03.292Z,,0,,,NaN,,,,,,false,,,,271380.7999999998,271380.4000000004,,271379.7000000002,,271384.738,8,400,,,
break_continue,html.Screen,4_56_2,2023-11-06T15:29:03.293Z,,0,,,NaN,,,,,,false,,,,271381.7999999998,271381.5,,271381.2999999998,,271384.738,8,400,,,
sequence,flow.Sequence,4_56,2023-11-06T15:29:03.293Z,,0,,,2779.923999999999,completion,,,,,false,,,,271382.2000000002,271381.5,268584.889,268590,268601.576,271384.738,8,400,,,
trial,html.Screen,4_57_0,2023-11-06T15:29:05.856Z,,0,2,,2559.962000000174,response,ISIC_6382207.JPG,5,ISIC_2021321.JPG,ISIC_2021321.JPG,false,0,keypress(z),500,273945.2000000002,273944.7000000002,271368.073,271382.4000000004,271384.738,273951.267,8,400,8,,ISIC_6382207.JPG
break,html.Screen,4_57_1,2023-11-06T15:29:05.858Z,,0,,,NaN,,,,,,false,,,,273947,273946.4000000004,,273945.4000000004,,273951.267,8,400,,,
break_continue,html.Screen,4_57_2,2023-11-06T15:29:05.859Z,,0,,,NaN,,,,,,false,,,,273947.7999999998,273947.5,,273947.2000000002,,273951.267,8,400,,,
sequence,flow.Sequence,4_57,2023-11-06T15:29:05.859Z,,0,,,2562.761999999988,completion,,,,,false,,,,273948.2000000002,273947.5,271368.073,271382.2999999998,271384.738,273951.267,8,400,,,
trial,html.Screen,4_58_0,2023-11-06T15:29:08.406Z,,0,2,,2543.332999999635,response,ISIC_5405889.JPG,5,ISIC_0027087.JPG,ISIC_5405889.JPG,false,1,keypress(m),500,276495,276494.5999999996,273934.602,273948.4000000004,273951.267,276501.131,8,400,9,,ISIC_0027087.JPG
break,html.Screen,4_58_1,2023-11-06T15:29:08.408Z,,0,,,NaN,,,,,,false,,,,276496.5,276495.9000000004,,276495.4000000004,,276501.131,8,400,,,
break_continue,html.Screen,4_58_2,2023-11-06T15:29:08.409Z,,0,,,NaN,,,,,,false,,,,276497.4000000004,276497.2000000002,,276496.7999999998,,276501.131,8,400,,,
sequence,flow.Sequence,4_58,2023-11-06T15:29:08.409Z,,0,,,2545.9330000001937,completion,,,,,false,,,,276497.7000000002,276497.2000000002,273934.602,273948.4000000004,273951.267,276501.131,8,400,,,
trial,html.Screen,4_59_0,2023-11-06T15:29:12.219Z,,0,2,,3806.66899999982,response,ISIC_0031368.JPG,5,ISIC_0069558.JPG,ISIC_0031368.JPG,false,1,keypress(m),500,280308.2000000002,280307.7999999998,276484.466,276498,276501.131,280317.593,8,400,10,,ISIC_0069558.JPG
break,html.Screen,4_59_1,2023-11-06T15:29:12.221Z,,0,,,NaN,,,,,,false,,,,280309.7000000002,280309.2000000002,,280308.5999999996,,280317.593,8,400,,,
break_continue,html.Screen,4_59_2,2023-11-06T15:29:12.222Z,,0,,,NaN,,,,,,false,,,,280310.5999999996,280310.2999999998,,280310,,280317.593,8,400,,,
sequence,flow.Sequence,4_59,2023-11-06T15:29:12.222Z,,0,,,3809.16899999982,completion,,,,,false,,,,280311.0999999996,280310.2999999998,276484.466,276497.9000000004,276501.131,280317.593,8,400,,,
trial,html.Screen,4_60_0,2023-11-06T15:29:15.025Z,,0,2,,2795.9070000000065,response,ISIC_0013967.JPG,5,ISIC_0032535.JPG,ISIC_0013967.JPG,false,1,keypress(m),500,283113.7999999998,283113.5,280300.928,280311.4000000004,280317.593,283117.443,8,400,11,,ISIC_0032535.JPG
break,html.Screen,4_60_1,2023-11-06T15:29:15.027Z,,0,,,NaN,,,,,,false,,,,283115.5,283114.9000000004,,283114.2999999998,,283117.443,8,400,,,
break_continue,html.Screen,4_60_2,2023-11-06T15:29:15.027Z,,0,,,NaN,,,,,,false,,,,283116.2000000002,283116,,283115.7999999998,,283117.443,8,400,,,
sequence,flow.Sequence,4_60,2023-11-06T15:29:15.028Z,,0,,,2798.4070000000065,completion,,,,,false,,,,283116.5,283116,280300.928,280311.2999999998,280317.593,283117.443,8,400,,,
trial,html.Screen,4_61_0,2023-11-06T15:29:17.574Z,,0,2,,2545.257000000158,response,ISIC_0071508.JPG,5,ISIC_1962845.JPG,ISIC_1962845.JPG,false,0,keypress(z),500,285663.0999999996,285662.7000000002,283100.778,283116.5999999996,283117.443,285667.306,8,400,12,,ISIC_0071508.JPG
break,html.Screen,4_61_1,2023-11-06T15:29:17.576Z,,0,,,NaN,,,,,,false,,,,285664.7000000002,285664.2999999998,,285663.4000000004,,285667.306,8,400,,,
break_continue,html.Screen,4_61_2,2023-11-06T15:29:17.577Z,,0,,,NaN,,,,,,false,,,,285665.5,285665.2999999998,,285665,,285667.306,8,400,,,
sequence,flow.Sequence,4_61,2023-11-06T15:29:17.577Z,,0,,,2547.8569999997853,completion,,,,,false,,,,285665.7999999998,285665.2999999998,283100.778,283116.5999999996,283117.443,285667.306,8,400,,,
trial,html.Screen,4_62_0,2023-11-06T15:29:19.967Z,,0,2,,2387.6940000000177,response,ISIC_5230371.JPG,5,ISIC_2953279.JPG,ISIC_2953279.JPG,false,0,keypress(z),500,288055.5,288055,285650.641,285666.0999999996,285667.306,288067.178,8,400,13,,ISIC_5230371.JPG
break,html.Screen,4_62_1,2023-11-06T15:29:19.968Z,,0,,,NaN,,,,,,false,,,,288056.7999999998,288056.2999999998,,288055.7000000002,,288067.178,8,400,,,
break_continue,html.Screen,4_62_2,2023-11-06T15:29:19.969Z,,0,,,NaN,,,,,,false,,,,288057.7000000002,288057.4000000004,,288057.0999999996,,288067.178,8,400,,,
sequence,flow.Sequence,4_62,2023-11-06T15:29:19.969Z,,0,,,2390.09400000039,completion,,,,,false,,,,288058.0999999996,288057.4000000004,285650.641,285666,285667.306,288067.178,8,400,,,
trial,html.Screen,4_63_0,2023-11-06T15:29:22.328Z,,0,2,,2349.022000000172,response,ISIC_0069743.JPG,4,ISIC_0027964.JPG,ISIC_0069743.JPG,false,1,keypress(m),500,290416.7000000002,290416.2000000002,288050.513,288058.2999999998,288067.178,290433.741,8,400,14,,ISIC_0027964.JPG
break,html.Screen,4_63_1,2023-11-06T15:29:22.329Z,,0,,,NaN,,,,,,false,,,,290418.0999999996,290417.5,,290416.9000000004,,290433.741,8,400,,,
break_continue,html.Screen,4_63_2,2023-11-06T15:29:22.330Z,,0,,,NaN,,,,,,false,,,,290418.9000000004,290418.7000000002,,290418.4000000004,,290433.741,8,400,,,
sequence,flow.Sequence,4_63,2023-11-06T15:29:22.331Z,,0,,,2351.522000000172,completion,,,,,false,,,,290419.2999999998,290418.7000000002,288050.513,288058.2999999998,288067.178,290433.741,8,400,,,
trial,html.Screen,4_64_0,2023-11-06T15:29:24.717Z,,0,2,,2371.25900000002,response,ISIC_0011995.JPG,4,ISIC_9912475.JPG,ISIC_9912475.JPG,false,0,keypress(z),500,292805.2999999998,292805,290417.053,290419.5,290433.741,292816.923,8,400,15,,ISIC_0011995.JPG
break,html.Screen,4_64_1,2023-11-06T15:29:24.718Z,,0,,,NaN,,,,,,false,,,,292806.5,292806,,292805.5999999996,,292816.923,8,400,,,
break_continue,html.Screen,4_64_2,2023-11-06T15:29:24.719Z,,0,,,NaN,,,,,,false,,,,292807.4000000004,292806.9000000004,,292806.7999999998,,292816.923,8,400,,,
sequence,flow.Sequence,4_64,2023-11-06T15:29:24.719Z,,0,,,2373.1590000003926,completion,,,,,false,,,,292807.5999999996,292806.9000000004,290417.053,290419.5,290433.741,292816.923,8,400,,,
trial,html.Screen,4_65_0,2023-11-06T15:29:27.269Z,,0,2,,2540.4770000003628,response,ISIC_0015023.JPG,4,ISIC_8397077.JPG,ISIC_8397077.JPG,false,0,keypress(z),500,295357.7999999998,295357.4000000004,292800.258,292807.7999999998,292816.923,295366.787,8,400,16,,ISIC_0015023.JPG
break,html.Screen,4_65_1,2023-11-06T15:29:27.271Z,,0,,,NaN,,,,,,false,,,,295359.2999999998,295358.7999999998,,295358.0999999996,,295366.787,8,400,,,
break_continue,html.Screen,4_65_2,2023-11-06T15:29:27.271Z,,0,,,NaN,,,,,,false,,,,295360.2000000002,295359.7999999998,,295359.5999999996,,295366.787,8,400,,,
sequence,flow.Sequence,4_65,2023-11-06T15:29:27.272Z,,0,,,2542.876999999804,completion,,,,,false,,,,295360.5,295359.7999999998,292800.258,292807.7999999998,292816.923,295366.787,8,400,,,
trial,html.Screen,4_66_0,2023-11-06T15:29:29.770Z,,0,2,,2491.8129999996163,response,ISIC_3716686.JPG,5,ISIC_5223280.JPG,ISIC_3716686.JPG,false,1,keypress(m),500,297859,297858.5999999996,295350.122,295360.7000000002,295366.787,297866.653,8,400,17,,ISIC_5223280.JPG
break,html.Screen,4_66_1,2023-11-06T15:29:29.772Z,,0,,,NaN,,,,,,false,,,,297860.4000000004,297859.9000000004,,297859.4000000004,,297866.653,8,400,,,
break_continue,html.Screen,4_66_2,2023-11-06T15:29:29.773Z,,0,,,NaN,,,,,,false,,,,297861.2999999998,297861,,297860.7999999998,,297866.653,8,400,,,
sequence,flow.Sequence,4_66,2023-11-06T15:29:29.773Z,,0,,,2494.212999999989,completion,,,,,false,,,,297861.7999999998,297861,295350.122,295360.7000000002,295366.787,297866.653,8,400,,,
trial,html.Screen,4_67_0,2023-11-06T15:29:32.240Z,,0,2,,2461.347000000009,response,ISIC_4417495.JPG,5,ISIC_8732757.JPG,ISIC_4417495.JPG,false,1,keypress(m),500,300328.5,300328,297849.988,297862,297866.653,300349.877,8,400,18,,ISIC_8732757.JPG
break,html.Screen,4_67_1,2023-11-06T15:29:32.241Z,,0,,,NaN,,,,,,false,,,,300329.7999999998,300329.2999999998,,300328.7000000002,,300349.877,8,400,,,
break_continue,html.Screen,4_67_2,2023-11-06T15:29:32.242Z,,0,,,NaN,,,,,,false,,,,300331.0999999996,300330.5999999996,,300330.4000000004,,300349.877,8,400,,,
sequence,flow.Sequence,4_67,2023-11-06T15:29:32.243Z,,0,,,2463.9469999996363,completion,,,,,false,,,,300331.4000000004,300330.5999999996,297849.988,297861.9000000004,297866.653,300349.877,8,400,,,
trial,html.Screen,4_68_0,2023-11-06T15:29:39.637Z,,0,2,,7375.523000000394,response,ISIC_0005319.JPG,4,ISIC_3039880.JPG,ISIC_0005319.JPG,false,1,keypress(m),500,307725.7999999998,307725.4000000004,300333.188,300331.5999999996,300349.877,307749.48,8,400,19,,ISIC_3039880.JPG
break,html.Screen,4_68_1,2023-11-06T15:29:39.638Z,,0,,,NaN,,,,,,false,,,,307727.0999999996,307726.5999999996,,307726.2000000002,,307749.48,8,400,,,
break_continue,html.Screen,4_68_2,2023-11-06T15:29:39.639Z,,0,,,NaN,,,,,,false,,,,307727.7000000002,307727.5,,307727.4000000004,,307749.48,8,400,,,
sequence,flow.Sequence,4_68,2023-11-06T15:29:39.639Z,,0,,,7377.623000000021,completion,,,,,false,,,,307728,307727.5,300333.188,300331.5,300349.877,307749.48,8,400,,,
trial,html.Screen,4_69_0,2023-11-06T15:29:42.522Z,,0,2,,2860.720000000205,response,ISIC_2728024.JPG,4,ISIC_0011127.JPG,ISIC_2728024.JPG,false,1,keypress(m),500,310610.5,310610.2000000002,307732.792,307728.2999999998,307749.48,310615.97,8,400,20,,ISIC_0011127.JPG
break,html.Screen,4_69_1,2023-11-06T15:29:42.523Z,,0,,,NaN,,,,,,false,,,,310612,310611.5,,310610.7999999998,,310615.97,8,400,,,
break_continue,html.Screen,4_69_2,2023-11-06T15:29:42.524Z,,0,,,NaN,,,,,,false,,,,310612.7000000002,310612.5,,310612.2000000002,,310615.97,8,400,,,
sequence,flow.Sequence,4_69,2023-11-06T15:29:42.524Z,,0,,,2863.0200000000186,completion,,,,,false,,,,310613.0999999996,310612.5,307732.792,307728.2000000002,307749.48,310615.97,8,400,,,
trial,html.Screen,4_70_0,2023-11-06T15:29:45.505Z,,0,2,,2977.4300000004005,response,ISIC_4438786.JPG,4,ISIC_0010379.JPG,ISIC_4438786.JPG,false,1,keypress(m),500,313593.7999999998,313593.4000000004,310599.305,310613.2999999998,310615.97,313599.145,8,400,21,,ISIC_0010379.JPG
break,html.Screen,4_70_1,2023-11-06T15:29:45.507Z,,0,,,NaN,,,,,,false,,,,313595.5999999996,313595.2000000002,,313594.2000000002,,313599.145,8,400,,,
break_continue,html.Screen,4_70_2,2023-11-06T15:29:45.508Z,,0,,,NaN,,,,,,false,,,,313596.4000000004,313596.0999999996,,313595.7999999998,,313599.145,8,400,,,
sequence,flow.Sequence,4_70,2023-11-06T15:29:45.508Z,,0,,,2980.1299999996554,completion,,,,,false,,,,313596.5999999996,313596.0999999996,310599.305,310613.2000000002,310615.97,313599.145,8,400,,,
trial,html.Screen,4_71_0,2023-11-06T15:29:48.248Z,,0,2,,2737.255000000354,response,ISIC_0070689.JPG,5,ISIC_0028109.JPG,ISIC_0028109.JPG,false,0,keypress(z),500,316336.7000000002,316336.4000000004,313582.48,313596.7999999998,313599.145,316348.996,8,400,22,,ISIC_0070689.JPG
break,html.Screen,4_71_1,2023-11-06T15:29:48.250Z,,0,,,NaN,,,,,,false,,,,316338.5,316337.9000000004,,316337.0999999996,,316348.996,8,400,,,
break_continue,html.Screen,4_71_2,2023-11-06T15:29:48.251Z,,0,,,NaN,,,,,,false,,,,316340,316339.5999999996,,316338.7999999998,,316348.996,8,400,,,
sequence,flow.Sequence,4_71,2023-11-06T15:29:48.252Z,,0,,,2740.454999999609,completion,,,,,false,,,,316340.2999999998,316339.5999999996,313582.48,313596.7999999998,313599.145,316348.996,8,400,,,
trial,html.Screen,4_72_0,2023-11-06T15:29:51.630Z,,0,2,,3369.103999999643,response,ISIC_0024546.JPG,4,ISIC_0001100.JPG,ISIC_0024546.JPG,false,1,keypress(m),500,319718.5,319718.0999999996,316332.331,316340.5999999996,316348.996,319732.172,8,400,23,,ISIC_0001100.JPG
break,html.Screen,4_72_1,2023-11-06T15:29:51.631Z,,0,,,NaN,,,,,,false,,,,319720.0999999996,319719.5,,319718.9000000004,,319732.172,8,400,,,
break_continue,html.Screen,4_72_2,2023-11-06T15:29:51.632Z,,0,,,NaN,,,,,,false,,,,319720.9000000004,319720.7000000002,,319720.4000000004,,319732.172,8,400,,,
sequence,flow.Sequence,4_72,2023-11-06T15:29:51.632Z,,0,,,3371.7040000002016,completion,,,,,false,,,,319721.2000000002,319720.7000000002,316332.331,316340.5999999996,316348.996,319732.172,8,400,,,
trial,html.Screen,4_73_0,2023-11-06T15:29:54.131Z,,0,2,,2487.028000000166,response,ISIC_0058753.JPG,4,ISIC_4433832.JPG,ISIC_0058753.JPG,false,1,keypress(m),500,322219.5999999996,322219.2000000002,319715.484,319721.4000000004,319732.172,322232.037,8,400,24,,ISIC_4433832.JPG
break,html.Screen,4_73_1,2023-11-06T15:29:54.132Z,,0,,,NaN,,,,,,false,,,,322221,322220.5999999996,,322219.9000000004,,322232.037,8,400,,,
break_continue,html.Screen,4_73_2,2023-11-06T15:29:54.133Z,,0,,,NaN,,,,,,false,,,,322221.9000000004,322221.5999999996,,322221.2999999998,,322232.037,8,400,,,
sequence,flow.Sequence,4_73,2023-11-06T15:29:54.133Z,,0,,,2489.427999999607,completion,,,,,false,,,,322222.2000000002,322221.5999999996,319715.484,319721.2999999998,319732.172,322232.037,8,400,,,
trial,html.Screen,4_74_0,2023-11-06T15:29:56.920Z,,0,2,,2776.163000000175,response,ISIC_0062471.JPG,4,ISIC_5697228.JPG,ISIC_5697228.JPG,false,0,keypress(z),500,325008.7000000002,325008.2000000002,322215.35,322222.5,322232.037,325015.199,8,400,25,,ISIC_0062471.JPG
break,html.Screen,4_74_1,2023-11-06T15:29:56.922Z,,0,,,NaN,,,,,,false,,,,325010.2999999998,325009.7999999998,,325009.0999999996,,325015.199,8,400,,,
break_continue,html.Screen,4_74_2,2023-11-06T15:29:56.922Z,,0,,,NaN,,,,,,false,,,,325011.2000000002,325010.9000000004,,325010.5999999996,,325015.199,8,400,,,
sequence,flow.Sequence,4_74,2023-11-06T15:29:56.923Z,,0,,,2778.8630000003614,completion,,,,,false,,,,325011.5,325010.9000000004,322215.35,322222.4000000004,322232.037,325015.199,8,400,,,
trial,html.Screen,4_75_0,2023-11-06T15:29:59.565Z,,0,2,,2638.1009999997914,response,ISIC_4879187.JPG,4,ISIC_4013189.JPG,ISIC_4013189.JPG,false,0,keypress(z),500,327653.7999999998,327653.2999999998,324998.534,325011.5999999996,325015.199,327665.057,8,400,26,,ISIC_4879187.JPG
break,html.Screen,4_75_1,2023-11-06T15:29:59.567Z,,0,,,NaN,,,,,,false,,,,327655.2999999998,327654.7999999998,,327654.0999999996,,327665.057,8,400,,,
break_continue,html.Screen,4_75_2,2023-11-06T15:29:59.567Z,,0,,,NaN,,,,,,false,,,,327656.2000000002,327655.7999999998,,327655.5999999996,,327665.057,8,400,,,
sequence,flow.Sequence,4_75,2023-11-06T15:29:59.568Z,,0,,,2640.6009999997914,completion,,,,,false,,,,327656.5,327655.7999999998,324998.534,325011.5999999996,325015.199,327665.057,8,400,,,
trial,html.Screen,4_76_0,2023-11-06T15:30:02.130Z,,0,2,,2553.542999999656,response,ISIC_0066739.JPG,5,ISIC_0024675.JPG,ISIC_0024675.JPG,false,0,keypress(z),500,330219.0999999996,330218.5999999996,327648.392,327656.7000000002,327665.057,330231.586,8,400,27,,ISIC_0066739.JPG
break,html.Screen,4_76_1,2023-11-06T15:30:02.132Z,,0,,,NaN,,,,,,false,,,,330220.5,330220,,330219.5,,330231.586,8,400,,,
break_continue,html.Screen,4_76_2,2023-11-06T15:30:02.133Z,,0,,,NaN,,,,,,false,,,,330221.4000000004,330221.0999999996,,330220.7999999998,,330231.586,8,400,,,
sequence,flow.Sequence,4_76,2023-11-06T15:30:02.133Z,,0,,,2556.042999999656,completion,,,,,false,,,,330221.7999999998,330221.0999999996,327648.392,327656.5999999996,327665.057,330231.586,8,400,,,
trial,html.Screen,4_77_0,2023-11-06T15:30:05.656Z,,0,2,,3512.4139999999898,response,ISIC_0013580.JPG,5,ISIC_9732721.JPG,ISIC_9732721.JPG,false,0,keypress(z),500,333744.4000000004,333744,330214.921,330222,330231.586,333748.065,8,400,28,,ISIC_0013580.JPG
break,html.Screen,4_77_1,2023-11-06T15:30:05.657Z,,0,,,NaN,,,,,,false,,,,333745.9000000004,333745.2999999998,,333744.7000000002,,333748.065,8,400,,,
break_continue,html.Screen,4_77_2,2023-11-06T15:30:05.658Z,,0,,,NaN,,,,,,false,,,,333746.7000000002,333746.5,,333746.0999999996,,333748.065,8,400,,,
sequence,flow.Sequence,4_77,2023-11-06T15:30:05.658Z,,0,,,3514.9139999999898,completion,,,,,false,,,,333747.0999999996,333746.5,330214.921,330221.9000000004,330231.586,333748.065,8,400,,,
trial,html.Screen,4_78_0,2023-11-06T15:30:08.655Z,,0,2,,2994.7349999998114,response,ISIC_8206667.JPG,4,ISIC_0027126.JPG,ISIC_0027126.JPG,false,0,keypress(z),500,336743.2999999998,336742.7999999998,333731.4,333747.2999999998,333748.065,336747.904,8,400,29,,ISIC_8206667.JPG
break,html.Screen,4_78_1,2023-11-06T15:30:08.656Z,,0,,,NaN,,,,,,false,,,,336744.9000000004,336744.4000000004,,336743.5999999996,,336747.904,8,400,,,
break_continue,html.Screen,4_78_2,2023-11-06T15:30:08.657Z,,0,,,NaN,,,,,,false,,,,336745.7000000002,336745.4000000004,,336745.0999999996,,336747.904,8,400,,,
sequence,flow.Sequence,4_78,2023-11-06T15:30:08.657Z,,0,,,2997.33500000037,completion,,,,,false,,,,336745.9000000004,336745.4000000004,333731.4,333747.2000000002,333748.065,336747.904,8,400,,,
trial,html.Screen,4_79_0,2023-11-06T15:30:14.276Z,,0,2,,5615.996000000392,response,ISIC_0034210.JPG,5,ISIC_1930598.JPG,ISIC_0034210.JPG,false,1,keypress(m),500,342364.4000000004,342363.9000000004,336731.239,336746.2000000002,336747.904,342380.958,8,400,30,,ISIC_1930598.JPG
break,html.Screen,4_79_1,2023-11-06T15:30:14.277Z,,0,,,NaN,,,,,,false,,,,342365.7999999998,342365.2999999998,,342364.7000000002,,342380.958,8,400,,,
break_continue,html.Screen,4_79_2,2023-11-06T15:30:14.278Z,,0,,,NaN,,,,,,false,,,,342366.7999999998,342366.4000000004,,342366.2000000002,,342380.958,8,400,,,
sequence,flow.Sequence,4_79,2023-11-06T15:30:14.278Z,,0,,,5618.496000000392,completion,,,,,false,,,,342367.0999999996,342366.4000000004,336731.239,336746.0999999996,336747.904,342380.958,8,400,,,
trial,html.Screen,4_80_0,2023-11-06T15:30:16.927Z,,0,2,,2634.242000000202,response,ISIC_0024737.JPG,4,ISIC_5520533.JPG,ISIC_5520533.JPG,false,0,keypress(z),500,345015.5999999996,345015.2000000002,342364.285,342367.2999999998,342380.958,345030.817,8,400,31,,ISIC_0024737.JPG
break,html.Screen,4_80_1,2023-11-06T15:30:16.928Z,,0,,,NaN,,,,,,false,,,,345017,345016.5,,345015.9000000004,,345030.817,8,400,,,
break_continue,html.Screen,4_80_2,2023-11-06T15:30:16.929Z,,0,,,NaN,,,,,,false,,,,345017.7999999998,345017.5999999996,,345017.2999999998,,345030.817,8,400,,,
sequence,flow.Sequence,4_80,2023-11-06T15:30:16.929Z,,0,,,2636.6419999996433,completion,,,,,false,,,,345018.2000000002,345017.5999999996,342364.285,342367.2999999998,342380.958,345030.817,8,400,,,
trial,html.Screen,4_81_0,2023-11-06T15:30:19.578Z,,0,2,,2635.3830000002054,response,ISIC_0031517.JPG,5,ISIC_1711973.JPG,ISIC_0031517.JPG,false,1,keypress(m),500,347666.5,347666.2000000002,345014.129,345018.4000000004,345030.817,347680.675,8,400,32,,ISIC_1711973.JPG
break,html.Screen,4_81_1,2023-11-06T15:30:19.579Z,,0,,,NaN,,,,,,false,,,,347668.2000000002,347667.5999999996,,347666.7999999998,,347680.675,8,400,,,
break_continue,html.Screen,4_81_2,2023-11-06T15:30:19.580Z,,0,,,NaN,,,,,,false,,,,347668.9000000004,347668.7999999998,,347668.5,,347680.675,8,400,,,
sequence,flow.Sequence,4_81,2023-11-06T15:30:19.581Z,,0,,,2637.982999999833,completion,,,,,false,,,,347669.4000000004,347668.7999999998,345014.129,345018.4000000004,345030.817,347680.675,8,400,,,
trial,html.Screen,4_82_0,2023-11-06T15:30:22.095Z,,0,2,,2502.725000000384,response,ISIC_4494516.JPG,5,ISIC_6657600.JPG,ISIC_4494516.JPG,false,1,keypress(m),500,350183.7999999998,350183.4000000004,347663.987,347669.5999999996,347680.675,350197.206,8,400,33,,ISIC_6657600.JPG
break,html.Screen,4_82_1,2023-11-06T15:30:22.096Z,,0,,,NaN,,,,,,false,,,,350185.2000000002,350184.7000000002,,350184.0999999996,,350197.206,8,400,,,
break_continue,html.Screen,4_82_2,2023-11-06T15:30:22.097Z,,0,,,NaN,,,,,,false,,,,350186.0999999996,350185.7999999998,,350185.5,,350197.206,8,400,,,
sequence,flow.Sequence,4_82,2023-11-06T15:30:22.098Z,,0,,,2505.1249999998254,completion,,,,,false,,,,350186.4000000004,350185.7999999998,347663.987,347669.5,347680.675,350197.206,8,400,,,
trial,html.Screen,4_83_0,2023-11-06T15:30:24.683Z,,0,2,,2574.593999999808,response,ISIC_1604845.JPG,4,ISIC_2072219.JPG,ISIC_1604845.JPG,false,1,keypress(m),500,352772.2000000002,352771.7999999998,350180.519,350186.5999999996,350197.206,352797.067,8,400,34,,ISIC_2072219.JPG
break,html.Screen,4_83_1,2023-11-06T15:30:24.684Z,,0,,,NaN,,,,,,false,,,,352773.0999999996,352772.7000000002,,352772.2999999998,,352797.067,8,400,,,
break_continue,html.Screen,4_83_2,2023-11-06T15:30:24.685Z,,0,,,NaN,,,,,,false,,,,352773.7999999998,352773.5999999996,,352773.4000000004,,352797.067,8,400,,,
sequence,flow.Sequence,4_83,2023-11-06T15:30:24.686Z,,0,,,2576.393999999622,completion,,,,,false,,,,352774.4000000004,352773.5999999996,350180.519,350186.5999999996,350197.206,352797.067,8,400,,,
trial,html.Screen,4_84_0,2023-11-06T15:30:28.832Z,,0,2,,4123.433000000019,response,ISIC_0025489.JPG,5,ISIC_0034162.JPG,ISIC_0034162.JPG,false,0,keypress(z),500,356920.9000000004,356920.5,352780.379,352774.5999999996,352797.067,356930.156,8,400,35,,ISIC_0025489.JPG
break,html.Screen,4_84_1,2023-11-06T15:30:28.834Z,,0,,,NaN,,,,,,false,,,,356922.2999999998,356921.7999999998,,356921.2000000002,,356930.156,8,400,,,
break_continue,html.Screen,4_84_2,2023-11-06T15:30:28.835Z,,0,,,NaN,,,,,,false,,,,356923.2999999998,356922.9000000004,,356922.5999999996,,356930.156,8,400,,,
sequence,flow.Sequence,4_84,2023-11-06T15:30:28.835Z,,0,,,4125.833000000392,completion,,,,,false,,,,356923.5999999996,356922.9000000004,352780.379,352774.5999999996,352797.067,356930.156,8,400,,,
trial,html.Screen,4_85_0,2023-11-06T15:30:33.400Z,,0,2,,4558.044000000169,response,ISIC_7797853.JPG,5,ISIC_2245709.JPG,ISIC_7797853.JPG,false,1,keypress(m),500,361488.7000000002,361488.2000000002,356913.491,356923.7999999998,356930.156,361496.578,8,400,36,,ISIC_2245709.JPG
break,html.Screen,4_85_1,2023-11-06T15:30:33.401Z,,0,,,NaN,,,,,,false,,,,361490.0999999996,361489.5999999996,,361489,,361496.578,8,400,,,
break_continue,html.Screen,4_85_2,2023-11-06T15:30:33.402Z,,0,,,NaN,,,,,,false,,,,361491.0999999996,361490.7000000002,,361490.4000000004,,361496.578,8,400,,,
sequence,flow.Sequence,4_85,2023-11-06T15:30:33.403Z,,0,,,4560.544000000169,completion,,,,,false,,,,361491.4000000004,361490.7000000002,356913.491,356923.7999999998,356930.156,361496.578,8,400,,,
trial,html.Screen,4_86_0,2023-11-06T15:30:36.173Z,,0,2,,2764.9220000000205,response,ISIC_0073032.JPG,5,ISIC_0067804.JPG,ISIC_0067804.JPG,false,0,keypress(z),500,364261.9000000004,364261.5,361479.913,361491.5999999996,361496.578,364279.786,8,400,37,,ISIC_0073032.JPG
break,html.Screen,4_86_1,2023-11-06T15:30:36.175Z,,0,,,NaN,,,,,,false,,,,364263.7000000002,364263,,364262.2000000002,,364279.786,8,400,,,
break_continue,html.Screen,4_86_2,2023-11-06T15:30:36.176Z,,0,,,NaN,,,,,,false,,,,364264.5999999996,364264.2000000002,,364263.9000000004,,364279.786,8,400,,,
sequence,flow.Sequence,4_86,2023-11-06T15:30:36.176Z,,0,,,2767.6220000002068,completion,,,,,false,,,,364265,364264.2000000002,361479.913,361491.5999999996,361496.578,364279.786,8,400,,,
trial,html.Screen,4_87_0,2023-11-06T15:30:40.055Z,,0,2,,3863.513999999792,response,ISIC_0072642.JPG,4,ISIC_0031310.JPG,ISIC_0031310.JPG,false,0,keypress(z),500,368143.7999999998,368143.2999999998,364263.098,364265.4000000004,364279.786,368146.223,8,400,38,,ISIC_0072642.JPG
break,html.Screen,4_87_1,2023-11-06T15:30:40.057Z,,0,,,NaN,,,,,,false,,,,368145.4000000004,368144.7999999998,,368144.2000000002,,368146.223,8,400,,,
break_continue,html.Screen,4_87_2,2023-11-06T15:30:40.057Z,,0,,,NaN,,,,,,false,,,,368146.0999999996,368145.9000000004,,368145.7000000002,,368146.223,8,400,,,
sequence,flow.Sequence,4_87,2023-11-06T15:30:40.058Z,,0,,,3866.1140000003506,completion,,,,,false,,,,368146.5999999996,368145.9000000004,364263.098,364265.2000000002,364279.786,368146.223,8,400,,,
trial,html.Screen,4_88_0,2023-11-06T15:30:42.993Z,,0,2,,2935.1770000003744,response,ISIC_0028069.JPG,4,ISIC_0001157.JPG,ISIC_0028069.JPG,false,1,keypress(m),500,371081.9000000004,371081.4000000004,368129.558,368147.0999999996,368146.223,371096.087,8,400,39,,ISIC_0001157.JPG
break,html.Screen,4_88_1,2023-11-06T15:30:42.995Z,,0,,,NaN,,,,,,false,,,,371083.2999999998,371082.7999999998,,371082.2000000002,,371096.087,8,400,,,
break_continue,html.Screen,4_88_2,2023-11-06T15:30:42.995Z,,0,,,NaN,,,,,,false,,,,371084.2000000002,371083.9000000004,,371083.5999999996,,371096.087,8,400,,,
sequence,flow.Sequence,4_88,2023-11-06T15:30:42.996Z,,0,,,2937.6770000003744,completion,,,,,false,,,,371084.5999999996,371083.9000000004,368129.558,368147,368146.223,371096.087,8,400,,,
trial,html.Screen,4_89_0,2023-11-06T15:30:46.171Z,,0,2,,3163.212999999814,response,ISIC_8320640.JPG,5,ISIC_0028341.JPG,ISIC_8320640.JPG,false,1,keypress(m),500,374259.7000000002,374259.2999999998,371079.399,371084.7999999998,371096.087,374279.25,8,400,40,,ISIC_0028341.JPG
break,html.Screen,4_89_1,2023-11-06T15:30:46.172Z,,0,,,NaN,,,,,,false,,,,374260.5999999996,374260.2000000002,,374259.9000000004,,374279.25,8,400,,,
break_continue,html.Screen,4_89_2,2023-11-06T15:30:46.173Z,,0,,,NaN,,,,,,false,,,,374261.2999999998,374261,,374260.7000000002,,374279.25,8,400,,,
sequence,flow.Sequence,4_89,2023-11-06T15:30:46.173Z,,0,,,3164.9130000000005,completion,,,,,false,,,,374261.5999999996,374261,371079.399,371084.7999999998,371096.087,374279.25,8,400,,,
trial,html.Screen,4_90_0,2023-11-06T15:30:49.010Z,,0,2,,2819.1500000003725,response,ISIC_4011169.JPG,4,ISIC_7171090.JPG,ISIC_4011169.JPG,false,1,keypress(m),500,377098.7999999998,377098.4000000004,374262.562,374261.7999999998,374279.25,377112.432,8,400,41,,ISIC_7171090.JPG
break,html.Screen,4_90_1,2023-11-06T15:30:49.012Z,,0,,,NaN,,,,,,false,,,,377100.4000000004,377099.9000000004,,377099.2000000002,,377112.432,8,400,,,
break_continue,html.Screen,4_90_2,2023-11-06T15:30:49.013Z,,0,,,NaN,,,,,,false,,,,377101.2000000002,377101,,377100.7000000002,,377112.432,8,400,,,
sequence,flow.Sequence,4_90,2023-11-06T15:30:49.013Z,,0,,,2821.75,completion,,,,,false,,,,377101.5,377101,374262.562,374261.7999999998,374279.25,377112.432,8,400,,,
trial,html.Screen,4_91_0,2023-11-06T15:30:51.705Z,,0,2,,2681.2680000002147,response,ISIC_2908315.JPG,5,ISIC_6298726.JPG,ISIC_2908315.JPG,false,1,keypress(m),500,379794.0999999996,379793.7000000002,377095.744,377101.7999999998,377112.432,379812.287,8,400,42,,ISIC_6298726.JPG
break,html.Screen,4_91_1,2023-11-06T15:30:51.706Z,,0,,,NaN,,,,,,false,,,,379795,379794.7000000002,,379794.2000000002,,379812.287,8,400,,,
break_continue,html.Screen,4_91_2,2023-11-06T15:30:51.707Z,,0,,,NaN,,,,,,false,,,,379795.5999999996,379795.4000000004,,379795.2000000002,,379812.287,8,400,,,
sequence,flow.Sequence,4_91,2023-11-06T15:30:51.707Z,,0,,,2682.968000000401,completion,,,,,false,,,,379796,379795.4000000004,377095.744,377101.7000000002,377112.432,379812.287,8,400,,,
trial,html.Screen,4_92_0,2023-11-06T15:30:54.290Z,,0,2,,2566.212999999989,response,ISIC_3736075.JPG,5,ISIC_0011830.JPG,ISIC_3736075.JPG,false,1,keypress(m),500,382378.9000000004,382378.5,379795.599,379796.2000000002,379812.287,382395.482,8,400,43,,ISIC_0011830.JPG
break,html.Screen,4_92_1,2023-11-06T15:30:54.292Z,,0,,,NaN,,,,,,false,,,,382380.5,382380,,382379.2000000002,,382395.482,8,400,,,
break_continue,html.Screen,4_92_2,2023-11-06T15:30:54.293Z,,0,,,NaN,,,,,,false,,,,382381.2000000002,382381,,382380.7000000002,,382395.482,8,400,,,
sequence,flow.Sequence,4_92,2023-11-06T15:30:54.293Z,,0,,,2568.712999999989,completion,,,,,false,,,,382381.5,382381,379795.599,379796.0999999996,379812.287,382395.482,8,400,,,
trial,html.Screen,4_93_0,2023-11-06T15:30:56.857Z,,0,2,,2549.3179999997956,response,ISIC_0056603.JPG,5,ISIC_8147189.JPG,ISIC_8147189.JPG,false,0,keypress(z),500,384945.2000000002,384944.7999999998,382378.794,382381.7000000002,382395.482,384962.012,8,400,44,,ISIC_0056603.JPG
break,html.Screen,4_93_1,2023-11-06T15:30:56.858Z,,0,,,NaN,,,,,,false,,,,384946.5999999996,384946.2000000002,,384945.5999999996,,384962.012,8,400,,,
break_continue,html.Screen,4_93_2,2023-11-06T15:30:56.859Z,,0,,,NaN,,,,,,false,,,,384947.5,384947.2000000002,,384946.9000000004,,384962.012,8,400,,,
sequence,flow.Sequence,4_93,2023-11-06T15:30:56.859Z,,0,,,2551.718000000168,completion,,,,,false,,,,384947.7999999998,384947.2000000002,382378.794,382381.7000000002,382395.482,384962.012,8,400,,,
trial,html.Screen,4_94_0,2023-11-06T15:31:00.143Z,,0,2,,3269.3880000003846,response,ISIC_6557194.JPG,5,ISIC_0758797.JPG,ISIC_0758797.JPG,false,0,keypress(z),500,388231.7000000002,388231.4000000004,384945.323,384948.0999999996,384962.012,388245.169,8,400,45,,ISIC_6557194.JPG
break,html.Screen,4_94_1,2023-11-06T15:31:00.145Z,,0,,,NaN,,,,,,false,,,,388233.2999999998,388232.9000000004,,388232.0999999996,,388245.169,8,400,,,
break_continue,html.Screen,4_94_2,2023-11-06T15:31:00.145Z,,0,,,NaN,,,,,,false,,,,388234.2000000002,388233.9000000004,,388233.5999999996,,388245.169,8,400,,,
sequence,flow.Sequence,4_94,2023-11-06T15:31:00.146Z,,0,,,3271.8880000003846,completion,,,,,false,,,,388234.5,388233.9000000004,384945.323,384948,384962.012,388245.169,8,400,,,
trial,html.Screen,4_95_0,2023-11-06T15:31:04.180Z,,0,2,,4023.3310000000056,response,ISIC_7936755.JPG,5,ISIC_0010940.JPG,ISIC_0010940.JPG,false,0,keypress(z),500,392268.9000000004,392268.5,388228.481,388234.7000000002,388245.169,392294.952,8,400,46,,ISIC_7936755.JPG
break,html.Screen,4_95_1,2023-11-06T15:31:04.181Z,,0,,,NaN,,,,,,false,,,,392270.0999999996,392269.7000000002,,392269.2000000002,,392294.952,8,400,,,
break_continue,html.Screen,4_95_2,2023-11-06T15:31:04.183Z,,0,,,NaN,,,,,,false,,,,392271.2999999998,392270.9000000004,,392270.5999999996,,392294.952,8,400,,,
sequence,flow.Sequence,4_95,2023-11-06T15:31:04.183Z,,0,,,4025.731000000378,completion,,,,,false,,,,392271.5999999996,392270.9000000004,388228.481,388234.7000000002,388245.169,392294.952,8,400,,,
trial,html.Screen,4_96_0,2023-11-06T15:31:07.535Z,,0,2,,3328.8479999998235,response,ISIC_0015204.JPG,5,ISIC_0031545.JPG,ISIC_0015204.JPG,false,1,keypress(m),500,395624.2000000002,395623.7999999998,392278.263,392271.9000000004,392294.952,395628.085,8,400,47,,ISIC_0031545.JPG
break,html.Screen,4_96_1,2023-11-06T15:31:07.537Z,,0,,,NaN,,,,,,false,,,,395625.7000000002,395625.2999999998,,395624.5,,395628.085,8,400,,,
break_continue,html.Screen,4_96_2,2023-11-06T15:31:07.538Z,,0,,,NaN,,,,,,false,,,,395626.5,395626.2999999998,,395626,,395628.085,8,400,,,
sequence,flow.Sequence,4_96,2023-11-06T15:31:07.538Z,,0,,,3331.3479999998235,completion,,,,,false,,,,395626.7000000002,395626.2999999998,392278.263,392271.7999999998,392294.952,395628.085,8,400,,,
trial,html.Screen,4_97_0,2023-11-06T15:31:10.134Z,,0,2,,2594.5149999996065,response,ISIC_6069236.JPG,5,ISIC_2819798.JPG,ISIC_6069236.JPG,false,1,keypress(m),500,398223,398222.5999999996,395611.42,395626.9000000004,395628.085,398244.634,8,400,48,,ISIC_2819798.JPG
break,html.Screen,4_97_1,2023-11-06T15:31:10.136Z,,0,,,NaN,,,,,,false,,,,398224.2000000002,398223.7999999998,,398223.2999999998,,398244.634,8,400,,,
break_continue,html.Screen,4_97_2,2023-11-06T15:31:10.137Z,,0,,,NaN,,,,,,false,,,,398225.4000000004,398224.7999999998,,398224.5,,398244.634,8,400,,,
sequence,flow.Sequence,4_97,2023-11-06T15:31:10.138Z,,0,,,2596.714999999793,completion,,,,,false,,,,398227.2000000002,398224.7999999998,395611.42,395626.9000000004,395628.085,398244.634,8,400,,,
trial,html.Screen,4_98_0,2023-11-06T15:31:12.525Z,,0,2,,2368.7660000003525,response,ISIC_0015129.JPG,5,ISIC_0010527.JPG,ISIC_0010527.JPG,false,0,keypress(z),500,400613.7999999998,400613.4000000004,398227.945,398227.5999999996,398244.634,400627.839,8,400,49,,ISIC_0015129.JPG
break,html.Screen,4_98_1,2023-11-06T15:31:12.527Z,,0,,,NaN,,,,,,false,,,,400615.7999999998,400615.0999999996,,400614.5,,400627.839,8,400,,,
break_continue,html.Screen,4_98_2,2023-11-06T15:31:12.528Z,,0,,,NaN,,,,,,false,,,,400616.7999999998,400616.2999999998,,400616.2000000002,,400627.839,8,400,,,
sequence,flow.Sequence,4_98,2023-11-06T15:31:12.529Z,,0,,,2371.6659999997937,completion,,,,,false,,,,400617.2999999998,400616.2999999998,398227.945,398227.4000000004,398244.634,400627.839,8,400,,,
trial,html.Screen,4_99_0,2023-11-06T15:31:17.763Z,,0,2,,5223.561000000394,response,ISIC_3696726.JPG,5,ISIC_7477006.JPG,ISIC_3696726.JPG,false,1,keypress(m),500,405851.9000000004,405851.4000000004,400611.151,400617.5999999996,400627.839,405860.869,8,400,50,,ISIC_7477006.JPG
break,html.Screen,4_99_1,2023-11-06T15:31:27.756Z,,0,,,9999.488000000012,timeout,,,,,false,,,,415844.7999999998,415843.691,405844.204,405852.2000000002,405860.869,415860.357,8,400,,,
break_continue,html.Screen,4_99_2,2023-11-06T15:32:47.737Z,,0,,,79902.74299999961,response,,,,,false,continue,keypress(Space),,495825.4000000004,495763.0999999996,415843.691,415845.0999999996,415860.357,495837.244,8,400,,,
sequence,flow.Sequence,4_99,2023-11-06T15:32:47.737Z,,0,,,95135.26099999965,completion,,,,,false,,,,495825.7000000002,495763.0999999996,400611.151,400617.5999999996,400627.839,495837.244,8,400,,,
trial,html.Screen,4_100_0,2023-11-06T15:32:50.397Z,,0,3,,2648.3559999996214,response,ISIC_5982769.JPG,5,ISIC_0032975.JPG,ISIC_5982769.JPG,false,1,keypress(m),500,498485.9000000004,498485.5999999996,495820.579,495825.7999999998,495837.244,498489.242,8,400,1,,ISIC_0032975.JPG
break,html.Screen,4_100_1,2023-11-06T15:32:50.399Z,,0,,,NaN,,,,,,false,,,,498487.5,498487,,498486.2999999998,,498489.242,8,400,,,
break_continue,html.Screen,4_100_2,2023-11-06T15:32:50.400Z,,0,,,NaN,,,,,,false,,,,498488.4000000004,498488.0999999996,,498487.7999999998,,498489.242,8,400,,,
sequence,flow.Sequence,4_100,2023-11-06T15:32:50.400Z,,0,,,2650.8559999996214,completion,,,,,false,,,,498488.7000000002,498488.0999999996,495820.579,495825.7000000002,495837.244,498489.242,8,400,,,
trial,html.Screen,4_101_0,2023-11-06T15:32:53.049Z,,0,3,,2648.5579999997863,response,ISIC_6268546.JPG,5,ISIC_7903838.JPG,ISIC_6268546.JPG,false,1,keypress(m),500,501138.2000000002,501137.7999999998,498472.577,498489,498489.242,501155.789,8,400,2,,ISIC_7903838.JPG
break,html.Screen,4_101_1,2023-11-06T15:32:53.051Z,,0,,,NaN,,,,,,false,,,,501139.7000000002,501139.2000000002,,501138.5999999996,,501155.789,8,400,,,
break_continue,html.Screen,4_101_2,2023-11-06T15:32:53.052Z,,0,,,NaN,,,,,,false,,,,501140.7000000002,501140.4000000004,,501140,,501155.789,8,400,,,
sequence,flow.Sequence,4_101,2023-11-06T15:32:53.052Z,,0,,,2651.158000000345,completion,,,,,false,,,,501140.9000000004,501140.4000000004,498472.577,498488.9000000004,498489.242,501155.789,8,400,,,
trial,html.Screen,4_102_0,2023-11-06T15:32:55.590Z,,0,3,,2522.7110000000102,response,ISIC_0027669.JPG,5,ISIC_6785680.JPG,ISIC_6785680.JPG,false,0,keypress(z),500,503678.9000000004,503678.5,501139.1,501141.2000000002,501155.789,503688.963,8,400,3,,ISIC_0027669.JPG
break,html.Screen,4_102_1,2023-11-06T15:32:55.592Z,,0,,,NaN,,,,,,false,,,,503680.4000000004,503679.7999999998,,503679.2000000002,,503688.963,8,400,,,
break_continue,html.Screen,4_102_2,2023-11-06T15:32:55.592Z,,0,,,NaN,,,,,,false,,,,503681.2000000002,503680.9000000004,,503680.5999999996,,503688.963,8,400,,,
sequence,flow.Sequence,4_102,2023-11-06T15:32:55.593Z,,0,,,2525.111000000383,completion,,,,,false,,,,503681.5,503680.9000000004,501139.1,501141.0999999996,501155.789,503688.963,8,400,,,
trial,html.Screen,4_103_0,2023-11-06T15:32:59.070Z,,0,3,,3469.336999999825,response,ISIC_0011350.JPG,5,ISIC_0062468.JPG,ISIC_0011350.JPG,false,1,keypress(m),500,507158.7000000002,507158.2999999998,503672.298,503681.7999999998,503688.963,507172.133,8,400,4,,ISIC_0062468.JPG
break,html.Screen,4_103_1,2023-11-06T15:32:59.072Z,,0,,,NaN,,,,,,false,,,,507160.2000000002,507159.5999999996,,507159.0999999996,,507172.133,8,400,,,
break_continue,html.Screen,4_103_2,2023-11-06T15:32:59.072Z,,0,,,NaN,,,,,,false,,,,507161,507160.7999999998,,507160.5999999996,,507172.133,8,400,,,
sequence,flow.Sequence,4_103,2023-11-06T15:32:59.073Z,,0,,,3471.836999999825,completion,,,,,false,,,,507161.4000000004,507160.7999999998,503672.298,503681.7000000002,503688.963,507172.133,8,400,,,
trial,html.Screen,4_104_0,2023-11-06T15:33:02.167Z,,0,3,,3083.3670000000275,response,ISIC_1930598.JPG,4,ISIC_0070215.JPG,ISIC_1930598.JPG,false,1,keypress(m),500,510256,510255.5,507155.445,507161.5,507172.133,510271.967,8,400,5,,ISIC_0070215.JPG
break,html.Screen,4_104_1,2023-11-06T15:33:02.169Z,,0,,,NaN,,,,,,false,,,,510257.5,510256.9000000004,,510256.2999999998,,510271.967,8,400,,,
break_continue,html.Screen,4_104_2,2023-11-06T15:33:02.170Z,,0,,,NaN,,,,,,false,,,,510258.4000000004,510258.0999999996,,510257.7999999998,,510271.967,8,400,,,
sequence,flow.Sequence,4_104,2023-11-06T15:33:02.170Z,,0,,,3085.966999999655,completion,,,,,false,,,,510258.5999999996,510258.0999999996,507155.445,507161.5,507172.133,510271.967,8,400,,,
trial,html.Screen,4_105_0,2023-11-06T15:33:04.720Z,,0,3,,2536.6329999996233,response,ISIC_0025145.JPG,5,ISIC_8147542.JPG,ISIC_8147542.JPG,false,0,keypress(z),500,512809.2000000002,512808.5999999996,510255.279,510258.9000000004,510271.967,512821.807,8,400,6,,ISIC_0025145.JPG
break,html.Screen,4_105_1,2023-11-06T15:33:04.722Z,,0,,,NaN,,,,,,false,,,,512810.7999999998,512810.2000000002,,512809.5999999996,,512821.807,8,400,,,
break_continue,html.Screen,4_105_2,2023-11-06T15:33:04.723Z,,0,,,NaN,,,,,,false,,,,512811.7000000002,512811.4000000004,,512811.0999999996,,512821.807,8,400,,,
sequence,flow.Sequence,4_105,2023-11-06T15:33:04.723Z,,0,,,2539.4330000003683,completion,,,,,false,,,,512812,512811.4000000004,510255.279,510258.9000000004,510271.967,512821.807,8,400,,,
trial,html.Screen,4_106_0,2023-11-06T15:33:07.148Z,,0,3,,2414.093000000401,response,ISIC_0000398.JPG,4,ISIC_0029296.JPG,ISIC_0029296.JPG,false,0,keypress(z),500,515236.2999999998,515235.9000000004,512805.142,512812.2000000002,512821.807,515238.345,8,400,7,,ISIC_0000398.JPG
break,html.Screen,4_106_1,2023-11-06T15:33:07.149Z,,0,,,NaN,,,,,,false,,,,515237.7999999998,515237.2999999998,,515236.7000000002,,515238.345,8,400,,,
break_continue,html.Screen,4_106_2,2023-11-06T15:33:07.150Z,,0,,,NaN,,,,,,false,,,,515238.7999999998,515238.5,,515238.2000000002,,515238.345,8,400,,,
sequence,flow.Sequence,4_106,2023-11-06T15:33:07.151Z,,0,,,2416.6930000000284,completion,,,,,false,,,,515239.2999999998,515238.5,512805.142,512812.2000000002,512821.807,515238.345,8,400,,,
trial,html.Screen,4_107_0,2023-11-06T15:33:09.797Z,,0,3,,2646.855000000214,response,ISIC_0711360.JPG,5,ISIC_0068560.JPG,ISIC_0711360.JPG,false,1,keypress(m),500,517885.5999999996,517885.2000000002,515221.68,515239.5,515238.345,517888.203,8,400,8,,ISIC_0068560.JPG
break,html.Screen,4_107_1,2023-11-06T15:33:09.798Z,,0,,,NaN,,,,,,false,,,,517887,517886.5999999996,,517885.9000000004,,517888.203,8,400,,,
break_continue,html.Screen,4_107_2,2023-11-06T15:33:09.799Z,,0,,,NaN,,,,,,false,,,,517887.9000000004,517887.5,,517887.2999999998,,517888.203,8,400,,,
sequence,flow.Sequence,4_107,2023-11-06T15:33:09.799Z,,0,,,2649.155000000028,completion,,,,,false,,,,517888.2000000002,517887.5,515221.68,515239.5,515238.345,517888.203,8,400,,,
trial,html.Screen,4_108_0,2023-11-06T15:33:12.314Z,,0,3,,2514.197000000393,response,ISIC_0068176.JPG,5,ISIC_7956417.JPG,ISIC_7956417.JPG,false,0,keypress(z),500,520402.7999999998,520402.4000000004,517871.538,517888.4000000004,517888.203,520404.735,8,400,9,,ISIC_0068176.JPG
break,html.Screen,4_108_1,2023-11-06T15:33:12.316Z,,0,,,NaN,,,,,,false,,,,520404.2999999998,520403.7999999998,,520403.2000000002,,520404.735,8,400,,,
break_continue,html.Screen,4_108_2,2023-11-06T15:33:12.317Z,,0,,,NaN,,,,,,false,,,,520405.4000000004,520405,,520404.5999999996,,520404.735,8,400,,,
sequence,flow.Sequence,4_108,2023-11-06T15:33:12.317Z,,0,,,2516.7970000000205,completion,,,,,false,,,,520405.9000000004,520405,517871.538,517888.2999999998,517888.203,520404.735,8,400,,,
trial,html.Screen,4_109_0,2023-11-06T15:33:15.012Z,,0,3,,2695.765000000014,response,ISIC_6023504.JPG,5,ISIC_7045042.JPG,ISIC_6023504.JPG,false,1,keypress(m),500,523100.9000000004,523100.5,520388.07,520406.0999999996,520404.735,523104.591,8,400,10,,ISIC_7045042.JPG
break,html.Screen,4_109_1,2023-11-06T15:33:15.014Z,,0,,,NaN,,,,,,false,,,,523102.2999999998,523101.7999999998,,523101.2999999998,,523104.591,8,400,,,
break_continue,html.Screen,4_109_2,2023-11-06T15:33:15.015Z,,0,,,NaN,,,,,,false,,,,523103.2000000002,523102.9000000004,,523102.7000000002,,523104.591,8,400,,,
sequence,flow.Sequence,4_109,2023-11-06T15:33:15.015Z,,0,,,2698.1650000003865,completion,,,,,false,,,,523103.5999999996,523102.9000000004,520388.07,520406,520404.735,523104.591,8,400,,,
trial,html.Screen,4_110_0,2023-11-06T15:33:17.578Z,,0,3,,2561.408999999985,response,ISIC_2008230.JPG,5,ISIC_0033427.JPG,ISIC_2008230.JPG,false,1,keypress(m),500,525666.4000000004,525666,523087.926,523103.7999999998,523104.591,525671.12,8,400,11,,ISIC_0033427.JPG
break,html.Screen,4_110_1,2023-11-06T15:33:17.579Z,,0,,,NaN,,,,,,false,,,,525668.0999999996,525667.5,,525666.7000000002,,525671.12,8,400,,,
break_continue,html.Screen,4_110_2,2023-11-06T15:33:17.580Z,,0,,,NaN,,,,,,false,,,,525668.9000000004,525668.7000000002,,525668.2999999998,,525671.12,8,400,,,
sequence,flow.Sequence,4_110,2023-11-06T15:33:17.581Z,,0,,,2564.1090000001714,completion,,,,,false,,,,525669.2999999998,525668.7000000002,523087.926,523103.7000000002,523104.591,525671.12,8,400,,,
trial,html.Screen,4_111_0,2023-11-06T15:33:20.229Z,,0,3,,2646.479999999632,response,ISIC_0834745.JPG,4,ISIC_0033044.JPG,ISIC_0033044.JPG,false,0,keypress(z),500,528318.0999999996,528317.5999999996,525654.455,525669.5999999996,525671.12,528320.978,8,400,12,,ISIC_0834745.JPG
break,html.Screen,4_111_1,2023-11-06T15:33:20.231Z,,0,,,NaN,,,,,,false,,,,528319.5,528319.0999999996,,528318.4000000004,,528320.978,8,400,,,
break_continue,html.Screen,4_111_2,2023-11-06T15:33:20.232Z,,0,,,NaN,,,,,,false,,,,528320.5,528320.2000000002,,528319.9000000004,,528320.978,8,400,,,
sequence,flow.Sequence,4_111,2023-11-06T15:33:20.232Z,,0,,,2649.080000000191,completion,,,,,false,,,,528320.7000000002,528320.2000000002,525654.455,525669.5999999996,525671.12,528320.978,8,400,,,
trial,html.Screen,4_112_0,2023-11-06T15:33:22.843Z,,0,3,,2610.2220000001835,response,ISIC_7144739.JPG,4,ISIC_0032134.JPG,ISIC_7144739.JPG,false,1,keypress(m),500,530931.5999999996,530931.2000000002,528304.313,528321.0999999996,528320.978,530937.505,8,400,13,,ISIC_0032134.JPG
break,html.Screen,4_112_1,2023-11-06T15:33:22.844Z,,0,,,NaN,,,,,,false,,,,530933.2999999998,530932.7000000002,,530932,,530937.505,8,400,,,
break_continue,html.Screen,4_112_2,2023-11-06T15:33:22.845Z,,0,,,NaN,,,,,,false,,,,530934,530933.7999999998,,530933.5,,530937.505,8,400,,,
sequence,flow.Sequence,4_112,2023-11-06T15:33:22.846Z,,0,,,2612.821999999811,completion,,,,,false,,,,530934.2999999998,530933.7999999998,528304.313,528320.9000000004,528320.978,530937.505,8,400,,,
trial,html.Screen,4_113_0,2023-11-06T15:33:25.287Z,,0,3,,2437.395000000368,response,ISIC_0066001.JPG,4,ISIC_0057496.JPG,ISIC_0066001.JPG,false,1,keypress(m),500,533375.2999999998,533374.9000000004,530920.84,530934.5999999996,530937.505,533387.395,8,400,14,,ISIC_0057496.JPG
break,html.Screen,4_113_1,2023-11-06T15:33:25.288Z,,0,,,NaN,,,,,,false,,,,533376.7999999998,533376.2999999998,,533375.5999999996,,533387.395,8,400,,,
break_continue,html.Screen,4_113_2,2023-11-06T15:33:25.289Z,,0,,,NaN,,,,,,false,,,,533377.7999999998,533377.5,,533377.0999999996,,533387.395,8,400,,,
sequence,flow.Sequence,4_113,2023-11-06T15:33:25.289Z,,0,,,2439.9949999999953,completion,,,,,false,,,,533378,533377.5,530920.84,530934.5,530937.505,533387.395,8,400,,,
trial,html.Screen,4_114_0,2023-11-06T15:33:27.884Z,,0,3,,2584.6049999999814,response,ISIC_0028239.JPG,5,ISIC_0024355.JPG,ISIC_0028239.JPG,false,1,keypress(m),500,535972.4000000004,535972,533370.707,533378.2000000002,533387.395,535987.256,8,400,15,,ISIC_0024355.JPG
break,html.Screen,4_114_1,2023-11-06T15:33:27.885Z,,0,,,NaN,,,,,,false,,,,535973.9000000004,535973.4000000004,,535972.7000000002,,535987.256,8,400,,,
break_continue,html.Screen,4_114_2,2023-11-06T15:33:27.886Z,,0,,,NaN,,,,,,false,,,,535974.7999999998,535974.5,,535974.2000000002,,535987.256,8,400,,,
sequence,flow.Sequence,4_114,2023-11-06T15:33:27.886Z,,0,,,2587.1049999999814,completion,,,,,false,,,,535975.2999999998,535974.5,533370.707,533378.2000000002,533387.395,535987.256,8,400,,,
trial,html.Screen,4_115_0,2023-11-06T15:33:30.913Z,,0,3,,3014.5439999997616,response,ISIC_1654342.JPG,5,ISIC_0011645.JPG,ISIC_0011645.JPG,false,0,keypress(z),500,539002.2000000002,539001.7999999998,535970.568,535975.4000000004,535987.256,539003.739,8,400,16,,ISIC_1654342.JPG
break,html.Screen,4_115_1,2023-11-06T15:33:30.915Z,,0,,,NaN,,,,,,false,,,,539003.9000000004,539003.4000000004,,539002.5,,539003.739,8,400,,,
break_continue,html.Screen,4_115_2,2023-11-06T15:33:30.916Z,,0,,,NaN,,,,,,false,,,,539005,539004.7000000002,,539004.4000000004,,539003.739,8,400,,,
sequence,flow.Sequence,4_115,2023-11-06T15:33:30.917Z,,0,,,3017.444000000134,completion,,,,,false,,,,539005.4000000004,539004.7000000002,535970.568,535975.2999999998,535987.256,539003.739,8,400,,,
trial,html.Screen,4_116_0,2023-11-06T15:33:33.655Z,,0,3,,2739.3609999996843,response,ISIC_5039895.JPG,5,ISIC_9568138.JPG,ISIC_5039895.JPG,false,1,keypress(m),500,541743.5,541743.0999999996,538987.074,539005.5,539003.739,541753.591,8,400,17,,ISIC_9568138.JPG
break,html.Screen,4_116_1,2023-11-06T15:33:33.656Z,,0,,,NaN,,,,,,false,,,,541745,541744.4000000004,,541743.7000000002,,541753.591,8,400,,,
break_continue,html.Screen,4_116_2,2023-11-06T15:33:33.657Z,,0,,,NaN,,,,,,false,,,,541745.7999999998,541745.5,,541745.2000000002,,541753.591,8,400,,,
sequence,flow.Sequence,4_116,2023-11-06T15:33:33.657Z,,0,,,2741.761000000057,completion,,,,,false,,,,541746.0999999996,541745.5,538987.074,539005.5,539003.739,541753.591,8,400,,,
trial,html.Screen,4_117_0,2023-11-06T15:33:36.496Z,,0,3,,2831.1090000001714,response,ISIC_7536704.JPG,4,ISIC_9375324.JPG,ISIC_9375324.JPG,false,0,keypress(z),500,544585.2000000002,544584.7000000002,541736.926,541746.4000000004,541753.591,544586.773,8,400,18,,ISIC_7536704.JPG
break,html.Screen,4_117_1,2023-11-06T15:33:36.498Z,,0,,,NaN,,,,,,false,,,,544587.2000000002,544586.2999999998,,544585.7000000002,,544586.773,8,400,,,
break_continue,html.Screen,4_117_2,2023-11-06T15:33:36.499Z,,0,,,NaN,,,,,,false,,,,544588,544587.7000000002,,544587.5,,544586.773,8,400,,,
sequence,flow.Sequence,4_117,2023-11-06T15:33:36.500Z,,0,,,2834.1090000001714,completion,,,,,false,,,,544588.4000000004,544587.7000000002,541736.926,541746.2999999998,541753.591,544586.773,8,400,,,
trial,html.Screen,4_118_0,2023-11-06T15:33:39.179Z,,0,3,,2680.9270000001416,response,ISIC_0011493.JPG,5,ISIC_3564136.JPG,ISIC_3564136.JPG,false,0,keypress(z),500,547268.0999999996,547267.7000000002,544570.108,544588.5999999996,544586.773,547269.963,8,400,19,,ISIC_0011493.JPG
break,html.Screen,4_118_1,2023-11-06T15:33:39.181Z,,0,,,NaN,,,,,,false,,,,547269.7000000002,547269.2999999998,,547268.5,,547269.963,8,400,,,
break_continue,html.Screen,4_118_2,2023-11-06T15:33:39.182Z,,0,,,NaN,,,,,,false,,,,547270.9000000004,547270.5999999996,,547270.0999999996,,547269.963,8,400,,,
sequence,flow.Sequence,4_118,2023-11-06T15:33:39.183Z,,0,,,2683.8269999995828,completion,,,,,false,,,,547271.2999999998,547270.5999999996,544570.108,544588.5999999996,544586.773,547269.963,8,400,,,
trial,html.Screen,4_119_0,2023-11-06T15:33:42.313Z,,0,3,,3130.9370000003837,response,ISIC_3234816.JPG,4,ISIC_2214766.JPG,ISIC_2214766.JPG,false,0,keypress(z),500,550401.2999999998,550400.9000000004,547253.298,547271.5999999996,547269.963,550403.129,8,400,20,,ISIC_3234816.JPG
break,html.Screen,4_119_1,2023-11-06T15:33:42.314Z,,0,,,NaN,,,,,,false,,,,550403,550402.5999999996,,550401.7000000002,,550403.129,8,400,,,
break_continue,html.Screen,4_119_2,2023-11-06T15:33:42.315Z,,0,,,NaN,,,,,,false,,,,550404.0999999996,550403.7999999998,,550403.4000000004,,550403.129,8,400,,,
sequence,flow.Sequence,4_119,2023-11-06T15:33:42.316Z,,0,,,3133.836999999825,completion,,,,,false,,,,550404.4000000004,550403.7999999998,547253.298,547271.5999999996,547269.963,550403.129,8,400,,,
trial,html.Screen,4_120_0,2023-11-06T15:33:45.269Z,,0,3,,2954.1709999998566,response,ISIC_3633306.JPG,5,ISIC_0061334.JPG,ISIC_0061334.JPG,false,0,keypress(z),500,553357.7000000002,553357.2999999998,550386.464,550404.5999999996,550403.129,553369.636,8,400,21,,ISIC_3633306.JPG
break,html.Screen,4_120_1,2023-11-06T15:33:45.271Z,,0,,,NaN,,,,,,false,,,,553359.2999999998,553358.7000000002,,553358,,553369.636,8,400,,,
break_continue,html.Screen,4_120_2,2023-11-06T15:33:45.271Z,,0,,,NaN,,,,,,false,,,,553360.2000000002,553359.7999999998,,553359.5,,553369.636,8,400,,,
sequence,flow.Sequence,4_120,2023-11-06T15:33:45.272Z,,0,,,2956.6709999998566,completion,,,,,false,,,,553360.5,553359.7999999998,550386.464,550404.5999999996,550403.129,553369.636,8,400,,,
trial,html.Screen,4_121_0,2023-11-06T15:33:48.907Z,,0,3,,3625.4639999995707,response,ISIC_7450481.JPG,5,ISIC_2122488.JPG,ISIC_2122488.JPG,false,0,keypress(z),500,556995.5,556995.0999999996,553352.971,553360.7999999998,553369.636,557002.774,8,400,22,,ISIC_7450481.JPG
break,html.Screen,4_121_1,2023-11-06T15:33:48.908Z,,0,,,NaN,,,,,,false,,,,556996.9000000004,556996.4000000004,,556995.9000000004,,557002.774,8,400,,,
break_continue,html.Screen,4_121_2,2023-11-06T15:33:48.909Z,,0,,,NaN,,,,,,false,,,,556997.9000000004,556997.5999999996,,556997.2999999998,,557002.774,8,400,,,
sequence,flow.Sequence,4_121,2023-11-06T15:33:48.910Z,,0,,,3627.9639999995707,completion,,,,,false,,,,556998.4000000004,556997.5999999996,553352.971,553360.7999999998,553369.636,557002.774,8,400,,,
trial,html.Screen,4_122_0,2023-11-06T15:33:52.068Z,,0,3,,3153.4260000002105,response,ISIC_0031170.JPG,4,ISIC_2867416.JPG,ISIC_2867416.JPG,false,0,keypress(z),500,560156.5999999996,560156.2000000002,556986.109,556998.5999999996,557002.774,560169.271,8,400,23,,ISIC_0031170.JPG
break,html.Screen,4_122_1,2023-11-06T15:33:52.070Z,,0,,,NaN,,,,,,false,,,,560158.2999999998,560157.7000000002,,560157,,560169.271,8,400,,,
break_continue,html.Screen,4_122_2,2023-11-06T15:33:52.071Z,,0,,,NaN,,,,,,false,,,,560159.5999999996,560159.0999999996,,560158.7000000002,,560169.271,8,400,,,
sequence,flow.Sequence,4_122,2023-11-06T15:33:52.071Z,,0,,,3156.3259999996517,completion,,,,,false,,,,560160.2999999998,560159.0999999996,556986.109,556998.5,557002.774,560169.271,8,400,,,
trial,html.Screen,4_123_0,2023-11-06T15:33:55.498Z,,0,3,,3417.129000000423,response,ISIC_0064563.JPG,5,ISIC_0014325.JPG,ISIC_0014325.JPG,false,0,keypress(z),500,563586.7999999998,563586.4000000004,560152.606,560160.5,560169.271,563602.444,8,400,24,,ISIC_0064563.JPG
break,html.Screen,4_123_1,2023-11-06T15:33:55.500Z,,0,,,NaN,,,,,,false,,,,563588.4000000004,563587.9000000004,,563587.2000000002,,563602.444,8,400,,,
break_continue,html.Screen,4_123_2,2023-11-06T15:33:55.501Z,,0,,,NaN,,,,,,false,,,,563589.7999999998,563589.2000000002,,563588.9000000004,,563602.444,8,400,,,
sequence,flow.Sequence,4_123,2023-11-06T15:33:55.502Z,,0,,,3419.9290000002366,completion,,,,,false,,,,563590.5999999996,563589.2000000002,560152.606,560160.5,560169.271,563602.444,8,400,,,
trial,html.Screen,4_124_0,2023-11-06T15:33:58.865Z,,0,3,,3350.456000000355,response,ISIC_0032341.JPG,5,ISIC_9300579.JPG,ISIC_9300579.JPG,false,0,keypress(z),500,566953.2999999998,566952.9000000004,563585.756,563590.9000000004,563602.444,566968.93,8,400,25,,ISIC_0032341.JPG
break,html.Screen,4_124_1,2023-11-06T15:33:58.866Z,,0,,,NaN,,,,,,false,,,,566954.9000000004,566954.4000000004,,566953.5999999996,,566968.93,8,400,,,
break_continue,html.Screen,4_124_2,2023-11-06T15:33:58.867Z,,0,,,NaN,,,,,,false,,,,566955.9000000004,566955.2999999998,,566955.0999999996,,566968.93,8,400,,,
sequence,flow.Sequence,4_124,2023-11-06T15:33:58.868Z,,0,,,3352.855999999796,completion,,,,,false,,,,566956.7000000002,566955.2999999998,563585.756,563590.7000000002,563602.444,566968.93,8,400,,,
trial,html.Screen,4_125_0,2023-11-06T15:34:01.612Z,,0,3,,2731.569999999949,response,ISIC_7412559.JPG,4,ISIC_0063447.JPG,ISIC_7412559.JPG,false,1,keypress(m),500,569700.9000000004,569700.5,566952.242,566957.0999999996,566968.93,569718.783,8,400,26,,ISIC_0063447.JPG
break,html.Screen,4_125_1,2023-11-06T15:34:01.614Z,,0,,,NaN,,,,,,false,,,,569702.4000000004,569701.9000000004,,569701.2999999998,,569718.783,8,400,,,
break_continue,html.Screen,4_125_2,2023-11-06T15:34:01.615Z,,0,,,NaN,,,,,,false,,,,569703.4000000004,569703.0999999996,,569702.7000000002,,569718.783,8,400,,,
sequence,flow.Sequence,4_125,2023-11-06T15:34:01.615Z,,0,,,2734.1699999995762,completion,,,,,false,,,,569703.9000000004,569703.0999999996,566952.242,566957,566968.93,569718.783,8,400,,,
