sender,sender_type,sender_id,timestamp,meta,,blockNo,condition,duration,ended_on,img_left,img_reveal,img_right,loser,practice,response,response_action,selection_duration,time_commit,time_end,time_render,time_run,time_show,time_switch,total_blocks,total_trials,trialNo,url,winner
informed_consent,html.Screen,0,2023-05-02T16:49:17.337Z,"{""labjs_version"":""20.2.4"",""labjs_build"":{""flavor"":""production"",""commit"":""f5b4a49f956347addd546a832a3327688c2c0fef""},""location"":""https://run.pavlovia.org/MurrayBennett/melanoma-2afc/?participant=65174"",""userAgent"":""Mozilla/5.0 (Macintosh; Intel Mac OS X 10_15_7) AppleWebKit/537.36 (KHTML, like Gecko) Chrome/107.0.0.0 Safari/537.36"",""platform"":""MacIntel"",""language"":""en-US"",""locale"":""en-US"",""timeZone"":""America/Chicago"",""timezoneOffset"":300,""screen_width"":1440,""screen_height"":900,""scroll_width"":1440,""scroll_height"":721,""window_innerWidth"":1440,""window_innerHeight"":769,""devicePixelRatio"":2}",,,,18527.127999994038,response,,,,,,consent,click button,,20391.29999999702,20367.09999999404,1473.32,1839,1839.972,20423.086,,,,"{""participant"":""65174""}",
Welcome,html.Screen,1,2023-05-02T16:50:14.830Z,,,,irregular,57435.614000002985,response,,,,,,continue,click button,,77884.70000000298,77858.70000000298,20389.754,20391.79999999702,20423.086,77889.057,,,,,
trial,html.Screen,2_0_0,2023-05-02T16:50:20.661Z,,0,0,,5825.542999994039,response,ISIC_0061792.JPG,,ISIC_4679428.JPG,ISIC_4679428.JPG,true,0,keypress(z),500,83715.09999999404,83714.59999999404,77872.391,77885,77889.057,83722.157,1,6,1,,ISIC_0061792.JPG
sequence,flow.Sequence,2_0,2023-05-02T16:50:20.661Z,,0,,,5825.542999994039,completion,,,,,true,,,,83715.59999999404,83714.59999999404,77872.391,77885,77889.057,83722.157,1,6,,,
trial,html.Screen,2_1_0,2023-05-02T16:50:26.333Z,,0,0,,5665.242999991053,response,ISIC_0776486.JPG,,ISIC_5199497.JPG,ISIC_0776486.JPG,true,1,keypress(m),500,89387.79999999702,89387.39999999106,83705.491,83715.79999999702,83722.157,89405.535,1,6,2,,ISIC_5199497.JPG
sequence,flow.Sequence,2_1,2023-05-02T16:50:26.334Z,,0,,,5665.242999991053,completion,,,,,true,,,,89388.20000000298,89387.39999999106,83705.491,83715.79999999702,83722.157,89405.535,1,6,,,
trial,html.Screen,2_2_0,2023-05-02T16:50:29.649Z,,0,0,,3297.2649999970163,response,ISIC_2556187.JPG,,ISIC_8575776.JPG,ISIC_8575776.JPG,true,0,keypress(z),500,92703.09999999404,92702.79999999702,89388.869,89388.5,89405.535,92705.403,1,6,3,,ISIC_2556187.JPG
sequence,flow.Sequence,2_2,2023-05-02T16:50:29.649Z,,0,,,3297.2649999970163,completion,,,,,true,,,,92703.5,92702.79999999702,89388.869,89388.5,89405.535,92705.403,1,6,,,
trial,html.Screen,2_3_0,2023-05-02T16:50:34.330Z,,0,0,,4678.396999997014,response,ISIC_8141769.JPG,,ISIC_9238366.JPG,ISIC_9238366.JPG,true,0,keypress(z),500,97384.20000000298,97383.79999999702,92688.737,92703.79999999702,92705.403,97388.855,1,6,4,,ISIC_8141769.JPG
sequence,flow.Sequence,2_3,2023-05-02T16:50:34.330Z,,0,,,4678.396999997014,completion,,,,,true,,,,97384.59999999404,97383.79999999702,92688.737,92703.59999999404,92705.403,97388.855,1,6,,,
trial,html.Screen,2_4_0,2023-05-02T16:50:37.325Z,,0,0,,2990.645000000004,response,ISIC_8949026.JPG,,ISIC_9959593.JPG,ISIC_8949026.JPG,true,1,keypress(m),500,100379.79999999702,100379.5,97372.189,97384.89999999106,97388.855,100388.735,1,6,5,,ISIC_9959593.JPG
sequence,flow.Sequence,2_4,2023-05-02T16:50:37.326Z,,0,,,2990.645000000004,completion,,,,,true,,,,100380.29999999702,100379.5,97372.189,97384.89999999106,97388.855,100388.735,1,6,,,
trial,html.Screen,2_5_0,2023-05-02T16:50:40.341Z,,0,0,,3006.364999994039,response,ISIC_0010479.JPG,,ISIC_0460240.JPG,ISIC_0460240.JPG,true,0,keypress(z),500,103395.29999999702,103395.09999999404,100372.069,100380.59999999404,100388.735,103405.281,1,6,6,,ISIC_0010479.JPG
sequence,flow.Sequence,2_5,2023-05-02T16:50:40.341Z,,0,,,3006.364999994039,completion,,,,,true,,,,103395.59999999404,103395.09999999404,100372.069,100380.5,100388.735,103405.281,1,6,,,
loop,flow.Loop,2,2023-05-02T16:50:40.341Z,,,,,25506.04299999404,completion,,,,,true,,,,103395.89999999106,103395.09999999404,77872.391,77884.89999999106,77889.057,103405.281,1,6,,,
exp_instructions,html.Screen,3,2023-05-02T16:50:46.196Z,,,,,5838.018999997017,response,,,,,,continue,keypress(Space),,109250.29999999702,109243.29999999702,103388.615,103396,103405.281,109255.047,,,,,
trial,html.Screen,4_0_0,2023-05-02T16:50:49.064Z,,0,1,,2863.1530000029743,response,ISIC_5015378.JPG,,ISIC_0061418.JPG,ISIC_5015378.JPG,false,1,keypress(m),500,112118.59999999404,112118.20000000298,109238.381,109250.5,109255.047,112121.923,8,400,1,,ISIC_0061418.JPG
break,html.Screen,4_0_1,2023-05-02T16:50:49.065Z,,0,,,NaN,,,,,,false,,,,112119.70000000298,112119.39999999106,,112118.79999999702,,112121.923,8,400,,,
break_continue,html.Screen,4_0_2,2023-05-02T16:50:49.066Z,,0,,,NaN,,,,,,false,,,,112120.20000000298,112120,,112119.89999999106,,112121.923,8,400,,,
sequence,flow.Sequence,4_0,2023-05-02T16:50:49.066Z,,0,,,2864.952999999994,completion,,,,,false,,,,112120.5,112120,109238.381,109250.5,109255.047,112121.923,8,400,,,
trial,html.Screen,4_1_0,2023-05-02T16:50:52.547Z,,0,1,,3478.976999991064,response,ISIC_0000401.JPG,,ISIC_0027089.JPG,ISIC_0027089.JPG,false,0,keypress(z),500,115601.29999999702,115600.89999999106,112105.257,112120.59999999404,112121.923,115605.117,8,400,2,,ISIC_0000401.JPG
break,html.Screen,4_1_1,2023-05-02T16:50:52.548Z,,0,,,NaN,,,,,,false,,,,115602.20000000298,115601.89999999106,,115601.59999999404,,115605.117,8,400,,,
break_continue,html.Screen,4_1_2,2023-05-02T16:50:52.548Z,,0,,,NaN,,,,,,false,,,,115602.59999999404,115602.39999999106,,115602.29999999702,,115605.117,8,400,,,
sequence,flow.Sequence,4_1,2023-05-02T16:50:52.548Z,,0,,,3480.476999991064,completion,,,,,false,,,,115602.89999999106,115602.39999999106,112105.257,112120.59999999404,112121.923,115605.117,8,400,,,
trial,html.Screen,4_2_0,2023-05-02T16:50:57.565Z,,0,1,,5014.083000002982,response,ISIC_0062208.JPG,,ISIC_6661904.JPG,ISIC_0062208.JPG,false,1,keypress(m),500,120619.39999999106,120619.20000000298,115588.451,115603,115605.117,120621.867,8,400,3,,ISIC_6661904.JPG
break,html.Screen,4_2_1,2023-05-02T16:50:57.566Z,,0,,,NaN,,,,,,false,,,,120620.20000000298,120620,,120619.70000000298,,120621.867,8,400,,,
break_continue,html.Screen,4_2_2,2023-05-02T16:50:57.566Z,,0,,,NaN,,,,,,false,,,,120620.70000000298,120620.59999999404,,120620.39999999106,,120621.867,8,400,,,
sequence,flow.Sequence,4_2,2023-05-02T16:50:57.566Z,,0,,,5015.482999994041,completion,,,,,false,,,,120621,120620.59999999404,115588.451,115603,115605.117,120621.867,8,400,,,
trial,html.Screen,4_3_0,2023-05-02T16:51:00.770Z,,0,1,,3202.4329999970214,response,ISIC_6381197.JPG,,ISIC_0013096.JPG,ISIC_0013096.JPG,false,0,keypress(z),500,123824.59999999404,123824.29999999702,120605.201,120621.20000000298,120621.867,123838.405,8,400,4,,ISIC_6381197.JPG
break,html.Screen,4_3_1,2023-05-02T16:51:00.771Z,,0,,,NaN,,,,,,false,,,,123825.39999999106,123825.29999999702,,123824.89999999106,,123838.405,8,400,,,
break_continue,html.Screen,4_3_2,2023-05-02T16:51:00.771Z,,0,,,NaN,,,,,,false,,,,123825.89999999106,123825.79999999702,,123825.59999999404,,123838.405,8,400,,,
sequence,flow.Sequence,4_3,2023-05-02T16:51:00.772Z,,0,,,3203.9329999970214,completion,,,,,false,,,,123826.09999999404,123825.79999999702,120605.201,120621.09999999404,120621.867,123838.405,8,400,,,
trial,html.Screen,4_4_0,2023-05-02T16:51:05.323Z,,0,1,,4539.095000000001,response,ISIC_1132966.JPG,,ISIC_4174983.JPG,ISIC_1132966.JPG,false,1,keypress(m),500,128377.70000000298,128377.5,123821.739,123826.29999999702,123838.405,128388.223,8,400,5,,ISIC_4174983.JPG
break,html.Screen,4_4_1,2023-05-02T16:51:05.324Z,,0,,,NaN,,,,,,false,,,,128378.59999999404,128378.29999999702,,128378,,128388.223,8,400,,,
break_continue,html.Screen,4_4_2,2023-05-02T16:51:05.325Z,,0,,,NaN,,,,,,false,,,,128379,128378.89999999106,,128378.70000000298,,128388.223,8,400,,,
sequence,flow.Sequence,4_4,2023-05-02T16:51:05.325Z,,0,,,4540.4949999910605,completion,,,,,false,,,,128379.20000000298,128378.89999999106,123821.739,123826.20000000298,123838.405,128388.223,8,400,,,
trial,html.Screen,4_5_0,2023-05-02T16:51:09.577Z,,0,1,,4242.477000002982,response,ISIC_0010934.JPG,,ISIC_0011794.JPG,ISIC_0010934.JPG,false,1,keypress(m),500,132631,132630.70000000298,128371.557,128379.39999999106,128388.223,132638.367,8,400,6,,ISIC_0011794.JPG
break,html.Screen,4_5_1,2023-05-02T16:51:09.577Z,,0,,,NaN,,,,,,false,,,,132631.89999999106,132631.59999999404,,132631.20000000298,,132638.367,8,400,,,
break_continue,html.Screen,4_5_2,2023-05-02T16:51:09.578Z,,0,,,NaN,,,,,,false,,,,132632.29999999702,132632.20000000298,,132632,,132638.367,8,400,,,
sequence,flow.Sequence,4_5,2023-05-02T16:51:09.578Z,,0,,,4243.977000002982,completion,,,,,false,,,,132632.59999999404,132632.20000000298,128371.557,128379.39999999106,128388.223,132638.367,8,400,,,
trial,html.Screen,4_6_0,2023-05-02T16:51:13.708Z,,0,1,,4124.133000000002,response,ISIC_0011801.JPG,,ISIC_3916064.JPG,ISIC_3916064.JPG,false,0,keypress(z),500,136762.89999999106,136762.5,132621.701,132632.70000000298,132638.367,136771.535,8,400,7,,ISIC_0011801.JPG
break,html.Screen,4_6_1,2023-05-02T16:51:13.709Z,,0,,,NaN,,,,,,false,,,,136763.79999999702,136763.5,,136763.09999999404,,136771.535,8,400,,,
break_continue,html.Screen,4_6_2,2023-05-02T16:51:13.710Z,,0,,,NaN,,,,,,false,,,,136764.29999999702,136764,,136764,,136771.535,8,400,,,
sequence,flow.Sequence,4_6,2023-05-02T16:51:13.710Z,,0,,,4125.633000000002,completion,,,,,false,,,,136764.5,136764,132621.701,132632.70000000298,132638.367,136771.535,8,400,,,
trial,html.Screen,4_7_0,2023-05-02T16:51:16.995Z,,0,1,,3277.2649999970163,response,ISIC_0012150.JPG,,ISIC_0025155.JPG,ISIC_0012150.JPG,false,1,keypress(m),500,140049.09999999404,140048.79999999702,136754.869,136764.59999999404,136771.535,140054.737,8,400,8,,ISIC_0025155.JPG
break,html.Screen,4_7_1,2023-05-02T16:51:16.996Z,,0,,,NaN,,,,,,false,,,,140050,140049.70000000298,,140049.39999999106,,140054.737,8,400,,,
break_continue,html.Screen,4_7_2,2023-05-02T16:51:16.996Z,,0,,,NaN,,,,,,false,,,,140050.5,140050.29999999702,,140050.20000000298,,140054.737,8,400,,,
sequence,flow.Sequence,4_7,2023-05-02T16:51:16.996Z,,0,,,3278.7649999970163,completion,,,,,false,,,,140050.59999999404,140050.29999999702,136754.869,136764.59999999404,136771.535,140054.737,8,400,,,
trial,html.Screen,4_8_0,2023-05-02T16:51:19.902Z,,0,1,,2901.362999994046,response,ISIC_0062575.JPG,,ISIC_0031425.JPG,ISIC_0031425.JPG,false,0,keypress(z),500,142956.5,142956.09999999404,140038.071,140050.79999999702,140054.737,142971.557,8,400,9,,ISIC_0062575.JPG
break,html.Screen,4_8_1,2023-05-02T16:51:19.903Z,,0,,,NaN,,,,,,false,,,,142957.29999999702,142957.09999999404,,142956.79999999702,,142971.557,8,400,,,
break_continue,html.Screen,4_8_2,2023-05-02T16:51:19.903Z,,0,,,NaN,,,,,,false,,,,142957.70000000298,142957.70000000298,,142957.5,,142971.557,8,400,,,
sequence,flow.Sequence,4_8,2023-05-02T16:51:19.903Z,,0,,,2902.9630000029865,completion,,,,,false,,,,142958,142957.70000000298,140038.071,140050.70000000298,140054.737,142971.557,8,400,,,
trial,html.Screen,4_9_0,2023-05-02T16:51:23.965Z,,0,1,,4047.742999997019,response,ISIC_1952599.JPG,,ISIC_0026081.JPG,ISIC_1952599.JPG,false,1,keypress(m),500,147019.59999999404,147019.29999999702,142954.891,142958.20000000298,142971.557,147021.395,8,400,10,,ISIC_0026081.JPG
break,html.Screen,4_9_1,2023-05-02T16:51:23.966Z,,0,,,NaN,,,,,,false,,,,147020.39999999106,147020.09999999404,,147019.89999999106,,147021.395,8,400,,,
break_continue,html.Screen,4_9_2,2023-05-02T16:51:23.966Z,,0,,,NaN,,,,,,false,,,,147020.79999999702,147020.70000000298,,147020.5,,147021.395,8,400,,,
sequence,flow.Sequence,4_9,2023-05-02T16:51:23.966Z,,0,,,4049.1430000029795,completion,,,,,false,,,,147020.89999999106,147020.70000000298,142954.891,142958.09999999404,142971.557,147021.395,8,400,,,
trial,html.Screen,4_10_0,2023-05-02T16:51:27.235Z,,0,1,,3267.4049999970302,response,ISIC_3429835.JPG,,ISIC_2797576.JPG,ISIC_3429835.JPG,false,1,keypress(m),500,150289.09999999404,150288.79999999702,147004.729,147021,147021.395,150304.597,8,400,11,,ISIC_2797576.JPG
break,html.Screen,4_10_1,2023-05-02T16:51:27.235Z,,0,,,NaN,,,,,,false,,,,150290,150289.70000000298,,150289.39999999106,,150304.597,8,400,,,
break_continue,html.Screen,4_10_2,2023-05-02T16:51:27.236Z,,0,,,NaN,,,,,,false,,,,150290.39999999106,150290.29999999702,,150290.09999999404,,150304.597,8,400,,,
sequence,flow.Sequence,4_10,2023-05-02T16:51:27.236Z,,0,,,3268.9049999970302,completion,,,,,false,,,,150290.59999999404,150290.29999999702,147004.729,147021,147021.395,150304.597,8,400,,,
trial,html.Screen,4_11_0,2023-05-02T16:51:31.144Z,,0,1,,3893.6030000029714,response,ISIC_6771810.JPG,,ISIC_0000304.JPG,ISIC_6771810.JPG,false,1,keypress(m),500,154198.5,154198.20000000298,150287.931,150290.79999999702,150304.597,154204.735,8,400,12,,ISIC_0000304.JPG
break,html.Screen,4_11_1,2023-05-02T16:51:31.145Z,,0,,,NaN,,,,,,false,,,,154199.29999999702,154199.09999999404,,154198.79999999702,,154204.735,8,400,,,
break_continue,html.Screen,4_11_2,2023-05-02T16:51:31.145Z,,0,,,NaN,,,,,,false,,,,154199.79999999702,154199.70000000298,,154199.5,,154204.735,8,400,,,
sequence,flow.Sequence,4_11,2023-05-02T16:51:31.145Z,,0,,,3895.1030000029714,completion,,,,,false,,,,154200,154199.70000000298,150287.931,150290.70000000298,150304.597,154204.735,8,400,,,
trial,html.Screen,4_12_0,2023-05-02T16:51:34.486Z,,0,1,,3335.8649999940535,response,ISIC_1956504.JPG,,ISIC_0010934.JPG,ISIC_1956504.JPG,false,1,keypress(m),500,157540.79999999702,157540.59999999404,154188.069,154200.20000000298,154204.735,157554.601,8,400,13,,ISIC_0010934.JPG
break,html.Screen,4_12_1,2023-05-02T16:51:34.487Z,,0,,,NaN,,,,,,false,,,,157541.70000000298,157541.5,,157541.09999999404,,157554.601,8,400,,,
break_continue,html.Screen,4_12_2,2023-05-02T16:51:34.488Z,,0,,,NaN,,,,,,false,,,,157542.09999999404,157542,,157541.89999999106,,157554.601,8,400,,,
sequence,flow.Sequence,4_12,2023-05-02T16:51:34.488Z,,0,,,3337.265000000014,completion,,,,,false,,,,157542.29999999702,157542,154188.069,154200.09999999404,154204.735,157554.601,8,400,,,
trial,html.Screen,4_13_0,2023-05-02T16:51:37.708Z,,0,1,,3207.399000000005,response,ISIC_0032181.JPG,,ISIC_0013165.JPG,ISIC_0013165.JPG,false,0,keypress(z),500,160762.29999999702,160762,157537.935,157542.5,157554.601,160771.139,8,400,14,,ISIC_0032181.JPG
break,html.Screen,4_13_1,2023-05-02T16:51:37.709Z,,0,,,NaN,,,,,,false,,,,160763.20000000298,160762.89999999106,,160762.5,,160771.139,8,400,,,
break_continue,html.Screen,4_13_2,2023-05-02T16:51:37.709Z,,0,,,NaN,,,,,,false,,,,160763.59999999404,160763.39999999106,,160763.39999999106,,160771.139,8,400,,,
sequence,flow.Sequence,4_13,2023-05-02T16:51:37.709Z,,0,,,3208.798999991064,completion,,,,,false,,,,160763.79999999702,160763.39999999106,157537.935,157542.5,157554.601,160771.139,8,400,,,
trial,html.Screen,4_14_0,2023-05-02T16:51:42.326Z,,0,1,,4608.760999991064,response,ISIC_7738955.JPG,,ISIC_0009971.JPG,ISIC_0009971.JPG,false,0,keypress(z),500,165380.20000000298,165379.89999999106,160754.473,160764,160771.139,165387.914,8,400,15,,ISIC_7738955.JPG
break,html.Screen,4_14_1,2023-05-02T16:51:42.327Z,,0,,,NaN,,,,,,false,,,,165381.09999999404,165380.79999999702,,165380.39999999106,,165387.914,8,400,,,
break_continue,html.Screen,4_14_2,2023-05-02T16:51:42.327Z,,0,,,NaN,,,,,,false,,,,165381.5,165381.29999999702,,165381.20000000298,,165387.914,8,400,,,
sequence,flow.Sequence,4_14,2023-05-02T16:51:42.327Z,,0,,,4610.160999997024,completion,,,,,false,,,,165381.70000000298,165381.29999999702,160754.473,160764,160771.139,165387.914,8,400,,,
trial,html.Screen,4_15_0,2023-05-02T16:51:45.884Z,,0,1,,3550.2860000029905,response,ISIC_2412888.JPG,,ISIC_3254309.JPG,ISIC_3254309.JPG,false,0,keypress(z),500,168938.5,168938.20000000298,165371.248,165381.89999999106,165387.914,168954.438,8,400,16,,ISIC_2412888.JPG
break,html.Screen,4_15_1,2023-05-02T16:51:45.885Z,,0,,,NaN,,,,,,false,,,,168939.39999999106,168939.09999999404,,168938.70000000298,,168954.438,8,400,,,
break_continue,html.Screen,4_15_2,2023-05-02T16:51:45.885Z,,0,,,NaN,,,,,,false,,,,168939.79999999702,168939.70000000298,,168939.5,,168954.438,8,400,,,
sequence,flow.Sequence,4_15,2023-05-02T16:51:45.886Z,,0,,,3551.7860000029905,completion,,,,,false,,,,168940.09999999404,168939.70000000298,165371.248,165381.89999999106,165387.914,168954.438,8,400,,,
trial,html.Screen,4_16_0,2023-05-02T16:51:50.287Z,,0,1,,4387.062000000005,response,ISIC_0068100.JPG,,ISIC_0015200.JPG,ISIC_0068100.JPG,false,1,keypress(m),500,173341.79999999702,173341.5,168937.772,168940.20000000298,168954.438,173354.262,8,400,17,,ISIC_0015200.JPG
break,html.Screen,4_16_1,2023-05-02T16:51:50.289Z,,0,,,NaN,,,,,,false,,,,173343,173342.79999999702,,173342.39999999106,,173354.262,8,400,,,
break_continue,html.Screen,4_16_2,2023-05-02T16:51:50.289Z,,0,,,NaN,,,,,,false,,,,173343.39999999106,173343.39999999106,,173343.20000000298,,173354.262,8,400,,,
sequence,flow.Sequence,4_16,2023-05-02T16:51:50.289Z,,0,,,4388.961999991065,completion,,,,,false,,,,173343.70000000298,173343.39999999106,168937.772,168940.20000000298,168954.438,173354.262,8,400,,,
trial,html.Screen,4_17_0,2023-05-02T16:51:53.686Z,,0,1,,3386.1379999910714,response,ISIC_9339756.JPG,,ISIC_0067969.JPG,ISIC_9339756.JPG,false,1,keypress(m),500,176740.70000000298,176740.39999999106,173337.596,173343.89999999106,173354.262,176754.423,8,400,18,,ISIC_0067969.JPG
break,html.Screen,4_17_1,2023-05-02T16:51:53.687Z,,0,,,NaN,,,,,,false,,,,176741.5,176741.29999999702,,176740.89999999106,,176754.423,8,400,,,
break_continue,html.Screen,4_17_2,2023-05-02T16:51:53.687Z,,0,,,NaN,,,,,,false,,,,176742,176741.89999999106,,176741.70000000298,,176754.423,8,400,,,
sequence,flow.Sequence,4_17,2023-05-02T16:51:53.688Z,,0,,,3387.6379999910714,completion,,,,,false,,,,176742.20000000298,176741.89999999106,173337.596,173343.89999999106,173354.262,176754.423,8,400,,,
trial,html.Screen,4_18_0,2023-05-02T16:51:57.260Z,,0,1,,3560.2770000029705,response,ISIC_3306135.JPG,,ISIC_0066626.JPG,ISIC_0066626.JPG,false,0,keypress(z),500,180315,180314.70000000298,176737.757,176742.39999999106,176754.423,180320.947,8,400,19,,ISIC_3306135.JPG
break,html.Screen,4_18_1,2023-05-02T16:51:57.261Z,,0,,,NaN,,,,,,false,,,,180315.89999999106,180315.70000000298,,180315.29999999702,,180320.947,8,400,,,
break_continue,html.Screen,4_18_2,2023-05-02T16:51:57.262Z,,0,,,NaN,,,,,,false,,,,180316.29999999702,180316.20000000298,,180316.09999999404,,180320.947,8,400,,,
sequence,flow.Sequence,4_18,2023-05-02T16:51:57.262Z,,0,,,3561.7770000029705,completion,,,,,false,,,,180316.5,180316.20000000298,176737.757,176742.29999999702,176754.423,180320.947,8,400,,,
trial,html.Screen,4_19_0,2023-05-02T16:52:00.468Z,,0,1,,3201.652999994054,response,ISIC_5316803.JPG,,ISIC_0046537.JPG,ISIC_0046537.JPG,false,0,keypress(z),500,183522.89999999106,183522.59999999404,180304.281,180316.70000000298,180320.947,183537.485,8,400,20,,ISIC_5316803.JPG
break,html.Screen,4_19_1,2023-05-02T16:52:00.469Z,,0,,,NaN,,,,,,false,,,,183523.70000000298,183523.39999999106,,183523.09999999404,,183537.485,8,400,,,
break_continue,html.Screen,4_19_2,2023-05-02T16:52:00.470Z,,0,,,NaN,,,,,,false,,,,183524.09999999404,183524,,183523.89999999106,,183537.485,8,400,,,
sequence,flow.Sequence,4_19,2023-05-02T16:52:00.470Z,,0,,,3203.0530000000144,completion,,,,,false,,,,183524.39999999106,183524,180304.281,180316.59999999404,180320.947,183537.485,8,400,,,
trial,html.Screen,4_20_0,2023-05-02T16:52:03.448Z,,0,1,,2964.3149999970337,response,ISIC_1048913.JPG,,ISIC_0026694.JPG,ISIC_1048913.JPG,false,1,keypress(m),500,186502.09999999404,186501.79999999702,183520.819,183524.5,183537.485,186504.033,8,400,21,,ISIC_0026694.JPG
break,html.Screen,4_20_1,2023-05-02T16:52:03.448Z,,0,,,NaN,,,,,,false,,,,186502.89999999106,186502.70000000298,,186502.29999999702,,186504.033,8,400,,,
break_continue,html.Screen,4_20_2,2023-05-02T16:52:03.449Z,,0,,,NaN,,,,,,false,,,,186503.39999999106,186503.20000000298,,186503.09999999404,,186504.033,8,400,,,
sequence,flow.Sequence,4_20,2023-05-02T16:52:03.449Z,,0,,,2965.715000002994,completion,,,,,false,,,,186503.59999999404,186503.20000000298,183520.819,183524.5,183537.485,186504.033,8,400,,,
trial,html.Screen,4_21_0,2023-05-02T16:52:07.192Z,,0,1,,3742.1670000029844,response,ISIC_1344537.JPG,,ISIC_1396767.JPG,ISIC_1396767.JPG,false,0,keypress(z),500,190246.5,190246.20000000298,186487.367,186503.70000000298,186504.033,190254.152,8,400,22,,ISIC_1344537.JPG
break,html.Screen,4_21_1,2023-05-02T16:52:07.193Z,,0,,,NaN,,,,,,false,,,,190247.29999999702,190247.09999999404,,190246.70000000298,,190254.152,8,400,,,
break_continue,html.Screen,4_21_2,2023-05-02T16:52:07.193Z,,0,,,NaN,,,,,,false,,,,190247.70000000298,190247.5,,190247.39999999106,,190254.152,8,400,,,
sequence,flow.Sequence,4_21,2023-05-02T16:52:07.193Z,,0,,,3743.467000000004,completion,,,,,false,,,,190247.89999999106,190247.5,186487.367,186503.70000000298,186504.033,190254.152,8,400,,,
trial,html.Screen,4_22_0,2023-05-02T16:52:11.859Z,,0,1,,4658.647999997018,response,ISIC_8759726.JPG,,ISIC_7145788.JPG,ISIC_8759726.JPG,false,1,keypress(m),500,194913,194912.79999999702,190237.486,190248.09999999404,190254.152,194920.632,8,400,23,,ISIC_7145788.JPG
break,html.Screen,4_22_1,2023-05-02T16:52:11.859Z,,0,,,NaN,,,,,,false,,,,194914,194913.70000000298,,194913.29999999702,,194920.632,8,400,,,
break_continue,html.Screen,4_22_2,2023-05-02T16:52:11.860Z,,0,,,NaN,,,,,,false,,,,194914.39999999106,194914.20000000298,,194914.09999999404,,194920.632,8,400,,,
sequence,flow.Sequence,4_22,2023-05-02T16:52:11.860Z,,0,,,4660.048000002978,completion,,,,,false,,,,194914.59999999404,194914.20000000298,190237.486,190248.09999999404,190254.152,194920.632,8,400,,,
trial,html.Screen,4_23_0,2023-05-02T16:52:15.069Z,,0,1,,3202.8679999999877,response,ISIC_0011177.JPG,,ISIC_0064318.JPG,ISIC_0011177.JPG,false,1,keypress(m),500,198123.70000000298,198123.5,194903.966,194914.70000000298,194920.632,198137.46,8,400,24,,ISIC_0064318.JPG
break,html.Screen,4_23_1,2023-05-02T16:52:15.070Z,,0,,,NaN,,,,,,false,,,,198124.59999999404,198124.39999999106,,198124.09999999404,,198137.46,8,400,,,
break_continue,html.Screen,4_23_2,2023-05-02T16:52:15.071Z,,0,,,NaN,,,,,,false,,,,198125,198124.89999999106,,198124.70000000298,,198137.46,8,400,,,
sequence,flow.Sequence,4_23,2023-05-02T16:52:15.071Z,,0,,,3204.267999991047,completion,,,,,false,,,,198125.20000000298,198124.89999999106,194903.966,194914.70000000298,194920.632,198137.46,8,400,,,
trial,html.Screen,4_24_0,2023-05-02T16:52:18.168Z,,0,1,,3084.6399999940477,response,ISIC_7198887.JPG,,ISIC_7129901.JPG,ISIC_7129901.JPG,false,0,keypress(z),500,201222.39999999106,201222.09999999404,198120.794,198125.39999999106,198137.46,201237.336,8,400,25,,ISIC_7198887.JPG
break,html.Screen,4_24_1,2023-05-02T16:52:18.169Z,,0,,,NaN,,,,,,false,,,,201223.29999999702,201223.09999999404,,201222.70000000298,,201237.336,8,400,,,
break_continue,html.Screen,4_24_2,2023-05-02T16:52:18.169Z,,0,,,NaN,,,,,,false,,,,201223.70000000298,201223.59999999404,,201223.39999999106,,201237.336,8,400,,,
sequence,flow.Sequence,4_24,2023-05-02T16:52:18.169Z,,0,,,3086.1399999940477,completion,,,,,false,,,,201224,201223.59999999404,198120.794,198125.39999999106,198137.46,201237.336,8,400,,,
trial,html.Screen,4_25_0,2023-05-02T16:52:22.224Z,,0,1,,4040.4639999970095,response,ISIC_5468164.JPG,,ISIC_0070822.JPG,ISIC_5468164.JPG,false,1,keypress(m),500,205278.09999999404,205277.79999999702,201220.67,201224.09999999404,201237.336,205287.174,8,400,26,,ISIC_0070822.JPG
break,html.Screen,4_25_1,2023-05-02T16:52:22.224Z,,0,,,NaN,,,,,,false,,,,205279,205278.79999999702,,205278.39999999106,,205287.174,8,400,,,
break_continue,html.Screen,4_25_2,2023-05-02T16:52:22.225Z,,0,,,NaN,,,,,,false,,,,205279.5,205279.29999999702,,205279.09999999404,,205287.174,8,400,,,
sequence,flow.Sequence,4_25,2023-05-02T16:52:22.225Z,,0,,,4041.9639999970095,completion,,,,,false,,,,205279.70000000298,205279.29999999702,201220.67,201224,201237.336,205287.174,8,400,,,
trial,html.Screen,4_26_0,2023-05-02T16:52:25.916Z,,0,1,,3682.7259999910602,response,ISIC_5746904.JPG,,ISIC_0027302.JPG,ISIC_5746904.JPG,false,1,keypress(m),500,208970.09999999404,208969.89999999106,205270.508,205279.79999999702,205287.174,208987.31,8,400,27,,ISIC_0027302.JPG
break,html.Screen,4_26_1,2023-05-02T16:52:25.917Z,,0,,,NaN,,,,,,false,,,,208971,208970.79999999702,,208970.39999999106,,208987.31,8,400,,,
break_continue,html.Screen,4_26_2,2023-05-02T16:52:25.917Z,,0,,,NaN,,,,,,false,,,,208971.5,208971.29999999702,,208971.09999999404,,208987.31,8,400,,,
sequence,flow.Sequence,4_26,2023-05-02T16:52:25.917Z,,0,,,3684.1259999970207,completion,,,,,false,,,,208971.79999999702,208971.29999999702,205270.508,205279.70000000298,205287.174,208987.31,8,400,,,
trial,html.Screen,4_27_0,2023-05-02T16:52:29.259Z,,0,1,,3325.8900000029826,response,ISIC_0011267.JPG,,ISIC_1002979.JPG,ISIC_0011267.JPG,false,1,keypress(m),500,212313.5,212313.20000000298,208970.644,208971.89999999106,208987.31,212320.51,8,400,28,,ISIC_1002979.JPG
break,html.Screen,4_27_1,2023-05-02T16:52:29.260Z,,0,,,NaN,,,,,,false,,,,212314.29999999702,212314.09999999404,,212313.70000000298,,212320.51,8,400,,,
break_continue,html.Screen,4_27_2,2023-05-02T16:52:29.260Z,,0,,,NaN,,,,,,false,,,,212314.70000000298,212314.59999999404,,212314.39999999106,,212320.51,8,400,,,
sequence,flow.Sequence,4_27,2023-05-02T16:52:29.260Z,,0,,,3327.289999994042,completion,,,,,false,,,,212315,212314.59999999404,208970.644,208971.89999999106,208987.31,212320.51,8,400,,,
trial,html.Screen,4_28_0,2023-05-02T16:52:32.854Z,,0,1,,3587.7899999970105,response,ISIC_4428769.JPG,,ISIC_9450906.JPG,ISIC_9450906.JPG,false,0,keypress(z),500,215908.59999999404,215908.29999999702,212303.844,212315.09999999404,212320.51,215920.366,8,400,29,,ISIC_4428769.JPG
break,html.Screen,4_28_1,2023-05-02T16:52:32.855Z,,0,,,NaN,,,,,,false,,,,215909.5,215909.20000000298,,215908.89999999106,,215920.366,8,400,,,
break_continue,html.Screen,4_28_2,2023-05-02T16:52:32.855Z,,0,,,NaN,,,,,,false,,,,215909.89999999106,215909.70000000298,,215909.59999999404,,215920.366,8,400,,,
sequence,flow.Sequence,4_28,2023-05-02T16:52:32.856Z,,0,,,3589.190000002971,completion,,,,,false,,,,215910.09999999404,215909.70000000298,212303.844,212315.09999999404,212320.51,215920.366,8,400,,,
trial,html.Screen,4_29_0,2023-05-02T16:52:36.927Z,,0,1,,4061.2339999940305,response,ISIC_8028631.JPG,,ISIC_1620401.JPG,ISIC_8028631.JPG,false,1,keypress(m),500,219981.79999999702,219981.59999999404,215903.7,215910.29999999702,215920.366,219987.158,8,400,30,,ISIC_1620401.JPG
break,html.Screen,4_29_1,2023-05-02T16:52:36.928Z,,0,,,NaN,,,,,,false,,,,219982.70000000298,219982.39999999106,,219982.09999999404,,219987.158,8,400,,,
break_continue,html.Screen,4_29_2,2023-05-02T16:52:36.929Z,,0,,,NaN,,,,,,false,,,,219983.20000000298,219983,,219982.89999999106,,219987.158,8,400,,,
sequence,flow.Sequence,4_29,2023-05-02T16:52:36.929Z,,0,,,4062.633999999991,completion,,,,,false,,,,219983.39999999106,219983,215903.7,215910.20000000298,215920.366,219987.158,8,400,,,
trial,html.Screen,4_30_0,2023-05-02T16:52:40.528Z,,0,1,,3595.342000000004,response,ISIC_8127323.JPG,,ISIC_5240648.JPG,ISIC_5240648.JPG,false,0,keypress(z),500,223582.89999999106,223582.5,219970.492,219983.5,219987.158,223587.014,8,400,31,,ISIC_8127323.JPG
break,html.Screen,4_30_1,2023-05-02T16:52:40.529Z,,0,,,NaN,,,,,,false,,,,223583.70000000298,223583.39999999106,,223583.09999999404,,223587.014,8,400,,,
break_continue,html.Screen,4_30_2,2023-05-02T16:52:40.530Z,,0,,,NaN,,,,,,false,,,,223584.09999999404,223584,,223583.89999999106,,223587.014,8,400,,,
sequence,flow.Sequence,4_30,2023-05-02T16:52:40.530Z,,0,,,3596.842000000004,completion,,,,,false,,,,223584.39999999106,223584,219970.492,219983.5,219987.158,223587.014,8,400,,,
trial,html.Screen,4_31_0,2023-05-02T16:52:43.629Z,,0,1,,3096.4860000000044,response,ISIC_5868291.JPG,,ISIC_0003438.JPG,ISIC_0003438.JPG,false,0,keypress(z),500,226683.79999999702,226683.5,223570.348,223584.59999999404,223587.014,226686.89,8,400,32,,ISIC_5868291.JPG
break,html.Screen,4_31_1,2023-05-02T16:52:43.630Z,,0,,,NaN,,,,,,false,,,,226684.79999999702,226684.5,,226684.20000000298,,226686.89,8,400,,,
break_continue,html.Screen,4_31_2,2023-05-02T16:52:43.631Z,,0,,,NaN,,,,,,false,,,,226685.20000000298,226685.09999999404,,226684.89999999106,,226686.89,8,400,,,
sequence,flow.Sequence,4_31,2023-05-02T16:52:43.631Z,,0,,,3098.085999994044,completion,,,,,false,,,,226685.39999999106,226685.09999999404,223570.348,223584.39999999106,223587.014,226686.89,8,400,,,
trial,html.Screen,4_32_0,2023-05-02T16:52:46.413Z,,0,1,,2780.609999999986,response,ISIC_0268701.JPG,,ISIC_5994286.JPG,ISIC_0268701.JPG,false,1,keypress(m),500,229467.70000000298,229467.5,226670.224,226685.59999999404,226686.89,229470.112,8,400,33,,ISIC_5994286.JPG
break,html.Screen,4_32_1,2023-05-02T16:52:46.414Z,,0,,,NaN,,,,,,false,,,,229468.59999999404,229468.29999999702,,229468,,229470.112,8,400,,,
break_continue,html.Screen,4_32_2,2023-05-02T16:52:46.414Z,,0,,,NaN,,,,,,false,,,,229469,229468.79999999702,,229468.70000000298,,229470.112,8,400,,,
sequence,flow.Sequence,4_32,2023-05-02T16:52:46.415Z,,0,,,2781.909999997006,completion,,,,,false,,,,229469.20000000298,229468.79999999702,226670.224,226685.59999999404,226686.89,229470.112,8,400,,,
trial,html.Screen,4_33_0,2023-05-02T16:52:50.563Z,,0,1,,4146.787999991066,response,ISIC_2046891.JPG,,ISIC_5352684.JPG,ISIC_5352684.JPG,false,0,keypress(z),500,233617.20000000298,233616.89999999106,229453.446,229469.29999999702,229470.112,233620.233,8,400,34,,ISIC_2046891.JPG
break,html.Screen,4_33_1,2023-05-02T16:52:50.563Z,,0,,,NaN,,,,,,false,,,,233617.89999999106,233617.79999999702,,233617.39999999106,,233620.233,8,400,,,
break_continue,html.Screen,4_33_2,2023-05-02T16:52:50.564Z,,0,,,NaN,,,,,,false,,,,233618.39999999106,233618.20000000298,,233618.09999999404,,233620.233,8,400,,,
sequence,flow.Sequence,4_33,2023-05-02T16:52:50.564Z,,0,,,4148.0880000029865,completion,,,,,false,,,,233618.5,233618.20000000298,229453.446,229469.29999999702,229470.112,233620.233,8,400,,,
trial,html.Screen,4_34_0,2023-05-02T16:52:53.389Z,,0,1,,2822.866999994032,response,ISIC_7526530.JPG,,ISIC_0024310.JPG,ISIC_7526530.JPG,false,1,keypress(m),500,236443.29999999702,236443.09999999404,233603.567,233618.79999999702,233620.233,236453.453,8,400,35,,ISIC_0024310.JPG
break,html.Screen,4_34_1,2023-05-02T16:52:53.390Z,,0,,,NaN,,,,,,false,,,,236444.09999999404,236443.89999999106,,236443.5,,236453.453,8,400,,,
break_continue,html.Screen,4_34_2,2023-05-02T16:52:53.390Z,,0,,,NaN,,,,,,false,,,,236444.39999999106,236444.39999999106,,236444.29999999702,,236453.453,8,400,,,
sequence,flow.Sequence,4_34,2023-05-02T16:52:53.390Z,,0,,,2824.166999991052,completion,,,,,false,,,,236444.59999999404,236444.39999999106,233603.567,233618.70000000298,233620.233,236453.453,8,400,,,
trial,html.Screen,4_35_0,2023-05-02T16:52:56.211Z,,0,1,,2811.4469999910507,response,ISIC_0016094.JPG,,ISIC_0067427.JPG,ISIC_0067427.JPG,false,0,keypress(z),500,239265.20000000298,239264.89999999106,236436.787,236444.70000000298,236453.453,239270.007,8,400,36,,ISIC_0016094.JPG
break,html.Screen,4_35_1,2023-05-02T16:52:56.211Z,,0,,,NaN,,,,,,false,,,,239266,239265.79999999702,,239265.39999999106,,239270.007,8,400,,,
break_continue,html.Screen,4_35_2,2023-05-02T16:52:56.212Z,,0,,,NaN,,,,,,false,,,,239266.39999999106,239266.20000000298,,239266.09999999404,,239270.007,8,400,,,
sequence,flow.Sequence,4_35,2023-05-02T16:52:56.212Z,,0,,,2812.7470000029716,completion,,,,,false,,,,239266.59999999404,239266.20000000298,236436.787,236444.70000000298,236453.453,239270.007,8,400,,,
trial,html.Screen,4_36_0,2023-05-02T16:53:00.602Z,,0,1,,4386.592999994027,response,ISIC_9449365.JPG,,ISIC_6712342.JPG,ISIC_6712342.JPG,false,0,keypress(z),500,243656.79999999702,243656.59999999404,239253.341,239266.79999999702,239270.007,243670.1,8,400,37,,ISIC_9449365.JPG
break,html.Screen,4_36_1,2023-05-02T16:53:00.603Z,,0,,,NaN,,,,,,false,,,,243657.5,243657.29999999702,,243657,,243670.1,8,400,,,
break_continue,html.Screen,4_36_2,2023-05-02T16:53:00.603Z,,0,,,NaN,,,,,,false,,,,243657.89999999106,243657.89999999106,,243657.59999999404,,243670.1,8,400,,,
sequence,flow.Sequence,4_36,2023-05-02T16:53:00.604Z,,0,,,4387.892999991047,completion,,,,,false,,,,243658.09999999404,243657.89999999106,239253.341,239266.79999999702,239270.007,243670.1,8,400,,,
trial,html.Screen,4_37_0,2023-05-02T16:53:05.101Z,,0,1,,4485.399999999994,response,ISIC_9694911.JPG,,ISIC_0009868.JPG,ISIC_0009868.JPG,false,0,keypress(z),500,248155.70000000298,248155.5,243653.434,243658.29999999702,243670.1,248169.92,8,400,38,,ISIC_9694911.JPG
break,html.Screen,4_37_1,2023-05-02T16:53:05.102Z,,0,,,NaN,,,,,,false,,,,248156.59999999404,248156.39999999106,,248156.09999999404,,248169.92,8,400,,,
break_continue,html.Screen,4_37_2,2023-05-02T16:53:05.103Z,,0,,,NaN,,,,,,false,,,,248157.09999999404,248156.89999999106,,248156.70000000298,,248169.92,8,400,,,
sequence,flow.Sequence,4_37,2023-05-02T16:53:05.103Z,,0,,,4486.7999999910535,completion,,,,,false,,,,248157.20000000298,248156.89999999106,243653.434,243658.29999999702,243670.1,248169.92,8,400,,,
trial,html.Screen,4_38_0,2023-05-02T16:53:10.307Z,,0,1,,5190.879999997007,response,ISIC_0015251.JPG,,ISIC_5361404.JPG,ISIC_5361404.JPG,false,0,keypress(z),500,253361.20000000298,253360.79999999702,248153.254,248157.70000000298,248169.92,253370.029,8,400,39,,ISIC_0015251.JPG
break,html.Screen,4_38_1,2023-05-02T16:53:10.307Z,,0,,,NaN,,,,,,false,,,,253361.89999999106,253361.70000000298,,253361.29999999702,,253370.029,8,400,,,
break_continue,html.Screen,4_38_2,2023-05-02T16:53:10.308Z,,0,,,NaN,,,,,,false,,,,253362.39999999106,253362.20000000298,,253362.09999999404,,253370.029,8,400,,,
sequence,flow.Sequence,4_38,2023-05-02T16:53:10.308Z,,0,,,5192.280000002967,completion,,,,,false,,,,253362.59999999404,253362.20000000298,248153.254,248157.59999999404,248169.92,253370.029,8,400,,,
trial,html.Screen,4_39_0,2023-05-02T16:53:16.104Z,,0,1,,5788.171000002971,response,ISIC_8848134.JPG,,ISIC_0011948.JPG,ISIC_8848134.JPG,false,1,keypress(m),500,259158.5,259158.20000000298,253353.363,253362.70000000298,253370.029,259169.797,8,400,40,,ISIC_0011948.JPG
break,html.Screen,4_39_1,2023-05-02T16:53:16.105Z,,0,,,NaN,,,,,,false,,,,259159.29999999702,259159,,259158.70000000298,,259169.797,8,400,,,
break_continue,html.Screen,4_39_2,2023-05-02T16:53:16.105Z,,0,,,NaN,,,,,,false,,,,259159.70000000298,259159.5,,259159.39999999106,,259169.797,8,400,,,
sequence,flow.Sequence,4_39,2023-05-02T16:53:16.105Z,,0,,,5789.47099999999,completion,,,,,false,,,,259159.89999999106,259159.5,253353.363,253362.70000000298,253370.029,259169.797,8,400,,,
trial,html.Screen,4_40_0,2023-05-02T16:53:20.962Z,,0,1,,4846.903000002989,response,ISIC_0056017.JPG,,ISIC_0031087.JPG,ISIC_0031087.JPG,false,0,keypress(z),500,264017,264016.700000003,259153.131,259160.09999999404,259169.797,264036.548,8,400,41,,ISIC_0056017.JPG
break,html.Screen,4_40_1,2023-05-02T16:53:20.963Z,,0,,,NaN,,,,,,false,,,,264017.799999997,264017.59999999404,,264017.200000003,,264036.548,8,400,,,
break_continue,html.Screen,4_40_2,2023-05-02T16:53:20.964Z,,0,,,NaN,,,,,,false,,,,264018.200000003,264018.09999999404,,264018,,264036.548,8,400,,,
sequence,flow.Sequence,4_40,2023-05-02T16:53:20.964Z,,0,,,4848.302999994048,completion,,,,,false,,,,264018.39999999106,264018.09999999404,259153.131,259160,259169.797,264036.548,8,400,,,
trial,html.Screen,4_41_0,2023-05-02T16:53:23.946Z,,0,1,,2963.95199999999,response,ISIC_2323082.JPG,,ISIC_1023339.JPG,ISIC_2323082.JPG,false,1,keypress(m),500,267000.799999997,267000.5,264019.882,264018.59999999404,264036.548,267003.096,8,400,42,,ISIC_1023339.JPG
break,html.Screen,4_41_1,2023-05-02T16:53:23.947Z,,0,,,NaN,,,,,,false,,,,267001.59999999404,267001.39999999106,,267001,,267003.096,8,400,,,
break_continue,html.Screen,4_41_2,2023-05-02T16:53:23.948Z,,0,,,NaN,,,,,,false,,,,267002,267001.89999999106,,267001.799999997,,267003.096,8,400,,,
sequence,flow.Sequence,4_41,2023-05-02T16:53:23.948Z,,0,,,2965.3519999910495,completion,,,,,false,,,,267002.200000003,267001.89999999106,264019.882,264018.5,264036.548,267003.096,8,400,,,
trial,html.Screen,4_42_0,2023-05-02T16:53:27.128Z,,0,1,,3179.00399999402,response,ISIC_6398283.JPG,,ISIC_0073136.JPG,ISIC_6398283.JPG,false,1,keypress(m),500,270182.5,270182.09999999404,266986.43,267002.39999999106,267003.096,270186.302,8,400,43,,ISIC_0073136.JPG
break,html.Screen,4_42_1,2023-05-02T16:53:27.129Z,,0,,,NaN,,,,,,false,,,,270183.39999999106,270183.09999999404,,270182.799999997,,270186.302,8,400,,,
break_continue,html.Screen,4_42_2,2023-05-02T16:53:27.129Z,,0,,,NaN,,,,,,false,,,,270183.799999997,270183.59999999404,,270183.59999999404,,270186.302,8,400,,,
sequence,flow.Sequence,4_42,2023-05-02T16:53:27.129Z,,0,,,3180.50399999402,completion,,,,,false,,,,270184,270183.59999999404,266986.43,267002.299999997,267003.096,270186.302,8,400,,,
trial,html.Screen,4_43_0,2023-05-02T16:53:33.345Z,,0,1,,6213.097999991034,response,ISIC_0031935.JPG,,ISIC_0027585.JPG,ISIC_0027585.JPG,false,0,keypress(z),500,276399.59999999404,276399.39999999106,270169.636,270184.200000003,270186.302,276403.044,8,400,44,,ISIC_0031935.JPG
break,html.Screen,4_43_1,2023-05-02T16:53:33.346Z,,0,,,NaN,,,,,,false,,,,276400.5,276400.200000003,,276399.799999997,,276403.044,8,400,,,
break_continue,html.Screen,4_43_2,2023-05-02T16:53:33.346Z,,0,,,NaN,,,,,,false,,,,276400.89999999106,276400.700000003,,276400.59999999404,,276403.044,8,400,,,
sequence,flow.Sequence,4_43,2023-05-02T16:53:33.347Z,,0,,,6214.398000002955,completion,,,,,false,,,,276401.09999999404,276400.700000003,270169.636,270184.200000003,270186.302,276403.044,8,400,,,
trial,html.Screen,4_44_0,2023-05-02T16:53:36.913Z,,0,1,,3563.855999991065,response,ISIC_8073555.JPG,,ISIC_7057495.JPG,ISIC_7057495.JPG,false,0,keypress(z),500,279967.200000003,279966.89999999106,276386.378,276401.299999997,276403.044,279969.568,8,400,45,,ISIC_8073555.JPG
break,html.Screen,4_44_1,2023-05-02T16:53:36.914Z,,0,,,NaN,,,,,,false,,,,279968.09999999404,279967.799999997,,279967.39999999106,,279969.568,8,400,,,
break_continue,html.Screen,4_44_2,2023-05-02T16:53:36.914Z,,0,,,NaN,,,,,,false,,,,279968.39999999106,279968.299999997,,279968.200000003,,279969.568,8,400,,,
sequence,flow.Sequence,4_44,2023-05-02T16:53:36.914Z,,0,,,3565.2559999970254,completion,,,,,false,,,,279968.700000003,279968.299999997,276386.378,276401.200000003,276403.044,279969.568,8,400,,,
trial,html.Screen,4_45_0,2023-05-02T16:53:40.539Z,,0,1,,3623.9319999999716,response,ISIC_0944273.JPG,,ISIC_0059987.JPG,ISIC_0944273.JPG,false,1,keypress(m),500,283593.799999997,283593.5,279952.902,279968.799999997,279969.568,283602.756,8,400,46,,ISIC_0059987.JPG
break,html.Screen,4_45_1,2023-05-02T16:53:40.540Z,,0,,,NaN,,,,,,false,,,,283594.59999999404,283594.39999999106,,283594,,283602.756,8,400,,,
break_continue,html.Screen,4_45_2,2023-05-02T16:53:40.541Z,,0,,,NaN,,,,,,false,,,,283595,283594.89999999106,,283594.799999997,,283602.756,8,400,,,
sequence,flow.Sequence,4_45,2023-05-02T16:53:40.541Z,,0,,,3625.331999991031,completion,,,,,false,,,,283595.299999997,283594.89999999106,279952.902,279968.799999997,279969.568,283602.756,8,400,,,
trial,html.Screen,4_46_0,2023-05-02T16:53:42.594Z,,0,1,,2040.744000000006,response,ISIC_0009100.JPG,,ISIC_0071492.JPG,ISIC_0071492.JPG,false,0,keypress(z),500,285643.799999997,285643.5,283586.09,283595.39999999106,283602.756,285652.674,8,400,47,,ISIC_0009100.JPG
break,html.Screen,4_46_1,2023-05-02T16:53:42.595Z,,0,,,NaN,,,,,,false,,,,285644.59999999404,285644.39999999106,,285644,,285652.674,8,400,,,
break_continue,html.Screen,4_46_2,2023-05-02T16:53:42.595Z,,0,,,NaN,,,,,,false,,,,285645,285644.89999999106,,285644.700000003,,285652.674,8,400,,,
sequence,flow.Sequence,4_46,2023-05-02T16:53:42.596Z,,0,,,2042.1439999910654,completion,,,,,false,,,,285645.200000003,285644.89999999106,283586.09,283595.39999999106,283602.756,285652.674,8,400,,,
trial,html.Screen,4_47_0,2023-05-02T16:53:46.538Z,,0,1,,3926.6259999970207,response,ISIC_0068382.JPG,,ISIC_4116770.JPG,ISIC_0068382.JPG,false,1,keypress(m),500,289579.5,289579.299999997,285636.008,285645.299999997,285652.674,289586.131,8,400,48,,ISIC_4116770.JPG
break,html.Screen,4_47_1,2023-05-02T16:53:46.539Z,,0,,,NaN,,,,,,false,,,,289580.39999999106,289580.200000003,,289579.799999997,,289586.131,8,400,,,
break_continue,html.Screen,4_47_2,2023-05-02T16:53:46.539Z,,0,,,NaN,,,,,,false,,,,289580.700000003,289580.59999999404,,289580.5,,289586.131,8,400,,,
sequence,flow.Sequence,4_47,2023-05-02T16:53:46.539Z,,0,,,3927.9259999940405,completion,,,,,false,,,,289581,289580.59999999404,285636.008,285645.299999997,285652.674,289586.131,8,400,,,
trial,html.Screen,4_48_0,2023-05-02T16:53:52.696Z,,0,1,,6142.768999991065,response,ISIC_0024266.JPG,,ISIC_0779920.JPG,ISIC_0779920.JPG,false,0,keypress(z),500,295729.200000003,295728.89999999106,289569.465,289581.09999999404,289586.131,295735.885,8,400,49,,ISIC_0024266.JPG
break,html.Screen,4_48_1,2023-05-02T16:53:52.697Z,,0,,,NaN,,,,,,false,,,,295730.09999999404,295729.799999997,,295729.39999999106,,295735.885,8,400,,,
break_continue,html.Screen,4_48_2,2023-05-02T16:53:52.697Z,,0,,,NaN,,,,,,false,,,,295730.39999999106,295730.200000003,,295730.200000003,,295735.885,8,400,,,
sequence,flow.Sequence,4_48,2023-05-02T16:53:52.698Z,,0,,,6144.069000002986,completion,,,,,false,,,,295730.59999999404,295730.200000003,289569.465,289581.09999999404,289586.131,295735.885,8,400,,,
trial,html.Screen,4_49_0,2023-05-02T16:53:56.415Z,,0,1,,3707.71499999403,response,ISIC_6758042.JPG,,ISIC_0026239.JPG,ISIC_6758042.JPG,false,1,keypress(m),500,299443.89999999106,299443.59999999404,295719.219,295730.700000003,295735.885,299452.666,8,400,50,,ISIC_0026239.JPG
break,html.Screen,4_49_1,2023-05-02T16:54:01.412Z,,0,,,4999.799999999988,timeout,,,,,false,,,,304437.799999997,304435.8,299436,299444.09999999404,299452.666,304452.466,8,400,,,
break_continue,html.Screen,4_49_2,2023-05-02T16:54:03.130Z,,0,,,1689.8339999970049,response,,,,,false,continue,keypress(Space),,306154.59999999404,306142.299999997,304435.8,304437.89999999106,304452.466,306169.064,8,400,,,
sequence,flow.Sequence,4_49,2023-05-02T16:54:03.131Z,,0,,,10406.41499999701,completion,,,,,false,,,,306154.799999997,306142.299999997,295719.219,295730.700000003,295735.885,306169.064,8,400,,,
trial,html.Screen,4_50_0,2023-05-02T16:54:05.919Z,,0,2,,2772.636000002967,response,ISIC_8738598.JPG,,ISIC_0056055.JPG,ISIC_8738598.JPG,false,1,keypress(m),500,308942,308941.700000003,306152.398,306154.89999999106,306169.064,308952.559,8,400,1,,ISIC_0056055.JPG
break,html.Screen,4_50_1,2023-05-02T16:54:05.920Z,,0,,,NaN,,,,,,false,,,,308942.799999997,308942.59999999404,,308942.299999997,,308952.559,8,400,,,
break_continue,html.Screen,4_50_2,2023-05-02T16:54:05.921Z,,0,,,NaN,,,,,,false,,,,308943.200000003,308943,,308943,,308952.559,8,400,,,
sequence,flow.Sequence,4_50,2023-05-02T16:54:05.921Z,,0,,,2773.935999999987,completion,,,,,false,,,,308943.39999999106,308943,306152.398,306154.799999997,306169.064,308952.559,8,400,,,
trial,html.Screen,4_51_0,2023-05-02T16:54:09.052Z,,0,2,,3120.540999994031,response,ISIC_0009488.JPG,,ISIC_6811363.JPG,ISIC_6811363.JPG,false,0,keypress(z),500,312073.39999999106,312073.09999999404,308935.893,308943.59999999404,308952.559,312085.767,8,400,2,,ISIC_0009488.JPG
break,html.Screen,4_51_1,2023-05-02T16:54:09.053Z,,0,,,NaN,,,,,,false,,,,312074.200000003,312074,,312073.59999999404,,312085.767,8,400,,,
break_continue,html.Screen,4_51_2,2023-05-02T16:54:09.053Z,,0,,,NaN,,,,,,false,,,,312074.700000003,312074.5,,312074.39999999106,,312085.767,8,400,,,
sequence,flow.Sequence,4_51,2023-05-02T16:54:09.054Z,,0,,,3121.9409999999916,completion,,,,,false,,,,312074.799999997,312074.5,308935.893,308943.5,308952.559,312085.767,8,400,,,
trial,html.Screen,4_52_0,2023-05-02T16:54:12.403Z,,0,2,,3337.332999994047,response,ISIC_0027065.JPG,,ISIC_0015208.JPG,ISIC_0015208.JPG,false,0,keypress(z),500,315423.39999999106,315423.09999999404,312069.101,312075,312085.767,315435.633,8,400,3,,ISIC_0027065.JPG
break,html.Screen,4_52_1,2023-05-02T16:54:12.404Z,,0,,,NaN,,,,,,false,,,,315424.200000003,315424,,315423.700000003,,315435.633,8,400,,,
break_continue,html.Screen,4_52_2,2023-05-02T16:54:12.405Z,,0,,,NaN,,,,,,false,,,,315424.59999999404,315424.39999999106,,315424.39999999106,,315435.633,8,400,,,
sequence,flow.Sequence,4_52,2023-05-02T16:54:12.405Z,,0,,,3338.6329999910668,completion,,,,,false,,,,315424.89999999106,315424.39999999106,312069.101,312075,312085.767,315435.633,8,400,,,
trial,html.Screen,4_53_0,2023-05-02T16:54:16.038Z,,0,2,,3621.1669999970472,response,ISIC_0032052.JPG,,ISIC_0064102.JPG,ISIC_0032052.JPG,false,1,keypress(m),500,319057.09999999404,319056.799999997,315418.967,315425,315435.633,319069.12,8,400,4,,ISIC_0064102.JPG
break,html.Screen,4_53_1,2023-05-02T16:54:16.039Z,,0,,,NaN,,,,,,false,,,,319058,319057.799999997,,319057.39999999106,,319069.12,8,400,,,
break_continue,html.Screen,4_53_2,2023-05-02T16:54:16.039Z,,0,,,NaN,,,,,,false,,,,319058.5,319058.39999999106,,319058.200000003,,319069.12,8,400,,,
sequence,flow.Sequence,4_53,2023-05-02T16:54:16.040Z,,0,,,3622.766999991087,completion,,,,,false,,,,319058.700000003,319058.39999999106,315418.967,315425,315435.633,319069.12,8,400,,,
trial,html.Screen,4_54_0,2023-05-02T16:54:19.656Z,,0,2,,3604.279999991064,response,ISIC_5679004.JPG,,ISIC_0002774.JPG,ISIC_0002774.JPG,false,0,keypress(z),500,322673.59999999404,322673.39999999106,319052.454,319058.89999999106,319069.12,322685.642,8,400,5,,ISIC_5679004.JPG
break,html.Screen,4_54_1,2023-05-02T16:54:19.656Z,,0,,,NaN,,,,,,false,,,,322674.5,322674.299999997,,322674,,322685.642,8,400,,,
break_continue,html.Screen,4_54_2,2023-05-02T16:54:19.657Z,,0,,,NaN,,,,,,false,,,,322674.89999999106,322674.799999997,,322674.59999999404,,322685.642,8,400,,,
sequence,flow.Sequence,4_54,2023-05-02T16:54:19.657Z,,0,,,3605.6799999970244,completion,,,,,false,,,,322675.200000003,322674.799999997,319052.454,319058.799999997,319069.12,322685.642,8,400,,,
trial,html.Screen,4_55_0,2023-05-02T16:54:23.229Z,,0,2,,3560.457999994047,response,ISIC_5732201.JPG,,ISIC_0015115.JPG,ISIC_5732201.JPG,false,1,keypress(m),500,326246.39999999106,326246.09999999404,322668.976,322675.299999997,322685.642,326252.166,8,400,6,,ISIC_0015115.JPG
break,html.Screen,4_55_1,2023-05-02T16:54:23.230Z,,0,,,NaN,,,,,,false,,,,326247.200000003,326247,,326246.700000003,,326252.166,8,400,,,
break_continue,html.Screen,4_55_2,2023-05-02T16:54:23.230Z,,0,,,NaN,,,,,,false,,,,326247.700000003,326247.5,,326247.39999999106,,326252.166,8,400,,,
sequence,flow.Sequence,4_55,2023-05-02T16:54:23.230Z,,0,,,3561.8580000000075,completion,,,,,false,,,,326247.89999999106,326247.5,322668.976,322675.299999997,322685.642,326252.166,8,400,,,
trial,html.Screen,4_56_0,2023-05-02T16:54:28.224Z,,0,2,,4988.3339999999735,response,ISIC_0027479.JPG,,ISIC_3947876.JPG,ISIC_0027479.JPG,false,1,keypress(m),500,331240.700000003,331240.5,326235.5,326248,326252.166,331268.951,8,400,7,,ISIC_3947876.JPG
break,html.Screen,4_56_1,2023-05-02T16:54:28.224Z,,0,,,NaN,,,,,,false,,,,331241.200000003,331241,,331240.799999997,,331268.951,8,400,,,
break_continue,html.Screen,4_56_2,2023-05-02T16:54:28.225Z,,0,,,NaN,,,,,,false,,,,331241.5,331241.299999997,,331241.299999997,,331268.951,8,400,,,
sequence,flow.Sequence,4_56,2023-05-02T16:54:28.225Z,,0,,,4989.133999996993,completion,,,,,false,,,,331241.5,331241.299999997,326235.5,326248,326252.166,331268.951,8,400,,,
trial,html.Screen,4_57_0,2023-05-02T16:54:32.233Z,,0,2,,3980.048999999999,response,ISIC_5218530.JPG,,ISIC_0062031.JPG,ISIC_5218530.JPG,false,1,keypress(m),500,335249.299999997,335249,331252.285,331241.59999999404,331268.951,335252.125,8,400,8,,ISIC_0062031.JPG
break,html.Screen,4_57_1,2023-05-02T16:54:32.234Z,,0,,,NaN,,,,,,false,,,,335250.09999999404,335249.89999999106,,335249.59999999404,,335252.125,8,400,,,
break_continue,html.Screen,4_57_2,2023-05-02T16:54:32.234Z,,0,,,NaN,,,,,,false,,,,335250.5,335250.39999999106,,335250.200000003,,335252.125,8,400,,,
sequence,flow.Sequence,4_57,2023-05-02T16:54:32.234Z,,0,,,3981.4489999910584,completion,,,,,false,,,,335250.700000003,335250.39999999106,331252.285,331241.59999999404,331268.951,335252.125,8,400,,,
trial,html.Screen,4_58_0,2023-05-02T16:54:36.654Z,,0,2,,4417.9749999940395,response,ISIC_0063319.JPG,,ISIC_5364330.JPG,ISIC_5364330.JPG,false,0,keypress(z),500,339670.39999999106,339670.09999999404,335235.459,335250.799999997,335252.125,339685.281,8,400,9,,ISIC_0063319.JPG
break,html.Screen,4_58_1,2023-05-02T16:54:36.655Z,,0,,,NaN,,,,,,false,,,,339671.299999997,339671.09999999404,,339670.700000003,,339685.281,8,400,,,
break_continue,html.Screen,4_58_2,2023-05-02T16:54:36.656Z,,0,,,NaN,,,,,,false,,,,339671.700000003,339671.59999999404,,339671.39999999106,,339685.281,8,400,,,
sequence,flow.Sequence,4_58,2023-05-02T16:54:36.656Z,,0,,,4419.4749999940395,completion,,,,,false,,,,339671.89999999106,339671.59999999404,335235.459,335250.799999997,335252.125,339685.281,8,400,,,
trial,html.Screen,4_59_0,2023-05-02T16:54:41.396Z,,0,2,,4726.218999999983,response,ISIC_0025039.JPG,,ISIC_9152137.JPG,ISIC_9152137.JPG,false,0,keypress(z),500,344411.700000003,344411.5,339668.615,339672.09999999404,339685.281,344418.697,8,400,10,,ISIC_0025039.JPG
break,html.Screen,4_59_1,2023-05-02T16:54:41.397Z,,0,,,NaN,,,,,,false,,,,344412.59999999404,344412.299999997,,344412,,344418.697,8,400,,,
break_continue,html.Screen,4_59_2,2023-05-02T16:54:41.397Z,,0,,,NaN,,,,,,false,,,,344413,344412.89999999106,,344412.799999997,,344418.697,8,400,,,
sequence,flow.Sequence,4_59,2023-05-02T16:54:41.397Z,,0,,,4727.618999991042,completion,,,,,false,,,,344413.299999997,344412.89999999106,339668.615,339672,339685.281,344418.697,8,400,,,
trial,html.Screen,4_60_0,2023-05-02T16:54:44.601Z,,0,2,,3198.102999997034,response,ISIC_0024911.JPG,,ISIC_0011894.JPG,ISIC_0024911.JPG,false,1,keypress(m),500,347617.09999999404,347616.799999997,344402.031,344413.39999999106,344418.697,347618.569,8,400,11,,ISIC_0011894.JPG
break,html.Screen,4_60_1,2023-05-02T16:54:44.602Z,,0,,,NaN,,,,,,false,,,,347617.89999999106,347617.700000003,,347617.39999999106,,347618.569,8,400,,,
break_continue,html.Screen,4_60_2,2023-05-02T16:54:44.603Z,,0,,,NaN,,,,,,false,,,,347618.39999999106,347618.200000003,,347618.09999999404,,347618.569,8,400,,,
sequence,flow.Sequence,4_60,2023-05-02T16:54:44.603Z,,0,,,3199.5030000029947,completion,,,,,false,,,,347618.59999999404,347618.200000003,344402.031,344413.39999999106,344418.697,347618.569,8,400,,,
trial,html.Screen,4_61_0,2023-05-02T16:54:48.623Z,,0,2,,4019.6310000029625,response,ISIC_1797795.JPG,,ISIC_0667763.JPG,ISIC_0667763.JPG,false,0,keypress(z),500,351638.39999999106,351638.200000003,347601.903,347618.799999997,347618.569,351651.741,8,400,12,,ISIC_1797795.JPG
break,html.Screen,4_61_1,2023-05-02T16:54:48.624Z,,0,,,NaN,,,,,,false,,,,351639.299999997,351639,,351638.59999999404,,351651.741,8,400,,,
break_continue,html.Screen,4_61_2,2023-05-02T16:54:48.624Z,,0,,,NaN,,,,,,false,,,,351639.700000003,351639.59999999404,,351639.39999999106,,351651.741,8,400,,,
sequence,flow.Sequence,4_61,2023-05-02T16:54:48.624Z,,0,,,4021.030999994022,completion,,,,,false,,,,351639.89999999106,351639.59999999404,347601.903,347618.799999997,347618.569,351651.741,8,400,,,
trial,html.Screen,4_62_0,2023-05-02T16:54:54.239Z,,0,2,,5602.35899999406,response,ISIC_5335139.JPG,,ISIC_3696726.JPG,ISIC_5335139.JPG,false,1,keypress(m),500,357254.39999999106,357254.09999999404,351635.075,351640,351651.741,357268.457,8,400,13,,ISIC_3696726.JPG
break,html.Screen,4_62_1,2023-05-02T16:54:54.240Z,,0,,,NaN,,,,,,false,,,,357255.299999997,357255,,357254.59999999404,,357268.457,8,400,,,
break_continue,html.Screen,4_62_2,2023-05-02T16:54:54.240Z,,0,,,NaN,,,,,,false,,,,357255.700000003,357255.5,,357255.39999999106,,357268.457,8,400,,,
sequence,flow.Sequence,4_62,2023-05-02T16:54:54.241Z,,0,,,5603.75900000002,completion,,,,,false,,,,357255.799999997,357255.5,351635.075,351640,351651.741,357268.457,8,400,,,
trial,html.Screen,4_63_0,2023-05-02T16:54:57.917Z,,0,2,,3663.4429999910644,response,ISIC_0029705.JPG,,ISIC_3716686.JPG,ISIC_3716686.JPG,false,0,keypress(z),500,360932.299999997,360931.89999999106,357251.791,357256,357268.457,360934.977,8,400,14,,ISIC_0029705.JPG
break,html.Screen,4_63_1,2023-05-02T16:54:57.918Z,,0,,,NaN,,,,,,false,,,,360933.299999997,360933.09999999404,,360932.59999999404,,360934.977,8,400,,,
break_continue,html.Screen,4_63_2,2023-05-02T16:54:57.919Z,,0,,,NaN,,,,,,false,,,,360934.09999999404,360933.799999997,,360933.5,,360934.977,8,400,,,
sequence,flow.Sequence,4_63,2023-05-02T16:54:57.919Z,,0,,,3665.342999997025,completion,,,,,false,,,,360934.299999997,360933.799999997,357251.791,357256,357268.457,360934.977,8,400,,,
trial,html.Screen,4_64_0,2023-05-02T16:55:01.551Z,,0,2,,3631.122999994026,response,ISIC_2844085.JPG,,ISIC_4026019.JPG,ISIC_2844085.JPG,false,1,keypress(m),500,364566.39999999106,364566.09999999404,360918.311,360934.5,360934.977,364568.435,8,400,15,,ISIC_4026019.JPG
break,html.Screen,4_64_1,2023-05-02T16:55:01.552Z,,0,,,NaN,,,,,,false,,,,364567.200000003,364566.89999999106,,364566.59999999404,,364568.435,8,400,,,
break_continue,html.Screen,4_64_2,2023-05-02T16:55:01.552Z,,0,,,NaN,,,,,,false,,,,364567.59999999404,364567.5,,364567.39999999106,,364568.435,8,400,,,
sequence,flow.Sequence,4_64,2023-05-02T16:55:01.553Z,,0,,,3632.5229999999865,completion,,,,,false,,,,364567.799999997,364567.5,360918.311,360934.5,360934.977,364568.435,8,400,,,
trial,html.Screen,4_65_0,2023-05-02T16:55:04.933Z,,0,2,,3378.9649999910616,response,ISIC_3727059.JPG,,ISIC_0026497.JPG,ISIC_0026497.JPG,false,0,keypress(z),500,367947.700000003,367947.39999999106,364551.769,364568,364568.435,367951.633,8,400,16,,ISIC_3727059.JPG
break,html.Screen,4_65_1,2023-05-02T16:55:04.933Z,,0,,,NaN,,,,,,false,,,,367948.5,367948.299999997,,367947.89999999106,,367951.633,8,400,,,
break_continue,html.Screen,4_65_2,2023-05-02T16:55:04.934Z,,0,,,NaN,,,,,,false,,,,367948.89999999106,367948.700000003,,367948.700000003,,367951.633,8,400,,,
sequence,flow.Sequence,4_65,2023-05-02T16:55:04.934Z,,0,,,3380.2650000029826,completion,,,,,false,,,,367949.09999999404,367948.700000003,364551.769,364567.89999999106,364568.435,367951.633,8,400,,,
trial,html.Screen,4_66_0,2023-05-02T16:55:07.708Z,,0,2,,2770.766999991087,response,ISIC_9355535.JPG,,ISIC_0033756.JPG,ISIC_0033756.JPG,false,0,keypress(z),500,370722.59999999404,370722.39999999106,367934.967,367949.200000003,367951.633,370734.855,8,400,17,,ISIC_9355535.JPG
break,html.Screen,4_66_1,2023-05-02T16:55:07.708Z,,0,,,NaN,,,,,,false,,,,370723.39999999106,370723.200000003,,370722.799999997,,370734.855,8,400,,,
break_continue,html.Screen,4_66_2,2023-05-02T16:55:07.709Z,,0,,,NaN,,,,,,false,,,,370723.89999999106,370723.799999997,,370723.59999999404,,370734.855,8,400,,,
sequence,flow.Sequence,4_66,2023-05-02T16:55:07.709Z,,0,,,2772.1669999970472,completion,,,,,false,,,,370724.09999999404,370723.799999997,367934.967,367949.200000003,367951.633,370734.855,8,400,,,
trial,html.Screen,4_67_0,2023-05-02T16:55:10.916Z,,0,2,,3195.744999994058,response,ISIC_0033386.JPG,,ISIC_0012887.JPG,ISIC_0033386.JPG,false,1,keypress(m),500,373930.89999999106,373930.59999999404,370718.189,370724.299999997,370734.855,373934.995,8,400,18,,ISIC_0012887.JPG
break,html.Screen,4_67_1,2023-05-02T16:55:10.917Z,,0,,,NaN,,,,,,false,,,,373931.799999997,373931.5,,373931.200000003,,373934.995,8,400,,,
break_continue,html.Screen,4_67_2,2023-05-02T16:55:10.917Z,,0,,,NaN,,,,,,false,,,,373932.09999999404,373932,,373931.89999999106,,373934.995,8,400,,,
sequence,flow.Sequence,4_67,2023-05-02T16:55:10.917Z,,0,,,3197.1450000000186,completion,,,,,false,,,,373932.39999999106,373932,370718.189,370724.200000003,370734.855,373934.995,8,400,,,
trial,html.Screen,4_68_0,2023-05-02T16:55:15.038Z,,0,2,,4117.604999994044,response,ISIC_6704623.JPG,,ISIC_0006181.JPG,ISIC_6704623.JPG,false,1,keypress(m),500,378052.89999999106,378052.59999999404,373918.329,373932.59999999404,373934.995,378068.163,8,400,19,,ISIC_0006181.JPG
break,html.Screen,4_68_1,2023-05-02T16:55:15.039Z,,0,,,NaN,,,,,,false,,,,378053.700000003,378053.39999999106,,378053.200000003,,378068.163,8,400,,,
break_continue,html.Screen,4_68_2,2023-05-02T16:55:15.039Z,,0,,,NaN,,,,,,false,,,,378054.200000003,378054,,378053.89999999106,,378068.163,8,400,,,
sequence,flow.Sequence,4_68,2023-05-02T16:55:15.039Z,,0,,,4119.005000000005,completion,,,,,false,,,,378054.39999999106,378054,373918.329,373932.5,373934.995,378068.163,8,400,,,
trial,html.Screen,4_69_0,2023-05-02T16:55:18.373Z,,0,2,,3319.5370000029798,response,ISIC_0066114.JPG,,ISIC_0072703.JPG,ISIC_0072703.JPG,false,0,keypress(z),500,381387.89999999106,381387.700000003,378051.497,378054.5,378068.163,381401.363,8,400,20,,ISIC_0066114.JPG
break,html.Screen,4_69_1,2023-05-02T16:55:18.374Z,,0,,,NaN,,,,,,false,,,,381388.700000003,381388.5,,381388.200000003,,381401.363,8,400,,,
break_continue,html.Screen,4_69_2,2023-05-02T16:55:18.374Z,,0,,,NaN,,,,,,false,,,,381389.200000003,381389.09999999404,,381389,,381401.363,8,400,,,
sequence,flow.Sequence,4_69,2023-05-02T16:55:18.374Z,,0,,,3320.936999994039,completion,,,,,false,,,,381389.39999999106,381389.09999999404,378051.497,378054.5,378068.163,381401.363,8,400,,,
trial,html.Screen,4_70_0,2023-05-02T16:55:21.449Z,,0,2,,3061.837000002968,response,ISIC_0033819.JPG,,ISIC_0027276.JPG,ISIC_0027276.JPG,false,0,keypress(z),500,384463.5,384463.200000003,381384.697,381389.5,381401.363,384468.173,8,400,21,,ISIC_0033819.JPG
break,html.Screen,4_70_1,2023-05-02T16:55:21.449Z,,0,,,NaN,,,,,,false,,,,384464.39999999106,384464.09999999404,,384463.799999997,,384468.173,8,400,,,
break_continue,html.Screen,4_70_2,2023-05-02T16:55:21.450Z,,0,,,NaN,,,,,,false,,,,384464.89999999106,384464.700000003,,384464.5,,384468.173,8,400,,,
sequence,flow.Sequence,4_70,2023-05-02T16:55:21.450Z,,0,,,3063.337000002968,completion,,,,,false,,,,384465,384464.700000003,381384.697,381389.5,381401.363,384468.173,8,400,,,
trial,html.Screen,4_71_0,2023-05-02T16:55:24.360Z,,0,2,,2906.5270000029705,response,ISIC_6345354.JPG,,ISIC_0033651.JPG,ISIC_6345354.JPG,false,1,keypress(m),500,387374.89999999106,387374.700000003,384451.507,384465.200000003,384468.173,387384.723,8,400,22,,ISIC_0033651.JPG
break,html.Screen,4_71_1,2023-05-02T16:55:24.361Z,,0,,,NaN,,,,,,false,,,,387375.799999997,387375.59999999404,,387375.200000003,,387384.723,8,400,,,
break_continue,html.Screen,4_71_2,2023-05-02T16:55:24.361Z,,0,,,NaN,,,,,,false,,,,387376.200000003,387376,,387376,,387384.723,8,400,,,
sequence,flow.Sequence,4_71,2023-05-02T16:55:24.361Z,,0,,,2907.82699999999,completion,,,,,false,,,,387376.39999999106,387376,384451.507,384465.09999999404,384468.173,387384.723,8,400,,,
trial,html.Screen,4_72_0,2023-05-02T16:55:27.322Z,,0,2,,2952.0769999970216,response,ISIC_0032484.JPG,,ISIC_0066678.JPG,ISIC_0032484.JPG,false,1,keypress(m),500,390337.09999999404,390336.799999997,387368.057,387376.59999999404,387384.723,390351.271,8,400,23,,ISIC_0066678.JPG
break,html.Screen,4_72_1,2023-05-02T16:55:27.323Z,,0,,,NaN,,,,,,false,,,,390337.89999999106,390337.59999999404,,390337.299999997,,390351.271,8,400,,,
break_continue,html.Screen,4_72_2,2023-05-02T16:55:27.323Z,,0,,,NaN,,,,,,false,,,,390338.299999997,390338.200000003,,390338.09999999404,,390351.271,8,400,,,
sequence,flow.Sequence,4_72,2023-05-02T16:55:27.324Z,,0,,,2953.477000002982,completion,,,,,false,,,,390338.5,390338.200000003,387368.057,387376.5,387384.723,390351.271,8,400,,,
trial,html.Screen,4_73_0,2023-05-02T16:55:31.730Z,,0,2,,4393.929000002972,response,ISIC_1150482.JPG,,ISIC_0011668.JPG,ISIC_0011668.JPG,false,0,keypress(z),500,394745.5,394745.200000003,390334.605,390338.700000003,390351.271,394751.406,8,400,24,,ISIC_1150482.JPG
break,html.Screen,4_73_1,2023-05-02T16:55:31.731Z,,0,,,NaN,,,,,,false,,,,394746.299999997,394746,,394745.700000003,,394751.406,8,400,,,
break_continue,html.Screen,4_73_2,2023-05-02T16:55:31.732Z,,0,,,NaN,,,,,,false,,,,394746.700000003,394746.59999999404,,394746.5,,394751.406,8,400,,,
sequence,flow.Sequence,4_73,2023-05-02T16:55:31.732Z,,0,,,4395.328999994032,completion,,,,,false,,,,394746.89999999106,394746.59999999404,390334.605,390338.700000003,390351.271,394751.406,8,400,,,
trial,html.Screen,4_74_0,2023-05-02T16:55:35.913Z,,0,2,,4176.593999999983,response,ISIC_1684829.JPG,,ISIC_6995731.JPG,ISIC_6995731.JPG,false,0,keypress(z),500,398928.200000003,398928,394734.74,394747.09999999404,394751.406,398934.572,8,400,25,,ISIC_1684829.JPG
break,html.Screen,4_74_1,2023-05-02T16:55:35.914Z,,0,,,NaN,,,,,,false,,,,398929,398928.799999997,,398928.5,,398934.572,8,400,,,
break_continue,html.Screen,4_74_2,2023-05-02T16:55:35.914Z,,0,,,NaN,,,,,,false,,,,398929.39999999106,398929.299999997,,398929.200000003,,398934.572,8,400,,,
sequence,flow.Sequence,4_74,2023-05-02T16:55:35.915Z,,0,,,4177.8939999970025,completion,,,,,false,,,,398929.59999999404,398929.299999997,394734.74,394747,394751.406,398934.572,8,400,,,
trial,html.Screen,4_75_0,2023-05-02T16:55:39.207Z,,0,2,,3286.8279999910737,response,ISIC_0032047.JPG,,ISIC_4212044.JPG,ISIC_4212044.JPG,false,0,keypress(z),500,402221.59999999404,402221.39999999106,398917.906,398929.799999997,398934.572,402234.44,8,400,26,,ISIC_0032047.JPG
break,html.Screen,4_75_1,2023-05-02T16:55:39.207Z,,0,,,NaN,,,,,,false,,,,402222.5,402222.299999997,,402221.89999999106,,402234.44,8,400,,,
break_continue,html.Screen,4_75_2,2023-05-02T16:55:39.208Z,,0,,,NaN,,,,,,false,,,,402222.799999997,402222.700000003,,402222.59999999404,,402234.44,8,400,,,
sequence,flow.Sequence,4_75,2023-05-02T16:55:39.208Z,,0,,,3288.1280000029947,completion,,,,,false,,,,402223.09999999404,402222.700000003,398917.906,398929.799999997,398934.572,402234.44,8,400,,,
trial,html.Screen,4_76_0,2023-05-02T16:55:43.338Z,,0,2,,4118.359999997017,response,ISIC_0058063.JPG,,ISIC_0026348.JPG,ISIC_0026348.JPG,false,0,keypress(z),500,406353.09999999404,406352.799999997,402217.774,402223.200000003,402234.44,406367.912,8,400,27,,ISIC_0058063.JPG
break,html.Screen,4_76_1,2023-05-02T16:55:43.339Z,,0,,,NaN,,,,,,false,,,,406353.89999999106,406353.700000003,,406353.39999999106,,406367.912,8,400,,,
break_continue,html.Screen,4_76_2,2023-05-02T16:55:43.339Z,,0,,,NaN,,,,,,false,,,,406354.299999997,406354.200000003,,406354.09999999404,,406367.912,8,400,,,
sequence,flow.Sequence,4_76,2023-05-02T16:55:43.340Z,,0,,,4119.760000002978,completion,,,,,false,,,,406354.59999999404,406354.200000003,402217.774,402223.200000003,402234.44,406367.912,8,400,,,
trial,html.Screen,4_77_0,2023-05-02T16:55:47.425Z,,0,2,,4072.288000002969,response,ISIC_6356522.JPG,,ISIC_1607865.JPG,ISIC_1607865.JPG,false,0,keypress(z),500,410440.39999999106,410440.200000003,406351.246,406354.799999997,406367.912,410451.082,8,400,28,,ISIC_6356522.JPG
break,html.Screen,4_77_1,2023-05-02T16:55:47.426Z,,0,,,NaN,,,,,,false,,,,410441.299999997,410441,,410440.700000003,,410451.082,8,400,,,
break_continue,html.Screen,4_77_2,2023-05-02T16:55:47.427Z,,0,,,NaN,,,,,,false,,,,410441.700000003,410441.59999999404,,410441.39999999106,,410451.082,8,400,,,
sequence,flow.Sequence,4_77,2023-05-02T16:55:47.427Z,,0,,,4073.6879999940284,completion,,,,,false,,,,410441.89999999106,410441.59999999404,406351.246,406354.799999997,406367.912,410451.082,8,400,,,
trial,html.Screen,4_78_0,2023-05-02T16:55:51.696Z,,0,2,,4259.118000002985,response,ISIC_0009100.JPG,,ISIC_2386961.JPG,ISIC_2386961.JPG,false,0,keypress(z),500,414710.5,414710.200000003,410434.416,410442,410451.082,414717.578,8,400,29,,ISIC_0009100.JPG
break,html.Screen,4_78_1,2023-05-02T16:55:51.696Z,,0,,,NaN,,,,,,false,,,,414711.39999999106,414711.09999999404,,414710.799999997,,414717.578,8,400,,,
break_continue,html.Screen,4_78_2,2023-05-02T16:55:51.697Z,,0,,,NaN,,,,,,false,,,,414711.799999997,414711.700000003,,414711.59999999404,,414717.578,8,400,,,
sequence,flow.Sequence,4_78,2023-05-02T16:55:51.697Z,,0,,,4260.618000002985,completion,,,,,false,,,,414712.09999999404,414711.700000003,410434.416,410442,410451.082,414717.578,8,400,,,
trial,html.Screen,4_79_0,2023-05-02T16:55:54.652Z,,0,2,,2949.4220000000205,response,ISIC_0031784.JPG,,ISIC_0056930.JPG,ISIC_0056930.JPG,false,0,keypress(z),500,417667.39999999106,417667,414700.912,414712.299999997,414717.578,417684.396,8,400,30,,ISIC_0031784.JPG
break,html.Screen,4_79_1,2023-05-02T16:55:54.653Z,,0,,,NaN,,,,,,false,,,,417668.200000003,417667.89999999106,,417667.700000003,,417684.396,8,400,,,
break_continue,html.Screen,4_79_2,2023-05-02T16:55:54.654Z,,0,,,NaN,,,,,,false,,,,417668.700000003,417668.5,,417668.299999997,,417684.396,8,400,,,
sequence,flow.Sequence,4_79,2023-05-02T16:55:54.654Z,,0,,,2950.9220000000205,completion,,,,,false,,,,417668.89999999106,417668.5,414700.912,414712.200000003,414717.578,417684.396,8,400,,,
trial,html.Screen,4_80_0,2023-05-02T16:55:58.640Z,,0,2,,3970.0039999910514,response,ISIC_0014545.JPG,,ISIC_0032680.JPG,ISIC_0032680.JPG,false,0,keypress(z),500,421654.700000003,421654.39999999106,417667.73,417669,417684.396,421667.57,8,400,31,,ISIC_0014545.JPG
break,html.Screen,4_80_1,2023-05-02T16:55:58.641Z,,0,,,NaN,,,,,,false,,,,421655.5,421655.299999997,,421655,,421667.57,8,400,,,
break_continue,html.Screen,4_80_2,2023-05-02T16:55:58.641Z,,0,,,NaN,,,,,,false,,,,421655.89999999106,421655.799999997,,421655.700000003,,421667.57,8,400,,,
sequence,flow.Sequence,4_80,2023-05-02T16:55:58.641Z,,0,,,3971.403999997012,completion,,,,,false,,,,421656.09999999404,421655.799999997,417667.73,417669,417684.396,421667.57,8,400,,,
trial,html.Screen,4_81_0,2023-05-02T16:56:01.461Z,,0,2,,2807.8299999910523,response,ISIC_7938688.JPG,,ISIC_8485716.JPG,ISIC_8485716.JPG,false,0,keypress(z),500,424475.799999997,424475.39999999106,421650.904,421656.200000003,421667.57,424484.124,8,400,32,,ISIC_7938688.JPG
break,html.Screen,4_81_1,2023-05-02T16:56:01.462Z,,0,,,NaN,,,,,,false,,,,424476.59999999404,424476.39999999106,,424476,,424484.124,8,400,,,
break_continue,html.Screen,4_81_2,2023-05-02T16:56:01.462Z,,0,,,NaN,,,,,,false,,,,424477,424476.89999999106,,424476.799999997,,424484.124,8,400,,,
sequence,flow.Sequence,4_81,2023-05-02T16:56:01.462Z,,0,,,2809.3299999910523,completion,,,,,false,,,,424477.200000003,424476.89999999106,421650.904,421656.200000003,421667.57,424484.124,8,400,,,
trial,html.Screen,4_82_0,2023-05-02T16:56:04.442Z,,0,2,,2972.975999994029,response,ISIC_0064463.JPG,,ISIC_0064113.JPG,ISIC_0064463.JPG,false,1,keypress(m),500,427457.299999997,427457.09999999404,424467.458,424477.39999999106,424484.124,427467.62,8,400,33,,ISIC_0064113.JPG
break,html.Screen,4_82_1,2023-05-02T16:56:04.443Z,,0,,,NaN,,,,,,false,,,,427458.200000003,427457.89999999106,,427457.700000003,,427467.62,8,400,,,
break_continue,html.Screen,4_82_2,2023-05-02T16:56:04.444Z,,0,,,NaN,,,,,,false,,,,427458.5,427458.39999999106,,427458.299999997,,427467.62,8,400,,,
sequence,flow.Sequence,4_82,2023-05-02T16:56:04.444Z,,0,,,2974.2759999910486,completion,,,,,false,,,,427458.799999997,427458.39999999106,424467.458,424477.299999997,424484.124,427467.62,8,400,,,
trial,html.Screen,4_83_0,2023-05-02T16:56:08.439Z,,0,2,,3985.979999994044,response,ISIC_3377082.JPG,,ISIC_0024967.JPG,ISIC_3377082.JPG,false,1,keypress(m),500,431453.89999999106,431453.59999999404,427450.954,427458.89999999106,427467.62,431467.46,8,400,34,,ISIC_0024967.JPG
break,html.Screen,4_83_1,2023-05-02T16:56:08.440Z,,0,,,NaN,,,,,,false,,,,431454.799999997,431454.39999999106,,431454.200000003,,431467.46,8,400,,,
break_continue,html.Screen,4_83_2,2023-05-02T16:56:08.440Z,,0,,,NaN,,,,,,false,,,,431455.200000003,431455,,431454.89999999106,,431467.46,8,400,,,
sequence,flow.Sequence,4_83,2023-05-02T16:56:08.440Z,,0,,,3987.3800000000047,completion,,,,,false,,,,431455.39999999106,431455,427450.954,427458.89999999106,427467.62,431467.46,8,400,,,
trial,html.Screen,4_84_0,2023-05-02T16:56:11.781Z,,0,2,,3327.7400000029593,response,ISIC_0005062.JPG,,ISIC_2498215.JPG,ISIC_0005062.JPG,false,1,keypress(m),500,434795.5,434795.200000003,431450.794,431455.5,431467.46,434800.66,8,400,35,,ISIC_2498215.JPG
break,html.Screen,4_84_1,2023-05-02T16:56:11.781Z,,0,,,NaN,,,,,,false,,,,434796.299999997,434796.09999999404,,434795.700000003,,434800.66,8,400,,,
break_continue,html.Screen,4_84_2,2023-05-02T16:56:11.782Z,,0,,,NaN,,,,,,false,,,,434796.700000003,434796.59999999404,,434796.39999999106,,434800.66,8,400,,,
sequence,flow.Sequence,4_84,2023-05-02T16:56:11.782Z,,0,,,3329.1399999940186,completion,,,,,false,,,,434796.89999999106,434796.59999999404,431450.794,431455.5,431467.46,434800.66,8,400,,,
trial,html.Screen,4_85_0,2023-05-02T16:56:15.061Z,,0,2,,3274.8400000000256,response,ISIC_8108870.JPG,,ISIC_0058851.JPG,ISIC_0058851.JPG,false,0,keypress(z),500,438075.700000003,438075.5,434783.994,434797,434800.66,438084.14,8,400,36,,ISIC_8108870.JPG
break,html.Screen,4_85_1,2023-05-02T16:56:15.062Z,,0,,,NaN,,,,,,false,,,,438076.59999999404,438076.299999997,,438076.09999999404,,438084.14,8,400,,,
break_continue,html.Screen,4_85_2,2023-05-02T16:56:15.062Z,,0,,,NaN,,,,,,false,,,,438077,438076.89999999106,,438076.799999997,,438084.14,8,400,,,
sequence,flow.Sequence,4_85,2023-05-02T16:56:15.062Z,,0,,,3276.239999991085,completion,,,,,false,,,,438077.299999997,438076.89999999106,434783.994,434797,434800.66,438084.14,8,400,,,
trial,html.Screen,4_86_0,2023-05-02T16:56:19.853Z,,0,2,,4783.759999991045,response,ISIC_4277207.JPG,,ISIC_8505243.JPG,ISIC_4277207.JPG,false,1,keypress(m),500,442868.200000003,442867.89999999106,438067.474,438077.39999999106,438084.14,442883.948,8,400,37,,ISIC_8505243.JPG
break,html.Screen,4_86_1,2023-05-02T16:56:19.854Z,,0,,,NaN,,,,,,false,,,,442868.89999999106,442868.700000003,,442868.299999997,,442883.948,8,400,,,
break_continue,html.Screen,4_86_2,2023-05-02T16:56:19.854Z,,0,,,NaN,,,,,,false,,,,442869.39999999106,442869.299999997,,442869.200000003,,442883.948,8,400,,,
sequence,flow.Sequence,4_86,2023-05-02T16:56:19.855Z,,0,,,4785.159999997006,completion,,,,,false,,,,442869.700000003,442869.299999997,438067.474,438077.39999999106,438084.14,442883.948,8,400,,,
trial,html.Screen,4_87_0,2023-05-02T16:56:23.471Z,,0,2,,3602.1519999940647,response,ISIC_0071916.JPG,,ISIC_0029513.JPG,ISIC_0071916.JPG,false,1,keypress(m),500,446486.39999999106,446486.09999999404,442867.282,442869.89999999106,442883.948,446500.47,8,400,38,,ISIC_0029513.JPG
break,html.Screen,4_87_1,2023-05-02T16:56:23.472Z,,0,,,NaN,,,,,,false,,,,446487.299999997,446487,,446486.700000003,,446500.47,8,400,,,
break_continue,html.Screen,4_87_2,2023-05-02T16:56:23.473Z,,0,,,NaN,,,,,,false,,,,446487.700000003,446487.5,,446487.39999999106,,446500.47,8,400,,,
sequence,flow.Sequence,4_87,2023-05-02T16:56:23.473Z,,0,,,3603.552000000025,completion,,,,,false,,,,446487.89999999106,446487.5,442867.282,442869.799999997,442883.948,446500.47,8,400,,,
trial,html.Screen,4_88_0,2023-05-02T16:56:26.344Z,,0,2,,2858.3299999970477,response,ISIC_9225640.JPG,,ISIC_6093728.JPG,ISIC_6093728.JPG,false,0,keypress(z),500,449359.09999999404,449358.799999997,446483.804,446488.09999999404,446500.47,449367.293,8,400,39,,ISIC_9225640.JPG
break,html.Screen,4_88_1,2023-05-02T16:56:26.345Z,,0,,,NaN,,,,,,false,,,,449359.89999999106,449359.700000003,,449359.299999997,,449367.293,8,400,,,
break_continue,html.Screen,4_88_2,2023-05-02T16:56:26.345Z,,0,,,NaN,,,,,,false,,,,449360.39999999106,449360.200000003,,449360.09999999404,,449367.293,8,400,,,
sequence,flow.Sequence,4_88,2023-05-02T16:56:26.346Z,,0,,,2859.730000003008,completion,,,,,false,,,,449360.5,449360.200000003,446483.804,446488,446500.47,449367.293,8,400,,,
trial,html.Screen,4_89_0,2023-05-02T16:56:29.262Z,,0,2,,2909.706999999995,response,ISIC_5951430.JPG,,ISIC_2532544.JPG,ISIC_2532544.JPG,false,0,keypress(z),500,452277.299999997,452277,449350.627,449360.700000003,449367.293,452283.843,8,400,40,,ISIC_5951430.JPG
break,html.Screen,4_89_1,2023-05-02T16:56:29.263Z,,0,,,NaN,,,,,,false,,,,452278.09999999404,452277.89999999106,,452277.5,,452283.843,8,400,,,
break_continue,html.Screen,4_89_2,2023-05-02T16:56:29.264Z,,0,,,NaN,,,,,,false,,,,452278.5,452278.39999999106,,452278.299999997,,452283.843,8,400,,,
sequence,flow.Sequence,4_89,2023-05-02T16:56:29.264Z,,0,,,2911.106999991054,completion,,,,,false,,,,452278.700000003,452278.39999999106,449350.627,449360.700000003,449367.293,452283.843,8,400,,,
trial,html.Screen,4_90_0,2023-05-02T16:56:33.471Z,,0,2,,4202.357000002987,response,ISIC_0962787.JPG,,ISIC_0064784.JPG,ISIC_0962787.JPG,false,1,keypress(m),500,456486.5,456486.200000003,452267.177,452278.89999999106,452283.843,456500.341,8,400,41,,ISIC_0064784.JPG
break,html.Screen,4_90_1,2023-05-02T16:56:33.472Z,,0,,,NaN,,,,,,false,,,,456487.299999997,456487.09999999404,,456486.700000003,,456500.341,8,400,,,
break_continue,html.Screen,4_90_2,2023-05-02T16:56:33.473Z,,0,,,NaN,,,,,,false,,,,456487.59999999404,456487.5,,456487.39999999106,,456500.341,8,400,,,
sequence,flow.Sequence,4_90,2023-05-02T16:56:33.473Z,,0,,,4203.6570000000065,completion,,,,,false,,,,456487.89999999106,456487.5,452267.177,452278.89999999106,452283.843,456500.341,8,400,,,
trial,html.Screen,4_91_0,2023-05-02T16:56:38.009Z,,0,2,,4523.658999999985,response,ISIC_2178032.JPG,,ISIC_0010901.JPG,ISIC_0010901.JPG,false,0,keypress(z),500,461024.299999997,461024,456483.675,456488,456500.341,461033.822,8,400,42,,ISIC_2178032.JPG
break,html.Screen,4_91_1,2023-05-02T16:56:38.010Z,,0,,,NaN,,,,,,false,,,,461025.200000003,461024.89999999106,,461024.59999999404,,461033.822,8,400,,,
break_continue,html.Screen,4_91_2,2023-05-02T16:56:38.011Z,,0,,,NaN,,,,,,false,,,,461025.59999999404,461025.5,,461025.299999997,,461033.822,8,400,,,
sequence,flow.Sequence,4_91,2023-05-02T16:56:38.011Z,,0,,,4525.158999999985,completion,,,,,false,,,,461025.799999997,461025.5,456483.675,456488,456500.341,461033.822,8,400,,,
trial,html.Screen,4_92_0,2023-05-02T16:56:42.266Z,,0,2,,4246.678000000014,response,ISIC_2007034.JPG,,ISIC_0011733.JPG,ISIC_2007034.JPG,false,1,keypress(m),500,465280.799999997,465280.5,461017.156,461026,461033.822,465283.652,8,400,43,,ISIC_0011733.JPG
break,html.Screen,4_92_1,2023-05-02T16:56:42.267Z,,0,,,NaN,,,,,,false,,,,465281.59999999404,465281.5,,465281.09999999404,,465283.652,8,400,,,
break_continue,html.Screen,4_92_2,2023-05-02T16:56:42.267Z,,0,,,NaN,,,,,,false,,,,465282,465281.89999999106,,465281.799999997,,465283.652,8,400,,,
sequence,flow.Sequence,4_92,2023-05-02T16:56:42.267Z,,0,,,4248.077999991074,completion,,,,,false,,,,465282.200000003,465281.89999999106,461017.156,461025.89999999106,461033.822,465283.652,8,400,,,
trial,html.Screen,4_93_0,2023-05-02T16:56:45.067Z,,0,2,,2797.5480000029784,response,ISIC_9644813.JPG,,ISIC_0000159.JPG,ISIC_9644813.JPG,false,1,keypress(m),500,468081.59999999404,468081.200000003,465266.986,465282.39999999106,465283.652,468083.54,8,400,44,,ISIC_0000159.JPG
break,html.Screen,4_93_1,2023-05-02T16:56:45.067Z,,0,,,NaN,,,,,,false,,,,468082.39999999106,468082.09999999404,,468081.799999997,,468083.54,8,400,,,
break_continue,html.Screen,4_93_2,2023-05-02T16:56:45.068Z,,0,,,NaN,,,,,,false,,,,468082.799999997,468082.700000003,,468082.5,,468083.54,8,400,,,
sequence,flow.Sequence,4_93,2023-05-02T16:56:45.068Z,,0,,,2799.0480000029784,completion,,,,,false,,,,468083,468082.700000003,465266.986,465282.39999999106,465283.652,468083.54,8,400,,,
trial,html.Screen,4_94_0,2023-05-02T16:56:48.698Z,,0,2,,3629.2599999970407,response,ISIC_0032862.JPG,,ISIC_1379405.JPG,ISIC_1379405.JPG,false,0,keypress(z),500,471713.09999999404,471712.799999997,468066.874,468083.200000003,468083.54,471717.007,8,400,45,,ISIC_0032862.JPG
break,html.Screen,4_94_1,2023-05-02T16:56:48.699Z,,0,,,NaN,,,,,,false,,,,471714,471713.799999997,,471713.5,,471717.007,8,400,,,
break_continue,html.Screen,4_94_2,2023-05-02T16:56:48.700Z,,0,,,NaN,,,,,,false,,,,471714.5,471714.299999997,,471714.200000003,,471717.007,8,400,,,
sequence,flow.Sequence,4_94,2023-05-02T16:56:48.700Z,,0,,,3630.7599999970407,completion,,,,,false,,,,471714.59999999404,471714.299999997,468066.874,468083.09999999404,468083.54,471717.007,8,400,,,
trial,html.Screen,4_95_0,2023-05-02T16:56:51.616Z,,0,2,,2913.193000002997,response,ISIC_0200153.JPG,,ISIC_1863917.JPG,ISIC_0200153.JPG,false,1,keypress(m),500,474630.5,474630.200000003,471700.341,471714.799999997,471717.007,474633.557,8,400,46,,ISIC_1863917.JPG
break,html.Screen,4_95_1,2023-05-02T16:56:51.616Z,,0,,,NaN,,,,,,false,,,,474631.299999997,474631,,474630.700000003,,474633.557,8,400,,,
break_continue,html.Screen,4_95_2,2023-05-02T16:56:51.617Z,,0,,,NaN,,,,,,false,,,,474631.59999999404,474631.5,,474631.39999999106,,474633.557,8,400,,,
sequence,flow.Sequence,4_95,2023-05-02T16:56:51.617Z,,0,,,2914.4930000000168,completion,,,,,false,,,,474631.89999999106,474631.5,471700.341,471714.700000003,471717.007,474633.557,8,400,,,
trial,html.Screen,4_96_0,2023-05-02T16:56:55.653Z,,0,2,,4033.9430000000284,response,ISIC_7637597.JPG,,ISIC_6178088.JPG,ISIC_6178088.JPG,false,0,keypress(z),500,478667.799999997,478667.5,474616.891,474632,474633.557,478683.395,8,400,47,,ISIC_7637597.JPG
break,html.Screen,4_96_1,2023-05-02T16:56:55.654Z,,0,,,NaN,,,,,,false,,,,478668.59999999404,478668.39999999106,,478668.09999999404,,478683.395,8,400,,,
break_continue,html.Screen,4_96_2,2023-05-02T16:56:55.654Z,,0,,,NaN,,,,,,false,,,,478669.09999999404,478668.89999999106,,478668.799999997,,478683.395,8,400,,,
sequence,flow.Sequence,4_96,2023-05-02T16:56:55.654Z,,0,,,4035.3429999910877,completion,,,,,false,,,,478669.299999997,478668.89999999106,474616.891,474632,474633.557,478683.395,8,400,,,
trial,html.Screen,4_97_0,2023-05-02T16:56:59.505Z,,0,2,,3835.904999997001,response,ISIC_0010241.JPG,,ISIC_0070992.JPG,ISIC_0010241.JPG,false,1,keypress(m),500,482519.700000003,482519.299999997,478666.729,478669.39999999106,478683.395,482533.524,8,400,48,,ISIC_0070992.JPG
break,html.Screen,4_97_1,2023-05-02T16:56:59.506Z,,0,,,NaN,,,,,,false,,,,482520.5,482520.200000003,,482519.799999997,,482533.524,8,400,,,
break_continue,html.Screen,4_97_2,2023-05-02T16:56:59.506Z,,0,,,NaN,,,,,,false,,,,482520.89999999106,482520.700000003,,482520.59999999404,,482533.524,8,400,,,
sequence,flow.Sequence,4_97,2023-05-02T16:56:59.506Z,,0,,,3837.3050000029616,completion,,,,,false,,,,482521.09999999404,482520.700000003,478666.729,478669.39999999106,478683.395,482533.524,8,400,,,
trial,html.Screen,4_98_0,2023-05-02T16:57:03.525Z,,0,2,,4005.976000000024,response,ISIC_6547707.JPG,,ISIC_0069411.JPG,ISIC_6547707.JPG,false,1,keypress(m),500,486539.799999997,486539.5,482516.858,482521.200000003,482533.524,486550.03,8,400,49,,ISIC_0069411.JPG
break,html.Screen,4_98_1,2023-05-02T16:57:03.526Z,,0,,,NaN,,,,,,false,,,,486540.59999999404,486540.39999999106,,486540,,486550.03,8,400,,,
break_continue,html.Screen,4_98_2,2023-05-02T16:57:03.526Z,,0,,,NaN,,,,,,false,,,,486541.09999999404,486540.89999999106,,486540.799999997,,486550.03,8,400,,,
sequence,flow.Sequence,4_98,2023-05-02T16:57:03.526Z,,0,,,4007.3759999910835,completion,,,,,false,,,,486541.299999997,486540.89999999106,482516.858,482521.200000003,482533.524,486550.03,8,400,,,
trial,html.Screen,4_99_0,2023-05-02T16:57:07.412Z,,0,2,,3876.969999999972,response,ISIC_2304753.JPG,,ISIC_0060153.JPG,ISIC_0060153.JPG,false,0,keypress(Z),500,490427.299999997,490427,486533.364,486541.39999999106,486550.03,490433.208,8,400,50,,ISIC_2304753.JPG
break,html.Screen,4_99_1,2023-05-02T16:57:12.404Z,,0,,,4999.799999999988,timeout,,,,,false,,,,495419.09999999404,495416.342,490416.542,490427.59999999404,490433.208,495433.008,8,400,,,
break_continue,html.Screen,4_99_2,2023-05-02T16:57:13.175Z,,0,,,738.2919999970472,response,,,,,false,continue,keypress(Space),,496190,496171.299999997,495416.342,495419.200000003,495433.008,496199.644,8,400,,,
sequence,flow.Sequence,4_99,2023-05-02T16:57:13.175Z,,0,,,9621.269999996992,completion,,,,,false,,,,496190.09999999404,496171.299999997,486533.364,486541.299999997,486550.03,496199.644,8,400,,,
trial,html.Screen,4_100_0,2023-05-02T16:57:15.918Z,,0,3,,2733.356000000029,response,ISIC_0413173.JPG,,ISIC_0027798.JPG,ISIC_0027798.JPG,false,0,keypress(Z),500,498933.299999997,498933,496182.978,496190.200000003,496199.644,498949.534,8,400,1,,ISIC_0413173.JPG
break,html.Screen,4_100_1,2023-05-02T16:57:15.919Z,,0,,,NaN,,,,,,false,,,,498934.09999999404,498933.89999999106,,498933.59999999404,,498949.534,8,400,,,
break_continue,html.Screen,4_100_2,2023-05-02T16:57:15.920Z,,0,,,NaN,,,,,,false,,,,498934.59999999404,498934.5,,498934.299999997,,498949.534,8,400,,,
sequence,flow.Sequence,4_100,2023-05-02T16:57:15.920Z,,0,,,2734.856000000029,completion,,,,,false,,,,498934.799999997,498934.5,496182.978,496190.200000003,496199.644,498949.534,8,400,,,
trial,html.Screen,4_101_0,2023-05-02T16:57:20.248Z,,0,3,,4312.666000002995,response,ISIC_0071069.JPG,,ISIC_9339756.JPG,ISIC_9339756.JPG,false,0,keypress(Z),500,503262.39999999106,503262.200000003,498932.868,498935,498949.534,503266.571,8,400,2,,ISIC_0071069.JPG
break,html.Screen,4_101_1,2023-05-02T16:57:20.248Z,,0,,,NaN,,,,,,false,,,,503263.299999997,503263.09999999404,,503262.700000003,,503266.571,8,400,,,
break_continue,html.Screen,4_101_2,2023-05-02T16:57:20.249Z,,0,,,NaN,,,,,,false,,,,503263.700000003,503263.39999999106,,503263.39999999106,,503266.571,8,400,,,
sequence,flow.Sequence,4_101,2023-05-02T16:57:20.249Z,,0,,,4313.865999991074,completion,,,,,false,,,,503263.89999999106,503263.39999999106,498932.868,498934.799999997,498949.534,503266.571,8,400,,,
trial,html.Screen,4_102_0,2023-05-02T16:57:28.645Z,,0,3,,8392.828999991063,response,ISIC_0004961.JPG,,ISIC_0201767.JPG,ISIC_0201767.JPG,false,0,keypress(Z),500,511659.59999999404,511659.39999999106,503249.905,503263.89999999106,503266.571,511666.235,8,400,3,,ISIC_0004961.JPG
break,html.Screen,4_102_1,2023-05-02T16:57:28.646Z,,0,,,NaN,,,,,,false,,,,511660.5,511660.200000003,,511659.89999999106,,511666.235,8,400,,,
break_continue,html.Screen,4_102_2,2023-05-02T16:57:28.646Z,,0,,,NaN,,,,,,false,,,,511660.89999999106,511660.700000003,,511660.59999999404,,511666.235,8,400,,,
sequence,flow.Sequence,4_102,2023-05-02T16:57:28.646Z,,0,,,8394.129000002984,completion,,,,,false,,,,511661.09999999404,511660.700000003,503249.905,503263.89999999106,503266.571,511666.235,8,400,,,
trial,html.Screen,4_103_0,2023-05-02T16:57:40.136Z,,0,3,,11516.739000000001,timeout,ISIC_4139260.JPG,,ISIC_7822725.JPG,,false,,,500,523151.299999997,523150.89999999106,511649.569,511661.200000003,511666.235,523182.974,8,400,4,,
break,html.Screen,4_103_1,2023-05-02T16:57:40.137Z,,0,,,NaN,,,,,,false,,,,523151.89999999106,523151.700000003,,523151.39999999106,,523182.974,8,400,,,
break_continue,html.Screen,4_103_2,2023-05-02T16:57:40.137Z,,0,,,NaN,,,,,,false,,,,523152.39999999106,523152.200000003,,523152.09999999404,,523182.974,8,400,,,
sequence,flow.Sequence,4_103,2023-05-02T16:57:40.138Z,,0,,,11485.965000002994,completion,,,,,false,,,,523152.5,523152.200000003,511649.569,511661.200000003,511666.235,523182.974,8,400,,,
trial,html.Screen,4_104_0,2023-05-02T16:57:43.535Z,,0,3,,3367.125999994052,response,ISIC_9119549.JPG,,ISIC_0058151.JPG,ISIC_9119549.JPG,false,1,keypress(m),500,526550.3999999911,526550.099999994,523166.046,523152.700000003,523182.974,526566.172,8,400,5,,ISIC_0058151.JPG
break,html.Screen,4_104_1,2023-05-02T16:57:43.536Z,,0,,,NaN,,,,,,false,,,,526551.200000003,526550.8999999911,,526550.700000003,,526566.172,8,400,,,
break_continue,html.Screen,4_104_2,2023-05-02T16:57:43.537Z,,0,,,NaN,,,,,,false,,,,526551.599999994,526551.5,,526551.299999997,,526566.172,8,400,,,
sequence,flow.Sequence,4_104,2023-05-02T16:57:43.537Z,,0,,,3368.5260000000126,completion,,,,,false,,,,526551.799999997,526551.5,523166.046,523152.59999999404,523182.974,526566.172,8,400,,,
trial,html.Screen,4_105_0,2023-05-02T16:57:46.458Z,,0,3,,2906.8279999999795,response,ISIC_0010207.JPG,,ISIC_8406262.JPG,ISIC_8406262.JPG,false,0,keypress(z),500,529473.200000003,529473,526549.506,526551.8999999911,526566.172,529482.722,8,400,6,,ISIC_0010207.JPG
break,html.Screen,4_105_1,2023-05-02T16:57:46.459Z,,0,,,NaN,,,,,,false,,,,529473.3999999911,529473.3999999911,,529473.299999997,,529482.722,8,400,,,
break_continue,html.Screen,4_105_2,2023-05-02T16:57:46.459Z,,0,,,NaN,,,,,,false,,,,529473.599999994,529473.5,,529473.5,,529482.722,8,400,,,
sequence,flow.Sequence,4_105,2023-05-02T16:57:46.459Z,,0,,,2907.3279999999795,completion,,,,,false,,,,529473.700000003,529473.5,526549.506,526551.8999999911,526566.172,529482.722,8,400,,,
trial,html.Screen,4_106_0,2023-05-02T16:57:50.368Z,,0,3,,3899.9780000030296,response,ISIC_0074311.JPG,,ISIC_8021960.JPG,ISIC_8021960.JPG,false,0,keypress(z),500,533383,533382.700000003,529466.056,529473.700000003,529482.722,533399.232,8,400,7,,ISIC_0074311.JPG
break,html.Screen,4_106_1,2023-05-02T16:57:50.369Z,,0,,,NaN,,,,,,false,,,,533383.799999997,533383.599999994,,533383.200000003,,533399.232,8,400,,,
break_continue,html.Screen,4_106_2,2023-05-02T16:57:50.369Z,,0,,,NaN,,,,,,false,,,,533384.200000003,533384,,533383.8999999911,,533399.232,8,400,,,
sequence,flow.Sequence,4_106,2023-05-02T16:57:50.369Z,,0,,,3901.2780000000494,completion,,,,,false,,,,533384.3999999911,533384,529466.056,529473.700000003,529482.722,533399.232,8,400,,,
trial,html.Screen,4_107_0,2023-05-02T16:57:54.581Z,,0,3,,4196.167999991099,response,ISIC_0011209.JPG,,ISIC_3249704.JPG,ISIC_0011209.JPG,false,1,keypress(m),500,537595.799999997,537595.3999999911,533382.566,533384.5,533399.232,537599.332,8,400,8,,ISIC_3249704.JPG
break,html.Screen,4_107_1,2023-05-02T16:57:54.582Z,,0,,,NaN,,,,,,false,,,,537596.599999994,537596.3999999911,,537596.099999994,,537599.332,8,400,,,
break_continue,html.Screen,4_107_2,2023-05-02T16:57:54.582Z,,0,,,NaN,,,,,,false,,,,537597,537596.799999997,,537596.700000003,,537599.332,8,400,,,
sequence,flow.Sequence,4_107,2023-05-02T16:57:54.582Z,,0,,,4197.56799999706,completion,,,,,false,,,,537597.200000003,537596.799999997,533382.566,533384.5,533399.232,537599.332,8,400,,,
trial,html.Screen,4_108_0,2023-05-02T16:57:57.614Z,,0,3,,3029.2679999939865,response,ISIC_7276156.JPG,,ISIC_3761253.JPG,ISIC_7276156.JPG,false,1,keypress(m),500,540628.8999999911,540628.599999994,537582.666,537597.3999999911,537599.332,540632.544,8,400,9,,ISIC_3761253.JPG
break,html.Screen,4_108_1,2023-05-02T16:57:57.615Z,,0,,,NaN,,,,,,false,,,,540629.700000003,540629.5,,540629.099999994,,540632.544,8,400,,,
break_continue,html.Screen,4_108_2,2023-05-02T16:57:57.615Z,,0,,,NaN,,,,,,false,,,,540630.099999994,540630,,540629.8999999911,,540632.544,8,400,,,
sequence,flow.Sequence,4_108,2023-05-02T16:57:57.615Z,,0,,,3030.667999999947,completion,,,,,false,,,,540630.299999997,540630,537582.666,537597.299999997,537599.332,540632.544,8,400,,,
trial,html.Screen,4_109_0,2023-05-02T16:58:00.436Z,,0,3,,2817.7559999970254,response,ISIC_1911193.JPG,,ISIC_0032699.JPG,ISIC_1911193.JPG,false,1,keypress(m),500,543450.599999994,543450.299999997,540615.878,540630.5,540632.544,543465.764,8,400,10,,ISIC_0032699.JPG
break,html.Screen,4_109_1,2023-05-02T16:58:00.437Z,,0,,,NaN,,,,,,false,,,,543451.3999999911,543451.099999994,,543450.799999997,,543465.764,8,400,,,
break_continue,html.Screen,4_109_2,2023-05-02T16:58:00.437Z,,0,,,NaN,,,,,,false,,,,543451.799999997,543451.700000003,,543451.5,,543465.764,8,400,,,
sequence,flow.Sequence,4_109,2023-05-02T16:58:00.437Z,,0,,,2819.156000002986,completion,,,,,false,,,,543452,543451.700000003,540615.878,540630.3999999911,540632.544,543465.764,8,400,,,
trial,html.Screen,4_110_0,2023-05-02T16:58:03.268Z,,0,3,,2816.5359999970533,response,ISIC_0360367.JPG,,ISIC_0033905.JPG,ISIC_0360367.JPG,false,1,keypress(m),500,546282.700000003,546282.299999997,543449.098,543452.200000003,543465.764,546299.247,8,400,11,,ISIC_0033905.JPG
break,html.Screen,4_110_1,2023-05-02T16:58:03.269Z,,0,,,NaN,,,,,,false,,,,546283.5,546283.200000003,,546282.799999997,,546299.247,8,400,,,
break_continue,html.Screen,4_110_2,2023-05-02T16:58:03.269Z,,0,,,NaN,,,,,,false,,,,546283.799999997,546283.700000003,,546283.700000003,,546299.247,8,400,,,
sequence,flow.Sequence,4_110,2023-05-02T16:58:03.269Z,,0,,,2817.9360000030138,completion,,,,,false,,,,546284.099999994,546283.700000003,543449.098,543452.099999994,543465.764,546299.247,8,400,,,
trial,html.Screen,4_111_0,2023-05-02T16:58:05.828Z,,0,3,,2543.4530000030063,response,ISIC_8617277.JPG,,ISIC_4174983.JPG,ISIC_4174983.JPG,false,0,keypress(z),500,548843.099999994,548842.700000003,546282.581,546284.299999997,546299.247,548849.145,8,400,12,,ISIC_8617277.JPG
break,html.Screen,4_111_1,2023-05-02T16:58:05.829Z,,0,,,NaN,,,,,,false,,,,548844,548843.799999997,,548843.299999997,,548849.145,8,400,,,
break_continue,html.Screen,4_111_2,2023-05-02T16:58:05.830Z,,0,,,NaN,,,,,,false,,,,548844.5,548844.299999997,,548844.200000003,,548849.145,8,400,,,
sequence,flow.Sequence,4_111,2023-05-02T16:58:05.830Z,,0,,,2545.052999997046,completion,,,,,false,,,,548844.599999994,548844.299999997,546282.581,546284.200000003,546299.247,548849.145,8,400,,,
trial,html.Screen,4_112_0,2023-05-02T16:58:08.789Z,,0,3,,2954.8549999999814,response,ISIC_0029593.JPG,,ISIC_3425388.JPG,ISIC_3425388.JPG,false,0,keypress(z),500,551804.200000003,551804,548832.479,548844.799999997,548849.145,551815.693,8,400,13,,ISIC_0029593.JPG
break,html.Screen,4_112_1,2023-05-02T16:58:08.790Z,,0,,,NaN,,,,,,false,,,,551805.099999994,551804.799999997,,551804.5,,551815.693,8,400,,,
break_continue,html.Screen,4_112_2,2023-05-02T16:58:08.791Z,,0,,,NaN,,,,,,false,,,,551805.5,551805.299999997,,551805.200000003,,551815.693,8,400,,,
sequence,flow.Sequence,4_112,2023-05-02T16:58:08.791Z,,0,,,2956.154999997001,completion,,,,,false,,,,551805.700000003,551805.299999997,548832.479,548844.799999997,548849.145,551815.693,8,400,,,
trial,html.Screen,4_113_0,2023-05-02T16:58:11.754Z,,0,3,,2953.1069999970496,response,ISIC_9226193.JPG,,ISIC_1560455.JPG,ISIC_9226193.JPG,false,1,keypress(m),500,554769.099999994,554768.799999997,551799.027,551805.8999999911,551815.693,554782.524,8,400,14,,ISIC_1560455.JPG
break,html.Screen,4_113_1,2023-05-02T16:58:11.755Z,,0,,,NaN,,,,,,false,,,,554770,554769.799999997,,554769.299999997,,554782.524,8,400,,,
break_continue,html.Screen,4_113_2,2023-05-02T16:58:11.755Z,,0,,,NaN,,,,,,false,,,,554770.299999997,554770.299999997,,554770.099999994,,554782.524,8,400,,,
sequence,flow.Sequence,4_113,2023-05-02T16:58:11.756Z,,0,,,2954.6069999970496,completion,,,,,false,,,,554770.5,554770.299999997,551799.027,551805.799999997,551815.693,554782.524,8,400,,,
trial,html.Screen,4_114_0,2023-05-02T16:58:17.072Z,,0,3,,5303.676000003004,response,ISIC_5386244.JPG,,ISIC_2142639.JPG,ISIC_5386244.JPG,false,1,keypress(m),500,560086.3999999911,560086.200000003,554765.858,554770.700000003,554782.524,560098.978,8,400,15,,ISIC_2142639.JPG
break,html.Screen,4_114_1,2023-05-02T16:58:17.072Z,,0,,,NaN,,,,,,false,,,,560087.299999997,560087.099999994,,560086.799999997,,560098.978,8,400,,,
break_continue,html.Screen,4_114_2,2023-05-02T16:58:17.073Z,,0,,,NaN,,,,,,false,,,,560087.700000003,560087.5,,560087.5,,560098.978,8,400,,,
sequence,flow.Sequence,4_114,2023-05-02T16:58:17.073Z,,0,,,5304.976000000024,completion,,,,,false,,,,560088,560087.5,554765.858,554770.599999994,554782.524,560098.978,8,400,,,
trial,html.Screen,4_115_0,2023-05-02T16:58:21.360Z,,0,3,,4276.121999994037,response,ISIC_0002295.JPG,,ISIC_5919355.JPG,ISIC_5919355.JPG,false,0,keypress(z),500,564375.299999997,564375.099999994,560082.312,560088.099999994,560098.978,564382.14,8,400,16,,ISIC_0002295.JPG
break,html.Screen,4_115_1,2023-05-02T16:58:21.361Z,,0,,,NaN,,,,,,false,,,,564376.099999994,564375.799999997,,564375.5,,564382.14,8,400,,,
break_continue,html.Screen,4_115_2,2023-05-02T16:58:21.362Z,,0,,,NaN,,,,,,false,,,,564376.599999994,564376.3999999911,,564376.3999999911,,564382.14,8,400,,,
sequence,flow.Sequence,4_115,2023-05-02T16:58:21.362Z,,0,,,4277.4219999910565,completion,,,,,false,,,,564376.700000003,564376.3999999911,560082.312,560088.099999994,560098.978,564382.14,8,400,,,
trial,html.Screen,4_116_0,2023-05-02T16:58:26.534Z,,0,3,,5166.759999991045,response,ISIC_7287540.JPG,,ISIC_0069558.JPG,ISIC_7287540.JPG,false,1,keypress(m),500,569549.299999997,569548.8999999911,564365.474,564376.8999999911,564382.14,569565.531,8,400,17,,ISIC_0069558.JPG
break,html.Screen,4_116_1,2023-05-02T16:58:26.535Z,,0,,,NaN,,,,,,false,,,,569550.099999994,569549.8999999911,,569549.599999994,,569565.531,8,400,,,
break_continue,html.Screen,4_116_2,2023-05-02T16:58:26.536Z,,0,,,NaN,,,,,,false,,,,569550.5,569550.3999999911,,569550.299999997,,569565.531,8,400,,,
sequence,flow.Sequence,4_116,2023-05-02T16:58:26.536Z,,0,,,5168.259999991045,completion,,,,,false,,,,569550.700000003,569550.3999999911,564365.474,564376.8999999911,564382.14,569565.531,8,400,,,
trial,html.Screen,4_117_0,2023-05-02T16:58:29.706Z,,0,3,,3155.2689999970607,response,ISIC_3941147.JPG,,ISIC_0032466.JPG,ISIC_3941147.JPG,false,1,keypress(m),500,572721.099999994,572720.799999997,569548.865,569550.799999997,569565.531,572732.071,8,400,18,,ISIC_0032466.JPG
break,html.Screen,4_117_1,2023-05-02T16:58:29.707Z,,0,,,NaN,,,,,,false,,,,572722,572721.700000003,,572721.299999997,,572732.071,8,400,,,
break_continue,html.Screen,4_117_2,2023-05-02T16:58:29.707Z,,0,,,NaN,,,,,,false,,,,572722.299999997,572722.200000003,,572722.099999994,,572732.071,8,400,,,
sequence,flow.Sequence,4_117,2023-05-02T16:58:29.708Z,,0,,,3156.669000003021,completion,,,,,false,,,,572722.599999994,572722.200000003,569548.865,569550.799999997,569565.531,572732.071,8,400,,,
trial,html.Screen,4_118_0,2023-05-02T16:58:34.083Z,,0,3,,4365.828999991063,response,ISIC_7287303.JPG,,ISIC_0058047.JPG,ISIC_0058047.JPG,false,0,keypress(z),500,577098.099999994,577097.8999999911,572715.405,572722.700000003,572732.071,577115.549,8,400,19,,ISIC_7287303.JPG
break,html.Screen,4_118_1,2023-05-02T16:58:34.084Z,,0,,,NaN,,,,,,false,,,,577099,577098.700000003,,577098.299999997,,577115.549,8,400,,,
break_continue,html.Screen,4_118_2,2023-05-02T16:58:34.084Z,,0,,,NaN,,,,,,false,,,,577099.3999999911,577099.200000003,,577099.099999994,,577115.549,8,400,,,
sequence,flow.Sequence,4_118,2023-05-02T16:58:34.085Z,,0,,,4367.129000002984,completion,,,,,false,,,,577099.599999994,577099.200000003,572715.405,572722.599999994,572732.071,577115.549,8,400,,,
trial,html.Screen,4_119_0,2023-05-02T16:58:39.711Z,,0,3,,5610.250999997021,response,ISIC_0057218.JPG,,ISIC_5758316.JPG,ISIC_0057218.JPG,false,1,keypress(m),500,582726.099999994,582725.799999997,577098.883,577099.799999997,577115.549,582731.991,8,400,20,,ISIC_5758316.JPG
break,html.Screen,4_119_1,2023-05-02T16:58:39.712Z,,0,,,NaN,,,,,,false,,,,582727,582726.799999997,,582726.3999999911,,582731.991,8,400,,,
break_continue,html.Screen,4_119_2,2023-05-02T16:58:39.712Z,,0,,,NaN,,,,,,false,,,,582727.299999997,582727.299999997,,582727.099999994,,582731.991,8,400,,,
sequence,flow.Sequence,4_119,2023-05-02T16:58:39.713Z,,0,,,5611.750999997021,completion,,,,,false,,,,582727.599999994,582727.299999997,577098.883,577099.700000003,577115.549,582731.991,8,400,,,
trial,html.Screen,4_120_0,2023-05-02T16:58:42.548Z,,0,3,,2830.209000002942,response,ISIC_1929937.JPG,,ISIC_0032339.JPG,ISIC_1929937.JPG,false,1,keypress(m),500,585562.3999999911,585562.200000003,582715.325,582727.799999997,582731.991,585565.211,8,400,21,,ISIC_0032339.JPG
break,html.Screen,4_120_1,2023-05-02T16:58:42.548Z,,0,,,NaN,,,,,,false,,,,585563.299999997,585563.099999994,,585562.700000003,,585565.211,8,400,,,
break_continue,html.Screen,4_120_2,2023-05-02T16:58:42.549Z,,0,,,NaN,,,,,,false,,,,585563.799999997,585563.599999994,,585563.5,,585565.211,8,400,,,
sequence,flow.Sequence,4_120,2023-05-02T16:58:42.549Z,,0,,,2831.6089999940014,completion,,,,,false,,,,585564,585563.599999994,582715.325,582727.599999994,582731.991,585565.211,8,400,,,
trial,html.Screen,4_121_0,2023-05-02T16:58:49.082Z,,0,3,,6531.188999991049,response,ISIC_5529924.JPG,,ISIC_0014684.JPG,ISIC_0014684.JPG,false,0,keypress(z),500,592096.799999997,592096.3999999911,585548.545,585564.099999994,585565.211,592098.556,8,400,22,,ISIC_5529924.JPG
break,html.Screen,4_121_1,2023-05-02T16:58:49.083Z,,0,,,NaN,,,,,,false,,,,592097.700000003,592097.3999999911,,592097,,592098.556,8,400,,,
break_continue,html.Screen,4_121_2,2023-05-02T16:58:49.083Z,,0,,,NaN,,,,,,false,,,,592098.099999994,592098,,592097.799999997,,592098.556,8,400,,,
sequence,flow.Sequence,4_121,2023-05-02T16:58:49.083Z,,0,,,6532.78899999999,completion,,,,,false,,,,592098.299999997,592098,585548.545,585564,585565.211,592098.556,8,400,,,
trial,html.Screen,4_122_0,2023-05-02T16:58:52.586Z,,0,3,,3502.2439999970375,response,ISIC_9630931.JPG,,ISIC_0011140.JPG,ISIC_9630931.JPG,false,1,keypress(m),500,595601,595600.799999997,592081.89,592098.3999999911,592098.556,595615.082,8,400,23,,ISIC_0011140.JPG
break,html.Screen,4_122_1,2023-05-02T16:58:52.587Z,,0,,,NaN,,,,,,false,,,,595601.8999999911,595601.700000003,,595601.299999997,,595615.082,8,400,,,
break_continue,html.Screen,4_122_2,2023-05-02T16:58:52.587Z,,0,,,NaN,,,,,,false,,,,595602.3999999911,595602.200000003,,595602,,595615.082,8,400,,,
sequence,flow.Sequence,4_122,2023-05-02T16:58:52.588Z,,0,,,3503.644000002998,completion,,,,,false,,,,595602.599999994,595602.200000003,592081.89,592098.3999999911,592098.556,595615.082,8,400,,,
trial,html.Screen,4_123_0,2023-05-02T16:58:56.057Z,,0,3,,3456.118000002927,response,ISIC_0053846.JPG,,ISIC_0046828.JPG,ISIC_0053846.JPG,false,1,keypress(m),500,599071.599999994,599071.200000003,595598.416,595602.700000003,595615.082,599081.872,8,400,24,,ISIC_0046828.JPG
break,html.Screen,4_123_1,2023-05-02T16:58:56.057Z,,0,,,NaN,,,,,,false,,,,599072.299999997,599072.099999994,,599071.700000003,,599081.872,8,400,,,
break_continue,html.Screen,4_123_2,2023-05-02T16:58:56.058Z,,0,,,NaN,,,,,,false,,,,599072.799999997,599072.599999994,,599072.3999999911,,599081.872,8,400,,,
sequence,flow.Sequence,4_123,2023-05-02T16:58:56.058Z,,0,,,3457.5179999939865,completion,,,,,false,,,,599073,599072.599999994,595598.416,595602.599999994,595615.082,599081.872,8,400,,,
trial,html.Screen,4_124_0,2023-05-02T16:58:59.358Z,,0,3,,3290.628000000026,response,ISIC_3857463.JPG,,ISIC_3893354.JPG,ISIC_3893354.JPG,false,0,keypress(z),500,602372.799999997,602372.5,599065.206,599073.099999994,599081.872,602381.74,8,400,25,,ISIC_3857463.JPG
break,html.Screen,4_124_1,2023-05-02T16:58:59.359Z,,0,,,NaN,,,,,,false,,,,602373.599999994,602373.299999997,,602373,,602381.74,8,400,,,
break_continue,html.Screen,4_124_2,2023-05-02T16:58:59.359Z,,0,,,NaN,,,,,,false,,,,602374,602373.799999997,,602373.700000003,,602381.74,8,400,,,
sequence,flow.Sequence,4_124,2023-05-02T16:58:59.359Z,,0,,,3291.927999997046,completion,,,,,false,,,,602374.200000003,602373.799999997,599065.206,599073.099999994,599081.872,602381.74,8,400,,,
trial,html.Screen,4_125_0,2023-05-02T16:59:02.989Z,,0,3,,3622.059999997029,response,ISIC_0009868.JPG,,ISIC_0054206.JPG,ISIC_0054206.JPG,false,0,keypress(z),500,606004,606003.799999997,602365.074,602374.299999997,602381.74,606014.928,8,400,26,,ISIC_0009868.JPG
break,html.Screen,4_125_1,2023-05-02T16:59:02.990Z,,0,,,NaN,,,,,,false,,,,606004.8999999911,606004.700000003,,606004.299999997,,606014.928,8,400,,,
break_continue,html.Screen,4_125_2,2023-05-02T16:59:02.990Z,,0,,,NaN,,,,,,false,,,,606005.299999997,606005.099999994,,606005.099999994,,606014.928,8,400,,,
sequence,flow.Sequence,4_125,2023-05-02T16:59:02.991Z,,0,,,3623.359999994049,completion,,,,,false,,,,606005.5,606005.099999994,602365.074,602374.200000003,602381.74,606014.928,8,400,,,
trial,html.Screen,4_126_0,2023-05-02T16:59:08.715Z,,0,3,,5714.671999994083,response,ISIC_0031586.JPG,,ISIC_4882389.JPG,ISIC_4882389.JPG,false,0,keypress(z),500,611729.8999999911,611729.599999994,605998.262,606005.700000003,606014.928,611731.638,8,400,27,,ISIC_0031586.JPG
break,html.Screen,4_126_1,2023-05-02T16:59:08.716Z,,0,,,NaN,,,,,,false,,,,611730.700000003,611730.5,,611730.099999994,,611731.638,8,400,,,
