sender,sender_type,sender_id,timestamp,meta,,blockNo,condition,duration,ended_on,img_left,img_reveal,img_right,loser,practice,response,response_action,selection_duration,time_commit,time_end,time_render,time_run,time_show,time_switch,total_blocks,total_trials,trialNo,url,winner
informed_consent,html.Screen,0,2023-05-03T18:07:50.866Z,"{""labjs_version"":""20.2.4"",""labjs_build"":{""flavor"":""production"",""commit"":""f5b4a49f956347addd546a832a3327688c2c0fef""},""location"":""https://run.pavlovia.org/MurrayBennett/melanoma-2afc/?participant=65083"",""userAgent"":""Mozilla/5.0 (Windows NT 10.0; Win64; x64) AppleWebKit/537.36 (KHTML, like Gecko) Chrome/112.0.0.0 Safari/537.36"",""platform"":""Win32"",""language"":""en-US"",""locale"":""en-US"",""timeZone"":""America/Chicago"",""timezoneOffset"":300,""screen_width"":1920,""screen_height"":1080,""scroll_width"":1920,""scroll_height"":921,""window_innerWidth"":1920,""window_innerHeight"":969,""devicePixelRatio"":1}",,,,1999.5340000029803,response,,,,,,consent,click button,,3970.7000000029802,3969.7000000029802,1419.646,1973.7000000029802,1970.166,3972.19,,,,"{""participant"":""65083""}",
Welcome,html.Screen,1,2023-05-03T18:07:51.418Z,,,,regular,549.31,response,,,,,,continue,click button,,4522.30000000447,4521.5,3955.53,3970.8000000044703,3972.19,4522.776,,,,,
trial,html.Screen,2_0_0,2023-05-03T18:07:58.887Z,,0,0,,7468.624000005961,response,ISIC_0061792.JPG,,ISIC_4679428.JPG,ISIC_0061792.JPG,true,1,keypress(m),500,11991.5,11991.40000000596,4506.155,4522.4000000059605,4522.776,11996.876,1,6,1,,ISIC_4679428.JPG
sequence,flow.Sequence,2_0,2023-05-03T18:07:58.888Z,,0,,,7468.624000005961,completion,,,,,true,,,,11991.80000000447,11991.40000000596,4506.155,4522.4000000059605,4522.776,11996.876,1,6,,,
trial,html.Screen,2_1_0,2023-05-03T18:08:04.238Z,,0,0,,5345.52400000596,response,ISIC_0776486.JPG,,ISIC_5199497.JPG,ISIC_0776486.JPG,true,1,keypress(m),500,17342.5,17342.40000000596,11980.237,11991.80000000447,11996.876,17352.312,1,6,2,,ISIC_5199497.JPG
sequence,flow.Sequence,2_1,2023-05-03T18:08:04.238Z,,0,,,5345.52400000596,completion,,,,,true,,,,17342.60000000149,17342.40000000596,11980.237,11991.80000000447,11996.876,17352.312,1,6,,,
trial,html.Screen,2_2_0,2023-05-03T18:08:07.543Z,,0,0,,3295.1879999999983,response,ISIC_2556187.JPG,,ISIC_8575776.JPG,ISIC_8575776.JPG,true,0,keypress(z),500,20647.60000000149,20647.5,17335.641,17342.70000000298,17352.312,20655.557,1,6,3,,ISIC_2556187.JPG
sequence,flow.Sequence,2_2,2023-05-03T18:08:07.544Z,,0,,,3295.1879999999983,completion,,,,,true,,,,20647.80000000447,20647.5,17335.641,17342.70000000298,17352.312,20655.557,1,6,,,
trial,html.Screen,2_3_0,2023-05-03T18:08:10.823Z,,0,0,,3271.4429999999993,response,ISIC_8141769.JPG,,ISIC_9238366.JPG,ISIC_8141769.JPG,true,1,keypress(m),500,23927.10000000149,23927,20638.891,20647.90000000596,20655.557,23942.175,1,6,4,,ISIC_9238366.JPG
sequence,flow.Sequence,2_3,2023-05-03T18:08:10.823Z,,0,,,3271.4429999999993,completion,,,,,true,,,,23927.30000000447,23927,20638.891,20647.90000000596,20655.557,23942.175,1,6,,,
trial,html.Screen,2_4_0,2023-05-03T18:08:15.311Z,,0,0,,4472.625000004471,response,ISIC_8949026.JPG,,ISIC_9959593.JPG,ISIC_9959593.JPG,true,0,keypress(z),500,28414.90000000596,28414.80000000447,23925.558,23927.5,23942.175,28429.987,1,6,5,,ISIC_8949026.JPG
sequence,flow.Sequence,2_4,2023-05-03T18:08:15.311Z,,0,,,4472.625000004471,completion,,,,,true,,,,28415.10000000149,28414.80000000447,23925.558,23927.40000000596,23942.175,28429.987,1,6,,,
trial,html.Screen,2_5_0,2023-05-03T18:08:18.063Z,,0,0,,2736.9130000059595,response,ISIC_0010479.JPG,,ISIC_0460240.JPG,ISIC_0010479.JPG,true,1,keypress(m),500,31167.10000000149,31166.90000000596,28413.341,28415.10000000149,28429.987,31182.821,1,6,6,,ISIC_0460240.JPG
sequence,flow.Sequence,2_5,2023-05-03T18:08:18.063Z,,0,,,2736.9130000059595,completion,,,,,true,,,,31167.20000000298,31166.90000000596,28413.341,28415.10000000149,28429.987,31182.821,1,6,,,
loop,flow.Loop,2,2023-05-03T18:08:18.063Z,,,,,26644.124000005962,completion,,,,,true,,,,31167.40000000596,31166.90000000596,4506.155,4522.4000000059605,4522.776,31182.821,1,6,,,
exp_instructions,html.Screen,3,2023-05-03T18:08:24.410Z,,,,,6330.87900000298,response,,,,,,continue,keypress(Space),,37514.20000000298,37513.70000000298,31166.131,31167.40000000596,31182.821,37522.415,,,,,
trial,html.Screen,4_0_0,2023-05-03T18:08:28.702Z,,0,1,,4284.185000001489,response,ISIC_0034313.JPG,,ISIC_0031278.JPG,ISIC_0034313.JPG,false,1,keypress(m),500,41806.70000000298,41806.60000000149,37505.648,37514.40000000596,37522.415,41810.046,8,400,1,,ISIC_0031278.JPG
break,html.Screen,4_0_1,2023-05-03T18:08:28.703Z,,0,,,NaN,,,,,,false,,,,41807.20000000298,41807,,41806.80000000447,,41810.046,8,400,,,
break_continue,html.Screen,4_0_2,2023-05-03T18:08:28.703Z,,0,,,NaN,,,,,,false,,,,41807.60000000149,41807.5,,41807.30000000447,,41810.046,8,400,,,
sequence,flow.Sequence,4_0,2023-05-03T18:08:28.703Z,,0,,,4285.084999999999,completion,,,,,false,,,,41807.70000000298,41807.5,37505.648,37514.30000000447,37522.415,41810.046,8,400,,,
trial,html.Screen,4_1_0,2023-05-03T18:08:31.847Z,,0,1,,3140.654000002978,response,ISIC_0055931.JPG,,ISIC_2904067.JPG,ISIC_0055931.JPG,false,1,keypress(m),500,44950.80000000447,44950.70000000298,41793.337,41807.80000000447,41810.046,44963.248,8,400,2,,ISIC_2904067.JPG
break,html.Screen,4_1_1,2023-05-03T18:08:31.847Z,,0,,,NaN,,,,,,false,,,,44951.30000000447,44951.10000000149,,44950.90000000596,,44963.248,8,400,,,
break_continue,html.Screen,4_1_2,2023-05-03T18:08:31.847Z,,0,,,NaN,,,,,,false,,,,44951.40000000596,44951.40000000596,,44951.30000000447,,44963.248,8,400,,,
sequence,flow.Sequence,4_1,2023-05-03T18:08:31.847Z,,0,,,3141.3540000059584,completion,,,,,false,,,,44951.60000000149,44951.40000000596,41793.337,41807.80000000447,41810.046,44963.248,8,400,,,
trial,html.Screen,4_2_0,2023-05-03T18:08:36.486Z,,0,1,,4627.252,response,ISIC_0072773.JPG,,ISIC_0006302.JPG,ISIC_0072773.JPG,false,1,keypress(m),500,49590.80000000447,49590.5,44946.577,44951.60000000149,44963.248,49601.227,8,400,3,,ISIC_0006302.JPG
break,html.Screen,4_2_1,2023-05-03T18:08:36.487Z,,0,,,NaN,,,,,,false,,,,49591.20000000298,49591,,49590.80000000447,,49601.227,8,400,,,
break_continue,html.Screen,4_2_2,2023-05-03T18:08:36.487Z,,0,,,NaN,,,,,,false,,,,49591.40000000596,49591.30000000447,,49591.20000000298,,49601.227,8,400,,,
sequence,flow.Sequence,4_2,2023-05-03T18:08:36.487Z,,0,,,4628.052000004471,completion,,,,,false,,,,49591.5,49591.30000000447,44946.577,44951.60000000149,44963.248,49601.227,8,400,,,
trial,html.Screen,4_3_0,2023-05-03T18:08:40.247Z,,0,1,,3749.873000001491,response,ISIC_7235371.JPG,,ISIC_9618489.JPG,ISIC_7235371.JPG,false,1,keypress(m),500,53351.20000000298,53351.10000000149,49584.536,49591.5,49601.227,53354.912,8,400,4,,ISIC_9618489.JPG
break,html.Screen,4_3_1,2023-05-03T18:08:40.247Z,,0,,,NaN,,,,,,false,,,,53351.70000000298,53351.5,,53351.30000000447,,53354.912,8,400,,,
break_continue,html.Screen,4_3_2,2023-05-03T18:08:40.248Z,,0,,,NaN,,,,,,false,,,,53351.90000000596,53351.80000000447,,53351.80000000447,,53354.912,8,400,,,
sequence,flow.Sequence,4_3,2023-05-03T18:08:40.248Z,,0,,,3750.5730000044714,completion,,,,,false,,,,53351.90000000596,53351.80000000447,49584.536,49591.5,49601.227,53354.912,8,400,,,
trial,html.Screen,4_4_0,2023-05-03T18:08:42.998Z,,0,1,,2747.3880000044737,response,ISIC_0012288.JPG,,ISIC_2200197.JPG,ISIC_2200197.JPG,false,0,keypress(z),500,56102.40000000596,56102.30000000447,53338.294,53352.10000000149,53354.912,56107.689,8,400,5,,ISIC_0012288.JPG
break,html.Screen,4_4_1,2023-05-03T18:08:42.999Z,,0,,,NaN,,,,,,false,,,,56102.90000000596,56102.70000000298,,56102.5,,56107.689,8,400,,,
break_continue,html.Screen,4_4_2,2023-05-03T18:08:42.999Z,,0,,,NaN,,,,,,false,,,,56103,56103,,56102.90000000596,,56107.689,8,400,,,
sequence,flow.Sequence,4_4,2023-05-03T18:08:42.999Z,,0,,,2748.0880000000034,completion,,,,,false,,,,56103.20000000298,56103,53338.294,53352,53354.912,56107.689,8,400,,,
trial,html.Screen,4_5_0,2023-05-03T18:08:46.695Z,,0,1,,3691.211000005962,response,ISIC_8959928.JPG,,ISIC_2508901.JPG,ISIC_8959928.JPG,false,1,keypress(m),500,59799,59798.90000000596,56091.033,56103.20000000298,56107.689,59811.431,8,400,6,,ISIC_2508901.JPG
break,html.Screen,4_5_1,2023-05-03T18:08:46.695Z,,0,,,NaN,,,,,,false,,,,59799.40000000596,59799.20000000298,,59799.10000000149,,59811.431,8,400,,,
break_continue,html.Screen,4_5_2,2023-05-03T18:08:46.695Z,,0,,,NaN,,,,,,false,,,,59799.60000000149,59799.60000000149,,59799.5,,59811.431,8,400,,,
sequence,flow.Sequence,4_5,2023-05-03T18:08:46.695Z,,0,,,3691.9110000014916,completion,,,,,false,,,,59799.70000000298,59799.60000000149,56091.033,56103.20000000298,56107.689,59811.431,8,400,,,
trial,html.Screen,4_6_0,2023-05-03T18:08:50.071Z,,0,1,,3363.6690000014933,response,ISIC_4836699.JPG,,ISIC_7526548.JPG,ISIC_4836699.JPG,false,1,keypress(m),500,63175.20000000298,63175.10000000149,59794.755,59799.80000000447,59811.431,63181.39,8,400,7,,ISIC_7526548.JPG
break,html.Screen,4_6_1,2023-05-03T18:08:50.071Z,,0,,,NaN,,,,,,false,,,,63175.70000000298,63175.5,,63175.30000000447,,63181.39,8,400,,,
break_continue,html.Screen,4_6_2,2023-05-03T18:08:50.072Z,,0,,,NaN,,,,,,false,,,,63175.90000000596,63175.80000000447,,63175.80000000447,,63181.39,8,400,,,
sequence,flow.Sequence,4_6,2023-05-03T18:08:50.072Z,,0,,,3364.3690000044735,completion,,,,,false,,,,63175.90000000596,63175.80000000447,59794.755,59799.70000000298,59811.431,63181.39,8,400,,,
trial,html.Screen,4_7_0,2023-05-03T18:08:54.214Z,,0,1,,4137.010000005961,response,ISIC_0034316.JPG,,ISIC_2212473.JPG,ISIC_0034316.JPG,false,1,keypress(m),500,67318.5,67318.40000000596,63164.737,63176.10000000149,63181.39,67352.22,8,400,8,,ISIC_2212473.JPG
break,html.Screen,4_7_1,2023-05-03T18:08:54.215Z,,0,,,NaN,,,,,,false,,,,67319,67318.70000000298,,67318.60000000149,,67352.22,8,400,,,
break_continue,html.Screen,4_7_2,2023-05-03T18:08:54.215Z,,0,,,NaN,,,,,,false,,,,67319.20000000298,67319.20000000298,,67319.10000000149,,67352.22,8,400,,,
sequence,flow.Sequence,4_7,2023-05-03T18:08:54.215Z,,0,,,4137.810000002981,completion,,,,,false,,,,67319.30000000447,67319.20000000298,63164.737,63175.90000000596,63181.39,67352.22,8,400,,,
trial,html.Screen,4_8_0,2023-05-03T18:08:58.215Z,,0,1,,3966.580000004469,response,ISIC_0640770.JPG,,ISIC_0034044.JPG,ISIC_0640770.JPG,false,1,keypress(m),500,71318.90000000596,71318.80000000447,67335.594,67319.30000000447,67352.22,71322.873,8,400,9,,ISIC_0034044.JPG
break,html.Screen,4_8_1,2023-05-03T18:08:58.215Z,,0,,,NaN,,,,,,false,,,,71319.30000000447,71319.10000000149,,71319,,71322.873,8,400,,,
break_continue,html.Screen,4_8_2,2023-05-03T18:08:58.215Z,,0,,,NaN,,,,,,false,,,,71319.5,71319.40000000596,,71319.40000000596,,71322.873,8,400,,,
sequence,flow.Sequence,4_8,2023-05-03T18:08:58.215Z,,0,,,3967.1800000059593,completion,,,,,false,,,,71319.5,71319.40000000596,67335.594,67319.30000000447,67352.22,71322.873,8,400,,,
trial,html.Screen,4_9_0,2023-05-03T18:09:01.384Z,,0,1,,3164.3270000029734,response,ISIC_8779142.JPG,,ISIC_0065735.JPG,ISIC_0065735.JPG,false,0,keypress(z),500,74487.30000000447,74487.20000000298,71306.233,71319.60000000149,71322.873,74492.744,8,400,10,,ISIC_8779142.JPG
break,html.Screen,4_9_1,2023-05-03T18:09:01.384Z,,0,,,NaN,,,,,,false,,,,74487.80000000447,74487.60000000149,,74487.30000000447,,74492.744,8,400,,,
break_continue,html.Screen,4_9_2,2023-05-03T18:09:01.384Z,,0,,,NaN,,,,,,false,,,,74487.90000000596,74487.80000000447,,74487.80000000447,,74492.744,8,400,,,
sequence,flow.Sequence,4_9,2023-05-03T18:09:01.384Z,,0,,,3164.9270000044635,completion,,,,,false,,,,74488,74487.80000000447,71306.233,71319.5,71322.873,74492.744,8,400,,,
trial,html.Screen,4_10_0,2023-05-03T18:09:04.648Z,,0,1,,3258.456000002974,response,ISIC_0024513.JPG,,ISIC_2980578.JPG,ISIC_0024513.JPG,false,1,keypress(m),500,77751.30000000447,77751.20000000298,74476.057,74488,74492.744,77762.686,8,400,11,,ISIC_2980578.JPG
break,html.Screen,4_10_1,2023-05-03T18:09:04.648Z,,0,,,NaN,,,,,,false,,,,77751.60000000149,77751.5,,77751.40000000596,,77762.686,8,400,,,
break_continue,html.Screen,4_10_2,2023-05-03T18:09:04.648Z,,0,,,NaN,,,,,,false,,,,77751.80000000447,77751.80000000447,,77751.70000000298,,77762.686,8,400,,,
sequence,flow.Sequence,4_10,2023-05-03T18:09:04.648Z,,0,,,3259.0560000044643,completion,,,,,false,,,,77751.90000000596,77751.80000000447,74476.057,74488,74492.744,77762.686,8,400,,,
trial,html.Screen,4_11_0,2023-05-03T18:09:07.623Z,,0,1,,2963.714000005959,response,ISIC_2843245.JPG,,ISIC_0024537.JPG,ISIC_2843245.JPG,false,1,keypress(m),500,80726.5,80726.40000000596,77745.993,77751.90000000596,77762.686,80732.345,8,400,12,,ISIC_0024537.JPG
break,html.Screen,4_11_1,2023-05-03T18:09:07.623Z,,0,,,NaN,,,,,,false,,,,80727,80726.80000000447,,80726.60000000149,,80732.345,8,400,,,
break_continue,html.Screen,4_11_2,2023-05-03T18:09:07.623Z,,0,,,NaN,,,,,,false,,,,80727.10000000149,80727.10000000149,,80727,,80732.345,8,400,,,
sequence,flow.Sequence,4_11,2023-05-03T18:09:07.624Z,,0,,,2964.4140000014886,completion,,,,,false,,,,80727.20000000298,80727.10000000149,77745.993,77751.90000000596,77762.686,80732.345,8,400,,,
trial,html.Screen,4_12_0,2023-05-03T18:09:10.487Z,,0,1,,2858.5550000059593,response,ISIC_0032130.JPG,,ISIC_8843592.JPG,ISIC_8843592.JPG,false,0,keypress(z),500,83591,83590.90000000596,80715.645,80727.20000000298,80732.345,83601.812,8,400,13,,ISIC_0032130.JPG
break,html.Screen,4_12_1,2023-05-03T18:09:10.488Z,,0,,,NaN,,,,,,false,,,,83591.40000000596,83591.30000000447,,83591.10000000149,,83601.812,8,400,,,
break_continue,html.Screen,4_12_2,2023-05-03T18:09:10.488Z,,0,,,NaN,,,,,,false,,,,83591.60000000149,83591.5,,83591.5,,83601.812,8,400,,,
sequence,flow.Sequence,4_12,2023-05-03T18:09:10.488Z,,0,,,2859.154999999999,completion,,,,,false,,,,83591.70000000298,83591.5,80715.645,80727.20000000298,80732.345,83601.812,8,400,,,
trial,html.Screen,4_13_0,2023-05-03T18:09:13.192Z,,0,1,,2693.488000004465,response,ISIC_0034193.JPG,,ISIC_0010746.JPG,ISIC_0010746.JPG,false,0,keypress(z),500,86295.40000000596,86295.30000000447,83585.193,83591.70000000298,83601.812,86304.596,8,400,14,,ISIC_0034193.JPG
break,html.Screen,4_13_1,2023-05-03T18:09:13.192Z,,0,,,NaN,,,,,,false,,,,86295.70000000298,86295.60000000149,,86295.5,,86304.596,8,400,,,
break_continue,html.Screen,4_13_2,2023-05-03T18:09:13.192Z,,0,,,NaN,,,,,,false,,,,86296,86296,,86295.80000000447,,86304.596,8,400,,,
sequence,flow.Sequence,4_13,2023-05-03T18:09:13.192Z,,0,,,2694.1879999999946,completion,,,,,false,,,,86296.10000000149,86296,83585.193,83591.70000000298,83601.812,86304.596,8,400,,,
trial,html.Screen,4_14_0,2023-05-03T18:09:16.247Z,,0,1,,3046.3040000059555,response,ISIC_3171104.JPG,,ISIC_0008162.JPG,ISIC_0008162.JPG,false,0,keypress(z),500,89351,89350.90000000596,86287.903,86296.10000000149,86304.596,89357.641,8,400,15,,ISIC_3171104.JPG
break,html.Screen,4_14_1,2023-05-03T18:09:16.248Z,,0,,,NaN,,,,,,false,,,,89351.5,89351.30000000447,,89351.10000000149,,89357.641,8,400,,,
break_continue,html.Screen,4_14_2,2023-05-03T18:09:16.248Z,,0,,,NaN,,,,,,false,,,,89351.70000000298,89351.60000000149,,89351.60000000149,,89357.641,8,400,,,
sequence,flow.Sequence,4_14,2023-05-03T18:09:16.248Z,,0,,,3047.004000001485,completion,,,,,false,,,,89351.80000000447,89351.60000000149,86287.903,86296.10000000149,86304.596,89357.641,8,400,,,
trial,html.Screen,4_15_0,2023-05-03T18:09:18.929Z,,0,1,,2674.559000002977,response,ISIC_7928137.JPG,,ISIC_0261253.JPG,ISIC_0261253.JPG,false,0,keypress(z),500,92032.30000000447,92032.20000000298,89340.95,89351.80000000447,89357.641,92043.659,8,400,16,,ISIC_7928137.JPG
break,html.Screen,4_15_1,2023-05-03T18:09:18.929Z,,0,,,NaN,,,,,,false,,,,92032.60000000149,92032.60000000149,,92032.40000000596,,92043.659,8,400,,,
break_continue,html.Screen,4_15_2,2023-05-03T18:09:18.929Z,,0,,,NaN,,,,,,false,,,,92032.80000000447,92032.80000000447,,92032.70000000298,,92043.659,8,400,,,
sequence,flow.Sequence,4_15,2023-05-03T18:09:18.929Z,,0,,,2675.159000004467,completion,,,,,false,,,,92033,92032.80000000447,89340.95,89351.80000000447,89357.641,92043.659,8,400,,,
trial,html.Screen,4_16_0,2023-05-03T18:09:21.423Z,,0,1,,2483.1410000044707,response,ISIC_0870751.JPG,,ISIC_9486313.JPG,ISIC_0870751.JPG,false,1,keypress(m),500,94526.80000000447,94526.80000000447,92026.983,92033,92043.659,94529.401,8,400,17,,ISIC_9486313.JPG
break,html.Screen,4_16_1,2023-05-03T18:09:21.424Z,,0,,,NaN,,,,,,false,,,,94527.30000000447,94527.10000000149,,94526.90000000596,,94529.401,8,400,,,
break_continue,html.Screen,4_16_2,2023-05-03T18:09:21.424Z,,0,,,NaN,,,,,,false,,,,94527.60000000149,94527.5,,94527.40000000596,,94529.401,8,400,,,
sequence,flow.Sequence,4_16,2023-05-03T18:09:21.424Z,,0,,,2483.8410000000003,completion,,,,,false,,,,94527.60000000149,94527.5,92026.983,92033,92043.659,94529.401,8,400,,,
trial,html.Screen,4_17_0,2023-05-03T18:09:24.631Z,,0,1,,3205.299000002982,response,ISIC_0015412.JPG,,ISIC_6400232.JPG,ISIC_0015412.JPG,false,1,keypress(m),500,97734.90000000596,97734.70000000298,94512.804,94527.70000000298,94529.401,97749.345,8,400,18,,ISIC_6400232.JPG
break,html.Screen,4_17_1,2023-05-03T18:09:24.632Z,,0,,,NaN,,,,,,false,,,,97735.30000000447,97735.10000000149,,97734.90000000596,,97749.345,8,400,,,
break_continue,html.Screen,4_17_2,2023-05-03T18:09:24.632Z,,0,,,NaN,,,,,,false,,,,97735.40000000596,97735.40000000596,,97735.40000000596,,97749.345,8,400,,,
sequence,flow.Sequence,4_17,2023-05-03T18:09:24.632Z,,0,,,3205.9990000059624,completion,,,,,false,,,,97735.5,97735.40000000596,94512.804,94527.60000000149,94529.401,97749.345,8,400,,,
trial,html.Screen,4_18_0,2023-05-03T18:09:27.775Z,,0,1,,3129.0550000059593,response,ISIC_6056692.JPG,,ISIC_8630818.JPG,ISIC_8630818.JPG,false,0,keypress(z),500,100878.60000000149,100878.40000000596,97732.669,97735.60000000149,97749.345,100885.833,8,400,19,,ISIC_6056692.JPG
break,html.Screen,4_18_1,2023-05-03T18:09:27.775Z,,0,,,NaN,,,,,,false,,,,100879,100878.80000000447,,100878.60000000149,,100885.833,8,400,,,
break_continue,html.Screen,4_18_2,2023-05-03T18:09:27.776Z,,0,,,NaN,,,,,,false,,,,100879.10000000149,100879.10000000149,,100879,,100885.833,8,400,,,
sequence,flow.Sequence,4_18,2023-05-03T18:09:27.776Z,,0,,,3129.755000001489,completion,,,,,false,,,,100879.20000000298,100879.10000000149,97732.669,97735.5,97749.345,100885.833,8,400,,,
trial,html.Screen,4_19_0,2023-05-03T18:09:30.791Z,,0,1,,3008.9670000044716,response,ISIC_7299025.JPG,,ISIC_0000295.JPG,ISIC_0000295.JPG,false,0,keypress(z),500,103895,103894.80000000447,100869.059,100879.30000000447,100885.833,103905.538,8,400,20,,ISIC_7299025.JPG
break,html.Screen,4_19_1,2023-05-03T18:09:30.792Z,,0,,,NaN,,,,,,false,,,,103895.40000000596,103895.30000000447,,103895.10000000149,,103905.538,8,400,,,
break_continue,html.Screen,4_19_2,2023-05-03T18:09:30.792Z,,0,,,NaN,,,,,,false,,,,103895.60000000149,103895.60000000149,,103895.5,,103905.538,8,400,,,
sequence,flow.Sequence,4_19,2023-05-03T18:09:30.792Z,,0,,,3009.7670000014914,completion,,,,,false,,,,103895.60000000149,103895.60000000149,100869.059,100879.20000000298,100885.833,103905.538,8,400,,,
trial,html.Screen,4_20_0,2023-05-03T18:09:33.368Z,,0,1,,2566.1620000029798,response,ISIC_0033708.JPG,,ISIC_0000297.JPG,ISIC_0033708.JPG,false,1,keypress(m),500,106471.80000000447,106471.70000000298,103888.81,103895.70000000298,103905.538,106474.68,8,400,21,,ISIC_0000297.JPG
break,html.Screen,4_20_1,2023-05-03T18:09:33.369Z,,0,,,NaN,,,,,,false,,,,106472.20000000298,106472.10000000149,,106471.90000000596,,106474.68,8,400,,,
break_continue,html.Screen,4_20_2,2023-05-03T18:09:33.369Z,,0,,,NaN,,,,,,false,,,,106472.40000000596,106472.30000000447,,106472.20000000298,,106474.68,8,400,,,
sequence,flow.Sequence,4_20,2023-05-03T18:09:33.369Z,,0,,,2566.76200000447,completion,,,,,false,,,,106472.40000000596,106472.30000000447,103888.81,103895.70000000298,103905.538,106474.68,8,400,,,
trial,html.Screen,4_21_0,2023-05-03T18:09:36.887Z,,0,1,,3515.7200000059674,response,ISIC_0062536.JPG,,ISIC_0073043.JPG,ISIC_0073043.JPG,false,0,keypress(z),500,109990.5,109990.40000000596,106458.084,106472.5,106474.68,109994.896,8,400,22,,ISIC_0062536.JPG
break,html.Screen,4_21_1,2023-05-03T18:09:36.887Z,,0,,,NaN,,,,,,false,,,,109990.90000000596,109990.80000000447,,109990.60000000149,,109994.896,8,400,,,
break_continue,html.Screen,4_21_2,2023-05-03T18:09:36.887Z,,0,,,NaN,,,,,,false,,,,109991.10000000149,109991,,109991,,109994.896,8,400,,,
sequence,flow.Sequence,4_21,2023-05-03T18:09:36.888Z,,0,,,3516.320000000007,completion,,,,,false,,,,109991.20000000298,109991,106458.084,106472.5,106474.68,109994.896,8,400,,,
trial,html.Screen,4_22_0,2023-05-03T18:09:40.607Z,,0,1,,3715.804000002987,response,ISIC_0000420.JPG,,ISIC_8176449.JPG,ISIC_8176449.JPG,false,0,keypress(z),500,113710.70000000298,113710.70000000298,109978.266,109991.30000000447,109994.896,113715.26,8,400,23,,ISIC_0000420.JPG
break,html.Screen,4_22_1,2023-05-03T18:09:40.608Z,,0,,,NaN,,,,,,false,,,,113711.20000000298,113711,,113710.90000000596,,113715.26,8,400,,,
break_continue,html.Screen,4_22_2,2023-05-03T18:09:40.608Z,,0,,,NaN,,,,,,false,,,,113711.40000000596,113711.30000000447,,113711.30000000447,,113715.26,8,400,,,
sequence,flow.Sequence,4_22,2023-05-03T18:09:40.608Z,,0,,,3716.404000004477,completion,,,,,false,,,,113711.5,113711.30000000447,109978.266,109991.30000000447,109994.896,113715.26,8,400,,,
trial,html.Screen,4_23_0,2023-05-03T18:09:43.408Z,,0,1,,2795.9400000029855,response,ISIC_0653633.JPG,,ISIC_9728003.JPG,ISIC_0653633.JPG,false,1,keypress(m),500,116511.20000000298,116511.20000000298,113698.589,113711.60000000149,113715.26,116518.125,8,400,24,,ISIC_9728003.JPG
break,html.Screen,4_23_1,2023-05-03T18:09:43.408Z,,0,,,NaN,,,,,,false,,,,116511.60000000149,116511.5,,116511.30000000447,,116518.125,8,400,,,
break_continue,html.Screen,4_23_2,2023-05-03T18:09:43.408Z,,0,,,NaN,,,,,,false,,,,116511.90000000596,116511.80000000447,,116511.80000000447,,116518.125,8,400,,,
sequence,flow.Sequence,4_23,2023-05-03T18:09:43.408Z,,0,,,2796.5400000044756,completion,,,,,false,,,,116511.90000000596,116511.80000000447,113698.589,113711.5,113715.26,116518.125,8,400,,,
trial,html.Screen,4_24_0,2023-05-03T18:09:46.464Z,,0,1,,3049.1750000044703,response,ISIC_0056796.JPG,,ISIC_2720971.JPG,ISIC_0056796.JPG,false,1,keypress(m),500,119567.5,119567.30000000447,116501.438,116512,116518.125,119571.12,8,400,25,,ISIC_2720971.JPG
break,html.Screen,4_24_1,2023-05-03T18:09:46.464Z,,0,,,NaN,,,,,,false,,,,119567.80000000447,119567.70000000298,,119567.60000000149,,119571.12,8,400,,,
break_continue,html.Screen,4_24_2,2023-05-03T18:09:46.464Z,,0,,,NaN,,,,,,false,,,,119568,119568,,119568,,119571.12,8,400,,,
sequence,flow.Sequence,4_24,2023-05-03T18:09:46.464Z,,0,,,3049.875,completion,,,,,false,,,,119568.10000000149,119568,116501.438,116512,116518.125,119571.12,8,400,,,
trial,html.Screen,4_25_0,2023-05-03T18:09:48.535Z,,0,1,,2067.580000002985,response,ISIC_0028859.JPG,,ISIC_0030110.JPG,ISIC_0030110.JPG,false,0,keypress(z),500,121638.80000000447,121638.70000000298,119554.51,119568.20000000298,119571.12,121666.212,8,400,26,,ISIC_0028859.JPG
break,html.Screen,4_25_1,2023-05-03T18:09:48.536Z,,0,,,NaN,,,,,,false,,,,121639.30000000447,121639.10000000149,,121639,,121666.212,8,400,,,
break_continue,html.Screen,4_25_2,2023-05-03T18:09:48.536Z,,0,,,NaN,,,,,,false,,,,121639.5,121639.40000000596,,121639.40000000596,,121666.212,8,400,,,
sequence,flow.Sequence,4_25,2023-05-03T18:09:48.536Z,,0,,,2068.280000005965,completion,,,,,false,,,,121639.60000000149,121639.40000000596,119554.51,119568.10000000149,119571.12,121666.212,8,400,,,
trial,html.Screen,4_26_0,2023-05-03T18:09:51.223Z,,0,1,,2660.4880000029807,response,ISIC_0059082.JPG,,ISIC_7533983.JPG,ISIC_0059082.JPG,false,1,keypress(m),500,124326.80000000447,124326.70000000298,121623.16,121639.70000000298,121666.212,124342.645,8,400,27,,ISIC_7533983.JPG
break,html.Screen,4_26_1,2023-05-03T18:09:51.224Z,,0,,,NaN,,,,,,false,,,,124327.20000000298,124327,,124326.80000000447,,124342.645,8,400,,,
break_continue,html.Screen,4_26_2,2023-05-03T18:09:51.224Z,,0,,,NaN,,,,,,false,,,,124327.40000000596,124327.30000000447,,124327.20000000298,,124342.645,8,400,,,
sequence,flow.Sequence,4_26,2023-05-03T18:09:51.224Z,,0,,,2661.088000004471,completion,,,,,false,,,,124327.5,124327.30000000447,121623.16,121639.60000000149,121666.212,124342.645,8,400,,,
trial,html.Screen,4_27_0,2023-05-03T18:09:54.367Z,,0,1,,3128.354999999996,response,ISIC_0068528.JPG,,ISIC_4331481.JPG,ISIC_4331481.JPG,false,0,keypress(z),500,127471.10000000149,127471,124325.902,124327.5,124342.645,127479.061,8,400,28,,ISIC_0068528.JPG
break,html.Screen,4_27_1,2023-05-03T18:09:54.368Z,,0,,,NaN,,,,,,false,,,,127471.60000000149,127471.40000000596,,127471.20000000298,,127479.061,8,400,,,
break_continue,html.Screen,4_27_2,2023-05-03T18:09:54.368Z,,0,,,NaN,,,,,,false,,,,127471.80000000447,127471.70000000298,,127471.60000000149,,127479.061,8,400,,,
sequence,flow.Sequence,4_27,2023-05-03T18:09:54.368Z,,0,,,3129.055000002976,completion,,,,,false,,,,127471.80000000447,127471.70000000298,124325.902,124327.5,124342.645,127479.061,8,400,,,
trial,html.Screen,4_28_0,2023-05-03T18:09:57.167Z,,0,1,,2791.9389999999985,response,ISIC_0013588.JPG,,ISIC_0029071.JPG,ISIC_0013588.JPG,false,1,keypress(m),500,130271.10000000149,130271,127462.41,127472,127479.061,130281.897,8,400,29,,ISIC_0029071.JPG
break,html.Screen,4_28_1,2023-05-03T18:09:57.168Z,,0,,,NaN,,,,,,false,,,,130271.40000000596,130271.30000000447,,130271.20000000298,,130281.897,8,400,,,
break_continue,html.Screen,4_28_2,2023-05-03T18:09:57.168Z,,0,,,NaN,,,,,,false,,,,130271.70000000298,130271.60000000149,,130271.60000000149,,130281.897,8,400,,,
sequence,flow.Sequence,4_28,2023-05-03T18:09:57.168Z,,0,,,2792.5390000014886,completion,,,,,false,,,,130271.80000000447,130271.60000000149,127462.41,127471.90000000596,127479.061,130281.897,8,400,,,
trial,html.Screen,4_29_0,2023-05-03T18:09:59.784Z,,0,1,,2604.903000004473,response,ISIC_9923630.JPG,,ISIC_2670619.JPG,ISIC_2670619.JPG,false,0,keypress(z),500,132886.90000000596,132886.80000000447,130265.21,130271.80000000447,130281.897,132901.154,8,400,30,,ISIC_9923630.JPG
break,html.Screen,4_29_1,2023-05-03T18:09:59.784Z,,0,,,NaN,,,,,,false,,,,132887.40000000596,132887.30000000447,,132887.1000000015,,132901.154,8,400,,,
break_continue,html.Screen,4_29_2,2023-05-03T18:09:59.784Z,,0,,,NaN,,,,,,false,,,,132887.5,132887.5,,132887.5,,132901.154,8,400,,,
sequence,flow.Sequence,4_29,2023-05-03T18:09:59.784Z,,0,,,2605.603000000003,completion,,,,,false,,,,132887.6000000015,132887.5,130265.21,130271.80000000447,130281.897,132901.154,8,400,,,
trial,html.Screen,4_30_0,2023-05-03T18:10:02.279Z,,0,1,,2481.4460000014806,response,ISIC_5190484.JPG,,ISIC_8843901.JPG,ISIC_5190484.JPG,false,1,keypress(m),500,135382.70000000298,135382.6000000015,132884.501,132887.70000000298,132901.154,135386.945,8,400,31,,ISIC_8843901.JPG
break,html.Screen,4_30_1,2023-05-03T18:10:02.280Z,,0,,,NaN,,,,,,false,,,,135383.1000000015,135382.90000000596,,135382.70000000298,,135386.945,8,400,,,
break_continue,html.Screen,4_30_2,2023-05-03T18:10:02.280Z,,0,,,NaN,,,,,,false,,,,135383.30000000447,135383.30000000447,,135383.20000000298,,135386.945,8,400,,,
sequence,flow.Sequence,4_30,2023-05-03T18:10:02.280Z,,0,,,2482.146000004461,completion,,,,,false,,,,135383.5,135383.30000000447,132884.501,132887.6000000015,132901.154,135386.945,8,400,,,
trial,html.Screen,4_31_0,2023-05-03T18:10:05.008Z,,0,1,,2724.554999999993,response,ISIC_0032645.JPG,,ISIC_0033299.JPG,ISIC_0033299.JPG,false,0,keypress(z),500,138111.6000000015,138111.5,135370.311,135383.6000000015,135386.945,138123.064,8,400,32,,ISIC_0032645.JPG
break,html.Screen,4_31_1,2023-05-03T18:10:05.009Z,,0,,,NaN,,,,,,false,,,,138112,138111.80000000447,,138111.70000000298,,138123.064,8,400,,,
break_continue,html.Screen,4_31_2,2023-05-03T18:10:05.009Z,,0,,,NaN,,,,,,false,,,,138112.1000000015,138112.1000000015,,138112.1000000015,,138123.064,8,400,,,
sequence,flow.Sequence,4_31,2023-05-03T18:10:05.009Z,,0,,,2725.155000001483,completion,,,,,false,,,,138112.20000000298,138112.1000000015,135370.311,135383.5,135386.945,138123.064,8,400,,,
trial,html.Screen,4_32_0,2023-05-03T18:10:07.792Z,,0,1,,2772.136000002967,response,ISIC_9860255.JPG,,ISIC_5931552.JPG,ISIC_9860255.JPG,false,1,keypress(m),500,140895.30000000447,140895.20000000298,138106.377,138112.30000000447,138123.064,140909.203,8,400,33,,ISIC_5931552.JPG
break,html.Screen,4_32_1,2023-05-03T18:10:07.792Z,,0,,,NaN,,,,,,false,,,,140895.80000000447,140895.6000000015,,140895.5,,140909.203,8,400,,,
break_continue,html.Screen,4_32_2,2023-05-03T18:10:07.793Z,,0,,,NaN,,,,,,false,,,,140896,140895.90000000596,,140895.80000000447,,140909.203,8,400,,,
sequence,flow.Sequence,4_32,2023-05-03T18:10:07.793Z,,0,,,2772.8360000059474,completion,,,,,false,,,,140896.1000000015,140895.90000000596,138106.377,138112.30000000447,138123.064,140909.203,8,400,,,
trial,html.Screen,4_33_0,2023-05-03T18:10:10.296Z,,0,1,,2489.9970000029716,response,ISIC_0024990.JPG,,ISIC_5919355.JPG,ISIC_5919355.JPG,false,0,keypress(z),500,143399.40000000596,143399.20000000298,140892.509,140896.1000000015,140909.203,143411.662,8,400,34,,ISIC_0024990.JPG
break,html.Screen,4_33_1,2023-05-03T18:10:10.296Z,,0,,,NaN,,,,,,false,,,,143399.70000000298,143399.6000000015,,143399.40000000596,,143411.662,8,400,,,
break_continue,html.Screen,4_33_2,2023-05-03T18:10:10.297Z,,0,,,NaN,,,,,,false,,,,143400,143399.90000000596,,143399.90000000596,,143411.662,8,400,,,
sequence,flow.Sequence,4_33,2023-05-03T18:10:10.297Z,,0,,,2490.697000005952,completion,,,,,false,,,,143400,143399.90000000596,140892.509,140896.1000000015,140909.203,143411.662,8,400,,,
trial,html.Screen,4_34_0,2023-05-03T18:10:12.855Z,,0,1,,2546.7380000059493,response,ISIC_0053572.JPG,,ISIC_0064120.JPG,ISIC_0064120.JPG,false,0,keypress(z),500,145958.6000000015,145958.40000000596,143394.981,143400.20000000298,143411.662,145964.213,8,400,35,,ISIC_0053572.JPG
break,html.Screen,4_34_1,2023-05-03T18:10:12.856Z,,0,,,NaN,,,,,,false,,,,145959,145958.80000000447,,145958.70000000298,,145964.213,8,400,,,
break_continue,html.Screen,4_34_2,2023-05-03T18:10:12.856Z,,0,,,NaN,,,,,,false,,,,145959.20000000298,145959.1000000015,,145959.1000000015,,145964.213,8,400,,,
sequence,flow.Sequence,4_34,2023-05-03T18:10:12.856Z,,0,,,2547.438000001479,completion,,,,,false,,,,145959.30000000447,145959.1000000015,143394.981,143400.1000000015,143411.662,145964.213,8,400,,,
trial,html.Screen,4_35_0,2023-05-03T18:10:15.792Z,,0,1,,2930.5870000044815,response,ISIC_0056790.JPG,,ISIC_8393181.JPG,ISIC_0056790.JPG,false,1,keypress(m),500,148894.90000000596,148894.80000000447,145947.555,145959.30000000447,145964.213,148900.491,8,400,36,,ISIC_8393181.JPG
break,html.Screen,4_35_1,2023-05-03T18:10:15.792Z,,0,,,NaN,,,,,,false,,,,148895.30000000447,148895.1000000015,,148895,,148900.491,8,400,,,
break_continue,html.Screen,4_35_2,2023-05-03T18:10:15.792Z,,0,,,NaN,,,,,,false,,,,148895.5,148895.5,,148895.40000000596,,148900.491,8,400,,,
sequence,flow.Sequence,4_35,2023-05-03T18:10:15.792Z,,0,,,2931.287000000011,completion,,,,,false,,,,148895.6000000015,148895.5,145947.555,145959.30000000447,145964.213,148900.491,8,400,,,
trial,html.Screen,4_36_0,2023-05-03T18:10:18.911Z,,0,1,,3114.109000001481,response,ISIC_0029898.JPG,,ISIC_7032028.JPG,ISIC_7032028.JPG,false,0,keypress(z),500,152014.80000000447,152014.6000000015,148883.81,148895.6000000015,148900.491,152020.286,8,400,37,,ISIC_0029898.JPG
break,html.Screen,4_36_1,2023-05-03T18:10:18.912Z,,0,,,NaN,,,,,,false,,,,152015.20000000298,152015,,152014.90000000596,,152020.286,8,400,,,
break_continue,html.Screen,4_36_2,2023-05-03T18:10:18.912Z,,0,,,NaN,,,,,,false,,,,152015.40000000596,152015.30000000447,,152015.30000000447,,152020.286,8,400,,,
sequence,flow.Sequence,4_36,2023-05-03T18:10:18.912Z,,0,,,3114.8090000044613,completion,,,,,false,,,,152015.5,152015.30000000447,148883.81,148895.6000000015,148900.491,152020.286,8,400,,,
trial,html.Screen,4_37_0,2023-05-03T18:10:21.736Z,,0,1,,2818.6140000059677,response,ISIC_0010379.JPG,,ISIC_8629635.JPG,ISIC_0010379.JPG,false,1,keypress(m),500,154839,154838.90000000596,152003.594,152015.5,152020.286,154867.151,8,400,38,,ISIC_8629635.JPG
break,html.Screen,4_37_1,2023-05-03T18:10:21.736Z,,0,,,NaN,,,,,,false,,,,154839.40000000596,154839.30000000447,,154839.20000000298,,154867.151,8,400,,,
break_continue,html.Screen,4_37_2,2023-05-03T18:10:21.736Z,,0,,,NaN,,,,,,false,,,,154839.70000000298,154839.6000000015,,154839.5,,154867.151,8,400,,,
sequence,flow.Sequence,4_37,2023-05-03T18:10:21.736Z,,0,,,2819.3140000014973,completion,,,,,false,,,,154839.80000000447,154839.6000000015,152003.594,152015.5,152020.286,154867.151,8,400,,,
trial,html.Screen,4_38_0,2023-05-03T18:10:24.424Z,,0,1,,2659.9490000014775,response,ISIC_0011349.JPG,,ISIC_6430210.JPG,ISIC_0011349.JPG,false,1,keypress(m),500,157527.30000000447,157527.1000000015,154823.118,154839.90000000596,154867.151,157542.496,8,400,39,,ISIC_6430210.JPG
break,html.Screen,4_38_1,2023-05-03T18:10:24.424Z,,0,,,NaN,,,,,,false,,,,157527.70000000298,157527.5,,157527.40000000596,,157542.496,8,400,,,
break_continue,html.Screen,4_38_2,2023-05-03T18:10:24.425Z,,0,,,NaN,,,,,,false,,,,157527.90000000596,157527.80000000447,,157527.80000000447,,157542.496,8,400,,,
sequence,flow.Sequence,4_38,2023-05-03T18:10:24.425Z,,0,,,2660.649000004458,completion,,,,,false,,,,157528,157527.80000000447,154823.118,154839.90000000596,154867.151,157542.496,8,400,,,
trial,html.Screen,4_39_0,2023-05-03T18:10:27.176Z,,0,1,,2736.9040000059467,response,ISIC_3700351.JPG,,ISIC_0008162.JPG,ISIC_3700351.JPG,false,1,keypress(m),500,160279.5,160279.40000000596,157525.814,157528,157542.496,160295.239,8,400,40,,ISIC_0008162.JPG
break,html.Screen,4_39_1,2023-05-03T18:10:27.177Z,,0,,,NaN,,,,,,false,,,,160280,160279.80000000447,,160279.70000000298,,160295.239,8,400,,,
break_continue,html.Screen,4_39_2,2023-05-03T18:10:27.177Z,,0,,,NaN,,,,,,false,,,,160280.1000000015,160280.1000000015,,160280,,160295.239,8,400,,,
sequence,flow.Sequence,4_39,2023-05-03T18:10:27.177Z,,0,,,2737.6040000014764,completion,,,,,false,,,,160280.1000000015,160280.1000000015,157525.814,157528,157542.496,160295.239,8,400,,,
trial,html.Screen,4_40_0,2023-05-03T18:10:30.546Z,,0,1,,3353.7609999999986,response,ISIC_0005494.JPG,,ISIC_8523143.JPG,ISIC_8523143.JPG,false,0,keypress(z),500,163649.20000000298,163649,160278.552,160280.20000000298,160295.239,163665.214,8,400,41,,ISIC_0005494.JPG
break,html.Screen,4_40_1,2023-05-03T18:10:30.546Z,,0,,,NaN,,,,,,false,,,,163649.6000000015,163649.5,,163649.30000000447,,163665.214,8,400,,,
break_continue,html.Screen,4_40_2,2023-05-03T18:10:30.547Z,,0,,,NaN,,,,,,false,,,,163649.90000000596,163649.80000000447,,163649.70000000298,,163665.214,8,400,,,
sequence,flow.Sequence,4_40,2023-05-03T18:10:30.547Z,,0,,,3354.561000004469,completion,,,,,false,,,,163649.90000000596,163649.80000000447,160278.552,160280.20000000298,160295.239,163665.214,8,400,,,
trial,html.Screen,4_41_0,2023-05-03T18:10:36.640Z,,0,1,,6078.086000004463,response,ISIC_0029094.JPG,,ISIC_3884221.JPG,ISIC_0029094.JPG,false,1,keypress(m),500,169743.40000000596,169743.30000000447,163648.531,163650,163665.214,169754.704,8,400,42,,ISIC_3884221.JPG
break,html.Screen,4_41_1,2023-05-03T18:10:36.640Z,,0,,,NaN,,,,,,false,,,,169743.80000000447,169743.70000000298,,169743.5,,169754.704,8,400,,,
break_continue,html.Screen,4_41_2,2023-05-03T18:10:36.641Z,,0,,,NaN,,,,,,false,,,,169744,169743.90000000596,,169743.90000000596,,169754.704,8,400,,,
sequence,flow.Sequence,4_41,2023-05-03T18:10:36.641Z,,0,,,6078.686000005953,completion,,,,,false,,,,169744.1000000015,169743.90000000596,163648.531,163650,163665.214,169754.704,8,400,,,
trial,html.Screen,4_42_0,2023-05-03T18:10:39.481Z,,0,1,,2829.6960000059626,response,ISIC_2123159.JPG,,ISIC_0033938.JPG,ISIC_2123159.JPG,false,1,keypress(m),500,172584.5,172584.40000000596,169738.012,169744.1000000015,169754.704,172590.863,8,400,43,,ISIC_0033938.JPG
break,html.Screen,4_42_1,2023-05-03T18:10:39.482Z,,0,,,NaN,,,,,,false,,,,172584.90000000596,172584.80000000447,,172584.5,,172590.863,8,400,,,
break_continue,html.Screen,4_42_2,2023-05-03T18:10:39.482Z,,0,,,NaN,,,,,,false,,,,172585,172585,,172584.90000000596,,172590.863,8,400,,,
sequence,flow.Sequence,4_42,2023-05-03T18:10:39.482Z,,0,,,2830.296000000002,completion,,,,,false,,,,172585.1000000015,172585,169738.012,169744.1000000015,169754.704,172590.863,8,400,,,
trial,html.Screen,4_43_0,2023-05-03T18:10:43.104Z,,0,1,,3616.0370000059484,response,ISIC_0033724.JPG,,ISIC_0172020.JPG,ISIC_0172020.JPG,false,0,keypress(z),500,176206.90000000596,176206.90000000596,172574.184,172585.20000000298,172590.863,176211.084,8,400,44,,ISIC_0033724.JPG
break,html.Screen,4_43_1,2023-05-03T18:10:43.104Z,,0,,,NaN,,,,,,false,,,,176207.40000000596,176207.20000000298,,176207,,176211.084,8,400,,,
break_continue,html.Screen,4_43_2,2023-05-03T18:10:43.104Z,,0,,,NaN,,,,,,false,,,,176207.6000000015,176207.5,,176207.5,,176211.084,8,400,,,
sequence,flow.Sequence,4_43,2023-05-03T18:10:43.104Z,,0,,,3616.636999999988,completion,,,,,false,,,,176207.6000000015,176207.5,172574.184,172585.1000000015,172590.863,176211.084,8,400,,,
trial,html.Screen,4_44_0,2023-05-03T18:10:46.296Z,,0,1,,3187.816000005958,response,ISIC_9307584.JPG,,ISIC_0033616.JPG,ISIC_0033616.JPG,false,0,keypress(z),500,179399.1000000015,179398.90000000596,176194.46,176207.70000000298,176211.084,179414.329,8,400,45,,ISIC_9307584.JPG
break,html.Screen,4_44_1,2023-05-03T18:10:46.296Z,,0,,,NaN,,,,,,false,,,,179399.5,179399.30000000447,,179399.1000000015,,179414.329,8,400,,,
break_continue,html.Screen,4_44_2,2023-05-03T18:10:46.296Z,,0,,,NaN,,,,,,false,,,,179399.6000000015,179399.6000000015,,179399.5,,179414.329,8,400,,,
sequence,flow.Sequence,4_44,2023-05-03T18:10:46.296Z,,0,,,3188.5160000014876,completion,,,,,false,,,,179399.70000000298,179399.6000000015,176194.46,176207.70000000298,176211.084,179414.329,8,400,,,
trial,html.Screen,4_45_0,2023-05-03T18:10:49.328Z,,0,1,,3016.671000000002,response,ISIC_0000162.JPG,,ISIC_0172020.JPG,ISIC_0000162.JPG,false,1,keypress(m),500,182431.1000000015,182431,179397.601,179399.80000000447,179414.329,182433.966,8,400,46,,ISIC_0172020.JPG
break,html.Screen,4_45_1,2023-05-03T18:10:49.328Z,,0,,,NaN,,,,,,false,,,,182431.5,182431.30000000447,,182431.20000000298,,182433.966,8,400,,,
break_continue,html.Screen,4_45_2,2023-05-03T18:10:49.328Z,,0,,,NaN,,,,,,false,,,,182431.70000000298,182431.6000000015,,182431.5,,182433.966,8,400,,,
sequence,flow.Sequence,4_45,2023-05-03T18:10:49.328Z,,0,,,3017.271000001492,completion,,,,,false,,,,182431.70000000298,182431.6000000015,179397.601,179399.80000000447,179414.329,182433.966,8,400,,,
trial,html.Screen,4_46_0,2023-05-03T18:10:51.928Z,,0,1,,2597.534000000014,response,ISIC_4130478.JPG,,ISIC_4093484.JPG,ISIC_4130478.JPG,false,1,keypress(m),500,185031.6000000015,185031.5,182417.358,182431.80000000447,182433.966,185036.59,8,400,47,,ISIC_4093484.JPG
break,html.Screen,4_46_1,2023-05-03T18:10:51.929Z,,0,,,NaN,,,,,,false,,,,185032.1000000015,185031.80000000447,,185031.70000000298,,185036.59,8,400,,,
break_continue,html.Screen,4_46_2,2023-05-03T18:10:51.929Z,,0,,,NaN,,,,,,false,,,,185032.20000000298,185032.20000000298,,185032.1000000015,,185036.59,8,400,,,
sequence,flow.Sequence,4_46,2023-05-03T18:10:51.929Z,,0,,,2598.2340000029944,completion,,,,,false,,,,185032.30000000447,185032.20000000298,182417.358,182431.80000000447,182433.966,185036.59,8,400,,,
trial,html.Screen,4_47_0,2023-05-03T18:10:55.152Z,,0,1,,3218.6100000029837,response,ISIC_0032925.JPG,,ISIC_0071735.JPG,ISIC_0032925.JPG,false,1,keypress(m),500,188255.30000000447,188255.20000000298,185019.947,185032.40000000596,185036.59,188274.281,8,400,48,,ISIC_0071735.JPG
break,html.Screen,4_47_1,2023-05-03T18:10:55.152Z,,0,,,NaN,,,,,,false,,,,188255.70000000298,188255.6000000015,,188255.40000000596,,188274.281,8,400,,,
break_continue,html.Screen,4_47_2,2023-05-03T18:10:55.153Z,,0,,,NaN,,,,,,false,,,,188256,188255.80000000447,,188255.80000000447,,188274.281,8,400,,,
sequence,flow.Sequence,4_47,2023-05-03T18:10:55.153Z,,0,,,3219.210000004474,completion,,,,,false,,,,188256,188255.80000000447,185019.947,185032.30000000447,185036.59,188274.281,8,400,,,
trial,html.Screen,4_48_0,2023-05-03T18:10:57.976Z,,0,1,,2805.1190000059723,response,ISIC_0029033.JPG,,ISIC_0058501.JPG,ISIC_0058501.JPG,false,0,keypress(z),500,191079.5,191079.40000000596,188239.85,188256,188274.281,191092.633,8,400,49,,ISIC_0029033.JPG
break,html.Screen,4_48_1,2023-05-03T18:10:57.977Z,,0,,,NaN,,,,,,false,,,,191079.90000000596,191079.80000000447,,191079.5,,191092.633,8,400,,,
break_continue,html.Screen,4_48_2,2023-05-03T18:10:57.977Z,,0,,,NaN,,,,,,false,,,,191080,191080,,191080,,191092.633,8,400,,,
sequence,flow.Sequence,4_48,2023-05-03T18:10:57.977Z,,0,,,2805.719000000012,completion,,,,,false,,,,191080.20000000298,191080,188239.85,188256,188274.281,191092.633,8,400,,,
trial,html.Screen,4_49_0,2023-05-03T18:11:01.025Z,,0,1,,3034.767000005959,response,ISIC_0029214.JPG,,ISIC_0033087.JPG,ISIC_0029214.JPG,false,1,keypress(m),500,194127.6000000015,194127.40000000596,191076.031,191080.30000000447,191092.633,194128.964,8,400,50,,ISIC_0033087.JPG
break,html.Screen,4_49_1,2023-05-03T18:11:06.015Z,,0,,,5005.095000000001,timeout,,,,,false,,,,199117.90000000596,199117.388,194112.286,194127.70000000298,194128.964,199134.059,8,400,,,
break_continue,html.Screen,4_49_2,2023-05-03T18:11:26.913Z,,0,,,20875.841000005952,response,,,,,false,continue,keypress(Space),,220015.80000000447,220009.90000000596,199117.388,199118,199134.059,220038.298,8,400,,,
sequence,flow.Sequence,4_49,2023-05-03T18:11:26.914Z,,0,,,28917.26700000596,completion,,,,,false,,,,220016,220009.90000000596,191076.031,191080.30000000447,191092.633,220038.298,8,400,,,
trial,html.Screen,4_50_0,2023-05-03T18:11:30.529Z,,0,2,,3592.70199999999,response,ISIC_4539674.JPG,,ISIC_0062325.JPG,ISIC_0062325.JPG,false,0,keypress(z),500,223631.1000000015,223631,220021.575,220016,220038.298,223641.908,8,400,1,,ISIC_4539674.JPG
break,html.Screen,4_50_1,2023-05-03T18:11:30.529Z,,0,,,NaN,,,,,,false,,,,223631.5,223631.30000000447,,223631.1000000015,,223641.908,8,400,,,
break_continue,html.Screen,4_50_2,2023-05-03T18:11:30.529Z,,0,,,NaN,,,,,,false,,,,223631.70000000298,223631.6000000015,,223631.6000000015,,223641.908,8,400,,,
sequence,flow.Sequence,4_50,2023-05-03T18:11:30.529Z,,0,,,3593.3020000014803,completion,,,,,false,,,,223631.70000000298,223631.6000000015,220021.575,220016,220038.298,223641.908,8,400,,,
trial,html.Screen,4_51_0,2023-05-03T18:11:34.105Z,,0,2,,3565.4920000059647,response,ISIC_9087221.JPG,,ISIC_0025817.JPG,ISIC_0025817.JPG,false,0,keypress(z),500,227207.5,227207.40000000596,223625.237,223631.90000000596,223641.908,227212.077,8,400,2,,ISIC_9087221.JPG
break,html.Screen,4_51_1,2023-05-03T18:11:34.106Z,,0,,,NaN,,,,,,false,,,,227208,227207.70000000298,,227207.6000000015,,227212.077,8,400,,,
break_continue,html.Screen,4_51_2,2023-05-03T18:11:34.106Z,,0,,,NaN,,,,,,false,,,,227208.1000000015,227208.1000000015,,227208.1000000015,,227212.077,8,400,,,
sequence,flow.Sequence,4_51,2023-05-03T18:11:34.106Z,,0,,,3566.1920000014943,completion,,,,,false,,,,227208.20000000298,227208.1000000015,223625.237,223631.90000000596,223641.908,227212.077,8,400,,,
trial,html.Screen,4_52_0,2023-05-03T18:11:36.697Z,,0,2,,2587.62300000299,response,ISIC_0009989.JPG,,ISIC_2245069.JPG,ISIC_0009989.JPG,false,1,keypress(m),500,229799.90000000596,229799.70000000298,227195.452,227208.30000000447,227212.077,229814.739,8,400,3,,ISIC_2245069.JPG
break,html.Screen,4_52_1,2023-05-03T18:11:36.698Z,,0,,,NaN,,,,,,false,,,,229800.20000000298,229800,,229799.90000000596,,229814.739,8,400,,,
break_continue,html.Screen,4_52_2,2023-05-03T18:11:36.698Z,,0,,,NaN,,,,,,false,,,,229800.40000000596,229800.40000000596,,229800.30000000447,,229814.739,8,400,,,
sequence,flow.Sequence,4_52,2023-05-03T18:11:36.698Z,,0,,,2588.3230000059702,completion,,,,,false,,,,229800.5,229800.40000000596,227195.452,227208.20000000298,227212.077,229814.739,8,400,,,
trial,html.Screen,4_53_0,2023-05-03T18:11:39.264Z,,0,2,,2551.8610000014887,response,ISIC_7637091.JPG,,ISIC_0046571.JPG,ISIC_0046571.JPG,false,0,keypress(z),500,232366.70000000298,232366.6000000015,229798.037,229800.5,229814.739,232383.952,8,400,4,,ISIC_7637091.JPG
break,html.Screen,4_53_1,2023-05-03T18:11:39.265Z,,0,,,NaN,,,,,,false,,,,232367.20000000298,232367,,232366.80000000447,,232383.952,8,400,,,
break_continue,html.Screen,4_53_2,2023-05-03T18:11:39.265Z,,0,,,NaN,,,,,,false,,,,232367.40000000596,232367.30000000447,,232367.30000000447,,232383.952,8,400,,,
sequence,flow.Sequence,4_53,2023-05-03T18:11:39.265Z,,0,,,2552.561000004469,completion,,,,,false,,,,232367.5,232367.30000000447,229798.037,229800.5,229814.739,232383.952,8,400,,,
trial,html.Screen,4_54_0,2023-05-03T18:11:41.865Z,,0,2,,2583.34800000448,response,ISIC_0000358.JPG,,ISIC_5999002.JPG,ISIC_5999002.JPG,false,0,keypress(z),500,234967.40000000596,234967.30000000447,232350.61,232367.5,232383.952,234969.853,8,400,5,,ISIC_0000358.JPG
break,html.Screen,4_54_1,2023-05-03T18:11:41.865Z,,0,,,NaN,,,,,,false,,,,234967.80000000447,234967.6000000015,,234967.5,,234969.853,8,400,,,
break_continue,html.Screen,4_54_2,2023-05-03T18:11:41.866Z,,0,,,NaN,,,,,,false,,,,234968,234968,,234968,,234969.853,8,400,,,
sequence,flow.Sequence,4_54,2023-05-03T18:11:41.866Z,,0,,,2584.04800000001,completion,,,,,false,,,,234968.1000000015,234968,232350.61,232367.5,232383.952,234969.853,8,400,,,
trial,html.Screen,4_55_0,2023-05-03T18:11:45.129Z,,0,2,,3261.5470000059577,response,ISIC_0012025.JPG,,ISIC_0071693.JPG,ISIC_0012025.JPG,false,1,keypress(m),500,238231.5,238231.40000000596,234953.232,234968.20000000298,234969.853,238239.805,8,400,6,,ISIC_0071693.JPG
break,html.Screen,4_55_1,2023-05-03T18:11:45.130Z,,0,,,NaN,,,,,,false,,,,238231.90000000596,238231.70000000298,,238231.6000000015,,238239.805,8,400,,,
break_continue,html.Screen,4_55_2,2023-05-03T18:11:45.130Z,,0,,,NaN,,,,,,false,,,,238232.1000000015,238232.1000000015,,238232,,238239.805,8,400,,,
sequence,flow.Sequence,4_55,2023-05-03T18:11:45.130Z,,0,,,3262.2470000014873,completion,,,,,false,,,,238232.20000000298,238232.1000000015,234953.232,234968.1000000015,234969.853,238239.805,8,400,,,
trial,html.Screen,4_56_0,2023-05-03T18:11:47.849Z,,0,2,,2711.695000000007,response,ISIC_3506204.JPG,,ISIC_8263489.JPG,ISIC_3506204.JPG,false,1,keypress(m),500,240951.70000000298,240951.5,238223.15,238232.20000000298,238239.805,240959.194,8,400,7,,ISIC_8263489.JPG
break,html.Screen,4_56_1,2023-05-03T18:11:47.850Z,,0,,,NaN,,,,,,false,,,,240952,240951.90000000596,,240951.80000000447,,240959.194,8,400,,,
break_continue,html.Screen,4_56_2,2023-05-03T18:11:47.850Z,,0,,,NaN,,,,,,false,,,,240952.20000000298,240952.1000000015,,240952.1000000015,,240959.194,8,400,,,
sequence,flow.Sequence,4_56,2023-05-03T18:11:47.850Z,,0,,,2712.295000001497,completion,,,,,false,,,,240952.30000000447,240952.1000000015,238223.15,238232.20000000298,238239.805,240959.194,8,400,,,
trial,html.Screen,4_57_0,2023-05-03T18:11:50.760Z,,0,2,,2903.3060000000114,response,ISIC_6445453.JPG,,ISIC_3028754.JPG,ISIC_3028754.JPG,false,0,keypress(z),500,243862.6000000015,243862.5,240942.529,240952.30000000447,240959.194,243878.813,8,400,8,,ISIC_6445453.JPG
break,html.Screen,4_57_1,2023-05-03T18:11:50.761Z,,0,,,NaN,,,,,,false,,,,243863,243862.90000000596,,243862.6000000015,,243878.813,8,400,,,
break_continue,html.Screen,4_57_2,2023-05-03T18:11:50.761Z,,0,,,NaN,,,,,,false,,,,243863.20000000298,243863.1000000015,,243863.1000000015,,243878.813,8,400,,,
sequence,flow.Sequence,4_57,2023-05-03T18:11:50.761Z,,0,,,2903.9060000015015,completion,,,,,false,,,,243863.30000000447,243863.1000000015,240942.529,240952.30000000447,240959.194,243878.813,8,400,,,
trial,html.Screen,4_58_0,2023-05-03T18:11:52.985Z,,0,2,,2207.9870000044757,response,ISIC_0000077.JPG,,ISIC_0054048.JPG,ISIC_0000077.JPG,false,1,keypress(m),500,246086.90000000596,246086.80000000447,243862.101,243863.40000000596,243878.813,246097.698,8,400,9,,ISIC_0054048.JPG
break,html.Screen,4_58_1,2023-05-03T18:11:52.985Z,,0,,,NaN,,,,,,false,,,,246087.30000000447,246087.20000000298,,246087,,246097.698,8,400,,,
break_continue,html.Screen,4_58_2,2023-05-03T18:11:52.985Z,,0,,,NaN,,,,,,false,,,,246087.5,246087.5,,246087.40000000596,,246097.698,8,400,,,
sequence,flow.Sequence,4_58,2023-05-03T18:11:52.985Z,,0,,,2208.6870000000054,completion,,,,,false,,,,246087.6000000015,246087.5,243862.101,243863.40000000596,243878.813,246097.698,8,400,,,
trial,html.Screen,4_59_0,2023-05-03T18:11:55.201Z,,0,2,,2205.402000001486,response,ISIC_0032424.JPG,,ISIC_7795549.JPG,ISIC_0032424.JPG,false,1,keypress(m),500,248303.20000000298,248303.1000000015,246081.024,246087.6000000015,246097.698,248316.572,8,400,10,,ISIC_7795549.JPG
break,html.Screen,4_59_1,2023-05-03T18:11:55.201Z,,0,,,NaN,,,,,,false,,,,248303.70000000298,248303.5,,248303.30000000447,,248316.572,8,400,,,
break_continue,html.Screen,4_59_2,2023-05-03T18:11:55.201Z,,0,,,NaN,,,,,,false,,,,248303.90000000596,248303.80000000447,,248303.80000000447,,248316.572,8,400,,,
sequence,flow.Sequence,4_59,2023-05-03T18:11:55.202Z,,0,,,2206.1020000044664,completion,,,,,false,,,,248304,248303.80000000447,246081.024,246087.6000000015,246097.698,248316.572,8,400,,,
trial,html.Screen,4_60_0,2023-05-03T18:11:57.433Z,,0,2,,2218.228000004485,response,ISIC_0030417.JPG,,ISIC_2412888.JPG,ISIC_0030417.JPG,false,1,keypress(m),500,250535,250534.80000000447,248299.855,248304,248316.572,250552.142,8,400,11,,ISIC_2412888.JPG
break,html.Screen,4_60_1,2023-05-03T18:11:57.433Z,,0,,,NaN,,,,,,false,,,,250535.30000000447,250535.20000000298,,250535,,250552.142,8,400,,,
break_continue,html.Screen,4_60_2,2023-05-03T18:11:57.433Z,,0,,,NaN,,,,,,false,,,,250535.6000000015,250535.5,,250535.40000000596,,250552.142,8,400,,,
sequence,flow.Sequence,4_60,2023-05-03T18:11:57.433Z,,0,,,2218.9280000000144,completion,,,,,false,,,,250535.6000000015,250535.5,248299.855,248304,248316.572,250552.142,8,400,,,
trial,html.Screen,4_61_0,2023-05-03T18:12:00.225Z,,0,2,,2775.3580000000075,response,ISIC_7797655.JPG,,ISIC_0068382.JPG,ISIC_7797655.JPG,false,1,keypress(m),500,253327.6000000015,253327.5,250518.777,250535.70000000298,250552.142,253338.285,8,400,12,,ISIC_0068382.JPG
break,html.Screen,4_61_1,2023-05-03T18:12:00.225Z,,0,,,NaN,,,,,,false,,,,253328,253327.80000000447,,253327.70000000298,,253338.285,8,400,,,
break_continue,html.Screen,4_61_2,2023-05-03T18:12:00.226Z,,0,,,NaN,,,,,,false,,,,253328,253328,,253328,,253338.285,8,400,,,
sequence,flow.Sequence,4_61,2023-05-03T18:12:00.226Z,,0,,,2775.8580000000075,completion,,,,,false,,,,253328.1000000015,253328,250518.777,250535.6000000015,250552.142,253338.285,8,400,,,
trial,html.Screen,4_62_0,2023-05-03T18:12:02.665Z,,0,2,,2429.115000005957,response,ISIC_0072582.JPG,,ISIC_8436492.JPG,ISIC_0072582.JPG,false,1,keypress(m),500,255767.6000000015,255767.40000000596,253321.528,253328.20000000298,253338.285,255774.041,8,400,13,,ISIC_8436492.JPG
break,html.Screen,4_62_1,2023-05-03T18:12:02.666Z,,0,,,NaN,,,,,,false,,,,255768,255767.90000000596,,255767.70000000298,,255774.041,8,400,,,
break_continue,html.Screen,4_62_2,2023-05-03T18:12:02.666Z,,0,,,NaN,,,,,,false,,,,255768.20000000298,255768.20000000298,,255768.1000000015,,255774.041,8,400,,,
sequence,flow.Sequence,4_62,2023-05-03T18:12:02.666Z,,0,,,2429.9150000029767,completion,,,,,false,,,,255768.30000000447,255768.20000000298,253321.528,253328.20000000298,253338.285,255774.041,8,400,,,
trial,html.Screen,4_63_0,2023-05-03T18:12:05.040Z,,0,2,,2368.759000004473,response,ISIC_3031937.JPG,,ISIC_4640293.JPG,ISIC_3031937.JPG,false,1,keypress(m),500,258142.90000000596,258142.80000000447,255757.299,255768.30000000447,255774.041,258159.698,8,400,14,,ISIC_4640293.JPG
break,html.Screen,4_63_1,2023-05-03T18:12:05.041Z,,0,,,NaN,,,,,,false,,,,258143.40000000596,258143.20000000298,,258143,,258159.698,8,400,,,
break_continue,html.Screen,4_63_2,2023-05-03T18:12:05.041Z,,0,,,NaN,,,,,,false,,,,258143.5,258143.5,,258143.5,,258159.698,8,400,,,
sequence,flow.Sequence,4_63,2023-05-03T18:12:05.041Z,,0,,,2369.4590000000026,completion,,,,,false,,,,258143.5,258143.5,255757.299,255768.30000000447,255774.041,258159.698,8,400,,,
trial,html.Screen,4_64_0,2023-05-03T18:12:07.624Z,,0,2,,2567.0020000029763,response,ISIC_0033946.JPG,,ISIC_0065658.JPG,ISIC_0033946.JPG,false,1,keypress(m),500,260726.80000000447,260726.70000000298,258143.04,258143.6000000015,258159.698,260745.668,8,400,15,,ISIC_0065658.JPG
break,html.Screen,4_64_1,2023-05-03T18:12:07.625Z,,0,,,NaN,,,,,,false,,,,260727.20000000298,260727,,260727,,260745.668,8,400,,,
break_continue,html.Screen,4_64_2,2023-05-03T18:12:07.625Z,,0,,,NaN,,,,,,false,,,,260727.30000000447,260727.20000000298,,260727.20000000298,,260745.668,8,400,,,
sequence,flow.Sequence,4_64,2023-05-03T18:12:07.625Z,,0,,,2567.5020000029763,completion,,,,,false,,,,260727.30000000447,260727.20000000298,258143.04,258143.6000000015,258159.698,260745.668,8,400,,,
trial,html.Screen,4_65_0,2023-05-03T18:12:09.825Z,,0,2,,2181.331999999995,response,ISIC_0032750.JPG,,ISIC_1641823.JPG,ISIC_1641823.JPG,false,0,keypress(z),500,262927.200000003,262927,260728.982,260727.40000000596,260745.668,262931.122,8,400,16,,ISIC_0032750.JPG
break,html.Screen,4_65_1,2023-05-03T18:12:09.825Z,,0,,,NaN,,,,,,false,,,,262927.6000000015,262927.5,,262927.200000003,,262931.122,8,400,,,
break_continue,html.Screen,4_65_2,2023-05-03T18:12:09.825Z,,0,,,NaN,,,,,,false,,,,262927.700000003,262927.700000003,,262927.700000003,,262931.122,8,400,,,
sequence,flow.Sequence,4_65,2023-05-03T18:12:09.825Z,,0,,,2182.032000002975,completion,,,,,false,,,,262927.80000000447,262927.700000003,260728.982,260727.40000000596,260745.668,262931.122,8,400,,,
trial,html.Screen,4_66_0,2023-05-03T18:12:12.080Z,,0,2,,2251.6780000044964,response,ISIC_6228471.JPG,,ISIC_0032797.JPG,ISIC_0032797.JPG,false,0,keypress(z),500,265182.80000000447,265182.80000000447,262914.475,262927.90000000596,262931.122,265200.136,8,400,17,,ISIC_6228471.JPG
break,html.Screen,4_66_1,2023-05-03T18:12:12.081Z,,0,,,NaN,,,,,,false,,,,265183.30000000447,265183.1000000015,,265182.90000000596,,265200.136,8,400,,,
break_continue,html.Screen,4_66_2,2023-05-03T18:12:12.081Z,,0,,,NaN,,,,,,false,,,,265183.40000000596,265183.40000000596,,265183.40000000596,,265200.136,8,400,,,
sequence,flow.Sequence,4_66,2023-05-03T18:12:12.081Z,,0,,,2252.2780000059865,completion,,,,,false,,,,265183.6000000015,265183.40000000596,262914.475,262927.90000000596,262931.122,265200.136,8,400,,,
trial,html.Screen,4_67_0,2023-05-03T18:12:14.329Z,,0,2,,2231.264000005962,response,ISIC_0862350.JPG,,ISIC_2438917.JPG,ISIC_2438917.JPG,false,0,keypress(z),500,267431.6000000015,267431.40000000596,265166.751,265183.6000000015,265200.136,267435.649,8,400,18,,ISIC_0862350.JPG
break,html.Screen,4_67_1,2023-05-03T18:12:14.329Z,,0,,,NaN,,,,,,false,,,,267431.90000000596,267431.80000000447,,267431.6000000015,,267435.649,8,400,,,
break_continue,html.Screen,4_67_2,2023-05-03T18:12:14.330Z,,0,,,NaN,,,,,,false,,,,267432,267432,,267431.90000000596,,267435.649,8,400,,,
sequence,flow.Sequence,4_67,2023-05-03T18:12:14.330Z,,0,,,2231.8640000000014,completion,,,,,false,,,,267432.1000000015,267432,265166.751,265183.6000000015,265200.136,267435.649,8,400,,,
trial,html.Screen,4_68_0,2023-05-03T18:12:16.457Z,,0,2,,2123.9510000015143,response,ISIC_0063190.JPG,,ISIC_6511689.JPG,ISIC_6511689.JPG,false,0,keypress(z),500,269559.700000003,269559.6000000015,267418.98,267432.200000003,267435.649,269571.17,8,400,19,,ISIC_0063190.JPG
break,html.Screen,4_68_1,2023-05-03T18:12:16.458Z,,0,,,NaN,,,,,,false,,,,269560.200000003,269560,,269559.80000000447,,269571.17,8,400,,,
break_continue,html.Screen,4_68_2,2023-05-03T18:12:16.458Z,,0,,,NaN,,,,,,false,,,,269560.40000000596,269560.30000000447,,269560.30000000447,,269571.17,8,400,,,
sequence,flow.Sequence,4_68,2023-05-03T18:12:16.458Z,,0,,,2124.6510000044946,completion,,,,,false,,,,269560.40000000596,269560.30000000447,267418.98,267432.200000003,267435.649,269571.17,8,400,,,
trial,html.Screen,4_69_0,2023-05-03T18:12:19.009Z,,0,2,,2540.3300000000163,response,ISIC_0027921.JPG,,ISIC_3994250.JPG,ISIC_3994250.JPG,false,0,keypress(z),500,272111.6000000015,272111.5,269554.504,269560.5,269571.17,272123.718,8,400,20,,ISIC_0027921.JPG
break,html.Screen,4_69_1,2023-05-03T18:12:19.010Z,,0,,,NaN,,,,,,false,,,,272112,272111.90000000596,,272111.700000003,,272123.718,8,400,,,
break_continue,html.Screen,4_69_2,2023-05-03T18:12:19.010Z,,0,,,NaN,,,,,,false,,,,272112.200000003,272112.1000000015,,272112.1000000015,,272123.718,8,400,,,
sequence,flow.Sequence,4_69,2023-05-03T18:12:19.010Z,,0,,,2540.9300000015064,completion,,,,,false,,,,272112.30000000447,272112.1000000015,269554.504,269560.40000000596,269571.17,272123.718,8,400,,,
trial,html.Screen,4_70_0,2023-05-03T18:12:21.704Z,,0,2,,2683.082000004477,response,ISIC_2860618.JPG,,ISIC_0068744.JPG,ISIC_0068744.JPG,false,0,keypress(z),500,274806.90000000596,274806.80000000447,272107.039,272112.40000000596,272123.718,274809.678,8,400,21,,ISIC_2860618.JPG
break,html.Screen,4_70_1,2023-05-03T18:12:21.705Z,,0,,,NaN,,,,,,false,,,,274807.30000000447,274807.200000003,,274807,,274809.678,8,400,,,
break_continue,html.Screen,4_70_2,2023-05-03T18:12:21.705Z,,0,,,NaN,,,,,,false,,,,274807.5,274807.5,,274807.40000000596,,274809.678,8,400,,,
sequence,flow.Sequence,4_70,2023-05-03T18:12:21.705Z,,0,,,2683.7820000000065,completion,,,,,false,,,,274807.6000000015,274807.5,272107.039,272112.30000000447,272123.718,274809.678,8,400,,,
trial,html.Screen,4_71_0,2023-05-03T18:12:24.528Z,,0,2,,2820.8219999999856,response,ISIC_0156642.JPG,,ISIC_0061085.JPG,ISIC_0061085.JPG,false,0,keypress(z),500,277630.700000003,277630.5,274793.037,274807.700000003,274809.678,277645.915,8,400,22,,ISIC_0156642.JPG
break,html.Screen,4_71_1,2023-05-03T18:12:24.529Z,,0,,,NaN,,,,,,false,,,,277631.1000000015,277631,,277630.80000000447,,277645.915,8,400,,,
break_continue,html.Screen,4_71_2,2023-05-03T18:12:24.529Z,,0,,,NaN,,,,,,false,,,,277631.30000000447,277631.30000000447,,277631.200000003,,277645.915,8,400,,,
sequence,flow.Sequence,4_71,2023-05-03T18:12:24.529Z,,0,,,2821.622000004456,completion,,,,,false,,,,277631.30000000447,277631.30000000447,274793.037,274807.700000003,274809.678,277645.915,8,400,,,
trial,html.Screen,4_72_0,2023-05-03T18:12:27.296Z,,0,2,,2752.8850000044913,response,ISIC_5835414.JPG,,ISIC_0011630.JPG,ISIC_0011630.JPG,false,0,keypress(z),500,280398.90000000596,280398.80000000447,277629.15,277631.40000000596,277645.915,280415.345,8,400,23,,ISIC_5835414.JPG
break,html.Screen,4_72_1,2023-05-03T18:12:27.297Z,,0,,,NaN,,,,,,false,,,,280399.200000003,280399.200000003,,280399,,280415.345,8,400,,,
break_continue,html.Screen,4_72_2,2023-05-03T18:12:27.297Z,,0,,,NaN,,,,,,false,,,,280399.5,280399.40000000596,,280399.40000000596,,280415.345,8,400,,,
sequence,flow.Sequence,4_72,2023-05-03T18:12:27.297Z,,0,,,2753.4850000059814,completion,,,,,false,,,,280399.6000000015,280399.40000000596,277629.15,277631.40000000596,277645.915,280415.345,8,400,,,
trial,html.Screen,4_73_0,2023-05-03T18:12:29.857Z,,0,2,,2543.655000000028,response,ISIC_9555580.JPG,,ISIC_3549225.JPG,ISIC_9555580.JPG,false,1,keypress(m),500,282959.1000000015,282959,280398.647,280399.6000000015,280415.345,282967.886,8,400,24,,ISIC_3549225.JPG
break,html.Screen,4_73_1,2023-05-03T18:12:29.857Z,,0,,,NaN,,,,,,false,,,,282959.5,282959.40000000596,,282959.1000000015,,282967.886,8,400,,,
break_continue,html.Screen,4_73_2,2023-05-03T18:12:29.857Z,,0,,,NaN,,,,,,false,,,,282959.700000003,282959.700000003,,282959.6000000015,,282967.886,8,400,,,
sequence,flow.Sequence,4_73,2023-05-03T18:12:29.857Z,,0,,,2544.355000003008,completion,,,,,false,,,,282959.80000000447,282959.700000003,280398.647,280399.6000000015,280415.345,282967.886,8,400,,,
trial,html.Screen,4_74_0,2023-05-03T18:12:32.448Z,,0,2,,2582.9140000044717,response,ISIC_4128342.JPG,,ISIC_5102688.JPG,ISIC_4128342.JPG,false,1,keypress(m),500,285550.90000000596,285550.80000000447,282951.213,282959.80000000447,282967.886,285553.734,8,400,25,,ISIC_5102688.JPG
break,html.Screen,4_74_1,2023-05-03T18:12:32.449Z,,0,,,NaN,,,,,,false,,,,285551.30000000447,285551.200000003,,285550.90000000596,,285553.734,8,400,,,
break_continue,html.Screen,4_74_2,2023-05-03T18:12:32.449Z,,0,,,NaN,,,,,,false,,,,285551.6000000015,285551.5,,285551.40000000596,,285553.734,8,400,,,
sequence,flow.Sequence,4_74,2023-05-03T18:12:32.449Z,,0,,,2583.6140000000014,completion,,,,,false,,,,285551.700000003,285551.5,282951.213,282959.80000000447,282967.886,285553.734,8,400,,,
trial,html.Screen,4_75_0,2023-05-03T18:12:35.169Z,,0,2,,2717.4660000029835,response,ISIC_0011628.JPG,,ISIC_6066292.JPG,ISIC_0011628.JPG,false,1,keypress(m),500,288271.30000000447,288271.200000003,285537.162,285551.700000003,285553.734,288273.108,8,400,26,,ISIC_6066292.JPG
break,html.Screen,4_75_1,2023-05-03T18:12:35.169Z,,0,,,NaN,,,,,,false,,,,288271.700000003,288271.6000000015,,288271.5,,288273.108,8,400,,,
break_continue,html.Screen,4_75_2,2023-05-03T18:12:35.170Z,,0,,,NaN,,,,,,false,,,,288272,288271.90000000596,,288271.90000000596,,288273.108,8,400,,,
sequence,flow.Sequence,4_75,2023-05-03T18:12:35.170Z,,0,,,2718.1660000059637,completion,,,,,false,,,,288272.200000003,288271.90000000596,285537.162,285551.700000003,285553.734,288273.108,8,400,,,
trial,html.Screen,4_76_0,2023-05-03T18:12:37.401Z,,0,2,,2230.592000002973,response,ISIC_2997601.JPG,,ISIC_0057593.JPG,ISIC_2997601.JPG,false,1,keypress(m),500,290503.90000000596,290503.700000003,288256.515,288272.200000003,288273.108,290525.458,8,400,27,,ISIC_0057593.JPG
break,html.Screen,4_76_1,2023-05-03T18:12:37.402Z,,0,,,NaN,,,,,,false,,,,290504.1000000015,290504.1000000015,,290503.90000000596,,290525.458,8,400,,,
break_continue,html.Screen,4_76_2,2023-05-03T18:12:37.402Z,,0,,,NaN,,,,,,false,,,,290504.30000000447,290504.200000003,,290504.200000003,,290525.458,8,400,,,
sequence,flow.Sequence,4_76,2023-05-03T18:12:37.402Z,,0,,,2231.092000002973,completion,,,,,false,,,,290504.40000000596,290504.200000003,288256.515,288272.200000003,288273.108,290525.458,8,400,,,
trial,html.Screen,4_77_0,2023-05-03T18:12:39.720Z,,0,2,,2297.242000002996,response,ISIC_0024650.JPG,,ISIC_6131393.JPG,ISIC_6131393.JPG,false,0,keypress(z),500,292822.90000000596,292822.700000003,290508.751,290504.5,290525.458,292827.76,8,400,28,,ISIC_0024650.JPG
break,html.Screen,4_77_1,2023-05-03T18:12:39.721Z,,0,,,NaN,,,,,,false,,,,292823.30000000447,292823.1000000015,,292822.90000000596,,292827.76,8,400,,,
break_continue,html.Screen,4_77_2,2023-05-03T18:12:39.721Z,,0,,,NaN,,,,,,false,,,,292823.5,292823.40000000596,,292823.30000000447,,292827.76,8,400,,,
sequence,flow.Sequence,4_77,2023-05-03T18:12:39.721Z,,0,,,2297.9420000059763,completion,,,,,false,,,,292823.6000000015,292823.40000000596,290508.751,290504.40000000596,290525.458,292827.76,8,400,,,
trial,html.Screen,4_78_0,2023-05-03T18:12:42.064Z,,0,2,,2338.940000002971,response,ISIC_5644242.JPG,,ISIC_7865214.JPG,ISIC_7865214.JPG,false,0,keypress(z),500,295166.90000000596,295166.700000003,292811.046,292823.6000000015,292827.76,295180.104,8,400,29,,ISIC_5644242.JPG
break,html.Screen,4_78_1,2023-05-03T18:12:42.065Z,,0,,,NaN,,,,,,false,,,,295167.40000000596,295167.1000000015,,295167,,295180.104,8,400,,,
break_continue,html.Screen,4_78_2,2023-05-03T18:12:42.065Z,,0,,,NaN,,,,,,false,,,,295167.5,295167.5,,295167.40000000596,,295180.104,8,400,,,
sequence,flow.Sequence,4_78,2023-05-03T18:12:42.065Z,,0,,,2339.7399999999907,completion,,,,,false,,,,295167.5,295167.5,292811.046,292823.6000000015,292827.76,295180.104,8,400,,,
trial,html.Screen,4_79_0,2023-05-03T18:12:44.322Z,,0,2,,2244.1960000044783,response,ISIC_0057815.JPG,,ISIC_0028612.JPG,ISIC_0057815.JPG,false,1,keypress(m),500,297424.40000000596,297424.30000000447,295163.411,295167.6000000015,295180.104,297432.348,8,400,30,,ISIC_0028612.JPG
break,html.Screen,4_79_1,2023-05-03T18:12:44.322Z,,0,,,NaN,,,,,,false,,,,297424.90000000596,297424.80000000447,,297424.5,,297432.348,8,400,,,
break_continue,html.Screen,4_79_2,2023-05-03T18:12:44.323Z,,0,,,NaN,,,,,,false,,,,297425.1000000015,297425,,297425,,297432.348,8,400,,,
sequence,flow.Sequence,4_79,2023-05-03T18:12:44.323Z,,0,,,2244.896000000008,completion,,,,,false,,,,297425.200000003,297425,295163.411,295167.5,295180.104,297432.348,8,400,,,
trial,html.Screen,4_80_0,2023-05-03T18:12:46.609Z,,0,2,,2279.0520000059623,response,ISIC_6676776.JPG,,ISIC_5849178.JPG,ISIC_5849178.JPG,false,0,keypress(z),500,299711.5,299711.40000000596,297415.689,297425.200000003,297432.348,299717.899,8,400,31,,ISIC_6676776.JPG
break,html.Screen,4_80_1,2023-05-03T18:12:46.609Z,,0,,,NaN,,,,,,false,,,,299711.80000000447,299711.700000003,,299711.6000000015,,299717.899,8,400,,,
break_continue,html.Screen,4_80_2,2023-05-03T18:12:46.610Z,,0,,,NaN,,,,,,false,,,,299712,299712,,299711.90000000596,,299717.899,8,400,,,
sequence,flow.Sequence,4_80,2023-05-03T18:12:46.610Z,,0,,,2279.652000000002,completion,,,,,false,,,,299712.1000000015,299712,297415.689,297425.200000003,297432.348,299717.899,8,400,,,
trial,html.Screen,4_81_0,2023-05-03T18:12:48.729Z,,0,2,,2113.2010000015143,response,ISIC_0012406.JPG,,ISIC_0032017.JPG,ISIC_0012406.JPG,false,1,keypress(m),500,301831.200000003,301831.1000000015,299701.271,299712.200000003,299717.899,301836.734,8,400,32,,ISIC_0032017.JPG
break,html.Screen,4_81_1,2023-05-03T18:12:48.729Z,,0,,,NaN,,,,,,false,,,,301831.6000000015,301831.40000000596,,301831.30000000447,,301836.734,8,400,,,
break_continue,html.Screen,4_81_2,2023-05-03T18:12:48.729Z,,0,,,NaN,,,,,,false,,,,301831.80000000447,301831.700000003,,301831.700000003,,301836.734,8,400,,,
sequence,flow.Sequence,4_81,2023-05-03T18:12:48.729Z,,0,,,2113.8010000030044,completion,,,,,false,,,,301831.80000000447,301831.700000003,299701.271,299712.1000000015,299717.899,301836.734,8,400,,,
trial,html.Screen,4_82_0,2023-05-03T18:12:51.025Z,,0,2,,2290.3660000014934,response,ISIC_5888212.JPG,,ISIC_0175530.JPG,ISIC_0175530.JPG,false,0,keypress(z),500,304127.1000000015,304127.1000000015,301820.067,301832,301836.734,304139.052,8,400,33,,ISIC_5888212.JPG
break,html.Screen,4_82_1,2023-05-03T18:12:51.025Z,,0,,,NaN,,,,,,false,,,,304127.6000000015,304127.40000000596,,304127.30000000447,,304139.052,8,400,,,
break_continue,html.Screen,4_82_2,2023-05-03T18:12:51.025Z,,0,,,NaN,,,,,,false,,,,304127.80000000447,304127.700000003,,304127.6000000015,,304139.052,8,400,,,
sequence,flow.Sequence,4_82,2023-05-03T18:12:51.025Z,,0,,,2290.9660000029835,completion,,,,,false,,,,304127.80000000447,304127.700000003,301820.067,301832,301836.734,304139.052,8,400,,,
trial,html.Screen,4_83_0,2023-05-03T18:12:53.281Z,,0,2,,2243.8480000059353,response,ISIC_0058716.JPG,,ISIC_0011289.JPG,ISIC_0058716.JPG,false,1,keypress(m),500,306383.1000000015,306382.90000000596,304122.364,304127.80000000447,304139.052,306391.22,8,400,34,,ISIC_0011289.JPG
break,html.Screen,4_83_1,2023-05-03T18:12:53.281Z,,0,,,NaN,,,,,,false,,,,306383.5,306383.40000000596,,306383.1000000015,,306391.22,8,400,,,
break_continue,html.Screen,4_83_2,2023-05-03T18:12:53.281Z,,0,,,NaN,,,,,,false,,,,306383.700000003,306383.6000000015,,306383.6000000015,,306391.22,8,400,,,
sequence,flow.Sequence,4_83,2023-05-03T18:12:53.281Z,,0,,,2244.548000001465,completion,,,,,false,,,,306383.80000000447,306383.6000000015,304122.364,304127.80000000447,304139.052,306391.22,8,400,,,
trial,html.Screen,4_84_0,2023-05-03T18:12:55.569Z,,0,2,,2279.980000003008,response,ISIC_4958006.JPG,,ISIC_0024737.JPG,ISIC_0024737.JPG,false,0,keypress(z),500,308671.30000000447,308671.200000003,306374.62,306383.80000000447,306391.22,308676.909,8,400,35,,ISIC_4958006.JPG
break,html.Screen,4_84_1,2023-05-03T18:12:55.569Z,,0,,,NaN,,,,,,false,,,,308671.80000000447,308671.6000000015,,308671.5,,308676.909,8,400,,,
break_continue,html.Screen,4_84_2,2023-05-03T18:12:55.569Z,,0,,,NaN,,,,,,false,,,,308672,308671.90000000596,,308671.80000000447,,308676.909,8,400,,,
sequence,flow.Sequence,4_84,2023-05-03T18:12:55.570Z,,0,,,2280.6800000059884,completion,,,,,false,,,,308672,308671.90000000596,306374.62,306383.80000000447,306391.22,308676.909,8,400,,,
trial,html.Screen,4_85_0,2023-05-03T18:12:59.576Z,,0,2,,4001.9910000059754,response,ISIC_0013740.JPG,,ISIC_5148474.JPG,ISIC_0013740.JPG,false,1,keypress(m),500,312678.90000000596,312678.90000000596,308660.231,308672.1000000015,308676.909,312680.882,8,400,36,,ISIC_5148474.JPG
break,html.Screen,4_85_1,2023-05-03T18:12:59.577Z,,0,,,NaN,,,,,,false,,,,312679.30000000447,312679.200000003,,312679,,312680.882,8,400,,,
break_continue,html.Screen,4_85_2,2023-05-03T18:12:59.577Z,,0,,,NaN,,,,,,false,,,,312679.5,312679.40000000596,,312679.40000000596,,312680.882,8,400,,,
sequence,flow.Sequence,4_85,2023-05-03T18:12:59.577Z,,0,,,4002.4910000059754,completion,,,,,false,,,,312679.6000000015,312679.40000000596,308660.231,308672.1000000015,308676.909,312680.882,8,400,,,
trial,html.Screen,4_86_0,2023-05-03T18:13:02.946Z,,0,2,,3366.5180000059772,response,ISIC_0026685.JPG,,ISIC_2863397.JPG,ISIC_0026685.JPG,false,1,keypress(m),500,316047.5,316047.40000000596,312664.243,312679.700000003,312680.882,316050.988,8,400,37,,ISIC_2863397.JPG
break,html.Screen,4_86_1,2023-05-03T18:13:02.946Z,,0,,,NaN,,,,,,false,,,,316048,316047.80000000447,,316047.700000003,,316050.988,8,400,,,
break_continue,html.Screen,4_86_2,2023-05-03T18:13:02.946Z,,0,,,NaN,,,,,,false,,,,316048.200000003,316048,,316048,,316050.988,8,400,,,
sequence,flow.Sequence,4_86,2023-05-03T18:13:02.946Z,,0,,,3367.1180000000168,completion,,,,,false,,,,316048.200000003,316048,312664.243,312679.700000003,312680.882,316050.988,8,400,,,
trial,html.Screen,4_87_0,2023-05-03T18:13:08.353Z,,0,2,,5404.011999999988,response,ISIC_4746361.JPG,,ISIC_0032079.JPG,ISIC_4746361.JPG,false,1,keypress(m),500,321455.1000000015,321455,316034.25,316048.30000000447,316050.988,321483.281,8,400,38,,ISIC_0032079.JPG
break,html.Screen,4_87_1,2023-05-03T18:13:08.353Z,,0,,,NaN,,,,,,false,,,,321455.40000000596,321455.30000000447,,321455.1000000015,,321483.281,8,400,,,
break_continue,html.Screen,4_87_2,2023-05-03T18:13:08.354Z,,0,,,NaN,,,,,,false,,,,321455.700000003,321455.6000000015,,321455.6000000015,,321483.281,8,400,,,
sequence,flow.Sequence,4_87,2023-05-03T18:13:08.354Z,,0,,,5404.612000001478,completion,,,,,false,,,,321455.700000003,321455.6000000015,316034.25,316048.30000000447,316050.988,321483.281,8,400,,,
trial,html.Screen,4_88_0,2023-05-03T18:13:19.866Z,,0,2,,11517.983000000007,timeout,ISIC_5982769.JPG,,ISIC_0897876.JPG,,false,,,500,332968.40000000596,332968.30000000447,321439.68,321455.700000003,321483.281,333001.264,8,400,39,,
break,html.Screen,4_88_1,2023-05-03T18:13:19.867Z,,0,,,NaN,,,,,,false,,,,332968.6000000015,332968.6000000015,,332968.40000000596,,333001.264,8,400,,,
break_continue,html.Screen,4_88_2,2023-05-03T18:13:19.867Z,,0,,,NaN,,,,,,false,,,,332968.80000000447,332968.80000000447,,332968.80000000447,,333001.264,8,400,,,
sequence,flow.Sequence,4_88,2023-05-03T18:13:19.867Z,,0,,,11485.519000004453,completion,,,,,false,,,,332968.80000000447,332968.80000000447,321439.68,321455.700000003,321483.281,333001.264,8,400,,,
trial,html.Screen,4_89_0,2023-05-03T18:13:31.378Z,,0,2,,11511.496999999974,timeout,ISIC_6441128.JPG,,ISIC_0011930.JPG,,false,,,500,344479.80000000447,344479.80000000447,332984.575,332969,333001.264,344512.761,8,400,40,,
break,html.Screen,4_89_1,2023-05-03T18:13:31.378Z,,0,,,NaN,,,,,,false,,,,344480.1000000015,344480.1000000015,,344480,,344512.761,8,400,,,
break_continue,html.Screen,4_89_2,2023-05-03T18:13:31.378Z,,0,,,NaN,,,,,,false,,,,344480.30000000447,344480.30000000447,,344480.200000003,,344512.761,8,400,,,
sequence,flow.Sequence,4_89,2023-05-03T18:13:31.378Z,,0,,,11479.036000004446,completion,,,,,false,,,,344480.40000000596,344480.30000000447,332984.575,332968.90000000596,333001.264,344512.761,8,400,,,
trial,html.Screen,4_90_0,2023-05-03T18:13:34.977Z,,0,2,,3566.3390000014915,response,ISIC_0000145.JPG,,ISIC_4352700.JPG,ISIC_4352700.JPG,false,0,keypress(z),500,348079.30000000447,348079.1000000015,344496.076,344480.40000000596,344512.761,348082.918,8,400,41,,ISIC_0000145.JPG
break,html.Screen,4_90_1,2023-05-03T18:13:34.978Z,,0,,,NaN,,,,,,false,,,,348079.6000000015,348079.5,,348079.30000000447,,348082.918,8,400,,,
break_continue,html.Screen,4_90_2,2023-05-03T18:13:34.978Z,,0,,,NaN,,,,,,false,,,,348079.80000000447,348079.700000003,,348079.700000003,,348082.918,8,400,,,
sequence,flow.Sequence,4_90,2023-05-03T18:13:34.978Z,,0,,,3566.9390000029816,completion,,,,,false,,,,348079.90000000596,348079.700000003,344496.076,344480.40000000596,344512.761,348082.918,8,400,,,
trial,html.Screen,4_91_0,2023-05-03T18:13:38.169Z,,0,2,,3188.182000001485,response,ISIC_0011703.JPG,,ISIC_1217314.JPG,ISIC_0011703.JPG,false,1,keypress(m),500,351271.200000003,351271.1000000015,348066.31,348079.90000000596,348082.918,351286.217,8,400,42,,ISIC_1217314.JPG
break,html.Screen,4_91_1,2023-05-03T18:13:38.170Z,,0,,,NaN,,,,,,false,,,,351271.6000000015,351271.5,,351271.30000000447,,351286.217,8,400,,,
break_continue,html.Screen,4_91_2,2023-05-03T18:13:38.170Z,,0,,,NaN,,,,,,false,,,,351271.80000000447,351271.700000003,,351271.700000003,,351286.217,8,400,,,
sequence,flow.Sequence,4_91,2023-05-03T18:13:38.170Z,,0,,,3188.782000002975,completion,,,,,false,,,,351271.90000000596,351271.700000003,348066.31,348079.90000000596,348082.918,351286.217,8,400,,,
trial,html.Screen,4_92_0,2023-05-03T18:13:40.818Z,,0,2,,2633.282999999996,response,ISIC_5942564.JPG,,ISIC_7215208.JPG,ISIC_5942564.JPG,false,1,keypress(m),500,353919.6000000015,353919.5,351269.479,351271.90000000596,351286.217,353922.094,8,400,43,,ISIC_7215208.JPG
break,html.Screen,4_92_1,2023-05-03T18:13:40.818Z,,0,,,NaN,,,,,,false,,,,353919.90000000596,353919.80000000447,,353919.6000000015,,353922.094,8,400,,,
break_continue,html.Screen,4_92_2,2023-05-03T18:13:40.818Z,,0,,,NaN,,,,,,false,,,,353920.1000000015,353920.1000000015,,353920,,353922.094,8,400,,,
sequence,flow.Sequence,4_92,2023-05-03T18:13:40.818Z,,0,,,2633.883000001486,completion,,,,,false,,,,353920.200000003,353920.1000000015,351269.479,351271.90000000596,351286.217,353922.094,8,400,,,
trial,html.Screen,4_93_0,2023-05-03T18:13:43.570Z,,0,2,,2749.6060000029975,response,ISIC_0011365.JPG,,ISIC_7967397.JPG,ISIC_0011365.JPG,false,1,keypress(m),500,356671.80000000447,356671.700000003,353905.477,353920.200000003,353922.094,356674.879,8,400,44,,ISIC_7967397.JPG
break,html.Screen,4_93_1,2023-05-03T18:13:43.570Z,,0,,,NaN,,,,,,false,,,,356672.1000000015,356672,,356671.90000000596,,356674.879,8,400,,,
break_continue,html.Screen,4_93_2,2023-05-03T18:13:43.570Z,,0,,,NaN,,,,,,false,,,,356672.30000000447,356672.30000000447,,356672.200000003,,356674.879,8,400,,,
sequence,flow.Sequence,4_93,2023-05-03T18:13:43.570Z,,0,,,2750.2060000044876,completion,,,,,false,,,,356672.40000000596,356672.30000000447,353905.477,353920.200000003,353922.094,356674.879,8,400,,,
trial,html.Screen,4_94_0,2023-05-03T18:13:46.610Z,,0,2,,3036.6209999999846,response,ISIC_0069515.JPG,,ISIC_0032408.JPG,ISIC_0032408.JPG,false,0,keypress(z),500,359711.6000000015,359711.5,356658.225,356672.40000000596,356674.879,359727.993,8,400,45,,ISIC_0069515.JPG
break,html.Screen,4_94_1,2023-05-03T18:13:46.610Z,,0,,,NaN,,,,,,false,,,,359712.1000000015,359711.90000000596,,359711.700000003,,359727.993,8,400,,,
break_continue,html.Screen,4_94_2,2023-05-03T18:13:46.610Z,,0,,,NaN,,,,,,false,,,,359712.200000003,359712.1000000015,,359712.1000000015,,359727.993,8,400,,,
sequence,flow.Sequence,4_94,2023-05-03T18:13:46.610Z,,0,,,3037.2210000014747,completion,,,,,false,,,,359712.30000000447,359712.1000000015,356658.225,356672.40000000596,356674.879,359727.993,8,400,,,
trial,html.Screen,4_95_0,2023-05-03T18:13:49.146Z,,0,2,,2519.4070000059437,response,ISIC_7629589.JPG,,ISIC_0000392.JPG,ISIC_7629589.JPG,false,1,keypress(m),500,362247.5,362247.40000000596,359711.291,359712.30000000447,359727.993,362263.849,8,400,46,,ISIC_0000392.JPG
break,html.Screen,4_95_1,2023-05-03T18:13:49.146Z,,0,,,NaN,,,,,,false,,,,362247.90000000596,362247.80000000447,,362247.6000000015,,362263.849,8,400,,,
break_continue,html.Screen,4_95_2,2023-05-03T18:13:49.146Z,,0,,,NaN,,,,,,false,,,,362248,362248,,362248,,362263.849,8,400,,,
sequence,flow.Sequence,4_95,2023-05-03T18:13:49.146Z,,0,,,2520.0069999999832,completion,,,,,false,,,,362248.1000000015,362248,359711.291,359712.30000000447,359727.993,362263.849,8,400,,,
trial,html.Screen,4_96_0,2023-05-03T18:13:51.378Z,,0,2,,2215.951000004483,response,ISIC_1226882.JPG,,ISIC_4183816.JPG,ISIC_4183816.JPG,false,0,keypress(z),500,364479.80000000447,364479.80000000447,362247.153,362248.200000003,362263.849,364482.623,8,400,47,,ISIC_1226882.JPG
break,html.Screen,4_96_1,2023-05-03T18:13:51.378Z,,0,,,NaN,,,,,,false,,,,364480.200000003,364480.1000000015,,364480,,364482.623,8,400,,,
break_continue,html.Screen,4_96_2,2023-05-03T18:13:51.378Z,,0,,,NaN,,,,,,false,,,,364480.40000000596,364480.40000000596,,364480.30000000447,,364482.623,8,400,,,
sequence,flow.Sequence,4_96,2023-05-03T18:13:51.378Z,,0,,,2216.551000005973,completion,,,,,false,,,,364480.5,364480.40000000596,362247.153,362248.200000003,362263.849,364482.623,8,400,,,
trial,html.Screen,4_97_0,2023-05-03T18:13:53.514Z,,0,2,,2132.8769999999786,response,ISIC_2508901.JPG,,ISIC_0024315.JPG,ISIC_0024315.JPG,false,0,keypress(z),500,366615.700000003,366615.5,364465.974,364480.5,364482.623,366618.108,8,400,48,,ISIC_2508901.JPG
break,html.Screen,4_97_1,2023-05-03T18:13:53.514Z,,0,,,NaN,,,,,,false,,,,366616,366615.90000000596,,366615.80000000447,,366618.108,8,400,,,
break_continue,html.Screen,4_97_2,2023-05-03T18:13:53.514Z,,0,,,NaN,,,,,,false,,,,366616.30000000447,366616.1000000015,,366616.1000000015,,366618.108,8,400,,,
sequence,flow.Sequence,4_97,2023-05-03T18:13:53.514Z,,0,,,2133.4770000014687,completion,,,,,false,,,,366616.40000000596,366616.1000000015,364465.974,364480.5,364482.623,366618.108,8,400,,,
trial,html.Screen,4_98_0,2023-05-03T18:13:55.713Z,,0,2,,2197.092000002973,response,ISIC_0055240.JPG,,ISIC_0069257.JPG,ISIC_0069257.JPG,false,0,keypress(z),500,368815.40000000596,368815.200000003,366601.42,366616.40000000596,366618.108,368820.314,8,400,49,,ISIC_0055240.JPG
break,html.Screen,4_98_1,2023-05-03T18:13:55.714Z,,0,,,NaN,,,,,,false,,,,368815.80000000447,368815.6000000015,,368815.5,,368820.314,8,400,,,
break_continue,html.Screen,4_98_2,2023-05-03T18:13:55.714Z,,0,,,NaN,,,,,,false,,,,368816,368815.90000000596,,368815.80000000447,,368820.314,8,400,,,
sequence,flow.Sequence,4_98,2023-05-03T18:13:55.714Z,,0,,,2197.792000005953,completion,,,,,false,,,,368816.1000000015,368815.90000000596,366601.42,366616.40000000596,366618.108,368820.314,8,400,,,
trial,html.Screen,4_99_0,2023-05-03T18:13:58.169Z,,0,2,,2450.786000001477,response,ISIC_6105084.JPG,,ISIC_8429798.JPG,ISIC_6105084.JPG,false,1,keypress(m),500,371271.1000000015,371271.1000000015,368803.609,368816.200000003,368820.314,371272.781,8,400,50,,ISIC_8429798.JPG
break,html.Screen,4_99_1,2023-05-03T18:14:03.160Z,,0,,,5005.0869999999995,timeout,,,,,false,,,,376261.6000000015,376261.128,371256.172,371271.30000000447,371272.781,376277.868,8,400,,,
break_continue,html.Screen,4_99_2,2023-05-03T18:14:03.333Z,,0,,,148.13199999998324,response,,,,,false,continue,keypress(Space),,376434.90000000596,376426,376261.128,376261.700000003,376277.868,376444.684,8,400,,,
sequence,flow.Sequence,4_99,2023-05-03T18:14:03.333Z,,0,,,7605.685999999987,completion,,,,,false,,,,376435.1000000015,376426,368803.609,368816.1000000015,368820.314,376444.684,8,400,,,
trial,html.Screen,4_100_0,2023-05-03T18:14:06.073Z,,0,3,,2730.516000002972,response,ISIC_4834687.JPG,,ISIC_2208006.JPG,ISIC_4834687.JPG,false,1,keypress(m),500,379175.200000003,379175.200000003,376427.989,376435.200000003,376444.684,379180.737,8,400,1,,ISIC_2208006.JPG
break,html.Screen,4_100_1,2023-05-03T18:14:06.074Z,,0,,,NaN,,,,,,false,,,,379175.700000003,379175.5,,379175.30000000447,,379180.737,8,400,,,
break_continue,html.Screen,4_100_2,2023-05-03T18:14:06.074Z,,0,,,NaN,,,,,,false,,,,379175.90000000596,379175.90000000596,,379175.700000003,,379180.737,8,400,,,
sequence,flow.Sequence,4_100,2023-05-03T18:14:06.074Z,,0,,,2731.216000005952,completion,,,,,false,,,,379175.90000000596,379175.90000000596,376427.989,376435.200000003,376444.684,379180.737,8,400,,,
trial,html.Screen,4_101_0,2023-05-03T18:14:08.537Z,,0,3,,2458.1630000059376,response,ISIC_4976189.JPG,,ISIC_1260545.JPG,ISIC_1260545.JPG,false,0,keypress(z),500,381639.1000000015,381638.90000000596,379164.079,379176,379180.737,381649.917,8,400,2,,ISIC_4976189.JPG
break,html.Screen,4_101_1,2023-05-03T18:14:08.537Z,,0,,,NaN,,,,,,false,,,,381639.5,381639.30000000447,,381639.1000000015,,381649.917,8,400,,,
break_continue,html.Screen,4_101_2,2023-05-03T18:14:08.538Z,,0,,,NaN,,,,,,false,,,,381639.700000003,381639.700000003,,381639.5,,381649.917,8,400,,,
sequence,flow.Sequence,4_101,2023-05-03T18:14:08.538Z,,0,,,2458.9630000029574,completion,,,,,false,,,,381639.80000000447,381639.700000003,379164.079,379175.90000000596,379180.737,381649.917,8,400,,,
trial,html.Screen,4_102_0,2023-05-03T18:14:11.050Z,,0,3,,2501.8830000044545,response,ISIC_0046622.JPG,,ISIC_0024990.JPG,ISIC_0046622.JPG,false,1,keypress(m),500,384152,384151.80000000447,381633.209,381639.80000000447,381649.917,384169.058,8,400,3,,ISIC_0024990.JPG
break,html.Screen,4_102_1,2023-05-03T18:14:11.050Z,,0,,,NaN,,,,,,false,,,,384152.30000000447,384152.200000003,,384152.1000000015,,384169.058,8,400,,,
break_continue,html.Screen,4_102_2,2023-05-03T18:14:11.050Z,,0,,,NaN,,,,,,false,,,,384152.40000000596,384152.40000000596,,384152.30000000447,,384169.058,8,400,,,
sequence,flow.Sequence,4_102,2023-05-03T18:14:11.050Z,,0,,,2502.4830000059446,completion,,,,,false,,,,384152.5,384152.40000000596,381633.209,381639.80000000447,381649.917,384169.058,8,400,,,
trial,html.Screen,4_103_0,2023-05-03T18:14:13.745Z,,0,3,,2678.042000001471,response,ISIC_0011701.JPG,,ISIC_0029349.JPG,ISIC_0011701.JPG,false,1,keypress(m),500,386847.30000000447,386847.1000000015,384152.327,384152.6000000015,384169.058,386855.109,8,400,4,,ISIC_0029349.JPG
break,html.Screen,4_103_1,2023-05-03T18:14:13.746Z,,0,,,NaN,,,,,,false,,,,386847.700000003,386847.40000000596,,386847.30000000447,,386855.109,8,400,,,
break_continue,html.Screen,4_103_2,2023-05-03T18:14:13.746Z,,0,,,NaN,,,,,,false,,,,386847.80000000447,386847.80000000447,,386847.700000003,,386855.109,8,400,,,
sequence,flow.Sequence,4_103,2023-05-03T18:14:13.746Z,,0,,,2678.7420000044513,completion,,,,,false,,,,386847.90000000596,386847.80000000447,384152.327,384152.6000000015,384169.058,386855.109,8,400,,,
trial,html.Screen,4_104_0,2023-05-03T18:14:16.329Z,,0,3,,2576.0910000029835,response,ISIC_4475657.JPG,,ISIC_0068246.JPG,ISIC_0068246.JPG,false,0,keypress(z),500,389431.30000000447,389431.200000003,386838.442,386847.90000000596,386855.109,389441.029,8,400,5,,ISIC_4475657.JPG
break,html.Screen,4_104_1,2023-05-03T18:14:16.330Z,,0,,,NaN,,,,,,false,,,,389431.700000003,389431.6000000015,,389431.40000000596,,389441.029,8,400,,,
break_continue,html.Screen,4_104_2,2023-05-03T18:14:16.330Z,,0,,,NaN,,,,,,false,,,,389431.90000000596,389431.90000000596,,389431.80000000447,,389441.029,8,400,,,
sequence,flow.Sequence,4_104,2023-05-03T18:14:16.330Z,,0,,,2576.7910000059637,completion,,,,,false,,,,389432,389431.90000000596,386838.442,386847.90000000596,386855.109,389441.029,8,400,,,
trial,html.Screen,4_105_0,2023-05-03T18:14:18.945Z,,0,3,,2606.37100000598,response,ISIC_0028412.JPG,,ISIC_2583592.JPG,ISIC_0028412.JPG,false,1,keypress(m),500,392047.40000000596,392047.40000000596,389424.35,389432,389441.029,392060.31,8,400,6,,ISIC_2583592.JPG
break,html.Screen,4_105_1,2023-05-03T18:14:18.946Z,,0,,,NaN,,,,,,false,,,,392047.90000000596,392047.700000003,,392047.5,,392060.31,8,400,,,
break_continue,html.Screen,4_105_2,2023-05-03T18:14:18.946Z,,0,,,NaN,,,,,,false,,,,392048.1000000015,392048,,392047.90000000596,,392060.31,8,400,,,
sequence,flow.Sequence,4_105,2023-05-03T18:14:18.946Z,,0,,,2606.9710000000196,completion,,,,,false,,,,392048.1000000015,392048,389424.35,389432,389441.029,392060.31,8,400,,,
trial,html.Screen,4_106_0,2023-05-03T18:14:21.657Z,,0,3,,2699.090000005963,response,ISIC_3431915.JPG,,ISIC_0012865.JPG,ISIC_3431915.JPG,false,1,keypress(m),500,394759.6000000015,394759.40000000596,392043.626,392048.1000000015,392060.31,394762.968,8,400,7,,ISIC_0012865.JPG
break,html.Screen,4_106_1,2023-05-03T18:14:21.658Z,,0,,,NaN,,,,,,false,,,,394759.90000000596,394759.80000000447,,394759.6000000015,,394762.968,8,400,,,
break_continue,html.Screen,4_106_2,2023-05-03T18:14:21.658Z,,0,,,NaN,,,,,,false,,,,394760.1000000015,394760,,394760,,394762.968,8,400,,,
sequence,flow.Sequence,4_106,2023-05-03T18:14:21.658Z,,0,,,2699.6900000000023,completion,,,,,false,,,,394760.200000003,394760,392043.626,392048.1000000015,392060.31,394762.968,8,400,,,
trial,html.Screen,4_107_0,2023-05-03T18:14:24.841Z,,0,3,,3180.332000004477,response,ISIC_0008945.JPG,,ISIC_0015193.JPG,ISIC_0015193.JPG,false,0,keypress(z),500,397943.40000000596,397943.30000000447,394746.313,394760.200000003,394762.968,397949.522,8,400,8,,ISIC_0008945.JPG
break,html.Screen,4_107_1,2023-05-03T18:14:24.842Z,,0,,,NaN,,,,,,false,,,,397943.80000000447,397943.700000003,,397943.5,,397949.522,8,400,,,
break_continue,html.Screen,4_107_2,2023-05-03T18:14:24.842Z,,0,,,NaN,,,,,,false,,,,397944,397944,,397943.90000000596,,397949.522,8,400,,,
sequence,flow.Sequence,4_107,2023-05-03T18:14:24.842Z,,0,,,3181.0320000000065,completion,,,,,false,,,,397944.1000000015,397944,394746.313,394760.200000003,394762.968,397949.522,8,400,,,
trial,html.Screen,4_108_0,2023-05-03T18:14:27.386Z,,0,3,,2538.078000001493,response,ISIC_0003593.JPG,,ISIC_5343231.JPG,ISIC_5343231.JPG,false,0,keypress(z),500,400487.80000000447,400487.6000000015,397932.825,397944.1000000015,397949.522,400502.052,8,400,9,,ISIC_0003593.JPG
break,html.Screen,4_108_1,2023-05-03T18:14:27.386Z,,0,,,NaN,,,,,,false,,,,400488.1000000015,400488,,400487.80000000447,,400502.052,8,400,,,
break_continue,html.Screen,4_108_2,2023-05-03T18:14:27.386Z,,0,,,NaN,,,,,,false,,,,400488.30000000447,400488.200000003,,400488.200000003,,400502.052,8,400,,,
sequence,flow.Sequence,4_108,2023-05-03T18:14:27.386Z,,0,,,2538.678000002983,completion,,,,,false,,,,400488.30000000447,400488.200000003,397932.825,397944.1000000015,397949.522,400502.052,8,400,,,
trial,html.Screen,4_109_0,2023-05-03T18:14:30.169Z,,0,3,,2768.947999999975,response,ISIC_8931948.JPG,,ISIC_3691320.JPG,ISIC_8931948.JPG,false,1,keypress(m),500,403271.200000003,403271,400485.407,400488.40000000596,400502.052,403288.162,8,400,10,,ISIC_3691320.JPG
break,html.Screen,4_109_1,2023-05-03T18:14:30.170Z,,0,,,NaN,,,,,,false,,,,403271.6000000015,403271.5,,403271.30000000447,,403288.162,8,400,,,
break_continue,html.Screen,4_109_2,2023-05-03T18:14:30.170Z,,0,,,NaN,,,,,,false,,,,403271.700000003,403271.700000003,,403271.700000003,,403288.162,8,400,,,
sequence,flow.Sequence,4_109,2023-05-03T18:14:30.170Z,,0,,,2769.648000002955,completion,,,,,false,,,,403271.90000000596,403271.700000003,400485.407,400488.40000000596,400502.052,403288.162,8,400,,,
trial,html.Screen,4_110_0,2023-05-03T18:14:32.721Z,,0,3,,2534.7380000059493,response,ISIC_0033174.JPG,,ISIC_0030725.JPG,ISIC_0033174.JPG,false,1,keypress(m),500,405823.1000000015,405822.90000000596,403271.477,403271.90000000596,403288.162,405842.163,8,400,11,,ISIC_0030725.JPG
break,html.Screen,4_110_1,2023-05-03T18:14:32.721Z,,0,,,NaN,,,,,,false,,,,405823.5,405823.30000000447,,405823.200000003,,405842.163,8,400,,,
break_continue,html.Screen,4_110_2,2023-05-03T18:14:32.722Z,,0,,,NaN,,,,,,false,,,,405823.700000003,405823.700000003,,405823.6000000015,,405842.163,8,400,,,
sequence,flow.Sequence,4_110,2023-05-03T18:14:32.722Z,,0,,,2535.538000002969,completion,,,,,false,,,,405823.80000000447,405823.700000003,403271.477,403271.90000000596,403288.162,405842.163,8,400,,,
trial,html.Screen,4_111_0,2023-05-03T18:14:35.217Z,,0,3,,2476.4370000014897,response,ISIC_8158081.JPG,,ISIC_0025218.JPG,ISIC_0025218.JPG,false,0,keypress(z),500,408318.80000000447,408318.6000000015,405807.381,405823.80000000447,405842.163,408343.239,8,400,12,,ISIC_8158081.JPG
break,html.Screen,4_111_1,2023-05-03T18:14:35.217Z,,0,,,NaN,,,,,,false,,,,408319.200000003,408319,,408318.90000000596,,408343.239,8,400,,,
break_continue,html.Screen,4_111_2,2023-05-03T18:14:35.217Z,,0,,,NaN,,,,,,false,,,,408319.40000000596,408319.30000000447,,408319.30000000447,,408343.239,8,400,,,
sequence,flow.Sequence,4_111,2023-05-03T18:14:35.217Z,,0,,,2477.13700000447,completion,,,,,false,,,,408319.5,408319.30000000447,405807.381,405823.80000000447,405842.163,408343.239,8,400,,,
trial,html.Screen,4_112_0,2023-05-03T18:14:37.858Z,,0,3,,2616.661000005959,response,ISIC_5362038.JPG,,ISIC_0031389.JPG,ISIC_0031389.JPG,false,0,keypress(z),500,410960,410959.90000000596,408326.585,408319.5,408343.239,410962.462,8,400,13,,ISIC_5362038.JPG
break,html.Screen,4_112_1,2023-05-03T18:14:37.858Z,,0,,,NaN,,,,,,false,,,,410960.5,410960.30000000447,,410960.1000000015,,410962.462,8,400,,,
break_continue,html.Screen,4_112_2,2023-05-03T18:14:37.859Z,,0,,,NaN,,,,,,false,,,,410960.6000000015,410960.6000000015,,410960.6000000015,,410962.462,8,400,,,
sequence,flow.Sequence,4_112,2023-05-03T18:14:37.859Z,,0,,,2617.3610000014887,completion,,,,,false,,,,410960.700000003,410960.6000000015,408326.585,408319.5,408343.239,410962.462,8,400,,,
trial,html.Screen,4_113_0,2023-05-03T18:14:40.474Z,,0,3,,2613.1380000014906,response,ISIC_8330906.JPG,,ISIC_0060760.JPG,ISIC_0060760.JPG,false,0,keypress(z),500,413575.700000003,413575.6000000015,410945.843,410960.700000003,410962.462,413581.77,8,400,14,,ISIC_8330906.JPG
break,html.Screen,4_113_1,2023-05-03T18:14:40.474Z,,0,,,NaN,,,,,,false,,,,413576.200000003,413576,,413575.90000000596,,413581.77,8,400,,,
break_continue,html.Screen,4_113_2,2023-05-03T18:14:40.474Z,,0,,,NaN,,,,,,false,,,,413576.5,413576.40000000596,,413576.30000000447,,413581.77,8,400,,,
sequence,flow.Sequence,4_113,2023-05-03T18:14:40.474Z,,0,,,2613.938000005961,completion,,,,,false,,,,413576.5,413576.40000000596,410945.843,410960.700000003,410962.462,413581.77,8,400,,,
trial,html.Screen,4_114_0,2023-05-03T18:14:43.577Z,,0,3,,3097.0300000044517,response,ISIC_9130157.JPG,,ISIC_0033607.JPG,ISIC_0033607.JPG,false,0,keypress(z),500,416678.90000000596,416678.80000000447,413565.071,413576.6000000015,413581.77,416684.92,8,400,15,,ISIC_9130157.JPG
break,html.Screen,4_114_1,2023-05-03T18:14:43.577Z,,0,,,NaN,,,,,,false,,,,416679.30000000447,416679.200000003,,416679,,416684.92,8,400,,,
break_continue,html.Screen,4_114_2,2023-05-03T18:14:43.577Z,,0,,,NaN,,,,,,false,,,,416679.6000000015,416679.40000000596,,416679.40000000596,,416684.92,8,400,,,
sequence,flow.Sequence,4_114,2023-05-03T18:14:43.578Z,,0,,,3097.630000005942,completion,,,,,false,,,,416679.6000000015,416679.40000000596,413565.071,413576.6000000015,413581.77,416684.92,8,400,,,
trial,html.Screen,4_115_0,2023-05-03T18:14:46.073Z,,0,3,,2490.3800000044866,response,ISIC_0014982.JPG,,ISIC_2372468.JPG,ISIC_0014982.JPG,false,1,keypress(m),500,419175.40000000596,419175.30000000447,416668.186,416679.700000003,416684.92,419187.446,8,400,16,,ISIC_2372468.JPG
break,html.Screen,4_115_1,2023-05-03T18:14:46.074Z,,0,,,NaN,,,,,,false,,,,419175.80000000447,419175.700000003,,419175.5,,419187.446,8,400,,,
break_continue,html.Screen,4_115_2,2023-05-03T18:14:46.074Z,,0,,,NaN,,,,,,false,,,,419176,419176,,419175.90000000596,,419187.446,8,400,,,
sequence,flow.Sequence,4_115,2023-05-03T18:14:46.074Z,,0,,,2491.0800000000163,completion,,,,,false,,,,419176.1000000015,419176,416668.186,416679.700000003,416684.92,419187.446,8,400,,,
trial,html.Screen,4_116_0,2023-05-03T18:14:48.594Z,,0,3,,2508.454000005964,response,ISIC_1323048.JPG,,ISIC_0027956.JPG,ISIC_1323048.JPG,false,1,keypress(m),500,421696,421695.90000000596,419170.735,419176.200000003,419187.446,421706.628,8,400,17,,ISIC_0027956.JPG
break,html.Screen,4_116_1,2023-05-03T18:14:48.594Z,,0,,,NaN,,,,,,false,,,,421696.30000000447,421696.30000000447,,421696.1000000015,,421706.628,8,400,,,
break_continue,html.Screen,4_116_2,2023-05-03T18:14:48.594Z,,0,,,NaN,,,,,,false,,,,421696.40000000596,421696.30000000447,,421696.30000000447,,421706.628,8,400,,,
sequence,flow.Sequence,4_116,2023-05-03T18:14:48.594Z,,0,,,2508.854000004474,completion,,,,,false,,,,421696.5,421696.30000000447,419170.735,419176.200000003,419187.446,421706.628,8,400,,,
trial,html.Screen,4_117_0,2023-05-03T18:14:51.209Z,,0,3,,2604.2720000059344,response,ISIC_0072773.JPG,,ISIC_5545874.JPG,ISIC_5545874.JPG,false,0,keypress(z),500,424311,424310.90000000596,421689.922,421696.6000000015,421706.628,424325.893,8,400,18,,ISIC_0072773.JPG
break,html.Screen,4_117_1,2023-05-03T18:14:51.209Z,,0,,,NaN,,,,,,false,,,,424311.30000000447,424311.200000003,,424311.1000000015,,424325.893,8,400,,,
break_continue,html.Screen,4_117_2,2023-05-03T18:14:51.210Z,,0,,,NaN,,,,,,false,,,,424311.6000000015,424311.6000000015,,424311.5,,424325.893,8,400,,,
sequence,flow.Sequence,4_117,2023-05-03T18:14:51.210Z,,0,,,2604.972000001464,completion,,,,,false,,,,424311.700000003,424311.6000000015,421689.922,421696.5,421706.628,424325.893,8,400,,,
trial,html.Screen,4_118_0,2023-05-03T18:14:53.554Z,,0,3,,2329.607000000018,response,ISIC_0029950.JPG,,ISIC_3652847.JPG,ISIC_0029950.JPG,false,1,keypress(m),500,426655.700000003,426655.5,424309.233,424311.80000000447,424325.893,426678.268,8,400,19,,ISIC_3652847.JPG
break,html.Screen,4_118_1,2023-05-03T18:14:53.554Z,,0,,,NaN,,,,,,false,,,,426655.90000000596,426655.90000000596,,426655.700000003,,426678.268,8,400,,,
break_continue,html.Screen,4_118_2,2023-05-03T18:14:53.554Z,,0,,,NaN,,,,,,false,,,,426656.1000000015,426656,,426655.90000000596,,426678.268,8,400,,,
sequence,flow.Sequence,4_118,2023-05-03T18:14:53.554Z,,0,,,2330.107000000018,completion,,,,,false,,,,426656.1000000015,426656,424309.233,424311.80000000447,424325.893,426678.268,8,400,,,
trial,html.Screen,4_119_0,2023-05-03T18:14:55.881Z,,0,3,,2304.732000000018,response,ISIC_7619234.JPG,,ISIC_0030932.JPG,ISIC_0030932.JPG,false,0,keypress(z),500,428983.1000000015,428983,426661.564,426656.1000000015,426678.268,428997.26,8,400,20,,ISIC_7619234.JPG
break,html.Screen,4_119_1,2023-05-03T18:14:55.881Z,,0,,,NaN,,,,,,false,,,,428983.5,428983.40000000596,,428983.200000003,,428997.26,8,400,,,
break_continue,html.Screen,4_119_2,2023-05-03T18:14:55.882Z,,0,,,NaN,,,,,,false,,,,428983.700000003,428983.6000000015,,428983.5,,428997.26,8,400,,,
sequence,flow.Sequence,4_119,2023-05-03T18:14:55.882Z,,0,,,2305.3320000015083,completion,,,,,false,,,,428983.700000003,428983.6000000015,426661.564,426656.1000000015,426678.268,428997.26,8,400,,,
trial,html.Screen,4_120_0,2023-05-03T18:14:58.362Z,,0,3,,2466.940000002971,response,ISIC_0033533.JPG,,ISIC_3315146.JPG,ISIC_0033533.JPG,false,1,keypress(m),500,431464.30000000447,431464.200000003,428980.538,428983.80000000447,428997.26,431466.321,8,400,21,,ISIC_3315146.JPG
break,html.Screen,4_120_1,2023-05-03T18:14:58.363Z,,0,,,NaN,,,,,,false,,,,431464.700000003,431464.5,,431464.30000000447,,431466.321,8,400,,,
break_continue,html.Screen,4_120_2,2023-05-03T18:14:58.363Z,,0,,,NaN,,,,,,false,,,,431464.80000000447,431464.80000000447,,431464.80000000447,,431466.321,8,400,,,
sequence,flow.Sequence,4_120,2023-05-03T18:14:58.363Z,,0,,,2467.540000004461,completion,,,,,false,,,,431464.90000000596,431464.80000000447,428980.538,428983.80000000447,428997.26,431466.321,8,400,,,
trial,html.Screen,4_121_0,2023-05-03T18:15:01.042Z,,0,3,,2677.379000002984,response,ISIC_3967213.JPG,,ISIC_5994286.JPG,ISIC_3967213.JPG,false,1,keypress(m),500,434143.80000000447,434143.700000003,431449.666,431465,431466.321,434152.411,8,400,22,,ISIC_5994286.JPG
break,html.Screen,4_121_1,2023-05-03T18:15:01.043Z,,0,,,NaN,,,,,,false,,,,434144.30000000447,434144,,434143.90000000596,,434152.411,8,400,,,
break_continue,html.Screen,4_121_2,2023-05-03T18:15:01.043Z,,0,,,NaN,,,,,,false,,,,434144.5,434144.40000000596,,434144.30000000447,,434152.411,8,400,,,
sequence,flow.Sequence,4_121,2023-05-03T18:15:01.043Z,,0,,,2678.079000005964,completion,,,,,false,,,,434144.5,434144.40000000596,431449.666,431464.90000000596,431466.321,434152.411,8,400,,,
trial,html.Screen,4_122_0,2023-05-03T18:15:03.418Z,,0,3,,2367.1890000014682,response,ISIC_6208107.JPG,,ISIC_0011857.JPG,ISIC_6208107.JPG,false,1,keypress(m),500,436519.80000000447,436519.6000000015,434135.727,434144.6000000015,434152.411,436521.345,8,400,23,,ISIC_0011857.JPG
break,html.Screen,4_122_1,2023-05-03T18:15:03.419Z,,0,,,NaN,,,,,,false,,,,436520.200000003,436520,,436519.80000000447,,436521.345,8,400,,,
break_continue,html.Screen,4_122_2,2023-05-03T18:15:03.419Z,,0,,,NaN,,,,,,false,,,,436520.40000000596,436520.30000000447,,436520.200000003,,436521.345,8,400,,,
sequence,flow.Sequence,4_122,2023-05-03T18:15:03.419Z,,0,,,2367.8890000044485,completion,,,,,false,,,,436520.40000000596,436520.30000000447,434135.727,434144.6000000015,434152.411,436521.345,8,400,,,
trial,html.Screen,4_123_0,2023-05-03T18:15:05.906Z,,0,3,,2486.0550000059884,response,ISIC_0027274.JPG,,ISIC_0058046.JPG,ISIC_0058046.JPG,false,0,keypress(z),500,439007.5,439007.40000000596,436504.742,436520.5,436521.345,439023.925,8,400,24,,ISIC_0027274.JPG
break,html.Screen,4_123_1,2023-05-03T18:15:05.906Z,,0,,,NaN,,,,,,false,,,,439007.80000000447,439007.700000003,,439007.6000000015,,439023.925,8,400,,,
break_continue,html.Screen,4_123_2,2023-05-03T18:15:05.907Z,,0,,,NaN,,,,,,false,,,,439007.90000000596,439007.90000000596,,439007.90000000596,,439023.925,8,400,,,
sequence,flow.Sequence,4_123,2023-05-03T18:15:05.907Z,,0,,,2486.5550000059884,completion,,,,,false,,,,439008.1000000015,439007.90000000596,436504.742,436520.5,436521.345,439023.925,8,400,,,
trial,html.Screen,4_124_0,2023-05-03T18:15:08.450Z,,0,3,,2527.0750000000116,response,ISIC_4692454.JPG,,ISIC_1781273.JPG,ISIC_1781273.JPG,false,0,keypress(z),500,441551,441551,439007.231,439008.1000000015,439023.925,441576.49,8,400,25,,ISIC_4692454.JPG
break,html.Screen,4_124_1,2023-05-03T18:15:08.450Z,,0,,,NaN,,,,,,false,,,,441551.5,441551.30000000447,,441551.200000003,,441576.49,8,400,,,
break_continue,html.Screen,4_124_2,2023-05-03T18:15:08.450Z,,0,,,NaN,,,,,,false,,,,441551.700000003,441551.6000000015,,441551.5,,441576.49,8,400,,,
sequence,flow.Sequence,4_124,2023-05-03T18:15:08.450Z,,0,,,2527.6750000015018,completion,,,,,false,,,,441551.700000003,441551.6000000015,439007.231,439008.1000000015,439023.925,441576.49,8,400,,,
trial,html.Screen,4_125_0,2023-05-03T18:15:10.924Z,,0,3,,2448.3100000044797,response,ISIC_0034237.JPG,,ISIC_6778515.JPG,ISIC_0034237.JPG,false,1,keypress(m),500,444024.90000000596,444024.80000000447,441559.795,441551.700000003,441576.49,444045.615,8,400,26,,ISIC_6778515.JPG
break,html.Screen,4_125_1,2023-05-03T18:15:10.924Z,,0,,,NaN,,,,,,false,,,,444025.30000000447,444025.200000003,,444025,,444045.615,8,400,,,
break_continue,html.Screen,4_125_2,2023-05-03T18:15:10.924Z,,0,,,NaN,,,,,,false,,,,444025.40000000596,444025.40000000596,,444025.40000000596,,444045.615,8,400,,,
sequence,flow.Sequence,4_125,2023-05-03T18:15:10.924Z,,0,,,2448.91000000597,completion,,,,,false,,,,444025.5,444025.40000000596,441559.795,441551.700000003,441576.49,444045.615,8,400,,,
trial,html.Screen,4_126_0,2023-05-03T18:15:13.130Z,,0,3,,2185.9850000014994,response,ISIC_0056984.JPG,,ISIC_3222447.JPG,ISIC_3222447.JPG,false,0,keypress(z),500,446231.700000003,446231.6000000015,444028.842,444025.5,444045.615,446247.801,8,400,27,,ISIC_0056984.JPG
break,html.Screen,4_126_1,2023-05-03T18:15:13.131Z,,0,,,NaN,,,,,,false,,,,446232,446231.90000000596,,446231.80000000447,,446247.801,8,400,,,
break_continue,html.Screen,4_126_2,2023-05-03T18:15:13.131Z,,0,,,NaN,,,,,,false,,,,446232.200000003,446232.200000003,,446232.1000000015,,446247.801,8,400,,,
sequence,flow.Sequence,4_126,2023-05-03T18:15:13.131Z,,0,,,2186.5850000029895,completion,,,,,false,,,,446232.30000000447,446232.200000003,444028.842,444025.5,444045.615,446247.801,8,400,,,
