sender,sender_type,sender_id,timestamp,meta,,blockNo,condition,duration,ended_on,img_left,img_reveal,img_right,loser,practice,response,response_action,selection_duration,time_commit,time_end,time_render,time_run,time_show,time_switch,total_blocks,total_trials,trialNo,url,winner
informed_consent,html.Screen,0,2023-09-16T02:26:00.512Z,"{""labjs_version"":""20.2.4"",""labjs_build"":{""flavor"":""production"",""commit"":""f5b4a49f956347addd546a832a3327688c2c0fef""},""location"":""https://run.pavlovia.org/MurrayBennett/melanoma-2afc/?participant=67423&platform=sona"",""userAgent"":""Mozilla/5.0 (Windows NT 10.0; Win64; x64) AppleWebKit/537.36 (KHTML, like Gecko) Chrome/116.0.0.0 Safari/537.36"",""platform"":""Win32"",""language"":""en-US"",""locale"":""en-US"",""timeZone"":""America/Chicago"",""timezoneOffset"":300,""screen_width"":1536,""screen_height"":864,""scroll_width"":1536,""scroll_height"":691,""window_innerWidth"":1536,""window_innerHeight"":739,""devicePixelRatio"":1.25}",,,,58693.10700000014,response,,,,,,consent,click button,,59641.200000000186,59639.90000000014,347.334,938.1000000000931,946.793,59644.398,,,,"{""participant"":""67423"",""platform"":""sona""}",
Welcome,html.Screen,1,2023-09-16T02:26:34.890Z,,,,asymmetry,34373.70200000009,response,,,,,,continue,click button,,94019.5,94018.1000000001,59627.792,59641.40000000014,59644.398,94029.009,,,,,
trial,html.Screen,2_0_0,2023-09-16T02:26:42.677Z,,0,0,,7776.891000000134,response,ISIC_6997061.JPG,,ISIC_0069348.JPG,ISIC_6997061.JPG,true,1,keypress(m),500,101806.80000000005,101805.90000000014,94012.227,94019.70000000019,94029.009,101821.697,1,6,1,,ISIC_0069348.JPG
sequence,flow.Sequence,2_0,2023-09-16T02:26:42.678Z,,0,,,7776.891000000134,completion,,,,,true,,,,101807.70000000019,101805.90000000014,94012.227,94019.70000000019,94029.009,101821.697,1,6,,,
trial,html.Screen,2_1_0,2023-09-16T02:26:49.051Z,,0,0,,6357.903000000093,response,ISIC_0009529.JPG,,ISIC_0057368.JPG,ISIC_0009529.JPG,true,1,keypress(m),500,108180,108179.6000000001,101805.02,101808,101821.697,108199.079,1,6,2,,ISIC_0057368.JPG
sequence,flow.Sequence,2_1,2023-09-16T02:26:49.051Z,,0,,,6357.903000000093,completion,,,,,true,,,,108180.5,108179.6000000001,101805.02,101808,101821.697,108199.079,1,6,,,
trial,html.Screen,2_2_0,2023-09-16T02:26:57.870Z,,0,0,,8800.421000000002,response,ISIC_0064954.JPG,,ISIC_9758671.JPG,ISIC_0064954.JPG,true,1,keypress(m),500,116999.70000000019,116999.5,108165.86,108180.90000000014,108199.079,117007.49,1,6,3,,ISIC_9758671.JPG
sequence,flow.Sequence,2_2,2023-09-16T02:26:57.870Z,,0,,,8800.421000000002,completion,,,,,true,,,,116999.80000000005,116999.5,108165.86,108180.80000000005,108199.079,117007.49,1,6,,,
trial,html.Screen,2_3_0,2023-09-16T02:27:05.088Z,,0,0,,7209.4100000001345,response,ISIC_0000080.JPG,,ISIC_0005785.JPG,ISIC_0000080.JPG,true,1,keypress(m),500,124217.5,124216.90000000014,116990.923,116999.90000000014,117007.49,124234.099,1,6,4,,ISIC_0005785.JPG
sequence,flow.Sequence,2_3,2023-09-16T02:27:05.089Z,,0,,,7209.4100000001345,completion,,,,,true,,,,124218.40000000014,124216.90000000014,116990.923,116999.90000000014,117007.49,124234.099,1,6,,,
trial,html.Screen,2_4_0,2023-09-16T02:27:10.436Z,,0,0,,5330.801000000138,response,ISIC_7944028.JPG,,ISIC_5390060.JPG,ISIC_7944028.JPG,true,1,keypress(m),500,129565.40000000014,129564.90000000014,124217.457,124218.90000000014,124234.099,129579.043,1,6,5,,ISIC_5390060.JPG
sequence,flow.Sequence,2_4,2023-09-16T02:27:10.437Z,,0,,,5330.801000000138,completion,,,,,true,,,,129566.1000000001,129564.90000000014,124217.457,124218.70000000019,124234.099,129579.043,1,6,,,
trial,html.Screen,2_5_0,2023-09-16T02:27:15.340Z,,0,0,,4889.557000000088,response,ISIC_0010188.JPG,,ISIC_0794216.JPG,ISIC_0794216.JPG,true,0,keypress(z),500,134469.1000000001,134468.6000000001,129562.437,129566.40000000014,129579.043,134474.455,1,6,6,,ISIC_0010188.JPG
sequence,flow.Sequence,2_5,2023-09-16T02:27:15.340Z,,0,,,4889.557000000088,completion,,,,,true,,,,134469.80000000005,134468.6000000001,129562.437,129566.30000000005,129579.043,134474.455,1,6,,,
loop,flow.Loop,2,2023-09-16T02:27:15.341Z,,,,,40439.59100000009,completion,,,,,true,,,,134470.2000000002,134468.6000000001,94012.227,94019.6000000001,94029.009,134474.455,1,6,,,
exp_instructions,html.Screen,3,2023-09-16T02:29:31.296Z,,,,,135949.94500000015,response,,,,,,continue,keypress(Space),,270425.30000000005,270424.40000000014,134457.809,134470.5,134474.455,270437.667,,,,,
trial,html.Screen,4_0_0,2023-09-16T02:29:36.533Z,,0,1,,5223.633000000031,response,ISIC_0028341.JPG,5,ISIC_0072568.JPG,ISIC_0028341.JPG,false,1,keypress(m),500,275661.80000000005,275661.30000000005,270419.118,270425.80000000005,270437.667,275676.943,8,400,1,,ISIC_0072568.JPG
break,html.Screen,4_0_1,2023-09-16T02:29:36.535Z,,0,,,NaN,,,,,,false,,,,275663.90000000014,275663.5,,275662.1000000001,,275676.943,8,400,,,
break_continue,html.Screen,4_0_2,2023-09-16T02:29:36.536Z,,0,,,NaN,,,,,,false,,,,275664.80000000005,275664.5,,275664.2000000002,,275676.943,8,400,,,
sequence,flow.Sequence,4_0,2023-09-16T02:29:36.536Z,,0,,,5226.832999999984,completion,,,,,false,,,,275665.2000000002,275664.5,270419.118,270425.7000000002,270437.667,275676.943,8,400,,,
trial,html.Screen,4_1_0,2023-09-16T02:29:41.760Z,,0,1,,5211.857000000018,response,ISIC_0378399.JPG,5,ISIC_0029531.JPG,ISIC_0029531.JPG,false,0,keypress(z),500,280889.1000000001,280888.80000000005,275659.923,275665.5,275676.943,280896.274,8,400,2,,ISIC_0378399.JPG
break,html.Screen,4_1_1,2023-09-16T02:29:41.761Z,,0,,,NaN,,,,,,false,,,,280890.40000000014,280890.2000000002,,280889.5,,280896.274,8,400,,,
break_continue,html.Screen,4_1_2,2023-09-16T02:29:41.762Z,,0,,,NaN,,,,,,false,,,,280891,280890.90000000014,,280890.7000000002,,280896.274,8,400,,,
sequence,flow.Sequence,4_1,2023-09-16T02:29:41.762Z,,0,,,5213.957000000111,completion,,,,,false,,,,280891.30000000005,280890.90000000014,275659.923,275665.40000000014,275676.943,280896.274,8,400,,,
trial,html.Screen,4_2_0,2023-09-16T02:29:47.644Z,,0,1,,5876.226000000024,response,ISIC_0032046.JPG,5,ISIC_0064836.JPG,ISIC_0064836.JPG,false,0,keypress(z),500,286772.80000000005,286772.5,280876.699,280891.5,280896.274,286778.991,8,400,3,,ISIC_0032046.JPG
break,html.Screen,4_2_1,2023-09-16T02:29:47.645Z,,0,,,NaN,,,,,,false,,,,286774.1000000001,286773.80000000005,,286773.2000000002,,286778.991,8,400,,,
break_continue,html.Screen,4_2_2,2023-09-16T02:29:47.646Z,,0,,,NaN,,,,,,false,,,,286774.6000000001,286774.5,,286774.30000000005,,286778.991,8,400,,,
sequence,flow.Sequence,4_2,2023-09-16T02:29:47.646Z,,0,,,5878.226000000024,completion,,,,,false,,,,286775,286774.5,280876.699,280891.5,280896.274,286778.991,8,400,,,
trial,html.Screen,4_3_0,2023-09-16T02:29:52.993Z,,0,1,,5342.609000000113,response,ISIC_3901421.JPG,6,ISIC_2092911.JPG,ISIC_2092911.JPG,false,0,keypress(z),500,292122,292121.6000000001,286764.666,286775.2000000002,286778.991,292124.38,8,400,4,,ISIC_3901421.JPG
break,html.Screen,4_3_1,2023-09-16T02:29:52.994Z,,0,,,NaN,,,,,,false,,,,292123.30000000005,292122.90000000014,,292122.30000000005,,292124.38,8,400,,,
break_continue,html.Screen,4_3_2,2023-09-16T02:29:52.995Z,,0,,,NaN,,,,,,false,,,,292124.30000000005,292124,,292123.7000000002,,292124.38,8,400,,,
sequence,flow.Sequence,4_3,2023-09-16T02:29:52.995Z,,0,,,5345.00900000002,completion,,,,,false,,,,292124.5,292124,286764.666,286775.2000000002,286778.991,292124.38,8,400,,,
trial,html.Screen,4_4_0,2023-09-16T02:30:00.246Z,,0,1,,7249.820000000182,response,ISIC_4508511.JPG,5,ISIC_0065313.JPG,ISIC_4508511.JPG,false,1,keypress(m),500,299374.6000000001,299374.2000000002,292109.434,292124.5,292124.38,299381.848,8,400,5,,ISIC_0065313.JPG
break,html.Screen,4_4_1,2023-09-16T02:30:00.247Z,,0,,,NaN,,,,,,false,,,,299376.1000000001,299375.7000000002,,299374.90000000014,,299381.848,8,400,,,
break_continue,html.Screen,4_4_2,2023-09-16T02:30:00.248Z,,0,,,NaN,,,,,,false,,,,299376.80000000005,299376.6000000001,,299376.40000000014,,299381.848,8,400,,,
sequence,flow.Sequence,4_4,2023-09-16T02:30:00.250Z,,0,,,7252.2200000000885,completion,,,,,false,,,,299378.80000000005,299376.6000000001,292109.434,292124.5,292124.38,299381.848,8,400,,,
trial,html.Screen,4_5_0,2023-09-16T02:30:09.701Z,,0,1,,9448.052000000142,response,ISIC_0029561.JPG,5,ISIC_0066338.JPG,ISIC_0029561.JPG,false,1,keypress(m),500,308830.2000000002,308829.90000000014,299374.483,299379.2000000002,299381.848,308837.658,8,400,6,,ISIC_0066338.JPG
break,html.Screen,4_5_1,2023-09-16T02:30:09.703Z,,0,,,NaN,,,,,,false,,,,308831.90000000014,308831.5,,308830.7000000002,,308837.658,8,400,,,
break_continue,html.Screen,4_5_2,2023-09-16T02:30:09.704Z,,0,,,NaN,,,,,,false,,,,308832.6000000001,308832.40000000014,,308832,,308837.658,8,400,,,
sequence,flow.Sequence,4_5,2023-09-16T02:30:09.704Z,,0,,,9450.552000000142,completion,,,,,false,,,,308832.90000000014,308832.40000000014,299374.483,299379.1000000001,299381.848,308837.658,8,400,,,
trial,html.Screen,4_6_0,2023-09-16T02:30:15.675Z,,0,1,,5965.642000000051,response,ISIC_5705973.JPG,5,ISIC_0033916.JPG,ISIC_0033916.JPG,false,0,keypress(z),500,314803.7000000002,314803.30000000005,308816.88,308833.1000000001,308837.658,314822.919,8,400,7,,ISIC_5705973.JPG
break,html.Screen,4_6_1,2023-09-16T02:30:15.676Z,,0,,,NaN,,,,,,false,,,,314805.2000000002,314804.7000000002,,314804,,314822.919,8,400,,,
break_continue,html.Screen,4_6_2,2023-09-16T02:30:15.677Z,,0,,,NaN,,,,,,false,,,,314805.90000000014,314805.7000000002,,314805.5,,314822.919,8,400,,,
sequence,flow.Sequence,4_6,2023-09-16T02:30:15.677Z,,0,,,5968.0420000001905,completion,,,,,false,,,,314806.30000000005,314805.7000000002,308816.88,308833,308837.658,314822.919,8,400,,,
trial,html.Screen,4_7_0,2023-09-16T02:30:23.909Z,,0,1,,8214.681000000099,response,ISIC_7161651.JPG,5,ISIC_2946577.JPG,ISIC_7161651.JPG,false,1,keypress(m),500,323038,323037.6000000001,314795.367,314806.6000000001,314822.919,323055.571,8,400,8,,ISIC_2946577.JPG
break,html.Screen,4_7_1,2023-09-16T02:30:23.910Z,,0,,,NaN,,,,,,false,,,,323039.40000000014,323039.1000000001,,323038.40000000014,,323055.571,8,400,,,
break_continue,html.Screen,4_7_2,2023-09-16T02:30:23.911Z,,0,,,NaN,,,,,,false,,,,323040.1000000001,323040,,323039.80000000005,,323055.571,8,400,,,
sequence,flow.Sequence,4_7,2023-09-16T02:30:23.911Z,,0,,,8217.081000000006,completion,,,,,false,,,,323040.5,323040,314795.367,314806.5,314822.919,323055.571,8,400,,,
trial,html.Screen,4_8_0,2023-09-16T02:30:28.940Z,,0,1,,5013.329000000143,response,ISIC_0070246.JPG,5,ISIC_5716385.JPG,ISIC_5716385.JPG,false,0,keypress(z),500,328069.2000000002,328068.90000000014,323030.551,323040.7000000002,323055.571,328077.111,8,400,9,,ISIC_0070246.JPG
break,html.Screen,4_8_1,2023-09-16T02:30:28.941Z,,0,,,NaN,,,,,,false,,,,328070.5,328070.1000000001,,328069.5,,328077.111,8,400,,,
break_continue,html.Screen,4_8_2,2023-09-16T02:30:28.943Z,,0,,,NaN,,,,,,false,,,,328072.40000000014,328072.2000000002,,328072,,328077.111,8,400,,,
sequence,flow.Sequence,4_8,2023-09-16T02:30:28.944Z,,0,,,5016.62900000019,completion,,,,,false,,,,328072.7000000002,328072.2000000002,323030.551,323040.5,323055.571,328077.111,8,400,,,
trial,html.Screen,4_9_0,2023-09-16T02:30:38.917Z,,0,1,,9968.889000000025,response,ISIC_9709101.JPG,5,ISIC_6553579.JPG,ISIC_9709101.JPG,false,1,keypress(m),500,338046.40000000014,338046,328056.905,328072.90000000014,328077.111,338073.665,8,400,10,,ISIC_6553579.JPG
break,html.Screen,4_9_1,2023-09-16T02:30:38.919Z,,0,,,NaN,,,,,,false,,,,338048,338047.7000000002,,338047.1000000001,,338073.665,8,400,,,
break_continue,html.Screen,4_9_2,2023-09-16T02:30:38.920Z,,0,,,NaN,,,,,,false,,,,338048.6000000001,338048.30000000005,,338048.1000000001,,338073.665,8,400,,,
sequence,flow.Sequence,4_9,2023-09-16T02:30:38.920Z,,0,,,9971.189000000071,completion,,,,,false,,,,338048.90000000014,338048.30000000005,328056.905,328072.80000000005,328077.111,338073.665,8,400,,,
trial,html.Screen,4_10_0,2023-09-16T02:30:42.636Z,,0,1,,3690.7350000001607,response,ISIC_0027325.JPG,5,ISIC_2795397.JPG,ISIC_0027325.JPG,false,1,keypress(m),500,341764.7000000002,341764.40000000014,338057.061,338049.1000000001,338073.665,341777.778,8,400,11,,ISIC_2795397.JPG
break,html.Screen,4_10_1,2023-09-16T02:30:42.637Z,,0,,,NaN,,,,,,false,,,,341766.2000000002,341765.90000000014,,341765.2000000002,,341777.778,8,400,,,
break_continue,html.Screen,4_10_2,2023-09-16T02:30:42.638Z,,0,,,NaN,,,,,,false,,,,341766.90000000014,341766.7000000002,,341766.5,,341777.778,8,400,,,
sequence,flow.Sequence,4_10,2023-09-16T02:30:42.638Z,,0,,,3693.035000000207,completion,,,,,false,,,,341767.30000000005,341766.7000000002,338057.061,338049,338073.665,341777.778,8,400,,,
trial,html.Screen,4_11_0,2023-09-16T02:30:48.004Z,,0,1,,5354.822000000102,response,ISIC_0062389.JPG,5,ISIC_0056707.JPG,ISIC_0056707.JPG,false,0,keypress(z),500,347132.7000000002,347132.6000000001,341760.549,341767.5,341777.778,347145.366,8,400,12,,ISIC_0062389.JPG
break,html.Screen,4_11_1,2023-09-16T02:30:48.004Z,,0,,,NaN,,,,,,false,,,,347133.2000000002,347133,,347132.80000000005,,347145.366,8,400,,,
break_continue,html.Screen,4_11_2,2023-09-16T02:30:48.004Z,,0,,,NaN,,,,,,false,,,,347133.40000000014,347133.30000000005,,347133.30000000005,,347145.366,8,400,,,
sequence,flow.Sequence,4_11,2023-09-16T02:30:48.004Z,,0,,,5355.522000000055,completion,,,,,false,,,,347133.5,347133.30000000005,341760.549,341767.5,341777.778,347145.366,8,400,,,
trial,html.Screen,4_12_0,2023-09-16T02:30:56.253Z,,0,1,,8236.734000000113,response,ISIC_0033595.JPG,5,ISIC_0367225.JPG,ISIC_0367225.JPG,false,0,keypress(z),500,355382.5,355382.1000000001,347118.688,347133.5,347145.366,355389.726,8,400,13,,ISIC_0033595.JPG
break,html.Screen,4_12_1,2023-09-16T02:30:56.255Z,,0,,,NaN,,,,,,false,,,,355383.90000000014,355383.5,,355382.90000000014,,355389.726,8,400,,,
break_continue,html.Screen,4_12_2,2023-09-16T02:30:56.256Z,,0,,,NaN,,,,,,false,,,,355384.90000000014,355384.7000000002,,355384.40000000014,,355389.726,8,400,,,
sequence,flow.Sequence,4_12,2023-09-16T02:30:56.256Z,,0,,,8239.334000000206,completion,,,,,false,,,,355385.2000000002,355384.7000000002,347118.688,347133.5,347145.366,355389.726,8,400,,,
trial,html.Screen,4_13_0,2023-09-16T02:31:02.360Z,,0,1,,6098.974000000162,response,ISIC_6688311.JPG,5,ISIC_8527737.JPG,ISIC_6688311.JPG,false,1,keypress(m),500,361489,361488.7000000002,355371.107,355385.5,355389.726,361496.253,8,400,14,,ISIC_8527737.JPG
break,html.Screen,4_13_1,2023-09-16T02:31:02.361Z,,0,,,NaN,,,,,,false,,,,361490.30000000005,361490.1000000001,,361489.5,,361496.253,8,400,,,
break_continue,html.Screen,4_13_2,2023-09-16T02:31:02.362Z,,0,,,NaN,,,,,,false,,,,361491,361490.80000000005,,361490.6000000001,,361496.253,8,400,,,
sequence,flow.Sequence,4_13,2023-09-16T02:31:02.362Z,,0,,,6101.074000000022,completion,,,,,false,,,,361491.30000000005,361490.80000000005,355371.107,355385.40000000014,355389.726,361496.253,8,400,,,
trial,html.Screen,4_14_0,2023-09-16T02:31:09.422Z,,0,1,,7054.0470000000205,response,ISIC_0033086.JPG,6,ISIC_0063516.JPG,ISIC_0033086.JPG,false,1,keypress(m),500,368550.6000000001,368550.30000000005,361477.052,361491.6000000001,361496.253,368558.99,8,400,15,,ISIC_0063516.JPG
break,html.Screen,4_14_1,2023-09-16T02:31:09.423Z,,0,,,NaN,,,,,,false,,,,368552,368551.6000000001,,368550.90000000014,,368558.99,8,400,,,
break_continue,html.Screen,4_14_2,2023-09-16T02:31:09.423Z,,0,,,NaN,,,,,,false,,,,368552.6000000001,368552.30000000005,,368552.1000000001,,368558.99,8,400,,,
sequence,flow.Sequence,4_14,2023-09-16T02:31:09.424Z,,0,,,7056.0470000000205,completion,,,,,false,,,,368552.80000000005,368552.30000000005,361477.052,361491.40000000014,361496.253,368558.99,8,400,,,
trial,html.Screen,4_15_0,2023-09-16T02:31:15.122Z,,0,1,,5691.710000000196,response,ISIC_4882389.JPG,5,ISIC_0015411.JPG,ISIC_0015411.JPG,false,0,keypress(z),500,374251.1000000001,374250.7000000002,368537.432,368553,368558.99,374264.358,8,400,16,,ISIC_4882389.JPG
break,html.Screen,4_15_1,2023-09-16T02:31:15.124Z,,0,,,NaN,,,,,,false,,,,374252.7000000002,374252.40000000014,,374251.7000000002,,374264.358,8,400,,,
break_continue,html.Screen,4_15_2,2023-09-16T02:31:15.124Z,,0,,,NaN,,,,,,false,,,,374253.2000000002,374253.1000000001,,374252.80000000005,,374264.358,8,400,,,
sequence,flow.Sequence,4_15,2023-09-16T02:31:15.124Z,,0,,,5694.110000000102,completion,,,,,false,,,,374253.5,374253.1000000001,368537.432,368553,368558.99,374264.358,8,400,,,
trial,html.Screen,4_16_0,2023-09-16T02:31:19.736Z,,0,1,,4599.442000000039,response,ISIC_7080584.JPG,4,ISIC_0010684.JPG,ISIC_0010684.JPG,false,0,keypress(z),500,378865.1000000001,378863.80000000005,374238.516,374253.7000000002,374264.358,378872.109,8,400,17,,ISIC_7080584.JPG
break,html.Screen,4_16_1,2023-09-16T02:31:19.737Z,,0,,,NaN,,,,,,false,,,,378866.6000000001,378866.2000000002,,378865.30000000005,,378872.109,8,400,,,
break_continue,html.Screen,4_16_2,2023-09-16T02:31:19.738Z,,0,,,NaN,,,,,,false,,,,378867.30000000005,378867,,378866.90000000014,,378872.109,8,400,,,
sequence,flow.Sequence,4_16,2023-09-16T02:31:19.739Z,,0,,,4602.641999999993,completion,,,,,false,,,,378867.6000000001,378867,374238.516,374253.6000000001,374264.358,378872.109,8,400,,,
trial,html.Screen,4_17_0,2023-09-16T02:31:24.958Z,,0,1,,5214.69100000005,response,ISIC_0010265.JPG,5,ISIC_0033202.JPG,ISIC_0010265.JPG,false,1,keypress(m),500,384087.2000000002,384086.80000000005,378865.853,378867.80000000005,378872.109,384094.289,8,400,18,,ISIC_0033202.JPG
break,html.Screen,4_17_1,2023-09-16T02:31:24.959Z,,0,,,NaN,,,,,,false,,,,384088.40000000014,384088.1000000001,,384087.5,,384094.289,8,400,,,
break_continue,html.Screen,4_17_2,2023-09-16T02:31:24.960Z,,0,,,NaN,,,,,,false,,,,384089,384088.80000000005,,384088.6000000001,,384094.289,8,400,,,
sequence,flow.Sequence,4_17,2023-09-16T02:31:24.960Z,,0,,,5216.69100000005,completion,,,,,false,,,,384089.30000000005,384088.80000000005,378865.853,378867.80000000005,378872.109,384094.289,8,400,,,
trial,html.Screen,4_18_0,2023-09-16T02:31:28.723Z,,0,1,,3757.7110000000102,response,ISIC_5190920.JPG,5,ISIC_3195720.JPG,ISIC_5190920.JPG,false,1,keypress(m),500,387852.30000000005,387852,384074.627,384089.5,384094.289,387862.901,8,400,19,,ISIC_3195720.JPG
break,html.Screen,4_18_1,2023-09-16T02:31:28.724Z,,0,,,NaN,,,,,,false,,,,387853.5,387853.30000000005,,387852.6000000001,,387862.901,8,400,,,
break_continue,html.Screen,4_18_2,2023-09-16T02:31:28.725Z,,0,,,NaN,,,,,,false,,,,387854.2000000002,387853.90000000014,,387853.7000000002,,387862.901,8,400,,,
sequence,flow.Sequence,4_18,2023-09-16T02:31:28.725Z,,0,,,3759.61100000015,completion,,,,,false,,,,387854.40000000014,387853.90000000014,384074.627,384089.5,384094.289,387862.901,8,400,,,
trial,html.Screen,4_19_0,2023-09-16T02:31:33.721Z,,0,1,,4986.499000000127,response,ISIC_4001990.JPG,5,ISIC_3520591.JPG,ISIC_4001990.JPG,false,1,keypress(m),500,392849.90000000014,392849.40000000014,387840.053,387854.6000000001,387862.901,392857.097,8,400,20,,ISIC_3520591.JPG
break,html.Screen,4_19_1,2023-09-16T02:31:33.722Z,,0,,,NaN,,,,,,false,,,,392851.2000000002,392850.90000000014,,392850.1000000001,,392857.097,8,400,,,
break_continue,html.Screen,4_19_2,2023-09-16T02:31:33.723Z,,0,,,NaN,,,,,,false,,,,392851.80000000005,392851.6000000001,,392851.5,,392857.097,8,400,,,
sequence,flow.Sequence,4_19,2023-09-16T02:31:33.723Z,,0,,,4988.699000000081,completion,,,,,false,,,,392852.2000000002,392851.6000000001,387840.053,387854.6000000001,387862.901,392857.097,8,400,,,
trial,html.Screen,4_20_0,2023-09-16T02:31:38.366Z,,0,1,,4637.402999999991,response,ISIC_6093728.JPG,5,ISIC_5929687.JPG,ISIC_6093728.JPG,false,1,keypress(m),500,397494.80000000005,397494.5,392848.576,392852.5,392857.097,397501.612,8,400,21,,ISIC_5929687.JPG
break,html.Screen,4_20_1,2023-09-16T02:31:38.367Z,,0,,,NaN,,,,,,false,,,,397496.5,397496.1000000001,,397495.5,,397501.612,8,400,,,
break_continue,html.Screen,4_20_2,2023-09-16T02:31:38.368Z,,0,,,NaN,,,,,,false,,,,397497.1000000001,397497,,397496.90000000014,,397501.612,8,400,,,
sequence,flow.Sequence,4_20,2023-09-16T02:31:38.368Z,,0,,,4639.902999999991,completion,,,,,false,,,,397497.2000000002,397497,392848.576,392852.40000000014,392857.097,397501.612,8,400,,,
trial,html.Screen,4_21_0,2023-09-16T02:31:43.846Z,,0,1,,5472.788000000117,response,ISIC_1952749.JPG,6,ISIC_1776777.JPG,ISIC_1776777.JPG,false,0,keypress(z),500,402974.80000000005,402974.40000000014,397483.132,397497.2000000002,397501.612,402979.61,8,400,22,,ISIC_1952749.JPG
break,html.Screen,4_21_1,2023-09-16T02:31:43.847Z,,0,,,NaN,,,,,,false,,,,402976,402975.80000000005,,402975.1000000001,,402979.61,8,400,,,
break_continue,html.Screen,4_21_2,2023-09-16T02:31:43.848Z,,0,,,NaN,,,,,,false,,,,402977.1000000001,402976.7000000002,,402976.40000000014,,402979.61,8,400,,,
sequence,flow.Sequence,4_21,2023-09-16T02:31:43.849Z,,0,,,5475.088000000163,completion,,,,,false,,,,402977.7000000002,402976.7000000002,397483.132,397497.2000000002,397501.612,402979.61,8,400,,,
trial,html.Screen,4_22_0,2023-09-16T02:31:55.335Z,,0,1,,11516.722000000009,timeout,ISIC_0694677.JPG,5,ISIC_1714941.JPG,,false,,,500,414464.5,414464,402963.008,402978,402979.61,414496.332,8,400,23,,
break,html.Screen,4_22_1,2023-09-16T02:31:55.337Z,,0,,,NaN,,,,,,false,,,,414465.6000000001,414465.30000000005,,414464.80000000005,,414496.332,8,400,,,
break_continue,html.Screen,4_22_2,2023-09-16T02:31:55.337Z,,0,,,NaN,,,,,,false,,,,414466.30000000005,414466.1000000001,,414466,,414496.332,8,400,,,
sequence,flow.Sequence,4_22,2023-09-16T02:31:55.338Z,,0,,,11486.490000000107,completion,,,,,false,,,,414466.90000000014,414466.1000000001,402963.008,402978,402979.61,414496.332,8,400,,,
trial,html.Screen,4_23_0,2023-09-16T02:32:01.263Z,,0,1,,5895.768000000098,response,ISIC_2332127.JPG,4,ISIC_6877295.JPG,ISIC_6877295.JPG,false,0,keypress(z),500,420392.40000000014,420392.1000000001,414479.733,414467.30000000005,414496.332,420401.865,8,400,24,,ISIC_2332127.JPG
break,html.Screen,4_23_1,2023-09-16T02:32:01.264Z,,0,,,NaN,,,,,,false,,,,420393.30000000005,420393.1000000001,,420392.7000000002,,420401.865,8,400,,,
break_continue,html.Screen,4_23_2,2023-09-16T02:32:01.265Z,,0,,,NaN,,,,,,false,,,,420393.7000000002,420393.6000000001,,420393.5,,420401.865,8,400,,,
sequence,flow.Sequence,4_23,2023-09-16T02:32:01.265Z,,0,,,5897.268000000098,completion,,,,,false,,,,420394,420393.6000000001,414479.733,414467.2000000002,414496.332,420401.865,8,400,,,
trial,html.Screen,4_24_0,2023-09-16T02:32:04.372Z,,0,1,,3098.8350000001956,response,ISIC_0448195.JPG,6,ISIC_0071834.JPG,ISIC_0448195.JPG,false,1,keypress(m),500,423501.2000000002,423500.7000000002,420385.216,420394.1000000001,420401.865,423503.717,8,400,25,,ISIC_0071834.JPG
break,html.Screen,4_24_1,2023-09-16T02:32:04.373Z,,0,,,NaN,,,,,,false,,,,423502.5,423502.40000000014,,423501.90000000014,,423503.717,8,400,,,
break_continue,html.Screen,4_24_2,2023-09-16T02:32:04.374Z,,0,,,NaN,,,,,,false,,,,423502.7000000002,423502.7000000002,,423502.6000000001,,423503.717,8,400,,,
sequence,flow.Sequence,4_24,2023-09-16T02:32:04.374Z,,0,,,3100.8350000001956,completion,,,,,false,,,,423502.80000000005,423502.7000000002,420385.216,420394.1000000001,420401.865,423503.717,8,400,,,
trial,html.Screen,4_25_0,2023-09-16T02:32:09.560Z,,0,1,,5184.6830000001355,response,ISIC_3335505.JPG,6,ISIC_0067808.JPG,ISIC_3335505.JPG,false,1,keypress(m),500,428688.6000000001,428688.40000000014,423498.984,423502.80000000005,423503.717,428704.057,8,400,26,,ISIC_0067808.JPG
break,html.Screen,4_25_1,2023-09-16T02:32:09.560Z,,0,,,NaN,,,,,,false,,,,428689.30000000005,428689.2000000002,,428688.80000000005,,428704.057,8,400,,,
break_continue,html.Screen,4_25_2,2023-09-16T02:32:09.561Z,,0,,,NaN,,,,,,false,,,,428690,428689.80000000005,,428689.6000000001,,428704.057,8,400,,,
sequence,flow.Sequence,4_25,2023-09-16T02:32:09.561Z,,0,,,5186.083000000042,completion,,,,,false,,,,428690.1000000001,428689.80000000005,423498.984,423502.80000000005,423503.717,428704.057,8,400,,,
trial,html.Screen,4_26_0,2023-09-16T02:32:15.474Z,,0,1,,5898.643000000215,response,ISIC_0009908.JPG,4,ISIC_5377693.JPG,ISIC_5377693.JPG,false,0,keypress(z),500,434603.1000000001,434602.7000000002,428686.974,428690.30000000005,428704.057,434611.401,8,400,27,,ISIC_0009908.JPG
break,html.Screen,4_26_1,2023-09-16T02:32:15.475Z,,0,,,NaN,,,,,,false,,,,434604.2000000002,434604,,434603.40000000014,,434611.401,8,400,,,
break_continue,html.Screen,4_26_2,2023-09-16T02:32:15.476Z,,0,,,NaN,,,,,,false,,,,434604.90000000014,434604.7000000002,,434604.40000000014,,434611.401,8,400,,,
sequence,flow.Sequence,4_26,2023-09-16T02:32:15.476Z,,0,,,5900.643000000215,completion,,,,,false,,,,434605.2000000002,434604.7000000002,428686.974,428690.2000000002,428704.057,434611.401,8,400,,,
trial,html.Screen,4_27_0,2023-09-16T02:32:20.684Z,,0,1,,5201.799000000174,response,ISIC_0005360.JPG,5,ISIC_7831274.JPG,ISIC_0005360.JPG,false,1,keypress(m),500,439813.6000000001,439813.2000000002,434597.935,434605.5,434611.401,439820.686,8,400,28,,ISIC_7831274.JPG
break,html.Screen,4_27_1,2023-09-16T02:32:20.686Z,,0,,,NaN,,,,,,false,,,,439814.80000000005,439814.5,,439813.90000000014,,439820.686,8,400,,,
break_continue,html.Screen,4_27_2,2023-09-16T02:32:20.686Z,,0,,,NaN,,,,,,false,,,,439815.40000000014,439815.2000000002,,439815,,439820.686,8,400,,,
sequence,flow.Sequence,4_27,2023-09-16T02:32:20.687Z,,0,,,5203.799000000174,completion,,,,,false,,,,439815.7000000002,439815.2000000002,434597.935,434605.40000000014,434611.401,439820.686,8,400,,,
trial,html.Screen,4_28_0,2023-09-16T02:32:24.721Z,,0,1,,4029.2140000001527,response,ISIC_1988335.JPG,5,ISIC_0000077.JPG,ISIC_1988335.JPG,false,1,keypress(m),500,443850.40000000014,443849.90000000014,439801.639,439815.90000000014,439820.686,443853.653,8,400,29,,ISIC_0000077.JPG
break,html.Screen,4_28_1,2023-09-16T02:32:24.723Z,,0,,,NaN,,,,,,false,,,,443851.90000000014,443851.5,,443850.90000000014,,443853.653,8,400,,,
break_continue,html.Screen,4_28_2,2023-09-16T02:32:24.724Z,,0,,,NaN,,,,,,false,,,,443852.6000000001,443852.40000000014,,443852.2000000002,,443853.653,8,400,,,
sequence,flow.Sequence,4_28,2023-09-16T02:32:24.724Z,,0,,,4031.7140000001527,completion,,,,,false,,,,443853,443852.40000000014,439801.639,439815.90000000014,439820.686,443853.653,8,400,,,
trial,html.Screen,4_29_0,2023-09-16T02:32:31.208Z,,0,1,,6483.547000000195,response,ISIC_0046223.JPG,5,ISIC_7100755.JPG,ISIC_0046223.JPG,false,1,keypress(m),500,450337.40000000014,450337.2000000002,443841.297,443853.2000000002,443853.653,450341.294,8,400,30,,ISIC_7100755.JPG
break,html.Screen,4_29_1,2023-09-16T02:32:31.209Z,,0,,,NaN,,,,,,false,,,,450337.90000000014,450337.80000000005,,450337.5,,450341.294,8,400,,,
break_continue,html.Screen,4_29_2,2023-09-16T02:32:31.209Z,,0,,,NaN,,,,,,false,,,,450338.1000000001,450338.1000000001,,450338,,450341.294,8,400,,,
sequence,flow.Sequence,4_29,2023-09-16T02:32:31.209Z,,0,,,6484.447000000102,completion,,,,,false,,,,450338.2000000002,450338.1000000001,443841.297,443853.1000000001,443853.653,450341.294,8,400,,,
trial,html.Screen,4_30_0,2023-09-16T02:32:35.802Z,,0,1,,4589.406000000192,response,ISIC_0025582.JPG,5,ISIC_0031365.JPG,ISIC_0031365.JPG,false,0,keypress(z),500,454930.90000000014,454930.7000000002,450323.354,450338.2000000002,450341.294,454947.139,8,400,31,,ISIC_0025582.JPG
break,html.Screen,4_30_1,2023-09-16T02:32:35.802Z,,0,,,NaN,,,,,,false,,,,454931.40000000014,454931.2000000002,,454931,,454947.139,8,400,,,
break_continue,html.Screen,4_30_2,2023-09-16T02:32:35.803Z,,0,,,NaN,,,,,,false,,,,454931.7000000002,454931.6000000001,,454931.6000000001,,454947.139,8,400,,,
sequence,flow.Sequence,4_30,2023-09-16T02:32:35.803Z,,0,,,4590.306000000099,completion,,,,,false,,,,454931.80000000005,454931.6000000001,450323.354,450338.2000000002,450341.294,454947.139,8,400,,,
trial,html.Screen,4_31_0,2023-09-16T02:32:41.277Z,,0,1,,5458.961000000068,response,ISIC_4105234.JPG,4,ISIC_6539127.JPG,ISIC_4105234.JPG,false,1,keypress(m),500,460406.5,460406.1000000001,454915.317,454931.90000000014,454947.139,460420.764,8,400,32,,ISIC_6539127.JPG
break,html.Screen,4_31_1,2023-09-16T02:32:41.279Z,,0,,,NaN,,,,,,false,,,,460408,460407.6000000001,,460407,,460420.764,8,400,,,
break_continue,html.Screen,4_31_2,2023-09-16T02:32:41.280Z,,0,,,NaN,,,,,,false,,,,460408.80000000005,460408.5,,460408.40000000014,,460420.764,8,400,,,
sequence,flow.Sequence,4_31,2023-09-16T02:32:41.280Z,,0,,,5461.360999999975,completion,,,,,false,,,,460409,460408.5,454915.317,454931.80000000005,454947.139,460420.764,8,400,,,
trial,html.Screen,4_32_0,2023-09-16T02:32:48.404Z,,0,1,,7112.136000000115,response,ISIC_8354042.JPG,5,ISIC_0004000.JPG,ISIC_0004000.JPG,false,0,keypress(z),500,467533.30000000005,467532.90000000014,460404.142,460409.5,460420.764,467552.669,8,400,33,,ISIC_8354042.JPG
break,html.Screen,4_32_1,2023-09-16T02:32:48.405Z,,0,,,NaN,,,,,,false,,,,467534.5,467534.2000000002,,467533.7000000002,,467552.669,8,400,,,
break_continue,html.Screen,4_32_2,2023-09-16T02:32:48.406Z,,0,,,NaN,,,,,,false,,,,467535.40000000014,467535.1000000001,,467534.90000000014,,467552.669,8,400,,,
sequence,flow.Sequence,4_32,2023-09-16T02:32:48.407Z,,0,,,7114.336000000068,completion,,,,,false,,,,467535.7000000002,467535.1000000001,460404.142,460409.2000000002,460420.764,467552.669,8,400,,,
trial,html.Screen,4_33_0,2023-09-16T02:32:53.434Z,,0,1,,5010.231000000145,response,ISIC_0055246.JPG,5,ISIC_0031482.JPG,ISIC_0031482.JPG,false,0,keypress(z),500,472563.30000000005,472562.90000000014,467523.045,467536,467552.669,472579.21,8,400,34,,ISIC_0055246.JPG
break,html.Screen,4_33_1,2023-09-16T02:32:53.435Z,,0,,,NaN,,,,,,false,,,,472564.6000000001,472564.30000000005,,472563.7000000002,,472579.21,8,400,,,
break_continue,html.Screen,4_33_2,2023-09-16T02:32:53.436Z,,0,,,NaN,,,,,,false,,,,472565.30000000005,472565.1000000001,,472564.80000000005,,472579.21,8,400,,,
sequence,flow.Sequence,4_33,2023-09-16T02:32:53.436Z,,0,,,5012.431000000099,completion,,,,,false,,,,472565.6000000001,472565.1000000001,467523.045,467535.90000000014,467552.669,472579.21,8,400,,,
trial,html.Screen,4_34_0,2023-09-16T02:33:00.703Z,,0,1,,7252.090000000026,response,ISIC_0032134.JPG,5,ISIC_0032540.JPG,ISIC_0032134.JPG,false,1,keypress(m),500,479831.7000000002,479831.30000000005,472553.78,472565.90000000014,472579.21,479838.75,8,400,35,,ISIC_0032540.JPG
break,html.Screen,4_34_1,2023-09-16T02:33:00.704Z,,0,,,NaN,,,,,,false,,,,479833,479832.7000000002,,479832,,479838.75,8,400,,,
break_continue,html.Screen,4_34_2,2023-09-16T02:33:00.704Z,,0,,,NaN,,,,,,false,,,,479833.7000000002,479833.5,,479833.30000000005,,479838.75,8,400,,,
sequence,flow.Sequence,4_34,2023-09-16T02:33:00.705Z,,0,,,7254.289999999979,completion,,,,,false,,,,479833.90000000014,479833.5,472553.78,472565.80000000005,472579.21,479838.75,8,400,,,
trial,html.Screen,4_35_0,2023-09-16T02:33:05.242Z,,0,1,,4532.550000000047,response,ISIC_0033152.JPG,6,ISIC_0027673.JPG,ISIC_0033152.JPG,false,1,keypress(m),500,484371.5,484371.30000000005,479816.635,479834.2000000002,479838.75,484384.521,8,400,36,,ISIC_0027673.JPG
break,html.Screen,4_35_1,2023-09-16T02:33:05.243Z,,0,,,NaN,,,,,,false,,,,484372,484371.80000000005,,484371.7000000002,,484384.521,8,400,,,
break_continue,html.Screen,4_35_2,2023-09-16T02:33:05.243Z,,0,,,NaN,,,,,,false,,,,484372.30000000005,484372.2000000002,,484372.1000000001,,484384.521,8,400,,,
sequence,flow.Sequence,4_35,2023-09-16T02:33:05.243Z,,0,,,4533.450000000186,completion,,,,,false,,,,484372.40000000014,484372.2000000002,479816.635,479834.1000000001,479838.75,484384.521,8,400,,,
trial,html.Screen,4_36_0,2023-09-16T02:33:09.344Z,,0,1,,4088.1790000001783,response,ISIC_0026281.JPG,5,ISIC_6946260.JPG,ISIC_6946260.JPG,false,0,keypress(z),500,488473.1000000001,488472.7000000002,484362.435,484372.5,484384.521,488482.417,8,400,37,,ISIC_0026281.JPG
break,html.Screen,4_36_1,2023-09-16T02:33:09.345Z,,0,,,NaN,,,,,,false,,,,488474.40000000014,488474,,488473.5,,488482.417,8,400,,,
break_continue,html.Screen,4_36_2,2023-09-16T02:33:09.346Z,,0,,,NaN,,,,,,false,,,,488475.1000000001,488474.80000000005,,488474.7000000002,,488482.417,8,400,,,
sequence,flow.Sequence,4_36,2023-09-16T02:33:09.346Z,,0,,,4090.2790000000386,completion,,,,,false,,,,488475.40000000014,488474.80000000005,484362.435,484372.5,484384.521,488482.417,8,400,,,
trial,html.Screen,4_37_0,2023-09-16T02:33:13.405Z,,0,1,,4051.483000000124,response,ISIC_6785680.JPG,4,ISIC_4079108.JPG,ISIC_4079108.JPG,false,0,keypress(z),500,492534.30000000005,492533.90000000014,488467.237,488475.7000000002,488482.417,492549.828,8,400,38,,ISIC_6785680.JPG
break,html.Screen,4_37_1,2023-09-16T02:33:13.407Z,,0,,,NaN,,,,,,false,,,,492536,492535.5,,492534.90000000014,,492549.828,8,400,,,
break_continue,html.Screen,4_37_2,2023-09-16T02:33:13.408Z,,0,,,NaN,,,,,,false,,,,492536.7000000002,492536.5,,492536.2000000002,,492549.828,8,400,,,
sequence,flow.Sequence,4_37,2023-09-16T02:33:13.408Z,,0,,,4054.082999999984,completion,,,,,false,,,,492537,492536.5,488467.237,488475.6000000001,488482.417,492549.828,8,400,,,
trial,html.Screen,4_38_0,2023-09-16T02:33:18.435Z,,0,1,,5013.972000000067,response,ISIC_0011528.JPG,6,ISIC_7755096.JPG,ISIC_7755096.JPG,false,0,keypress(z),500,497564.1000000001,497563.80000000005,492522.268,492537.30000000005,492549.828,497571.361,8,400,39,,ISIC_0011528.JPG
break,html.Screen,4_38_1,2023-09-16T02:33:18.436Z,,0,,,NaN,,,,,,false,,,,497565.6000000001,497565.2000000002,,497564.5,,497571.361,8,400,,,
break_continue,html.Screen,4_38_2,2023-09-16T02:33:18.437Z,,0,,,NaN,,,,,,false,,,,497566.2000000002,497566,,497565.80000000005,,497571.361,8,400,,,
sequence,flow.Sequence,4_38,2023-09-16T02:33:18.437Z,,0,,,5016.1720000000205,completion,,,,,false,,,,497566.6000000001,497566,492522.268,492537.30000000005,492549.828,497571.361,8,400,,,
trial,html.Screen,4_39_0,2023-09-16T02:33:23.053Z,,0,1,,4610.439000000071,response,ISIC_5709878.JPG,5,ISIC_0193456.JPG,ISIC_5709878.JPG,false,1,keypress(m),500,502182.30000000005,502181.80000000005,497551.469,497566.80000000005,497571.361,502189.341,8,400,40,,ISIC_0193456.JPG
break,html.Screen,4_39_1,2023-09-16T02:33:23.055Z,,0,,,NaN,,,,,,false,,,,502183.7000000002,502183.40000000014,,502182.7000000002,,502189.341,8,400,,,
break_continue,html.Screen,4_39_2,2023-09-16T02:33:23.055Z,,0,,,NaN,,,,,,false,,,,502184.30000000005,502184.2000000002,,502184,,502189.341,8,400,,,
sequence,flow.Sequence,4_39,2023-09-16T02:33:23.056Z,,0,,,4612.839000000211,completion,,,,,false,,,,502184.7000000002,502184.2000000002,497551.469,497566.7000000002,497571.361,502189.341,8,400,,,
trial,html.Screen,4_40_0,2023-09-16T02:33:29.540Z,,0,1,,6479.158999999985,response,ISIC_7429127.JPG,4,ISIC_0034071.JPG,ISIC_7429127.JPG,false,1,keypress(m),500,508669,508668.5,502169.711,502185.2000000002,502189.341,508676.067,8,400,41,,ISIC_0034071.JPG
break,html.Screen,4_40_1,2023-09-16T02:33:29.541Z,,0,,,NaN,,,,,,false,,,,508670.2000000002,508669.90000000014,,508669.30000000005,,508676.067,8,400,,,
break_continue,html.Screen,4_40_2,2023-09-16T02:33:29.542Z,,0,,,NaN,,,,,,false,,,,508670.80000000005,508670.6000000001,,508670.40000000014,,508676.067,8,400,,,
sequence,flow.Sequence,4_40,2023-09-16T02:33:29.542Z,,0,,,6481.259000000078,completion,,,,,false,,,,508671.1000000001,508670.6000000001,502169.711,502185.1000000001,502189.341,508676.067,8,400,,,
trial,html.Screen,4_41_0,2023-09-16T02:33:33.529Z,,0,1,,3981.7330000000657,response,ISIC_2652721.JPG,6,ISIC_7482149.JPG,ISIC_2652721.JPG,false,1,keypress(m),500,512657.90000000014,512657.80000000005,508668.394,508671.40000000014,508676.067,512664.389,8,400,42,,ISIC_7482149.JPG
break,html.Screen,4_41_1,2023-09-16T02:33:33.530Z,,0,,,NaN,,,,,,false,,,,512658.5,512658.40000000014,,512658.1000000001,,512664.389,8,400,,,
break_continue,html.Screen,4_41_2,2023-09-16T02:33:33.530Z,,0,,,NaN,,,,,,false,,,,512658.90000000014,512658.80000000005,,512658.7000000002,,512664.389,8,400,,,
sequence,flow.Sequence,4_41,2023-09-16T02:33:33.531Z,,0,,,3982.7330000000657,completion,,,,,false,,,,512659.6000000001,512658.80000000005,508668.394,508671.2000000002,508676.067,512664.389,8,400,,,
trial,html.Screen,4_42_0,2023-09-16T02:33:40.413Z,,0,1,,6877.610999999975,response,ISIC_5309814.JPG,5,ISIC_3394080.JPG,ISIC_5309814.JPG,false,1,keypress(m),500,519542.30000000005,519542,512644.314,512659.80000000005,512664.389,519552.812,8,400,43,,ISIC_3394080.JPG
break,html.Screen,4_42_1,2023-09-16T02:33:40.414Z,,0,,,NaN,,,,,,false,,,,519543.5,519543.2000000002,,519542.6000000001,,519552.812,8,400,,,
break_continue,html.Screen,4_42_2,2023-09-16T02:33:40.415Z,,0,,,NaN,,,,,,false,,,,519544.1000000001,519543.80000000005,,519543.7000000002,,519552.812,8,400,,,
sequence,flow.Sequence,4_42,2023-09-16T02:33:40.415Z,,0,,,6879.411000000022,completion,,,,,false,,,,519544.30000000005,519543.80000000005,512644.314,512659.80000000005,512664.389,519552.812,8,400,,,
trial,html.Screen,4_43_0,2023-09-16T02:33:47.205Z,,0,1,,6781.188000000024,response,ISIC_0006730.JPG,5,ISIC_9019691.JPG,ISIC_9019691.JPG,false,0,keypress(z),500,526334.1000000001,526334,519534.544,519544.6000000001,519552.812,526343.38,8,400,44,,ISIC_0006730.JPG
break,html.Screen,4_43_1,2023-09-16T02:33:47.206Z,,0,,,NaN,,,,,,false,,,,526334.9000000001,526334.7000000002,,526334.3,,526343.38,8,400,,,
break_continue,html.Screen,4_43_2,2023-09-16T02:33:47.206Z,,0,,,NaN,,,,,,false,,,,526335.3,526335.1000000001,,526335,,526343.38,8,400,,,
sequence,flow.Sequence,4_43,2023-09-16T02:33:47.206Z,,0,,,6782.288000000117,completion,,,,,false,,,,526335.5,526335.1000000001,519534.544,519544.5,519552.812,526343.38,8,400,,,
trial,html.Screen,4_44_0,2023-09-16T02:33:53.325Z,,0,1,,6110.420000000042,response,ISIC_1197584.JPG,5,ISIC_9947624.JPG,ISIC_1197584.JPG,false,1,keypress(m),500,532454.2000000002,532453.8,526328.551,526335.6000000001,526343.38,532461.447,8,400,45,,ISIC_9947624.JPG
break,html.Screen,4_44_1,2023-09-16T02:33:53.327Z,,0,,,NaN,,,,,,false,,,,532455.6000000001,532455.4000000001,,532454.6000000001,,532461.447,8,400,,,
break_continue,html.Screen,4_44_2,2023-09-16T02:33:53.327Z,,0,,,NaN,,,,,,false,,,,532456.4000000001,532456.1000000001,,532455.9000000001,,532461.447,8,400,,,
sequence,flow.Sequence,4_44,2023-09-16T02:33:53.328Z,,0,,,6112.7200000000885,completion,,,,,false,,,,532456.8,532456.1000000001,526328.551,526335.6000000001,526343.38,532461.447,8,400,,,
trial,html.Screen,4_45_0,2023-09-16T02:33:57.446Z,,0,1,,4113.153000000049,response,ISIC_0026545.JPG,5,ISIC_7139908.JPG,ISIC_7139908.JPG,false,0,keypress(z),500,536574.8,536574.6000000001,532442.884,532456.9000000001,532461.447,536581.336,8,400,46,,ISIC_0026545.JPG
break,html.Screen,4_45_1,2023-09-16T02:33:57.447Z,,0,,,NaN,,,,,,false,,,,536575.6000000001,536575.3,,536574.9000000001,,536581.336,8,400,,,
break_continue,html.Screen,4_45_2,2023-09-16T02:33:57.447Z,,0,,,NaN,,,,,,false,,,,536576,536575.9000000001,,536575.8,,536581.336,8,400,,,
sequence,flow.Sequence,4_45,2023-09-16T02:33:57.447Z,,0,,,4114.453000000096,completion,,,,,false,,,,536576.2000000002,536575.9000000001,532442.884,532456.8,532461.447,536581.336,8,400,,,
trial,html.Screen,4_46_0,2023-09-16T02:34:01.663Z,,0,1,,4210.064000000129,response,ISIC_4640293.JPG,5,ISIC_0059786.JPG,ISIC_0059786.JPG,false,0,keypress(z),500,540791.8,540791.4000000001,536562.924,536576.3,536581.336,540799.001,8,400,47,,ISIC_4640293.JPG
break,html.Screen,4_46_1,2023-09-16T02:34:01.664Z,,0,,,NaN,,,,,,false,,,,540793.1000000001,540792.9000000001,,540792.1000000001,,540799.001,8,400,,,
break_continue,html.Screen,4_46_2,2023-09-16T02:34:01.665Z,,0,,,NaN,,,,,,false,,,,540793.8,540793.6000000001,,540793.4000000001,,540799.001,8,400,,,
sequence,flow.Sequence,4_46,2023-09-16T02:34:01.665Z,,0,,,4212.264000000083,completion,,,,,false,,,,540794.1000000001,540793.6000000001,536562.924,536576.2000000002,536581.336,540799.001,8,400,,,
trial,html.Screen,4_47_0,2023-09-16T02:34:07.063Z,,0,1,,5392.699000000139,response,ISIC_5625747.JPG,4,ISIC_0066429.JPG,ISIC_5625747.JPG,false,1,keypress(m),500,546191.9000000001,546191.7000000002,540779.3,540794.4000000001,540799.001,546199.596,8,400,48,,ISIC_0066429.JPG
break,html.Screen,4_47_1,2023-09-16T02:34:07.064Z,,0,,,NaN,,,,,,false,,,,546193.1000000001,546192.7000000002,,546192.2000000002,,546199.596,8,400,,,
break_continue,html.Screen,4_47_2,2023-09-16T02:34:07.065Z,,0,,,NaN,,,,,,false,,,,546193.5,546193.4000000001,,546193.2000000002,,546199.596,8,400,,,
sequence,flow.Sequence,4_47,2023-09-16T02:34:07.065Z,,0,,,5394.399000000092,completion,,,,,false,,,,546193.8,546193.4000000001,540779.3,540794.4000000001,540799.001,546199.596,8,400,,,
trial,html.Screen,4_48_0,2023-09-16T02:34:10.539Z,,0,1,,3468.1040000001667,response,ISIC_0024537.JPG,5,ISIC_1048913.JPG,ISIC_1048913.JPG,false,0,keypress(z),500,549668.1000000001,549667.7000000002,546178.977,546194,546199.596,549675.199,8,400,49,,ISIC_0024537.JPG
break,html.Screen,4_48_1,2023-09-16T02:34:10.540Z,,0,,,NaN,,,,,,false,,,,549669.5,549669.2000000002,,549668.5,,549675.199,8,400,,,
break_continue,html.Screen,4_48_2,2023-09-16T02:34:10.541Z,,0,,,NaN,,,,,,false,,,,549670.2000000002,549669.9000000001,,549669.7000000002,,549675.199,8,400,,,
sequence,flow.Sequence,4_48,2023-09-16T02:34:10.541Z,,0,,,3470.30400000012,completion,,,,,false,,,,549670.5,549669.9000000001,546178.977,546193.9000000001,546199.596,549675.199,8,400,,,
trial,html.Screen,4_49_0,2023-09-16T02:34:14.609Z,,0,1,,4062.401000000071,response,ISIC_5722914.JPG,4,ISIC_2153301.JPG,ISIC_5722914.JPG,false,1,keypress(m),500,553738,553737.6000000001,549666.235,549670.7000000002,549675.199,553745.001,8,400,50,,ISIC_2153301.JPG
break,html.Screen,4_49_1,2023-09-16T02:34:24.608Z,,0,,,10007.312999999966,timeout,,,,,false,,,,563736.9000000001,563735.74,553722.469,553738.3,553745.001,563752.314,8,400,,,
break_continue,html.Screen,4_49_2,2023-09-16T02:34:36.586Z,,0,,,11955.086000000127,response,,,,,false,continue,keypress(Space),,575716.3,575707.4000000001,563735.74,563737.1000000001,563752.314,575718.664,8,400,,,
sequence,flow.Sequence,4_49,2023-09-16T02:34:36.587Z,,0,,,26032.201000000117,completion,,,,,false,,,,575716.4000000001,575707.4000000001,549666.235,549670.7000000002,549675.199,575718.664,8,400,,,
trial,html.Screen,4_50_0,2023-09-16T02:34:42.780Z,,0,2,,6191.23600000015,response,ISIC_5392118.JPG,5,ISIC_0010175.JPG,ISIC_5392118.JPG,false,1,keypress(m),500,581910.3,581909.9000000001,575707.171,575716.5,575718.664,581926.301,8,400,1,,ISIC_0010175.JPG
break,html.Screen,4_50_1,2023-09-16T02:34:42.782Z,,0,,,NaN,,,,,,false,,,,581912,581911.6000000001,,581910.9000000001,,581926.301,8,400,,,
break_continue,html.Screen,4_50_2,2023-09-16T02:34:42.783Z,,0,,,NaN,,,,,,false,,,,581912.6000000001,581912.4000000001,,581912.1000000001,,581926.301,8,400,,,
sequence,flow.Sequence,4_50,2023-09-16T02:34:42.783Z,,0,,,6193.73600000015,completion,,,,,false,,,,581912.9000000001,581912.4000000001,575707.171,575716.4000000001,575718.664,581926.301,8,400,,,
trial,html.Screen,4_51_0,2023-09-16T02:34:48.071Z,,0,2,,5274.899000000209,response,ISIC_0000450.JPG,5,ISIC_0010690.JPG,ISIC_0000450.JPG,false,1,keypress(m),500,587201.4000000001,587201.2000000002,581907.387,581913.1000000001,581926.301,587207.593,8,400,2,,ISIC_0010690.JPG
break,html.Screen,4_51_1,2023-09-16T02:34:48.072Z,,0,,,NaN,,,,,,false,,,,587201.9000000001,587201.8,,587201.5,,587207.593,8,400,,,
break_continue,html.Screen,4_51_2,2023-09-16T02:34:48.072Z,,0,,,NaN,,,,,,false,,,,587202.1000000001,587202.1000000001,,587202,,587207.593,8,400,,,
sequence,flow.Sequence,4_51,2023-09-16T02:34:48.072Z,,0,,,5275.7990000001155,completion,,,,,false,,,,587202.3,587202.1000000001,581907.387,581913.1000000001,581926.301,587207.593,8,400,,,
trial,html.Screen,4_52_0,2023-09-16T02:34:52.610Z,,0,2,,4532.0070000001,response,ISIC_0030077.JPG,6,ISIC_0008952.JPG,ISIC_0008952.JPG,false,0,keypress(z),500,591740,591739.6000000001,587188.358,587202.4000000001,587207.593,591747.405,8,400,3,,ISIC_0030077.JPG
break,html.Screen,4_52_1,2023-09-16T02:34:52.612Z,,0,,,NaN,,,,,,false,,,,591741.5,591741.1000000001,,591740.4000000001,,591747.405,8,400,,,
break_continue,html.Screen,4_52_2,2023-09-16T02:34:52.612Z,,0,,,NaN,,,,,,false,,,,591742.1000000001,591741.9000000001,,591741.7000000002,,591747.405,8,400,,,
sequence,flow.Sequence,4_52,2023-09-16T02:34:52.613Z,,0,,,4534.307000000146,completion,,,,,false,,,,591742.6000000001,591741.9000000001,587188.358,587202.4000000001,587207.593,591747.405,8,400,,,
trial,html.Screen,4_53_0,2023-09-16T02:34:56.832Z,,0,2,,4214.395000000019,response,ISIC_0011534.JPG,5,ISIC_0411688.JPG,ISIC_0011534.JPG,false,1,keypress(m),500,595962.3,595961.8,591726.841,591742.9000000001,591747.405,595976.772,8,400,4,,ISIC_0411688.JPG
break,html.Screen,4_53_1,2023-09-16T02:34:56.834Z,,0,,,NaN,,,,,,false,,,,595963.4000000001,595963.2000000002,,595962.5,,595976.772,8,400,,,
break_continue,html.Screen,4_53_2,2023-09-16T02:34:56.834Z,,0,,,NaN,,,,,,false,,,,595964.2000000002,595964,,595963.8,,595976.772,8,400,,,
sequence,flow.Sequence,4_53,2023-09-16T02:34:56.835Z,,0,,,4216.594999999972,completion,,,,,false,,,,595964.5,595964,591726.841,591742.8,591747.405,595976.772,8,400,,,
trial,html.Screen,4_54_0,2023-09-16T02:35:00.380Z,,0,2,,3533.0280000000494,response,ISIC_0027673.JPG,5,ISIC_0033051.JPG,ISIC_0033051.JPG,false,0,keypress(z),500,599510.2000000002,599509.8,595963.322,595964.7000000002,595976.772,599519.152,8,400,5,,ISIC_0027673.JPG
break,html.Screen,4_54_1,2023-09-16T02:35:00.382Z,,0,,,NaN,,,,,,false,,,,599511.4000000001,599511.1000000001,,599510.5,,599519.152,8,400,,,
break_continue,html.Screen,4_54_2,2023-09-16T02:35:00.382Z,,0,,,NaN,,,,,,false,,,,599512.3,599512,,599511.9000000001,,599519.152,8,400,,,
sequence,flow.Sequence,4_54,2023-09-16T02:35:00.383Z,,0,,,3535.228000000003,completion,,,,,false,,,,599512.6000000001,599512,595963.322,595964.7000000002,595976.772,599519.152,8,400,,,
trial,html.Screen,4_55_0,2023-09-16T02:35:04.391Z,,0,2,,4001.347999999998,response,ISIC_7110531.JPG,5,ISIC_8671119.JPG,ISIC_8671119.JPG,false,0,keypress(z),500,603520.8,603520.5,599497.018,599512.8,599519.152,603527.921,8,400,6,,ISIC_7110531.JPG
break,html.Screen,4_55_1,2023-09-16T02:35:04.392Z,,0,,,NaN,,,,,,false,,,,603522,603521.8,,603521.1000000001,,603527.921,8,400,,,
break_continue,html.Screen,4_55_2,2023-09-16T02:35:04.393Z,,0,,,NaN,,,,,,false,,,,603522.6000000001,603522.4000000001,,603522.2000000002,,603527.921,8,400,,,
sequence,flow.Sequence,4_55,2023-09-16T02:35:04.393Z,,0,,,4003.248000000138,completion,,,,,false,,,,603522.8,603522.4000000001,599497.018,599512.7000000002,599519.152,603527.921,8,400,,,
trial,html.Screen,4_56_0,2023-09-16T02:35:09.435Z,,0,2,,5036.979000000167,response,ISIC_2395624.JPG,5,ISIC_7110699.JPG,ISIC_7110699.JPG,false,0,keypress(z),500,608565.2000000002,608564.9000000001,603508.522,603523,603527.921,608572.27,8,400,7,,ISIC_2395624.JPG
break,html.Screen,4_56_1,2023-09-16T02:35:09.437Z,,0,,,NaN,,,,,,false,,,,608566.7000000002,608566.4000000001,,608565.6000000001,,608572.27,8,400,,,
break_continue,html.Screen,4_56_2,2023-09-16T02:35:09.438Z,,0,,,NaN,,,,,,false,,,,608567.3,608567.2000000002,,608567,,608572.27,8,400,,,
sequence,flow.Sequence,4_56,2023-09-16T02:35:09.438Z,,0,,,5039.279000000213,completion,,,,,false,,,,608567.7000000002,608567.2000000002,603508.522,603523,603527.921,608572.27,8,400,,,
trial,html.Screen,4_57_0,2023-09-16T02:35:13.380Z,,0,2,,3936.9300000001676,response,ISIC_1783062.JPG,5,ISIC_6676647.JPG,ISIC_1783062.JPG,false,1,keypress(m),500,612509.4000000001,612509.2000000002,608551.842,608567.9000000001,608572.27,612523.97,8,400,8,,ISIC_6676647.JPG
break,html.Screen,4_57_1,2023-09-16T02:35:13.380Z,,0,,,NaN,,,,,,false,,,,612510,612509.7000000002,,612509.5,,612523.97,8,400,,,
break_continue,html.Screen,4_57_2,2023-09-16T02:35:13.380Z,,0,,,NaN,,,,,,false,,,,612510.3,612510.2000000002,,612510.2000000002,,612523.97,8,400,,,
sequence,flow.Sequence,4_57,2023-09-16T02:35:13.381Z,,0,,,3937.9300000001676,completion,,,,,false,,,,612510.4000000001,612510.2000000002,608551.842,608567.8,608572.27,612523.97,8,400,,,
trial,html.Screen,4_58_0,2023-09-16T02:35:16.812Z,,0,2,,3417.630000000121,response,ISIC_6025721.JPG,6,ISIC_0028215.JPG,ISIC_6025721.JPG,false,1,keypress(m),500,615942,615941.6000000001,612502.709,612510.4000000001,612523.97,615945.754,8,400,9,,ISIC_0028215.JPG
break,html.Screen,4_58_1,2023-09-16T02:35:16.813Z,,0,,,NaN,,,,,,false,,,,615943.3,615943,,615942.3,,615945.754,8,400,,,
break_continue,html.Screen,4_58_2,2023-09-16T02:35:16.814Z,,0,,,NaN,,,,,,false,,,,615944,615943.8,,615943.5,,615945.754,8,400,,,
sequence,flow.Sequence,4_58,2023-09-16T02:35:16.815Z,,0,,,3419.8300000000745,completion,,,,,false,,,,615944.4000000001,615943.8,612502.709,612510.4000000001,612523.97,615945.754,8,400,,,
trial,html.Screen,4_59_0,2023-09-16T02:35:21.171Z,,0,2,,4354.746000000043,response,ISIC_7658276.JPG,6,ISIC_0010592.JPG,ISIC_0010592.JPG,false,0,keypress(z),500,620300.8,620300.5,615929.687,615944.6000000001,615945.754,620305.203,8,400,10,,ISIC_7658276.JPG
break,html.Screen,4_59_1,2023-09-16T02:35:21.172Z,,0,,,NaN,,,,,,false,,,,620302,620301.7000000002,,620301.1000000001,,620305.203,8,400,,,
break_continue,html.Screen,4_59_2,2023-09-16T02:35:21.173Z,,0,,,NaN,,,,,,false,,,,620302.6000000001,620302.5,,620302.3,,620305.203,8,400,,,
sequence,flow.Sequence,4_59,2023-09-16T02:35:21.173Z,,0,,,4356.746000000043,completion,,,,,false,,,,620303.1000000001,620302.5,615929.687,615944.5,615945.754,620305.203,8,400,,,
trial,html.Screen,4_60_0,2023-09-16T02:35:26.126Z,,0,2,,4950.497000000207,response,ISIC_0070215.JPG,4,ISIC_0010143.JPG,ISIC_0070215.JPG,false,1,keypress(m),500,625255.9000000001,625255.7000000002,620298.629,620303.3,620305.203,625262.066,8,400,11,,ISIC_0010143.JPG
break,html.Screen,4_60_1,2023-09-16T02:35:26.127Z,,0,,,NaN,,,,,,false,,,,625256.8,625256.6000000001,,625255.9000000001,,625262.066,8,400,,,
break_continue,html.Screen,4_60_2,2023-09-16T02:35:26.127Z,,0,,,NaN,,,,,,false,,,,625257.2000000002,625257.1000000001,,625257,,625262.066,8,400,,,
sequence,flow.Sequence,4_60,2023-09-16T02:35:26.128Z,,0,,,4951.897000000114,completion,,,,,false,,,,625257.3,625257.1000000001,620298.629,620303.3,620305.203,625262.066,8,400,,,
trial,html.Screen,4_61_0,2023-09-16T02:35:29.825Z,,0,2,,3692.4340000000084,response,ISIC_6613079.JPG,5,ISIC_0064180.JPG,ISIC_6613079.JPG,false,1,keypress(m),500,628954.9000000001,628954.5,625243.593,625257.5,625262.066,628965.51,8,400,12,,ISIC_0064180.JPG
break,html.Screen,4_61_1,2023-09-16T02:35:29.827Z,,0,,,NaN,,,,,,false,,,,628956.4000000001,628955.9000000001,,628955.3,,628965.51,8,400,,,
break_continue,html.Screen,4_61_2,2023-09-16T02:35:29.827Z,,0,,,NaN,,,,,,false,,,,628957,628956.8,,628956.5,,628965.51,8,400,,,
sequence,flow.Sequence,4_61,2023-09-16T02:35:29.828Z,,0,,,3694.734000000055,completion,,,,,false,,,,628957.3,628956.8,625243.593,625257.4000000001,625262.066,628965.51,8,400,,,
trial,html.Screen,4_62_0,2023-09-16T02:35:33.304Z,,0,2,,3467.690000000177,response,ISIC_7100755.JPG,5,ISIC_0065449.JPG,ISIC_7100755.JPG,false,1,keypress(m),500,632433.5,632433.2000000002,628939.856,628957.6000000001,628965.51,632449.229,8,400,13,,ISIC_0065449.JPG
break,html.Screen,4_62_1,2023-09-16T02:35:33.305Z,,0,,,NaN,,,,,,false,,,,632434.9000000001,632434.6000000001,,632433.9000000001,,632449.229,8,400,,,
break_continue,html.Screen,4_62_2,2023-09-16T02:35:33.306Z,,0,,,NaN,,,,,,false,,,,632435.5,632435.4000000001,,632435.1000000001,,632449.229,8,400,,,
sequence,flow.Sequence,4_62,2023-09-16T02:35:33.306Z,,0,,,3469.8900000001304,completion,,,,,false,,,,632435.9000000001,632435.4000000001,628939.856,628957.5,628965.51,632449.229,8,400,,,
trial,html.Screen,4_63_0,2023-09-16T02:35:37.203Z,,0,2,,3882.2709999999497,response,ISIC_0034012.JPG,5,ISIC_0034094.JPG,ISIC_0034012.JPG,false,1,keypress(m),500,636331.8,636331.5,632433.46,632436.1000000001,632449.229,636343.693,8,400,14,,ISIC_0034094.JPG
break,html.Screen,4_63_1,2023-09-16T02:35:37.204Z,,0,,,NaN,,,,,,false,,,,636333.3,636332.8,,636332.2000000002,,636343.693,8,400,,,
break_continue,html.Screen,4_63_2,2023-09-16T02:35:37.205Z,,0,,,NaN,,,,,,false,,,,636333.9000000001,636333.7000000002,,636333.5,,636343.693,8,400,,,
sequence,flow.Sequence,4_63,2023-09-16T02:35:37.205Z,,0,,,3884.471000000136,completion,,,,,false,,,,636334.3,636333.7000000002,632433.46,632436.1000000001,632449.229,636343.693,8,400,,,
trial,html.Screen,4_64_0,2023-09-16T02:35:43.560Z,,0,2,,6345.007000000216,response,ISIC_0659400.JPG,5,ISIC_5539001.JPG,ISIC_5539001.JPG,false,0,keypress(z),500,642688.9000000001,642688.7000000002,636325.778,636334.5,636343.693,642704.318,8,400,15,,ISIC_0659400.JPG
break,html.Screen,4_64_1,2023-09-16T02:35:43.561Z,,0,,,NaN,,,,,,false,,,,642690,642689.8,,642689.3,,642704.318,8,400,,,
break_continue,html.Screen,4_64_2,2023-09-16T02:35:43.561Z,,0,,,NaN,,,,,,false,,,,642690.4000000001,642690.3,,642690.1000000001,,642704.318,8,400,,,
sequence,flow.Sequence,4_64,2023-09-16T02:35:43.562Z,,0,,,6346.607000000076,completion,,,,,false,,,,642690.6000000001,642690.3,636325.778,636334.5,636343.693,642704.318,8,400,,,
trial,html.Screen,4_65_0,2023-09-16T02:35:49.500Z,,0,2,,5924.5820000001695,response,ISIC_0060397.JPG,5,ISIC_0029050.JPG,ISIC_0060397.JPG,false,1,keypress(m),500,648629.2000000002,648628.9000000001,642684.364,642690.7000000002,642704.318,648636.372,8,400,16,,ISIC_0029050.JPG
break,html.Screen,4_65_1,2023-09-16T02:35:49.501Z,,0,,,NaN,,,,,,false,,,,648630.4000000001,648630.1000000001,,648629.5,,648636.372,8,400,,,
break_continue,html.Screen,4_65_2,2023-09-16T02:35:49.502Z,,0,,,NaN,,,,,,false,,,,648631.1000000001,648630.9000000001,,648630.7000000002,,648636.372,8,400,,,
sequence,flow.Sequence,4_65,2023-09-16T02:35:49.502Z,,0,,,5926.5820000001695,completion,,,,,false,,,,648631.3,648630.9000000001,642684.364,642690.7000000002,642704.318,648636.372,8,400,,,
trial,html.Screen,4_66_0,2023-09-16T02:35:53.719Z,,0,2,,4211.228000000119,response,ISIC_9161898.JPG,5,ISIC_0026369.JPG,ISIC_9161898.JPG,false,1,keypress(m),500,652848,652847.6000000001,648629.203,648631.5,648636.372,652860.844,8,400,17,,ISIC_0026369.JPG
break,html.Screen,4_66_1,2023-09-16T02:35:53.720Z,,0,,,NaN,,,,,,false,,,,652849.1000000001,652848.8,,652848.3,,652860.844,8,400,,,
break_continue,html.Screen,4_66_2,2023-09-16T02:35:53.721Z,,0,,,NaN,,,,,,false,,,,652849.7000000002,652849.5,,652849.4000000001,,652860.844,8,400,,,
sequence,flow.Sequence,4_66,2023-09-16T02:35:53.721Z,,0,,,4213.128000000026,completion,,,,,false,,,,652850,652849.5,648629.203,648631.5,648636.372,652860.844,8,400,,,
trial,html.Screen,4_67_0,2023-09-16T02:35:59.660Z,,0,2,,5928.155999999959,response,ISIC_5240387.JPG,7,ISIC_0068633.JPG,ISIC_0068633.JPG,false,0,keypress(z),500,658789.1000000001,658789,652844.208,652850.2000000002,652860.844,658791.038,8,400,18,,ISIC_5240387.JPG
break,html.Screen,4_67_1,2023-09-16T02:35:59.661Z,,0,,,NaN,,,,,,false,,,,658789.7000000002,658789.5,,658789.3,,658791.038,8,400,,,
break_continue,html.Screen,4_67_2,2023-09-16T02:35:59.661Z,,0,,,NaN,,,,,,false,,,,658790,658789.9000000001,,658789.8,,658791.038,8,400,,,
sequence,flow.Sequence,4_67,2023-09-16T02:35:59.661Z,,0,,,5929.056000000099,completion,,,,,false,,,,658790.1000000001,658789.9000000001,652844.208,652850.1000000001,652860.844,658791.038,8,400,,,
trial,html.Screen,4_68_0,2023-09-16T02:36:02.769Z,,0,2,,3106.4620000000577,response,ISIC_0063845.JPG,6,ISIC_0057881.JPG,ISIC_0063845.JPG,false,1,keypress(m),500,661898,661897.5,658774.499,658790.2000000002,658791.038,661900.279,8,400,19,,ISIC_0057881.JPG
break,html.Screen,4_68_1,2023-09-16T02:36:02.770Z,,0,,,NaN,,,,,,false,,,,661899.2000000002,661898.8,,661898.3,,661900.279,8,400,,,
break_continue,html.Screen,4_68_2,2023-09-16T02:36:02.771Z,,0,,,NaN,,,,,,false,,,,661900,661899.7000000002,,661899.5,,661900.279,8,400,,,
sequence,flow.Sequence,4_68,2023-09-16T02:36:02.771Z,,0,,,3108.662000000244,completion,,,,,false,,,,661900.4000000001,661899.7000000002,658774.499,658790.1000000001,658791.038,661900.279,8,400,,,
trial,html.Screen,4_69_0,2023-09-16T02:36:07.206Z,,0,2,,4434.121000000159,response,ISIC_4033676.JPG,6,ISIC_4154293.JPG,ISIC_4154293.JPG,false,0,keypress(z),500,666334.7000000002,666334.4000000001,661894.719,661900.7000000002,661900.279,666341.824,8,400,20,,ISIC_4033676.JPG
break,html.Screen,4_69_1,2023-09-16T02:36:07.207Z,,0,,,NaN,,,,,,false,,,,666336,666335.7000000002,,666335,,666341.824,8,400,,,
break_continue,html.Screen,4_69_2,2023-09-16T02:36:07.207Z,,0,,,NaN,,,,,,false,,,,666336.6000000001,666336.4000000001,,666336.2000000002,,666341.824,8,400,,,
sequence,flow.Sequence,4_69,2023-09-16T02:36:07.208Z,,0,,,4436.121000000159,completion,,,,,false,,,,666336.8,666336.4000000001,661894.719,661900.6000000001,661900.279,666341.824,8,400,,,
trial,html.Screen,4_70_0,2023-09-16T02:36:11.968Z,,0,2,,4754.675999999978,response,ISIC_0030592.JPG,5,ISIC_0011943.JPG,ISIC_0011943.JPG,false,0,keypress(z),500,671096.9000000001,671096.5,666322.159,666337,666341.824,671104.047,8,400,21,,ISIC_0030592.JPG
break,html.Screen,4_70_1,2023-09-16T02:36:11.969Z,,0,,,NaN,,,,,,false,,,,671098.3,671098,,671097.2000000002,,671104.047,8,400,,,
break_continue,html.Screen,4_70_2,2023-09-16T02:36:11.970Z,,0,,,NaN,,,,,,false,,,,671098.9000000001,671098.7000000002,,671098.5,,671104.047,8,400,,,
sequence,flow.Sequence,4_70,2023-09-16T02:36:11.970Z,,0,,,4756.876000000164,completion,,,,,false,,,,671099.3,671098.7000000002,666322.159,666337,666341.824,671104.047,8,400,,,
trial,html.Screen,4_71_0,2023-09-16T02:36:16.281Z,,0,2,,4305.653000000166,response,ISIC_0010912.JPG,5,ISIC_9332795.JPG,ISIC_9332795.JPG,false,0,keypress(z),500,675410.1000000001,675409.7000000002,671083.889,671099.6000000001,671104.047,675421.287,8,400,22,,ISIC_0010912.JPG
break,html.Screen,4_71_1,2023-09-16T02:36:16.282Z,,0,,,NaN,,,,,,false,,,,675411.2000000002,675411,,675410.4000000001,,675421.287,8,400,,,
break_continue,html.Screen,4_71_2,2023-09-16T02:36:16.283Z,,0,,,NaN,,,,,,false,,,,675411.9000000001,675411.8,,675411.6000000001,,675421.287,8,400,,,
sequence,flow.Sequence,4_71,2023-09-16T02:36:16.283Z,,0,,,4307.753000000026,completion,,,,,false,,,,675412.2000000002,675411.8,671083.889,671099.5,671104.047,675421.287,8,400,,,
trial,html.Screen,4_72_0,2023-09-16T02:36:20.176Z,,0,2,,3883.5130000000354,response,ISIC_0641480.JPG,6,ISIC_0552911.JPG,ISIC_0641480.JPG,false,1,keypress(m),500,679305.2000000002,679304.8,675407.263,675412.4000000001,675421.287,679316.985,8,400,23,,ISIC_0552911.JPG
break,html.Screen,4_72_1,2023-09-16T02:36:20.178Z,,0,,,NaN,,,,,,false,,,,679306.8,679306.4000000001,,679305.8,,679316.985,8,400,,,
break_continue,html.Screen,4_72_2,2023-09-16T02:36:20.178Z,,0,,,NaN,,,,,,false,,,,679307.3,679307.1000000001,,679306.9000000001,,679316.985,8,400,,,
sequence,flow.Sequence,4_72,2023-09-16T02:36:20.178Z,,0,,,3885.813000000082,completion,,,,,false,,,,679307.5,679307.1000000001,675407.263,675412.4000000001,675421.287,679316.985,8,400,,,
trial,html.Screen,4_73_0,2023-09-16T02:36:24.234Z,,0,2,,4045.3150000000605,response,ISIC_5837098.JPG,4,ISIC_0064240.JPG,ISIC_5837098.JPG,false,1,keypress(m),500,683362.7000000002,683362.3,679299.441,679307.8,679316.985,683375.117,8,400,24,,ISIC_0064240.JPG
break,html.Screen,4_73_1,2023-09-16T02:36:24.235Z,,0,,,NaN,,,,,,false,,,,683363.8,683363.6000000001,,683363,,683375.117,8,400,,,
break_continue,html.Screen,4_73_2,2023-09-16T02:36:24.235Z,,0,,,NaN,,,,,,false,,,,683364.4000000001,683364.2000000002,,683364,,683375.117,8,400,,,
sequence,flow.Sequence,4_73,2023-09-16T02:36:24.236Z,,0,,,4047.2150000002002,completion,,,,,false,,,,683364.7000000002,683364.2000000002,679299.441,679307.7000000002,679316.985,683375.117,8,400,,,
trial,html.Screen,4_74_0,2023-09-16T02:36:27.806Z,,0,2,,3559.6830000000773,response,ISIC_2520840.JPG,5,ISIC_5382189.JPG,ISIC_5382189.JPG,false,0,keypress(z),500,686935.1000000001,686934.8,683355.703,683364.9000000001,683375.117,686941.811,8,400,25,,ISIC_2520840.JPG
break,html.Screen,4_74_1,2023-09-16T02:36:27.807Z,,0,,,NaN,,,,,,false,,,,686936,686935.7000000002,,686935.3,,686941.811,8,400,,,
break_continue,html.Screen,4_74_2,2023-09-16T02:36:27.807Z,,0,,,NaN,,,,,,false,,,,686936.3,686936.2000000002,,686936.1000000001,,686941.811,8,400,,,
sequence,flow.Sequence,4_74,2023-09-16T02:36:27.807Z,,0,,,3561.083000000217,completion,,,,,false,,,,686936.5,686936.2000000002,683355.703,683364.8,683375.117,686941.811,8,400,,,
trial,html.Screen,4_75_0,2023-09-16T02:36:34.230Z,,0,2,,6416.48900000006,response,ISIC_0034092.JPG,5,ISIC_0011125.JPG,ISIC_0011125.JPG,false,0,keypress(z),500,693358.7000000002,693358.3,686933.085,686936.6000000001,686941.811,693383.602,8,400,26,,ISIC_0034092.JPG
break,html.Screen,4_75_1,2023-09-16T02:36:34.231Z,,0,,,NaN,,,,,,false,,,,693359.8,693359.6000000001,,693359,,693383.602,8,400,,,
break_continue,html.Screen,4_75_2,2023-09-16T02:36:34.231Z,,0,,,NaN,,,,,,false,,,,693360.5,693360.3,,693360,,693383.602,8,400,,,
sequence,flow.Sequence,4_75,2023-09-16T02:36:34.232Z,,0,,,6418.48900000006,completion,,,,,false,,,,693360.8,693360.3,686933.085,686936.6000000001,686941.811,693383.602,8,400,,,
trial,html.Screen,4_76_0,2023-09-16T02:36:38.574Z,,0,2,,4319.598000000231,response,ISIC_0032988.JPG,5,ISIC_0000240.JPG,ISIC_0000240.JPG,false,0,keypress(z),500,697703.5,697703.2000000002,693366.971,693360.9000000001,693383.602,697710.644,8,400,27,,ISIC_0032988.JPG
break,html.Screen,4_76_1,2023-09-16T02:36:38.576Z,,0,,,NaN,,,,,,false,,,,697704.8,697704.5,,697703.9000000001,,697710.644,8,400,,,
break_continue,html.Screen,4_76_2,2023-09-16T02:36:38.576Z,,0,,,NaN,,,,,,false,,,,697705.4000000001,697705.1000000001,,697705,,697710.644,8,400,,,
sequence,flow.Sequence,4_76,2023-09-16T02:36:38.577Z,,0,,,4321.498000000138,completion,,,,,false,,,,697705.9000000001,697705.1000000001,693366.971,693360.8,693383.602,697710.644,8,400,,,
trial,html.Screen,4_77_0,2023-09-16T02:36:43.412Z,,0,2,,4829.856000000029,response,ISIC_0032546.JPG,5,ISIC_5005253.JPG,ISIC_0032546.JPG,false,1,keypress(m),500,702541.1000000001,702540.5,697691.374,697706.1000000001,697710.644,702548.088,8,400,28,,ISIC_5005253.JPG
break,html.Screen,4_77_1,2023-09-16T02:36:43.413Z,,0,,,NaN,,,,,,false,,,,702542.6000000001,702542,,702541.4000000001,,702548.088,8,400,,,
break_continue,html.Screen,4_77_2,2023-09-16T02:36:43.414Z,,0,,,NaN,,,,,,false,,,,702543.2000000002,702543.1000000001,,702542.8,,702548.088,8,400,,,
sequence,flow.Sequence,4_77,2023-09-16T02:36:43.414Z,,0,,,4832.456000000122,completion,,,,,false,,,,702543.5,702543.1000000001,697691.374,697706,697710.644,702548.088,8,400,,,
trial,html.Screen,4_78_0,2023-09-16T02:36:46.729Z,,0,2,,3310.0120000001043,response,ISIC_0027321.JPG,4,ISIC_3989526.JPG,ISIC_3989526.JPG,false,0,keypress(z),500,705858.4000000001,705858.1000000001,702538.044,702543.7000000002,702548.088,705864.179,8,400,29,,ISIC_0027321.JPG
break,html.Screen,4_78_1,2023-09-16T02:36:46.730Z,,0,,,NaN,,,,,,false,,,,705859.6000000001,705859.3,,705858.7000000002,,705864.179,8,400,,,
break_continue,html.Screen,4_78_2,2023-09-16T02:36:46.731Z,,0,,,NaN,,,,,,false,,,,705860.2000000002,705859.9000000001,,705859.7000000002,,705864.179,8,400,,,
sequence,flow.Sequence,4_78,2023-09-16T02:36:46.731Z,,0,,,3311.812000000151,completion,,,,,false,,,,705860.4000000001,705859.9000000001,702538.044,702543.7000000002,702548.088,705864.179,8,400,,,
trial,html.Screen,4_79_0,2023-09-16T02:36:52.563Z,,0,2,,5827.921000000089,response,ISIC_8382969.JPG,5,ISIC_4838916.JPG,ISIC_4838916.JPG,false,0,keypress(z),500,711692.5,711692.1000000001,705848.726,705860.6000000001,705864.179,711709.865,8,400,30,,ISIC_8382969.JPG
break,html.Screen,4_79_1,2023-09-16T02:36:52.565Z,,0,,,NaN,,,,,,false,,,,711693.9000000001,711693.5,,711692.8,,711709.865,8,400,,,
break_continue,html.Screen,4_79_2,2023-09-16T02:36:52.565Z,,0,,,NaN,,,,,,false,,,,711694.6000000001,711694.4000000001,,711694.1000000001,,711709.865,8,400,,,
sequence,flow.Sequence,4_79,2023-09-16T02:36:52.566Z,,0,,,5830.221000000136,completion,,,,,false,,,,711694.8,711694.4000000001,705848.726,705860.6000000001,705864.179,711709.865,8,400,,,
trial,html.Screen,4_80_0,2023-09-16T02:36:58.361Z,,0,2,,5779.735000000102,response,ISIC_2143002.JPG,5,ISIC_0028612.JPG,ISIC_2143002.JPG,false,1,keypress(m),500,717489.8,717489.6000000001,711687.36,711695.1000000001,711709.865,717496.22,8,400,31,,ISIC_0028612.JPG
break,html.Screen,4_80_1,2023-09-16T02:36:58.361Z,,0,,,NaN,,,,,,false,,,,717490.5,717490.3,,717490,,717496.22,8,400,,,
break_continue,html.Screen,4_80_2,2023-09-16T02:36:58.362Z,,0,,,NaN,,,,,,false,,,,717491,717491,,717490.9000000001,,717496.22,8,400,,,
sequence,flow.Sequence,4_80,2023-09-16T02:36:58.362Z,,0,,,5781.135000000009,completion,,,,,false,,,,717491.2000000002,717491,711687.36,711695.1000000001,711709.865,717496.22,8,400,,,
trial,html.Screen,4_81_0,2023-09-16T02:37:03.596Z,,0,2,,5228.380000000121,response,ISIC_0028175.JPG,5,ISIC_0024952.JPG,ISIC_0028175.JPG,false,1,keypress(m),500,722724.8,722724.6000000001,717474.256,717491.2000000002,717496.22,722740.487,8,400,32,,ISIC_0024952.JPG
break,html.Screen,4_81_1,2023-09-16T02:37:03.596Z,,0,,,NaN,,,,,,false,,,,722725.6000000001,722725.5,,722725.1000000001,,722740.487,8,400,,,
break_continue,html.Screen,4_81_2,2023-09-16T02:37:03.597Z,,0,,,NaN,,,,,,false,,,,722725.9000000001,722725.8,,722725.7000000002,,722740.487,8,400,,,
sequence,flow.Sequence,4_81,2023-09-16T02:37:03.597Z,,0,,,5229.5800000000745,completion,,,,,false,,,,722726,722725.8,717474.256,717491.2000000002,717496.22,722740.487,8,400,,,
trial,html.Screen,4_82_0,2023-09-16T02:37:09.951Z,,0,2,,6339.6130000001285,response,ISIC_0028071.JPG,6,ISIC_0024527.JPG,ISIC_0028071.JPG,false,1,keypress(m),500,729080.4000000001,729080.1000000001,722723.881,722726.1000000001,722740.487,729087.502,8,400,33,,ISIC_0024527.JPG
break,html.Screen,4_82_1,2023-09-16T02:37:09.952Z,,0,,,NaN,,,,,,false,,,,729081.6000000001,729081.3,,729080.7000000002,,729087.502,8,400,,,
break_continue,html.Screen,4_82_2,2023-09-16T02:37:09.953Z,,0,,,NaN,,,,,,false,,,,729082.3,729082.1000000001,,729081.9000000001,,729087.502,8,400,,,
sequence,flow.Sequence,4_82,2023-09-16T02:37:09.953Z,,0,,,6341.6130000001285,completion,,,,,false,,,,729082.5,729082.1000000001,722723.881,722726.1000000001,722740.487,729087.502,8,400,,,
trial,html.Screen,4_83_0,2023-09-16T02:37:14.709Z,,0,2,,4750.098000000115,response,ISIC_2739449.JPG,5,ISIC_8338755.JPG,ISIC_8338755.JPG,false,0,keypress(z),500,733837.9000000001,733837.6000000001,729065.824,729083,729087.502,733845.035,8,400,34,,ISIC_2739449.JPG
break,html.Screen,4_83_1,2023-09-16T02:37:14.711Z,,0,,,NaN,,,,,,false,,,,733839.7000000002,733839,,733838.2000000002,,733845.035,8,400,,,
break_continue,html.Screen,4_83_2,2023-09-16T02:37:14.711Z,,0,,,NaN,,,,,,false,,,,733840.4000000001,733840.1000000001,,733840,,733845.035,8,400,,,
sequence,flow.Sequence,4_83,2023-09-16T02:37:14.711Z,,0,,,4752.598000000115,completion,,,,,false,,,,733840.6000000001,733840.1000000001,729065.824,729082.9000000001,729087.502,733845.035,8,400,,,
trial,html.Screen,4_84_0,2023-09-16T02:37:18.939Z,,0,2,,4222.464999999967,response,ISIC_4553633.JPG,4,ISIC_8108090.JPG,ISIC_4553633.JPG,false,1,keypress(m),500,738067.9000000001,738067.5,733823.603,733840.7000000002,733845.035,738075.107,8,400,35,,ISIC_8108090.JPG
break,html.Screen,4_84_1,2023-09-16T02:37:18.940Z,,0,,,NaN,,,,,,false,,,,738069.5,738069.2000000002,,738068.3,,738075.107,8,400,,,
break_continue,html.Screen,4_84_2,2023-09-16T02:37:18.941Z,,0,,,NaN,,,,,,false,,,,738070.2000000002,738069.9000000001,,738069.7000000002,,738075.107,8,400,,,
sequence,flow.Sequence,4_84,2023-09-16T02:37:18.941Z,,0,,,4224.865000000107,completion,,,,,false,,,,738070.4000000001,738069.9000000001,733823.603,733840.7000000002,733845.035,738075.107,8,400,,,
trial,html.Screen,4_85_0,2023-09-16T02:37:22.144Z,,0,2,,3197.7930000001797,response,ISIC_1736735.JPG,5,ISIC_3844404.JPG,ISIC_1736735.JPG,false,1,keypress(m),500,741273.2000000002,741272.9000000001,738056.476,738070.6000000001,738075.107,741286.918,8,400,36,,ISIC_3844404.JPG
break,html.Screen,4_85_1,2023-09-16T02:37:22.145Z,,0,,,NaN,,,,,,false,,,,741274.3,741274.1000000001,,741273.5,,741286.918,8,400,,,
break_continue,html.Screen,4_85_2,2023-09-16T02:37:22.146Z,,0,,,NaN,,,,,,false,,,,741274.9000000001,741274.7000000002,,741274.6000000001,,741286.918,8,400,,,
sequence,flow.Sequence,4_85,2023-09-16T02:37:22.146Z,,0,,,3199.5930000002263,completion,,,,,false,,,,741275.1000000001,741274.7000000002,738056.476,738070.6000000001,738075.107,741286.918,8,400,,,
trial,html.Screen,4_86_0,2023-09-16T02:37:25.604Z,,0,2,,3445.8820000000997,response,ISIC_0058016.JPG,5,ISIC_0011437.JPG,ISIC_0011437.JPG,false,0,keypress(z),500,744733.3,744732.8,741266.148,741275.3,741286.918,744741.593,8,400,37,,ISIC_0058016.JPG
break,html.Screen,4_86_1,2023-09-16T02:37:25.606Z,,0,,,NaN,,,,,,false,,,,744734.7000000002,744734.3,,744733.7000000002,,744741.593,8,400,,,
break_continue,html.Screen,4_86_2,2023-09-16T02:37:25.606Z,,0,,,NaN,,,,,,false,,,,744735.2000000002,744735.1000000001,,744734.9000000001,,744741.593,8,400,,,
sequence,flow.Sequence,4_86,2023-09-16T02:37:25.606Z,,0,,,3448.182000000146,completion,,,,,false,,,,744735.2000000002,744735.1000000001,741266.148,741275.3,741286.918,744741.593,8,400,,,
trial,html.Screen,4_87_0,2023-09-16T02:37:30.366Z,,0,2,,4753.5070000001,response,ISIC_4596803.JPG,4,ISIC_7327423.JPG,ISIC_4596803.JPG,false,1,keypress(m),500,749495.6000000001,749495.1000000001,744733.595,744735.4000000001,744741.593,749500.908,8,400,38,,ISIC_7327423.JPG
break,html.Screen,4_87_1,2023-09-16T02:37:30.368Z,,0,,,NaN,,,,,,false,,,,749497.2000000002,749496.6000000001,,749495.9000000001,,749500.908,8,400,,,
break_continue,html.Screen,4_87_2,2023-09-16T02:37:30.369Z,,0,,,NaN,,,,,,false,,,,749497.8,749497.6000000001,,749497.4000000001,,749500.908,8,400,,,
sequence,flow.Sequence,4_87,2023-09-16T02:37:30.369Z,,0,,,4756.0070000001,completion,,,,,false,,,,749498.1000000001,749497.6000000001,744733.595,744735.4000000001,744741.593,749500.908,8,400,,,
trial,html.Screen,4_88_0,2023-09-16T02:37:36.084Z,,0,2,,5712.292000000132,response,ISIC_9462738.JPG,5,ISIC_9470020.JPG,ISIC_9470020.JPG,false,0,keypress(z),500,755213.6000000001,755213.2000000002,749481.185,749498.5,749500.908,755220.851,8,400,39,,ISIC_9462738.JPG
break,html.Screen,4_88_1,2023-09-16T02:37:36.086Z,,0,,,NaN,,,,,,false,,,,755215,755214.6000000001,,755214,,755220.851,8,400,,,
break_continue,html.Screen,4_88_2,2023-09-16T02:37:36.086Z,,0,,,NaN,,,,,,false,,,,755215.6000000001,755215.4000000001,,755215.1000000001,,755220.851,8,400,,,
sequence,flow.Sequence,4_88,2023-09-16T02:37:36.087Z,,0,,,5714.492000000086,completion,,,,,false,,,,755215.9000000001,755215.4000000001,749481.185,749498.4000000001,749500.908,755220.851,8,400,,,
trial,html.Screen,4_89_0,2023-09-16T02:37:42.157Z,,0,2,,6065.0490000001155,response,ISIC_7682938.JPG,5,ISIC_0031821.JPG,ISIC_7682938.JPG,false,1,keypress(m),500,761286.4000000001,761285.9000000001,755209.384,755216.2000000002,755220.851,761293.592,8,400,40,,ISIC_0031821.JPG
break,html.Screen,4_89_1,2023-09-16T02:37:42.159Z,,0,,,NaN,,,,,,false,,,,761287.7000000002,761287.4000000001,,761286.7000000002,,761293.592,8,400,,,
break_continue,html.Screen,4_89_2,2023-09-16T02:37:42.159Z,,0,,,NaN,,,,,,false,,,,761288.4000000001,761288.2000000002,,761287.9000000001,,761293.592,8,400,,,
sequence,flow.Sequence,4_89,2023-09-16T02:37:42.160Z,,0,,,6067.349000000162,completion,,,,,false,,,,761288.7000000002,761288.2000000002,755209.384,755216.1000000001,755220.851,761293.592,8,400,,,
trial,html.Screen,4_90_0,2023-09-16T02:37:45.656Z,,0,2,,3491.408000000054,response,ISIC_0076742.JPG,5,ISIC_5614300.JPG,ISIC_0076742.JPG,false,1,keypress(m),500,764785.5,764785,761274.429,761288.9000000001,761293.592,764803.673,8,400,41,,ISIC_5614300.JPG
break,html.Screen,4_90_1,2023-09-16T02:37:45.658Z,,0,,,NaN,,,,,,false,,,,764787,764786.5,,764785.8,,764803.673,8,400,,,
break_continue,html.Screen,4_90_2,2023-09-16T02:37:45.658Z,,0,,,NaN,,,,,,false,,,,764787.7000000002,764787.4000000001,,764787.2000000002,,764803.673,8,400,,,
sequence,flow.Sequence,4_90,2023-09-16T02:37:45.659Z,,0,,,3493.8080000001937,completion,,,,,false,,,,764787.9000000001,764787.4000000001,761274.429,761288.9000000001,761293.592,764803.673,8,400,,,
trial,html.Screen,4_91_0,2023-09-16T02:37:51.742Z,,0,2,,6066.927000000142,response,ISIC_2545299.JPG,6,ISIC_6445453.JPG,ISIC_2545299.JPG,false,1,keypress(m),500,770870.7000000002,770870.6000000001,764778.512,764788.2000000002,764803.673,770883.27,8,400,42,,ISIC_6445453.JPG
break,html.Screen,4_91_1,2023-09-16T02:37:51.742Z,,0,,,NaN,,,,,,false,,,,770871.1000000001,770871,,770870.8,,770883.27,8,400,,,
break_continue,html.Screen,4_91_2,2023-09-16T02:37:51.742Z,,0,,,NaN,,,,,,false,,,,770871.2000000002,770871.2000000002,,770871.1000000001,,770883.27,8,400,,,
sequence,flow.Sequence,4_91,2023-09-16T02:37:51.742Z,,0,,,6067.527000000235,completion,,,,,false,,,,770871.3,770871.2000000002,764778.512,764788.1000000001,764803.673,770883.27,8,400,,,
trial,html.Screen,4_92_0,2023-09-16T02:37:59.095Z,,0,2,,7340.930000000168,response,ISIC_0029106.JPG,5,ISIC_7144739.JPG,ISIC_7144739.JPG,false,0,keypress(z),500,778224.5,778224.2000000002,770856.481,770871.4000000001,770883.27,778229.063,8,400,43,,ISIC_0029106.JPG
break,html.Screen,4_92_1,2023-09-16T02:37:59.096Z,,0,,,NaN,,,,,,false,,,,778224.9000000001,778224.8,,778224.6000000001,,778229.063,8,400,,,
break_continue,html.Screen,4_92_2,2023-09-16T02:37:59.096Z,,0,,,NaN,,,,,,false,,,,778225.2000000002,778225.1000000001,,778225.1000000001,,778229.063,8,400,,,
sequence,flow.Sequence,4_92,2023-09-16T02:37:59.096Z,,0,,,7341.8300000000745,completion,,,,,false,,,,778225.4000000001,778225.1000000001,770856.481,770871.4000000001,770883.27,778229.063,8,400,,,
trial,html.Screen,4_93_0,2023-09-16T02:38:03.520Z,,0,2,,4419.836999999941,response,ISIC_7748144.JPG,5,ISIC_0067621.JPG,ISIC_7748144.JPG,false,1,keypress(m),500,782649,782648.8999999999,778212.35,778225.4000000001,778229.063,782657.471,8,400,44,,ISIC_0067621.JPG
break,html.Screen,4_93_1,2023-09-16T02:38:03.520Z,,0,,,NaN,,,,,,false,,,,782649.5,782649.3000000003,,782649.1000000001,,782657.471,8,400,,,
break_continue,html.Screen,4_93_2,2023-09-16T02:38:03.521Z,,0,,,NaN,,,,,,false,,,,782649.8000000003,782649.7000000002,,782649.6000000001,,782657.471,8,400,,,
sequence,flow.Sequence,4_93,2023-09-16T02:38:03.521Z,,0,,,4420.637000000221,completion,,,,,false,,,,782649.8999999999,782649.7000000002,778212.35,778225.4000000001,778229.063,782657.471,8,400,,,
trial,html.Screen,4_94_0,2023-09-16T02:38:08.905Z,,0,2,,5376.729000000167,response,ISIC_3238687.JPG,5,ISIC_3552318.JPG,ISIC_3552318.JPG,false,0,keypress(z),500,788034.3999999999,788034.2000000002,782637.562,782649.8999999999,782657.471,788039.901,8,400,45,,ISIC_3238687.JPG
break,html.Screen,4_94_1,2023-09-16T02:38:08.906Z,,0,,,NaN,,,,,,false,,,,788034.8999999999,788034.7000000002,,788034.5,,788039.901,8,400,,,
break_continue,html.Screen,4_94_2,2023-09-16T02:38:08.906Z,,0,,,NaN,,,,,,false,,,,788035.2000000002,788035.1000000001,,788035,,788039.901,8,400,,,
sequence,flow.Sequence,4_94,2023-09-16T02:38:08.906Z,,0,,,5377.629000000074,completion,,,,,false,,,,788035.3000000003,788035.1000000001,782637.562,782649.8999999999,782657.471,788039.901,8,400,,,
trial,html.Screen,4_95_0,2023-09-16T02:38:16.478Z,,0,2,,7566.9989999999525,response,ISIC_3601224.JPG,6,ISIC_1700051.JPG,ISIC_3601224.JPG,false,1,keypress(m),500,795607.3000000003,795606.8999999999,788032.406,788035.3000000003,788039.901,795614.349,8,400,46,,ISIC_1700051.JPG
break,html.Screen,4_95_1,2023-09-16T02:38:16.480Z,,0,,,NaN,,,,,,false,,,,795609.1000000001,795608.3999999999,,795607.7000000002,,795614.349,8,400,,,
break_continue,html.Screen,4_95_2,2023-09-16T02:38:16.481Z,,0,,,NaN,,,,,,false,,,,795609.8999999999,795609.5,,795609.3000000003,,795614.349,8,400,,,
sequence,flow.Sequence,4_95,2023-09-16T02:38:16.481Z,,0,,,7569.599000000046,completion,,,,,false,,,,795610.2000000002,795609.5,788032.406,788035.3000000003,788039.901,795614.349,8,400,,,
trial,html.Screen,4_96_0,2023-09-16T02:38:20.195Z,,0,2,,3709.8510000001406,response,ISIC_0024527.JPG,4,ISIC_0033689.JPG,ISIC_0033689.JPG,false,0,keypress(z),500,799324.6000000001,799324.2000000002,795595.701,795610.3999999999,795614.349,799331.639,8,400,47,,ISIC_0024527.JPG
break,html.Screen,4_96_1,2023-09-16T02:38:20.197Z,,0,,,NaN,,,,,,false,,,,799325.7000000002,799325.3999999999,,799324.8999999999,,799331.639,8,400,,,
break_continue,html.Screen,4_96_2,2023-09-16T02:38:20.197Z,,0,,,NaN,,,,,,false,,,,799326.3000000003,799326.1000000001,,799326,,799331.639,8,400,,,
sequence,flow.Sequence,4_96,2023-09-16T02:38:20.197Z,,0,,,3711.7510000000475,completion,,,,,false,,,,799326.6000000001,799326.1000000001,795595.701,795610.3000000003,795614.349,799331.639,8,400,,,
trial,html.Screen,4_97_0,2023-09-16T02:38:26.911Z,,0,2,,6708.461000000127,response,ISIC_0031843.JPG,5,ISIC_7664137.JPG,ISIC_0031843.JPG,false,1,keypress(m),500,806040.3999999999,806040.1000000001,799321.75,799326.7000000002,799331.639,806056.285,8,400,48,,ISIC_7664137.JPG
break,html.Screen,4_97_1,2023-09-16T02:38:26.912Z,,0,,,NaN,,,,,,false,,,,806041.6000000001,806041.3000000003,,806040.7000000002,,806056.285,8,400,,,
break_continue,html.Screen,4_97_2,2023-09-16T02:38:26.913Z,,0,,,NaN,,,,,,false,,,,806042.3000000003,806042.1000000001,,806041.8999999999,,806056.285,8,400,,,
sequence,flow.Sequence,4_97,2023-09-16T02:38:26.913Z,,0,,,6710.461000000127,completion,,,,,false,,,,806042.6000000001,806042.1000000001,799321.75,799326.7000000002,799331.639,806056.285,8,400,,,
trial,html.Screen,4_98_0,2023-09-16T02:38:31.477Z,,0,2,,4549.3150000000605,response,ISIC_0032426.JPG,4,ISIC_0009230.JPG,ISIC_0032426.JPG,false,1,keypress(m),500,810605.8999999999,810605.6000000001,806041.071,806042.8000000003,806056.285,810618.826,8,400,49,,ISIC_0009230.JPG
break,html.Screen,4_98_1,2023-09-16T02:38:31.477Z,,0,,,NaN,,,,,,false,,,,810606.6000000001,810606.3999999999,,810606,,810618.826,8,400,,,
break_continue,html.Screen,4_98_2,2023-09-16T02:38:31.478Z,,0,,,NaN,,,,,,false,,,,810606.8999999999,810606.7000000002,,810606.6000000001,,810618.826,8,400,,,
sequence,flow.Sequence,4_98,2023-09-16T02:38:31.478Z,,0,,,4550.415000000154,completion,,,,,false,,,,810607,810606.7000000002,806041.071,806042.7000000002,806056.285,810618.826,8,400,,,
trial,html.Screen,4_99_0,2023-09-16T02:38:35.128Z,,0,2,,3637.774000000092,response,ISIC_4613437.JPG,5,ISIC_0015219.JPG,ISIC_4613437.JPG,false,1,keypress(m),500,814257,814256.6000000001,810605.958,810607.1000000001,810618.826,814264.068,8,400,50,,ISIC_0015219.JPG
break,html.Screen,4_99_1,2023-09-16T02:38:45.127Z,,0,,,10007.369999999995,timeout,,,,,false,,,,824256.1000000001,824254.945,814244.168,814257.3000000003,814264.068,824271.438,8,400,,,
break_continue,html.Screen,4_99_2,2023-09-16T02:38:50.022Z,,0,,,4865.862000000314,response,,,,,false,continue,keypress(Space),,829150.8999999999,829137.3000000003,824254.945,824256.3000000003,824271.438,829157.196,8,400,,,
sequence,flow.Sequence,4_99,2023-09-16T02:38:50.022Z,,0,,,18518.47400000028,completion,,,,,false,,,,829151,829137.3000000003,810605.958,810607.1000000001,810618.826,829157.196,8,400,,,
trial,html.Screen,4_100_0,2023-09-16T02:38:54.904Z,,0,3,,4875.404000000097,response,ISIC_0032447.JPG,5,ISIC_0014233.JPG,ISIC_0032447.JPG,false,1,keypress(m),500,834032.8000000003,834032.6000000001,829149.916,829151.1000000001,829157.196,834049.262,8,400,1,,ISIC_0014233.JPG
break,html.Screen,4_100_1,2023-09-16T02:38:54.904Z,,0,,,NaN,,,,,,false,,,,834033.2000000002,834033.1000000001,,834032.8999999999,,834049.262,8,400,,,
break_continue,html.Screen,4_100_2,2023-09-16T02:38:54.904Z,,0,,,NaN,,,,,,false,,,,834033.5,834033.5,,834033.3999999999,,834049.262,8,400,,,
sequence,flow.Sequence,4_100,2023-09-16T02:38:54.904Z,,0,,,4876.304000000004,completion,,,,,false,,,,834033.7000000002,834033.5,829149.916,829151.1000000001,829157.196,834049.262,8,400,,,
trial,html.Screen,4_101_0,2023-09-16T02:38:59.279Z,,0,3,,4359.338000000105,response,ISIC_0070009.JPG,5,ISIC_0058781.JPG,ISIC_0070009.JPG,false,1,keypress(m),500,838408.7000000002,838408.6000000001,834031.971,834033.8000000003,834049.262,838415.624,8,400,2,,ISIC_0058781.JPG
break,html.Screen,4_101_1,2023-09-16T02:38:59.280Z,,0,,,NaN,,,,,,false,,,,838409.1000000001,838409,,838408.8000000003,,838415.624,8,400,,,
break_continue,html.Screen,4_101_2,2023-09-16T02:38:59.280Z,,0,,,NaN,,,,,,false,,,,838409.3000000003,838409.2000000002,,838409.1000000001,,838415.624,8,400,,,
sequence,flow.Sequence,4_101,2023-09-16T02:38:59.280Z,,0,,,4359.938000000198,completion,,,,,false,,,,838409.3000000003,838409.2000000002,834031.971,834033.7000000002,834049.262,838415.624,8,400,,,
trial,html.Screen,4_102_0,2023-09-16T02:39:03.384Z,,0,3,,4097.3760000000475,response,ISIC_0029933.JPG,5,ISIC_8956001.JPG,ISIC_8956001.JPG,false,0,keypress(z),500,842513.3999999999,842513,838400.156,838409.3999999999,838415.624,842519.61,8,400,3,,ISIC_0029933.JPG
break,html.Screen,4_102_1,2023-09-16T02:39:03.385Z,,0,,,NaN,,,,,,false,,,,842514.7000000002,842514.3999999999,,842513.8000000003,,842519.61,8,400,,,
break_continue,html.Screen,4_102_2,2023-09-16T02:39:03.386Z,,0,,,NaN,,,,,,false,,,,842515.3000000003,842515.1000000001,,842514.8999999999,,842519.61,8,400,,,
sequence,flow.Sequence,4_102,2023-09-16T02:39:03.386Z,,0,,,4099.476000000141,completion,,,,,false,,,,842515.7000000002,842515.1000000001,838400.156,838409.3999999999,838415.624,842519.61,8,400,,,
trial,html.Screen,4_103_0,2023-09-16T02:39:06.981Z,,0,3,,3590.0900000002002,response,ISIC_0027130.JPG,5,ISIC_8814398.JPG,ISIC_8814398.JPG,false,0,keypress(z),500,846110.1000000001,846109.7000000002,842503.667,842515.8999999999,842519.61,846117.318,8,400,4,,ISIC_0027130.JPG
break,html.Screen,4_103_1,2023-09-16T02:39:06.982Z,,0,,,NaN,,,,,,false,,,,846111.3999999999,846111.2000000002,,846110.5,,846117.318,8,400,,,
break_continue,html.Screen,4_103_2,2023-09-16T02:39:06.983Z,,0,,,NaN,,,,,,false,,,,846112,846111.8999999999,,846111.6000000001,,846117.318,8,400,,,
sequence,flow.Sequence,4_103,2023-09-16T02:39:06.983Z,,0,,,3592.289999999921,completion,,,,,false,,,,846112.3999999999,846111.8999999999,842503.667,842515.8000000003,842519.61,846117.318,8,400,,,
trial,html.Screen,4_104_0,2023-09-16T02:39:10.874Z,,0,3,,3885.5819999999367,response,ISIC_9355535.JPG,4,ISIC_4601527.JPG,ISIC_4601527.JPG,false,0,keypress(z),500,850003.3999999999,850002.8999999999,846098.164,846112.7000000002,846117.318,850016.26,8,400,5,,ISIC_9355535.JPG
break,html.Screen,4_104_1,2023-09-16T02:39:10.875Z,,0,,,NaN,,,,,,false,,,,850004.6000000001,850004.3999999999,,850003.6000000001,,850016.26,8,400,,,
break_continue,html.Screen,4_104_2,2023-09-16T02:39:10.876Z,,0,,,NaN,,,,,,false,,,,850005.2000000002,850005,,850004.8000000003,,850016.26,8,400,,,
sequence,flow.Sequence,4_104,2023-09-16T02:39:10.876Z,,0,,,3887.68200000003,completion,,,,,false,,,,850005.6000000001,850005,846098.164,846112.7000000002,846117.318,850016.26,8,400,,,
trial,html.Screen,4_105_0,2023-09-16T02:39:14.462Z,,0,3,,3574.940000000177,response,ISIC_0068627.JPG,5,ISIC_6119208.JPG,ISIC_6119208.JPG,false,0,keypress(z),500,853591.6000000001,853591.2000000002,849995.896,850005.8999999999,850016.26,853599.102,8,400,6,,ISIC_0068627.JPG
break,html.Screen,4_105_1,2023-09-16T02:39:14.464Z,,0,,,NaN,,,,,,false,,,,853593.5,853593.2000000002,,853592,,853599.102,8,400,,,
break_continue,html.Screen,4_105_2,2023-09-16T02:39:14.465Z,,0,,,NaN,,,,,,false,,,,853594.5,853594.1000000001,,853593.7000000002,,853599.102,8,400,,,
sequence,flow.Sequence,4_105,2023-09-16T02:39:14.466Z,,0,,,3577.840000000084,completion,,,,,false,,,,853594.8000000003,853594.1000000001,849995.896,850005.7000000002,850016.26,853599.102,8,400,,,
trial,html.Screen,4_106_0,2023-09-16T02:39:18.212Z,,0,3,,3742.198000000324,response,ISIC_3610783.JPG,5,ISIC_0011726.JPG,ISIC_0011726.JPG,false,0,keypress(z),500,857341.6000000001,857341.3000000003,853580.003,853595,853599.102,857348.57,8,400,7,,ISIC_3610783.JPG
break,html.Screen,4_106_1,2023-09-16T02:39:18.214Z,,0,,,NaN,,,,,,false,,,,857342.8000000003,857342.3999999999,,857341.8999999999,,857348.57,8,400,,,
break_continue,html.Screen,4_106_2,2023-09-16T02:39:18.214Z,,0,,,NaN,,,,,,false,,,,857343.3999999999,857343.1000000001,,857342.8999999999,,857348.57,8,400,,,
sequence,flow.Sequence,4_106,2023-09-16T02:39:18.214Z,,0,,,3743.998000000138,completion,,,,,false,,,,857343.6000000001,857343.1000000001,853580.003,853594.8999999999,853599.102,857348.57,8,400,,,
trial,html.Screen,4_107_0,2023-09-16T02:39:21.641Z,,0,3,,3421.2300000003306,response,ISIC_7172145.JPG,4,ISIC_9568327.JPG,ISIC_9568327.JPG,false,0,keypress(z),500,860770.2000000002,860769.8000000003,857328.002,857343.8000000003,857348.57,860793.151,8,400,8,,ISIC_7172145.JPG
break,html.Screen,4_107_1,2023-09-16T02:39:21.642Z,,0,,,NaN,,,,,,false,,,,860771.3000000003,860771,,860770.3999999999,,860793.151,8,400,,,
break_continue,html.Screen,4_107_2,2023-09-16T02:39:21.643Z,,0,,,NaN,,,,,,false,,,,860771.8999999999,860771.7000000002,,860771.5,,860793.151,8,400,,,
sequence,flow.Sequence,4_107,2023-09-16T02:39:21.643Z,,0,,,3423.1300000002375,completion,,,,,false,,,,860772.2000000002,860771.7000000002,857328.002,857343.8000000003,857348.57,860793.151,8,400,,,
trial,html.Screen,4_108_0,2023-09-16T02:39:25.839Z,,0,3,,4174.7489999999525,response,ISIC_3624318.JPG,6,ISIC_0024739.JPG,ISIC_3624318.JPG,false,1,keypress(m),500,864968.3000000003,864967.8999999999,860776.61,860772.3999999999,860793.151,864972.486,8,400,9,,ISIC_0024739.JPG
break,html.Screen,4_108_1,2023-09-16T02:39:25.840Z,,0,,,NaN,,,,,,false,,,,864969.5,864969.3000000003,,864968.6000000001,,864972.486,8,400,,,
break_continue,html.Screen,4_108_2,2023-09-16T02:39:25.841Z,,0,,,NaN,,,,,,false,,,,864970.1000000001,864969.8999999999,,864969.8000000003,,864972.486,8,400,,,
sequence,flow.Sequence,4_108,2023-09-16T02:39:25.841Z,,0,,,4176.7489999999525,completion,,,,,false,,,,864970.3999999999,864969.8999999999,860776.61,860772.3000000003,860793.151,864972.486,8,400,,,
trial,html.Screen,4_109_0,2023-09-16T02:39:34.244Z,,0,3,,8400.413999999873,response,ISIC_3016754.JPG,7,ISIC_0033444.JPG,ISIC_0033444.JPG,false,0,keypress(z),500,873373.1000000001,873372.8999999999,864956.993,864970.6000000001,864972.486,873379.34,8,400,10,,ISIC_3016754.JPG
break,html.Screen,4_109_1,2023-09-16T02:39:34.244Z,,0,,,NaN,,,,,,false,,,,873373.6000000001,873373.3999999999,,873373.1000000001,,873379.34,8,400,,,
break_continue,html.Screen,4_109_2,2023-09-16T02:39:34.245Z,,0,,,NaN,,,,,,false,,,,873373.8999999999,873373.8000000003,,873373.7000000002,,873379.34,8,400,,,
sequence,flow.Sequence,4_109,2023-09-16T02:39:34.245Z,,0,,,8401.314000000246,completion,,,,,false,,,,873374,873373.8000000003,864956.993,864970.6000000001,864972.486,873379.34,8,400,,,
trial,html.Screen,4_110_0,2023-09-16T02:39:37.879Z,,0,3,,3628.2600000001257,response,ISIC_0012406.JPG,5,ISIC_6269414.JPG,ISIC_0012406.JPG,false,1,keypress(m),500,877008,877007.6000000001,873364.406,873374.1000000001,873379.34,877022.782,8,400,11,,ISIC_6269414.JPG
break,html.Screen,4_110_1,2023-09-16T02:39:37.880Z,,0,,,NaN,,,,,,false,,,,877009.1000000001,877008.8999999999,,877008.2000000002,,877022.782,8,400,,,
break_continue,html.Screen,4_110_2,2023-09-16T02:39:37.880Z,,0,,,NaN,,,,,,false,,,,877009.6000000001,877009.3999999999,,877009.3000000003,,877022.782,8,400,,,
sequence,flow.Sequence,4_110,2023-09-16T02:39:37.881Z,,0,,,3630.0599999999395,completion,,,,,false,,,,877009.8999999999,877009.3999999999,873364.406,873374.1000000001,873379.34,877022.782,8,400,,,
trial,html.Screen,4_111_0,2023-09-16T02:39:43.083Z,,0,3,,5189.018000000273,response,ISIC_0028297.JPG,5,ISIC_0060829.JPG,ISIC_0028297.JPG,false,1,keypress(m),500,882212.2000000002,882211.8000000003,877008.939,877010.1000000001,877022.782,882219.331,8,400,12,,ISIC_0060829.JPG
break,html.Screen,4_111_1,2023-09-16T02:39:43.084Z,,0,,,NaN,,,,,,false,,,,882213.5,882213.1000000001,,882212.5,,882219.331,8,400,,,
break_continue,html.Screen,4_111_2,2023-09-16T02:39:43.085Z,,0,,,NaN,,,,,,false,,,,882214.1000000001,882213.8999999999,,882213.6000000001,,882219.331,8,400,,,
sequence,flow.Sequence,4_111,2023-09-16T02:39:43.085Z,,0,,,5191.1179999999,completion,,,,,false,,,,882214.5,882213.8999999999,877008.939,877010,877022.782,882219.331,8,400,,,
trial,html.Screen,4_112_0,2023-09-16T02:39:47.632Z,,0,3,,4541.869000000181,response,ISIC_0033805.JPG,5,ISIC_3975743.JPG,ISIC_0033805.JPG,false,1,keypress(m),500,886761.6000000001,886761.2000000002,882211.855,882214.8999999999,882219.331,886777.339,8,400,13,,ISIC_3975743.JPG
break,html.Screen,4_112_1,2023-09-16T02:39:47.634Z,,0,,,NaN,,,,,,false,,,,886763.3000000003,886762.8999999999,,886762.2000000002,,886777.339,8,400,,,
break_continue,html.Screen,4_112_2,2023-09-16T02:39:47.635Z,,0,,,NaN,,,,,,false,,,,886764,886763.7000000002,,886763.6000000001,,886777.339,8,400,,,
sequence,flow.Sequence,4_112,2023-09-16T02:39:47.635Z,,0,,,4544.369000000181,completion,,,,,false,,,,886764.3000000003,886763.7000000002,882211.855,882214.6000000001,882219.331,886777.339,8,400,,,
trial,html.Screen,4_113_0,2023-09-16T02:39:51.563Z,,0,3,,3914.5609999998705,response,ISIC_6694724.JPG,5,ISIC_6914698.JPG,ISIC_6914698.JPG,false,0,keypress(z),500,890692.2000000002,890691.8999999999,886757.175,886764.5,886777.339,890699.321,8,400,14,,ISIC_6694724.JPG
break,html.Screen,4_113_1,2023-09-16T02:39:51.564Z,,0,,,NaN,,,,,,false,,,,890693.5,890693.1000000001,,890692.5,,890699.321,8,400,,,
break_continue,html.Screen,4_113_2,2023-09-16T02:39:51.565Z,,0,,,NaN,,,,,,false,,,,890694,890693.8000000003,,890693.6000000001,,890699.321,8,400,,,
sequence,flow.Sequence,4_113,2023-09-16T02:39:51.565Z,,0,,,3916.461000000243,completion,,,,,false,,,,890694.2000000002,890693.8000000003,886757.175,886764.5,886777.339,890699.321,8,400,,,
trial,html.Screen,4_114_0,2023-09-16T02:39:56.727Z,,0,3,,5156.479000000283,response,ISIC_0032248.JPG,6,ISIC_7407847.JPG,ISIC_7407847.JPG,false,0,keypress(z),500,895856.2000000002,895855.8000000003,890680.226,890694.5,890699.321,895863.287,8,400,15,,ISIC_0032248.JPG
break,html.Screen,4_114_1,2023-09-16T02:39:56.728Z,,0,,,NaN,,,,,,false,,,,895857.3999999999,895857.1000000001,,895856.3999999999,,895863.287,8,400,,,
break_continue,html.Screen,4_114_2,2023-09-16T02:39:56.729Z,,0,,,NaN,,,,,,false,,,,895858.1000000001,895857.8999999999,,895857.7000000002,,895863.287,8,400,,,
sequence,flow.Sequence,4_114,2023-09-16T02:39:56.729Z,,0,,,5158.578999999911,completion,,,,,false,,,,895858.3999999999,895857.8999999999,890680.226,890694.3999999999,890699.321,895863.287,8,400,,,
trial,html.Screen,4_115_0,2023-09-16T02:40:02.700Z,,0,3,,5965.513000000268,response,ISIC_0033154.JPG,6,ISIC_0061624.JPG,ISIC_0033154.JPG,false,1,keypress(m),500,901829.1000000001,901828.8000000003,895849.858,895858.5,895863.287,901836.385,8,400,16,,ISIC_0061624.JPG
break,html.Screen,4_115_1,2023-09-16T02:40:02.701Z,,0,,,NaN,,,,,,false,,,,901830.5,901830.2000000002,,901829.6000000001,,901836.385,8,400,,,
break_continue,html.Screen,4_115_2,2023-09-16T02:40:02.702Z,,0,,,NaN,,,,,,false,,,,901831.3999999999,901831.1000000001,,901831,,901836.385,8,400,,,
sequence,flow.Sequence,4_115,2023-09-16T02:40:02.703Z,,0,,,5967.813000000082,completion,,,,,false,,,,901831.7000000002,901831.1000000001,895849.858,895858.5,895863.287,901836.385,8,400,,,
trial,html.Screen,4_116_0,2023-09-16T02:40:07.432Z,,0,3,,4724.715000000084,response,ISIC_0029574.JPG,5,ISIC_0033122.JPG,ISIC_0033122.JPG,false,0,keypress(z),500,906561.5,906561.1000000001,901827.127,901832.1000000001,901836.385,906592.218,8,400,17,,ISIC_0029574.JPG
break,html.Screen,4_116_1,2023-09-16T02:40:07.434Z,,0,,,NaN,,,,,,false,,,,906562.8999999999,906562.5,,906561.8000000003,,906592.218,8,400,,,
break_continue,html.Screen,4_116_2,2023-09-16T02:40:07.434Z,,0,,,NaN,,,,,,false,,,,906563.3999999999,906563.2000000002,,906563.1000000001,,906592.218,8,400,,,
sequence,flow.Sequence,4_116,2023-09-16T02:40:07.435Z,,0,,,4726.815000000177,completion,,,,,false,,,,906563.7000000002,906563.2000000002,901827.127,901831.8999999999,901836.385,906592.218,8,400,,,
trial,html.Screen,4_117_0,2023-09-16T02:40:11.684Z,,0,3,,4220.681999999913,response,ISIC_1356715.JPG,6,ISIC_9052500.JPG,ISIC_1356715.JPG,false,1,keypress(m),500,910813.3999999999,910812.8999999999,906575.705,906563.8999999999,906592.218,910820.771,8,400,18,,ISIC_9052500.JPG
break,html.Screen,4_117_1,2023-09-16T02:40:11.686Z,,0,,,NaN,,,,,,false,,,,910815,910814.6000000001,,910813.8999999999,,910820.771,8,400,,,
break_continue,html.Screen,4_117_2,2023-09-16T02:40:11.686Z,,0,,,NaN,,,,,,false,,,,910815.6000000001,910815.3999999999,,910815.1000000001,,910820.771,8,400,,,
sequence,flow.Sequence,4_117,2023-09-16T02:40:11.687Z,,0,,,4223.181999999913,completion,,,,,false,,,,910815.8999999999,910815.3999999999,906575.705,906563.8000000003,906592.218,910820.771,8,400,,,
trial,html.Screen,4_118_0,2023-09-16T02:40:16.345Z,,0,3,,4653.22900000005,response,ISIC_6358752.JPG,5,ISIC_4508511.JPG,ISIC_4508511.JPG,false,0,keypress(z),500,915474.3999999999,915474,910801.855,910816.2000000002,910820.771,915476.893,8,400,19,,ISIC_6358752.JPG
break,html.Screen,4_118_1,2023-09-16T02:40:16.346Z,,0,,,NaN,,,,,,false,,,,915475.5,915475.2000000002,,915474.7000000002,,915476.893,8,400,,,
break_continue,html.Screen,4_118_2,2023-09-16T02:40:16.347Z,,0,,,NaN,,,,,,false,,,,915476.1000000001,915475.8000000003,,915475.8000000003,,915476.893,8,400,,,
sequence,flow.Sequence,4_118,2023-09-16T02:40:16.347Z,,0,,,4655.02900000033,completion,,,,,false,,,,915476.3999999999,915475.8000000003,910801.855,910816.2000000002,910820.771,915476.893,8,400,,,
trial,html.Screen,4_119_0,2023-09-16T02:40:20.894Z,,0,3,,4545.907000000239,response,ISIC_0064563.JPG,5,ISIC_9529297.JPG,ISIC_9529297.JPG,false,0,keypress(z),500,920023,920022.8000000003,915461.885,915476.6000000001,915476.893,920028.406,8,400,20,,ISIC_0064563.JPG
break,html.Screen,4_119_1,2023-09-16T02:40:20.895Z,,0,,,NaN,,,,,,false,,,,920024.5,920024.2000000002,,920023.5,,920028.406,8,400,,,
break_continue,html.Screen,4_119_2,2023-09-16T02:40:20.896Z,,0,,,NaN,,,,,,false,,,,920025.3000000003,920025,,920024.8000000003,,920028.406,8,400,,,
sequence,flow.Sequence,4_119,2023-09-16T02:40:20.896Z,,0,,,4548.10699999996,completion,,,,,false,,,,920025.5,920025,915461.885,915476.5,915476.893,920028.406,8,400,,,
trial,html.Screen,4_120_0,2023-09-16T02:40:24.867Z,,0,3,,3967.493999999948,response,ISIC_9301346.JPG,4,ISIC_0650126.JPG,ISIC_9301346.JPG,false,1,keypress(m),500,923996.2000000002,923995.8999999999,920020.223,920025.8000000003,920028.406,924000.196,8,400,21,,ISIC_0650126.JPG
break,html.Screen,4_120_1,2023-09-16T02:40:24.868Z,,0,,,NaN,,,,,,false,,,,923997.3999999999,923997.1000000001,,923996.5,,924000.196,8,400,,,
break_continue,html.Screen,4_120_2,2023-09-16T02:40:24.869Z,,0,,,NaN,,,,,,false,,,,923998,923997.8000000003,,923997.7000000002,,924000.196,8,400,,,
sequence,flow.Sequence,4_120,2023-09-16T02:40:24.869Z,,0,,,3969.3940000003204,completion,,,,,false,,,,923998.2000000002,923997.8000000003,920020.223,920025.8000000003,920028.406,924000.196,8,400,,,
trial,html.Screen,4_121_0,2023-09-16T02:40:30.424Z,,0,3,,5552.404000000097,response,ISIC_4369035.JPG,5,ISIC_7110531.JPG,ISIC_7110531.JPG,false,0,keypress(z),500,929553,929552.6000000001,923982.649,923998.5,924000.196,929561.53,8,400,22,,ISIC_4369035.JPG
break,html.Screen,4_121_1,2023-09-16T02:40:30.425Z,,0,,,NaN,,,,,,false,,,,929554.1000000001,929553.8999999999,,929553.2000000002,,929561.53,8,400,,,
break_continue,html.Screen,4_121_2,2023-09-16T02:40:30.426Z,,0,,,NaN,,,,,,false,,,,929554.7000000002,929554.5,,929554.3000000003,,929561.53,8,400,,,
sequence,flow.Sequence,4_121,2023-09-16T02:40:30.426Z,,0,,,5554.304000000004,completion,,,,,false,,,,929554.8000000003,929554.5,923982.649,923998.3999999999,924000.196,929561.53,8,400,,,
trial,html.Screen,4_122_0,2023-09-16T02:40:34.940Z,,0,3,,4506.969999999972,response,ISIC_0004691.JPG,5,ISIC_8263741.JPG,ISIC_0004691.JPG,false,1,keypress(m),500,934069,934068.5,929546.827,929554.8999999999,929561.53,934083.97,8,400,23,,ISIC_8263741.JPG
break,html.Screen,4_122_1,2023-09-16T02:40:34.941Z,,0,,,NaN,,,,,,false,,,,934070.3000000003,934070,,934069.3000000003,,934083.97,8,400,,,
break_continue,html.Screen,4_122_2,2023-09-16T02:40:34.942Z,,0,,,NaN,,,,,,false,,,,934071,934070.8000000003,,934070.6000000001,,934083.97,8,400,,,
sequence,flow.Sequence,4_122,2023-09-16T02:40:34.942Z,,0,,,4509.2700000002515,completion,,,,,false,,,,934071.3999999999,934070.8000000003,929546.827,929554.8999999999,929561.53,934083.97,8,400,,,
trial,html.Screen,4_123_0,2023-09-16T02:40:38.705Z,,0,3,,3749.8300000003073,response,ISIC_0007029.JPG,4,ISIC_7039203.JPG,ISIC_0007029.JPG,false,1,keypress(m),500,937834.1000000001,937833.8000000003,934067.44,934071.6000000001,934083.97,937838.895,8,400,24,,ISIC_7039203.JPG
break,html.Screen,4_123_1,2023-09-16T02:40:38.706Z,,0,,,NaN,,,,,,false,,,,937835.3999999999,937835,,937834.5,,937838.895,8,400,,,
break_continue,html.Screen,4_123_2,2023-09-16T02:40:38.707Z,,0,,,NaN,,,,,,false,,,,937836.2000000002,937835.8999999999,,937835.6000000001,,937838.895,8,400,,,
sequence,flow.Sequence,4_123,2023-09-16T02:40:38.707Z,,0,,,3751.929999999935,completion,,,,,false,,,,937836.5,937835.8999999999,934067.44,934071.6000000001,934083.97,937838.895,8,400,,,
trial,html.Screen,4_124_0,2023-09-16T02:40:42.765Z,,0,3,,4055.1049999999814,response,ISIC_8060329.JPG,5,ISIC_0370008.JPG,ISIC_0370008.JPG,false,0,keypress(z),500,941894.2000000002,941894,937819.004,937836.7000000002,937838.895,941900.351,8,400,25,,ISIC_8060329.JPG
break,html.Screen,4_124_1,2023-09-16T02:40:42.765Z,,0,,,NaN,,,,,,false,,,,941894.6000000001,941894.5,,941894.3000000003,,941900.351,8,400,,,
break_continue,html.Screen,4_124_2,2023-09-16T02:40:42.766Z,,0,,,NaN,,,,,,false,,,,941894.8000000003,941894.8000000003,,941894.7000000002,,941900.351,8,400,,,
sequence,flow.Sequence,4_124,2023-09-16T02:40:42.766Z,,0,,,4055.9050000002608,completion,,,,,false,,,,941894.8999999999,941894.8000000003,937819.004,937836.7000000002,937838.895,941900.351,8,400,,,
trial,html.Screen,4_125_0,2023-09-16T02:40:47.057Z,,0,3,,4285.449000000255,response,ISIC_0064006.JPG,4,ISIC_0027391.JPG,ISIC_0027391.JPG,false,0,keypress(z),500,946186.3000000003,946185.8000000003,941887.047,941895,941900.351,946193.295,8,400,26,,ISIC_0064006.JPG
break,html.Screen,4_125_1,2023-09-16T02:40:47.059Z,,0,,,NaN,,,,,,false,,,,946187.8999999999,946187.3000000003,,946186.6000000001,,946193.295,8,400,,,
break_continue,html.Screen,4_125_2,2023-09-16T02:40:47.060Z,,0,,,NaN,,,,,,false,,,,946189.1000000001,946188.6000000001,,946188.3000000003,,946193.295,8,400,,,
sequence,flow.Sequence,4_125,2023-09-16T02:40:47.060Z,,0,,,4288.249000000069,completion,,,,,false,,,,946189.5,946188.6000000001,941887.047,941894.8999999999,941900.351,946193.295,8,400,,,
trial,html.Screen,4_126_0,2023-09-16T02:40:53.144Z,,0,3,,6079.604999999865,response,ISIC_0055179.JPG,4,ISIC_0055046.JPG,ISIC_0055046.JPG,false,0,keypress(z),500,952273.2000000002,952272.8999999999,946174.707,946189.8000000003,946193.295,952276.231,8,400,27,,ISIC_0055179.JPG
break,html.Screen,4_126_1,2023-09-16T02:40:53.145Z,,0,,,NaN,,,,,,false,,,,952274.3999999999,952274.2000000002,,952273.6000000001,,952276.231,8,400,,,
break_continue,html.Screen,4_126_2,2023-09-16T02:40:53.146Z,,0,,,NaN,,,,,,false,,,,952275.1000000001,952274.8999999999,,952274.7000000002,,952276.231,8,400,,,
sequence,flow.Sequence,4_126,2023-09-16T02:40:53.146Z,,0,,,6081.604999999865,completion,,,,,false,,,,952275.3999999999,952274.8999999999,946174.707,946189.7000000002,946193.295,952276.231,8,400,,,
trial,html.Screen,4_127_0,2023-09-16T02:40:59.198Z,,0,3,,6050.469000000157,response,ISIC_0033181.JPG,6,ISIC_4107717.JPG,ISIC_4107717.JPG,false,0,keypress(z),500,958327.2000000002,958326.7000000002,952261.601,952277,952276.231,958343.336,8,400,28,,ISIC_0033181.JPG
break,html.Screen,4_127_1,2023-09-16T02:40:59.199Z,,0,,,NaN,,,,,,false,,,,958328.5,958328.1000000001,,958327.5,,958343.336,8,400,,,
break_continue,html.Screen,4_127_2,2023-09-16T02:40:59.200Z,,0,,,NaN,,,,,,false,,,,958329.3000000003,958329,,958328.7000000002,,958343.336,8,400,,,
