sender,sender_type,sender_id,timestamp,meta,,blockNo,condition,duration,ended_on,img_left,img_reveal,img_right,loser,practice,response,response_action,selection_duration,time_commit,time_end,time_render,time_run,time_show,time_switch,total_blocks,total_trials,trialNo,url,winner
informed_consent,html.Screen,0,2023-09-08T19:46:33.975Z,"{""labjs_version"":""20.2.4"",""labjs_build"":{""flavor"":""production"",""commit"":""f5b4a49f956347addd546a832a3327688c2c0fef""},""location"":""https://run.pavlovia.org/MurrayBennett/melanoma-2afc/?participant=632beb3e071d0d5eec133b60&STUDY_ID=64f8c92207ba404bcb356c90&SESSION_ID=64fb7a005cfb2660ebc8411a&platform=prolific"",""userAgent"":""Mozilla/5.0 (Windows NT 10.0; Win64; x64) AppleWebKit/537.36 (KHTML, like Gecko) Chrome/116.0.0.0 Safari/537.36"",""platform"":""Win32"",""language"":""en-US"",""locale"":""en-US"",""timeZone"":""America/New_York"",""timezoneOffset"":240,""screen_width"":1366,""screen_height"":768,""scroll_width"":1366,""scroll_height"":595,""window_innerWidth"":1366,""window_innerHeight"":643,""devicePixelRatio"":1}",,,,3328.035999952316,response,,,,,,consent,click button,,5690.899999976158,5688.799999952316,2344.086,2348.2000000476837,2360.764,5693.938,,,,"{""participant"":""632beb3e071d0d5eec133b60"",""STUDY_ID"":""64f8c92207ba404bcb356c90"",""SESSION_ID"":""64fb7a005cfb2660ebc8411a"",""platform"":""prolific""}",
Welcome,html.Screen,1,2023-09-08T19:47:16.332Z,,,,regular,42353.461999976156,response,,,,,,continue,click button,,48048.200000047684,48047.39999997616,5677.264,5691.200000047684,5693.938,48075.691,,,,,
trial,html.Screen,2_0_0,2023-09-08T19:47:27.844Z,,0,0,,11516.219000000005,timeout,ISIC_0061792.JPG,,ISIC_4679428.JPG,,true,,,500,59559.60000002384,59559.39999997616,48059.156,48048.5,48075.691,59591.91,1,6,1,,
sequence,flow.Sequence,2_0,2023-09-08T19:47:27.844Z,,0,,,11483.70899997616,completion,,,,,true,,,,59560,59559.39999997616,48059.156,48048.5,48075.691,59591.91,1,6,,,
trial,html.Screen,2_1_0,2023-09-08T19:47:33.478Z,,0,0,,5601.889999952313,response,ISIC_0776486.JPG,,ISIC_5199497.JPG,ISIC_0776486.JPG,true,1,keypress(m),500,65194.200000047684,65193.799999952316,59575.278,59560.200000047684,59591.91,65208.338,1,6,2,,ISIC_5199497.JPG
sequence,flow.Sequence,2_1,2023-09-08T19:47:33.479Z,,0,,,5601.889999952313,completion,,,,,true,,,,65194.39999997616,65193.799999952316,59575.278,59560.10000002384,59591.91,65208.338,1,6,,,
trial,html.Screen,2_2_0,2023-09-08T19:47:37.417Z,,0,0,,3924.2620000238385,response,ISIC_8575776.JPG,,ISIC_2556187.JPG,ISIC_8575776.JPG,true,1,keypress(m),500,69132.89999997616,69132.60000002384,65191.607,65194.5,65208.338,69141.63,1,6,3,,ISIC_2556187.JPG
sequence,flow.Sequence,2_2,2023-09-08T19:47:37.417Z,,0,,,3924.2620000238385,completion,,,,,true,,,,69133.29999995232,69132.60000002384,65191.607,65194.5,65208.338,69141.63,1,6,,,
trial,html.Screen,2_3_0,2023-09-08T19:47:41.132Z,,0,0,,3705.6699999523116,response,ISIC_9238366.JPG,,ISIC_8141769.JPG,ISIC_8141769.JPG,true,0,keypress(z),500,72847.70000004768,72847.29999995232,69124.866,69133.60000002384,69141.63,72858.115,1,6,4,,ISIC_9238366.JPG
sequence,flow.Sequence,2_3,2023-09-08T19:47:41.132Z,,0,,,3705.6699999523116,completion,,,,,true,,,,72848.20000004768,72847.29999995232,69124.866,69133.5,69141.63,72858.115,1,6,,,
trial,html.Screen,2_4_0,2023-09-08T19:47:45.776Z,,0,0,,4632.985000023837,response,ISIC_9959593.JPG,,ISIC_8949026.JPG,ISIC_8949026.JPG,true,0,keypress(z),500,77491.60000002384,77491.10000002384,72841.335,72848.39999997616,72858.115,77507.832,1,6,5,,ISIC_9959593.JPG
sequence,flow.Sequence,2_4,2023-09-08T19:47:45.776Z,,0,,,4632.985000023837,completion,,,,,true,,,,77492,77491.10000002384,72841.335,72848.29999995232,72858.115,77507.832,1,6,,,
trial,html.Screen,2_5_0,2023-09-08T19:47:49.043Z,,0,0,,3250.868000047689,response,ISIC_0460240.JPG,,ISIC_0010479.JPG,ISIC_0460240.JPG,true,1,keypress(m),500,80759.10000002384,80758.70000004768,77491.22,77492.20000004768,77507.832,80774.377,1,6,6,,ISIC_0010479.JPG
sequence,flow.Sequence,2_5,2023-09-08T19:47:49.044Z,,0,,,3250.868000047689,completion,,,,,true,,,,80759.39999997616,80758.70000004768,77491.22,77492.10000002384,77507.832,80774.377,1,6,,,
loop,flow.Loop,2,2023-09-08T19:47:49.044Z,,,,,32683.009000047685,completion,,,,,true,,,,80759.70000004768,80758.70000004768,48059.156,48048.39999997616,48075.691,80774.377,1,6,,,
exp_instructions,html.Screen,3,2023-09-08T19:47:53.771Z,,,,,4711.223000023849,response,,,,,,continue,keypress(Space),,85486.60000002384,85485.60000002384,80757.617,80759.79999995232,80774.377,85490.984,,,,,
trial,html.Screen,4_0_0,2023-09-08T19:47:59.047Z,,0,1,,5271.516000000003,response,ISIC_4548995.JPG,5,ISIC_2843983.JPG,ISIC_2843983.JPG,false,0,keypress(z),500,90762.79999995232,90762.5,85473.665,85486.79999995232,85490.984,90774.125,8,400,1,,ISIC_4548995.JPG
break,html.Screen,4_0_1,2023-09-08T19:47:59.050Z,,0,,,NaN,,,,,,false,,,,90765.79999995232,90764.89999997616,,90763,,90774.125,8,400,,,
break_continue,html.Screen,4_0_2,2023-09-08T19:47:59.051Z,,0,,,NaN,,,,,,false,,,,90767.29999995232,90766.70000004768,,90766.10000002384,,90774.125,8,400,,,
sequence,flow.Sequence,4_0,2023-09-08T19:47:59.052Z,,0,,,5275.716000047687,completion,,,,,false,,,,90767.70000004768,90766.70000004768,85473.665,85486.79999995232,85490.984,90774.125,8,400,,,
trial,html.Screen,4_1_0,2023-09-08T19:48:05.295Z,,0,1,,6236.674999952316,response,ISIC_2406492.JPG,5,ISIC_0409276.JPG,ISIC_2406492.JPG,false,1,keypress(m),500,97011.10000002384,97010.79999995232,90757.264,90768.10000002384,90774.125,97023.802,8,400,2,,ISIC_0409276.JPG
break,html.Screen,4_1_1,2023-09-08T19:48:05.297Z,,0,,,NaN,,,,,,false,,,,97012.29999995232,97012,,97011.39999997616,,97023.802,8,400,,,
break_continue,html.Screen,4_1_2,2023-09-08T19:48:05.297Z,,0,,,NaN,,,,,,false,,,,97012.89999997616,97012.70000004768,,97012.5,,97023.802,8,400,,,
sequence,flow.Sequence,4_1,2023-09-08T19:48:05.297Z,,0,,,6238.575000047684,completion,,,,,false,,,,97013,97012.70000004768,90757.264,90768,90774.125,97023.802,8,400,,,
trial,html.Screen,4_2_0,2023-09-08T19:48:09.066Z,,0,1,,3757.698000000004,response,ISIC_6539127.JPG,5,ISIC_0054936.JPG,ISIC_0054936.JPG,false,0,keypress(z),500,100781.60000002384,100781.5,97007.098,97013.20000004768,97023.802,100790.32,8,400,3,,ISIC_6539127.JPG
break,html.Screen,4_2_1,2023-09-08T19:48:09.066Z,,0,,,NaN,,,,,,false,,,,100782.20000004768,100782.10000002384,,100781.79999995232,,100790.32,8,400,,,
break_continue,html.Screen,4_2_2,2023-09-08T19:48:09.067Z,,0,,,NaN,,,,,,false,,,,100782.5,100782.39999997616,,100782.29999995232,,100790.32,8,400,,,
sequence,flow.Sequence,4_2,2023-09-08T19:48:09.067Z,,0,,,3758.597999976162,completion,,,,,false,,,,100782.60000002384,100782.39999997616,97007.098,97013.20000004768,97023.802,100790.32,8,400,,,
trial,html.Screen,4_3_0,2023-09-08T19:48:14.948Z,,0,1,,5873.579999976151,response,ISIC_0025579.JPG,5,ISIC_2304753.JPG,ISIC_2304753.JPG,false,0,keypress(z),500,106664.20000004768,106663.89999997616,100773.776,100782.70000004768,100790.32,106673.625,8,400,4,,ISIC_0025579.JPG
break,html.Screen,4_3_1,2023-09-08T19:48:14.951Z,,0,,,NaN,,,,,,false,,,,106666.60000002384,106666.20000004768,,106665.5,,106673.625,8,400,,,
break_continue,html.Screen,4_3_2,2023-09-08T19:48:14.951Z,,0,,,NaN,,,,,,false,,,,106667.20000004768,106667.10000002384,,106666.79999995232,,106673.625,8,400,,,
sequence,flow.Sequence,4_3,2023-09-08T19:48:14.952Z,,0,,,5876.780000023835,completion,,,,,false,,,,106667.29999995232,106667.10000002384,100773.776,100782.60000002384,100790.32,106673.625,8,400,,,
trial,html.Screen,4_4_0,2023-09-08T19:48:19.354Z,,0,1,,4395.674999952316,response,ISIC_0005769.JPG,5,ISIC_0054080.JPG,ISIC_0054080.JPG,false,0,keypress(z),500,111069.5,111069.29999995232,106656.784,106667.5,106673.625,111073.327,8,400,5,,ISIC_0005769.JPG
break,html.Screen,4_4_1,2023-09-08T19:48:19.355Z,,0,,,NaN,,,,,,false,,,,111070.79999995232,111070.29999995232,,111069.70000004768,,111073.327,8,400,,,
break_continue,html.Screen,4_4_2,2023-09-08T19:48:19.356Z,,0,,,NaN,,,,,,false,,,,111071.29999995232,111071.20000004768,,111071,,111073.327,8,400,,,
sequence,flow.Sequence,4_4,2023-09-08T19:48:19.356Z,,0,,,4397.575000047684,completion,,,,,false,,,,111071.5,111071.20000004768,106656.784,106667.5,106673.625,111073.327,8,400,,,
trial,html.Screen,4_5_0,2023-09-08T19:48:22.724Z,,0,1,,3366.172999999995,response,ISIC_0033546.JPG,4,ISIC_8719134.JPG,ISIC_0033546.JPG,false,1,keypress(m),500,114439.79999995232,114439.5,111056.749,111071.70000004768,111073.327,114456.504,8,400,6,,ISIC_8719134.JPG
break,html.Screen,4_5_1,2023-09-08T19:48:22.725Z,,0,,,NaN,,,,,,false,,,,114441.20000004768,114440.89999997616,,114440,,114456.504,8,400,,,
break_continue,html.Screen,4_5_2,2023-09-08T19:48:22.726Z,,0,,,NaN,,,,,,false,,,,114441.89999997616,114441.70000004768,,114441.5,,114456.504,8,400,,,
sequence,flow.Sequence,4_5,2023-09-08T19:48:22.726Z,,0,,,3368.373000047679,completion,,,,,false,,,,114442,114441.70000004768,111056.749,111071.70000004768,111073.327,114456.504,8,400,,,
trial,html.Screen,4_6_0,2023-09-08T19:48:26.232Z,,0,1,,3491.196000047683,response,ISIC_5611515.JPG,5,ISIC_0001578.JPG,ISIC_5611515.JPG,false,1,keypress(m),500,117948,117947.70000004768,114439.818,114442.20000004768,114456.504,117956.536,8,400,7,,ISIC_0001578.JPG
break,html.Screen,4_6_1,2023-09-08T19:48:26.233Z,,0,,,NaN,,,,,,false,,,,117949.20000004768,117948.89999997616,,117948.20000004768,,117956.536,8,400,,,
break_continue,html.Screen,4_6_2,2023-09-08T19:48:26.234Z,,0,,,NaN,,,,,,false,,,,117949.5,117949.5,,117949.20000004768,,117956.536,8,400,,,
sequence,flow.Sequence,4_6,2023-09-08T19:48:26.234Z,,0,,,3492.995999999999,completion,,,,,false,,,,117949.79999995232,117949.5,114439.818,114442.10000002384,114456.504,117956.536,8,400,,,
trial,html.Screen,4_7_0,2023-09-08T19:48:30.157Z,,0,1,,3915.8639999761654,response,ISIC_0026329.JPG,4,ISIC_6533176.JPG,ISIC_6533176.JPG,false,0,keypress(z),500,121872.70000004768,121872.39999997616,117939.644,117949.89999997616,117956.536,121889.507,8,400,8,,ISIC_0026329.JPG
break,html.Screen,4_7_1,2023-09-08T19:48:30.158Z,,0,,,NaN,,,,,,false,,,,121874,121873.60000002384,,121872.89999997616,,121889.507,8,400,,,
break_continue,html.Screen,4_7_2,2023-09-08T19:48:30.159Z,,0,,,NaN,,,,,,false,,,,121874.5,121874.39999997616,,121874.10000002384,,121889.507,8,400,,,
sequence,flow.Sequence,4_7,2023-09-08T19:48:30.159Z,,0,,,3917.8639999761654,completion,,,,,false,,,,121874.70000004768,121874.39999997616,117939.644,117949.79999995232,117956.536,121889.507,8,400,,,
trial,html.Screen,4_8_0,2023-09-08T19:48:34.402Z,,0,1,,4227.39299997616,response,ISIC_9685931.JPG,4,ISIC_9412963.JPG,ISIC_9685931.JPG,false,1,keypress(m),500,126117.20000004768,126116.89999997616,121872.905,121874.89999997616,121889.507,126122.786,8,400,9,,ISIC_9412963.JPG
break,html.Screen,4_8_1,2023-09-08T19:48:34.403Z,,0,,,NaN,,,,,,false,,,,126118.60000002384,126118.29999995232,,126117.5,,126122.786,8,400,,,
break_continue,html.Screen,4_8_2,2023-09-08T19:48:34.403Z,,0,,,NaN,,,,,,false,,,,126119.10000002384,126119,,126118.70000004768,,126122.786,8,400,,,
sequence,flow.Sequence,4_8,2023-09-08T19:48:34.404Z,,0,,,4229.493000000002,completion,,,,,false,,,,126119.29999995232,126119,121872.905,121874.79999995232,121889.507,126122.786,8,400,,,
trial,html.Screen,4_9_0,2023-09-08T19:48:37.627Z,,0,1,,3220.1139999761654,response,ISIC_0064033.JPG,4,ISIC_9167290.JPG,ISIC_0064033.JPG,false,1,keypress(m),500,129343.10000002384,129342.89999997616,126105.944,126119.5,126122.786,129355.9,8,400,10,,ISIC_9167290.JPG
break,html.Screen,4_9_1,2023-09-08T19:48:37.629Z,,0,,,NaN,,,,,,false,,,,129344.29999995232,129344,,129343.29999995232,,129355.9,8,400,,,
break_continue,html.Screen,4_9_2,2023-09-08T19:48:37.629Z,,0,,,NaN,,,,,,false,,,,129344.89999997616,129344.79999995232,,129344.5,,129355.9,8,400,,,
sequence,flow.Sequence,4_9,2023-09-08T19:48:37.629Z,,0,,,3222.0139999523235,completion,,,,,false,,,,129345.10000002384,129344.79999995232,126105.944,126119.39999997616,126122.786,129355.9,8,400,,,
trial,html.Screen,4_10_0,2023-09-08T19:48:40.295Z,,0,1,,2654.100000000006,response,ISIC_4015508.JPG,5,ISIC_5391190.JPG,ISIC_4015508.JPG,false,1,keypress(m),500,132010.29999995232,132010,129339.202,129345.20000004768,129355.9,132022.463,8,400,11,,ISIC_5391190.JPG
break,html.Screen,4_10_1,2023-09-08T19:48:40.296Z,,0,,,NaN,,,,,,false,,,,132011.39999997616,132011.10000002384,,132010.5,,132022.463,8,400,,,
break_continue,html.Screen,4_10_2,2023-09-08T19:48:40.296Z,,0,,,NaN,,,,,,false,,,,132011.89999997616,132011.70000004768,,132011.5,,132022.463,8,400,,,
sequence,flow.Sequence,4_10,2023-09-08T19:48:40.296Z,,0,,,2655.8000000476895,completion,,,,,false,,,,132012,132011.70000004768,129339.202,129345.20000004768,129355.9,132022.463,8,400,,,
trial,html.Screen,4_11_0,2023-09-08T19:48:43.471Z,,0,1,,3164.037000000011,response,ISIC_1515947.JPG,6,ISIC_2916677.JPG,ISIC_2916677.JPG,false,0,keypress(z),500,135186.79999995232,135186.5,132005.814,132012.10000002384,132022.463,135207.045,8,400,12,,ISIC_1515947.JPG
break,html.Screen,4_11_1,2023-09-08T19:48:43.472Z,,0,,,NaN,,,,,,false,,,,135188,135187.70000004768,,135187,,135207.045,8,400,,,
break_continue,html.Screen,4_11_2,2023-09-08T19:48:43.473Z,,0,,,NaN,,,,,,false,,,,135188.79999995232,135188.60000002384,,135188.10000002384,,135207.045,8,400,,,
sequence,flow.Sequence,4_11,2023-09-08T19:48:43.473Z,,0,,,3166.137000023853,completion,,,,,false,,,,135189,135188.60000002384,132005.814,132012.10000002384,132022.463,135207.045,8,400,,,
trial,html.Screen,4_12_0,2023-09-08T19:48:46.197Z,,0,1,,2705.2549999523035,response,ISIC_0026802.JPG,5,ISIC_9234944.JPG,ISIC_0026802.JPG,false,1,keypress(m),500,137912.5,137912.29999995232,135172.415,135189.10000002384,135207.045,137922.247,8,400,13,,ISIC_9234944.JPG
break,html.Screen,4_12_1,2023-09-08T19:48:46.198Z,,0,,,NaN,,,,,,false,,,,137913.89999997616,137913.5,,137912.79999995232,,137922.247,8,400,,,
break_continue,html.Screen,4_12_2,2023-09-08T19:48:46.199Z,,0,,,NaN,,,,,,false,,,,137914.29999995232,137914.20000004768,,137914,,137922.247,8,400,,,
sequence,flow.Sequence,4_12,2023-09-08T19:48:46.199Z,,0,,,2707.155000047671,completion,,,,,false,,,,137914.5,137914.20000004768,135172.415,135189.10000002384,135207.045,137922.247,8,400,,,
trial,html.Screen,4_13_0,2023-09-08T19:48:49.290Z,,0,1,,3083.353000023839,response,ISIC_0016131.JPG,5,ISIC_4715386.JPG,ISIC_0016131.JPG,false,1,keypress(m),500,141005.79999995232,141005.60000002384,137905.641,137914.70000004768,137922.247,141022.127,8,400,14,,ISIC_4715386.JPG
break,html.Screen,4_13_1,2023-09-08T19:48:49.291Z,,0,,,NaN,,,,,,false,,,,141007.10000002384,141006.70000004768,,141006.20000004768,,141022.127,8,400,,,
break_continue,html.Screen,4_13_2,2023-09-08T19:48:49.292Z,,0,,,NaN,,,,,,false,,,,141007.70000004768,141007.60000002384,,141007.29999995232,,141022.127,8,400,,,
sequence,flow.Sequence,4_13,2023-09-08T19:48:49.292Z,,0,,,3085.353000023839,completion,,,,,false,,,,141007.89999997616,141007.60000002384,137905.641,137914.60000002384,137922.247,141022.127,8,400,,,
trial,html.Screen,4_14_0,2023-09-08T19:48:51.987Z,,0,1,,2679.973000023834,response,ISIC_8253317.JPG,6,ISIC_0708552.JPG,ISIC_8253317.JPG,false,1,keypress(m),500,143702.29999995232,143702.10000002384,141005.415,141008,141022.127,143705.392,8,400,15,,ISIC_0708552.JPG
break,html.Screen,4_14_1,2023-09-08T19:48:51.987Z,,0,,,NaN,,,,,,false,,,,143703.10000002384,143702.89999997616,,143702.5,,143705.392,8,400,,,
break_continue,html.Screen,4_14_2,2023-09-08T19:48:51.988Z,,0,,,NaN,,,,,,false,,,,143703.5,143703.39999997616,,143703.20000004768,,143705.392,8,400,,,
sequence,flow.Sequence,4_14,2023-09-08T19:48:51.988Z,,0,,,2681.2729999761505,completion,,,,,false,,,,143703.60000002384,143703.39999997616,141005.415,141008,141022.127,143705.392,8,400,,,
trial,html.Screen,4_15_0,2023-09-08T19:48:55.542Z,,0,1,,3551.5079999761656,response,ISIC_2046891.JPG,6,ISIC_0027101.JPG,ISIC_2046891.JPG,false,1,keypress(m),500,147257.20000004768,147256.89999997616,143688.645,143703.70000004768,143705.392,147271.872,8,400,16,,ISIC_0027101.JPG
break,html.Screen,4_15_1,2023-09-08T19:48:55.543Z,,0,,,NaN,,,,,,false,,,,147258.5,147258.20000004768,,147257.39999997616,,147271.872,8,400,,,
break_continue,html.Screen,4_15_2,2023-09-08T19:48:55.543Z,,0,,,NaN,,,,,,false,,,,147259.10000002384,147259,,147258.70000004768,,147271.872,8,400,,,
sequence,flow.Sequence,4_15,2023-09-08T19:48:55.544Z,,0,,,3553.6080000000075,completion,,,,,false,,,,147259.29999995232,147259,143688.645,143703.70000004768,143705.392,147271.872,8,400,,,
trial,html.Screen,4_16_0,2023-09-08T19:48:58.697Z,,0,1,,3140.8280000476807,response,ISIC_7185036.JPG,7,ISIC_0000146.JPG,ISIC_0000146.JPG,false,0,keypress(z),500,150412.89999997616,150412.70000004768,147255.196,147259.39999997616,147271.872,150421.738,8,400,17,,ISIC_7185036.JPG
break,html.Screen,4_16_1,2023-09-08T19:48:58.698Z,,0,,,NaN,,,,,,false,,,,150414.20000004768,150413.79999995232,,150413.20000004768,,150421.738,8,400,,,
break_continue,html.Screen,4_16_2,2023-09-08T19:48:58.699Z,,0,,,NaN,,,,,,false,,,,150414.79999995232,150414.70000004768,,150414.39999997616,,150421.738,8,400,,,
sequence,flow.Sequence,4_16,2023-09-08T19:48:58.699Z,,0,,,3142.8280000476807,completion,,,,,false,,,,150415,150414.70000004768,147255.196,147259.39999997616,147271.872,150421.738,8,400,,,
trial,html.Screen,4_17_0,2023-09-08T19:49:01.805Z,,0,1,,3098.9620000476716,response,ISIC_0046443.JPG,4,ISIC_0063473.JPG,ISIC_0063473.JPG,false,0,keypress(z),500,153520.89999997616,153520.70000004768,150405.022,150415.20000004768,150421.738,153538.355,8,400,18,,ISIC_0046443.JPG
break,html.Screen,4_17_1,2023-09-08T19:49:01.807Z,,0,,,NaN,,,,,,false,,,,153522.20000004768,153521.79999995232,,153521.20000004768,,153538.355,8,400,,,
break_continue,html.Screen,4_17_2,2023-09-08T19:49:01.807Z,,0,,,NaN,,,,,,false,,,,153522.89999997616,153522.70000004768,,153522.39999997616,,153538.355,8,400,,,
sequence,flow.Sequence,4_17,2023-09-08T19:49:01.807Z,,0,,,3100.9620000476716,completion,,,,,false,,,,153523.10000002384,153522.70000004768,150405.022,150415.20000004768,150421.738,153538.355,8,400,,,
trial,html.Screen,4_18_0,2023-09-08T19:49:04.849Z,,0,1,,3026.0449999761477,response,ISIC_0065463.JPG,5,ISIC_0014987.JPG,ISIC_0014987.JPG,false,0,keypress(z),500,156564.70000004768,156564.39999997616,153521.565,153523.29999995232,153538.355,156571.609,8,400,19,,ISIC_0065463.JPG
break,html.Screen,4_18_1,2023-09-08T19:49:04.850Z,,0,,,NaN,,,,,,false,,,,156566,156565.60000002384,,156565,,156571.609,8,400,,,
break_continue,html.Screen,4_18_2,2023-09-08T19:49:04.851Z,,0,,,NaN,,,,,,false,,,,156566.5,156566.39999997616,,156566.10000002384,,156571.609,8,400,,,
sequence,flow.Sequence,4_18,2023-09-08T19:49:04.851Z,,0,,,3028.0449999761477,completion,,,,,false,,,,156566.70000004768,156566.39999997616,153521.565,153523.20000004768,153538.355,156571.609,8,400,,,
trial,html.Screen,4_19_0,2023-09-08T19:49:07.766Z,,0,1,,2909.3910000000033,response,ISIC_0072694.JPG,5,ISIC_4602691.JPG,ISIC_0072694.JPG,false,1,keypress(m),500,159481.29999995232,159481,156554.914,156566.79999995232,156571.609,159488.179,8,400,20,,ISIC_4602691.JPG
break,html.Screen,4_19_1,2023-09-08T19:49:07.767Z,,0,,,NaN,,,,,,false,,,,159482.5,159482.20000004768,,159481.5,,159488.179,8,400,,,
break_continue,html.Screen,4_19_2,2023-09-08T19:49:07.767Z,,0,,,NaN,,,,,,false,,,,159483.10000002384,159483,,159482.70000004768,,159488.179,8,400,,,
sequence,flow.Sequence,4_19,2023-09-08T19:49:07.768Z,,0,,,2911.3910000000033,completion,,,,,false,,,,159483.20000004768,159483,156554.914,156566.79999995232,156571.609,159488.179,8,400,,,
trial,html.Screen,4_20_0,2023-09-08T19:49:10.476Z,,0,1,,2703.421000023838,response,ISIC_0014181.JPG,5,ISIC_0046429.JPG,ISIC_0046429.JPG,false,0,keypress(z),500,162191.79999995232,162191.60000002384,159471.498,159483.39999997616,159488.179,162204.629,8,400,21,,ISIC_0014181.JPG
break,html.Screen,4_20_1,2023-09-08T19:49:10.477Z,,0,,,NaN,,,,,,false,,,,162192.5,162192.29999995232,,162191.89999997616,,162204.629,8,400,,,
break_continue,html.Screen,4_20_2,2023-09-08T19:49:10.477Z,,0,,,NaN,,,,,,false,,,,162192.89999997616,162192.70000004768,,162192.5,,162204.629,8,400,,,
sequence,flow.Sequence,4_20,2023-09-08T19:49:10.477Z,,0,,,2704.52100004768,completion,,,,,false,,,,162192.89999997616,162192.70000004768,159471.498,159483.39999997616,159488.179,162204.629,8,400,,,
trial,html.Screen,4_21_0,2023-09-08T19:49:13.775Z,,0,1,,3286.0710000476975,response,ISIC_6423964.JPG,5,ISIC_0026627.JPG,ISIC_0026627.JPG,false,0,keypress(z),500,165491,165490.70000004768,162187.992,162193,162204.629,165504.575,8,400,22,,ISIC_6423964.JPG
break,html.Screen,4_21_1,2023-09-08T19:49:13.777Z,,0,,,NaN,,,,,,false,,,,165492.20000004768,165491.89999997616,,165491.20000004768,,165504.575,8,400,,,
break_continue,html.Screen,4_21_2,2023-09-08T19:49:13.777Z,,0,,,NaN,,,,,,false,,,,165492.79999995232,165492.60000002384,,165492.39999997616,,165504.575,8,400,,,
sequence,flow.Sequence,4_21,2023-09-08T19:49:13.777Z,,0,,,3287.9710000238556,completion,,,,,false,,,,165493,165492.60000002384,162187.992,162193,162204.629,165504.575,8,400,,,
trial,html.Screen,4_22_0,2023-09-08T19:49:16.963Z,,0,1,,3173.9249999999884,response,ISIC_0027089.JPG,5,ISIC_0015167.JPG,ISIC_0015167.JPG,false,0,keypress(z),500,168678.79999995232,168678.5,165487.847,165493.10000002384,165504.575,168687.715,8,400,23,,ISIC_0027089.JPG
break,html.Screen,4_22_1,2023-09-08T19:49:16.964Z,,0,,,NaN,,,,,,false,,,,168680.10000002384,168679.79999995232,,168679,,168687.715,8,400,,,
break_continue,html.Screen,4_22_2,2023-09-08T19:49:16.965Z,,0,,,NaN,,,,,,false,,,,168680.70000004768,168680.5,,168680.29999995232,,168687.715,8,400,,,
sequence,flow.Sequence,4_22,2023-09-08T19:49:16.965Z,,0,,,3175.9249999999884,completion,,,,,false,,,,168680.79999995232,168680.5,165487.847,165493.10000002384,165504.575,168687.715,8,400,,,
trial,html.Screen,4_23_0,2023-09-08T19:49:20.535Z,,0,1,,3563.1849999761616,response,ISIC_0058125.JPG,4,ISIC_4554863.JPG,ISIC_4554863.JPG,false,0,keypress(z),500,172251.20000004768,172250.89999997616,168671.084,168681,168687.715,172254.322,8,400,24,,ISIC_0058125.JPG
break,html.Screen,4_23_1,2023-09-08T19:49:20.537Z,,0,,,NaN,,,,,,false,,,,172252.5,172252,,172251.39999997616,,172254.322,8,400,,,
break_continue,html.Screen,4_23_2,2023-09-08T19:49:20.537Z,,0,,,NaN,,,,,,false,,,,172253,172252.89999997616,,172252.60000002384,,172254.322,8,400,,,
sequence,flow.Sequence,4_23,2023-09-08T19:49:20.538Z,,0,,,3565.1849999761616,completion,,,,,false,,,,172253.20000004768,172252.89999997616,168671.084,168681,168687.715,172254.322,8,400,,,
trial,html.Screen,4_24_0,2023-09-08T19:49:23.963Z,,0,1,,3424.5779999761726,response,ISIC_0014936.JPG,5,ISIC_0032617.JPG,ISIC_0014936.JPG,false,1,keypress(m),500,175679.20000004768,175678.89999997616,172238.181,172253.39999997616,172254.322,175687.576,8,400,25,,ISIC_0032617.JPG
break,html.Screen,4_24_1,2023-09-08T19:49:23.965Z,,0,,,NaN,,,,,,false,,,,175680.5,175680.10000002384,,175679.39999997616,,175687.576,8,400,,,
break_continue,html.Screen,4_24_2,2023-09-08T19:49:23.965Z,,0,,,NaN,,,,,,false,,,,175681,175680.89999997616,,175680.60000002384,,175687.576,8,400,,,
sequence,flow.Sequence,4_24,2023-09-08T19:49:23.965Z,,0,,,3426.5779999761726,completion,,,,,false,,,,175681.10000002384,175680.89999997616,172238.181,172253.39999997616,172254.322,175687.576,8,400,,,
trial,html.Screen,4_25_0,2023-09-08T19:49:27.670Z,,0,1,,3698.2239999523154,response,ISIC_0399220.JPG,5,ISIC_0012055.JPG,ISIC_0012055.JPG,false,0,keypress(z),500,179386,179385.79999995232,175670.852,175681.29999995232,175687.576,179404.842,8,400,26,,ISIC_0399220.JPG
break,html.Screen,4_25_1,2023-09-08T19:49:27.671Z,,0,,,NaN,,,,,,false,,,,179386.70000004768,179386.60000002384,,179386.10000002384,,179404.842,8,400,,,
break_continue,html.Screen,4_25_2,2023-09-08T19:49:27.671Z,,0,,,NaN,,,,,,false,,,,179387,179386.89999997616,,179386.79999995232,,179404.842,8,400,,,
sequence,flow.Sequence,4_25,2023-09-08T19:49:27.671Z,,0,,,3699.323999976157,completion,,,,,false,,,,179387.10000002384,179386.89999997616,175670.852,175681.29999995232,175687.576,179404.842,8,400,,,
trial,html.Screen,4_26_0,2023-09-08T19:49:30.985Z,,0,1,,3295.8580000476795,response,ISIC_2804864.JPG,5,ISIC_0032841.JPG,ISIC_0032841.JPG,false,0,keypress(z),500,182701,182700.70000004768,179370.588,179387.20000004768,179404.842,182703.919,8,400,27,,ISIC_2804864.JPG
break,html.Screen,4_26_1,2023-09-08T19:49:30.987Z,,0,,,NaN,,,,,,false,,,,182702.39999997616,182702,,182701.29999995232,,182703.919,8,400,,,
break_continue,html.Screen,4_26_2,2023-09-08T19:49:30.987Z,,0,,,NaN,,,,,,false,,,,182703.10000002384,182702.89999997616,,182702.60000002384,,182703.919,8,400,,,
sequence,flow.Sequence,4_26,2023-09-08T19:49:30.987Z,,0,,,3298.057999976154,completion,,,,,false,,,,182703.20000004768,182702.89999997616,179370.588,179387.20000004768,179404.842,182703.919,8,400,,,
trial,html.Screen,4_27_0,2023-09-08T19:49:34.226Z,,0,1,,3237.380999952322,response,ISIC_0068000.JPG,5,ISIC_9788545.JPG,ISIC_9788545.JPG,false,0,keypress(z),500,185941.60000002384,185941.29999995232,182687.331,182703.29999995232,182703.919,185953.749,8,400,28,,ISIC_0068000.JPG
break,html.Screen,4_27_1,2023-09-08T19:49:34.227Z,,0,,,NaN,,,,,,false,,,,185942.89999997616,185942.5,,185941.79999995232,,185953.749,8,400,,,
break_continue,html.Screen,4_27_2,2023-09-08T19:49:34.228Z,,0,,,NaN,,,,,,false,,,,185943.5,185943.29999995232,,185943.10000002384,,185953.749,8,400,,,
sequence,flow.Sequence,4_27,2023-09-08T19:49:34.228Z,,0,,,3239.380999952322,completion,,,,,false,,,,185943.60000002384,185943.29999995232,182687.331,182703.29999995232,182703.919,185953.749,8,400,,,
trial,html.Screen,4_28_0,2023-09-08T19:49:36.934Z,,0,1,,2695.951000047673,response,ISIC_2882237.JPG,4,ISIC_0485529.JPG,ISIC_2882237.JPG,false,1,keypress(m),500,188649.89999997616,188649.70000004768,185937.18,185943.70000004768,185953.749,188653.748,8,400,29,,ISIC_0485529.JPG
break,html.Screen,4_28_1,2023-09-08T19:49:36.935Z,,0,,,NaN,,,,,,false,,,,188651.10000002384,188650.79999995232,,188650.20000004768,,188653.748,8,400,,,
break_continue,html.Screen,4_28_2,2023-09-08T19:49:36.936Z,,0,,,NaN,,,,,,false,,,,188651.60000002384,188651.5,,188651.29999995232,,188653.748,8,400,,,
sequence,flow.Sequence,4_28,2023-09-08T19:49:36.936Z,,0,,,2697.7509999999893,completion,,,,,false,,,,188651.89999997616,188651.5,185937.18,185943.70000004768,185953.749,188653.748,8,400,,,
trial,html.Screen,4_29_0,2023-09-08T19:49:39.882Z,,0,1,,2943.9520000476914,response,ISIC_5410481.JPG,5,ISIC_7575246.JPG,ISIC_7575246.JPG,false,0,keypress(z),500,191598,191597.70000004768,188636.961,188652,188653.748,191603.677,8,400,30,,ISIC_5410481.JPG
break,html.Screen,4_29_1,2023-09-08T19:49:39.884Z,,0,,,NaN,,,,,,false,,,,191599.20000004768,191598.89999997616,,191598.29999995232,,191603.677,8,400,,,
break_continue,html.Screen,4_29_2,2023-09-08T19:49:39.884Z,,0,,,NaN,,,,,,false,,,,191599.70000004768,191599.60000002384,,191599.39999997616,,191603.677,8,400,,,
sequence,flow.Sequence,4_29,2023-09-08T19:49:39.884Z,,0,,,2945.8520000238495,completion,,,,,false,,,,191599.89999997616,191599.60000002384,188636.961,188652,188653.748,191603.677,8,400,,,
trial,html.Screen,4_30_0,2023-09-08T19:49:42.654Z,,0,1,,2765.923000023846,response,ISIC_0232101.JPG,6,ISIC_0027620.JPG,ISIC_0027620.JPG,false,0,keypress(z),500,194369.79999995232,194369.60000002384,191586.797,191600.10000002384,191603.677,194386.763,8,400,31,,ISIC_0232101.JPG
break,html.Screen,4_30_1,2023-09-08T19:49:42.655Z,,0,,,NaN,,,,,,false,,,,194371,194370.70000004768,,194370,,194386.763,8,400,,,
break_continue,html.Screen,4_30_2,2023-09-08T19:49:42.656Z,,0,,,NaN,,,,,,false,,,,194371.60000002384,194371.39999997616,,194371.10000002384,,194386.763,8,400,,,
sequence,flow.Sequence,4_30,2023-09-08T19:49:42.656Z,,0,,,2767.722999976162,completion,,,,,false,,,,194371.70000004768,194371.39999997616,191586.797,191600.10000002384,191603.677,194386.763,8,400,,,
trial,html.Screen,4_31_0,2023-09-08T19:49:45.209Z,,0,1,,2537.8370000238356,response,ISIC_7763831.JPG,4,ISIC_0057617.JPG,ISIC_0057617.JPG,false,0,keypress(z),500,196924.79999995232,196924.60000002384,194370.191,194371.79999995232,194386.763,196936.719,8,400,32,,ISIC_7763831.JPG
break,html.Screen,4_31_1,2023-09-08T19:49:45.211Z,,0,,,NaN,,,,,,false,,,,196926.20000004768,196925.89999997616,,196925.10000002384,,196936.719,8,400,,,
break_continue,html.Screen,4_31_2,2023-09-08T19:49:45.211Z,,0,,,NaN,,,,,,false,,,,196926.89999997616,196926.70000004768,,196926.5,,196936.719,8,400,,,
sequence,flow.Sequence,4_31,2023-09-08T19:49:45.211Z,,0,,,2539.9370000476774,completion,,,,,false,,,,196927.10000002384,196926.70000004768,194370.191,194371.79999995232,194386.763,196936.719,8,400,,,
trial,html.Screen,4_32_0,2023-09-08T19:49:48.461Z,,0,1,,3239.5809999523044,response,ISIC_0032699.JPG,5,ISIC_0029723.JPG,ISIC_0032699.JPG,false,1,keypress(m),500,200176.60000002384,200176.29999995232,196920.055,196927.20000004768,196936.719,200186.559,8,400,33,,ISIC_0029723.JPG
break,html.Screen,4_32_1,2023-09-08T19:49:48.462Z,,0,,,NaN,,,,,,false,,,,200177.89999997616,200177.60000002384,,200176.79999995232,,200186.559,8,400,,,
break_continue,html.Screen,4_32_2,2023-09-08T19:49:48.463Z,,0,,,NaN,,,,,,false,,,,200178.5,200178.39999997616,,200178.10000002384,,200186.559,8,400,,,
sequence,flow.Sequence,4_32,2023-09-08T19:49:48.463Z,,0,,,3241.6809999761463,completion,,,,,false,,,,200178.60000002384,200178.39999997616,196920.055,196927.10000002384,196936.719,200186.559,8,400,,,
trial,html.Screen,4_33_0,2023-09-08T19:49:51.329Z,,0,1,,2857.9409999999916,response,ISIC_9529297.JPG,5,ISIC_3213469.JPG,ISIC_3213469.JPG,false,0,keypress(z),500,203044.79999995232,203044.5,200169.864,200178.89999997616,200186.559,203053.124,8,400,34,,ISIC_9529297.JPG
break,html.Screen,4_33_1,2023-09-08T19:49:51.330Z,,0,,,NaN,,,,,,false,,,,203046,203045.70000004768,,203045,,203053.124,8,400,,,
break_continue,html.Screen,4_33_2,2023-09-08T19:49:51.331Z,,0,,,NaN,,,,,,false,,,,203046.5,203046.29999995232,,203046.20000004768,,203053.124,8,400,,,
sequence,flow.Sequence,4_33,2023-09-08T19:49:51.331Z,,0,,,2859.740999952308,completion,,,,,false,,,,203046.70000004768,203046.29999995232,200169.864,200178.70000004768,200186.559,203053.124,8,400,,,
trial,html.Screen,4_34_0,2023-09-08T19:49:54.021Z,,0,1,,2682.976000023831,response,ISIC_5338721.JPG,4,ISIC_0033730.JPG,ISIC_0033730.JPG,false,0,keypress(z),500,205736.39999997616,205736.10000002384,203036.345,203046.89999997616,203053.124,205752.993,8,400,35,,ISIC_5338721.JPG
break,html.Screen,4_34_1,2023-09-08T19:49:54.022Z,,0,,,NaN,,,,,,false,,,,205737.70000004768,205737.20000004768,,205736.60000002384,,205752.993,8,400,,,
break_continue,html.Screen,4_34_2,2023-09-08T19:49:54.022Z,,0,,,NaN,,,,,,false,,,,205738.20000004768,205738.10000002384,,205737.79999995232,,205752.993,8,400,,,
sequence,flow.Sequence,4_34,2023-09-08T19:49:54.023Z,,0,,,2684.976000023831,completion,,,,,false,,,,205738.39999997616,205738.10000002384,203036.345,203046.79999995232,203053.124,205752.993,8,400,,,
trial,html.Screen,4_35_0,2023-09-08T19:49:56.730Z,,0,1,,2692.5070000000123,response,ISIC_6180870.JPG,6,ISIC_6208708.JPG,ISIC_6208708.JPG,false,0,keypress(z),500,208445.70000004768,208445.5,205736.351,205738.60000002384,205752.993,208452.876,8,400,36,,ISIC_6180870.JPG
break,html.Screen,4_35_1,2023-09-08T19:49:56.732Z,,0,,,NaN,,,,,,false,,,,208447.70000004768,208446.79999995232,,208446,,208452.876,8,400,,,
break_continue,html.Screen,4_35_2,2023-09-08T19:49:56.733Z,,0,,,NaN,,,,,,false,,,,208448.39999997616,208448.10000002384,,208448,,208452.876,8,400,,,
sequence,flow.Sequence,4_35,2023-09-08T19:49:56.733Z,,0,,,2695.107000023854,completion,,,,,false,,,,208448.70000004768,208448.10000002384,205736.351,205738.5,205752.993,208452.876,8,400,,,
trial,html.Screen,4_36_0,2023-09-08T19:49:59.615Z,,0,1,,2877.423999952327,response,ISIC_7278885.JPG,4,ISIC_2064934.JPG,ISIC_7278885.JPG,false,1,keypress(m),500,211330.60000002384,211330.29999995232,208436.23,208448.79999995232,208452.876,211336.205,8,400,37,,ISIC_2064934.JPG
break,html.Screen,4_36_1,2023-09-08T19:49:59.616Z,,0,,,NaN,,,,,,false,,,,211331.89999997616,211331.5,,211330.89999997616,,211336.205,8,400,,,
break_continue,html.Screen,4_36_2,2023-09-08T19:49:59.617Z,,0,,,NaN,,,,,,false,,,,211332.39999997616,211332.29999995232,,211332,,211336.205,8,400,,,
sequence,flow.Sequence,4_36,2023-09-08T19:49:59.617Z,,0,,,2879.423999952327,completion,,,,,false,,,,211332.60000002384,211332.29999995232,208436.23,208448.79999995232,208452.876,211336.205,8,400,,,
trial,html.Screen,4_37_0,2023-09-08T19:50:02.341Z,,0,1,,2720.094999952329,response,ISIC_7508320.JPG,5,ISIC_0011030.JPG,ISIC_7508320.JPG,false,1,keypress(m),500,214056.60000002384,214056.29999995232,211319.46,211332.79999995232,211336.205,214069.313,8,400,38,,ISIC_0011030.JPG
break,html.Screen,4_37_1,2023-09-08T19:50:02.342Z,,0,,,NaN,,,,,,false,,,,214057.89999997616,214057.60000002384,,214056.79999995232,,214069.313,8,400,,,
break_continue,html.Screen,4_37_2,2023-09-08T19:50:02.343Z,,0,,,NaN,,,,,,false,,,,214058.5,214058.39999997616,,214058.10000002384,,214069.313,8,400,,,
sequence,flow.Sequence,4_37,2023-09-08T19:50:02.343Z,,0,,,2722.194999976171,completion,,,,,false,,,,214058.70000004768,214058.39999997616,211319.46,211332.70000004768,211336.205,214069.313,8,400,,,
trial,html.Screen,4_38_0,2023-09-08T19:50:05.561Z,,0,1,,3206.787000023847,response,ISIC_0027881.JPG,4,ISIC_0065823.JPG,ISIC_0065823.JPG,false,0,keypress(z),500,217276.39999997616,217276.10000002384,214052.661,214058.89999997616,214069.313,217285.99,8,400,39,,ISIC_0027881.JPG
break,html.Screen,4_38_1,2023-09-08T19:50:05.562Z,,0,,,NaN,,,,,,false,,,,217277.79999995232,217277.5,,217276.70000004768,,217285.99,8,400,,,
break_continue,html.Screen,4_38_2,2023-09-08T19:50:05.563Z,,0,,,NaN,,,,,,false,,,,217278.29999995232,217278.20000004768,,217278,,217285.99,8,400,,,
sequence,flow.Sequence,4_38,2023-09-08T19:50:05.563Z,,0,,,3208.887000047689,completion,,,,,false,,,,217278.5,217278.20000004768,214052.661,214058.79999995232,214069.313,217285.99,8,400,,,
trial,html.Screen,4_39_0,2023-09-08T19:50:08.525Z,,0,1,,2954.5100000000093,response,ISIC_0026770.JPG,4,ISIC_0032561.JPG,ISIC_0026770.JPG,false,1,keypress(m),500,220240.79999995232,220240.5,217269.16,217278.70000004768,217285.99,220252.458,8,400,40,,ISIC_0032561.JPG
break,html.Screen,4_39_1,2023-09-08T19:50:08.526Z,,0,,,NaN,,,,,,false,,,,220242,220241.79999995232,,220241,,220252.458,8,400,,,
break_continue,html.Screen,4_39_2,2023-09-08T19:50:08.527Z,,0,,,NaN,,,,,,false,,,,220242.60000002384,220242.5,,220242.20000004768,,220252.458,8,400,,,
sequence,flow.Sequence,4_39,2023-09-08T19:50:08.527Z,,0,,,2956.5100000000093,completion,,,,,false,,,,220242.79999995232,220242.5,217269.16,217278.60000002384,217285.99,220252.458,8,400,,,
trial,html.Screen,4_40_0,2023-09-08T19:50:11.826Z,,0,1,,3288.941999976145,response,ISIC_0305928.JPG,4,ISIC_3965872.JPG,ISIC_0305928.JPG,false,1,keypress(m),500,223541.70000004768,223541.39999997616,220235.863,220242.89999997616,220252.458,223552.379,8,400,41,,ISIC_3965872.JPG
break,html.Screen,4_40_1,2023-09-08T19:50:11.827Z,,0,,,NaN,,,,,,false,,,,223542.89999997616,223542.60000002384,,223541.89999997616,,223552.379,8,400,,,
break_continue,html.Screen,4_40_2,2023-09-08T19:50:11.828Z,,0,,,NaN,,,,,,false,,,,223543.39999997616,223543.29999995232,,223543.10000002384,,223552.379,8,400,,,
sequence,flow.Sequence,4_40,2023-09-08T19:50:11.828Z,,0,,,3290.841999952303,completion,,,,,false,,,,223543.70000004768,223543.29999995232,220235.863,220242.89999997616,220252.458,223552.379,8,400,,,
trial,html.Screen,4_41_0,2023-09-08T19:50:15.814Z,,0,1,,3976.6210000000137,response,ISIC_0031553.JPG,5,ISIC_0032629.JPG,ISIC_0031553.JPG,false,1,keypress(m),500,227529.29999995232,227529,223535.549,223543.79999995232,223552.379,227535.567,8,400,42,,ISIC_0032629.JPG
break,html.Screen,4_41_1,2023-09-08T19:50:15.815Z,,0,,,NaN,,,,,,false,,,,227530.60000002384,227530.10000002384,,227529.5,,227535.567,8,400,,,
break_continue,html.Screen,4_41_2,2023-09-08T19:50:15.815Z,,0,,,NaN,,,,,,false,,,,227531.10000002384,227531,,227530.70000004768,,227535.567,8,400,,,
sequence,flow.Sequence,4_41,2023-09-08T19:50:15.816Z,,0,,,3978.6210000000137,completion,,,,,false,,,,227531.39999997616,227531,223535.549,223543.79999995232,223552.379,227535.567,8,400,,,
trial,html.Screen,4_42_0,2023-09-08T19:50:19.066Z,,0,1,,3246.1330000476737,response,ISIC_0056655.JPG,6,ISIC_0055087.JPG,ISIC_0055087.JPG,false,0,keypress(z),500,230781.79999995232,230781.70000004768,227518.976,227531.5,227535.567,230785.392,8,400,43,,ISIC_0056655.JPG
break,html.Screen,4_42_1,2023-09-08T19:50:19.067Z,,0,,,NaN,,,,,,false,,,,230782.5,230782.29999995232,,230782,,230785.392,8,400,,,
break_continue,html.Screen,4_42_2,2023-09-08T19:50:19.067Z,,0,,,NaN,,,,,,false,,,,230783,230782.79999995232,,230782.70000004768,,230785.392,8,400,,,
sequence,flow.Sequence,4_42,2023-09-08T19:50:19.067Z,,0,,,3247.2329999523063,completion,,,,,false,,,,230783.10000002384,230782.79999995232,227518.976,227531.5,227535.567,230785.392,8,400,,,
trial,html.Screen,4_43_0,2023-09-08T19:50:22.208Z,,0,1,,3138.308000047691,response,ISIC_0005239.JPG,5,ISIC_3884221.JPG,ISIC_3884221.JPG,false,0,keypress(z),500,233924,233923.70000004768,230768.668,230783.20000004768,230785.392,233935.295,8,400,44,,ISIC_0005239.JPG
break,html.Screen,4_43_1,2023-09-08T19:50:22.210Z,,0,,,NaN,,,,,,false,,,,233925.39999997616,233925.10000002384,,233924.20000004768,,233935.295,8,400,,,
break_continue,html.Screen,4_43_2,2023-09-08T19:50:22.210Z,,0,,,NaN,,,,,,false,,,,233925.89999997616,233925.79999995232,,233925.60000002384,,233935.295,8,400,,,
sequence,flow.Sequence,4_43,2023-09-08T19:50:22.210Z,,0,,,3140.4079999523237,completion,,,,,false,,,,233926.10000002384,233925.79999995232,230768.668,230783.10000002384,230785.392,233935.295,8,400,,,
trial,html.Screen,4_44_0,2023-09-08T19:50:25.909Z,,0,1,,3688.805000023829,response,ISIC_1615996.JPG,5,ISIC_0046571.JPG,ISIC_1615996.JPG,false,1,keypress(m),500,237624.39999997616,237624.10000002384,233918.629,233926.29999995232,233935.295,237635.242,8,400,45,,ISIC_0046571.JPG
break,html.Screen,4_44_1,2023-09-08T19:50:25.910Z,,0,,,NaN,,,,,,false,,,,237625.70000004768,237625.5,,237624.60000002384,,237635.242,8,400,,,
break_continue,html.Screen,4_44_2,2023-09-08T19:50:25.911Z,,0,,,NaN,,,,,,false,,,,237626.39999997616,237626.20000004768,,237626,,237635.242,8,400,,,
sequence,flow.Sequence,4_44,2023-09-08T19:50:25.911Z,,0,,,3690.905000047671,completion,,,,,false,,,,237626.60000002384,237626.20000004768,233918.629,233926.20000004768,233935.295,237635.242,8,400,,,
trial,html.Screen,4_45_0,2023-09-08T19:50:28.665Z,,0,1,,2744.6579999761598,response,ISIC_5702591.JPG,5,ISIC_0350472.JPG,ISIC_5702591.JPG,false,1,keypress(m),500,240380.20000004768,240379.89999997616,237619.062,237626.79999995232,237635.242,240385.027,8,400,46,,ISIC_0350472.JPG
break,html.Screen,4_45_1,2023-09-08T19:50:28.666Z,,0,,,NaN,,,,,,false,,,,240381.60000002384,240381.10000002384,,240380.5,,240385.027,8,400,,,
break_continue,html.Screen,4_45_2,2023-09-08T19:50:28.666Z,,0,,,NaN,,,,,,false,,,,240382.10000002384,240381.89999997616,,240381.70000004768,,240385.027,8,400,,,
sequence,flow.Sequence,4_45,2023-09-08T19:50:28.667Z,,0,,,2746.6579999761598,completion,,,,,false,,,,240382.29999995232,240381.89999997616,237619.062,237626.70000004768,237635.242,240385.027,8,400,,,
trial,html.Screen,4_46_0,2023-09-08T19:50:32.493Z,,0,1,,3823.2729999523144,response,ISIC_4732684.JPG,5,ISIC_0011295.JPG,ISIC_4732684.JPG,false,1,keypress(m),500,244208.60000002384,244208.29999995232,240368.325,240382.39999997616,240385.027,244218.315,8,400,47,,ISIC_0011295.JPG
break,html.Screen,4_46_1,2023-09-08T19:50:32.494Z,,0,,,NaN,,,,,,false,,,,244210,244209.60000002384,,244208.79999995232,,244218.315,8,400,,,
break_continue,html.Screen,4_46_2,2023-09-08T19:50:32.495Z,,0,,,NaN,,,,,,false,,,,244210.39999997616,244210.29999995232,,244210.10000002384,,244218.315,8,400,,,
sequence,flow.Sequence,4_46,2023-09-08T19:50:32.495Z,,0,,,3825.2729999523144,completion,,,,,false,,,,244210.60000002384,244210.29999995232,240368.325,240382.39999997616,240385.027,244218.315,8,400,,,
trial,html.Screen,4_47_0,2023-09-08T19:50:36.433Z,,0,1,,3929.6849999999977,response,ISIC_0008881.JPG,4,ISIC_0055169.JPG,ISIC_0055169.JPG,false,0,keypress(z),500,248148.20000004768,248148,244201.554,244210.79999995232,244218.315,248151.489,8,400,48,,ISIC_0008881.JPG
break,html.Screen,4_47_1,2023-09-08T19:50:36.434Z,,0,,,NaN,,,,,,false,,,,248149.60000002384,248149.20000004768,,248148.5,,248151.489,8,400,,,
break_continue,html.Screen,4_47_2,2023-09-08T19:50:36.434Z,,0,,,NaN,,,,,,false,,,,248150.10000002384,248149.89999997616,,248149.79999995232,,248151.489,8,400,,,
sequence,flow.Sequence,4_47,2023-09-08T19:50:36.435Z,,0,,,3931.584999976156,completion,,,,,false,,,,248150.29999995232,248149.89999997616,244201.554,244210.79999995232,244218.315,248151.489,8,400,,,
trial,html.Screen,4_48_0,2023-09-08T19:50:39.878Z,,0,1,,3441.9109999761567,response,ISIC_6435644.JPG,5,ISIC_0028239.JPG,ISIC_0028239.JPG,false,0,keypress(z),500,251593.5,251593.39999997616,248134.696,248150.39999997616,248151.489,251601.257,8,400,49,,ISIC_6435644.JPG
break,html.Screen,4_48_1,2023-09-08T19:50:39.879Z,,0,,,NaN,,,,,,false,,,,251594.5,251594.29999995232,,251593.70000004768,,251601.257,8,400,,,
break_continue,html.Screen,4_48_2,2023-09-08T19:50:39.879Z,,0,,,NaN,,,,,,false,,,,251595,251594.89999997616,,251594.70000004768,,251601.257,8,400,,,
sequence,flow.Sequence,4_48,2023-09-08T19:50:39.879Z,,0,,,3443.4109999761567,completion,,,,,false,,,,251595.20000004768,251594.89999997616,248134.696,248150.39999997616,248151.489,251601.257,8,400,,,
trial,html.Screen,4_49_0,2023-09-08T19:50:42.538Z,,0,1,,2652.3430000238295,response,ISIC_0030392.JPG,5,ISIC_4526581.JPG,ISIC_0030392.JPG,false,1,keypress(m),500,254253.89999997616,254253.60000002384,251584.5,251595.29999995232,251601.257,254267.786,8,400,50,,ISIC_4526581.JPG
break,html.Screen,4_49_1,2023-09-08T19:50:52.536Z,,0,,,9999.654999999999,timeout,,,,,false,,,,264251.2999999523,264250.766,254251.319,254254,254267.786,264267.441,8,400,,,
break_continue,html.Screen,4_49_2,2023-09-08T19:50:53.465Z,,0,,,901.4589999761665,response,,,,,false,continue,keypress(Space),,265181.2000000477,265168.89999997616,264250.766,264251.2999999523,264267.441,265184.079,8,400,,,
sequence,flow.Sequence,4_49,2023-09-08T19:50:53.466Z,,0,,,13567.642999976146,completion,,,,,false,,,,265181.2999999523,265168.89999997616,251584.5,251595.29999995232,251601.257,265184.079,8,400,,,
trial,html.Screen,4_50_0,2023-09-08T19:50:57.648Z,,0,2,,4179.621000047657,response,ISIC_0060999.JPG,5,ISIC_0069056.JPG,ISIC_0060999.JPG,false,1,keypress(m),500,269364,269363.7000000477,265167.285,265181.2999999523,265184.079,269367.335,8,400,1,,ISIC_0069056.JPG
break,html.Screen,4_50_1,2023-09-08T19:50:57.649Z,,0,,,NaN,,,,,,false,,,,269365.10000002384,269364.7999999523,,269364.2000000477,,269367.335,8,400,,,
break_continue,html.Screen,4_50_2,2023-09-08T19:50:57.650Z,,0,,,NaN,,,,,,false,,,,269365.60000002384,269365.5,,269365.2999999523,,269367.335,8,400,,,
sequence,flow.Sequence,4_50,2023-09-08T19:50:57.650Z,,0,,,4181.420999999973,completion,,,,,false,,,,269365.7999999523,269365.5,265167.285,265181.2999999523,265184.079,269367.335,8,400,,,
trial,html.Screen,4_51_0,2023-09-08T19:51:00.502Z,,0,2,,2849.765000023821,response,ISIC_0032790.JPG,5,ISIC_1155782.JPG,ISIC_0032790.JPG,false,1,keypress(m),500,272217.2999999523,272217.10000002384,269350.525,269366,269367.335,272233.781,8,400,2,,ISIC_1155782.JPG
break,html.Screen,4_51_1,2023-09-08T19:51:00.503Z,,0,,,NaN,,,,,,false,,,,272218.5,272218.2000000477,,272217.5,,272233.781,8,400,,,
break_continue,html.Screen,4_51_2,2023-09-08T19:51:00.503Z,,0,,,NaN,,,,,,false,,,,272219,272218.7999999523,,272218.60000002384,,272233.781,8,400,,,
sequence,flow.Sequence,4_51,2023-09-08T19:51:00.503Z,,0,,,2851.4649999522953,completion,,,,,false,,,,272219.2000000477,272218.7999999523,269350.525,269366,269367.335,272233.781,8,400,,,
trial,html.Screen,4_52_0,2023-09-08T19:51:03.264Z,,0,2,,2746.2189999999828,response,ISIC_0031337.JPG,5,ISIC_9225640.JPG,ISIC_0031337.JPG,false,1,keypress(m),500,274980.2000000477,274980,272217.131,272219.39999997616,272233.781,274983.787,8,400,3,,ISIC_9225640.JPG
break,html.Screen,4_52_1,2023-09-08T19:51:03.266Z,,0,,,NaN,,,,,,false,,,,274981.5,274981.2000000477,,274980.39999997616,,274983.787,8,400,,,
break_continue,html.Screen,4_52_2,2023-09-08T19:51:03.266Z,,0,,,NaN,,,,,,false,,,,274982.10000002384,274981.89999997616,,274981.7000000477,,274983.787,8,400,,,
sequence,flow.Sequence,4_52,2023-09-08T19:51:03.267Z,,0,,,2748.118999976141,completion,,,,,false,,,,274982.39999997616,274981.89999997616,272217.131,272219.2999999523,272233.781,274983.787,8,400,,,
trial,html.Screen,4_53_0,2023-09-08T19:51:06.485Z,,0,2,,3216.9130000476725,response,ISIC_4293419.JPG,5,ISIC_4614604.JPG,ISIC_4614604.JPG,false,0,keypress(z),500,278200.89999997616,278200.7000000477,274967.04,274982.60000002384,274983.787,278216.888,8,400,4,,ISIC_4293419.JPG
break,html.Screen,4_53_1,2023-09-08T19:51:06.486Z,,0,,,NaN,,,,,,false,,,,278202.10000002384,278201.7999999523,,278201.10000002384,,278216.888,8,400,,,
break_continue,html.Screen,4_53_2,2023-09-08T19:51:06.487Z,,0,,,NaN,,,,,,false,,,,278202.60000002384,278202.39999997616,,278202.2000000477,,278216.888,8,400,,,
sequence,flow.Sequence,4_53,2023-09-08T19:51:06.487Z,,0,,,3218.612999976147,completion,,,,,false,,,,278202.7999999523,278202.39999997616,274967.04,274982.5,274983.787,278216.888,8,400,,,
trial,html.Screen,4_54_0,2023-09-08T19:51:10.048Z,,0,2,,3546.2120000238647,response,ISIC_3391427.JPG,4,ISIC_1071355.JPG,ISIC_3391427.JPG,false,1,keypress(m),500,281763.2999999523,281763.10000002384,278200.191,278202.89999997616,278216.888,281766.865,8,400,5,,ISIC_1071355.JPG
break,html.Screen,4_54_1,2023-09-08T19:51:10.049Z,,0,,,NaN,,,,,,false,,,,281764.60000002384,281764.2999999523,,281763.60000002384,,281766.865,8,400,,,
break_continue,html.Screen,4_54_2,2023-09-08T19:51:10.050Z,,0,,,NaN,,,,,,false,,,,281765.2999999523,281765.10000002384,,281764.7999999523,,281766.865,8,400,,,
sequence,flow.Sequence,4_54,2023-09-08T19:51:10.050Z,,0,,,3548.2120000238647,completion,,,,,false,,,,281765.7999999523,281765.10000002384,278200.191,278202.89999997616,278216.888,281766.865,8,400,,,
trial,html.Screen,4_55_0,2023-09-08T19:51:12.887Z,,0,2,,2835.735000023851,response,ISIC_0027402.JPG,5,ISIC_3298596.JPG,ISIC_0027402.JPG,false,1,keypress(m),500,284602.7999999523,284602.60000002384,281750.12,281767.7999999523,281766.865,284616.716,8,400,6,,ISIC_3298596.JPG
break,html.Screen,4_55_1,2023-09-08T19:51:12.888Z,,0,,,NaN,,,,,,false,,,,284604.10000002384,284603.7999999523,,284603,,284616.716,8,400,,,
break_continue,html.Screen,4_55_2,2023-09-08T19:51:12.889Z,,0,,,NaN,,,,,,false,,,,284604.60000002384,284604.5,,284604.2999999523,,284616.716,8,400,,,
sequence,flow.Sequence,4_55,2023-09-08T19:51:12.889Z,,0,,,2837.6350000000093,completion,,,,,false,,,,284604.89999997616,284604.5,281750.12,281767.60000002384,281766.865,284616.716,8,400,,,
trial,html.Screen,4_56_0,2023-09-08T19:51:16.523Z,,0,2,,3621.783999999985,response,ISIC_2143002.JPG,5,ISIC_9948600.JPG,ISIC_9948600.JPG,false,0,keypress(z),500,288238.7999999523,288238.5,284599.911,284605,284616.716,288266.57,8,400,7,,ISIC_2143002.JPG
break,html.Screen,4_56_1,2023-09-08T19:51:16.524Z,,0,,,NaN,,,,,,false,,,,288239.89999997616,288239.60000002384,,288238.89999997616,,288266.57,8,400,,,
break_continue,html.Screen,4_56_2,2023-09-08T19:51:16.525Z,,0,,,NaN,,,,,,false,,,,288240.39999997616,288240.2999999523,,288240,,288266.57,8,400,,,
sequence,flow.Sequence,4_56,2023-09-08T19:51:16.525Z,,0,,,3623.5839999523014,completion,,,,,false,,,,288240.60000002384,288240.2999999523,284599.911,284605,284616.716,288266.57,8,400,,,
trial,html.Screen,4_57_0,2023-09-08T19:51:19.359Z,,0,2,,2808.2299999523093,response,ISIC_0006118.JPG,4,ISIC_0055282.JPG,ISIC_0055282.JPG,false,0,keypress(z),500,291075.10000002384,291074.7999999523,288249.966,288240.7000000477,288266.57,291083.104,8,400,8,,ISIC_0006118.JPG
break,html.Screen,4_57_1,2023-09-08T19:51:19.361Z,,0,,,NaN,,,,,,false,,,,291076.39999997616,291076.10000002384,,291075.2999999523,,291083.104,8,400,,,
break_continue,html.Screen,4_57_2,2023-09-08T19:51:19.361Z,,0,,,NaN,,,,,,false,,,,291076.7999999523,291076.7000000477,,291076.5,,291083.104,8,400,,,
sequence,flow.Sequence,4_57,2023-09-08T19:51:19.361Z,,0,,,2810.1300000476767,completion,,,,,false,,,,291077,291076.7000000477,288249.966,288240.7000000477,288266.57,291083.104,8,400,,,
trial,html.Screen,4_58_0,2023-09-08T19:51:22.531Z,,0,2,,3163.795999976166,response,ISIC_8348712.JPG,5,ISIC_0054070.JPG,ISIC_0054070.JPG,false,0,keypress(z),500,294247.10000002384,294246.89999997616,291066.348,291077.2000000477,291083.104,294249.644,8,400,9,,ISIC_8348712.JPG
break,html.Screen,4_58_1,2023-09-08T19:51:22.533Z,,0,,,NaN,,,,,,false,,,,294248.5,294248.2000000477,,294247.39999997616,,294249.644,8,400,,,
break_continue,html.Screen,4_58_2,2023-09-08T19:51:22.533Z,,0,,,NaN,,,,,,false,,,,294249.10000002384,294249,,294248.7000000477,,294249.644,8,400,,,
sequence,flow.Sequence,4_58,2023-09-08T19:51:22.534Z,,0,,,3165.896000000008,completion,,,,,false,,,,294249.2000000477,294249,291066.348,291077.2000000477,291083.104,294249.644,8,400,,,
trial,html.Screen,4_59_0,2023-09-08T19:51:26.711Z,,0,2,,4176.856000000029,response,ISIC_0027480.JPG,4,ISIC_0026300.JPG,ISIC_0026300.JPG,false,0,keypress(z),500,298426.7999999523,298426.5,294232.949,294249.39999997616,294249.644,298432.899,8,400,10,,ISIC_0027480.JPG
break,html.Screen,4_59_1,2023-09-08T19:51:26.712Z,,0,,,NaN,,,,,,false,,,,298428.2000000477,298427.7999999523,,298427,,298432.899,8,400,,,
break_continue,html.Screen,4_59_2,2023-09-08T19:51:26.713Z,,0,,,NaN,,,,,,false,,,,298428.7999999523,298428.60000002384,,298428.2999999523,,298432.899,8,400,,,
sequence,flow.Sequence,4_59,2023-09-08T19:51:26.713Z,,0,,,4178.956000023871,completion,,,,,false,,,,298429.10000002384,298428.60000002384,294232.949,294249.2999999523,294249.644,298432.899,8,400,,,
trial,html.Screen,4_60_0,2023-09-08T19:51:30.204Z,,0,2,,3486.701000023866,response,ISIC_0010280.JPG,6,ISIC_0011073.JPG,ISIC_0010280.JPG,false,1,keypress(m),500,301919.89999997616,301919.60000002384,298416.15,298429.2999999523,298432.899,301932.632,8,400,11,,ISIC_0011073.JPG
break,html.Screen,4_60_1,2023-09-08T19:51:30.205Z,,0,,,NaN,,,,,,false,,,,301921.10000002384,301920.7999999523,,301920.2000000477,,301932.632,8,400,,,
break_continue,html.Screen,4_60_2,2023-09-08T19:51:30.206Z,,0,,,NaN,,,,,,false,,,,301921.60000002384,301921.5,,301921.2999999523,,301932.632,8,400,,,
sequence,flow.Sequence,4_60,2023-09-08T19:51:30.206Z,,0,,,3488.601000000024,completion,,,,,false,,,,301921.89999997616,301921.5,298416.15,298429.2000000477,298432.899,301932.632,8,400,,,
trial,html.Screen,4_61_0,2023-09-08T19:51:32.784Z,,0,2,,2566.3680000000168,response,ISIC_0033986.JPG,5,ISIC_2953279.JPG,ISIC_0033986.JPG,false,1,keypress(m),500,304499.2999999523,304499,301915.916,301922,301932.632,304515.877,8,400,12,,ISIC_2953279.JPG
break,html.Screen,4_61_1,2023-09-08T19:51:32.785Z,,0,,,NaN,,,,,,false,,,,304500.60000002384,304500.2000000477,,304499.5,,304515.877,8,400,,,
break_continue,html.Screen,4_61_2,2023-09-08T19:51:32.785Z,,0,,,NaN,,,,,,false,,,,304501.10000002384,304500.89999997616,,304500.7000000477,,304515.877,8,400,,,
sequence,flow.Sequence,4_61,2023-09-08T19:51:32.786Z,,0,,,2568.267999976175,completion,,,,,false,,,,304501.2999999523,304500.89999997616,301915.916,301922,301932.632,304515.877,8,400,,,
trial,html.Screen,4_62_0,2023-09-08T19:51:36.010Z,,0,2,,3209.6230000000214,response,ISIC_5994645.JPG,6,ISIC_3945916.JPG,ISIC_5994645.JPG,false,1,keypress(m),500,307725.7999999523,307725.5,304499.365,304501.39999997616,304515.877,307732.514,8,400,13,,ISIC_3945916.JPG
break,html.Screen,4_62_1,2023-09-08T19:51:36.011Z,,0,,,NaN,,,,,,false,,,,307727,307726.7000000477,,307726,,307732.514,8,400,,,
break_continue,html.Screen,4_62_2,2023-09-08T19:51:36.012Z,,0,,,NaN,,,,,,false,,,,307727.5,307727.39999997616,,307727.10000002384,,307732.514,8,400,,,
sequence,flow.Sequence,4_62,2023-09-08T19:51:36.012Z,,0,,,3211.5229999761796,completion,,,,,false,,,,307727.7000000477,307727.39999997616,304499.365,304501.39999997616,304515.877,307732.514,8,400,,,
trial,html.Screen,4_63_0,2023-09-08T19:51:39.857Z,,0,2,,3840.2859999522916,response,ISIC_5231145.JPG,5,ISIC_9760652.JPG,ISIC_5231145.JPG,false,1,keypress(m),500,311573.10000002384,311572.7999999523,307715.819,307727.89999997616,307732.514,311582.41,8,400,14,,ISIC_9760652.JPG
break,html.Screen,4_63_1,2023-09-08T19:51:39.859Z,,0,,,NaN,,,,,,false,,,,311574.2000000477,311574,,311573.39999997616,,311582.41,8,400,,,
break_continue,html.Screen,4_63_2,2023-09-08T19:51:39.859Z,,0,,,NaN,,,,,,false,,,,311574.7000000477,311574.5,,311574.39999997616,,311582.41,8,400,,,
sequence,flow.Sequence,4_63,2023-09-08T19:51:39.859Z,,0,,,3841.9859999999753,completion,,,,,false,,,,311574.89999997616,311574.5,307715.819,307727.7999999523,307732.514,311582.41,8,400,,,
trial,html.Screen,4_64_0,2023-09-08T19:51:43.052Z,,0,2,,3184.4899999761838,response,ISIC_4136351.JPG,5,ISIC_2642742.JPG,ISIC_2642742.JPG,false,0,keypress(z),500,314767.2999999523,314766.89999997616,311565.72,311575.10000002384,311582.41,314782.188,8,400,15,,ISIC_4136351.JPG
break,html.Screen,4_64_1,2023-09-08T19:51:43.053Z,,0,,,NaN,,,,,,false,,,,314768.39999997616,314767.89999997616,,314767.39999997616,,314782.188,8,400,,,
break_continue,html.Screen,4_64_2,2023-09-08T19:51:43.053Z,,0,,,NaN,,,,,,false,,,,314768.7000000477,314768.60000002384,,314768.5,,314782.188,8,400,,,
sequence,flow.Sequence,4_64,2023-09-08T19:51:43.053Z,,0,,,3186.1900000238675,completion,,,,,false,,,,314768.7999999523,314768.60000002384,311565.72,311575.10000002384,311582.41,314782.188,8,400,,,
trial,html.Screen,4_65_0,2023-09-08T19:51:46.003Z,,0,2,,2936.51200004766,response,ISIC_7416587.JPG,5,ISIC_0000142.JPG,ISIC_0000142.JPG,false,0,keypress(z),500,317718.89999997616,317718.7000000477,314765.5,314768.89999997616,314782.188,317748.74,8,400,16,,ISIC_7416587.JPG
break,html.Screen,4_65_1,2023-09-08T19:51:46.004Z,,0,,,NaN,,,,,,false,,,,317719.7999999523,317719.7000000477,,317719.10000002384,,317748.74,8,400,,,
break_continue,html.Screen,4_65_2,2023-09-08T19:51:46.005Z,,0,,,NaN,,,,,,false,,,,317720.2999999523,317720.2000000477,,317720,,317748.74,8,400,,,
sequence,flow.Sequence,4_65,2023-09-08T19:51:46.005Z,,0,,,2938.01200004766,completion,,,,,false,,,,317720.5,317720.2000000477,314765.5,314768.89999997616,314782.188,317748.74,8,400,,,
trial,html.Screen,4_66_0,2023-09-08T19:51:49.623Z,,0,2,,3589.6599999761675,response,ISIC_0033336.JPG,5,ISIC_0053916.JPG,ISIC_0053916.JPG,false,0,keypress(z),500,321338.60000002384,321338.39999997616,317732.106,317720.7000000477,317748.74,321348.635,8,400,17,,ISIC_0033336.JPG
break,html.Screen,4_66_1,2023-09-08T19:51:49.624Z,,0,,,NaN,,,,,,false,,,,321340,321339.60000002384,,321338.89999997616,,321348.635,8,400,,,
break_continue,html.Screen,4_66_2,2023-09-08T19:51:49.625Z,,0,,,NaN,,,,,,false,,,,321340.5,321340.2999999523,,321340.10000002384,,321348.635,8,400,,,
sequence,flow.Sequence,4_66,2023-09-08T19:51:49.625Z,,0,,,3591.5599999523256,completion,,,,,false,,,,321340.7000000477,321340.2999999523,317732.106,317720.7000000477,317748.74,321348.635,8,400,,,
trial,html.Screen,4_67_0,2023-09-08T19:51:52.683Z,,0,2,,3049.8649999999907,response,ISIC_0054625.JPG,5,ISIC_0029723.JPG,ISIC_0054625.JPG,false,1,keypress(m),500,324398.89999997616,324398.5,321331.884,321340.7999999523,321348.635,324415.146,8,400,18,,ISIC_0029723.JPG
break,html.Screen,4_67_1,2023-09-08T19:51:52.684Z,,0,,,NaN,,,,,,false,,,,324400.10000002384,324399.7999999523,,324399.10000002384,,324415.146,8,400,,,
break_continue,html.Screen,4_67_2,2023-09-08T19:51:52.685Z,,0,,,NaN,,,,,,false,,,,324400.60000002384,324400.5,,324400.2000000477,,324415.146,8,400,,,
sequence,flow.Sequence,4_67,2023-09-08T19:51:52.685Z,,0,,,3051.8649999999907,completion,,,,,false,,,,324400.7999999523,324400.5,321331.884,321340.7999999523,321348.635,324415.146,8,400,,,
trial,html.Screen,4_68_0,2023-09-08T19:51:55.844Z,,0,2,,3144.25399997615,response,ISIC_2445765.JPG,5,ISIC_1793624.JPG,ISIC_2445765.JPG,false,1,keypress(m),500,327559.7000000477,327559.39999997616,324398.416,324400.89999997616,324415.146,327565.058,8,400,19,,ISIC_1793624.JPG
break,html.Screen,4_68_1,2023-09-08T19:51:55.845Z,,0,,,NaN,,,,,,false,,,,327561,327560.7000000477,,327559.89999997616,,327565.058,8,400,,,
break_continue,html.Screen,4_68_2,2023-09-08T19:51:55.846Z,,0,,,NaN,,,,,,false,,,,327561.60000002384,327561.39999997616,,327561.2000000477,,327565.058,8,400,,,
sequence,flow.Sequence,4_68,2023-09-08T19:51:55.846Z,,0,,,3146.25399997615,completion,,,,,false,,,,327561.7999999523,327561.39999997616,324398.416,324400.89999997616,324415.146,327565.058,8,400,,,
trial,html.Screen,4_69_0,2023-09-08T19:51:58.655Z,,0,2,,2805.5420000238228,response,ISIC_0029395.JPG,5,ISIC_5039895.JPG,ISIC_0029395.JPG,false,1,keypress(m),500,330370.89999997616,330370.60000002384,327548.342,327561.89999997616,327565.058,330381.593,8,400,20,,ISIC_5039895.JPG
break,html.Screen,4_69_1,2023-09-08T19:51:58.657Z,,0,,,NaN,,,,,,false,,,,330372.5,330372,,330371.2000000477,,330381.593,8,400,,,
break_continue,html.Screen,4_69_2,2023-09-08T19:51:58.657Z,,0,,,NaN,,,,,,false,,,,330373.2000000477,330373,,330372.7999999523,,330381.593,8,400,,,
sequence,flow.Sequence,4_69,2023-09-08T19:51:58.658Z,,0,,,2807.941999999981,completion,,,,,false,,,,330373.2999999523,330373,327548.342,327561.89999997616,327565.058,330381.593,8,400,,,
trial,html.Screen,4_70_0,2023-09-08T19:52:02.280Z,,0,2,,3614.0070000238484,response,ISIC_0394140.JPG,5,ISIC_0001100.JPG,ISIC_0001100.JPG,false,0,keypress(z),500,333995.89999997616,333995.60000002384,330364.975,330373.5,330381.593,333998.204,8,400,21,,ISIC_0394140.JPG
break,html.Screen,4_70_1,2023-09-08T19:52:02.281Z,,0,,,NaN,,,,,,false,,,,333997.2000000477,333996.89999997616,,333996.10000002384,,333998.204,8,400,,,
break_continue,html.Screen,4_70_2,2023-09-08T19:52:02.282Z,,0,,,NaN,,,,,,false,,,,333997.7000000477,333997.5,,333997.2999999523,,333998.204,8,400,,,
sequence,flow.Sequence,4_70,2023-09-08T19:52:02.282Z,,0,,,3615.9070000000065,completion,,,,,false,,,,333998.10000002384,333997.5,330364.975,330373.39999997616,330381.593,333998.204,8,400,,,
trial,html.Screen,4_71_0,2023-09-08T19:52:06.605Z,,0,2,,4322.695999976131,response,ISIC_0071434.JPG,6,ISIC_0033217.JPG,ISIC_0033217.JPG,false,0,keypress(z),500,338321.10000002384,338320.89999997616,333981.546,333998.7999999523,333998.204,338331.38,8,400,22,,ISIC_0071434.JPG
break,html.Screen,4_71_1,2023-09-08T19:52:06.607Z,,0,,,NaN,,,,,,false,,,,338322.39999997616,338322.10000002384,,338321.2999999523,,338331.38,8,400,,,
break_continue,html.Screen,4_71_2,2023-09-08T19:52:06.607Z,,0,,,NaN,,,,,,false,,,,338323,338322.7999999523,,338322.60000002384,,338331.38,8,400,,,
sequence,flow.Sequence,4_71,2023-09-08T19:52:06.608Z,,0,,,4324.595999952289,completion,,,,,false,,,,338323.2999999523,338322.7999999523,333981.546,333998.7000000477,333998.204,338331.38,8,400,,,
trial,html.Screen,4_72_0,2023-09-08T19:52:09.570Z,,0,2,,2953.9199999523116,response,ISIC_7797853.JPG,5,ISIC_0031304.JPG,ISIC_7797853.JPG,false,1,keypress(m),500,341285.60000002384,341285.2999999523,338314.593,338323.39999997616,338331.38,341297.819,8,400,23,,ISIC_0031304.JPG
break,html.Screen,4_72_1,2023-09-08T19:52:09.571Z,,0,,,NaN,,,,,,false,,,,341286.89999997616,341286.60000002384,,341285.7999999523,,341297.819,8,400,,,
break_continue,html.Screen,4_72_2,2023-09-08T19:52:09.572Z,,0,,,NaN,,,,,,false,,,,341287.5,341287.2999999523,,341287.10000002384,,341297.819,8,400,,,
sequence,flow.Sequence,4_72,2023-09-08T19:52:09.572Z,,0,,,2955.9199999523116,completion,,,,,false,,,,341287.7000000477,341287.2999999523,338314.593,338323.39999997616,338331.38,341297.819,8,400,,,
trial,html.Screen,4_73_0,2023-09-08T19:52:12.395Z,,0,2,,2812.4809999522986,response,ISIC_0000074.JPG,5,ISIC_2489146.JPG,ISIC_0000074.JPG,false,1,keypress(m),500,344110.60000002384,344110.2999999523,341281.13,341288.89999997616,341297.819,344114.497,8,400,24,,ISIC_2489146.JPG
break,html.Screen,4_73_1,2023-09-08T19:52:12.396Z,,0,,,NaN,,,,,,false,,,,344111.89999997616,344111.39999997616,,344110.7999999523,,344114.497,8,400,,,
break_continue,html.Screen,4_73_2,2023-09-08T19:52:12.397Z,,0,,,NaN,,,,,,false,,,,344112.2999999523,344112.2000000477,,344112,,344114.497,8,400,,,
sequence,flow.Sequence,4_73,2023-09-08T19:52:12.397Z,,0,,,2814.381000047666,completion,,,,,false,,,,344112.60000002384,344112.2000000477,341281.13,341287.7999999523,341297.819,344114.497,8,400,,,
trial,html.Screen,4_74_0,2023-09-08T19:52:15.599Z,,0,2,,3199.902999976184,response,ISIC_0071550.JPG,5,ISIC_0055287.JPG,ISIC_0071550.JPG,false,1,keypress(m),500,347314.7000000477,347314.39999997616,344097.805,344112.7000000477,344114.497,347330.963,8,400,25,,ISIC_0055287.JPG
break,html.Screen,4_74_1,2023-09-08T19:52:15.600Z,,0,,,NaN,,,,,,false,,,,347316,347315.60000002384,,347315,,347330.963,8,400,,,
break_continue,html.Screen,4_74_2,2023-09-08T19:52:15.601Z,,0,,,NaN,,,,,,false,,,,347316.60000002384,347316.5,,347316.2000000477,,347330.963,8,400,,,
sequence,flow.Sequence,4_74,2023-09-08T19:52:15.602Z,,0,,,3202.003000000026,completion,,,,,false,,,,347317.60000002384,347316.5,344097.805,344112.7000000477,344114.497,347330.963,8,400,,,
trial,html.Screen,4_75_0,2023-09-08T19:52:18.617Z,,0,2,,3001.237000047695,response,ISIC_0011247.JPG,4,ISIC_0027266.JPG,ISIC_0011247.JPG,false,1,keypress(m),500,350332.5,350332.2000000477,347314.223,347317.7999999523,347330.963,350347.474,8,400,26,,ISIC_0027266.JPG
break,html.Screen,4_75_1,2023-09-08T19:52:18.618Z,,0,,,NaN,,,,,,false,,,,350333.7999999523,350333.60000002384,,350332.7000000477,,350347.474,8,400,,,
break_continue,html.Screen,4_75_2,2023-09-08T19:52:18.619Z,,0,,,NaN,,,,,,false,,,,350334.39999997616,350334.2999999523,,350334,,350347.474,8,400,,,
sequence,flow.Sequence,4_75,2023-09-08T19:52:18.619Z,,0,,,3003.3369999523275,completion,,,,,false,,,,350334.60000002384,350334.2999999523,347314.223,347317.60000002384,347330.963,350347.474,8,400,,,
trial,html.Screen,4_76_0,2023-09-08T19:52:21.485Z,,0,2,,2852.9259999761707,response,ISIC_5362038.JPG,5,ISIC_9604922.JPG,ISIC_5362038.JPG,false,1,keypress(m),500,353200.7000000477,353200.39999997616,350330.785,350334.7999999523,350347.474,353214.118,8,400,27,,ISIC_9604922.JPG
break,html.Screen,4_76_1,2023-09-08T19:52:21.486Z,,0,,,NaN,,,,,,false,,,,353201.89999997616,353201.39999997616,,353200.89999997616,,353214.118,8,400,,,
break_continue,html.Screen,4_76_2,2023-09-08T19:52:21.487Z,,0,,,NaN,,,,,,false,,,,353202.39999997616,353202.2000000477,,353202,,353214.118,8,400,,,
sequence,flow.Sequence,4_76,2023-09-08T19:52:21.487Z,,0,,,2854.7260000476963,completion,,,,,false,,,,353202.60000002384,353202.2000000477,350330.785,350334.7000000477,350347.474,353214.118,8,400,,,
trial,html.Screen,4_77_0,2023-09-08T19:52:24.352Z,,0,2,,2853.6819999522995,response,ISIC_0519386.JPG,5,ISIC_0001100.JPG,ISIC_0001100.JPG,false,0,keypress(z),500,356068.2000000477,356067.7999999523,353197.333,353202.7000000477,353214.118,356080.604,8,400,28,,ISIC_0519386.JPG
break,html.Screen,4_77_1,2023-09-08T19:52:24.354Z,,0,,,NaN,,,,,,false,,,,356069.2999999523,356069,,356068.2999999523,,356080.604,8,400,,,
break_continue,html.Screen,4_77_2,2023-09-08T19:52:24.354Z,,0,,,NaN,,,,,,false,,,,356070,356069.7999999523,,356069.5,,356080.604,8,400,,,
sequence,flow.Sequence,4_77,2023-09-08T19:52:24.354Z,,0,,,2855.6819999522995,completion,,,,,false,,,,356070.10000002384,356069.7999999523,353197.333,353202.7000000477,353214.118,356080.604,8,400,,,
trial,html.Screen,4_78_0,2023-09-08T19:52:27.018Z,,0,2,,2652.99600002385,response,ISIC_0378399.JPG,6,ISIC_0010044.JPG,ISIC_0010044.JPG,false,0,keypress(z),500,358733.89999997616,358733.60000002384,356063.857,356070.2000000477,356080.604,358747.219,8,400,29,,ISIC_0378399.JPG
break,html.Screen,4_78_1,2023-09-08T19:52:27.019Z,,0,,,NaN,,,,,,false,,,,358735.2000000477,358734.7999999523,,358734.10000002384,,358747.219,8,400,,,
break_continue,html.Screen,4_78_2,2023-09-08T19:52:27.020Z,,0,,,NaN,,,,,,false,,,,358735.7000000477,358735.60000002384,,358735.2999999523,,358747.219,8,400,,,
sequence,flow.Sequence,4_78,2023-09-08T19:52:27.020Z,,0,,,2654.99600002385,completion,,,,,false,,,,358735.89999997616,358735.60000002384,356063.857,356070.2000000477,356080.604,358747.219,8,400,,,
trial,html.Screen,4_79_0,2023-09-08T19:52:30.206Z,,0,2,,3174.381000023859,response,ISIC_0010900.JPG,5,ISIC_8241457.JPG,ISIC_8241457.JPG,false,0,keypress(z),500,361921.89999997616,361921.60000002384,358730.525,358736,358747.219,361930.408,8,400,30,,ISIC_0010900.JPG
break,html.Screen,4_79_1,2023-09-08T19:52:30.208Z,,0,,,NaN,,,,,,false,,,,361923.2999999523,361922.89999997616,,361922.2000000477,,361930.408,8,400,,,
break_continue,html.Screen,4_79_2,2023-09-08T19:52:30.208Z,,0,,,NaN,,,,,,false,,,,361923.7999999523,361923.60000002384,,361923.2999999523,,361930.408,8,400,,,
sequence,flow.Sequence,4_79,2023-09-08T19:52:30.208Z,,0,,,3176.381000023859,completion,,,,,false,,,,361923.89999997616,361923.60000002384,358730.525,358736,358747.219,361930.408,8,400,,,
trial,html.Screen,4_80_0,2023-09-08T19:52:32.851Z,,0,2,,2635.692000023846,response,ISIC_0012988.JPG,6,ISIC_7846309.JPG,ISIC_0012988.JPG,false,1,keypress(m),500,364566.39999997616,364566.10000002384,361913.668,361924.10000002384,361930.408,364580.361,8,400,31,,ISIC_7846309.JPG
break,html.Screen,4_80_1,2023-09-08T19:52:32.852Z,,0,,,NaN,,,,,,false,,,,364567.60000002384,364567.2999999523,,364566.60000002384,,364580.361,8,400,,,
break_continue,html.Screen,4_80_2,2023-09-08T19:52:32.852Z,,0,,,NaN,,,,,,false,,,,364568.10000002384,364568,,364567.7999999523,,364580.361,8,400,,,
sequence,flow.Sequence,4_80,2023-09-08T19:52:32.853Z,,0,,,2637.592000000004,completion,,,,,false,,,,364568.2999999523,364568,361913.668,361924,361930.408,364580.361,8,400,,,
trial,html.Screen,4_81_0,2023-09-08T19:52:35.432Z,,0,2,,2567.1390000000247,response,ISIC_0063692.JPG,4,ISIC_0580054.JPG,ISIC_0063692.JPG,false,1,keypress(m),500,367147.60000002384,367147.5,364563.595,364568.39999997616,364580.361,367163.572,8,400,32,,ISIC_0580054.JPG
break,html.Screen,4_81_1,2023-09-08T19:52:35.433Z,,0,,,NaN,,,,,,false,,,,367148.5,367148.2000000477,,367147.7999999523,,367163.572,8,400,,,
break_continue,html.Screen,4_81_2,2023-09-08T19:52:35.433Z,,0,,,NaN,,,,,,false,,,,367148.7999999523,367148.7000000477,,367148.5,,367163.572,8,400,,,
sequence,flow.Sequence,4_81,2023-09-08T19:52:35.433Z,,0,,,2568.3390000477084,completion,,,,,false,,,,367148.7999999523,367148.7000000477,364563.595,364568.39999997616,364580.361,367163.572,8,400,,,
trial,html.Screen,4_82_0,2023-09-08T19:52:38.554Z,,0,2,,3106.2279999523307,response,ISIC_6983970.JPG,5,ISIC_6344073.JPG,ISIC_6983970.JPG,false,1,keypress(m),500,370270.10000002384,370269.7999999523,367146.836,367148.89999997616,367163.572,370280.069,8,400,33,,ISIC_6344073.JPG
break,html.Screen,4_82_1,2023-09-08T19:52:38.556Z,,0,,,NaN,,,,,,false,,,,370271.39999997616,370271,,370270.39999997616,,370280.069,8,400,,,
break_continue,html.Screen,4_82_2,2023-09-08T19:52:38.556Z,,0,,,NaN,,,,,,false,,,,370271.89999997616,370271.7999999523,,370271.60000002384,,370280.069,8,400,,,
sequence,flow.Sequence,4_82,2023-09-08T19:52:38.556Z,,0,,,3108.2279999523307,completion,,,,,false,,,,370272.2000000477,370271.7999999523,367146.836,367148.89999997616,367163.572,370280.069,8,400,,,
trial,html.Screen,4_83_0,2023-09-08T19:52:41.247Z,,0,2,,2682.4309999999823,response,ISIC_0000046.JPG,6,ISIC_0033323.JPG,ISIC_0033323.JPG,false,0,keypress(z),500,372962.7999999523,372962.5,370263.465,370272.2999999523,370280.069,372979.94,8,400,34,,ISIC_0000046.JPG
break,html.Screen,4_83_1,2023-09-08T19:52:41.248Z,,0,,,NaN,,,,,,false,,,,372964.10000002384,372963.7000000477,,372963,,372979.94,8,400,,,
break_continue,html.Screen,4_83_2,2023-09-08T19:52:41.249Z,,0,,,NaN,,,,,,false,,,,372964.5,372964.39999997616,,372964.2000000477,,372979.94,8,400,,,
sequence,flow.Sequence,4_83,2023-09-08T19:52:41.249Z,,0,,,2684.3309999761404,completion,,,,,false,,,,372964.7999999523,372964.39999997616,370263.465,370272.2000000477,370280.069,372979.94,8,400,,,
trial,html.Screen,4_84_0,2023-09-08T19:52:44.069Z,,0,2,,2804.959999976156,response,ISIC_0031546.JPG,5,ISIC_6946260.JPG,ISIC_0031546.JPG,false,1,keypress(m),500,375785.2000000477,375784.89999997616,372963.302,372964.89999997616,372979.94,375796.498,8,400,35,,ISIC_6946260.JPG
break,html.Screen,4_84_1,2023-09-08T19:52:44.071Z,,0,,,NaN,,,,,,false,,,,375786.2000000477,375785.89999997616,,375785.2999999523,,375796.498,8,400,,,
break_continue,html.Screen,4_84_2,2023-09-08T19:52:44.071Z,,0,,,NaN,,,,,,false,,,,375786.60000002384,375786.5,,375786.2999999523,,375796.498,8,400,,,
sequence,flow.Sequence,4_84,2023-09-08T19:52:44.071Z,,0,,,2806.5599999999977,completion,,,,,false,,,,375786.7999999523,375786.5,372963.302,372964.89999997616,372979.94,375796.498,8,400,,,
trial,html.Screen,4_85_0,2023-09-08T19:52:46.896Z,,0,2,,2815.4019999761367,response,ISIC_0062762.JPG,4,ISIC_4748605.JPG,ISIC_0062762.JPG,false,1,keypress(m),500,378612.10000002384,378611.89999997616,375779.839,375786.89999997616,375796.498,378646.438,8,400,36,,ISIC_4748605.JPG
break,html.Screen,4_85_1,2023-09-08T19:52:46.898Z,,0,,,NaN,,,,,,false,,,,378613.5,378613.2000000477,,378612.39999997616,,378646.438,8,400,,,
break_continue,html.Screen,4_85_2,2023-09-08T19:52:46.898Z,,0,,,NaN,,,,,,false,,,,378614.10000002384,378613.89999997616,,378613.60000002384,,378646.438,8,400,,,
sequence,flow.Sequence,4_85,2023-09-08T19:52:46.899Z,,0,,,2817.4019999761367,completion,,,,,false,,,,378614.2000000477,378613.89999997616,375779.839,375786.89999997616,375796.498,378646.438,8,400,,,
trial,html.Screen,4_86_0,2023-09-08T19:52:50.245Z,,0,2,,3313.9619999761344,response,ISIC_0028320.JPG,5,ISIC_2054180.JPG,ISIC_0028320.JPG,false,1,keypress(m),500,381960.60000002384,381960.39999997616,378629.845,378614.39999997616,378646.438,381963.096,8,400,37,,ISIC_2054180.JPG
break,html.Screen,4_86_1,2023-09-08T19:52:50.246Z,,0,,,NaN,,,,,,false,,,,381961.89999997616,381961.60000002384,,381960.89999997616,,381963.096,8,400,,,
break_continue,html.Screen,4_86_2,2023-09-08T19:52:50.247Z,,0,,,NaN,,,,,,false,,,,381962.39999997616,381962.2999999523,,381962.10000002384,,381963.096,8,400,,,
sequence,flow.Sequence,4_86,2023-09-08T19:52:50.247Z,,0,,,3315.8619999522925,completion,,,,,false,,,,381962.60000002384,381962.2999999523,378629.845,378614.39999997616,378646.438,381963.096,8,400,,,
trial,html.Screen,4_87_0,2023-09-08T19:52:53.754Z,,0,2,,3506.3039999761386,response,ISIC_1144024.JPG,6,ISIC_5751956.JPG,ISIC_5751956.JPG,false,0,keypress(z),500,385469.60000002384,385469.39999997616,381946.344,381962.7999999523,381963.096,385479.541,8,400,38,,ISIC_1144024.JPG
break,html.Screen,4_87_1,2023-09-08T19:52:53.755Z,,0,,,NaN,,,,,,false,,,,385471,385470.7000000477,,385469.89999997616,,385479.541,8,400,,,
break_continue,html.Screen,4_87_2,2023-09-08T19:52:53.756Z,,0,,,NaN,,,,,,false,,,,385471.60000002384,385471.39999997616,,385471.2000000477,,385479.541,8,400,,,
sequence,flow.Sequence,4_87,2023-09-08T19:52:53.756Z,,0,,,3508.3039999761386,completion,,,,,false,,,,385471.7000000477,385471.39999997616,381946.344,381962.7999999523,381963.096,385479.541,8,400,,,
trial,html.Screen,4_88_0,2023-09-08T19:52:57.271Z,,0,2,,3506.8589999761316,response,ISIC_0012512.JPG,5,ISIC_0025061.JPG,ISIC_0012512.JPG,false,1,keypress(m),500,388986.60000002384,388986.39999997616,385462.812,385472,385479.541,388996.03,8,400,39,,ISIC_0025061.JPG
break,html.Screen,4_88_1,2023-09-08T19:52:57.272Z,,0,,,NaN,,,,,,false,,,,388987.89999997616,388987.5,,388986.7999999523,,388996.03,8,400,,,
break_continue,html.Screen,4_88_2,2023-09-08T19:52:57.273Z,,0,,,NaN,,,,,,false,,,,388988.60000002384,388988.2999999523,,388988.10000002384,,388996.03,8,400,,,
sequence,flow.Sequence,4_88,2023-09-08T19:52:57.273Z,,0,,,3508.7589999522897,completion,,,,,false,,,,388988.7000000477,388988.2999999523,385462.812,385471.89999997616,385479.541,388996.03,8,400,,,
trial,html.Screen,4_89_0,2023-09-08T19:53:00.331Z,,0,2,,3050.2699999522883,response,ISIC_0025814.JPG,5,ISIC_3463156.JPG,ISIC_3463156.JPG,false,0,keypress(z),500,392046.60000002384,392046.2999999523,388979.928,388988.89999997616,388996.03,392062.575,8,400,40,,ISIC_0025814.JPG
break,html.Screen,4_89_1,2023-09-08T19:53:00.332Z,,0,,,NaN,,,,,,false,,,,392048,392047.5,,392046.7999999523,,392062.575,8,400,,,
break_continue,html.Screen,4_89_2,2023-09-08T19:53:00.333Z,,0,,,NaN,,,,,,false,,,,392048.60000002384,392048.5,,392048.10000002384,,392062.575,8,400,,,
sequence,flow.Sequence,4_89,2023-09-08T19:53:00.333Z,,0,,,3052.469999999972,completion,,,,,false,,,,392048.7000000477,392048.5,388979.928,388988.7999999523,388996.03,392062.575,8,400,,,
trial,html.Screen,4_90_0,2023-09-08T19:53:03.183Z,,0,2,,2836.2249999523046,response,ISIC_8145348.JPG,4,ISIC_0026155.JPG,ISIC_0026155.JPG,false,0,keypress(z),500,394898.89999997616,394898.7999999523,392045.938,392048.89999997616,392062.575,394912.552,8,400,41,,ISIC_8145348.JPG
break,html.Screen,4_90_1,2023-09-08T19:53:03.185Z,,0,,,NaN,,,,,,false,,,,394900.2000000477,394899.89999997616,,394899.2000000477,,394912.552,8,400,,,
break_continue,html.Screen,4_90_2,2023-09-08T19:53:03.185Z,,0,,,NaN,,,,,,false,,,,394900.7999999523,394900.60000002384,,394900.39999997616,,394912.552,8,400,,,
sequence,flow.Sequence,4_90,2023-09-08T19:53:03.185Z,,0,,,2838.02500002383,completion,,,,,false,,,,394901,394900.60000002384,392045.938,392048.7999999523,392062.575,394912.552,8,400,,,
trial,html.Screen,4_91_0,2023-09-08T19:53:06.331Z,,0,2,,3134.247999952291,response,ISIC_3481133.JPG,5,ISIC_0027627.JPG,ISIC_3481133.JPG,false,1,keypress(m),500,398047.10000002384,398046.7999999523,394895.847,394901.2000000477,394912.552,398062.363,8,400,42,,ISIC_0027627.JPG
break,html.Screen,4_91_1,2023-09-08T19:53:06.333Z,,0,,,NaN,,,,,,false,,,,398048.5,398048.10000002384,,398047.39999997616,,398062.363,8,400,,,
break_continue,html.Screen,4_91_2,2023-09-08T19:53:06.333Z,,0,,,NaN,,,,,,false,,,,398049.10000002384,398048.89999997616,,398048.7999999523,,398062.363,8,400,,,
sequence,flow.Sequence,4_91,2023-09-08T19:53:06.334Z,,0,,,3136.347999976133,completion,,,,,false,,,,398049.2999999523,398048.89999997616,394895.847,394901,394912.552,398062.363,8,400,,,
trial,html.Screen,4_92_0,2023-09-08T19:53:09.776Z,,0,2,,3429.036999976146,response,ISIC_7185036.JPG,5,ISIC_7498132.JPG,ISIC_7185036.JPG,false,1,keypress(m),500,401491.7000000477,401491.39999997616,398045.665,398049.5,398062.363,401495.611,8,400,43,,ISIC_7498132.JPG
break,html.Screen,4_92_1,2023-09-08T19:53:09.777Z,,0,,,NaN,,,,,,false,,,,401493,401492.7000000477,,401491.89999997616,,401495.611,8,400,,,
break_continue,html.Screen,4_92_2,2023-09-08T19:53:09.778Z,,0,,,NaN,,,,,,false,,,,401493.60000002384,401493.39999997616,,401493.10000002384,,401495.611,8,400,,,
sequence,flow.Sequence,4_92,2023-09-08T19:53:09.778Z,,0,,,3431.036999976146,completion,,,,,false,,,,401493.7000000477,401493.39999997616,398045.665,398049.39999997616,398062.363,401495.611,8,400,,,
trial,html.Screen,4_93_0,2023-09-08T19:53:13.461Z,,0,2,,3680.5890000477084,response,ISIC_4734950.JPG,6,ISIC_6626544.JPG,ISIC_4734950.JPG,false,1,keypress(m),500,405176.39999997616,405176.2000000477,401478.809,401493.7999999523,401495.611,405178.764,8,400,44,,ISIC_6626544.JPG
break,html.Screen,4_93_1,2023-09-08T19:53:13.462Z,,0,,,NaN,,,,,,false,,,,405177.7000000477,405177.39999997616,,405176.60000002384,,405178.764,8,400,,,
break_continue,html.Screen,4_93_2,2023-09-08T19:53:13.463Z,,0,,,NaN,,,,,,false,,,,405178.2000000477,405178.10000002384,,405177.89999997616,,405178.764,8,400,,,
sequence,flow.Sequence,4_93,2023-09-08T19:53:13.463Z,,0,,,3682.4890000238665,completion,,,,,false,,,,405178.39999997616,405178.10000002384,401478.809,401493.7999999523,401495.611,405178.764,8,400,,,
trial,html.Screen,4_94_0,2023-09-08T19:53:16.158Z,,0,2,,2694.936000047659,response,ISIC_0011943.JPG,5,ISIC_6423964.JPG,ISIC_0011943.JPG,false,1,keypress(m),500,407873.89999997616,407873.7000000477,405162.135,405178.60000002384,405178.764,407878.634,8,400,45,,ISIC_6423964.JPG
break,html.Screen,4_94_1,2023-09-08T19:53:16.159Z,,0,,,NaN,,,,,,false,,,,407874.89999997616,407874.60000002384,,407874.2000000477,,407878.634,8,400,,,
break_continue,html.Screen,4_94_2,2023-09-08T19:53:16.159Z,,0,,,NaN,,,,,,false,,,,407875.2000000477,407875.10000002384,,407874.89999997616,,407878.634,8,400,,,
sequence,flow.Sequence,4_94,2023-09-08T19:53:16.160Z,,0,,,2696.336000023817,completion,,,,,false,,,,407875.2000000477,407875.10000002384,405162.135,405178.5,405178.764,407878.634,8,400,,,
trial,html.Screen,4_95_0,2023-09-08T19:53:18.921Z,,0,2,,2757.36599999998,response,ISIC_0013243.JPG,5,ISIC_1453899.JPG,ISIC_1453899.JPG,false,0,keypress(z),500,410636.2999999523,410636,407861.89,407875.39999997616,407878.634,410645.268,8,400,46,,ISIC_0013243.JPG
break,html.Screen,4_95_1,2023-09-08T19:53:18.922Z,,0,,,NaN,,,,,,false,,,,410637.5,410637.2000000477,,410636.5,,410645.268,8,400,,,
break_continue,html.Screen,4_95_2,2023-09-08T19:53:18.922Z,,0,,,NaN,,,,,,false,,,,410638.10000002384,410637.89999997616,,410637.7000000477,,410645.268,8,400,,,
sequence,flow.Sequence,4_95,2023-09-08T19:53:18.923Z,,0,,,2759.265999976138,completion,,,,,false,,,,410638.2000000477,410637.89999997616,407861.89,407875.2999999523,407878.634,410645.268,8,400,,,
trial,html.Screen,4_96_0,2023-09-08T19:53:22.317Z,,0,2,,3386.732000000018,response,ISIC_6440229.JPG,5,ISIC_0058255.JPG,ISIC_0058255.JPG,false,0,keypress(z),500,414032.2999999523,414032,410628.455,410638.2999999523,410645.268,414045.084,8,400,47,,ISIC_6440229.JPG
break,html.Screen,4_96_1,2023-09-08T19:53:22.318Z,,0,,,NaN,,,,,,false,,,,414033.39999997616,414033.10000002384,,414032.5,,414045.084,8,400,,,
break_continue,html.Screen,4_96_2,2023-09-08T19:53:22.318Z,,0,,,NaN,,,,,,false,,,,414034,414033.89999997616,,414033.60000002384,,414045.084,8,400,,,
sequence,flow.Sequence,4_96,2023-09-08T19:53:22.319Z,,0,,,3388.6319999761763,completion,,,,,false,,,,414034.2000000477,414033.89999997616,410628.455,410638.2999999523,410645.268,414045.084,8,400,,,
trial,html.Screen,4_97_0,2023-09-08T19:53:25.063Z,,0,2,,2733.6160000477103,response,ISIC_6148533.JPG,6,ISIC_0028285.JPG,ISIC_6148533.JPG,false,1,keypress(m),500,416779,416778.7000000477,414028.409,414034.2999999523,414045.084,416795.01,8,400,48,,ISIC_0028285.JPG
break,html.Screen,4_97_1,2023-09-08T19:53:25.065Z,,0,,,NaN,,,,,,false,,,,416780.2000000477,416779.7999999523,,416779.2000000477,,416795.01,8,400,,,
break_continue,html.Screen,4_97_2,2023-09-08T19:53:25.065Z,,0,,,NaN,,,,,,false,,,,416780.7999999523,416780.5,,416780.2999999523,,416795.01,8,400,,,
sequence,flow.Sequence,4_97,2023-09-08T19:53:25.065Z,,0,,,2735.4160000000265,completion,,,,,false,,,,416780.89999997616,416780.5,414028.409,414034.2999999523,414045.084,416795.01,8,400,,,
trial,html.Screen,4_98_0,2023-09-08T19:53:27.676Z,,0,2,,2595.9899999999907,response,ISIC_7798358.JPG,5,ISIC_1850196.JPG,ISIC_1850196.JPG,false,0,keypress(z),500,419391.2000000477,419391,416778.268,416781,416795.01,419394.982,8,400,49,,ISIC_7798358.JPG
break,html.Screen,4_98_1,2023-09-08T19:53:27.677Z,,0,,,NaN,,,,,,false,,,,419392.39999997616,419392.2000000477,,419391.5,,419394.982,8,400,,,
break_continue,html.Screen,4_98_2,2023-09-08T19:53:27.677Z,,0,,,NaN,,,,,,false,,,,419393,419392.89999997616,,419392.60000002384,,419394.982,8,400,,,
sequence,flow.Sequence,4_98,2023-09-08T19:53:27.677Z,,0,,,2597.889999976149,completion,,,,,false,,,,419393.2000000477,419392.89999997616,416778.268,416781,416795.01,419394.982,8,400,,,
trial,html.Screen,4_99_0,2023-09-08T19:53:31.056Z,,0,2,,3377.017999999982,response,ISIC_0033432.JPG,5,ISIC_0067308.JPG,ISIC_0067308.JPG,false,0,keypress(z),500,422772.10000002384,422772,419378.124,419393.39999997616,419394.982,422778.048,8,400,50,,ISIC_0033432.JPG
break,html.Screen,4_99_1,2023-09-08T19:53:41.046Z,,0,,,9999.62599999999,timeout,,,,,false,,,,432762,432761.024,422761.354,422772.2999999523,422778.048,432777.674,8,400,,,
break_continue,html.Screen,4_99_2,2023-09-08T19:53:53.625Z,,0,,,12542.426000023843,response,,,,,false,continue,keypress(Space),,445341,445320.10000002384,432761.024,432762.10000002384,432777.674,445343.901,8,400,,,
sequence,flow.Sequence,4_99,2023-09-08T19:53:53.625Z,,0,,,25925.118000023824,completion,,,,,false,,,,445341.2000000477,445320.10000002384,419378.124,419393.2999999523,419394.982,445343.901,8,400,,,
trial,html.Screen,4_100_0,2023-09-08T19:53:56.427Z,,0,3,,2798.799000047671,response,ISIC_0000539.JPG,5,ISIC_2547431.JPG,ISIC_0000539.JPG,false,1,keypress(m),500,448143,448142.7000000477,445326.436,445341.2000000477,445343.901,448177.137,8,400,1,,ISIC_2547431.JPG
break,html.Screen,4_100_1,2023-09-08T19:53:56.429Z,,0,,,NaN,,,,,,false,,,,448144.2999999523,448143.89999997616,,448143.2000000477,,448177.137,8,400,,,
break_continue,html.Screen,4_100_2,2023-09-08T19:53:56.429Z,,0,,,NaN,,,,,,false,,,,448144.89999997616,448144.7000000477,,448144.39999997616,,448177.137,8,400,,,
sequence,flow.Sequence,4_100,2023-09-08T19:53:56.429Z,,0,,,2800.799000047671,completion,,,,,false,,,,448145.10000002384,448144.7000000477,445326.436,445341.2000000477,445343.901,448177.137,8,400,,,
trial,html.Screen,4_101_0,2023-09-08T19:53:59.446Z,,0,3,,2984.563000047696,response,ISIC_0009971.JPG,5,ISIC_0029885.JPG,ISIC_0009971.JPG,false,1,keypress(m),500,451162.10000002384,451161.7000000477,448160.473,448145.2000000477,448177.137,451176.97,8,400,2,,ISIC_0029885.JPG
break,html.Screen,4_101_1,2023-09-08T19:53:59.448Z,,0,,,NaN,,,,,,false,,,,451163.2000000477,451163,,451162.2999999523,,451176.97,8,400,,,
break_continue,html.Screen,4_101_2,2023-09-08T19:53:59.448Z,,0,,,NaN,,,,,,false,,,,451163.89999997616,451163.7000000477,,451163.5,,451176.97,8,400,,,
sequence,flow.Sequence,4_101,2023-09-08T19:53:59.448Z,,0,,,2986.563000047696,completion,,,,,false,,,,451164.10000002384,451163.7000000477,448160.473,448145.2000000477,448177.137,451176.97,8,400,,,
trial,html.Screen,4_102_0,2023-09-08T19:54:02.570Z,,0,3,,3108.530000000028,response,ISIC_0061092.JPG,5,ISIC_0033843.JPG,ISIC_0061092.JPG,false,1,keypress(m),500,454285.7000000477,454285.5,451160.387,451164.2999999523,451176.97,454293.548,8,400,3,,ISIC_0033843.JPG
break,html.Screen,4_102_1,2023-09-08T19:54:02.571Z,,0,,,NaN,,,,,,false,,,,454286.89999997616,454286.5,,454285.7999999523,,454293.548,8,400,,,
break_continue,html.Screen,4_102_2,2023-09-08T19:54:02.572Z,,0,,,NaN,,,,,,false,,,,454287.2999999523,454287.2000000477,,454287,,454293.548,8,400,,,
sequence,flow.Sequence,4_102,2023-09-08T19:54:02.572Z,,0,,,3110.2300000477117,completion,,,,,false,,,,454287.5,454287.2000000477,451160.387,451164.2000000477,451176.97,454293.548,8,400,,,
trial,html.Screen,4_103_0,2023-09-08T19:54:05.924Z,,0,3,,3345.7519999523065,response,ISIC_2977718.JPG,5,ISIC_8502341.JPG,ISIC_2977718.JPG,false,1,keypress(m),500,457639.39999997616,457639.2999999523,454276.917,454287.60000002384,454293.548,457643.431,8,400,4,,ISIC_8502341.JPG
break,html.Screen,4_103_1,2023-09-08T19:54:05.925Z,,0,,,NaN,,,,,,false,,,,457640.2000000477,457640,,457639.60000002384,,457643.431,8,400,,,
break_continue,html.Screen,4_103_2,2023-09-08T19:54:05.925Z,,0,,,NaN,,,,,,false,,,,457640.5,457640.39999997616,,457640.2999999523,,457643.431,8,400,,,
sequence,flow.Sequence,4_103,2023-09-08T19:54:05.925Z,,0,,,3346.8519999761484,completion,,,,,false,,,,457640.60000002384,457640.39999997616,454276.917,454287.60000002384,454293.548,457643.431,8,400,,,
trial,html.Screen,4_104_0,2023-09-08T19:54:08.926Z,,0,3,,2997.5690000000177,response,ISIC_7519274.JPG,5,ISIC_1777398.JPG,ISIC_1777398.JPG,false,0,keypress(z),500,460641.2999999523,460641,457626.705,457640.7000000477,457643.431,460643.287,8,400,5,,ISIC_7519274.JPG
break,html.Screen,4_104_1,2023-09-08T19:54:08.927Z,,0,,,NaN,,,,,,false,,,,460642.2000000477,460642,,460641.39999997616,,460643.287,8,400,,,
break_continue,html.Screen,4_104_2,2023-09-08T19:54:08.927Z,,0,,,NaN,,,,,,false,,,,460642.5,460642.39999997616,,460642.2999999523,,460643.287,8,400,,,
sequence,flow.Sequence,4_104,2023-09-08T19:54:08.927Z,,0,,,2998.968999976176,completion,,,,,false,,,,460642.60000002384,460642.39999997616,457626.705,457640.7000000477,457643.431,460643.287,8,400,,,
trial,html.Screen,4_105_0,2023-09-08T19:54:12.320Z,,0,3,,3392.112999976147,response,ISIC_0026264.JPG,5,ISIC_0010967.JPG,ISIC_0026264.JPG,false,1,keypress(m),500,464035.7000000477,464035.39999997616,460626.621,460642.7000000477,460643.287,464043.271,8,400,6,,ISIC_0010967.JPG
break,html.Screen,4_105_1,2023-09-08T19:54:12.321Z,,0,,,NaN,,,,,,false,,,,464037,464036.5,,464035.7999999523,,464043.271,8,400,,,
break_continue,html.Screen,4_105_2,2023-09-08T19:54:12.322Z,,0,,,NaN,,,,,,false,,,,464037.39999997616,464037.2999999523,,464037.10000002384,,464043.271,8,400,,,
sequence,flow.Sequence,4_105,2023-09-08T19:54:12.322Z,,0,,,3394.012999952305,completion,,,,,false,,,,464037.5,464037.2999999523,460626.621,460642.60000002384,460643.287,464043.271,8,400,,,
trial,html.Screen,4_106_0,2023-09-08T19:54:15.429Z,,0,3,,3100.829000023834,response,ISIC_0029106.JPG,4,ISIC_0024310.JPG,ISIC_0024310.JPG,false,0,keypress(z),500,467144.39999997616,467144.10000002384,464026.458,464037.7000000477,464043.271,467159.727,8,400,7,,ISIC_0029106.JPG
break,html.Screen,4_106_1,2023-09-08T19:54:15.430Z,,0,,,NaN,,,,,,false,,,,467145.2999999523,467145.10000002384,,467144.60000002384,,467159.727,8,400,,,
break_continue,html.Screen,4_106_2,2023-09-08T19:54:15.430Z,,0,,,NaN,,,,,,false,,,,467145.60000002384,467145.5,,467145.39999997616,,467159.727,8,400,,,
sequence,flow.Sequence,4_106,2023-09-08T19:54:15.430Z,,0,,,3102.228999999992,completion,,,,,false,,,,467145.7000000477,467145.5,464026.458,464037.7000000477,464043.271,467159.727,8,400,,,
trial,html.Screen,4_107_0,2023-09-08T19:54:18.236Z,,0,3,,2792.1729999761446,response,ISIC_5116614.JPG,5,ISIC_0026475.JPG,ISIC_0026475.JPG,false,0,keypress(z),500,469952.10000002384,469951.89999997616,467143.066,467145.7999999523,467159.727,469959.607,8,400,8,,ISIC_5116614.JPG
break,html.Screen,4_107_1,2023-09-08T19:54:18.237Z,,0,,,NaN,,,,,,false,,,,469952.7999999523,469952.60000002384,,469952.10000002384,,469959.607,8,400,,,
break_continue,html.Screen,4_107_2,2023-09-08T19:54:18.237Z,,0,,,NaN,,,,,,false,,,,469953.10000002384,469953,,469952.89999997616,,469959.607,8,400,,,
sequence,flow.Sequence,4_107,2023-09-08T19:54:18.238Z,,0,,,2793.2729999999865,completion,,,,,false,,,,469953.2000000477,469953,467143.066,467145.7999999523,467159.727,469959.607,8,400,,,
trial,html.Screen,4_108_0,2023-09-08T19:54:21.311Z,,0,3,,3066.892999999982,response,ISIC_0033287.JPG,5,ISIC_5152859.JPG,ISIC_0033287.JPG,false,1,keypress(m),500,473026.7999999523,473026.5,469942.945,469953.39999997616,469959.607,473042.831,8,400,9,,ISIC_5152859.JPG
break,html.Screen,4_108_1,2023-09-08T19:54:21.312Z,,0,,,NaN,,,,,,false,,,,473027.89999997616,473027.60000002384,,473027,,473042.831,8,400,,,
break_continue,html.Screen,4_108_2,2023-09-08T19:54:21.313Z,,0,,,NaN,,,,,,false,,,,473028.2999999523,473028.2000000477,,473028.10000002384,,473042.831,8,400,,,
sequence,flow.Sequence,4_108,2023-09-08T19:54:21.313Z,,0,,,3068.5930000476656,completion,,,,,false,,,,473028.5,473028.2000000477,469942.945,469953.2999999523,469959.607,473042.831,8,400,,,
trial,html.Screen,4_109_0,2023-09-08T19:54:24.868Z,,0,3,,3540.869000047678,response,ISIC_0053554.JPG,6,ISIC_0961235.JPG,ISIC_0961235.JPG,false,0,keypress(z),500,476584,476583.7000000477,473026.118,473028.60000002384,473042.831,476592.69,8,400,10,,ISIC_0053554.JPG
break,html.Screen,4_109_1,2023-09-08T19:54:24.869Z,,0,,,NaN,,,,,,false,,,,476585,476584.60000002384,,476584.10000002384,,476592.69,8,400,,,
break_continue,html.Screen,4_109_2,2023-09-08T19:54:24.870Z,,0,,,NaN,,,,,,false,,,,476585.39999997616,476585.2999999523,,476585.10000002384,,476592.69,8,400,,,
sequence,flow.Sequence,4_109,2023-09-08T19:54:24.870Z,,0,,,3542.4689999523107,completion,,,,,false,,,,476585.60000002384,476585.2999999523,473026.118,473028.60000002384,473042.831,476592.69,8,400,,,
trial,html.Screen,4_110_0,2023-09-08T19:54:28.316Z,,0,3,,3439.109999952314,response,ISIC_5746904.JPG,5,ISIC_2465895.JPG,ISIC_2465895.JPG,false,0,keypress(z),500,480032,480031.7999999523,476576.041,476585.7999999523,476592.69,480042.577,8,400,11,,ISIC_5746904.JPG
break,html.Screen,4_110_1,2023-09-08T19:54:28.317Z,,0,,,NaN,,,,,,false,,,,480033.10000002384,480032.89999997616,,480032.2000000477,,480042.577,8,400,,,
break_continue,html.Screen,4_110_2,2023-09-08T19:54:28.318Z,,0,,,NaN,,,,,,false,,,,480033.39999997616,480033.2999999523,,480033.10000002384,,480042.577,8,400,,,
sequence,flow.Sequence,4_110,2023-09-08T19:54:28.318Z,,0,,,3440.609999952314,completion,,,,,false,,,,480033.5,480033.2999999523,476576.041,476585.7000000477,476592.69,480042.577,8,400,,,
trial,html.Screen,4_111_0,2023-09-08T19:54:31.376Z,,0,3,,3048.6230000476935,response,ISIC_7090336.JPG,5,ISIC_0024355.JPG,ISIC_0024355.JPG,false,0,keypress(z),500,483091.39999997616,483091.2000000477,480025.908,480033.7000000477,480042.577,483110.208,8,400,12,,ISIC_7090336.JPG
break,html.Screen,4_111_1,2023-09-08T19:54:31.377Z,,0,,,NaN,,,,,,false,,,,483092.2000000477,483091.89999997616,,483091.60000002384,,483110.208,8,400,,,
break_continue,html.Screen,4_111_2,2023-09-08T19:54:31.377Z,,0,,,NaN,,,,,,false,,,,483092.60000002384,483092.5,,483092.2999999523,,483110.208,8,400,,,
sequence,flow.Sequence,4_111,2023-09-08T19:54:31.377Z,,0,,,3049.92300000001,completion,,,,,false,,,,483092.7999999523,483092.5,480025.908,480033.7000000477,480042.577,483110.208,8,400,,,
trial,html.Screen,4_112_0,2023-09-08T19:54:34.997Z,,0,3,,3602.792000000016,response,ISIC_8051628.JPG,5,ISIC_6019374.JPG,ISIC_6019374.JPG,false,0,keypress(z),500,486713.10000002384,486713,483075.778,483092.7999999523,483110.208,486725.635,8,400,13,,ISIC_8051628.JPG
break,html.Screen,4_112_1,2023-09-08T19:54:34.998Z,,0,,,NaN,,,,,,false,,,,486714,486713.7000000477,,486713.2000000477,,486725.635,8,400,,,
break_continue,html.Screen,4_112_2,2023-09-08T19:54:34.999Z,,0,,,NaN,,,,,,false,,,,486714.2999999523,486714.2000000477,,486714,,486725.635,8,400,,,
sequence,flow.Sequence,4_112,2023-09-08T19:54:34.999Z,,0,,,3603.9920000476995,completion,,,,,false,,,,486714.5,486714.2000000477,483075.778,483092.7999999523,483110.208,486725.635,8,400,,,
trial,html.Screen,4_113_0,2023-09-08T19:54:37.616Z,,0,3,,2605.3649999999907,response,ISIC_6381852.JPG,4,ISIC_4745475.JPG,ISIC_6381852.JPG,false,1,keypress(m),500,489331.2000000477,489331,486709.047,486714.5,486725.635,489342.225,8,400,14,,ISIC_4745475.JPG
break,html.Screen,4_113_1,2023-09-08T19:54:37.617Z,,0,,,NaN,,,,,,false,,,,489332.2999999523,489332.10000002384,,489331.39999997616,,489342.225,8,400,,,
break_continue,html.Screen,4_113_2,2023-09-08T19:54:37.617Z,,0,,,NaN,,,,,,false,,,,489332.7000000477,489332.7000000477,,489332.39999997616,,489342.225,8,400,,,
sequence,flow.Sequence,4_113,2023-09-08T19:54:37.617Z,,0,,,2607.0650000476744,completion,,,,,false,,,,489332.89999997616,489332.7000000477,486709.047,486714.5,486725.635,489342.225,8,400,,,
trial,html.Screen,4_114_0,2023-09-08T19:54:40.547Z,,0,3,,2920.5749999523396,response,ISIC_0000555.JPG,5,ISIC_5239856.JPG,ISIC_5239856.JPG,false,0,keypress(z),500,492263,492262.7999999523,489325.597,489333,489342.225,492275.471,8,400,15,,ISIC_0000555.JPG
break,html.Screen,4_114_1,2023-09-08T19:54:40.549Z,,0,,,NaN,,,,,,false,,,,492264.5,492264.10000002384,,492263.2999999523,,492275.471,8,400,,,
break_continue,html.Screen,4_114_2,2023-09-08T19:54:40.549Z,,0,,,NaN,,,,,,false,,,,492265.10000002384,492264.89999997616,,492264.7000000477,,492275.471,8,400,,,
sequence,flow.Sequence,4_114,2023-09-08T19:54:40.550Z,,0,,,2922.6749999761814,completion,,,,,false,,,,492265.2000000477,492264.89999997616,489325.597,489333,489342.225,492275.471,8,400,,,
trial,html.Screen,4_115_0,2023-09-08T19:54:43.975Z,,0,3,,3415.4289999761386,response,ISIC_0062559.JPG,5,ISIC_0009886.JPG,ISIC_0009886.JPG,false,0,keypress(z),500,495691.10000002384,495690.89999997616,492258.713,492265.39999997616,492275.471,495725.266,8,400,16,,ISIC_0062559.JPG
break,html.Screen,4_115_1,2023-09-08T19:54:43.977Z,,0,,,NaN,,,,,,false,,,,495692.5,495692,,495691.39999997616,,495725.266,8,400,,,
break_continue,html.Screen,4_115_2,2023-09-08T19:54:43.977Z,,0,,,NaN,,,,,,false,,,,495693,495692.89999997616,,495692.60000002384,,495725.266,8,400,,,
sequence,flow.Sequence,4_115,2023-09-08T19:54:43.977Z,,0,,,3417.4289999761386,completion,,,,,false,,,,495693.2000000477,495692.89999997616,492258.713,492265.2999999523,492275.471,495725.266,8,400,,,
trial,html.Screen,4_116_0,2023-09-08T19:54:47.695Z,,0,3,,3684.7339999999967,response,ISIC_0065264.JPG,5,ISIC_0029170.JPG,ISIC_0065264.JPG,false,1,keypress(m),500,499410.2999999523,499410,495708.771,495693.2999999523,495725.266,499425.152,8,400,17,,ISIC_0029170.JPG
break,html.Screen,4_116_1,2023-09-08T19:54:47.696Z,,0,,,NaN,,,,,,false,,,,499411.5,499411.10000002384,,499410.5,,499425.152,8,400,,,
break_continue,html.Screen,4_116_2,2023-09-08T19:54:47.696Z,,0,,,NaN,,,,,,false,,,,499412,499411.7999999523,,499411.60000002384,,499425.152,8,400,,,
sequence,flow.Sequence,4_116,2023-09-08T19:54:47.696Z,,0,,,3686.533999952313,completion,,,,,false,,,,499412.10000002384,499411.7999999523,495708.771,495693.2999999523,495725.266,499425.152,8,400,,,
trial,html.Screen,4_117_0,2023-09-08T19:54:50.994Z,,0,3,,3284.347999999998,response,ISIC_0060968.JPG,5,ISIC_8066110.JPG,ISIC_0060968.JPG,false,1,keypress(m),500,502709.7999999523,502709.5,499408.602,499412.2999999523,499425.152,502725.001,8,400,18,,ISIC_8066110.JPG
break,html.Screen,4_117_1,2023-09-08T19:54:50.995Z,,0,,,NaN,,,,,,false,,,,502711.10000002384,502710.7999999523,,502710,,502725.001,8,400,,,
break_continue,html.Screen,4_117_2,2023-09-08T19:54:50.996Z,,0,,,NaN,,,,,,false,,,,502711.7000000477,502711.5,,502711.2999999523,,502725.001,8,400,,,
sequence,flow.Sequence,4_117,2023-09-08T19:54:50.996Z,,0,,,3286.347999999998,completion,,,,,false,,,,502711.89999997616,502711.5,499408.602,499412.2000000477,499425.152,502725.001,8,400,,,
trial,html.Screen,4_118_0,2023-09-08T19:54:53.942Z,,0,3,,2932.298999952327,response,ISIC_7216266.JPG,5,ISIC_0024232.JPG,ISIC_7216266.JPG,false,1,keypress(m),500,505657.60000002384,505657.2999999523,502708.505,502712,502725.001,505674.945,8,400,19,,ISIC_0024232.JPG
break,html.Screen,4_118_1,2023-09-08T19:54:53.943Z,,0,,,NaN,,,,,,false,,,,505658.39999997616,505658.10000002384,,505657.7000000477,,505674.945,8,400,,,
break_continue,html.Screen,4_118_2,2023-09-08T19:54:53.943Z,,0,,,NaN,,,,,,false,,,,505659.10000002384,505659,,505658.7999999523,,505674.945,8,400,,,
sequence,flow.Sequence,4_118,2023-09-08T19:54:53.944Z,,0,,,2933.9990000000107,completion,,,,,false,,,,505659.2999999523,505659,502708.505,502712,502725.001,505674.945,8,400,,,
trial,html.Screen,4_119_0,2023-09-08T19:54:57.039Z,,0,3,,3079.2550000476767,response,ISIC_0026039.JPG,5,ISIC_8419663.JPG,ISIC_8419663.JPG,false,0,keypress(z),500,508754.5,508754.2000000477,505658.394,505659.39999997616,505674.945,508758.207,8,400,20,,ISIC_0026039.JPG
break,html.Screen,4_119_1,2023-09-08T19:54:57.040Z,,0,,,NaN,,,,,,false,,,,508755.7000000477,508755.39999997616,,508754.7999999523,,508758.207,8,400,,,
break_continue,html.Screen,4_119_2,2023-09-08T19:54:57.041Z,,0,,,NaN,,,,,,false,,,,508756.2000000477,508756.10000002384,,508755.89999997616,,508758.207,8,400,,,
sequence,flow.Sequence,4_119,2023-09-08T19:54:57.041Z,,0,,,3081.155000023835,completion,,,,,false,,,,508756.39999997616,508756.10000002384,505658.394,505659.39999997616,505674.945,508758.207,8,400,,,
trial,html.Screen,4_120_0,2023-09-08T19:54:59.843Z,,0,3,,2800.5929999523214,response,ISIC_0234248.JPG,5,ISIC_4960406.JPG,ISIC_0234248.JPG,false,1,keypress(m),500,511559.10000002384,511558.7999999523,508741.403,508756.60000002384,508758.207,511574.661,8,400,21,,ISIC_4960406.JPG
break,html.Screen,4_120_1,2023-09-08T19:54:59.845Z,,0,,,NaN,,,,,,false,,,,511560.89999997616,511560.60000002384,,511559.5,,511574.661,8,400,,,
break_continue,html.Screen,4_120_2,2023-09-08T19:54:59.846Z,,0,,,NaN,,,,,,false,,,,511561.60000002384,511561.39999997616,,511561.2000000477,,511574.661,8,400,,,
sequence,flow.Sequence,4_120,2023-09-08T19:54:59.846Z,,0,,,2803.1929999761633,completion,,,,,false,,,,511561.7999999523,511561.39999997616,508741.403,508756.5,508758.207,511574.661,8,400,,,
trial,html.Screen,4_121_0,2023-09-08T19:55:03.241Z,,0,3,,3381.43900002382,response,ISIC_6635699.JPG,5,ISIC_0054892.JPG,ISIC_0054892.JPG,false,0,keypress(z),500,514956.39999997616,514956.10000002384,511558.035,511561.89999997616,511574.661,514975.92,8,400,22,,ISIC_6635699.JPG
break,html.Screen,4_121_1,2023-09-08T19:55:03.242Z,,0,,,NaN,,,,,,false,,,,514957.7999999523,514957.39999997616,,514956.5,,514975.92,8,400,,,
break_continue,html.Screen,4_121_2,2023-09-08T19:55:03.243Z,,0,,,NaN,,,,,,false,,,,514958.39999997616,514958.2000000477,,514957.89999997616,,514975.92,8,400,,,
sequence,flow.Sequence,4_121,2023-09-08T19:55:03.243Z,,0,,,3383.539000047662,completion,,,,,false,,,,514958.5,514958.2000000477,511558.035,511561.7999999523,511574.661,514975.92,8,400,,,
trial,html.Screen,4_122_0,2023-09-08T19:55:05.956Z,,0,3,,2695.0800000000163,response,ISIC_0773096.JPG,6,ISIC_1220154.JPG,ISIC_0773096.JPG,false,1,keypress(m),500,517671.2999999523,517671,514941.265,514958.7000000477,514975.92,517674.523,8,400,23,,ISIC_1220154.JPG
break,html.Screen,4_122_1,2023-09-08T19:55:05.957Z,,0,,,NaN,,,,,,false,,,,517672.2999999523,517671.89999997616,,517671.39999997616,,517674.523,8,400,,,
break_continue,html.Screen,4_122_2,2023-09-08T19:55:05.957Z,,0,,,NaN,,,,,,false,,,,517672.7000000477,517672.60000002384,,517672.39999997616,,517674.523,8,400,,,
sequence,flow.Sequence,4_122,2023-09-08T19:55:05.957Z,,0,,,2696.680000023858,completion,,,,,false,,,,517673,517672.60000002384,514941.265,514958.60000002384,514975.92,517674.523,8,400,,,
trial,html.Screen,4_123_0,2023-09-08T19:55:09.559Z,,0,3,,3599.8769999761716,response,ISIC_0015045.JPG,5,ISIC_0030437.JPG,ISIC_0015045.JPG,false,1,keypress(m),500,521274.60000002384,521274.39999997616,517657.766,517673.10000002384,517674.523,521290.973,8,400,24,,ISIC_0030437.JPG
break,html.Screen,4_123_1,2023-09-08T19:55:09.560Z,,0,,,NaN,,,,,,false,,,,521275.89999997616,521275.39999997616,,521274.89999997616,,521290.973,8,400,,,
break_continue,html.Screen,4_123_2,2023-09-08T19:55:09.561Z,,0,,,NaN,,,,,,false,,,,521276.39999997616,521276.2999999523,,521276,,521290.973,8,400,,,
sequence,flow.Sequence,4_123,2023-09-08T19:55:09.561Z,,0,,,3601.77699995233,completion,,,,,false,,,,521276.60000002384,521276.2999999523,517657.766,517673,517674.523,521290.973,8,400,,,
trial,html.Screen,4_124_0,2023-09-08T19:55:13.122Z,,0,3,,3546.42699997616,response,ISIC_1932064.JPG,4,ISIC_0013801.JPG,ISIC_0013801.JPG,false,0,keypress(z),500,524837.6000000238,524837.3999999762,521274.262,521276.7999999523,521290.973,524857.793,8,400,25,,ISIC_1932064.JPG
break,html.Screen,4_124_1,2023-09-08T19:55:13.123Z,,0,,,NaN,,,,,,false,,,,524838.3999999762,524838.2000000477,,524837.7999999523,,524857.793,8,400,,,
break_continue,html.Screen,4_124_2,2023-09-08T19:55:13.123Z,,0,,,NaN,,,,,,false,,,,524838.6000000238,524838.6000000238,,524838.3999999762,,524857.793,8,400,,,
sequence,flow.Sequence,4_124,2023-09-08T19:55:13.123Z,,0,,,3547.6270000238437,completion,,,,,false,,,,524838.7000000477,524838.6000000238,521274.262,521276.7999999523,521290.973,524857.793,8,400,,,
trial,html.Screen,4_125_0,2023-09-08T19:55:15.996Z,,0,3,,2853.307000023895,response,ISIC_9810276.JPG,6,ISIC_7956417.JPG,ISIC_9810276.JPG,false,1,keypress(m),500,527711.2999999523,527711.1000000238,524840.911,524838.7999999523,524857.793,527724.102,8,400,26,,ISIC_7956417.JPG
